Sample, Time, ACCX, ACCY, ACCZ, MAGX, MAGY, MAGZ, GYRX, GYRY, GYRZ
0,39351.359000,253.035,-1.509,-11.953,497.217,170.746,-124.014,-25.040,-55.490,-19.020
1,39351.399000,252.046,-2.515,-6.973,498.243,176.602,-122.902,6.960,-66.490,-24.020
2,39351.423000,255.012,-0.503,-7.969,494.364,175.593,-122.932,17.960,-73.490,-21.020
3,39351.464000,253.035,1.509,-15.938,497.217,171.630,-127.917,98.960,-76.490,-8.020
4,39351.520000,255.012,0.503,-18.926,498.241,177.465,-127.786,104.960,-61.490,9.980
5,39351.566000,256.000,1.509,-17.930,495.320,175.495,-127.836,64.960,-29.490,18.980
6,39351.580000,251.058,-1.509,-12.949,494.209,161.786,-133.046,49.960,-24.490,15.980
7,39351.631000,252.046,-4.527,-10.957,494.285,169.553,-132.873,118.960,-59.490,28.980
8,39351.663000,257.977,-3.521,-14.942,494.259,167.546,-135.860,261.960,-52.490,31.980
9,39351.698000,255.012,1.509,-24.903,493.266,165.530,-138.848,71.960,-23.490,36.980
10,39351.720000,254.023,-1.509,-19.922,498.132,168.490,-138.773,68.960,19.510,42.980
11,39351.758000,252.046,-2.515,-16.934,496.215,169.528,-134.831,31.960,32.510,40.980
12,39351.806000,254.023,-4.527,-10.957,495.198,164.643,-135.922,-19.040,25.510,27.980
13,39351.848000,251.058,-5.532,-10.957,493.249,162.725,-134.007,-24.040,8.510,11.980
14,39351.895000,255.012,-1.509,-14.942,494.224,163.684,-134.965,16.960,-7.490,4.980
15,39351.943000,253.035,0.503,-18.926,498.124,166.656,-133.910,16.960,3.510,10.980
16,39351.957000,255.012,-2.515,-17.930,494.216,162.735,-134.005,-68.040,36.510,10.980
17,39352.0,256.000,-2.515,-14.942,498.088,162.794,-133.015,-95.040,52.510,8.980
18,39352.20000,254.023,-2.515,-11.953,497.116,161.857,-131.077,-56.040,58.510,13.980
19,39352.68000,256.000,-0.503,-15.938,498.081,160.960,-128.152,-78.040,64.510,10.980
20,39352.99000,254.023,-6.538,-11.953,493.286,164.840,-126.115,-174.040,75.510,-5.020
21,39352.146000,253.035,-4.527,-9.961,497.238,172.709,-122.990,-117.040,73.510,-3.020
22,39352.186000,255.012,-3.521,-8.965,499.177,172.771,-121.023,-88.040,65.510,-8.020
23,39352.223000,255.012,-2.515,-9.961,500.076,165.078,-118.250,-132.040,54.510,-19.020
24,39352.261000,253.035,-2.515,-3.984,499.130,167.032,-117.228,-162.040,33.510,-26.020
25,39352.305000,251.058,-3.521,-4.981,494.316,168.970,-115.234,-88.040,-11.490,-27.020
26,39352.339000,252.046,-3.521,-6.973,496.269,170.931,-115.186,-56.040,-30.490,-22.020
27,39352.364000,252.046,-2.515,-3.984,499.252,178.769,-113.045,-29.040,-43.490,-11.020
28,39352.411000,254.023,0.503,-3.984,494.342,172.746,-120.053,21.960,-76.490,-12.020
29,39352.444000,251.058,-4.527,-6.973,499.165,171.779,-122.026,10.960,-110.490,-2.020
30,39352.484000,254.023,-1.509,-11.953,493.396,175.584,-122.934,12.960,-110.490,0.980
31,39352.525000,254.023,-0.503,-13.946,496.304,176.540,-124.868,40.960,-105.490,16.980
32,39352.561000,254.023,0.503,-14.942,497.260,176.442,-129.772,71.960,-103.490,34.980
33,39352.601000,256.988,-3.521,-19.922,500.148,175.456,-131.749,45.960,-79.490,66.980
34,39352.639000,254.023,-2.515,-18.926,496.241,171.535,-131.844,108.960,-47.490,73.980
35,39352.660000,256.000,-3.521,-17.930,500.070,167.667,-132.903,113.960,-35.490,92.980
36,39352.716000,253.035,3.521,-21.914,495.182,163.607,-138.887,76.960,-13.490,114.980
37,39352.741000,257.977,-1.509,-16.934,501.012,165.670,-135.887,79.960,-12.490,91.980
38,39352.781000,248.093,-16.597,-9.961,500.021,162.791,-133.992,14.960,-34.490,70.980
39,39352.819000,253.035,-6.538,-15.938,499.934,154.032,-135.167,31.960,-53.490,60.980
40,39352.867000,256.988,-16.597,-18.926,497.072,158.793,-138.009,-34.040,-51.490,57.980
41,39352.904000,252.046,-15.591,-16.934,497.992,153.949,-138.115,-14.040,-33.490,44.980
42,39352.940000,252.046,-9.556,-18.926,499.953,156.858,-139.027,68.960,-21.490,32.980
43,39352.959000,253.035,-6.538,-20.918,496.001,148.989,-142.152,11.960,-7.490,33.980
44,39353.5000,254.023,-12.574,-20.918,502.851,155.959,-137.079,21.960,3.510,20.980
45,39353.40000,252.046,-17.603,-15.938,498.939,151.995,-139.137,-4.040,0.510,6.980
46,39353.84000,253.035,-12.574,-15.938,500.899,154.020,-136.146,5.960,-13.490,-5.020
47,39353.120000,255.012,-14.585,-17.930,500.815,146.167,-140.243,26.960,-28.490,-24.020
48,39353.164000,254.023,-10.562,-17.930,497.946,149.979,-142.126,22.960,-36.490,-37.020
49,39353.200000,256.000,-10.562,-19.922,499.954,157.743,-142.930,44.960,-36.490,-48.020
50,39353.241000,251.058,-8.550,-19.922,495.079,153.812,-143.027,28.960,-30.490,-51.020
51,39353.271000,254.023,-8.550,-21.914,495.074,152.885,-141.087,47.960,-15.490,-60.020
52,39353.318000,255.012,-7.544,-22.911,498.953,153.893,-141.056,21.960,-4.490,-62.020
53,39353.339000,255.012,-4.527,-21.914,498.063,161.672,-139.905,48.960,19.510,-71.020
54,39353.385000,255.012,-5.532,-20.918,498.078,163.571,-141.824,32.960,36.510,-74.020
55,39353.421000,253.035,-3.521,-20.918,496.178,167.414,-142.723,48.960,53.510,-77.020
56,39353.465000,256.000,-6.538,-18.926,492.315,167.441,-139.789,-6.040,69.510,-90.020
57,39353.500000,256.988,-2.515,-18.926,494.264,168.474,-137.800,-11.040,82.510,-107.020
58,39353.544000,255.012,-0.503,-16.934,495.241,169.454,-137.777,-30.040,98.510,-132.020
59,39353.594000,256.988,-0.503,-16.934,493.367,175.304,-135.689,-48.040,108.510,-131.020
60,39353.601000,253.035,0.503,-12.949,495.372,181.277,-129.669,-21.040,122.510,-147.020
61,39353.640000,255.012,4.527,-13.946,494.442,185.151,-129.585,-36.040,126.510,-146.020
62,39353.686000,252.046,3.521,-11.953,495.412,184.297,-124.698,-43.040,144.510,-132.020
63,39353.725000,256.000,4.527,-8.965,491.631,192.156,-118.648,14.960,161.510,-129.020
64,39353.760000,256.988,7.544,-5.977,492.546,186.383,-116.813,-20.040,159.510,-141.020
65,39353.803000,254.023,6.538,-1.992,486.845,196.122,-112.686,-62.040,141.510,-153.020
66,39353.840000,250.069,9.556,4.981,490.761,200.129,-108.666,-58.040,97.510,-165.020
67,39353.883000,252.046,15.591,2.988,486.922,203.026,-107.629,-30.040,43.510,-162.020
68,39353.901000,257.977,18.609,-0.996,483.038,201.974,-109.622,-71.040,18.510,-178.020
69,39353.943000,256.000,21.627,4.981,481.164,207.824,-107.535,-163.040,-47.490,-195.020
70,39353.980000,257.977,26.656,6.973,482.226,217.542,-107.317,-139.040,-105.490,-184.020
71,39354.23000,256.988,39.733,-2.988,480.343,223.305,-109.154,-217.040,-182.490,-160.020
72,39354.60000,256.000,29.674,-3.984,477.481,228.066,-111.996,-312.040,-256.490,-156.020
73,39354.101000,249.081,27.662,-20.918,475.514,225.092,-114.028,-152.040,-321.490,-143.020
74,39354.145000,250.069,14.585,-42.833,465.869,230.564,-125.695,32.960,-417.490,-130.020
75,39354.181000,246.116,33.697,-44.825,462.961,232.240,-136.451,157.960,-476.490,-151.020
76,39354.200000,233.266,31.686,-33.868,461.114,242.749,-143.086,-37.040,-389.490,-109.020
77,39354.242000,230.301,30.680,-34.864,458.200,242.613,-147.999,2.960,-222.490,-13.020
78,39354.280000,229.313,31.686,-36.856,458.181,240.672,-148.042,-245.040,-29.490,121.980
79,39354.322000,236.232,36.715,-57.774,460.996,231.056,-145.307,-445.040,47.510,227.980
80,39354.360000,255.012,39.733,-21.914,467.798,232.287,-136.440,-774.040,137.510,216.980
81,39354.402000,272.803,2.515,44.825,470.753,234.580,-121.673,-409.040,332.510,211.980
82,39354.443000,266.873,4.527,-15.938,473.556,223.972,-119.941,441.960,260.510,176.980
83,39354.480000,252.046,60.857,-7.969,478.353,220.114,-120.997,134.960,167.510,176.980
84,39354.521000,254.023,5.532,9.961,478.378,221.236,-114.107,-98.040,0.510,188.980
85,39354.540000,247.104,4.527,-20.918,478.278,212.348,-121.170,316.960,-9.490,184.980
86,39354.586000,250.069,15.591,-16.934,479.212,209.401,-123.194,56.960,-71.490,163.980
87,39354.623000,255.012,13.580,-12.949,480.107,202.550,-126.287,29.960,-119.490,164.980
88,39354.669000,255.012,8.550,-18.926,483.017,203.527,-127.239,141.960,-121.490,178.980
89,39354.706000,251.058,8.550,-23.907,488.711,192.840,-130.407,32.960,-127.490,163.980
90,39354.746000,251.058,3.521,-19.922,486.819,197.632,-132.266,57.960,-120.490,166.980
91,39354.786000,259.954,3.521,-22.911,482.829,185.879,-135.477,59.960,-124.490,152.980
92,39354.825000,253.035,10.562,-27.891,486.716,188.722,-140.309,11.960,-132.490,132.980
93,39354.843000,260.942,-1.509,-28.887,486.700,187.686,-143.274,-84.040,-100.490,110.980
94,39354.883000,254.023,-3.521,-30.879,487.650,185.776,-142.334,4.960,-46.490,102.980
95,39354.923000,254.023,-5.532,-26.895,486.570,174.116,-142.595,-2.040,-2.490,84.980
96,39354.962000,255.012,0.503,-29.883,485.668,180.902,-142.446,11.960,19.510,74.980
97,39355.4000,251.058,-7.544,-25.899,487.539,174.147,-141.611,-25.040,23.510,37.980
98,39355.46000,255.012,-3.521,-23.907,486.622,179.898,-144.428,-53.040,23.510,24.980
99,39355.85000,249.081,-3.521,-24.903,490.501,180.022,-140.494,11.960,19.510,14.980
100,39355.121000,256.000,-0.503,-28.887,490.510,180.993,-140.472,-25.040,26.510,-0.020
101,39355.141000,252.046,0.503,-24.903,489.509,177.143,-138.599,-40.040,57.510,20.980
102,39355.181000,256.000,3.521,-27.891,492.423,177.279,-133.686,-33.040,120.510,37.980
103,39355.221000,258.965,-1.509,-32.872,491.439,175.349,-132.750,-62.040,181.510,59.980
104,39355.270000,259.954,8.550,-34.864,493.441,180.417,-123.808,-138.040,338.510,93.980
105,39355.302000,258.965,3.521,-18.926,500.231,179.771,-112.040,-318.040,436.510,138.980
106,39355.343000,252.046,-3.521,-1.992,503.110,174.297,-97.445,-241.040,380.510,136.980
107,39355.384000,234.255,-37.721,31.875,505.014,170.497,-94.584,-38.040,150.510,54.980
108,39355.424000,244.139,-34.703,22.911,501.208,177.234,-95.423,121.960,-87.490,-91.020
109,39355.450000,253.035,-6.538,-4.981,499.274,178.100,-99.330,72.960,-226.490,-131.020
110,39355.489000,254.023,-3.521,-14.942,497.264,172.083,-107.313,109.960,-216.490,-115.020
111,39355.526000,240.185,-36.715,-7.969,496.316,174.900,-111.176,286.960,-134.490,-31.020
112,39355.566000,258.965,12.574,-19.922,498.207,171.856,-118.104,605.960,-81.490,-5.020
113,39355.606000,267.861,33.697,-18.926,497.259,174.672,-121.966,102.960,-116.490,-57.020
114,39355.661000,259.954,7.544,-15.938,495.360,179.400,-126.768,57.960,-132.490,-48.020
115,39355.687000,249.081,-0.503,-18.926,494.367,177.384,-129.757,110.960,-123.490,-32.020
116,39355.726000,254.023,1.509,-22.911,493.423,180.244,-131.657,5.960,-102.490,-32.020
117,39355.771000,256.000,-4.527,-20.918,491.465,178.240,-133.667,34.960,-67.490,-11.020
118,39355.790000,257.977,-0.503,-20.918,487.576,176.261,-133.719,29.960,-44.490,-9.020
119,39355.824000,255.012,-0.503,-21.914,488.577,180.111,-135.593,-2.040,-35.490,-12.020
120,39355.864000,251.058,-2.515,-20.918,488.603,183.002,-136.509,10.960,-37.490,-12.020
121,39355.906000,252.046,-6.538,-19.922,484.724,181.993,-136.540,39.960,-34.490,-7.020
122,39355.946000,253.035,-2.515,-19.922,492.431,179.113,-138.549,114.960,-23.490,-2.020
123,39355.985000,255.012,7.544,-23.907,489.456,172.224,-141.650,78.960,-27.490,-2.020
124,39356.21000,259.954,4.527,-25.899,487.518,172.183,-142.636,-7.040,-22.490,1.980
125,39356.63000,252.046,-1.509,-22.911,488.516,174.242,-137.684,-25.040,-1.490,16.980
126,39356.84000,251.058,-4.527,-21.914,488.556,179.032,-140.520,-9.040,13.510,22.980
127,39356.128000,251.058,-1.509,-21.914,489.460,172.267,-139.688,-12.040,12.510,23.980
128,39356.167000,255.012,-0.503,-20.918,489.526,179.063,-139.537,-21.040,8.510,32.980
129,39356.205000,253.035,-1.509,-19.922,489.465,173.195,-141.628,10.960,5.510,30.980
130,39356.247000,252.046,-4.527,-18.926,491.402,173.235,-140.643,2.960,-5.490,24.980
131,39356.284000,253.035,-0.503,-18.926,493.379,177.181,-138.590,32.960,-14.490,21.980
132,39356.324000,256.000,0.503,-22.911,491.412,174.206,-140.621,26.960,-13.490,27.980
133,39356.364000,251.058,-0.503,-22.911,491.381,171.272,-141.667,-18.040,-5.490,36.980
134,39356.384000,252.046,-7.544,-19.922,489.397,166.377,-142.760,23.960,-8.490,35.980
135,39356.424000,251.058,-1.509,-21.914,491.364,169.352,-140.729,-21.040,-14.490,40.980
136,39356.467000,252.046,-6.538,-19.922,491.369,170.279,-142.670,11.960,0.510,55.980
137,39356.502000,258.965,-3.521,-22.911,492.360,172.274,-140.662,-0.040,-4.490,59.980
138,39356.554000,250.069,-3.521,-21.914,493.290,168.400,-140.746,-29.040,-2.490,51.980
139,39356.583000,256.000,-8.550,-21.914,488.443,167.382,-140.779,16.960,2.510,52.980
140,39356.623000,257.977,-0.503,-25.899,493.247,163.588,-138.892,0.960,37.510,55.980
141,39356.663000,251.058,-9.556,-21.914,495.118,156.833,-138.057,13.960,64.510,66.980
142,39356.702000,254.023,-13.580,-17.930,493.275,165.617,-134.924,50.960,85.510,47.980
143,39356.723000,253.035,-14.585,-14.942,497.130,163.756,-132.996,-10.040,68.510,32.980
144,39356.764000,250.069,-11.568,-8.965,495.165,160.803,-134.046,12.960,22.510,-13.020
145,39356.804000,250.069,-8.550,-14.942,493.183,155.929,-134.158,-15.040,-27.490,-40.020
146,39356.850000,252.046,-7.544,-16.934,496.166,164.652,-135.920,-26.040,-46.490,-48.020
147,39356.886000,257.977,-10.562,-17.930,496.194,167.565,-135.855,-31.040,-27.490,-66.020
148,39356.925000,255.012,-6.538,-15.938,493.310,169.478,-135.819,-40.040,-39.490,-96.020
149,39356.963000,253.035,-2.515,-15.938,493.308,169.457,-136.800,32.960,-69.490,-91.020
150,39357.2000,256.000,-2.515,-23.907,492.336,169.404,-138.764,-41.040,-58.490,-83.020
151,39357.23000,253.035,-5.532,-17.930,488.476,170.337,-138.752,-48.040,-42.490,-78.020
152,39357.64000,253.035,-0.503,-16.934,491.430,176.148,-140.578,-9.040,-56.490,-83.020
153,39357.104000,252.046,0.503,-20.918,487.563,177.016,-143.509,-0.040,-82.490,-85.020
154,39357.144000,252.046,1.509,-22.911,488.566,180.887,-144.401,-9.040,-78.490,-82.020
155,39357.188000,248.093,-0.503,-22.911,482.788,183.722,-145.331,28.960,-92.490,-79.020
156,39357.226000,249.081,0.503,-20.918,484.666,178.800,-149.359,6.960,-113.490,-65.020
157,39357.269000,254.023,5.532,-30.879,482.795,185.556,-150.194,56.960,-81.490,-44.020
158,39357.307000,251.058,6.538,-29.883,483.759,186.407,-156.057,14.960,-67.490,-23.020
159,39357.329000,253.035,4.527,-30.879,482.751,182.492,-157.127,51.960,-55.490,6.980
160,39357.364000,253.035,0.503,-24.903,480.781,178.612,-156.236,49.960,-53.490,23.980
161,39357.405000,253.035,8.550,-26.895,480.833,184.394,-158.069,-34.040,-87.490,19.980
162,39357.446000,248.093,-2.515,-27.891,481.756,180.455,-161.097,63.960,-101.490,33.980
163,39357.486000,250.069,2.515,-31.875,479.814,180.371,-164.045,53.960,-129.490,42.980
164,39357.529000,250.069,-6.538,-20.918,480.803,183.229,-166.921,98.960,-162.490,48.980
165,39357.569000,247.104,-5.532,-42.833,480.677,171.449,-173.067,201.960,-151.490,89.980
166,39357.604000,256.000,14.585,-46.817,479.681,169.411,-177.037,137.960,-80.490,104.980
167,39357.645000,260.942,13.580,-38.848,481.548,161.728,-174.261,17.960,-41.490,153.980
168,39357.665000,255.012,-5.532,-37.852,480.644,168.493,-175.094,-85.040,-12.490,102.980
169,39357.705000,250.069,-19.615,-24.903,482.565,167.498,-177.073,-117.040,-47.490,25.980
170,39357.750000,245.127,-12.574,-31.875,480.649,169.421,-177.035,-92.040,-141.490,-25.020
171,39357.785000,255.012,5.532,-38.848,479.576,159.595,-182.158,-99.040,-181.490,-26.020
172,39357.826000,255.012,0.503,-47.813,471.914,168.192,-184.925,-166.040,-190.490,-8.020
173,39357.869000,255.012,-0.503,-46.817,473.906,174.921,-188.695,-100.040,-162.490,-9.020
174,39357.912000,244.139,-7.544,-50.802,476.797,173.957,-189.691,-164.040,-152.490,-6.020
175,39357.945000,253.035,-6.538,-46.817,474.876,175.837,-191.614,-100.040,-139.490,-27.020
176,39357.966000,244.139,-13.580,-33.868,471.941,172.853,-193.648,-64.040,-194.490,-51.020
177,39358.4000,240.185,-7.544,-43.829,466.166,177.478,-201.403,-14.040,-300.490,-103.020
178,39358.56000,250.069,2.515,-51.798,461.337,180.149,-210.180,13.960,-366.490,-117.020
179,39358.87000,248.093,11.568,-46.817,455.543,183.717,-221.880,-63.040,-522.490,-183.020
180,39358.129000,244.139,-15.591,-56.778,452.627,184.444,-231.677,111.960,-577.490,-195.020
181,39358.166000,272.803,26.656,-67.735,445.892,190.009,-240.394,-214.040,-410.490,-120.020
182,39358.205000,263.907,15.591,-56.778,438.156,192.609,-251.140,-201.040,-633.490,-240.020
183,39358.249000,263.907,41.745,-68.732,426.654,206.735,-265.560,-502.040,-1014.490,-212.020
184,39358.286000,279.722,18.609,-99.611,409.310,217.806,-283.984,-289.040,-1069.490,-245.020
185,39358.309000,247.104,-105.116,-61.759,396.660,214.340,-303.700,444.960,-773.490,-111.020
186,39358.349000,183.846,92.039,-167.346,391.763,210.193,-313.609,419.960,-473.490,-18.020
187,39358.385000,184.834,15.591,-101.603,388.882,213.013,-316.495,-493.040,-442.490,98.980
188,39358.431000,182.857,26.656,-150.412,386.964,214.030,-313.534,-352.040,-86.490,150.980
189,39358.484000,168.031,24.644,-149.416,388.030,223.791,-311.354,-223.040,-2.490,103.980
190,39358.504000,197.683,25.650,-158.381,391.892,222.879,-310.386,137.960,30.510,-63.020
191,39358.546000,200.649,-14.585,-235.082,389.894,216.971,-313.463,31.960,-66.490,-56.020
192,39358.586000,192.741,-5.532,-272.934,379.246,217.687,-320.334,-186.040,-585.490,83.980
193,39358.606000,160.124,9.556,-220.140,368.624,221.294,-328.122,-235.040,-835.490,87.980
194,39358.650000,132.448,-3.521,-61.759,353.998,212.134,-341.104,-99.040,-276.490,155.980
195,39358.690000,206.579,-18.609,76.700,362.868,225.229,-323.143,-672.040,955.510,129.980
196,39358.732000,280.710,-15.591,-56.778,381.232,220.834,-310.453,575.960,920.510,66.980
197,39358.766000,352.865,46.774,-73.712,385.997,211.388,-300.846,125.960,677.510,183.980
198,39358.810000,282.687,67.898,-85.665,391.805,209.719,-291.065,133.960,385.510,63.980
199,39358.851000,272.803,93.045,-86.661,394.700,208.798,-290.098,246.960,75.510,20.980
200,39358.891000,221.405,16.597,-128.498,397.601,208.804,-291.073,79.960,25.510,44.980
201,39358.905000,187.799,-31.686,-133.479,399.544,208.909,-287.144,51.960,241.510,60.980
202,39358.945000,197.683,-26.656,-123.518,406.252,201.316,-282.395,243.960,518.510,132.980
203,39358.994000,238.208,77.957,-67.735,417.818,193.965,-268.804,-489.040,531.510,330.980
204,39359.30000,275.768,0.503,-77.696,421.759,198.209,-253.992,-344.040,410.510,355.980
205,39359.70000,267.861,2.515,-78.693,431.435,196.556,-245.182,-347.040,271.510,233.980
206,39359.125000,258.965,-52.809,-71.720,429.497,195.631,-242.265,-85.040,180.510,79.980
207,39359.146000,206.579,4.527,-115.549,434.338,194.837,-236.388,211.960,375.510,36.980
208,39359.187000,230.301,-7.544,-72.716,440.997,182.368,-232.728,378.960,460.510,45.980
209,39359.226000,264.896,7.544,-39.844,443.861,177.628,-228.905,806.960,286.510,38.980
210,39359.246000,255.012,-27.662,-40.840,444.720,166.915,-231.102,794.960,32.510,-26.020
211,39359.286000,238.208,26.656,-95.626,442.775,167.673,-239.915,829.960,-34.490,-97.020
212,39359.327000,239.197,23.639,-89.650,445.590,158.942,-241.084,657.960,118.510,-47.020
213,39359.366000,254.023,47.780,-96.623,446.512,154.118,-240.208,417.960,238.510,9.980
214,39359.410000,255.012,-4.527,-54.786,449.336,144.589,-233.549,216.960,447.510,138.980
215,39359.450000,253.035,-19.615,-37.852,456.131,144.871,-223.722,153.960,455.510,110.980
216,39359.490000,249.081,-36.715,-56.778,460.021,145.987,-218.786,253.960,317.510,-23.020
217,39359.527000,220.417,-24.644,-48.809,466.729,138.394,-214.037,210.960,237.510,1.980
218,39359.546000,255.012,-26.656,-60.763,467.698,136.656,-205.248,88.960,290.510,38.980
219,39359.588000,253.035,3.521,-42.833,468.639,133.774,-204.329,100.960,376.510,55.980
220,39359.630000,248.093,8.550,-49.805,473.497,134.015,-195.487,-333.040,325.510,235.980
221,39359.700000,261.931,-57.839,-6.973,479.357,138.128,-187.538,-456.040,90.510,90.980
222,39359.717000,259.954,-1.509,-34.864,479.368,138.236,-182.633,-239.040,43.510,51.980
223,39359.747000,260.942,12.574,-24.903,478.370,135.292,-183.681,-257.040,-29.490,79.980
224,39359.788000,259.954,-16.597,-28.887,474.515,137.153,-185.609,-352.040,-230.490,102.980
225,39359.827000,239.197,-34.703,-80.685,478.416,141.010,-188.457,-21.040,-133.490,60.980
226,39359.850000,258.965,-31.686,-78.693,477.460,141.993,-187.457,-173.040,53.510,-2.020
227,39359.888000,247.104,-24.644,-50.802,478.368,135.271,-184.662,67.960,252.510,0.980
228,39359.930000,237.220,-17.603,5.977,480.385,142.237,-177.638,75.960,272.510,-0.020
229,39359.970000,252.046,-26.656,-19.922,484.180,132.760,-169.015,-205.040,242.510,83.980
230,39360.9000,246.116,-12.574,-20.918,483.271,137.712,-164.004,-174.040,122.510,31.980
231,39360.51000,237.220,-43.756,-36.856,488.186,144.664,-158.936,-93.040,65.510,17.980
232,39360.96000,246.116,-43.756,-33.868,491.081,143.743,-157.969,129.960,88.510,-4.020
233,39360.131000,256.000,-19.615,-15.938,489.142,143.681,-159.936,-26.040,10.510,-33.020
234,39360.171000,254.023,-9.556,0.000,486.194,138.819,-159.069,0.960,-56.490,-58.020
235,39360.191000,238.208,-27.662,-62.755,487.223,144.697,-156.976,202.960,111.510,11.980
236,39360.231000,254.023,3.521,0.996,489.111,139.862,-157.079,-300.040,75.510,11.980
237,39360.267000,278.734,-24.644,-2.988,490.095,141.791,-158.015,-111.040,-12.490,40.980
238,39360.309000,266.873,-17.603,-21.914,488.191,145.591,-160.876,85.960,-159.490,-73.020
239,39360.347000,279.722,-5.532,-17.930,483.347,145.479,-163.831,-134.040,-171.490,-83.020
240,39360.389000,291.583,-22.633,9.961,481.386,143.454,-166.822,-247.040,-362.490,-121.020
241,39360.427000,258.965,-4.527,-29.883,478.584,155.831,-176.360,127.960,-576.490,-185.020
242,39360.470000,256.988,-61.862,69.728,475.581,146.914,-183.429,135.960,-127.490,-15.020
243,39360.507000,218.440,-11.568,112.560,482.428,152.978,-175.434,382.960,526.510,-61.020
244,39360.537000,259.954,-2.515,44.825,492.097,147.743,-152.975,414.960,1050.510,-35.020
245,39360.569000,265.884,2.515,25.899,500.844,146.447,-127.488,443.960,1150.510,-40.020
246,39360.612000,255.012,-10.562,-31.875,507.675,148.843,-109.769,460.960,1084.510,-54.020
247,39360.646000,225.359,-8.550,-60.763,515.467,149.415,-87.184,348.960,696.510,-85.020
248,39360.692000,239.197,-6.538,-30.879,520.432,159.494,-72.240,255.960,535.510,-87.020
249,39360.727000,231.290,4.527,-48.809,523.314,154.042,-56.665,-299.040,455.510,-21.020
250,39360.769000,192.741,-22.633,-185.276,528.153,153.226,-51.769,-603.040,75.510,130.980
251,39360.809000,313.328,-135.293,130.490,526.193,152.086,-58.663,-70.040,-412.490,124.980
252,39360.835000,261.931,-40.739,-91.642,528.122,153.809,-69.408,613.960,-413.490,104.980
253,39360.871000,263.907,59.851,0.996,522.222,146.676,-82.328,228.960,-470.490,9.980
254,39360.911000,270.826,19.615,0.996,526.081,148.375,-95.030,-44.040,-525.490,71.980
255,39360.955000,258.965,-46.774,-20.918,524.084,144.235,-105.914,-91.040,-446.490,-11.020
256,39360.989000,261.931,-9.556,-16.934,518.346,152.744,-113.582,-171.040,-327.490,-82.020
257,39361.31000,259.954,11.568,-15.938,519.255,147.791,-118.594,49.960,-184.490,-25.020
258,39361.71000,253.035,-25.650,-11.953,519.277,150.639,-121.472,-171.040,-182.490,4.980
259,39361.111000,252.046,-10.562,-15.938,520.289,155.481,-122.343,-225.040,-163.490,-42.020
260,39361.131000,255.012,-7.544,-2.988,518.326,153.435,-126.316,-66.040,-220.490,-48.020
261,39361.171000,252.046,-34.703,0.996,515.380,150.343,-133.255,-380.040,-319.490,-68.020
262,39361.229000,242.162,-28.668,-26.895,509.609,155.896,-142.951,-67.040,-377.490,-146.020
263,39361.252000,255.012,8.550,-41.837,505.856,169.299,-149.526,-44.040,-298.490,-122.020
264,39361.292000,256.000,-4.527,-36.856,506.791,167.237,-155.453,-74.040,-221.490,-61.020
265,39361.344000,269.838,-26.656,-34.864,503.921,170.165,-153.433,72.960,-147.490,-88.020
266,39361.372000,262.919,21.627,-42.833,502.983,173.952,-157.274,129.960,-8.490,-95.020
267,39361.412000,270.826,6.538,-26.895,497.199,175.859,-156.263,364.960,26.510,-117.020
268,39361.450000,264.896,57.839,-41.837,503.964,174.976,-155.287,-486.040,108.510,81.980
269,39361.470000,246.116,26.656,-46.817,506.931,179.146,-143.421,-666.040,169.510,121.980
270,39361.510000,211.521,23.639,-68.732,508.865,178.281,-139.513,230.960,194.510,-211.020
271,39361.550000,225.359,114.169,-7.969,508.022,189.145,-130.448,333.960,338.510,-427.020
272,39361.590000,250.069,129.257,-39.844,508.066,191.324,-119.612,-968.040,537.510,-413.020
273,39361.635000,267.861,84.998,-168.342,507.376,215.996,-100.433,-212.040,299.510,-700.020
274,39361.669000,225.359,77.957,-306.802,500.769,236.879,-118.616,901.960,-403.490,-1040.020
275,39361.727000,214.486,12.574,-287.875,480.480,250.144,-168.378,1271.960,-1473.490,-1153.020
276,39361.779000,244.139,-33.697,-211.175,443.578,249.333,-233.198,1178.960,-2000.490,-937.020
277,39361.788000,251.058,-31.686,-131.486,404.797,252.559,-290.086,617.960,-2149.490,-478.020
278,39361.810000,242.162,-43.756,-96.623,369.914,254.334,-326.405,-111.040,-2040.490,-156.020
279,39361.849000,245.127,-61.862,-105.588,340.844,254.483,-350.979,-421.040,-1774.490,162.980
280,39361.890000,242.162,-34.703,-102.599,309.864,255.735,-368.669,-499.040,-1498.490,319.980
281,39361.930000,278.734,-38.727,-109.572,283.702,253.323,-378.584,-409.040,-1230.490,368.980
282,39361.972000,280.710,-12.574,-96.623,260.484,254.866,-386.444,-157.040,-1023.490,426.980
283,39362.12000,281.699,2.515,-66.739,249.883,259.552,-389.304,12.960,-674.490,493.980
284,39362.52000,260.942,40.739,-69.728,244.928,247.811,-391.537,122.960,-358.490,615.980
285,39362.97000,256.000,72.927,-62.755,244.940,248.803,-390.534,-321.040,-142.490,667.980
286,39362.112000,206.579,63.874,-81.681,245.115,264.575,-379.396,-1155.040,-143.490,621.980
287,39362.149000,201.637,46.774,-61.759,250.034,270.684,-368.463,-729.040,-89.490,483.980
288,39362.190000,202.625,31.686,6.973,250.102,277.502,-367.331,-153.040,65.510,407.980
289,39362.254000,168.031,-115.175,-11.953,261.584,264.066,-365.644,147.960,278.510,427.980
290,39362.288000,189.776,56.833,-330.708,262.593,267.117,-359.690,-685.040,-136.490,316.980
291,39362.309000,305.421,189.611,-98.615,264.427,257.363,-362.845,52.960,-45.490,68.980
292,39362.360000,339.027,137.305,-135.471,263.404,253.297,-370.782,340.960,-20.490,-31.020
293,39362.387000,341.992,-34.703,-137.463,260.565,260.044,-371.619,-0.040,-82.490,51.980
294,39362.430000,330.131,-28.668,-152.405,260.546,258.102,-371.662,66.960,6.510,-74.020
295,39362.450000,258.965,13.580,-122.521,260.529,255.297,-366.821,88.960,118.510,-77.020
296,39362.496000,199.660,29.674,-152.405,261.431,249.395,-370.873,251.960,-310.490,20.980
297,39362.557000,201.637,46.774,-158.381,247.934,255.002,-374.700,-444.040,-703.490,63.980
298,39362.574000,214.486,-38.727,-42.833,244.159,265.558,-378.396,-582.040,-589.490,131.980
299,39362.622000,176.927,-2.515,-41.837,249.858,254.028,-375.698,982.960,314.510,165.980
300,39362.756000,151.228,107.128,-72.716,267.095,235.773,-375.086,547.960,824.510,212.980
301,39362.819000,173.961,35.709,-150.412,286.564,244.160,-355.246,-796.040,952.510,190.980
302,39362.849000,187.799,44.762,-190.257,300.080,237.863,-338.686,-335.040,904.510,203.980
303,39362.849000,176.927,35.709,-222.132,320.438,239.334,-324.881,-149.040,632.510,140.980
304,39362.856000,183.846,31.686,-181.292,330.128,239.579,-317.990,195.960,526.510,43.980
305,39362.901000,187.799,13.580,-154.397,336.874,236.754,-317.058,298.960,571.510,-52.020
306,39362.919000,205.591,12.574,-135.471,345.528,230.172,-311.302,678.960,716.510,-109.020
307,39362.926000,185.822,96.063,-345.650,343.502,222.235,-318.347,377.960,-177.490,-285.020
308,39362.941000,162.100,-23.639,-93.634,342.524,219.486,-310.565,73.960,382.510,34.980
309,39362.981000,248.093,-30.680,-130.490,354.178,222.663,-303.605,-106.040,412.510,227.980
310,39363.22000,223.382,24.644,-108.576,361.956,223.989,-290.811,-424.040,391.510,241.980
311,39363.71000,242.162,58.845,-111.564,366.668,209.624,-284.255,210.960,457.510,189.980
312,39363.109000,249.081,38.727,-110.568,370.542,209.705,-282.284,301.960,409.510,114.980
313,39363.139000,260.942,23.639,-90.646,377.238,200.235,-274.635,2.960,339.510,167.980
314,39363.179000,243.151,-14.585,-103.595,384.094,208.154,-270.522,164.960,435.510,154.980
315,39363.231000,231.290,38.727,-84.669,391.804,203.548,-262.762,84.960,406.510,144.980
316,39363.284000,262.919,6.538,-68.732,396.639,201.804,-255.926,-70.040,213.510,162.980
317,39363.301000,249.081,1.509,-76.700,398.512,195.070,-254.111,14.960,103.510,116.980
318,39363.319000,236.232,-5.532,-86.661,399.540,200.948,-252.017,-326.040,25.510,64.980
319,39363.362000,240.185,7.544,-96.623,398.535,196.171,-248.202,-171.040,31.510,29.980
320,39363.402000,236.232,-7.544,-86.661,403.490,207.911,-245.970,-238.040,42.510,66.980
321,39363.460000,245.127,-3.521,-83.673,402.491,204.083,-243.115,-82.040,93.510,9.980
322,39363.520000,240.185,0.503,-70.724,404.409,201.297,-238.269,-149.040,64.510,32.980
323,39363.570000,240.185,-8.550,-92.638,403.428,200.274,-240.255,-115.040,55.510,32.980
324,39363.576000,235.243,-11.568,-89.650,407.375,207.215,-235.190,-12.040,133.510,6.980
325,39363.637000,247.104,39.733,-66.739,409.331,209.198,-234.161,-62.040,95.510,-18.020
326,39363.670000,242.162,22.633,-76.700,408.358,208.260,-232.222,-287.040,6.510,54.980
327,39363.717000,242.162,3.521,-69.728,408.407,212.252,-227.230,-292.040,-68.490,20.980
328,39363.775000,229.313,-2.515,-87.658,409.351,210.276,-229.234,-298.040,-72.490,-2.020
329,39363.806000,244.139,4.527,-68.732,407.426,211.228,-229.217,-240.040,-161.490,-13.020
330,39363.821000,244.139,8.550,-72.716,400.701,216.017,-229.124,-268.040,-243.490,-8.020
331,39363.839000,244.139,-51.804,-86.661,397.858,223.604,-235.827,134.960,-238.490,-77.020
332,39363.861000,245.127,16.597,-79.689,398.796,221.564,-240.773,227.960,-261.490,-176.020
333,39363.891000,239.197,33.697,-85.665,393.931,220.374,-248.655,125.960,-359.490,-168.020
334,39363.922000,229.313,-11.568,-85.665,385.126,212.306,-258.659,124.960,-451.490,-179.020
335,39363.964000,237.220,24.644,-105.588,375.606,229.536,-265.162,-135.040,-521.490,-215.020
336,39364.0,261.931,12.574,-88.654,365.005,235.107,-271.925,-262.040,-562.490,-232.020
337,39364.50000,326.178,-38.727,-61.759,356.269,235.626,-288.603,-35.040,-713.490,-317.020
338,39364.87000,279.722,61.862,-91.642,335.006,241.784,-308.125,227.960,-1021.490,-370.020
339,39364.124000,268.849,53.815,-93.634,323.396,243.418,-316.939,-254.040,-1246.490,-260.020
340,39364.161000,242.162,-1.509,-129.494,300.229,252.490,-335.419,-319.040,-1281.490,-283.020
341,39364.180000,216.463,4.527,-63.751,280.996,266.628,-345.933,-447.040,-925.490,-178.020
342,39364.222000,172.973,-15.591,-53.790,282.850,259.699,-352.947,618.960,-57.490,-19.020
343,39364.264000,159.135,35.709,-94.630,292.275,236.277,-363.254,1166.960,570.510,77.980
344,39364.302000,164.077,58.845,-153.401,309.627,227.925,-353.596,400.960,993.510,-9.020
345,39364.356000,170.008,15.591,-206.195,322.160,222.352,-347.809,79.960,993.510,-14.020
346,39364.381000,163.089,37.721,-214.163,341.430,212.098,-337.209,361.960,848.510,-8.020
347,39364.424000,137.390,-5.532,-321.743,354.067,216.320,-327.282,-54.040,536.510,214.980
348,39364.461000,236.232,60.857,-218.148,350.130,210.349,-332.326,-362.040,-648.490,-63.020
349,39364.504000,205.591,-1.509,-88.654,348.261,217.126,-332.180,-282.040,-195.490,115.980
350,39364.530000,233.266,20.621,-160.374,343.478,222.883,-333.043,150.960,-112.490,-37.020
351,39364.562000,212.510,-11.568,-103.595,343.387,214.965,-340.083,399.960,59.510,-214.020
352,39364.602000,218.440,46.774,-60.763,345.328,215.048,-337.135,672.960,471.510,-174.020
353,39364.641000,218.440,-24.644,-203.206,357.897,212.452,-328.341,165.960,519.510,149.980
354,39364.690000,180.880,72.927,-149.416,363.621,203.814,-326.559,-98.040,262.510,65.980
355,39364.720000,197.683,3.521,-148.420,371.379,204.062,-318.692,420.960,556.510,69.980
356,39364.762000,220.417,-15.591,-102.599,383.877,194.627,-312.010,902.960,706.510,-84.020
357,39364.815000,211.521,30.680,-108.576,393.407,178.368,-305.486,583.960,740.510,342.980
358,39364.824000,224.371,13.580,-115.549,407.006,179.902,-285.810,-1134.040,559.510,464.980
359,39364.861000,268.849,-26.656,-73.712,414.744,178.208,-277.986,4.960,614.510,384.980
360,39364.905000,276.757,33.697,-55.782,420.493,169.808,-265.412,-477.040,423.510,288.980
361,39364.942000,291.583,29.674,-49.805,425.426,177.816,-256.398,-579.040,161.510,191.980
362,39364.981000,256.000,12.574,-88.654,428.371,181.771,-254.343,-684.040,-105.490,160.980
363,39365.24000,214.486,-3.521,-96.623,431.308,183.892,-247.425,-791.040,-46.490,104.980
364,39365.64000,201.637,-58.845,-74.708,429.387,185.771,-249.349,-280.040,-62.490,-15.020
365,39365.101000,208.556,-56.833,-110.568,429.420,188.727,-247.322,304.960,43.510,-60.020
366,39365.150000,221.405,-11.568,-97.619,427.457,185.796,-247.391,182.960,220.510,-21.020
367,39365.162000,245.127,37.721,-62.755,430.382,186.924,-241.476,122.960,166.510,-14.020
368,39365.205000,277.745,20.621,-55.782,434.238,185.948,-243.450,278.960,0.510,-45.020
369,39365.242000,244.139,3.521,-96.623,431.307,183.007,-243.522,-136.040,-20.490,54.980
370,39365.285000,235.243,-7.544,-81.681,429.419,187.843,-243.419,61.960,107.510,-73.020
371,39365.325000,222.394,-21.627,-94.630,435.212,186.022,-240.505,147.960,132.510,-92.020
372,39365.365000,232.278,-14.585,-61.759,436.121,180.185,-241.613,279.960,131.510,-108.020
373,39365.405000,248.093,-47.780,-40.840,433.284,186.952,-241.469,495.960,-50.490,-138.020
374,39365.442000,188.788,-131.269,-73.712,429.211,168.231,-252.680,1460.960,-169.490,-110.020
375,39365.481000,250.069,8.550,-45.821,417.408,153.059,-275.597,1276.960,-517.490,-299.020
376,39365.511000,266.873,63.874,-77.696,405.752,152.493,-296.228,1028.960,-718.490,-282.020
377,39365.542000,265.884,92.039,-152.405,398.896,146.343,-308.147,166.960,-494.490,-4.020
378,39365.584000,253.035,32.692,-148.420,399.823,142.447,-309.212,-19.040,-131.490,47.980
379,39365.622000,258.965,33.697,-122.521,401.765,142.531,-306.264,-175.040,218.510,227.980
380,39365.665000,240.185,-21.627,-111.564,408.461,133.061,-298.615,9.960,368.510,249.980
381,39365.702000,252.046,-36.715,-96.623,413.396,141.090,-288.620,35.960,503.510,51.980
382,39365.751000,235.243,15.591,-80.685,422.128,141.412,-277.807,-163.040,492.510,19.980
383,39365.790000,237.220,-33.697,-84.669,424.975,133.868,-269.142,-140.040,459.510,99.980
384,39365.802000,238.208,-6.538,-55.782,434.681,135.149,-259.287,-27.040,463.510,51.980
385,39365.845000,244.139,-0.503,-46.817,439.560,138.238,-253.324,-392.040,263.510,37.980
386,39365.882000,224.371,-8.550,-66.739,439.614,142.272,-246.370,-397.040,183.510,77.980
387,39365.925000,237.220,-21.627,-65.743,443.589,152.127,-241.239,-332.040,95.510,38.980
388,39365.962000,253.035,-38.727,-65.743,442.626,152.160,-239.279,-36.040,41.510,16.980
389,39366.1000,240.185,-1.509,-62.755,444.563,152.201,-238.294,-202.040,25.510,-4.020
390,39366.42000,249.081,9.556,-67.735,443.638,156.118,-236.247,-267.040,57.510,2.980
391,39366.96000,257.977,-19.615,-58.770,446.601,161.130,-230.246,-291.040,94.510,31.980
392,39366.104000,230.301,-7.544,-51.798,446.624,163.115,-228.241,-317.040,3.510,28.980
393,39366.141000,240.185,-15.591,-63.751,443.684,159.203,-228.334,-165.040,-5.490,21.980
394,39366.182000,240.185,-4.527,-51.798,447.542,158.248,-229.327,-82.040,-95.490,22.980
395,39366.234000,222.394,-19.615,-88.654,446.530,154.291,-232.359,-54.040,-162.490,24.980
396,39366.264000,265.884,-24.644,-70.724,440.818,163.921,-233.138,182.960,11.510,1.980
397,39366.301000,256.988,9.556,-91.642,444.607,155.264,-231.361,206.960,53.510,7.980
398,39366.344000,250.069,-2.515,-82.677,445.615,159.179,-230.291,41.960,245.510,79.980
399,39366.381000,264.896,1.509,-67.735,453.360,157.550,-219.524,-86.040,411.510,96.980
400,39366.424000,258.965,5.532,-46.817,457.196,151.978,-209.833,-141.040,407.510,99.980
401,39366.446000,239.197,1.509,-52.794,461.074,151.217,-201.996,-183.040,352.510,127.980
402,39366.486000,222.394,-28.668,-75.704,466.951,156.366,-191.082,-82.040,382.510,106.980
403,39366.526000,245.127,-44.762,-33.868,468.866,152.673,-183.315,112.960,404.510,32.980
404,39366.566000,246.116,-32.692,-19.922,476.592,148.218,-168.688,18.960,426.510,63.980
405,39366.604000,246.116,-22.633,11.953,478.611,156.090,-164.586,-8.040,355.510,29.980
406,39366.644000,248.093,-20.621,0.996,480.505,150.435,-157.843,130.960,233.510,40.980
407,39366.685000,251.058,7.544,-7.969,476.664,153.310,-157.787,240.960,-0.490,-34.020
408,39366.725000,243.151,-9.556,-19.922,475.673,152.200,-163.698,126.960,-118.490,-30.020
409,39366.744000,248.093,-20.621,-19.922,473.709,151.016,-172.554,163.960,-231.490,-63.020
410,39366.782000,256.988,-21.627,-19.922,473.664,147.068,-175.584,328.960,-301.490,-89.020
411,39366.825000,251.058,-1.509,-35.860,467.830,146.731,-188.352,405.960,-350.490,-119.020
412,39366.870000,249.081,13.580,-33.868,465.852,143.649,-195.290,347.960,-402.490,-156.020
413,39366.906000,228.324,-36.715,-17.930,460.104,151.186,-202.980,7.960,-327.490,-119.020
414,39366.944000,242.162,-24.644,-62.755,458.194,154.922,-208.785,-110.040,-109.490,-44.020
415,39366.984000,290.595,-5.532,-25.899,457.156,148.073,-210.900,155.960,-81.490,-141.020
416,39367.30000,256.000,34.703,-55.782,452.368,153.786,-213.726,-26.040,-135.490,2.980
417,39367.65000,260.942,4.527,-51.798,455.297,156.706,-214.635,-146.040,-80.490,77.980
418,39367.84000,256.000,1.509,-64.747,452.397,156.699,-213.661,-380.040,-12.490,81.980
419,39367.126000,245.127,-14.585,-46.817,456.315,160.728,-208.660,-465.040,21.510,53.980
420,39367.166000,249.081,-22.633,-38.848,454.404,162.694,-206.659,-358.040,50.510,29.980
421,39367.221000,239.197,-22.633,-38.848,455.319,156.037,-200.921,-251.040,62.510,6.980
422,39367.264000,249.081,-33.697,-44.825,457.378,168.698,-199.655,-118.040,37.510,3.980
423,39367.286000,246.116,7.544,-46.817,459.297,166.797,-198.712,251.960,77.510,-65.020
424,39367.324000,251.058,18.609,-39.844,456.404,168.624,-202.600,-143.040,-54.490,-68.020
425,39367.374000,254.023,-6.538,-36.856,450.623,170.553,-200.609,-265.040,-170.490,-15.020
426,39367.382000,252.046,-4.527,-45.821,454.483,169.619,-200.621,-441.040,-158.490,-24.020
427,39367.426000,248.093,-8.550,-36.856,446.786,174.355,-202.494,-322.040,-281.490,-78.020
428,39367.464000,242.162,-17.603,-33.868,445.931,187.744,-211.024,-245.040,-389.490,-102.020
429,39367.506000,253.035,0.503,-49.805,441.102,190.415,-219.801,-255.040,-501.490,-127.020
430,39367.544000,251.058,2.515,-68.732,434.366,195.980,-228.518,-201.040,-516.490,-122.020
431,39367.582000,255.012,15.591,-67.735,424.659,194.699,-238.373,-232.040,-525.490,-172.020
432,39367.626000,271.815,22.633,-41.837,419.868,200.369,-243.161,-283.040,-667.490,-227.020
433,39367.664000,282.687,19.615,-22.911,407.387,213.494,-258.586,-493.040,-1044.490,-237.020
434,39367.712000,327.166,36.715,-25.899,390.950,218.706,-279.099,-443.040,-1444.490,-250.020
435,39367.725000,322.224,10.562,-43.829,366.854,234.306,-309.204,-370.040,-1752.490,-309.020
436,39367.771000,271.815,-22.633,-150.412,338.754,235.371,-336.698,167.960,-1510.490,-541.020
437,39367.811000,197.683,-32.692,23.907,330.157,248.662,-346.228,56.960,-829.490,-563.020
438,39367.851000,191.753,-31.686,63.751,334.064,251.699,-342.230,-121.040,627.510,-286.020
439,39367.886000,236.232,-11.568,-46.817,357.332,252.399,-320.590,44.960,1576.510,-125.020
440,39367.924000,255.012,-12.574,-86.661,396.054,248.613,-289.212,783.960,2176.510,-1.020
441,39367.966000,276.757,-2.515,-126.506,431.761,232.262,-254.196,1343.960,2306.510,144.980
442,39368.9000,250.069,51.804,-125.510,462.670,218.001,-210.317,1289.960,2166.510,96.980
443,39368.46000,238.208,15.591,-185.276,483.162,226.936,-165.946,-108.040,1898.510,7.980
444,39368.64000,268.849,5.532,-192.249,494.845,225.108,-121.832,623.960,1423.510,-53.020
445,39368.107000,149.251,48.786,-163.362,498.770,228.317,-109.985,455.960,803.510,107.980
446,39368.145000,124.541,66.892,-165.354,502.647,224.902,-90.439,-828.040,114.510,465.980
447,39368.189000,327.166,-8.550,-115.549,504.489,217.866,-102.359,428.960,-422.490,-80.020
448,39368.227000,343.969,61.862,-44.825,503.513,218.655,-110.189,413.960,-270.490,-123.020
449,39368.265000,281.699,91.033,-2.988,499.663,222.328,-117.961,-84.040,-256.490,13.980
450,39368.305000,294.548,22.633,2.988,498.709,224.218,-119.882,-99.040,-227.490,52.980
451,39368.344000,306.409,40.739,-7.969,496.779,224.242,-117.925,-564.040,-152.490,112.980
452,39368.365000,241.174,52.809,-86.661,492.935,226.211,-114.947,-534.040,-75.490,-7.020
453,39368.411000,199.660,62.868,-142.444,494.853,224.309,-114.005,391.960,89.510,-319.020
454,39368.445000,170.008,84.998,-294.848,485.319,240.526,-122.491,488.960,-184.490,-552.020
455,39368.486000,174.950,100.086,-296.840,475.655,247.573,-150.794,73.960,-1086.490,-626.020
456,39368.524000,167.042,45.768,-310.786,459.246,260.983,-195.641,-515.040,-1931.490,-553.020
457,39368.566000,208.556,1.509,-231.097,426.338,270.199,-247.481,-430.040,-2395.490,-428.020
458,39368.604000,223.382,-43.756,-180.296,398.213,271.026,-285.768,-369.040,-2404.490,-362.020
459,39368.656000,219.429,-53.815,-148.420,353.626,270.657,-327.058,-219.040,-2100.490,-101.020
460,39368.684000,253.035,-61.862,-148.420,314.950,278.414,-354.426,-264.040,-1699.490,113.980
461,39368.712000,312.340,-62.868,-133.479,283.886,271.812,-376.212,-129.040,-1407.490,144.980
462,39368.746000,288.618,-23.639,-92.638,257.768,273.349,-383.098,-424.040,-1157.490,408.980
463,39368.785000,322.224,-20.621,-54.786,238.473,278.079,-380.091,-605.040,-938.490,488.980
464,39368.829000,250.069,6.538,-5.977,233.678,281.959,-378.054,-201.040,-521.490,536.980
465,39368.866000,214.486,39.733,-14.942,233.588,271.408,-372.404,-4.040,-129.490,776.980
466,39368.904000,220.417,56.833,-33.868,243.262,271.503,-372.382,114.960,281.510,785.980
467,39368.959000,210.533,71.921,-16.934,260.636,264.251,-356.816,-604.040,446.510,609.980
468,39368.987000,172.973,12.574,-26.895,273.264,266.617,-343.007,-414.040,599.510,319.980
469,39369.6000,156.170,42.750,-350.630,275.081,254.942,-345.224,1066.960,27.510,52.980
470,39369.46000,282.687,71.921,-100.607,274.109,255.774,-351.091,167.960,-93.490,32.980
471,39369.87000,299.490,94.051,-122.521,274.011,246.023,-353.269,264.960,-144.490,71.980
472,39369.145000,269.838,84.998,-184.280,267.241,246.863,-356.207,50.960,-210.490,87.980
473,39369.166000,280.710,25.650,-190.257,269.159,244.961,-355.265,38.960,24.510,34.980
474,39369.215000,301.467,-13.580,-155.393,272.001,239.121,-357.349,164.960,40.510,-57.020
475,39369.246000,286.641,28.668,-131.486,266.189,239.000,-360.306,42.960,-147.490,-128.020
476,39369.290000,307.398,-5.532,-92.638,264.356,249.639,-361.055,-208.040,-257.490,52.980
477,39369.312000,221.405,0.503,-169.339,257.621,253.457,-360.984,-692.040,-769.490,238.980
478,39369.349000,149.251,64.880,-157.385,249.993,265.010,-361.725,-1110.040,-995.490,389.980
479,39369.392000,178.903,-65.886,1.992,241.585,291.570,-341.539,-2387.040,-431.490,734.980
480,39369.426000,147.274,-83.992,2.988,262.870,289.145,-328.800,-11.040,668.510,801.980
481,39369.469000,138.378,71.921,-79.689,301.306,261.475,-324.430,1294.960,1840.510,706.980
482,39369.509000,203.614,93.045,-195.237,330.436,266.310,-293.861,-993.040,1693.510,278.980
483,39369.549000,182.857,39.733,-249.027,349.816,265.031,-272.273,237.960,1088.510,117.980
484,39369.586000,173.961,72.927,-257.992,356.519,257.395,-269.487,146.960,478.510,107.980
485,39369.629000,149.251,59.851,-338.677,366.168,255.483,-272.451,581.960,317.510,-47.020
486,39369.647000,162.100,122.216,-372.545,361.275,250.495,-276.495,278.960,-259.490,-360.020
487,39369.687000,149.251,12.574,-98.615,357.379,248.451,-279.490,634.960,220.510,-69.020
488,39369.726000,223.382,8.550,-95.626,366.140,252.570,-272.516,-382.040,253.510,155.980
489,39369.768000,204.602,-4.527,-175.315,370.938,246.965,-264.785,-111.040,388.510,308.980
490,39369.807000,187.799,107.128,-134.475,377.808,254.129,-250.882,-712.040,311.510,201.980
491,39369.851000,268.849,-5.532,-100.607,381.632,248.449,-246.097,305.960,463.510,153.980
492,39369.919000,235.243,-8.550,-83.673,385.384,235.909,-244.406,63.960,328.510,228.980
493,39369.949000,218.440,37.721,-114.553,388.283,234.146,-237.574,-194.040,256.510,229.980
494,39369.956000,236.232,-4.527,-103.595,399.866,229.599,-228.825,333.960,457.510,222.980
495,39369.987000,252.046,13.580,-78.693,403.744,229.723,-224.891,-91.040,365.510,132.980
496,39370.34000,276.757,24.644,-62.755,402.774,227.923,-218.069,-80.040,229.510,57.980
497,39370.99000,254.023,28.668,-90.646,407.637,229.977,-215.071,-60.040,51.510,21.980
498,39370.114000,222.394,-8.550,-86.661,406.613,224.142,-215.202,-10.040,33.510,-16.020
499,39370.145000,221.405,-15.591,-79.689,409.626,235.799,-215.918,-35.040,-80.490,-67.020
500,39370.189000,216.463,8.550,-84.669,402.854,236.618,-219.837,25.960,-185.490,-106.020
501,39370.226000,238.208,6.538,-81.681,394.136,236.425,-224.763,94.960,-350.490,-173.020
502,39370.269000,256.000,21.627,-92.638,391.190,234.218,-235.605,112.960,-437.490,-222.020
503,39370.306000,254.023,17.603,-103.595,378.666,241.647,-245.273,-22.040,-454.490,-252.020
504,39370.342000,297.514,-7.544,-82.677,377.674,240.515,-252.165,154.960,-452.490,-314.020
505,39370.367000,256.000,43.756,-70.724,366.087,245.019,-262.877,-159.040,-815.490,-306.020
506,39370.406000,264.896,35.709,-82.677,355.539,258.141,-279.279,-246.040,-1120.490,-289.020
507,39370.449000,239.197,9.556,-120.529,333.301,263.339,-297.843,88.960,-1145.490,-369.020
508,39370.492000,227.336,-36.715,-46.817,315.896,266.773,-310.552,-42.040,-618.490,-438.020
509,39370.526000,191.753,-66.892,-32.872,322.570,258.856,-320.520,851.960,360.510,-293.020
510,39370.569000,216.463,5.532,-99.611,331.988,233.600,-325.964,2615.960,1249.510,-176.020
511,39370.587000,201.637,19.615,-161.370,358.878,212.591,-322.451,1492.960,1335.510,-159.020
512,39370.630000,179.892,64.880,-186.272,379.192,208.366,-302.889,-56.040,1260.510,-24.020
513,39370.667000,194.718,46.774,-221.136,396.601,203.207,-280.412,64.960,1059.510,110.980
514,39370.709000,195.707,87.010,-374.537,404.303,198.514,-276.577,285.960,78.510,-148.020
515,39370.746000,125.529,16.597,-80.685,406.339,208.307,-273.413,-287.040,148.510,29.980
516,39370.786000,256.988,-10.562,-116.545,412.111,202.775,-262.737,-114.040,504.510,285.980
517,39370.834000,240.185,-23.639,-84.669,421.780,201.057,-256.871,-392.040,478.510,350.980
518,39370.867000,221.405,30.680,-100.607,425.548,188.668,-248.312,109.960,510.510,294.980
519,39370.906000,305.421,52.809,-59.767,432.316,186.058,-237.568,143.960,508.510,153.980
520,39370.929000,304.432,26.656,-27.891,440.078,186.350,-227.739,-66.040,353.510,213.980
521,39370.985000,245.127,-35.709,-56.778,442.976,186.335,-229.694,-178.040,-54.490,60.980
522,39371.9000,224.371,-41.745,-117.541,441.990,183.499,-225.837,226.960,205.510,-71.020
523,39371.46000,231.290,11.568,-70.724,441.937,176.832,-220.101,587.960,484.510,-91.020
524,39371.99000,253.035,27.662,-50.802,448.678,173.080,-217.228,380.960,404.510,58.980
525,39371.126000,254.023,35.709,-31.875,445.738,168.283,-213.418,47.960,150.510,28.980
526,39371.195000,256.000,33.697,-34.864,449.675,174.254,-208.374,-325.040,-93.490,55.980
527,39371.266000,253.035,-50.798,-65.743,451.641,178.092,-211.226,-68.040,-114.490,16.980
528,39371.271000,234.255,-17.603,-77.696,452.545,172.211,-214.297,-14.040,1.510,-49.020
529,39371.300000,242.162,2.515,-67.735,449.643,172.183,-214.304,196.960,54.510,-24.020
530,39371.330000,258.965,-28.668,-8.965,448.661,171.159,-216.290,382.960,-78.490,-95.020
531,39371.346000,205.591,-74.939,-74.708,446.683,168.077,-223.227,786.960,-118.490,-131.020
532,39371.386000,283.676,61.862,9.961,441.755,160.997,-234.182,501.960,-464.490,-253.020
533,39371.430000,212.510,21.627,-52.794,434.027,166.315,-253.693,470.960,-769.490,-34.020
534,39371.469000,256.988,46.774,-98.615,425.178,155.184,-270.630,-587.040,-989.490,255.980
535,39371.517000,234.255,-62.868,-95.626,414.552,159.632,-284.283,-423.040,-906.490,220.980
536,39371.564000,255.012,4.527,-144.436,407.753,159.308,-296.073,-235.040,-490.490,-23.020
537,39371.586000,247.104,25.650,-157.385,403.973,168.935,-297.828,67.960,-87.490,-66.020
538,39371.616000,249.081,27.662,-124.514,411.723,169.119,-292.905,-89.040,368.510,93.980
539,39371.651000,248.093,-0.503,-102.599,417.524,165.615,-278.260,-373.040,421.510,188.980
540,39371.700000,219.429,-32.692,-108.576,422.386,165.900,-267.456,-184.040,515.510,171.980
541,39371.727000,239.197,-29.674,-109.572,429.154,162.406,-252.810,-33.040,633.510,79.980
542,39371.774000,240.185,1.509,-82.677,439.931,173.491,-238.812,-130.040,637.510,54.980
543,39371.809000,256.000,2.515,-42.833,442.849,173.670,-231.937,-411.040,483.510,58.980
544,39371.862000,231.290,-19.615,-48.809,453.558,177.938,-219.071,-135.040,341.510,14.980
545,39371.869000,223.382,-34.703,-43.829,454.468,171.238,-215.295,-15.040,227.510,-17.020
546,39371.910000,201.637,-20.621,-72.716,451.584,171.382,-207.453,-27.040,206.510,-68.020
547,39371.952000,256.000,12.574,-52.794,451.646,178.135,-209.264,307.960,-61.490,-171.020
548,39372.0,256.000,-53.815,-56.778,453.536,175.090,-216.192,421.960,-77.490,40.980
549,39372.34000,262.919,-1.509,-85.665,452.515,169.277,-215.343,329.960,131.510,-137.020
550,39372.90000,251.058,20.621,-71.720,451.587,173.173,-214.278,601.960,303.510,-79.020
551,39372.122000,256.988,7.544,-44.825,450.525,162.570,-210.593,388.960,228.510,43.980
552,39372.150000,242.162,-10.562,-48.809,456.304,159.735,-209.663,468.960,203.510,9.980
553,39372.195000,246.116,16.597,-67.735,457.308,162.744,-205.671,32.960,194.510,-4.020
554,39372.209000,250.069,36.715,-48.809,461.157,159.934,-202.783,-50.040,168.510,93.980
555,39372.257000,239.197,-21.627,-47.813,457.263,156.142,-196.992,16.960,155.510,145.980
556,39372.310000,245.127,-17.603,-66.739,465.974,156.270,-195.009,95.960,253.510,67.980
557,39372.355000,256.000,-3.521,-14.942,460.086,146.612,-190.333,44.960,259.510,31.980
558,39372.370000,241.174,1.509,22.911,462.056,149.609,-187.320,-18.040,31.510,18.980
559,39372.417000,240.185,-1.509,-45.821,466.014,159.290,-190.039,-279.040,-249.490,-48.020
560,39372.492000,254.023,43.756,-78.693,465.030,158.245,-193.006,-609.040,-239.490,-51.020
561,39372.509000,268.849,-2.515,-21.914,457.349,164.017,-191.913,-588.040,-228.490,20.980
562,39372.519000,250.069,-63.874,-64.747,457.416,171.697,-195.665,-297.040,-391.490,-86.020
563,39372.575000,244.139,-7.544,-69.728,453.519,170.516,-203.545,87.960,-311.490,-176.020
564,39372.591000,206.579,-35.709,-84.669,448.656,169.347,-210.446,117.960,-48.490,-27.020
565,39372.631000,249.081,-45.768,-66.739,453.571,176.298,-205.378,293.960,208.510,-77.020
566,39372.675000,256.988,81.980,-20.918,451.567,169.462,-206.515,538.960,78.510,-184.020
567,39372.710000,267.861,21.627,-39.844,451.563,170.303,-212.380,267.960,-137.490,-36.020
568,39372.762000,250.069,-37.721,-74.708,450.645,175.170,-211.293,9.960,-45.490,-122.020
569,39372.791000,250.069,27.662,-47.813,450.681,179.031,-212.188,174.960,-20.490,-146.020
570,39372.836000,251.058,1.509,-71.720,449.667,175.052,-216.201,45.960,-10.490,-25.020
571,39372.861000,253.035,-14.585,-67.735,452.613,179.029,-213.165,-122.040,139.510,-48.020
572,39372.955000,250.069,37.721,-42.833,451.593,171.468,-203.528,-296.040,237.510,-18.020
573,39372.970000,253.035,39.733,-24.903,448.804,183.090,-203.276,-506.040,-97.490,32.980
574,39372.986000,304.432,-9.556,-5.977,449.831,189.831,-206.066,-331.040,-403.490,-33.020
575,39373.17000,308.386,-18.609,-20.918,445.948,190.548,-215.865,-203.040,-558.490,10.980
576,39373.57000,280.710,-11.568,79.689,444.058,195.362,-216.743,-614.040,-222.490,51.980
577,39373.89000,249.081,-12.574,100.607,454.738,195.833,-200.039,-466.040,771.510,163.980
578,39373.129000,254.023,10.562,13.946,467.370,194.725,-167.675,163.960,1412.510,110.980
579,39373.180000,236.232,-11.568,-47.813,480.065,199.508,-132.238,724.960,1805.510,35.980
580,39373.195000,228.324,3.521,-62.755,497.557,198.663,-90.052,573.960,1688.510,-37.020
581,39373.229000,205.591,8.550,-79.689,506.310,195.663,-53.815,-131.040,1268.510,-75.020
582,39373.299000,217.452,8.550,-64.747,507.337,195.370,-23.419,-240.040,971.510,55.980
583,39373.327000,238.208,-9.556,-51.798,512.213,196.668,-10.631,-322.040,621.510,48.980
584,39373.349000,239.197,-1.509,-88.654,510.324,199.735,-2.722,-46.040,97.510,-1.020
585,39373.392000,282.687,-79.969,-3.984,511.231,194.760,-8.714,-190.040,-478.490,131.980
586,39373.432000,276.757,14.585,76.700,516.046,195.476,-22.418,206.960,-379.490,53.980
587,39373.475000,241.174,6.538,29.883,516.970,193.307,-33.251,526.960,-372.490,65.980
588,39373.495000,273.792,-4.527,8.965,511.038,183.218,-48.198,811.960,-435.490,62.980
589,39373.535000,292.571,73.933,4.981,514.897,184.917,-60.900,376.960,-485.490,-19.020
590,39373.569000,245.127,-28.668,-3.984,511.977,185.601,-72.659,-85.040,-527.490,92.980
591,39373.639000,262.919,-0.503,-19.922,515.825,186.308,-86.365,319.960,-352.490,75.980
592,39373.652000,261.931,15.591,-10.957,511.913,183.228,-92.325,-17.040,-307.490,28.980
593,39373.691000,267.861,13.580,2.988,510.888,179.141,-101.244,-96.040,-334.490,26.980
594,39373.730000,250.069,-22.633,-27.891,509.987,186.812,-104.998,122.960,-200.490,-3.020
595,39373.792000,257.977,-6.538,-18.926,509.969,185.755,-108.945,-102.040,-182.490,4.980
596,39373.801000,261.931,19.615,-19.922,506.028,178.878,-111.067,8.960,-143.490,10.980
597,39373.829000,257.977,-6.538,-3.984,507.051,185.576,-115.819,-214.040,-212.490,-5.020
598,39373.876000,257.977,-4.527,-4.981,508.934,180.697,-117.885,-406.040,-306.490,-8.020
599,39373.910000,252.046,-6.538,-33.868,503.240,193.154,-122.524,-281.040,-406.490,-20.020
600,39373.950000,252.046,6.538,-48.809,502.217,189.088,-130.461,-170.040,-289.490,-24.020
601,39373.990000,257.977,3.521,-33.868,499.360,193.893,-131.341,-110.040,-192.490,-17.020
602,39374.31000,280.710,2.515,-50.802,500.339,195.779,-134.240,-273.040,-187.490,-12.020
603,39374.72000,235.243,17.603,-73.712,502.314,198.819,-129.265,-438.040,242.510,68.980
604,39374.111000,226.347,16.597,-47.813,504.230,193.379,-112.710,-568.040,444.510,131.980
605,39374.130000,187.799,-17.603,-54.786,507.177,196.471,-105.771,-372.040,158.510,159.980
606,39374.169000,293.560,8.550,-1.992,509.141,196.770,-93.011,-320.040,294.510,85.980
607,39374.209000,291.583,127.246,12.949,515.023,200.214,-71.348,-1562.040,548.510,-106.020
608,39374.254000,295.537,62.868,0.996,512.182,201.652,-48.767,-1897.040,355.510,-64.020
609,39374.294000,276.757,75.945,-72.716,512.257,208.535,-44.691,305.960,309.510,-456.020
610,39374.332000,202.625,163.458,-152.405,502.706,223.715,-56.142,1318.960,-147.490,-862.020
611,39374.374000,199.660,50.798,-210.179,490.373,254.100,-80.991,725.960,-664.490,-1100.020
612,39374.417000,200.649,70.916,-222.132,476.900,270.494,-123.805,1089.960,-1133.490,-1160.020
613,39374.430000,214.486,73.933,-201.214,448.833,279.800,-173.671,644.960,-1449.490,-1073.020
614,39374.470000,234.255,37.721,-150.412,421.738,288.274,-217.670,453.960,-1547.490,-882.020
615,39374.510000,264.896,36.715,-107.580,388.920,304.523,-258.566,220.960,-1474.490,-711.020
616,39374.550000,288.618,12.574,-31.875,368.605,307.864,-274.225,-457.040,-1290.490,-424.020
617,39374.591000,297.514,44.762,25.899,348.384,319.144,-281.863,-1055.040,-907.490,-155.020
618,39374.631000,302.456,-46.774,69.728,335.103,344.427,-273.484,-1218.040,-607.490,-148.020
619,39374.671000,264.896,-77.957,78.693,325.403,343.211,-280.396,497.960,-240.490,-249.020
620,39374.710000,260.942,59.851,160.374,324.398,338.433,-276.582,435.960,343.510,-21.020
621,39374.750000,294.548,65.886,-161.370,336.186,352.591,-255.649,-1053.040,101.510,253.980
622,39374.770000,291.583,91.033,-54.786,336.202,352.742,-248.781,-362.040,135.510,230.980
623,39374.825000,287.629,36.715,-77.696,341.046,352.854,-245.826,89.960,56.510,39.980
624,39374.850000,230.301,41.745,-165.354,340.015,346.955,-248.901,519.960,66.510,-24.020
625,39374.890000,153.205,23.639,-276.918,344.766,339.127,-253.968,308.960,46.510,72.980
626,39374.931000,173.961,54.821,-253.012,334.038,332.033,-262.974,407.960,-375.490,218.980
627,39374.971000,168.031,66.892,-255.004,322.369,329.590,-280.705,319.960,-1086.490,214.980
628,39375.11000,195.707,29.674,-200.218,301.865,316.145,-309.486,684.960,-1370.490,211.980
629,39375.56000,184.834,45.768,-123.518,285.277,304.939,-326.441,913.960,-1141.490,274.980
630,39375.70000,211.521,42.750,-85.665,272.490,286.953,-344.519,764.960,-817.490,378.980
631,39375.110000,240.185,41.745,-87.658,262.602,267.204,-355.765,367.960,-538.490,518.980
632,39375.151000,220.417,61.862,-46.817,263.558,267.105,-360.669,182.960,-279.490,573.980
633,39375.191000,237.220,52.809,-41.837,268.387,264.434,-351.892,-186.040,-69.490,564.980
634,39375.231000,277.745,22.633,-16.934,281.882,258.805,-349.046,145.960,322.510,535.980
635,39375.272000,256.988,74.939,20.918,289.524,247.381,-342.419,145.960,668.510,583.980
636,39375.314000,248.093,70.916,-48.809,312.724,242.149,-325.815,-358.040,877.510,578.980
637,39375.357000,195.707,78.963,-117.541,325.268,235.799,-311.220,-36.040,791.510,402.980
638,39375.371000,170.008,49.792,-123.518,336.855,231.295,-300.508,399.960,697.510,164.980
639,39375.415000,95.876,11.568,-492.078,342.485,212.949,-298.942,680.960,188.510,231.980
640,39375.462000,180.880,-10.562,-140.451,339.551,211.734,-308.782,285.960,-169.490,33.980
641,39375.490000,283.676,102.098,-159.377,331.778,207.818,-306.924,-78.040,-56.490,82.980
642,39375.531000,408.216,111.151,-88.654,333.676,204.838,-310.909,360.960,-216.490,-35.020
643,39375.571000,355.830,88.016,-127.502,324.005,206.535,-317.756,-508.040,-543.490,63.980
644,39375.617000,294.548,36.715,-143.440,319.363,226.854,-318.296,-849.040,-559.490,28.980
645,39375.659000,219.429,53.815,-117.541,313.632,235.427,-323.021,-540.040,-440.490,-17.020
646,39375.699000,231.290,38.727,-136.467,308.791,236.222,-328.897,-480.040,-614.490,-46.020
647,39375.721000,227.336,10.562,-139.455,291.411,241.661,-338.620,-335.040,-826.490,-152.020
648,39375.755000,196.695,21.627,-103.595,283.738,250.151,-346.293,-560.040,-735.490,-138.020
649,39375.795000,163.089,22.633,-46.817,277.182,270.646,-338.006,-1287.040,-309.490,-180.020
650,39375.831000,190.764,0.503,-36.856,275.524,296.172,-323.714,-865.040,233.510,-251.020
651,39375.874000,215.475,-17.603,-70.724,289.103,298.396,-316.771,-152.040,889.510,-170.020
652,39375.914000,230.301,-19.615,-108.576,310.329,290.125,-305.142,393.960,1204.510,-110.020
653,39375.952000,230.301,-20.621,-115.549,334.434,280.781,-299.415,944.960,1353.510,-69.020
654,39375.997000,231.290,-5.532,-120.529,357.579,271.493,-290.746,882.960,1392.510,-45.020
655,39376.36000,246.116,5.532,-133.479,373.934,260.219,-281.155,332.960,1333.510,64.980
656,39376.86000,255.012,1.509,-139.455,397.228,262.926,-256.530,263.960,1255.510,159.980
657,39376.100000,249.081,20.621,-165.354,416.478,248.961,-238.167,609.960,1109.510,201.980
658,39376.135000,225.359,22.633,-157.385,436.769,242.751,-220.610,302.960,943.510,241.980
659,39376.175000,236.232,28.668,-125.510,448.362,236.543,-199.149,27.960,850.510,298.980
660,39376.215000,224.371,36.715,-120.529,461.864,228.347,-180.669,183.960,697.510,272.980
661,39376.255000,202.625,49.792,-139.455,472.524,229.508,-176.699,379.960,592.510,172.980
662,39376.295000,201.637,47.780,-107.580,478.365,229.910,-160.987,339.960,602.510,75.980
663,39376.344000,229.313,32.692,-67.735,487.049,224.493,-146.379,523.960,732.510,21.980
664,39376.351000,261.931,22.633,-76.700,490.891,218.986,-133.744,250.960,687.510,115.980
665,39376.391000,247.104,38.727,-113.556,492.839,218.249,-123.950,129.960,309.510,188.980
666,39376.435000,239.197,48.786,-24.903,498.597,214.336,-127.947,149.960,-225.490,37.980
667,39376.481000,228.324,26.656,13.946,497.578,209.429,-130.020,285.960,-71.490,73.980
668,39376.515000,280.710,-10.562,-56.778,497.560,208.372,-133.966,79.960,-184.490,168.980
669,39376.555000,238.208,20.621,-32.872,498.443,200.529,-138.061,-62.040,-139.490,145.980
670,39376.594000,256.988,-1.509,-19.922,501.296,196.565,-143.046,-37.040,-169.490,167.980
671,39376.634000,270.826,27.662,-38.848,501.284,195.573,-144.049,76.960,-116.490,185.980
672,39376.674000,239.197,-0.503,-40.840,502.158,186.758,-148.165,-169.040,-135.490,173.980
673,39376.694000,266.873,19.615,-27.891,501.184,186.684,-151.111,-65.040,-132.490,143.980
674,39376.741000,255.012,-3.521,-30.879,499.176,179.805,-154.210,-200.040,-226.490,113.980
675,39376.774000,240.185,-16.597,-39.844,502.077,180.696,-159.087,-135.040,-216.490,67.980
676,39376.814000,249.081,-29.674,-36.856,497.204,177.672,-162.107,54.960,-177.490,23.980
677,39376.854000,243.151,30.680,-43.829,497.231,181.447,-166.926,402.960,-151.490,25.980
678,39376.892000,267.861,14.585,-44.825,500.115,180.418,-170.865,-49.040,-204.490,134.980
679,39376.932000,248.093,-0.503,-58.770,501.057,178.421,-173.850,-195.040,-157.490,114.980
680,39376.979000,227.336,21.627,-70.724,499.993,169.566,-178.952,-183.040,-181.490,23.980
681,39376.992000,248.093,42.750,-44.825,494.244,177.967,-191.526,-382.040,-719.490,-72.020
682,39377.32000,252.046,-31.686,-60.763,490.290,170.961,-199.535,-544.040,-800.490,152.980
683,39377.72000,191.753,-66.892,-134.475,486.466,176.640,-204.320,-801.040,-479.490,266.980
684,39377.119000,275.768,24.644,-126.506,485.600,186.404,-201.164,-731.040,-84.490,151.980
685,39377.154000,282.687,44.762,-96.623,492.371,184.701,-193.342,-456.040,265.510,172.980
686,39377.195000,220.417,-32.692,-63.751,494.355,186.079,-175.655,-978.040,353.510,189.980
687,39377.249000,249.081,-83.992,-49.805,501.126,183.491,-163.930,-447.040,378.510,89.980
688,39377.275000,208.556,-69.910,-53.790,500.191,185.553,-158.003,53.960,302.510,35.980
689,39377.315000,242.162,1.509,-20.918,504.157,194.436,-152.894,2.960,80.510,-5.020
690,39377.335000,243.151,35.709,-43.829,507.001,189.502,-157.901,149.960,-146.490,125.980
691,39377.399000,264.896,13.580,-5.977,505.940,181.554,-165.925,-53.040,-335.490,159.980
692,39377.414000,228.324,-35.709,-76.700,499.153,182.221,-176.711,464.960,-321.490,97.980
693,39377.454000,270.826,-15.591,-4.981,500.018,174.205,-188.655,54.960,-461.490,27.980
694,39377.492000,187.799,-111.151,-86.661,498.019,171.813,-208.326,979.960,-428.490,-0.020
695,39377.534000,256.988,0.503,-102.599,490.214,165.826,-212.398,448.960,-289.490,4.980
696,39377.579000,239.197,-21.627,-117.541,487.327,169.465,-222.130,796.960,-286.490,-279.020
697,39377.616000,252.046,53.815,-114.553,488.245,165.484,-227.120,206.960,36.510,-45.020
698,39377.636000,257.977,-11.568,-89.650,489.163,160.617,-228.206,186.960,237.510,-108.020
699,39377.675000,234.255,-86.004,-77.696,489.237,164.846,-212.422,488.960,555.510,-71.020
700,39377.715000,250.069,-117.187,-68.732,495.073,165.204,-198.672,649.960,765.510,-204.020
701,39377.754000,235.243,75.945,-112.560,496.003,160.446,-194.853,1502.960,771.510,-592.020
702,39377.795000,223.382,73.933,-29.883,496.997,161.598,-186.980,441.960,498.510,-101.020
703,39377.835000,301.467,119.198,-30.879,498.884,154.994,-179.278,-13.040,236.510,73.980
704,39377.875000,258.965,-7.544,-36.856,501.809,156.122,-173.362,-747.040,103.510,169.980
705,39377.920000,221.405,-77.957,-60.763,506.726,163.095,-167.313,-462.040,140.510,72.980
706,39377.955000,255.012,-29.674,-37.852,508.716,166.285,-155.470,-49.040,301.510,-44.020
707,39377.982000,232.278,-12.574,-44.825,509.643,160.620,-148.730,2.960,389.510,8.980
708,39378.22000,232.278,-57.839,-11.953,510.650,163.650,-143.757,172.960,352.510,125.980
709,39378.55000,294.548,84.998,10.957,511.546,155.936,-141.965,-95.040,166.510,-82.020
710,39378.96000,239.197,-38.727,-6.973,506.759,160.765,-140.887,-201.040,-175.490,28.980
711,39378.142000,247.104,-65.886,-21.914,508.706,164.430,-151.589,29.960,-219.490,-63.020
712,39378.176000,253.035,-17.603,-40.840,506.748,161.542,-149.696,347.960,-33.490,-68.020
713,39378.222000,258.965,40.739,-23.907,503.799,157.543,-153.713,431.960,-35.490,-60.020
714,39378.255000,256.988,14.585,-20.918,502.879,163.273,-157.511,153.960,-197.490,-29.020
715,39378.280000,256.000,2.515,-29.883,503.739,153.444,-163.611,32.960,-291.490,-30.020
716,39378.315000,246.116,-21.627,-32.872,496.043,159.949,-173.290,-114.040,-356.490,-46.020
717,39378.360000,238.208,-17.603,-38.848,493.151,162.661,-181.081,-11.040,-394.490,-88.020
718,39378.397000,282.687,9.556,-51.798,494.171,170.222,-190.717,-100.040,-441.490,3.980
719,39378.440000,253.035,-13.580,-55.782,489.250,163.206,-198.729,-143.040,-370.490,-38.020
720,39378.477000,265.884,-32.692,-67.735,484.536,176.665,-202.363,-158.040,-207.490,-91.020
721,39378.517000,243.151,11.568,-63.751,484.493,172.738,-204.411,-96.040,-170.490,-88.020
722,39378.557000,234.255,17.603,-78.693,479.682,175.582,-205.339,-215.040,-71.490,-10.020
723,39378.597000,235.243,25.650,-47.813,485.551,182.413,-206.156,-296.040,-121.490,43.980
724,39378.617000,247.104,-36.715,-58.770,481.667,181.361,-208.148,-68.040,-155.490,15.980
725,39378.654000,247.104,5.532,-65.743,478.765,182.218,-212.058,-71.040,-218.490,-122.020
726,39378.694000,252.046,-14.585,-61.759,474.971,191.716,-219.701,-230.040,-313.490,-126.020
727,39378.736000,254.023,1.509,-91.642,472.029,187.783,-220.775,-24.040,-171.490,-107.020
728,39378.776000,241.174,-3.521,-70.724,471.128,195.454,-224.529,-143.040,-109.490,-76.020
729,39378.821000,245.127,0.503,-70.724,472.086,194.492,-224.548,145.960,-30.490,7.980
730,39378.855000,251.058,-40.739,-57.774,471.995,185.690,-227.686,356.960,55.510,15.980
731,39378.912000,226.347,70.916,-76.700,469.085,184.712,-226.733,238.960,-21.490,-42.020
732,39378.920000,243.151,0.503,-64.747,470.976,181.668,-233.661,237.960,-86.490,40.980
733,39378.954000,263.907,3.521,-60.763,466.149,183.476,-237.554,-146.040,-271.490,-73.020
734,39378.994000,257.977,14.585,-60.763,464.245,187.276,-240.416,-324.040,-423.490,-155.020
735,39379.35000,243.151,1.509,-87.658,455.570,192.779,-251.099,-120.040,-397.490,-132.020
736,39379.75000,223.382,11.568,-97.619,451.691,192.655,-255.033,-86.040,-311.490,-89.020
737,39379.115000,263.907,3.521,-84.669,449.862,204.222,-257.722,-283.040,-242.490,-76.020
738,39379.155000,251.058,30.680,-80.685,443.107,206.076,-258.676,-562.040,-422.490,-136.020
739,39379.201000,272.803,11.568,-77.696,433.549,220.307,-269.167,-468.040,-738.490,-167.020
740,39379.235000,256.000,14.585,-104.591,421.998,228.673,-280.774,-201.040,-838.490,-161.020
741,39379.255000,234.255,-6.538,-219.144,413.292,231.242,-292.503,73.960,-916.490,-162.020
742,39379.295000,211.521,-20.621,-162.366,393.722,213.966,-319.406,1049.960,-924.490,-208.020
743,39379.335000,180.880,35.709,-70.724,378.238,216.404,-334.094,-17.040,-658.490,6.980
744,39379.379000,194.718,43.756,-52.794,378.426,234.937,-329.760,-1015.040,-37.490,253.980
745,39379.414000,191.753,-16.597,-81.681,386.218,237.278,-314.981,-883.040,313.510,264.980
746,39379.456000,141.344,35.709,-162.366,393.806,220.935,-311.405,1036.960,742.510,156.980
747,39379.497000,158.147,152.393,-388.482,398.662,222.924,-311.351,-330.040,-369.490,-103.020
748,39379.537000,240.185,-57.839,-165.354,395.890,236.466,-312.037,-608.040,-444.490,25.980
749,39379.557000,252.046,74.939,-123.518,392.913,230.440,-320.022,-1.040,-324.490,9.980
750,39379.597000,153.205,12.574,-205.198,390.036,233.303,-320.945,-214.040,-121.490,38.980
751,39379.637000,211.521,35.709,-186.272,395.880,234.611,-308.155,-536.040,497.510,170.980
752,39379.677000,181.869,46.774,-169.339,408.502,236.049,-292.406,-544.040,603.510,110.980
753,39379.717000,204.602,82.986,-173.323,414.404,242.319,-274.603,-575.040,560.510,34.980
754,39379.757000,203.614,60.857,-270.942,415.493,254.065,-270.417,-826.040,58.510,-37.020
755,39379.797000,170.008,108.134,-337.681,399.242,273.387,-267.081,-2203.040,-1250.490,-17.020
756,39379.845000,207.568,79.969,-250.023,373.343,297.275,-272.489,-1834.040,-1539.490,-285.020
757,39379.886000,215.475,88.016,-143.440,337.651,312.007,-292.831,-226.040,-1305.490,-577.020
758,39379.905000,206.579,42.750,-60.763,307.778,326.925,-307.273,-31.040,-885.490,-624.020
759,39379.937000,215.475,-2.515,-81.681,291.426,337.358,-310.998,24.960,-440.490,-524.020
760,39379.991000,209.544,-14.585,-100.607,279.816,339.877,-323.715,356.960,-325.490,-456.020
761,39380.17000,194.718,-25.650,-11.953,270.043,330.915,-329.819,560.960,-260.490,-312.020
762,39380.57000,188.788,-35.709,-13.946,265.012,314.040,-344.914,1146.960,207.510,-134.020
763,39380.97000,176.927,-77.957,-47.813,266.821,303.163,-354.958,530.960,292.510,42.980
764,39380.136000,142.332,-36.715,-264.965,272.536,294.439,-357.101,491.960,81.510,103.980
765,39380.194000,272.803,213.752,-151.409,265.563,276.596,-371.241,759.960,-308.490,91.980
766,39380.201000,271.815,-6.538,-132.482,258.638,262.743,-380.389,651.960,-241.490,-142.020
767,39380.235000,323.212,-17.603,-170.335,255.598,251.712,-395.350,1400.960,-40.490,-169.020
768,39380.275000,333.097,61.862,-164.358,254.654,253.687,-393.347,-680.040,-44.490,96.980
769,39380.315000,307.398,79.969,-112.560,250.781,251.859,-386.531,-111.040,76.510,34.980
770,39380.365000,278.734,75.945,-92.638,259.620,264.651,-382.306,-494.040,-113.490,103.980
771,39380.397000,234.255,65.886,-115.549,255.887,278.249,-380.051,-873.040,-513.490,132.980
772,39380.437000,259.954,49.792,-140.451,241.451,286.759,-383.815,-740.040,-978.490,53.980
773,39380.477000,240.185,9.556,-181.292,219.403,307.858,-385.354,-653.040,-1475.490,-38.020
774,39380.517000,243.151,10.562,-180.296,204.967,317.253,-393.022,-286.040,-1513.490,-182.020
775,39380.537000,221.405,12.574,-3.984,194.307,316.976,-400.896,-167.040,-400.490,-155.020
776,39380.576000,146.286,-8.550,-40.840,204.056,323.068,-392.894,35.960,476.510,-117.020
777,39380.616000,123.552,21.627,-41.837,241.769,319.747,-384.063,624.960,1745.510,-23.020
778,39380.659000,179.892,1.509,-97.619,298.687,297.628,-355.995,806.960,2473.510,9.980
779,39380.699000,225.359,11.568,-143.440,358.699,291.459,-309.914,952.960,3230.510,71.980
780,39380.737000,266.873,-0.503,-260.981,389.725,288.891,-263.814,682.960,3399.510,227.980
781,39380.786000,288.618,7.544,-287.875,428.488,281.091,-194.279,876.960,3002.510,287.980
782,39380.820000,265.884,36.715,-328.716,446.913,274.647,-142.408,649.960,2101.510,216.980
783,39380.840000,221.405,19.615,-303.813,447.826,263.566,-117.155,458.960,933.510,278.980
784,39380.884000,175.938,71.921,-232.093,451.657,257.067,-105.523,-99.040,359.510,415.980
785,39380.916000,171.985,46.774,-185.276,452.597,251.532,-92.895,-645.040,114.510,476.980
786,39380.956000,203.614,32.692,-172.327,459.329,246.808,-90.044,-404.040,9.510,392.980
787,39381.0,213.498,73.933,-160.374,458.338,244.814,-92.052,253.960,-116.490,62.980
788,39381.40000,215.475,35.709,-98.615,456.348,241.623,-103.895,1024.960,-140.490,-202.020
789,39381.80000,266.873,30.680,4.981,454.355,238.411,-116.719,1169.960,10.510,-259.020
790,39381.120000,315.305,-8.550,34.864,454.324,233.708,-109.959,-3.040,425.510,251.980
791,39381.160000,208.556,62.868,-82.677,462.100,235.898,-102.048,-379.040,265.510,205.980
792,39381.181000,296.525,-43.756,-2.988,465.925,230.218,-97.263,369.960,330.510,194.980
793,39381.220000,257.977,27.662,-30.879,466.873,228.286,-97.304,247.960,168.510,157.980
794,39381.260000,255.012,38.727,-51.798,471.611,217.697,-95.568,149.960,73.510,165.980
795,39381.299000,260.942,12.574,-43.829,469.650,214.787,-94.656,72.960,79.510,136.980
796,39381.339000,249.081,11.568,-39.844,473.555,217.802,-91.639,-106.040,73.510,157.980
797,39381.380000,253.035,-8.550,-44.825,477.415,215.984,-87.748,-64.040,124.510,114.980
798,39381.420000,253.035,-23.639,-17.930,478.330,209.327,-82.010,-242.040,195.510,106.980
799,39381.464000,257.977,-3.521,-15.938,479.281,207.416,-81.070,164.960,106.510,43.980
800,39381.483000,241.174,-15.591,-31.875,478.316,207.428,-80.091,14.960,47.510,32.980
801,39381.519000,249.081,-22.633,-29.883,480.295,212.280,-80.960,116.960,87.510,-5.020
802,39381.559000,253.035,-6.538,-24.903,481.187,203.638,-77.227,36.960,19.510,-33.020
803,39381.597000,252.046,12.574,-38.848,483.197,211.424,-77.050,-21.040,-0.490,-79.020
804,39381.637000,255.012,-12.574,-16.934,479.332,212.314,-79.000,-54.040,1.510,-39.020
805,39381.677000,255.012,3.521,-34.864,478.395,214.354,-74.053,-69.040,118.510,-27.020
806,39381.717000,252.046,14.585,-23.907,481.325,216.410,-70.079,-174.040,153.510,-47.020
807,39381.757000,246.116,24.644,-9.961,479.392,215.528,-65.199,-499.040,40.510,6.980
808,39381.797000,254.023,-30.680,-23.907,481.398,222.386,-63.081,-182.040,63.510,-17.020
809,39381.817000,248.093,-26.656,-17.930,482.329,217.649,-58.281,8.960,63.510,-51.020
810,39381.856000,272.803,35.709,-19.922,477.480,216.610,-59.295,79.960,54.510,-82.020
811,39381.896000,282.687,41.745,-14.942,478.525,224.408,-58.139,-231.040,19.510,-14.020
812,39381.937000,267.861,17.603,-54.786,480.448,221.665,-51.331,-379.040,132.510,19.980
813,39381.977000,254.023,28.668,-64.747,480.503,225.721,-43.396,-399.040,345.510,42.980
814,39382.16000,247.104,24.644,-60.763,483.400,223.052,-33.642,-63.040,393.510,-77.020
815,39382.57000,210.533,35.709,-195.237,483.408,224.886,-38.505,602.960,-48.490,-294.020
816,39382.101000,199.660,110.145,-201.214,481.504,233.087,-61.863,286.960,-1033.490,-584.020
817,39382.117000,229.313,66.892,-183.284,473.825,248.568,-104.684,597.960,-1463.490,-686.020
818,39382.227000,227.336,66.892,-168.342,466.013,251.319,-152.692,453.960,-1701.490,-714.020
819,39382.241000,248.093,15.591,-175.315,448.577,259.736,-203.537,76.960,-1779.490,-649.020
820,39382.257000,232.278,16.597,-159.377,439.918,271.561,-235.654,-169.040,-1795.490,-506.020
821,39382.285000,246.116,2.515,-159.377,414.657,270.280,-282.808,-399.040,-1792.490,-342.020
822,39382.320000,279.722,-50.798,-145.432,384.626,274.886,-324.937,-122.040,-1717.490,-194.020
823,39382.359000,259.954,-52.809,-119.533,346.876,280.494,-362.157,-118.040,-1545.490,-180.020
824,39382.404000,245.127,-33.697,-100.607,314.863,275.825,-383.903,-223.040,-1288.490,-23.020
825,39382.444000,299.490,-37.721,-60.763,288.567,260.684,-399.004,46.960,-903.490,178.980
826,39382.461000,253.035,12.574,-13.946,274.932,253.519,-409.979,259.960,-620.490,280.980
827,39382.501000,211.521,24.644,-18.926,270.971,244.678,-413.126,143.960,-221.490,614.980
828,39382.541000,206.579,93.045,-40.840,269.019,241.855,-408.289,-189.040,47.510,521.980
829,39382.581000,202.625,24.644,-85.665,274.854,243.961,-403.327,-200.040,326.510,257.980
830,39382.620000,195.707,48.786,-89.650,280.576,235.301,-402.527,438.960,411.510,141.980
831,39382.660000,153.205,22.633,-85.665,289.205,226.713,-399.757,51.960,440.510,221.980
832,39382.704000,195.707,95.057,-220.140,293.027,220.127,-392.050,-67.040,293.510,275.980
833,39382.742000,222.394,-6.538,-131.486,290.974,208.415,-394.276,185.960,-50.490,1.980
834,39382.761000,246.116,29.674,-137.463,291.893,204.433,-399.265,790.960,78.510,4.980
835,39382.799000,304.432,55.827,-157.385,286.029,198.530,-400.389,-381.040,-25.490,140.980
836,39382.839000,317.282,86.004,-158.381,286.121,207.332,-397.252,-306.040,-80.490,94.980
837,39382.879000,328.154,30.680,-155.393,282.183,200.477,-398.393,252.960,2.510,-42.020
838,39382.919000,290.595,42.750,-109.572,288.995,204.448,-397.310,-290.040,-146.490,25.980
839,39382.957000,202.625,19.615,-168.342,279.366,210.071,-402.109,-286.040,-504.490,72.980
840,39382.999000,209.544,-8.550,-146.428,273.672,221.643,-402.844,-720.040,-612.490,118.980
841,39383.40000,181.869,-14.585,-92.638,271.873,235.260,-400.585,-748.040,-327.490,227.980
842,39383.79000,167.042,-18.609,-103.595,280.526,229.541,-399.713,273.960,328.510,375.980
843,39383.100000,136.402,60.857,-109.572,295.924,220.113,-394.005,310.960,693.510,348.980
844,39383.141000,152.216,29.674,-143.440,318.317,230.491,-373.134,-594.040,930.510,262.980
845,39383.181000,171.985,48.786,-182.288,338.655,229.136,-355.469,-172.040,947.510,244.980
846,39383.221000,148.263,63.874,-287.875,357.045,227.632,-343.696,-333.040,617.510,236.980
847,39383.261000,153.205,56.833,-258.988,356.139,234.375,-345.510,-22.040,-383.490,-27.020
848,39383.301000,133.436,9.556,-73.712,351.186,223.541,-350.664,106.960,-166.490,42.980
849,39383.341000,253.035,-8.550,-44.825,357.993,225.699,-343.737,-233.040,597.510,151.980
850,39383.381000,232.278,24.644,-170.335,371.517,220.351,-328.137,-157.040,746.510,205.980
851,39383.401000,212.510,39.733,-183.284,376.410,225.339,-324.093,-63.040,181.510,169.980
852,39383.445000,181.869,29.674,-123.518,386.058,220.773,-315.348,-62.040,433.510,215.980
853,39383.482000,256.000,7.544,-121.525,392.840,220.062,-306.523,-170.040,518.510,285.980
854,39383.521000,266.873,2.515,-96.623,399.632,219.438,-293.774,-376.040,481.510,337.980
855,39383.561000,240.185,75.945,-100.607,410.329,222.713,-281.911,-461.040,310.510,394.980
856,39383.600000,237.220,-2.515,-95.626,416.948,206.339,-279.319,-105.040,248.510,312.980
857,39383.640000,226.347,-52.809,-89.650,422.802,210.387,-274.313,22.960,225.510,237.980
858,39383.680000,239.197,-77.957,-82.677,424.660,200.870,-266.675,175.960,164.510,39.980
859,39383.719000,201.637,57.839,-117.541,426.577,199.832,-270.617,799.960,204.510,-80.020
860,39383.739000,256.988,53.815,-86.661,429.321,183.377,-269.996,-26.040,77.510,20.980
861,39383.779000,245.127,7.544,-84.669,424.512,186.242,-269.942,420.960,37.510,3.980
862,39383.820000,225.359,-5.532,-85.665,428.394,188.157,-272.834,22.960,-183.490,130.980
863,39383.861000,255.012,7.544,-117.541,425.478,187.999,-278.727,2.960,-99.490,53.980
864,39383.905000,214.486,15.591,-119.533,428.241,173.486,-278.063,-89.040,46.510,131.980
865,39383.941000,222.394,12.574,-113.556,430.315,186.277,-270.910,-273.040,179.510,181.980
866,39383.990000,249.081,-9.556,-92.638,434.094,176.649,-269.154,-143.040,272.510,159.980
867,39384.24000,249.081,-5.532,-81.681,439.999,184.710,-258.176,-122.040,224.510,77.980
868,39384.75000,250.069,-18.609,-73.712,443.864,183.820,-256.226,47.960,137.510,4.980
869,39384.106000,228.324,-10.562,-99.611,441.887,178.990,-254.376,135.960,151.510,-25.020
870,39384.137000,217.452,-10.562,-105.588,444.800,179.126,-249.464,365.960,276.510,26.980
871,39384.160000,232.278,26.656,-70.724,450.616,179.291,-244.544,234.960,272.510,25.980
872,39384.200000,249.081,2.515,-73.712,453.471,174.465,-244.645,412.960,167.510,11.980
873,39384.240000,221.405,47.780,-81.681,451.508,171.533,-244.715,-160.040,92.510,66.980
874,39384.279000,260.942,2.515,-78.693,454.429,172.618,-240.762,-305.040,86.510,69.980
875,39384.319000,256.988,-25.650,-61.759,456.335,167.956,-233.016,-503.040,129.510,64.980
876,39384.361000,213.498,0.503,-94.630,455.522,182.639,-226.808,-240.040,39.510,4.980
877,39384.381000,211.521,-46.774,-29.883,459.390,183.539,-231.683,40.960,-136.490,-128.020
878,39384.425000,215.475,-10.562,-79.689,456.378,173.651,-238.773,802.960,-78.490,-96.020
879,39384.462000,277.745,21.627,-55.782,451.501,171.468,-247.658,493.960,-260.490,-173.020
880,39384.502000,204.602,3.521,-61.759,445.660,170.182,-259.467,343.960,-756.490,-204.020
881,39384.542000,178.903,-106.122,-106.584,431.017,160.850,-280.299,489.960,-582.490,60.980
882,39384.597000,209.544,-37.721,-152.405,426.202,165.420,-290.995,-264.040,-407.490,-12.020
883,39384.626000,290.595,30.680,-130.490,426.197,165.377,-292.957,420.960,-68.490,-179.020
884,39384.662000,280.710,81.980,-129.494,430.019,159.676,-289.153,-164.040,329.510,119.980
885,39384.682000,212.510,-1.509,-145.432,435.893,163.033,-271.414,-302.040,777.510,146.980
886,39384.722000,257.977,27.662,-84.669,447.566,166.404,-255.624,-791.040,858.510,227.980
887,39384.762000,239.197,-37.721,-59.767,457.342,171.870,-231.946,-674.040,848.510,271.980
888,39384.802000,233.266,-40.739,-80.685,467.098,174.510,-204.409,-454.040,848.510,138.980
889,39384.842000,237.220,-36.715,-30.879,473.922,175.957,-185.730,-436.040,704.510,36.980
890,39384.884000,231.290,26.656,3.984,478.796,177.234,-173.923,-355.040,362.510,44.980
891,39384.924000,213.498,-48.786,-18.926,479.772,177.329,-169.996,-50.040,20.510,83.980
892,39384.974000,238.208,-28.668,-32.872,480.780,182.128,-172.830,23.960,-209.490,-56.020
893,39385.1000,268.849,25.650,-75.704,479.724,175.107,-182.794,470.960,-190.490,-86.020
894,39385.21000,247.104,-0.503,-80.685,476.867,180.796,-187.577,128.960,-67.490,-77.020
895,39385.62000,247.104,-5.532,-78.693,475.914,181.801,-185.596,-17.040,61.510,-53.020
896,39385.102000,233.266,-33.697,-69.728,475.890,178.931,-183.698,448.960,180.510,-60.020
897,39385.146000,248.093,6.538,-40.840,478.750,174.148,-181.837,-169.040,68.510,7.980
898,39385.185000,251.058,-28.668,-41.837,473.957,178.049,-178.818,277.960,154.510,5.980
899,39385.220000,256.000,19.615,-61.759,478.737,171.387,-175.034,337.960,227.510,-0.020
900,39385.260000,252.046,16.597,-35.860,480.764,180.208,-171.892,-208.040,125.510,3.980
901,39385.304000,252.046,0.503,-35.860,478.779,174.429,-169.082,-128.040,66.510,43.980
902,39385.320000,241.174,-34.703,-37.852,478.826,179.283,-168.974,-98.040,58.510,-16.020
903,39385.361000,254.023,17.603,-31.875,479.772,176.445,-166.093,-234.040,-82.490,-96.020
904,39385.412000,240.185,-14.585,-12.949,478.921,189.876,-172.661,-107.040,-245.490,-107.020
905,39385.440000,244.139,-18.609,-34.864,473.039,183.800,-181.635,102.960,-404.490,-174.020
906,39385.480000,245.127,8.550,-61.759,467.299,192.288,-190.284,-89.040,-453.490,-214.020
907,39385.520000,250.069,2.515,-43.829,461.496,194.000,-198.104,19.960,-532.490,-226.020
908,39385.560000,236.232,7.544,-55.782,449.905,199.346,-214.681,113.960,-611.490,-241.020
909,39385.600000,253.035,-0.503,-71.720,446.091,207.765,-227.251,-51.040,-626.490,-317.020
910,39385.640000,261.931,8.550,-78.693,437.444,216.181,-237.869,-154.040,-500.490,-353.020
911,39385.660000,239.197,39.733,-108.576,428.800,222.870,-238.720,-228.040,-320.490,-317.020
912,39385.700000,244.139,46.774,-117.541,425.939,228.516,-245.465,-19.040,-104.490,-233.020
913,39385.740000,241.174,46.774,-113.556,421.095,227.520,-244.517,185.960,-28.490,-236.020
914,39385.780000,217.452,52.809,-275.922,417.329,239.046,-248.191,-143.040,-484.490,-226.020
915,39385.820000,204.602,91.033,-292.856,401.906,248.237,-264.691,-249.040,-1165.490,-234.020
916,39385.860000,189.776,81.980,-182.288,376.795,256.320,-283.197,-663.040,-1243.490,-291.020
917,39385.900000,197.683,72.927,-139.455,352.655,263.571,-295.836,-385.040,-955.490,-310.020
918,39385.945000,204.602,62.868,-115.549,336.334,277.823,-302.419,-57.040,-681.490,-395.020
919,39385.961000,209.544,28.668,-91.642,324.749,282.348,-312.149,199.960,-567.490,-410.020
920,39386.1000,193.730,31.686,-102.599,313.162,286.852,-322.861,263.960,-444.490,-321.020
921,39386.41000,206.579,12.574,-82.677,302.542,290.481,-329.667,93.960,-415.490,-235.020
922,39386.90000,190.764,3.521,-4.981,291.847,286.343,-336.646,283.960,-202.490,-157.020
923,39386.127000,184.834,-13.580,46.817,287.813,270.642,-342.887,546.960,81.510,-75.020
924,39386.165000,300.479,-12.574,-162.366,284.789,259.761,-350.980,546.960,-264.490,-10.020
925,39386.207000,292.571,69.910,-127.502,284.860,267.485,-352.770,-289.040,-226.490,141.980
926,39386.245000,362.749,77.957,-124.514,282.913,266.474,-353.777,44.960,-214.490,60.980
927,39386.285000,320.247,107.128,-115.549,281.972,269.356,-354.696,-180.040,-274.490,17.980
928,39386.312000,312.340,118.193,-103.595,276.222,275.103,-355.561,-374.040,-293.490,61.980
929,39386.341000,247.104,153.399,-92.638,275.352,283.960,-349.483,-1103.040,-368.490,16.980
930,39386.387000,196.695,39.733,-157.385,268.680,295.415,-355.126,-276.040,-625.490,-233.020
931,39386.445000,143.320,68.904,-227.113,259.874,289.095,-373.918,729.960,-522.490,-522.020
932,39386.477000,126.517,12.574,-84.669,245.424,297.476,-383.569,206.960,-384.490,-629.020
933,39386.511000,148.263,46.774,-24.903,245.558,309.321,-374.480,-1112.040,422.510,-420.020
934,39386.544000,128.494,0.503,-77.696,257.559,342.249,-338.420,-2200.040,883.510,-257.020
935,39386.585000,138.378,-54.821,-118.537,283.999,367.573,-301.517,-1137.040,1329.510,191.980
936,39386.605000,206.579,-21.627,-160.374,317.580,340.568,-308.911,2461.960,1747.510,275.980
937,39386.645000,182.857,142.334,-238.070,343.623,328.633,-289.507,-14.040,1500.510,-34.020
938,39386.685000,211.521,51.804,-370.553,344.684,336.582,-281.483,-253.040,104.510,171.980
939,39386.724000,232.278,95.057,-127.502,339.711,324.668,-291.565,309.960,-564.490,144.980
940,39386.764000,253.035,28.668,-150.412,332.108,338.228,-289.319,-422.040,-650.490,240.980
941,39386.804000,244.139,15.591,-111.564,332.016,332.058,-305.146,529.960,-416.490,193.980
942,39386.844000,203.614,71.921,-85.665,328.942,316.302,-314.329,495.960,-73.490,270.980
943,39386.884000,210.533,56.833,-73.712,332.689,302.833,-310.697,208.960,212.510,389.980
944,39386.924000,224.371,50.798,-77.696,347.150,296.330,-303.946,-39.040,426.510,554.980
945,39386.944000,215.475,68.904,-71.720,365.509,291.007,-289.316,-367.040,502.510,657.980
946,39386.984000,222.394,65.886,-92.638,376.163,288.587,-271.695,-638.040,548.510,724.980
947,39387.25000,228.324,68.904,-84.669,395.517,286.186,-256.998,-639.040,603.510,698.980
948,39387.72000,235.243,65.886,-95.626,409.946,273.210,-235.681,-412.040,633.510,600.980
949,39387.112000,233.266,77.957,-117.541,424.440,268.778,-223.000,-16.040,570.510,409.980
950,39387.145000,222.394,79.969,-119.533,434.059,261.299,-214.320,186.960,496.510,308.980
951,39387.185000,225.359,73.933,-123.518,444.675,257.627,-209.476,309.960,472.510,186.980
952,39387.225000,229.313,47.780,-118.537,448.473,248.172,-199.871,99.960,402.510,144.980
953,39387.264000,222.394,52.809,-138.459,454.286,248.315,-195.933,99.960,332.510,176.980
954,39387.292000,226.347,62.868,-91.642,459.954,232.967,-190.378,-373.040,45.510,215.980
955,39387.326000,226.347,18.609,-67.735,455.199,240.751,-187.273,61.960,114.510,89.980
956,39387.380000,242.162,22.633,-64.747,461.024,242.771,-186.235,482.960,180.510,62.980
957,39387.413000,254.023,14.585,-77.696,463.849,234.126,-183.479,-6.040,162.510,145.980
958,39387.457000,245.127,15.591,-76.700,466.701,228.394,-180.658,-132.040,156.510,156.980
959,39387.482000,238.208,34.703,-72.716,470.512,221.701,-177.857,300.960,193.510,121.980
960,39387.522000,252.046,9.556,-56.778,469.579,224.668,-174.851,40.960,166.510,156.980
961,39387.581000,258.965,-11.568,-48.809,473.423,221.815,-173.925,106.960,174.510,156.980
962,39387.589000,244.139,26.656,-70.724,477.257,217.106,-169.119,146.960,210.510,148.980
963,39387.622000,243.151,9.556,-60.763,482.023,208.545,-163.415,75.960,221.510,186.980
964,39387.665000,256.000,3.521,-53.790,480.029,202.680,-164.530,173.960,233.510,187.980
965,39387.705000,254.023,3.521,-46.817,485.814,199.025,-156.753,59.960,206.510,179.980
966,39387.745000,245.127,-0.503,-45.821,487.772,201.029,-154.743,81.960,169.510,157.980
967,39387.786000,251.058,-0.503,-50.802,489.664,196.237,-152.884,90.960,156.510,136.980
968,39387.838000,244.139,-0.503,-50.802,490.537,185.653,-149.195,39.960,148.510,120.980
969,39387.868000,256.000,-2.515,-44.825,496.353,185.817,-144.276,-64.040,132.510,95.980
970,39387.909000,250.069,-7.544,-45.821,496.367,186.831,-142.292,-25.040,153.510,72.980
971,39387.927000,253.035,-4.527,-37.852,498.320,187.907,-138.341,-44.040,151.510,60.980
972,39387.974000,252.046,-2.515,-41.837,499.315,189.945,-134.371,4.960,147.510,51.980
973,39388.6000,248.093,-8.550,-33.868,499.315,189.060,-130.468,-33.040,147.510,56.980
974,39388.54000,255.012,-3.521,-30.879,500.233,183.309,-127.652,27.960,148.510,58.980
975,39388.87000,253.035,-11.568,-30.879,500.239,183.374,-124.708,-31.040,128.510,52.980
976,39388.127000,253.035,-4.527,-32.872,506.055,183.538,-119.789,20.960,104.510,29.980
977,39388.164000,245.127,-9.556,-23.907,503.176,185.495,-117.791,-25.040,37.510,3.980
978,39388.204000,251.058,-21.627,-20.918,502.155,180.566,-120.844,67.960,-3.490,-23.020
979,39388.224000,244.139,-11.568,-32.872,504.132,185.396,-122.694,117.960,-0.490,-32.020
980,39388.264000,254.023,3.521,-35.860,503.087,177.598,-123.850,171.960,5.510,-38.020
981,39388.304000,251.058,-0.503,-31.875,499.248,180.495,-122.813,96.960,-20.490,-38.020
982,39388.364000,254.023,-18.609,-31.875,501.235,186.296,-124.641,179.960,-1.490,-52.020
983,39388.414000,253.035,0.503,-36.856,503.156,184.416,-122.718,144.960,1.510,-93.020
984,39388.459000,253.035,-4.527,-26.895,499.256,182.329,-127.676,67.960,-18.490,-93.020
985,39388.474000,252.046,-9.556,-33.868,495.414,185.204,-127.620,93.960,11.510,-96.020
986,39388.504000,253.035,-5.532,-37.852,495.398,183.283,-126.682,159.960,55.510,-87.020
987,39388.524000,256.988,11.568,-32.872,495.473,191.050,-126.509,139.960,85.510,-94.020
988,39388.564000,255.012,2.515,-31.875,498.413,194.078,-122.513,84.960,95.510,-81.020
989,39388.621000,251.058,0.503,-28.887,496.440,190.175,-122.604,63.960,89.510,-85.020
990,39388.650000,252.046,0.503,-28.887,493.570,193.103,-120.584,30.960,89.510,-89.020
991,39388.684000,254.023,7.544,-28.887,494.590,198.010,-118.512,29.960,113.510,-83.020
992,39388.735000,254.023,5.532,-26.895,491.690,198.003,-117.537,67.960,144.510,-74.020
993,39388.764000,255.012,2.515,-17.930,494.650,202.993,-112.517,75.960,142.510,-66.020
994,39388.819000,252.046,5.532,-19.922,494.660,203.964,-112.495,101.960,140.510,-59.020
995,39388.870000,253.035,4.527,-15.938,494.655,203.036,-110.555,107.960,119.510,-52.020
996,39388.879000,252.046,0.503,-12.949,493.720,205.983,-108.530,136.960,69.510,-68.020
997,39388.904000,252.046,4.527,-12.949,493.753,209.823,-110.406,127.960,30.510,-91.020
998,39388.944000,252.046,7.544,-14.942,494.718,208.926,-107.482,86.960,1.510,-105.020
999,39388.984000,254.023,11.568,-17.930,492.786,209.814,-110.408,86.960,-14.490,-104.020
1000,39389.26000,252.046,9.556,-18.926,492.814,212.726,-110.343,66.960,-17.490,-95.020
1001,39389.65000,252.046,14.585,-17.930,488.900,208.740,-113.382,45.960,-8.490,-83.020
1002,39389.120000,253.035,14.585,-19.922,490.912,216.548,-112.224,44.960,-3.490,-58.020
1003,39389.147000,251.058,16.597,-20.918,488.987,217.500,-112.207,30.960,10.510,-23.020
1004,39389.166000,254.023,15.591,-18.926,489.910,212.676,-111.331,43.960,21.510,-5.020
1005,39389.206000,253.035,12.574,-17.930,487.027,215.474,-115.198,7.960,25.510,-0.020
1006,39389.266000,252.046,12.574,-12.949,489.891,210.735,-111.374,-2.040,15.510,4.980
1007,39389.287000,254.023,13.580,-15.938,484.072,208.779,-109.469,-0.040,7.510,3.980
1008,39389.345000,255.012,11.568,-16.934,490.903,215.577,-112.245,-15.040,2.510,-1.020
1009,39389.397000,253.035,9.556,-14.942,487.049,216.575,-109.289,-24.040,-13.490,-10.020
1010,39389.414000,250.069,12.574,-16.934,488.949,213.616,-112.293,-25.040,-24.490,-12.020
1011,39389.445000,255.012,11.568,-15.938,486.104,219.413,-112.170,-32.040,-25.490,-18.020
1012,39389.484000,252.046,16.597,-16.934,486.026,211.625,-113.324,-49.040,-24.490,-21.020
1013,39389.504000,252.046,13.580,-15.938,486.106,219.435,-111.189,-20.040,-28.490,-21.020
1014,39389.562000,253.035,11.568,-15.938,485.096,215.499,-113.240,-8.040,-48.490,-26.020
