Sample, Time, ACCX, ACCY, ACCZ, MAGX, MAGY, MAGZ, GYRX, GYRY, GYRZ
0,38992.28000,252.046,15.591,-26.895,495.476,197.243,-153.830,-8.040,-14.490,-28.020
1,38992.67000,254.023,15.591,-24.903,497.477,204.057,-153.675,-13.040,-16.490,-26.020
2,38992.107000,252.046,17.603,-27.891,499.442,207.010,-152.625,-6.040,-18.490,-22.020
3,38992.147000,250.069,18.609,-28.887,497.543,210.853,-153.524,-2.040,-13.490,-12.020
4,38992.187000,253.035,17.603,-28.887,496.561,208.945,-151.607,-20.040,-3.490,-5.020
5,38992.227000,252.046,18.609,-24.903,492.694,209.814,-154.538,-70.040,0.510,-5.020
6,38992.270000,253.035,16.597,-22.911,495.605,209.928,-150.607,-65.040,-22.490,-21.020
7,38992.310000,251.058,14.585,-26.895,493.711,214.699,-153.447,-10.040,-54.490,-29.020
8,38992.337000,253.035,11.568,-25.899,493.699,213.707,-154.449,-50.040,-72.490,-45.020
9,38992.366000,253.035,18.609,-28.887,492.765,217.538,-156.328,-31.040,-76.490,-78.020
10,38992.405000,256.988,15.591,-22.911,490.856,220.410,-157.249,-9.040,-104.490,-103.020
11,38992.445000,254.023,22.633,-28.887,489.908,223.227,-161.111,14.960,-148.490,-124.020
12,38992.486000,250.069,18.609,-27.891,485.951,214.430,-162.295,3.960,-199.490,-145.020
13,38992.527000,246.116,21.627,-38.848,482.210,229.710,-171.770,-6.040,-223.490,-168.020
14,38992.570000,247.104,23.639,-41.837,475.469,233.463,-174.643,-1.040,-208.490,-173.020
15,38992.607000,248.093,31.686,-40.840,474.523,236.301,-177.524,43.960,-196.490,-177.020
16,38992.627000,249.081,33.697,-37.852,467.726,235.113,-184.430,27.960,-234.490,-179.020
17,38992.667000,254.023,37.721,-43.829,470.654,238.917,-189.242,11.960,-263.490,-181.020
18,38992.707000,257.977,31.686,-39.844,463.875,238.787,-192.201,-88.040,-293.490,-154.020
19,38992.747000,260.942,39.733,-48.809,462.027,250.159,-203.721,-66.040,-265.490,-125.020
20,38992.787000,252.046,41.745,-55.782,455.321,256.889,-203.586,-356.040,-277.490,-173.020
21,38992.827000,248.093,4.527,-79.689,452.437,258.803,-203.549,-494.040,-356.490,-143.020
22,38992.867000,237.220,-6.538,-89.650,447.675,266.523,-203.388,-723.040,-419.490,195.980
23,38992.907000,239.197,-22.633,-102.599,448.582,260.664,-205.477,-476.040,-381.490,388.980
24,38992.950000,236.232,-34.703,-94.630,448.491,253.630,-216.421,1255.960,-145.490,530.980
25,38992.976000,219.429,44.762,-89.650,452.077,227.174,-229.749,1388.960,-41.490,632.980
26,38993.10000,207.568,28.668,-77.696,450.889,205.676,-236.113,99.960,-106.490,547.980
27,38993.56000,214.486,121.210,23.907,450.834,198.988,-231.358,-394.040,160.510,444.980
28,38993.86000,263.907,95.057,-194.241,460.570,201.434,-212.651,-456.040,530.510,325.980
29,38993.126000,286.641,7.544,-51.798,468.225,192.772,-212.827,1001.960,543.510,57.980
30,38993.193000,292.571,51.804,-51.798,469.153,187.129,-205.105,111.960,532.510,210.980
31,38993.210000,259.954,1.509,-33.868,478.822,184.526,-195.336,-42.040,428.510,208.980
32,38993.250000,255.012,8.550,-39.844,481.601,170.164,-187.803,170.960,379.510,179.980
33,38993.267000,251.058,-13.580,-41.837,484.521,170.365,-179.947,-60.040,324.510,132.980
34,38993.312000,255.012,0.503,-22.911,485.476,166.728,-169.239,-66.040,289.510,98.980
35,38993.345000,254.023,-1.509,-38.848,492.313,172.705,-165.169,-94.040,230.510,81.980
36,38993.385000,253.035,2.515,-37.852,493.304,173.815,-159.258,-118.040,256.510,84.980
37,38993.426000,251.058,-1.509,-29.883,496.177,170.046,-155.413,-203.040,274.510,95.980
38,38993.466000,250.069,-2.515,-18.926,501.955,164.558,-142.774,-176.040,260.510,95.980
39,38993.506000,252.046,-9.556,-12.949,497.159,167.553,-136.834,-164.040,175.510,74.980
40,38993.547000,249.081,-15.591,-15.938,501.055,169.597,-133.838,-110.040,114.510,36.980
41,38993.567000,250.069,-11.568,-14.942,505.917,171.651,-130.841,-158.040,93.510,9.980
42,38993.613000,247.104,-3.521,-16.934,501.993,165.809,-129.998,-129.040,91.510,32.980
43,38993.651000,256.000,-11.568,-16.934,505.938,172.729,-125.913,-15.040,129.510,41.980
44,38993.686000,252.046,1.509,-12.949,502.946,163.035,-124.174,-119.040,100.510,31.980
45,38993.731000,256.000,-8.550,-17.930,503.028,169.982,-117.155,-30.040,135.510,32.980
46,38993.771000,255.012,-16.597,-11.953,509.806,170.113,-114.195,-73.040,170.510,71.980
47,38993.808000,251.058,-23.639,-3.984,509.738,162.411,-111.424,34.960,163.510,22.980
48,38993.848000,248.093,-10.562,-0.996,505.886,163.430,-107.487,0.960,94.510,-46.020
49,38993.886000,253.035,-7.544,-5.977,508.815,166.350,-108.397,-76.040,14.510,-78.020
50,38993.907000,255.012,-9.556,-4.981,507.842,165.413,-106.459,27.960,1.510,-117.020
51,38993.946000,254.023,-9.556,-3.984,504.992,171.166,-108.298,46.960,-59.490,-169.020
52,38993.986000,254.023,-14.585,-8.965,504.176,186.691,-107.955,-97.040,-106.490,-218.020
53,38994.26000,244.139,-18.609,12.949,496.500,194.274,-112.706,-278.040,-235.490,-359.020
54,38994.66000,246.116,2.515,16.934,491.761,206.611,-123.230,-76.040,-431.490,-393.020
55,38994.106000,257.977,4.527,-5.977,485.920,206.210,-138.942,421.960,-628.490,-401.020
56,38994.146000,262.919,18.609,-26.895,477.246,212.597,-153.528,267.960,-686.490,-438.020
57,38994.186000,262.919,4.527,-41.837,467.622,220.033,-164.171,-6.040,-532.490,-361.020
58,38994.206000,240.185,-3.521,-72.716,463.803,227.525,-174.800,272.960,-342.490,-304.020
59,38994.261000,251.058,61.862,-97.619,456.024,225.313,-183.691,345.960,-170.490,-338.020
60,38994.288000,247.104,-8.550,-117.541,451.296,237.758,-189.309,156.960,-188.490,-174.020
61,38994.328000,252.046,-36.715,-135.471,448.280,228.711,-202.265,257.960,-452.490,208.980
62,38994.368000,235.243,-8.550,-106.584,448.182,220.729,-212.249,857.960,-470.490,319.980
63,38994.408000,208.556,82.986,-48.809,441.352,217.470,-225.084,-144.040,-409.490,240.980
64,38994.448000,238.208,78.963,105.588,439.419,215.703,-216.301,-1194.040,270.510,355.980
65,38994.488000,277.745,62.868,-161.370,442.312,211.244,-199.723,-513.040,307.510,200.980
66,38994.508000,228.324,-5.532,-78.693,450.948,203.605,-197.913,761.960,497.510,86.980
67,38994.549000,268.849,-0.503,-50.802,455.850,207.795,-186.042,-156.040,567.510,139.980
68,38994.588000,271.815,57.839,-28.887,462.606,203.308,-172.398,-155.040,620.510,143.980
69,38994.629000,272.803,50.798,-16.934,466.522,205.546,-160.572,-112.040,526.510,219.980
70,38994.668000,247.104,-0.503,-14.942,472.229,193.219,-150.046,-50.040,405.510,223.980
71,38994.708000,238.208,-25.650,-0.996,478.080,196.361,-142.119,-51.040,188.510,100.980
72,38994.748000,245.127,-4.527,-6.973,477.133,198.315,-141.097,8.960,34.510,24.980
73,38994.788000,257.977,18.609,-25.899,477.124,198.228,-145.021,103.960,-76.490,-12.020
74,38994.827000,255.012,5.532,-31.875,475.119,191.370,-147.139,66.960,-76.490,-6.020
75,38994.847000,250.069,-2.515,-24.903,474.204,197.143,-148.974,-110.040,-72.490,-37.020
76,38994.900000,248.093,1.509,-17.930,472.224,192.291,-148.105,-44.040,-124.490,-72.020
77,38994.929000,253.035,3.521,-28.887,469.393,200.871,-153.805,132.960,-158.490,-83.020
78,38994.968000,254.023,9.556,-35.860,469.384,200.785,-157.729,67.960,-142.490,-91.020
79,38995.8000,250.069,6.538,-33.868,468.455,205.544,-161.548,0.960,-123.490,-95.020
80,38995.48000,254.023,12.574,-33.868,463.554,199.607,-164.633,-25.040,-126.490,-83.020
81,38995.88000,255.012,16.597,-40.840,465.480,199.539,-168.553,49.960,-97.490,-60.020
82,38995.128000,253.035,16.597,-42.833,463.568,201.505,-166.552,8.960,-50.490,-30.020
83,38995.147000,250.069,11.568,-41.837,460.713,206.331,-166.451,26.960,-11.490,-13.020
84,38995.188000,252.046,14.585,-37.852,463.618,207.266,-169.366,0.960,27.510,7.980
85,38995.229000,252.046,15.591,-37.852,467.506,208.361,-165.411,27.960,39.510,15.980
86,38995.268000,254.023,9.556,-39.844,460.671,201.520,-164.596,-15.040,68.510,30.980
87,38995.315000,255.012,14.585,-40.840,469.443,207.516,-160.522,9.960,113.510,39.980
88,38995.350000,252.046,12.574,-29.883,463.620,205.518,-160.579,-27.040,134.510,54.980
89,38995.390000,251.058,9.556,-30.879,467.430,198.825,-157.777,-30.040,119.510,58.980
90,38995.427000,251.058,7.544,-22.911,465.537,202.732,-155.733,-25.040,73.510,35.980
91,38995.447000,249.081,4.527,-20.918,470.318,196.070,-151.948,-34.040,10.510,12.980
92,38995.487000,253.035,4.527,-22.911,468.425,200.862,-153.807,1.960,-47.490,-7.020
93,38995.527000,253.035,10.562,-27.891,469.405,202.748,-156.705,24.960,-97.490,-28.020
94,38995.568000,250.069,7.544,-28.887,465.552,204.631,-157.652,14.960,-126.490,-40.020
95,38995.608000,248.093,10.562,-32.872,465.547,204.588,-159.615,11.960,-142.490,-38.020
96,38995.650000,250.069,10.562,-41.837,464.602,208.311,-166.398,38.960,-106.490,-28.020
97,38995.690000,252.046,16.597,-40.840,464.526,200.544,-166.571,29.960,-54.490,-8.020
98,38995.730000,254.023,18.609,-45.821,465.569,208.320,-166.396,-27.040,4.510,20.980
99,38995.770000,253.035,7.544,-41.837,466.506,204.511,-163.537,-60.040,96.510,46.980
100,38995.790000,251.058,11.568,-28.887,468.464,205.630,-157.624,-31.040,113.510,55.980
101,38995.829000,253.035,7.544,-27.891,469.405,203.633,-160.608,-18.040,85.510,50.980
102,38995.868000,251.058,6.538,-23.907,471.298,198.841,-158.749,-38.040,40.510,33.980
103,38995.908000,252.046,4.527,-25.899,466.432,195.881,-158.825,-6.040,-8.490,15.980
104,38995.948000,252.046,5.532,-29.883,471.274,196.856,-160.755,7.960,-46.490,-4.020
105,38995.995000,254.023,10.562,-33.868,469.422,204.669,-157.643,23.960,-42.490,-6.020
106,38996.30000,251.058,11.568,-35.860,469.363,198.822,-158.754,12.960,-19.490,-0.020
107,38996.70000,251.058,6.538,-32.872,468.426,201.747,-157.710,-4.040,-8.490,5.980
108,38996.90000,252.046,8.550,-33.868,467.402,196.797,-161.745,-0.040,2.510,3.980
109,38996.130000,250.069,9.556,-32.872,465.505,199.777,-157.760,11.960,4.510,4.980
110,38996.183000,252.046,10.562,-31.875,464.523,198.753,-159.746,-2.040,9.510,8.980
111,38996.226000,252.046,8.550,-33.868,468.414,200.754,-158.713,7.960,17.510,9.980
112,38996.253000,252.046,10.562,-32.872,469.424,204.690,-156.662,-5.040,34.510,16.980
113,38996.293000,250.069,8.550,-30.879,468.419,200.797,-156.751,24.960,41.510,22.980
114,38996.333000,253.035,7.544,-31.875,468.393,197.906,-155.834,13.960,39.510,20.980
115,38996.373000,251.058,5.532,-29.883,471.354,203.781,-154.717,-12.040,41.510,14.980
116,38996.393000,252.046,7.544,-30.879,469.391,200.850,-154.786,-25.040,39.510,14.980
117,38996.433000,252.046,6.538,-29.883,468.430,201.790,-155.748,-0.040,36.510,15.980
118,38996.474000,251.058,7.544,-27.891,468.376,195.986,-154.896,1.960,29.510,9.980
119,38996.513000,253.035,7.544,-26.895,473.187,193.142,-153.968,0.960,18.510,2.980
120,38996.553000,251.058,4.527,-26.895,467.404,195.049,-152.958,4.960,3.510,2.980
121,38996.593000,252.046,5.532,-24.903,469.386,199.922,-152.845,46.960,-13.490,-1.020
122,38996.631000,255.012,11.568,-27.891,470.389,203.793,-153.738,39.960,-22.490,-14.020
123,38996.671000,254.023,8.550,-30.879,472.265,197.966,-154.844,15.960,-5.490,-2.020
124,38996.722000,253.035,9.556,-30.879,470.334,197.990,-152.886,-2.040,21.510,8.980
125,38996.728000,252.046,7.544,-26.895,470.379,201.938,-149.857,2.960,30.510,11.980
126,38996.771000,252.046,8.550,-27.891,472.297,200.921,-152.817,13.960,14.510,5.980
127,38996.811000,253.035,8.550,-26.895,472.311,201.935,-150.833,-9.040,7.510,0.980
128,38996.851000,253.035,8.550,-26.895,471.321,199.941,-152.841,5.960,2.510,1.980
129,38996.892000,253.035,7.544,-30.879,472.264,197.081,-150.941,7.960,5.510,4.980
130,38996.933000,252.046,8.550,-29.883,471.292,196.144,-149.003,0.960,9.510,4.980
131,38996.973000,253.035,6.538,-26.895,475.183,199.029,-151.872,2.960,10.510,8.980
132,38997.13000,253.035,7.544,-25.899,473.260,200.003,-150.874,-2.040,8.510,4.980
133,38997.33000,253.035,7.544,-23.907,468.423,199.956,-150.885,-11.040,2.510,6.980
134,38997.73000,252.046,4.527,-25.899,472.283,199.023,-150.898,3.960,-4.490,5.980
135,38997.113000,255.012,5.532,-26.895,471.266,194.137,-151.989,-7.040,-7.490,2.980
136,38997.150000,252.046,8.550,-27.891,469.402,200.958,-149.880,-1.040,-8.490,1.980
137,38997.190000,251.058,8.550,-24.903,472.293,199.994,-150.876,-3.040,-7.490,3.980
138,38997.230000,253.035,6.538,-25.899,471.261,193.210,-150.048,14.960,-9.490,4.980
139,38997.271000,252.046,7.544,-27.891,468.328,190.247,-151.101,0.960,-14.490,-1.020
140,38997.311000,253.035,9.556,-28.887,471.236,191.203,-153.035,3.960,-15.490,2.980
141,38997.351000,251.058,7.544,-28.887,470.337,198.011,-151.905,-8.040,-12.490,2.980
142,38997.371000,252.046,5.532,-27.891,473.251,199.032,-150.896,-2.040,-8.490,1.980
143,38997.411000,254.023,10.562,-27.891,474.216,199.020,-151.875,-2.040,-5.490,5.980
144,38997.456000,253.035,7.544,-26.895,468.373,195.080,-151.974,4.960,-6.490,8.980
145,38997.491000,251.058,6.538,-27.891,468.373,195.080,-151.974,-4.040,-4.490,8.980
146,38997.530000,253.035,6.538,-25.899,467.389,193.150,-151.039,-0.040,-2.490,9.980
147,38997.570000,254.023,5.532,-25.899,470.363,200.902,-152.822,3.960,-5.490,8.980
148,38997.623000,254.023,8.550,-24.903,470.344,198.961,-152.865,11.960,-18.490,8.980
149,38997.650000,253.035,8.550,-27.891,469.381,198.994,-150.905,4.960,-24.490,4.980
150,38997.670000,251.058,5.532,-27.891,472.213,192.183,-153.011,13.960,-24.490,6.980
151,38997.710000,253.035,8.550,-26.895,468.378,196.008,-153.915,21.960,-26.490,3.980
152,38997.750000,253.035,6.538,-29.883,470.278,192.165,-153.016,14.960,-29.490,5.980
153,38997.795000,252.046,7.544,-28.887,474.152,193.130,-154.947,3.960,-25.490,7.980
154,38997.835000,252.046,9.556,-26.895,472.288,200.835,-156.742,13.960,-18.490,12.980
155,38997.875000,253.035,8.550,-30.879,471.241,192.131,-154.976,4.960,-15.490,12.980
156,38997.910000,253.035,5.532,-25.899,470.278,193.049,-156.919,15.960,-16.490,11.980
157,38997.955000,254.023,6.538,-29.883,472.204,192.097,-156.936,4.960,-19.490,12.980
158,38997.975000,254.023,6.538,-30.879,467.400,195.890,-158.823,-5.040,-19.490,14.980
159,38998.15000,252.046,7.544,-27.891,469.339,196.837,-160.759,1.960,-16.490,18.980
160,38998.55000,249.081,15.591,-31.875,468.332,192.038,-157.926,19.960,-21.490,14.980
161,38998.95000,261.931,1.509,-31.875,470.234,189.101,-159.948,-6.040,-28.490,38.980
162,38998.136000,252.046,-0.503,-29.883,468.329,191.132,-155.004,1.960,-16.490,12.980
163,38998.170000,248.093,-1.509,-25.899,470.233,188.216,-156.045,20.960,-45.490,-24.020
164,38998.216000,244.139,5.532,-24.903,468.381,197.798,-160.740,37.960,-83.490,-29.020
165,38998.250000,242.162,20.621,-25.899,469.337,196.815,-161.740,-30.040,-63.490,31.980
166,38998.293000,248.093,5.532,-34.864,468.349,195.727,-166.670,34.960,-90.490,4.980
167,38998.315000,259.954,-27.662,-31.875,468.290,189.880,-167.780,232.960,-105.490,-64.020
168,38998.355000,256.000,12.574,-44.825,465.440,196.519,-173.523,196.960,-79.490,-123.020
169,38998.400000,257.977,24.644,-46.817,464.494,198.473,-172.501,137.960,-9.490,-101.020
170,38998.435000,254.023,23.639,-42.833,462.514,193.621,-171.632,-72.040,72.510,-37.020
171,38998.470000,255.012,13.580,-37.852,462.523,193.707,-167.708,-211.040,75.510,-47.020
172,38998.510000,249.081,-1.509,-26.895,462.563,197.612,-166.640,-115.040,101.510,-88.020
173,38998.553000,255.012,-25.650,-20.918,462.638,204.495,-162.565,46.960,57.510,-154.020
174,38998.601000,225.359,48.786,-23.907,456.935,215.096,-163.322,11.960,-49.490,-284.020
175,38998.623000,259.954,58.845,-31.875,460.812,216.083,-164.273,-169.040,-89.490,-178.020
176,38998.656000,250.069,29.674,-36.856,455.012,216.954,-166.227,-16.040,-75.490,-199.020
177,38998.696000,235.243,-10.562,-14.942,445.482,231.445,-164.945,-453.040,-257.490,-416.020
178,38998.742000,255.012,-0.503,-17.930,439.720,237.968,-174.619,-182.040,-405.490,-605.020
179,38998.772000,219.429,45.768,-57.774,431.169,254.345,-176.234,-140.040,-419.490,-544.020
180,38998.812000,264.896,32.692,-38.848,423.534,266.718,-183.821,-6.040,-380.490,-581.020
181,38998.852000,257.977,71.921,-53.790,411.090,281.957,-191.354,-65.040,-432.490,-714.020
182,38998.898000,264.896,74.939,-59.767,395.711,293.327,-197.018,-196.040,-385.490,-736.020
183,38998.912000,293.560,34.703,-47.813,378.535,318.335,-199.442,-229.040,-305.490,-773.020
184,38998.952000,315.305,48.786,-14.942,366.070,330.726,-204.096,-81.040,-390.490,-780.020
185,38999.1000,311.351,-11.568,-26.895,345.827,339.158,-208.855,30.960,-556.490,-838.020
186,38999.33000,265.884,-23.639,-117.541,329.478,350.497,-215.502,-403.040,-756.490,-720.020
187,38999.93000,230.301,0.503,-159.377,308.360,367.722,-217.126,-326.040,-1033.490,-269.020
188,38999.175000,245.127,-45.768,-73.712,290.810,360.088,-247.733,1568.960,-807.490,-33.020
189,38999.191000,189.776,49.792,-25.899,287.413,319.219,-295.719,3082.960,-82.490,444.980
190,38999.250000,175.938,104.110,-22.911,300.425,270.225,-323.257,2710.960,387.510,712.980
191,38999.266000,163.089,180.558,-44.825,315.800,258.812,-319.555,-210.040,752.510,848.980
192,38999.272000,196.695,69.910,-98.615,338.220,269.449,-286.910,-758.040,1114.510,870.980
193,38999.293000,196.695,138.310,-181.292,367.057,246.819,-269.699,681.960,1317.510,648.980
194,38999.333000,184.834,81.980,-212.171,380.515,234.675,-254.250,350.960,889.510,362.980
195,38999.373000,184.834,59.851,-198.226,388.221,230.026,-248.453,328.960,420.510,434.980
196,38999.413000,201.637,132.275,-189.261,394.931,223.339,-246.626,-429.040,-56.490,437.980
197,38999.452000,232.278,108.134,-86.661,399.698,215.662,-244.825,-549.040,-132.490,281.980
198,38999.491000,273.792,60.857,-88.654,398.754,217.638,-242.822,496.960,126.510,158.980
199,38999.546000,278.734,23.639,-74.708,404.375,200.089,-249.083,944.960,252.510,214.980
200,38999.568000,223.382,7.544,-85.665,406.250,192.492,-242.383,-114.040,314.510,323.980
201,38999.596000,281.699,21.627,-44.825,415.872,185.920,-236.625,572.960,362.510,343.980
202,38999.637000,263.907,44.762,-41.837,423.555,180.170,-236.737,82.960,195.510,283.980
203,38999.671000,264.896,2.515,-37.852,423.460,169.577,-233.049,-124.040,35.510,253.980
204,38999.711000,236.232,-0.503,-63.751,428.331,173.464,-234.914,-86.040,58.510,263.980
205,38999.751000,240.185,-2.515,-64.747,430.188,164.810,-232.160,-192.040,161.510,259.980
206,38999.987000,256.000,3.521,-35.860,432.164,166.986,-222.301,-425.040,145.510,267.980
207,39000.2000,237.220,-11.568,-36.856,440.870,166.187,-218.378,-350.040,22.510,312.980
208,39000.23000,226.347,-29.674,-45.821,440.816,160.383,-217.526,-187.040,-63.490,311.980
209,39000.38000,247.104,-5.532,-48.809,439.745,149.694,-217.766,-244.040,-128.490,306.980
210,39000.38000,247.104,1.509,-39.844,440.753,154.493,-220.599,-361.040,-293.490,329.980
211,39000.38000,246.116,-1.509,-50.802,439.704,147.537,-227.620,-637.040,-541.490,383.980
212,39000.46000,224.371,-4.527,-79.689,433.914,150.263,-233.456,-842.040,-651.490,432.980
213,39000.60000,244.139,21.627,-99.611,431.017,152.932,-243.209,-948.040,-734.490,448.980
214,39000.82000,246.116,8.550,-105.588,429.022,147.929,-249.209,-1426.040,-687.490,590.980
215,39000.125000,256.000,-15.591,-103.595,424.227,152.693,-251.074,-1503.040,-499.490,671.980
216,39000.166000,260.942,-46.774,-92.638,427.159,154.771,-246.119,-1683.040,-309.490,599.980
217,39000.206000,302.456,4.527,-60.763,424.349,164.430,-246.891,-1339.040,-463.490,399.980
218,39000.266000,309.375,27.662,-141.447,423.402,169.016,-258.559,-1470.040,-1337.490,697.980
219,39000.291000,329.143,150.381,-283.891,403.218,186.811,-278.800,-3939.040,-2432.490,1119.980
220,39000.326000,341.992,42.750,-101.603,380.311,221.277,-289.852,-3201.040,-2497.490,616.980
221,39000.346000,235.243,64.880,-14.942,354.402,246.826,-307.972,-1495.040,-1753.490,-414.020
222,39000.386000,191.753,57.839,16.934,336.461,290.487,-300.176,-2221.040,-696.490,-935.020
223,39000.436000,184.834,-37.721,35.860,335.880,325.882,-278.798,-1558.040,442.510,-1021.020
224,39000.466000,173.961,-18.609,4.981,341.827,337.869,-265.770,111.960,1537.510,-1000.020
225,39000.506000,200.649,-8.550,-49.805,368.886,332.567,-254.063,1635.960,2524.510,-1103.020
226,39000.546000,254.023,-19.615,-99.611,399.873,332.264,-237.333,2075.960,2935.510,-1221.020
227,39000.586000,286.641,-7.544,-140.451,431.004,342.145,-198.802,1872.960,3188.510,-1285.020
228,39000.626000,302.456,-42.750,-138.459,449.575,350.307,-144.646,1685.960,3215.510,-1084.020
229,39000.647000,306.409,-28.668,-160.374,458.520,362.365,-85.520,1661.960,3169.510,-841.020
230,39000.693000,253.035,-57.839,-253.012,458.688,371.016,-45.120,1056.960,2708.510,-530.020
231,39000.728000,168.031,33.697,-280.903,453.896,366.999,-5.012,-28.040,1175.510,-70.020
232,39000.768000,319.259,-229.847,-197.230,451.948,368.620,-18.710,993.960,-1184.490,-106.020
233,39000.815000,379.552,-60.857,-54.786,454.782,369.749,-56.924,338.960,-1013.490,361.980
234,39000.843000,265.884,179.552,-85.665,457.628,364.837,-60.950,-625.040,-741.490,223.980
235,39000.887000,295.537,105.116,-54.786,460.365,351.834,-79.866,1230.960,-69.490,127.980
236,39000.928000,278.734,106.122,-89.650,461.276,346.903,-83.896,73.960,115.510,25.980
237,39000.968000,272.803,88.016,-55.782,457.486,353.790,-77.867,-134.040,293.510,-85.020
238,39000.988000,231.290,57.839,-35.860,454.597,353.892,-71.987,-165.040,306.510,-121.020
239,39001.28000,235.243,5.532,-7.969,455.688,364.775,-62.917,-123.040,199.510,-196.020
240,39001.68000,289.606,67.898,41.837,449.918,371.212,-76.515,653.960,-228.490,-492.020
241,39001.108000,366.703,55.827,26.895,431.596,381.281,-95.944,66.960,-907.490,-522.020
242,39001.148000,372.633,-6.538,-35.860,408.419,389.383,-114.445,-764.040,-1487.490,-391.020
243,39001.188000,368.680,-143.340,-178.303,392.949,393.720,-131.053,-645.040,-1574.490,-243.020
244,39001.226000,297.514,-117.187,-25.899,374.477,391.793,-166.438,1469.960,-870.490,342.980
245,39001.270000,233.266,-74.939,-32.872,378.020,364.927,-198.408,1134.960,-103.490,996.980
246,39001.298000,182.857,-39.733,-97.619,392.096,323.904,-216.941,1976.960,540.510,1195.980
247,39001.323000,170.008,-31.686,-186.272,408.032,273.385,-226.855,1480.960,681.510,1301.980
248,39001.367000,186.811,-48.786,-228.109,418.379,243.371,-228.480,1068.960,572.510,1494.980
249,39001.418000,125.529,20.621,-275.922,431.497,200.677,-234.303,1076.960,229.510,1534.980
250,39001.457000,97.853,123.222,-263.969,433.105,168.506,-241.879,748.960,-27.490,1440.980
251,39001.495000,110.703,151.387,-208.187,440.499,135.335,-253.387,534.960,-290.490,1146.980
252,39001.523000,154.193,164.464,-125.510,440.255,111.861,-261.753,530.960,-198.490,707.980
253,39001.563000,213.498,138.310,-68.732,442.032,96.282,-265.038,691.960,215.510,-43.020
254,39001.603000,282.687,77.957,-58.770,445.980,104.108,-263.875,731.960,456.510,-420.020
255,39001.623000,326.178,83.992,-45.821,451.779,102.352,-258.018,573.960,284.510,-492.020
256,39001.670000,339.027,-5.532,-27.891,451.772,102.288,-260.961,602.960,70.510,-417.020
257,39001.707000,365.714,-107.128,-95.626,452.700,98.392,-262.026,757.960,-20.490,-321.020
258,39001.747000,219.429,2.515,-102.599,449.805,100.198,-266.896,196.960,-89.490,-641.020
259,39001.786000,258.965,-35.709,-72.716,447.000,110.784,-269.608,887.960,112.510,-733.020
260,39001.827000,323.212,-11.568,-36.856,446.028,110.731,-271.573,288.960,74.510,-550.020
261,39001.867000,222.394,-1.509,-83.673,441.311,123.284,-272.285,209.960,-53.490,-539.020
262,39001.907000,248.093,24.644,-95.626,440.334,122.304,-272.309,204.960,123.510,-352.020
263,39001.927000,227.336,-30.680,-94.630,441.393,131.116,-269.169,-104.040,284.510,-240.020
264,39001.967000,276.757,-7.544,-57.774,441.423,132.281,-260.317,-24.040,424.510,-339.020
265,39002.7000,239.197,-35.709,-59.767,444.463,145.081,-253.162,68.960,416.510,-308.020
266,39002.47000,243.151,33.697,-38.848,450.289,146.216,-248.221,172.960,436.510,-341.020
267,39002.88000,256.988,34.703,-39.844,453.232,148.402,-238.360,-497.040,249.510,-179.020
268,39002.135000,238.208,-10.562,-47.813,448.466,155.194,-236.258,-168.040,137.510,-222.020
269,39002.170000,243.151,-23.639,-50.802,449.555,166.940,-232.072,-326.040,120.510,-242.020
270,39002.210000,240.185,-2.515,-43.829,446.695,170.839,-230.030,-155.040,83.510,-326.020
271,39002.248000,255.012,24.644,-27.891,441.942,178.645,-225.944,-311.040,-103.490,-342.020
272,39002.270000,253.035,-21.627,-19.922,441.091,191.192,-228.610,-77.040,-136.490,-343.020
273,39002.305000,248.093,42.750,-36.856,434.367,197.749,-236.324,-78.040,-255.490,-440.020
274,39002.347000,249.081,11.568,-32.872,424.809,211.096,-242.912,-142.040,-376.490,-429.020
275,39002.388000,248.093,0.503,-7.969,415.147,215.533,-257.544,428.960,-737.490,-466.020
276,39002.430000,251.058,39.733,-119.533,403.561,220.921,-272.159,82.960,-727.490,-379.020
277,39002.470000,226.347,21.627,-103.595,392.918,222.565,-280.971,28.960,-348.490,-385.020
278,39002.505000,244.139,60.857,-106.584,388.133,229.184,-286.718,366.960,-34.490,-365.020
279,39002.553000,241.174,82.986,-62.755,384.226,226.148,-290.716,129.960,87.510,-152.020
280,39002.588000,236.232,86.004,-79.689,387.191,231.182,-283.733,38.960,217.510,10.980
281,39002.638000,250.069,58.845,-45.821,391.042,228.393,-279.865,-458.040,22.510,212.980
282,39002.667000,234.255,54.821,-40.840,395.931,233.338,-277.783,-462.040,-151.490,295.980
283,39002.688000,220.417,44.762,-69.728,394.063,239.252,-272.752,-917.040,-215.490,374.980
284,39002.728000,246.116,-17.603,-104.591,396.970,239.323,-270.783,-68.040,-157.490,312.980
285,39002.769000,245.127,17.603,-99.611,402.554,217.007,-273.228,253.960,46.510,243.980
286,39002.811000,235.243,8.550,-91.642,403.526,217.059,-271.264,470.960,256.510,222.980
287,39002.845000,247.104,50.798,-48.809,411.204,210.382,-269.435,514.960,307.510,261.980
288,39002.885000,255.012,2.515,-65.743,419.811,199.830,-267.689,283.960,276.510,353.980
289,39002.905000,258.965,4.527,-65.743,421.618,185.416,-262.121,165.960,258.510,206.980
290,39002.945000,256.000,48.786,-62.755,427.399,182.603,-260.210,91.960,263.510,193.980
291,39002.985000,251.058,37.721,-71.720,430.270,177.928,-253.443,14.960,285.510,300.980
292,39003.31000,247.104,38.727,-60.763,437.041,176.224,-245.622,-332.040,316.510,330.980
293,39003.65000,256.988,3.521,-43.829,445.801,179.459,-234.744,-498.040,261.510,317.980
294,39003.111000,235.243,-11.568,-44.825,450.581,171.912,-227.056,-506.040,229.510,359.980
295,39003.148000,241.174,26.656,-37.852,453.492,170.257,-215.319,-439.040,181.510,319.980
296,39003.190000,241.174,34.703,-20.918,459.263,166.474,-213.429,-681.040,-6.490,371.980
297,39003.210000,248.093,19.615,-32.872,457.349,167.533,-208.507,-804.040,-265.490,428.980
298,39003.250000,229.313,-38.727,-67.735,464.144,169.584,-206.485,-993.040,-282.490,482.980
299,39003.290000,249.081,22.633,-62.755,464.133,168.592,-207.488,-800.040,-273.490,452.980
300,39003.330000,236.232,1.509,-44.825,466.955,159.925,-205.713,-1348.040,-457.490,539.980
301,39003.370000,244.139,-37.721,-80.685,465.069,164.783,-204.629,-1338.040,-433.490,555.980
302,39003.425000,264.896,-28.668,-71.720,466.023,163.778,-206.610,-1132.040,-338.490,511.980
303,39003.472000,255.012,-25.650,-41.837,466.999,163.874,-202.684,-1149.040,-302.490,543.980
304,39003.520000,256.988,-39.733,-118.537,471.826,162.065,-198.791,-1034.040,-141.490,503.980
305,39003.550000,277.745,-15.591,-138.459,473.756,160.272,-192.943,-1508.040,-348.490,616.980
306,39003.563000,234.255,124.228,-383.502,470.892,165.896,-200.669,-4575.040,-1729.490,1268.980
307,39003.588000,328.154,130.263,-285.883,438.076,181.282,-236.681,-3699.040,-3070.490,876.980
308,39003.631000,313.328,50.798,-46.817,402.507,213.037,-277.239,-2582.040,-2955.490,-67.020
309,39003.671000,278.734,14.585,61.759,366.100,254.836,-301.885,-1784.040,-2333.490,-735.020
310,39003.711000,217.452,-2.515,114.553,352.761,276.041,-302.423,-1135.040,-523.490,-851.020
311,39003.751000,187.799,-16.597,133.479,351.051,295.785,-286.298,-620.040,809.510,-957.020
312,39003.791000,215.475,9.556,16.934,367.674,308.200,-258.529,326.960,2155.510,-1034.020
313,39003.860000,281.699,-25.650,-83.673,397.776,313.087,-225.995,1378.960,2861.510,-1158.020
314,39003.870000,305.421,-69.910,-240.062,419.168,318.731,-199.347,2683.960,3000.510,-1364.020
315,39003.891000,271.815,-107.128,-313.774,427.852,313.314,-184.739,3246.960,2549.510,-1407.020
316,39003.926000,232.278,-126.240,-342.661,433.722,319.282,-180.672,1730.960,1155.510,-619.020
317,39003.966000,147.274,-146.358,-286.879,439.484,314.528,-178.804,296.960,309.510,42.980
318,39004.18000,139.367,-74.939,-139.455,443.267,305.806,-179.970,269.960,208.510,430.980
319,39004.48000,278.734,57.839,-109.572,456.728,296.337,-175.249,-182.040,358.510,531.980
320,39004.88000,344.958,53.815,-24.903,470.172,283.179,-161.783,521.960,534.510,316.980
321,39004.128000,277.745,46.774,-46.817,476.777,266.676,-165.077,585.960,359.510,363.980
322,39004.271000,251.058,30.680,-89.650,482.555,262.957,-160.244,352.960,258.510,296.980
323,39004.277000,247.104,52.809,-95.626,488.203,245.667,-154.732,-16.040,383.510,197.980
324,39004.352000,229.313,21.627,-73.712,492.164,253.623,-147.683,248.960,538.510,192.980
325,39004.377000,235.243,-68.904,-36.856,499.849,246.125,-139.007,586.960,483.510,275.980
326,39004.396000,248.093,119.198,-67.735,505.515,232.525,-142.239,1195.960,480.510,8.980
327,39004.432000,256.988,20.621,-38.848,509.318,223.998,-134.575,227.960,372.510,238.980
328,39004.438000,231.290,-33.697,-63.751,514.163,223.247,-126.736,573.960,414.510,238.980
329,39004.455000,253.035,68.904,-39.844,516.924,208.712,-127.053,444.960,365.510,43.980
330,39004.471000,273.792,45.768,9.961,517.936,212.669,-124.021,151.960,123.510,84.980
331,39004.491000,255.012,-3.521,-36.856,518.869,209.702,-127.027,295.960,52.510,39.980
332,39004.531000,245.127,-14.585,-41.837,521.744,205.954,-122.201,158.960,57.510,-20.020
333,39004.567000,257.977,20.621,-46.817,521.728,204.919,-125.166,304.960,114.510,8.980
334,39004.615000,256.988,23.639,-48.809,517.830,201.084,-121.336,-44.040,147.510,62.980
335,39004.647000,252.046,-7.544,-17.930,521.748,205.113,-116.335,-17.040,135.510,70.980
336,39004.687000,242.162,-6.538,-22.911,526.576,204.189,-116.346,-33.040,78.510,34.980
337,39004.727000,244.139,3.521,-14.942,526.595,206.131,-116.302,-115.040,-11.490,24.980
338,39004.767000,243.151,8.550,-18.926,520.762,203.162,-116.381,107.960,-104.490,-11.020
339,39004.807000,265.884,0.503,-48.809,523.679,205.089,-118.293,-141.040,-176.490,20.980
340,39004.827000,257.977,3.521,-48.809,519.817,206.885,-123.165,91.960,-16.490,-3.020
341,39004.870000,256.000,4.527,-37.852,520.789,206.937,-121.200,-89.040,32.510,-46.020
342,39004.933000,253.035,14.585,-35.860,518.825,203.121,-117.366,-121.040,39.510,-109.020
343,39004.950000,251.058,-5.532,-33.868,522.756,209.027,-115.266,-235.040,-17.490,-144.020
344,39004.990000,241.174,-8.550,-25.899,517.912,208.915,-118.220,-196.040,-67.490,-221.020
345,39005.37000,251.058,1.509,-25.899,511.272,222.441,-117.934,-130.040,-138.490,-235.020
346,39005.72000,254.023,-2.515,-42.833,509.413,231.959,-125.572,97.960,-138.490,-253.020
347,39005.112000,244.139,9.556,-46.817,507.486,232.889,-126.536,28.960,-102.490,-325.020
348,39005.145000,248.093,34.703,-34.864,500.801,242.467,-129.280,-51.040,-137.490,-327.020
349,39005.170000,250.069,17.603,-47.813,498.933,250.129,-133.036,-72.040,-168.490,-349.020
350,39005.215000,248.093,21.627,-44.825,486.467,261.635,-133.788,-80.040,-172.490,-425.020
351,39005.253000,243.151,-0.503,-34.864,482.623,265.373,-138.616,34.960,-247.490,-534.020
352,39005.290000,241.174,63.874,-67.735,476.022,284.552,-146.050,5.960,-220.490,-525.020
353,39005.335000,246.116,58.845,-59.767,461.584,293.040,-150.795,-53.040,-97.490,-502.020
354,39005.370000,251.058,44.762,-72.716,457.874,309.507,-150.437,-93.040,-71.490,-522.020
355,39005.410000,257.977,55.827,-75.704,456.073,322.218,-145.256,-242.040,173.510,-581.020
356,39005.450000,249.081,69.910,-63.751,443.534,325.094,-141.296,-186.040,321.510,-610.020
357,39005.471000,270.826,71.921,-41.837,435.014,341.772,-129.175,-279.040,337.510,-555.020
358,39005.512000,270.826,31.686,-14.942,428.338,349.668,-120.188,-186.040,291.510,-479.020
359,39005.552000,316.293,0.503,10.957,419.685,354.502,-117.157,-57.040,154.510,-512.020
360,39005.592000,254.023,48.786,-48.809,406.410,379.849,-105.835,-1229.040,-367.490,-196.020
361,39005.630000,256.988,4.527,-146.428,401.681,386.124,-83.151,-2355.040,-840.490,-7.020
362,39005.671000,262.919,-96.063,-116.545,392.043,391.660,-91.874,7.960,-1273.490,-243.020
363,39005.711000,211.521,-56.833,-58.770,379.271,384.375,-152.864,2581.960,-929.490,-132.020
364,39005.751000,184.834,75.945,-34.864,371.052,347.127,-210.586,2587.960,-388.490,552.980
365,39005.776000,288.618,25.650,-57.774,375.546,318.350,-241.616,1274.960,-282.490,1051.980
366,39005.810000,231.290,102.098,-62.755,383.946,290.841,-260.841,451.960,-115.490,948.980
367,39005.851000,190.764,116.181,-115.549,390.545,271.641,-254.389,-481.040,-22.490,1097.980
368,39005.891000,208.556,143.340,-156.389,393.185,246.254,-262.792,114.960,-37.490,774.980
369,39005.932000,169.019,143.340,-90.646,392.166,242.232,-268.768,709.960,-243.490,245.980
370,39005.973000,162.100,142.334,-57.774,390.042,225.428,-281.894,1133.960,-6.490,48.980
371,39006.13000,171.985,272.094,-109.572,393.860,221.453,-287.858,360.960,339.510,-167.020
372,39006.52000,240.185,58.845,-102.599,392.965,228.304,-284.766,-5.040,118.510,-256.020
373,39006.92000,291.583,122.216,-93.634,393.826,216.728,-282.079,341.960,211.510,-152.020
374,39006.113000,261.931,-6.538,-64.747,392.951,225.521,-278.944,-438.040,70.510,29.980
375,39006.158000,251.058,6.538,-68.732,392.929,222.673,-276.065,-237.040,-38.490,43.980
376,39006.191000,232.278,0.503,-86.661,393.965,229.500,-274.930,-147.040,-67.490,32.980
377,39006.232000,232.278,42.750,-93.634,392.054,232.351,-276.833,-79.040,-35.490,-32.020
378,39006.272000,231.290,32.692,-97.619,393.000,230.397,-277.855,-73.040,8.510,4.980
379,39006.321000,237.220,23.639,-90.646,393.044,234.345,-274.825,-127.040,10.510,57.980
380,39006.351000,217.452,22.633,-105.588,394.031,236.296,-274.779,-72.040,15.510,48.980
381,39006.401000,208.556,5.532,-95.626,400.793,235.391,-274.785,-63.040,85.510,80.980
382,39006.421000,249.081,9.556,-95.626,401.711,229.640,-271.969,167.960,179.510,47.980
383,39006.448000,237.220,25.650,-85.665,403.627,226.833,-268.105,73.960,248.510,57.980
384,39006.492000,223.382,42.750,-91.642,404.511,218.126,-267.315,87.960,222.510,71.980
385,39006.532000,232.278,33.697,-76.700,406.427,215.318,-263.451,90.960,201.510,96.980
386,39006.572000,252.046,17.603,-64.747,410.250,210.502,-263.550,14.960,145.510,137.980
387,39006.633000,247.104,18.609,-70.724,415.133,213.634,-255.625,-106.040,102.510,179.980
388,39006.648000,225.359,40.739,-75.704,419.904,206.885,-255.765,55.960,38.510,114.980
389,39006.691000,222.394,-2.515,-71.720,423.795,208.886,-254.731,-34.040,116.510,121.980
390,39006.731000,232.278,-27.662,-114.553,426.629,201.212,-251.954,578.960,390.510,145.980
391,39006.750000,262.919,0.503,-84.669,430.416,191.649,-247.255,200.960,492.510,198.980
392,39006.796000,271.815,47.780,-28.887,440.986,183.144,-241.537,552.960,485.510,241.980
393,39006.828000,256.988,6.538,-53.790,448.626,171.699,-235.891,170.960,299.510,361.980
394,39006.868000,254.023,-23.639,-48.809,449.529,164.049,-231.156,-160.040,186.510,262.980
395,39006.908000,245.127,15.591,-61.759,453.436,166.201,-223.254,-361.040,249.510,232.980
396,39006.951000,244.139,-1.509,-60.763,462.114,161.604,-215.493,-296.040,286.510,276.980
397,39007.0,249.081,8.550,-51.798,466.995,163.830,-204.646,-429.040,238.510,240.980
398,39007.28000,238.208,3.521,-43.829,470.894,165.918,-199.688,-684.040,83.510,217.980
399,39007.51000,252.046,-2.515,0.996,471.835,162.152,-194.866,-805.040,-163.490,264.980
400,39007.96000,244.139,-32.692,-49.805,470.877,163.113,-194.847,-751.040,-216.490,268.980
401,39007.135000,244.139,11.568,-48.809,473.820,167.046,-193.773,-933.040,-268.490,256.980
402,39007.175000,245.127,-2.515,-57.774,468.050,170.852,-194.681,-1148.040,-321.490,307.980
403,39007.240000,241.174,-9.556,-44.825,472.885,170.877,-195.651,-1048.040,-368.490,352.980
404,39007.256000,236.232,-11.568,-46.817,469.971,169.857,-196.661,-1109.040,-551.490,318.980
405,39007.295000,232.278,-31.686,-82.677,470.909,167.816,-201.607,-1108.040,-599.490,369.980
406,39007.342000,253.035,-19.615,-76.700,469.033,174.529,-204.404,-847.040,-552.490,407.980
407,39007.416000,242.162,-15.591,-49.805,471.894,172.400,-214.252,-695.040,-682.490,420.980
408,39007.423000,249.081,-19.615,-144.436,469.840,161.550,-221.362,-666.040,-363.490,420.980
409,39007.470000,281.699,4.527,-106.584,468.905,163.612,-215.434,-870.040,-196.490,408.980
410,39007.501000,259.954,42.750,-167.346,466.965,163.550,-217.401,-2868.040,-1069.490,932.980
411,39007.533000,293.560,45.768,-299.829,452.613,182.546,-229.758,-4980.040,-2334.490,1483.980
412,39007.553000,275.768,108.134,-158.381,429.735,219.924,-240.744,-4022.040,-2313.490,348.980
413,39007.595000,257.977,-21.627,21.914,404.775,244.425,-262.808,-1419.040,-1724.490,-413.020
414,39007.635000,223.382,56.833,-23.907,387.475,257.675,-270.396,-603.040,-656.490,-817.020
415,39007.675000,216.463,-52.809,13.946,383.819,279.061,-266.987,-797.040,223.510,-834.020
416,39007.702000,225.359,-50.798,-46.817,387.862,293.964,-252.919,257.960,1006.510,-780.020
417,39007.730000,219.429,-14.585,-67.735,402.401,294.364,-241.111,1304.960,1711.510,-907.020
418,39007.772000,245.127,0.503,-74.708,422.704,290.031,-226.455,1719.960,1961.510,-927.020
419,39007.837000,253.035,38.727,-109.572,444.029,288.879,-199.957,1481.960,2056.510,-831.020
420,39007.853000,257.977,44.762,-140.451,456.769,298.495,-165.394,1085.960,1977.510,-775.020
421,39007.893000,243.151,35.709,-161.370,468.528,307.087,-132.817,1058.960,1790.510,-737.020
422,39007.933000,226.347,12.574,-166.350,472.471,310.468,-113.120,1084.960,1593.510,-760.020
423,39007.973000,214.486,-21.627,-207.191,467.822,324.553,-88.301,1392.960,1161.510,-766.020
424,39008.13000,210.533,-8.550,-177.307,462.121,335.175,-88.077,1643.960,751.510,-697.020
425,39008.33000,199.660,-0.503,-135.471,458.248,335.979,-93.951,1165.960,370.510,-401.020
426,39008.75000,211.521,-69.910,-234.086,452.485,344.251,-112.412,1212.960,-103.490,-142.020
427,39008.115000,241.174,-104.110,-82.677,460.075,331.446,-124.448,507.960,-118.490,287.980
428,39008.155000,258.965,63.874,-62.755,467.739,323.754,-124.603,-433.040,-212.490,523.980
429,39008.195000,252.046,107.128,-65.743,476.366,316.029,-126.718,-168.040,-193.490,295.980
430,39008.235000,248.093,57.839,-76.700,475.233,301.220,-137.836,779.960,-42.490,327.980
431,39008.275000,268.849,24.644,-78.693,479.992,293.478,-138.978,178.960,-42.490,415.980
432,39008.315000,222.394,10.562,-106.584,486.659,284.612,-147.987,824.960,111.510,184.980
433,39008.335000,260.942,97.069,-74.708,487.598,281.709,-148.050,132.960,113.510,192.980
434,39008.375000,267.861,6.538,-64.747,494.229,267.212,-148.357,436.960,124.510,225.980
435,39008.415000,211.521,-48.786,-83.673,495.210,268.236,-146.371,170.960,169.510,195.980
436,39008.455000,250.069,56.833,-81.681,497.063,259.538,-145.580,496.960,336.510,-6.020
437,39008.495000,250.069,49.792,-68.732,501.923,260.686,-139.660,301.960,319.510,26.980
438,39008.535000,241.174,11.568,-59.767,500.955,260.676,-139.662,568.960,302.510,51.980
439,39008.575000,256.988,32.692,-57.774,508.631,253.977,-138.814,328.960,245.510,-1.020
440,39008.615000,246.116,39.733,-60.763,505.707,251.101,-135.942,183.960,227.510,-24.020
441,39008.655000,249.081,25.650,-64.747,509.609,253.210,-130.003,137.960,258.510,-26.020
442,39008.675000,254.023,18.609,-55.782,511.525,250.402,-126.139,97.960,285.510,-56.020
443,39008.716000,241.174,18.609,-53.790,511.638,261.168,-121.977,93.960,295.510,-111.020
444,39008.756000,243.151,22.633,-59.767,510.698,263.187,-118.012,75.960,353.510,-117.020
445,39008.796000,243.151,16.597,-41.837,510.669,257.620,-106.367,61.960,413.510,-153.020
446,39008.836000,259.954,28.668,-26.895,513.634,262.654,-99.385,108.960,364.510,-189.020
447,39008.876000,243.151,37.721,-35.860,510.827,270.587,-90.389,74.960,316.510,-218.020
448,39008.916000,244.139,21.627,-38.848,507.929,270.602,-88.433,-42.040,316.510,-250.020
449,39008.975000,256.000,31.686,-11.953,508.044,280.504,-79.387,10.960,267.510,-314.020
450,39008.983000,251.058,37.721,-31.875,504.247,287.328,-76.302,20.960,257.510,-356.020
451,39009.13000,259.954,44.762,-38.848,500.480,296.200,-68.267,-136.040,410.510,-375.020
452,39009.53000,256.000,58.845,-40.840,497.739,310.044,-55.217,-196.040,624.510,-359.020
453,39009.93000,249.081,65.886,-25.899,492.047,317.237,-34.476,-218.040,694.510,-325.020
454,39009.133000,254.023,77.957,-27.891,492.147,324.356,-19.607,-153.040,647.510,-298.020
455,39009.173000,278.734,24.644,-15.938,490.242,325.503,-10.760,-129.040,485.510,-315.020
456,39009.213000,276.757,3.521,16.934,487.400,330.458,-4.772,67.960,378.510,-275.020
457,39009.253000,271.815,-0.503,29.883,483.629,340.172,-2.603,0.960,288.510,-119.020
458,39009.272000,226.347,-20.621,-88.654,485.423,327.397,-10.728,106.960,-390.490,151.980
459,39009.313000,212.510,20.621,-102.599,493.066,322.144,-32.403,-257.040,-880.490,316.980
460,39009.353000,237.220,1.509,-65.743,496.744,309.776,-66.993,-267.040,-1222.490,295.980
461,39009.393000,241.174,31.686,-72.716,492.702,300.159,-105.461,-32.040,-1322.490,409.980
462,39009.433000,262.919,45.768,-57.774,491.481,280.107,-134.348,-433.040,-1411.490,580.980
463,39009.472000,249.081,51.804,-40.840,490.317,267.649,-170.911,-342.040,-1330.490,606.980
464,39009.513000,251.058,59.851,-33.868,478.481,252.154,-208.545,353.960,-1046.490,401.980
465,39009.553000,257.977,79.969,-14.942,464.676,231.914,-240.405,592.960,-851.490,308.980
466,39009.593000,250.069,74.939,5.977,451.965,221.695,-258.310,372.960,-621.490,352.980
467,39009.613000,249.081,60.857,-2.988,448.988,215.668,-266.296,-137.040,-250.490,422.980
468,39009.652000,266.873,71.921,4.981,446.019,208.844,-266.453,-593.040,-65.490,459.980
469,39009.692000,262.919,66.892,-2.988,449.928,211.018,-257.571,-816.040,101.510,354.980
470,39009.738000,255.012,43.756,5.977,455.711,206.457,-246.873,-583.040,323.510,276.980
471,39009.772000,256.988,8.550,-61.759,459.532,198.987,-235.262,251.960,441.510,281.980
472,39009.815000,256.000,74.939,-86.661,465.374,202.042,-231.260,58.960,251.510,35.980
473,39009.853000,234.255,-7.544,-76.700,467.322,202.191,-225.368,-150.040,219.510,123.980
474,39009.896000,252.046,-10.562,-63.751,475.009,195.599,-219.614,132.960,255.510,67.980
475,39009.916000,255.012,20.621,-52.794,476.974,197.668,-214.661,-125.040,193.510,137.980
476,39009.956000,246.116,3.521,-56.778,474.987,191.867,-212.833,-46.040,149.510,108.980
477,39009.996000,240.185,6.538,-60.763,477.943,196.814,-209.775,-10.040,125.510,95.980
478,39010.36000,250.069,-0.503,-52.794,481.782,193.033,-206.908,64.960,122.510,73.980
479,39010.76000,254.023,24.644,-55.782,482.733,191.122,-205.968,152.960,97.510,64.980
480,39010.116000,250.069,16.597,-65.743,482.624,179.515,-204.265,206.960,152.510,72.980
481,39010.156000,249.081,-5.532,-58.770,484.637,186.438,-199.204,-14.040,170.510,86.980
482,39010.192000,250.069,-0.503,-54.786,488.466,181.686,-196.359,83.960,236.510,0.980
483,39010.232000,245.127,-11.568,-40.840,491.417,185.706,-191.360,-25.040,226.510,-16.020
484,39010.265000,245.127,-13.580,-44.825,490.440,183.841,-187.481,174.960,177.510,-74.020
485,39010.295000,256.000,6.538,-39.844,493.387,187.817,-184.445,-12.040,118.510,-84.020
486,39010.336000,249.081,-0.503,-38.848,491.461,187.885,-180.525,25.960,57.510,-91.020
487,39010.375000,245.127,-0.503,-43.829,492.450,190.742,-183.401,60.960,24.510,-106.020
488,39010.415000,254.023,19.615,-50.802,487.627,192.593,-185.331,35.960,19.510,-126.020
489,39010.456000,242.162,15.591,-50.802,488.578,190.683,-184.391,-91.040,33.510,-99.020
490,39010.497000,254.023,-4.527,-32.872,485.722,194.624,-180.387,-36.040,43.510,-128.020
491,39010.536000,248.093,-4.527,-35.860,484.764,195.586,-180.368,43.960,20.510,-161.020
492,39010.556000,254.023,28.668,-39.844,480.958,202.322,-181.207,45.960,-30.490,-194.020
493,39010.597000,240.185,2.515,-36.856,482.055,215.902,-181.884,-34.040,-109.490,-198.020
494,39010.637000,249.081,2.515,-48.809,477.204,214.841,-183.879,16.960,-103.490,-218.020
495,39010.677000,249.081,38.727,-50.802,471.442,219.596,-185.747,25.960,-56.490,-248.020
496,39010.717000,245.127,26.656,-38.848,470.512,223.470,-185.663,-73.040,-95.490,-253.020
497,39010.757000,243.151,9.556,-48.809,465.739,231.082,-190.407,-76.040,-114.490,-243.020
498,39010.797000,246.116,18.609,-55.782,462.925,240.697,-193.142,106.960,-63.490,-254.020
499,39010.838000,251.058,40.739,-42.833,457.177,246.466,-193.026,-57.040,-125.490,-343.020
500,39010.872000,255.012,29.674,-36.856,452.333,247.239,-199.883,6.960,-209.490,-381.020
501,39010.892000,248.093,38.727,-48.809,445.644,255.889,-200.686,-15.040,-290.490,-456.020
502,39010.932000,248.093,40.739,-47.813,431.210,265.305,-207.372,-121.040,-354.490,-547.020
503,39010.973000,256.000,46.774,-56.778,417.781,279.477,-218.854,-118.040,-394.490,-623.020
504,39011.13000,259.954,63.874,-70.724,406.365,299.709,-220.390,-223.040,-374.490,-667.020
505,39011.53000,296.525,83.992,-60.763,396.801,311.244,-221.135,-357.040,-259.490,-595.020
506,39011.93000,333.097,35.709,-32.872,383.370,322.762,-220.908,-91.040,-315.490,-536.020
507,39011.133000,258.965,16.597,-40.840,368.059,340.065,-221.536,-382.040,-559.490,-445.020
508,39011.173000,239.197,-28.668,-118.537,356.556,351.538,-224.248,-777.040,-909.490,-362.020
509,39011.193000,236.232,-20.621,-102.599,340.263,367.818,-226.863,-530.040,-1019.490,-201.020
510,39011.240000,196.695,-15.591,-22.911,325.692,365.346,-244.601,1053.960,-612.490,117.980
511,39011.277000,214.486,28.668,-15.938,321.483,335.643,-269.785,1751.960,-67.490,359.980
512,39011.322000,221.405,44.762,-20.918,337.566,302.384,-289.122,1940.960,609.510,824.980
513,39011.357000,180.880,185.587,-36.856,360.614,283.366,-281.650,467.960,945.510,849.980
514,39011.397000,231.290,137.305,-59.767,389.713,282.613,-240.418,-1401.040,1126.510,1025.980
515,39011.438000,257.977,156.417,-122.521,409.059,277.494,-216.955,-385.040,1392.510,715.980
516,39011.478000,214.486,117.187,-193.245,422.605,271.477,-187.640,-103.040,1090.510,194.980
517,39011.537000,190.764,104.110,-194.241,429.322,264.855,-182.870,909.960,445.510,105.980
518,39011.545000,196.695,118.193,-169.339,431.223,262.781,-189.776,1076.960,25.510,10.980
519,39011.576000,229.313,149.375,-99.611,429.211,257.627,-202.644,291.960,-253.490,-167.020
520,39011.617000,223.382,10.562,-70.724,432.036,249.867,-203.791,98.960,-20.490,73.980
521,39011.658000,239.197,36.715,-65.743,430.102,250.733,-207.698,-91.040,34.510,287.980
522,39011.700000,228.324,51.804,-75.704,432.941,242.239,-198.074,-517.040,84.510,328.980
523,39011.733000,279.722,11.568,-23.907,435.867,244.252,-196.062,366.960,73.510,155.980
524,39011.773000,275.768,10.562,-39.844,446.305,224.788,-203.336,694.960,117.510,276.980
525,39011.813000,245.127,0.503,-57.774,450.137,220.942,-203.414,230.960,96.510,283.980
526,39011.833000,263.907,26.656,-50.802,449.979,204.459,-202.799,364.960,119.510,248.980
527,39011.877000,254.023,6.538,-35.860,451.949,208.339,-203.690,110.960,16.510,217.980
528,39011.917000,237.220,-16.597,-74.708,455.713,197.676,-204.899,222.960,50.510,209.980
529,39011.957000,257.977,34.703,-59.767,455.713,197.676,-204.899,165.960,178.510,156.980
530,39012.43000,256.000,44.762,-34.864,460.469,188.144,-199.217,-13.040,121.510,213.980
531,39012.60000,253.035,19.615,-34.864,465.285,185.343,-196.327,-340.040,13.510,271.980
532,39012.76000,239.197,-29.674,-62.755,463.347,183.534,-189.506,-155.040,106.510,242.980
533,39012.116000,247.104,30.680,-41.837,472.047,182.669,-188.526,-193.040,105.510,266.980
534,39012.153000,254.023,50.798,-43.829,474.907,178.771,-190.568,-567.040,-144.490,343.980
535,39012.173000,235.243,-55.827,-42.833,474.902,177.843,-188.628,-1018.040,-379.490,385.980
536,39012.225000,238.208,-31.686,-54.786,476.788,173.871,-193.615,-558.040,-293.490,289.980
537,39012.255000,246.116,53.815,-52.794,477.715,169.975,-194.680,-648.040,-394.490,300.980
538,39012.295000,241.174,52.809,-44.825,473.839,169.873,-197.633,-1264.040,-637.490,488.980
539,39012.335000,236.232,-12.574,-66.739,475.817,176.472,-207.289,-1442.040,-767.490,548.980
540,39012.375000,228.324,-43.756,-102.599,473.859,174.468,-209.299,-1365.040,-669.490,578.980
541,39012.418000,258.965,-33.697,-96.623,468.980,170.494,-211.358,-974.040,-403.490,520.980
542,39012.458000,238.208,-11.568,-86.661,474.763,168.588,-212.369,-1011.040,-399.490,545.980
543,39012.482000,291.583,-26.656,-97.619,472.722,157.868,-213.592,-1140.040,-584.490,692.980
544,39012.517000,293.560,-0.503,-246.039,473.677,158.632,-223.380,-2199.040,-1004.490,1048.980
545,39012.567000,291.583,19.615,-262.973,459.277,172.773,-235.845,-4354.040,-2251.490,1520.980
546,39012.597000,360.772,80.974,-213.167,432.418,201.118,-258.808,-4057.040,-2682.490,918.980
547,39012.668000,304.432,68.904,-26.895,398.803,231.316,-282.725,-2032.040,-2316.490,-246.020
548,39012.683000,211.521,54.821,-23.907,380.531,245.398,-296.180,-912.040,-1407.490,-810.020
549,39012.720000,170.996,-16.597,53.790,361.452,274.206,-301.465,-125.040,9.510,-1320.020
550,39012.755000,160.124,-30.680,49.805,362.580,290.720,-301.096,723.960,1061.510,-1424.020
551,39012.795000,197.683,-5.532,-14.942,374.253,294.091,-285.306,1076.960,1934.510,-1344.020
552,39012.822000,214.486,-11.568,-49.805,406.246,295.049,-255.798,1357.960,2828.510,-1323.020
553,39012.858000,273.792,-32.692,-98.615,436.409,304.921,-217.269,1873.960,3159.510,-1349.020
554,39012.898000,316.293,-17.603,-155.393,454.844,303.848,-185.873,2433.960,3256.510,-1311.020
555,39012.940000,310.363,13.580,-167.346,469.582,317.603,-140.426,2510.960,3025.510,-1238.020
556,39012.980000,319.259,-14.585,-156.389,471.754,331.343,-90.103,1561.960,2620.510,-977.020
557,39013.15000,244.139,-47.780,-192.249,467.105,341.026,-44.787,1183.960,2262.510,-662.020
558,39013.55000,210.533,-16.597,-254.008,453.702,350.171,-20.096,752.960,1189.510,-368.020
559,39013.97000,179.892,-31.686,-255.004,454.721,355.078,-18.024,477.960,211.510,22.980
560,39013.117000,267.861,-118.193,65.743,463.264,341.269,-32.042,564.960,-185.490,377.980
561,39013.157000,287.629,8.550,-32.872,468.118,343.236,-32.968,-479.040,-262.490,375.980
562,39013.197000,349.900,164.464,-8.965,470.927,336.209,-44.886,1036.960,-63.490,187.980
563,39013.241000,257.977,33.697,-43.829,474.692,326.431,-49.999,-83.040,-158.490,369.980
564,39013.275000,237.220,-6.538,-71.720,476.561,319.653,-50.145,51.960,60.510,216.980
565,39013.315000,236.232,67.898,-57.774,479.472,319.768,-46.214,20.960,305.510,88.980
566,39013.358000,240.185,77.957,-22.911,485.252,315.186,-36.497,-53.040,275.510,137.980
567,39013.401000,236.232,30.680,-12.949,483.286,310.464,-29.741,-37.040,136.510,102.980
568,39013.435000,247.104,27.662,-15.938,485.190,307.548,-30.782,-13.040,39.510,-0.020
569,39013.455000,255.012,56.833,-16.934,482.415,321.069,-32.449,-155.040,-135.490,-121.020
570,39013.495000,259.954,20.621,-4.981,480.452,319.022,-36.422,-41.040,-217.490,-210.020
571,39013.536000,270.826,20.621,21.914,471.850,331.386,-44.011,13.960,-466.490,-385.020
572,39013.576000,288.618,32.692,22.911,462.182,335.758,-61.586,79.960,-833.490,-493.020
573,39013.616000,364.726,-13.580,32.872,442.896,349.377,-95.647,301.960,-1320.490,-507.020
574,39013.656000,496.185,-42.750,17.930,424.392,345.380,-136.963,2176.960,-1394.490,-989.020
575,39013.696000,281.699,-55.827,-117.541,384.904,372.221,-178.619,-72.040,-969.490,-903.020
576,39013.735000,158.147,-109.139,-179.300,355.988,385.293,-189.177,-370.040,-746.490,-447.020
577,39013.756000,200.649,-128.251,-93.634,348.034,369.079,-217.012,1299.960,-217.490,-2.020
578,39013.796000,148.263,-16.597,-72.716,351.348,320.639,-259.268,2742.960,403.510,907.980
579,39013.840000,158.147,18.609,-72.716,378.048,282.845,-268.877,1729.960,866.510,1317.980
580,39013.880000,162.100,82.986,-130.490,401.017,253.384,-250.850,-36.040,1223.510,1252.980
581,39013.920000,134.425,-31.686,-219.144,412.540,241.221,-235.405,35.960,1071.510,1064.980
582,39013.961000,150.239,47.780,-213.167,427.679,205.536,-232.242,2059.960,901.510,772.980
583,39014.1000,139.367,140.322,-143.440,437.016,169.817,-228.112,1119.960,710.510,393.980
584,39014.41000,172.973,1.509,-150.412,442.803,166.184,-219.355,1394.960,737.510,-14.020
585,39014.97000,200.649,21.627,-127.502,455.160,142.186,-212.997,2096.960,804.510,125.980
586,39014.107000,282.687,99.081,-113.556,463.764,128.959,-200.523,-212.040,602.510,423.980
587,39014.136000,280.710,63.874,-64.747,472.364,115.689,-190.013,-1350.040,239.510,654.980
588,39014.176000,238.208,146.358,1.992,475.350,122.686,-182.006,-1701.040,172.510,319.980
589,39014.218000,384.494,-80.974,-3.984,475.420,129.525,-179.892,1052.960,-111.490,-476.020
590,39014.257000,316.293,124.228,2.988,472.484,129.173,-194.616,2358.960,-66.490,-648.020
591,39014.298000,264.896,-58.845,-80.685,464.801,137.555,-207.195,406.960,-443.490,-507.020
592,39014.338000,275.768,26.656,-80.685,458.898,129.516,-217.193,1342.960,-201.490,-597.020
593,39014.378000,249.081,-22.633,-37.852,454.064,131.260,-224.029,621.960,-129.490,-244.020
594,39014.405000,253.035,-1.509,-73.712,451.167,133.044,-229.879,924.960,116.510,-339.020
595,39014.438000,259.954,32.692,-41.837,454.100,136.006,-228.827,254.960,51.510,-336.020
596,39014.480000,245.127,-13.580,-46.817,450.294,142.743,-229.666,60.960,38.510,-278.020
597,39014.520000,245.127,0.503,-33.868,452.271,146.688,-227.613,-28.040,188.510,-265.020
598,39014.560000,256.988,42.750,-29.883,450.322,144.771,-225.698,-160.040,96.510,-235.020
599,39014.600000,249.081,-1.509,-34.864,448.565,162.314,-221.390,-244.040,6.510,-211.020
600,39014.641000,252.046,-2.515,-32.872,446.692,169.048,-223.205,-291.040,-5.490,-273.020
601,39014.681000,249.081,30.680,-30.879,443.881,177.822,-220.075,-439.040,-79.490,-297.020
602,39014.720000,255.012,5.532,-31.875,439.117,184.636,-216.991,-361.040,-88.490,-300.020
603,39014.740000,240.185,5.532,-37.852,438.289,199.168,-217.651,-378.040,-138.490,-376.020
604,39014.778000,244.139,34.703,-21.914,433.451,199.121,-217.663,-445.040,-209.490,-466.020
605,39014.823000,245.127,72.927,-6.973,421.081,222.105,-226.004,-401.040,-517.490,-513.020
606,39014.857000,272.803,59.851,-45.821,402.804,235.259,-237.519,-606.040,-880.490,-440.020
607,39014.900000,239.197,49.792,-90.646,393.265,250.547,-244.064,-838.040,-721.490,-278.020
608,39014.940000,241.174,6.538,-95.626,388.527,261.137,-245.801,-101.040,-311.490,-232.020
609,39014.980000,217.452,52.809,-106.584,385.630,262.036,-247.748,-251.040,-114.490,-67.020
610,39015.20000,212.510,49.792,-115.549,383.772,268.921,-242.696,-549.040,-114.490,205.980
611,39015.40000,207.568,68.904,-58.770,385.688,266.114,-238.831,-426.040,-70.490,226.980
612,39015.80000,236.232,61.862,-32.872,389.559,265.288,-233.938,-340.040,-10.490,136.980
613,39015.120000,279.722,27.662,7.969,392.454,264.367,-232.972,-196.040,-6.490,203.980
614,39015.160000,234.255,78.963,-81.681,397.279,262.537,-230.060,-172.040,-22.490,270.980
615,39015.200000,188.788,59.851,-96.623,400.123,256.719,-231.164,105.960,85.510,228.980
616,39015.241000,245.127,30.680,-78.693,403.992,255.872,-227.252,0.960,176.510,280.980
617,39015.277000,291.583,0.503,-32.872,410.693,248.214,-225.447,259.960,189.510,293.980
618,39015.317000,231.290,50.798,-71.720,417.321,232.811,-222.833,437.960,280.510,305.980
619,39015.357000,265.884,11.568,-44.825,425.922,221.310,-220.128,208.960,292.510,374.980
620,39015.388000,241.174,12.574,-62.755,432.637,215.551,-220.242,497.960,325.510,231.980
621,39015.417000,256.000,46.774,-42.833,432.642,214.710,-214.376,-7.040,201.510,202.980
622,39015.457000,246.116,67.898,-63.751,437.469,212.901,-210.484,101.960,250.510,252.980
623,39015.500000,252.046,23.639,-42.833,442.253,205.397,-200.833,-397.040,186.510,326.980
624,39015.540000,242.162,1.509,-36.856,445.117,200.657,-197.010,-586.040,130.510,332.980
625,39015.580000,250.069,29.674,-31.875,448.033,199.931,-187.213,-490.040,84.510,313.980
626,39015.620000,242.162,34.703,-24.903,455.786,200.135,-181.308,-720.040,-79.490,371.980
627,39015.665000,244.139,5.532,-37.852,456.675,191.472,-178.557,-718.040,-213.490,365.980
628,39015.683000,237.220,-14.585,-46.817,455.705,191.441,-179.540,-747.040,-299.490,398.980
629,39015.723000,245.127,3.521,-43.829,456.729,197.275,-179.409,-861.040,-340.490,369.980
630,39015.782000,253.035,-9.556,-52.794,461.416,181.789,-179.742,-754.040,-417.490,415.980
631,39015.807000,242.162,-33.697,-44.825,452.737,184.616,-179.698,-815.040,-436.490,398.980
632,39015.842000,251.058,-44.762,-46.817,461.470,188.477,-184.497,-551.040,-515.490,377.980
633,39015.877000,231.290,-29.674,-71.720,461.339,176.654,-192.605,-558.040,-502.490,446.980
634,39015.923000,250.069,-25.650,-89.650,459.428,179.505,-194.507,-264.040,-381.490,382.980
635,39015.985000,263.907,-1.509,-102.599,458.358,169.700,-198.650,-472.040,-292.490,359.980
636,39016.31000,261.931,31.686,-107.580,460.323,171.769,-193.696,-886.040,-61.490,485.980
637,39016.41000,241.174,2.515,-105.588,464.128,164.147,-188.954,-1800.040,-297.490,817.980
638,39016.82000,238.208,65.886,-273.930,468.094,172.146,-179.942,-3971.040,-896.490,1275.980
639,39016.97000,273.792,111.151,-307.798,460.366,178.349,-203.357,-3707.040,-2179.490,1045.980
640,39016.141000,316.293,166.475,-247.035,427.563,196.497,-246.172,-2168.040,-2554.490,129.980
641,39016.181000,325.189,56.833,-87.658,404.545,221.966,-269.191,-1920.040,-2409.490,-728.020
642,39016.221000,253.035,0.503,31.875,370.979,257.925,-295.922,-972.040,-1674.490,-1065.020
643,39016.260000,180.880,47.780,113.556,351.115,302.559,-287.128,-2009.040,-199.490,-1117.020
644,39016.301000,169.019,-178.546,74.708,355.304,328.551,-254.181,-1274.040,1135.510,-841.020
645,39016.321000,194.718,-6.538,-69.728,381.359,317.609,-233.775,2436.960,2798.510,-689.020
646,39016.361000,252.046,45.768,-118.537,409.573,324.678,-189.429,1011.960,2976.510,-783.020
647,39016.401000,306.409,-82.986,-242.054,420.284,324.566,-155.085,1303.960,2628.510,-715.020
648,39016.441000,225.359,-1.509,-270.942,426.202,332.756,-138.220,2670.960,1987.510,-907.020
649,39016.481000,206.579,-86.004,-225.121,422.295,329.719,-142.218,2761.960,1392.510,-609.020
650,39016.521000,198.672,12.574,-374.537,422.163,320.528,-163.016,2032.960,286.510,-179.020
651,39016.561000,175.938,-107.128,-127.502,428.853,312.763,-166.117,296.960,27.510,384.980
652,39016.602000,219.429,156.417,-108.576,443.283,302.440,-156.509,-627.040,250.510,570.980
653,39016.640000,269.838,97.069,-60.763,451.005,297.942,-143.844,52.960,406.510,299.980
654,39016.657000,327.166,35.709,-39.844,453.783,286.212,-149.002,627.960,285.510,301.980
655,39016.701000,225.359,-2.515,-108.576,460.477,277.605,-146.237,140.960,220.510,192.980
656,39016.741000,239.197,48.786,-97.619,465.278,272.906,-141.427,290.960,498.510,73.980
657,39016.781000,238.208,26.656,-64.747,469.152,271.217,-131.650,212.960,585.510,98.980
658,39016.821000,218.440,38.727,-69.728,474.972,271.425,-124.769,699.960,629.510,67.980
659,39016.861000,256.000,72.927,-49.805,480.688,259.184,-110.318,290.960,560.510,53.980
660,39016.901000,246.116,21.627,-50.802,483.642,264.109,-108.241,295.960,527.510,97.980
661,39016.941000,242.162,13.580,-45.821,485.521,256.555,-99.579,205.960,500.510,57.980
662,39016.961000,253.035,19.615,-29.883,486.507,256.737,-91.728,157.960,430.510,33.980
663,39017.1000,247.104,12.574,-34.864,492.342,258.844,-86.765,249.960,362.510,-10.020
664,39017.42000,255.012,13.580,-37.852,491.378,257.108,-76.999,22.960,382.510,-27.020
665,39017.82000,243.151,5.532,-7.969,493.350,260.126,-73.006,72.960,312.510,-126.020
666,39017.125000,252.046,10.562,-24.903,492.393,259.340,-64.199,-7.040,282.510,-156.020
667,39017.158000,256.988,29.674,-27.891,488.554,261.352,-59.259,-54.040,350.510,-225.020
668,39017.198000,260.942,21.627,-21.914,486.748,273.134,-52.137,-12.040,443.510,-249.020
669,39017.241000,259.954,46.774,-23.907,491.692,282.135,-42.120,-3.040,410.510,-254.020
670,39017.286000,269.838,53.815,-27.891,485.882,279.381,-32.387,-32.040,298.510,-248.020
671,39017.301000,244.139,-24.644,-168.342,483.987,283.267,-31.324,-5.040,-8.490,-182.020
672,39017.342000,229.313,-13.580,-202.210,481.026,283.563,-60.743,884.960,-745.490,-190.020
673,39017.385000,213.498,19.615,-182.288,480.009,286.596,-98.924,145.960,-1482.490,45.980
674,39017.418000,213.498,29.674,-121.525,481.808,279.150,-129.486,-445.040,-1660.490,249.980
675,39017.460000,223.382,34.703,-69.728,478.785,275.325,-169.784,-79.040,-1553.490,167.980
676,39017.500000,255.012,49.792,-32.872,468.869,260.581,-218.185,630.960,-1186.490,92.980
677,39017.543000,256.988,71.921,25.899,463.847,248.194,-249.852,319.960,-833.490,200.980
678,39017.583000,232.278,101.092,38.848,463.749,241.096,-263.739,-351.040,-299.490,362.980
679,39017.605000,166.054,118.193,164.358,476.368,241.628,-245.068,-1179.040,347.510,289.980
680,39017.640000,273.792,-47.780,-175.315,488.999,241.384,-217.588,-299.040,811.510,331.980
681,39017.680000,324.201,84.998,22.911,498.592,231.899,-211.894,-339.040,520.510,119.980
682,39017.722000,258.965,57.839,-40.840,497.704,237.046,-198.053,-656.040,29.510,153.980
683,39017.762000,251.058,1.509,-64.747,502.620,244.018,-192.004,-549.040,1.510,170.980
684,39017.803000,250.069,3.521,-88.654,503.606,245.085,-188.055,-440.040,73.510,39.980
685,39017.845000,245.127,0.503,-59.767,500.722,245.229,-180.213,-174.040,253.510,-100.020
686,39017.885000,252.046,20.621,-38.848,497.857,248.200,-176.230,-27.040,209.510,-107.020
687,39017.936000,266.873,4.527,9.961,497.873,250.120,-177.168,334.960,-221.490,-190.020
688,39017.946000,294.548,22.633,32.872,486.259,253.480,-195.751,431.960,-812.490,-333.020
689,39017.982000,433.915,51.804,0.996,469.842,263.288,-227.930,262.960,-1360.490,-397.020
690,39018.22000,385.483,-74.939,-49.805,436.157,286.647,-253.960,-109.040,-1520.490,-822.020
691,39018.67000,302.456,-132.275,-175.315,396.558,298.342,-278.300,744.960,-1096.490,-1204.020
692,39018.103000,159.135,-166.475,-73.712,365.577,302.226,-308.680,1804.960,-470.490,-899.020
693,39018.142000,114.656,-112.157,-77.696,359.456,273.605,-327.961,2508.960,471.510,-500.020
694,39018.182000,124.541,-63.874,-106.584,358.348,260.802,-336.092,1639.960,812.510,-50.020
695,39018.222000,121.575,-71.921,-144.436,372.578,230.069,-327.919,1614.960,1231.510,433.980
696,39018.243000,117.622,-40.739,-184.280,389.659,193.584,-317.905,1237.960,1318.510,690.980
697,39018.286000,134.425,-25.650,-185.276,413.645,169.008,-298.787,584.960,1308.510,1003.980
698,39018.320000,159.135,30.680,-180.296,436.653,142.568,-275.789,107.960,1212.510,1243.980
699,39018.366000,230.301,75.945,-179.300,456.750,115.128,-252.820,-264.040,1099.510,1208.980
700,39018.400000,258.965,76.951,-174.319,465.357,102.808,-243.269,-113.040,750.510,897.980
701,39018.440000,243.151,112.157,-113.556,472.921,82.711,-233.892,-220.040,446.510,704.980
702,39018.480000,281.699,118.193,-74.708,473.831,76.010,-230.117,-722.040,77.510,392.980
703,39018.520000,243.151,92.039,73.712,474.792,75.955,-233.058,-207.040,20.510,17.980
704,39018.560000,447.753,-14.585,9.961,469.899,70.967,-237.101,2427.960,-16.490,-639.020
705,39018.582000,307.398,22.633,-43.829,464.994,65.872,-246.051,352.960,-198.490,-382.020
706,39018.622000,237.220,-33.697,-83.673,460.304,82.200,-251.582,-284.040,-313.490,-432.020
707,39018.661000,226.347,-43.756,-95.626,461.278,83.159,-252.540,420.960,78.510,-359.020
708,39018.702000,253.035,-37.721,-55.782,460.449,95.921,-245.393,-351.040,126.510,-300.020
709,39018.743000,271.815,-10.562,-28.887,462.465,104.635,-247.157,35.960,106.510,-299.020
710,39018.783000,231.290,-28.668,-21.914,455.735,108.496,-245.124,-262.040,-152.490,-174.020
711,39018.825000,233.266,-10.562,-85.665,454.820,115.153,-250.862,-271.040,-255.490,-181.020
712,39018.867000,243.151,-50.798,-70.724,444.197,116.991,-250.844,-269.040,-65.490,-134.020
713,39018.881000,257.977,-17.603,-56.778,454.003,129.793,-246.617,-240.040,99.510,-105.020
714,39018.923000,246.116,-4.527,-62.755,452.105,132.773,-242.632,-246.040,154.510,-100.020
715,39018.963000,216.463,23.639,-94.630,455.056,136.792,-237.633,-482.040,189.510,-29.020
716,39019.8000,316.293,-17.603,-20.918,457.028,138.925,-229.736,-521.040,272.510,94.980
717,39019.41000,246.116,1.509,-23.907,457.044,139.076,-222.868,-339.040,157.510,-26.020
718,39019.86000,242.162,-11.568,-35.860,456.217,152.745,-218.644,-587.040,-15.490,-118.020
719,39019.126000,257.977,-13.580,-42.833,457.269,160.608,-214.545,-468.040,-36.490,-88.020
720,39019.166000,240.185,-20.621,-52.794,455.391,166.414,-214.420,-290.040,10.510,-103.020
721,39019.221000,247.104,-10.562,-35.860,454.407,164.485,-213.484,-282.040,-52.490,-158.020
722,39019.230000,227.336,16.597,-41.837,454.480,172.230,-214.292,-326.040,-234.490,-168.020
723,39019.267000,260.942,-67.898,-13.946,443.900,179.764,-220.031,-400.040,-363.490,-146.020
724,39019.307000,238.208,-100.086,-37.852,442.911,180.423,-233.748,1168.960,-283.490,-327.020
725,39019.341000,261.931,48.786,-72.716,432.223,179.004,-249.493,872.960,-427.490,-348.020
726,39019.381000,228.324,33.697,-118.537,424.374,169.953,-260.497,618.960,-332.490,-157.020
727,39019.421000,246.116,93.045,-120.529,427.362,179.604,-264.200,-137.040,-64.490,61.980
728,39019.461000,244.139,126.240,-85.665,428.410,184.791,-249.372,-2138.040,-68.490,338.980
729,39019.503000,269.838,-58.845,-66.739,431.415,193.730,-241.322,-475.040,119.510,279.980
730,39019.523000,217.452,-66.892,-85.665,436.221,189.073,-234.551,134.960,274.510,181.980
731,39019.563000,246.116,-6.538,-36.856,441.932,179.421,-234.753,612.960,329.510,90.980
732,39019.603000,265.884,62.868,-41.837,444.742,169.763,-233.981,351.960,155.510,169.980
733,39019.645000,251.058,32.692,-49.805,445.695,167.873,-232.060,-190.040,47.510,217.980
734,39019.681000,255.012,-21.627,-56.778,443.743,165.050,-227.223,-433.040,61.510,154.980
735,39019.723000,248.093,4.527,-72.716,449.625,172.010,-222.153,-162.040,225.510,123.980
736,39019.763000,248.093,14.585,-45.821,456.401,170.350,-212.369,-434.040,230.510,232.980
737,39019.803000,251.058,3.521,-43.829,459.325,170.594,-202.551,-545.040,152.510,260.980
738,39019.850000,247.104,-17.603,-31.875,463.188,169.683,-201.582,-643.040,25.510,211.980
739,39019.868000,240.185,-6.538,-51.798,463.239,173.696,-195.609,-674.040,-54.490,236.980
740,39019.901000,255.012,-1.509,-56.778,465.096,165.041,-192.855,-741.040,-46.490,250.980
741,39019.963000,250.069,11.568,-42.833,464.194,170.943,-188.803,-1008.040,-115.490,292.980
742,39019.986000,245.127,-23.639,-36.856,469.082,174.119,-178.916,-1080.040,-160.490,277.980
743,39020.27000,242.162,-32.692,-41.837,470.019,170.309,-176.057,-850.040,-194.490,245.980
744,39020.70000,237.220,-15.591,-44.825,470.984,171.182,-180.938,-704.040,-307.490,240.980
745,39020.106000,243.151,-0.503,-53.790,469.035,170.149,-182.927,-678.040,-446.490,288.980
746,39020.152000,244.139,-12.574,-73.712,469.984,169.101,-186.871,-911.040,-442.490,350.980
747,39020.167000,248.093,-34.703,-69.728,469.038,171.055,-185.849,-940.040,-384.490,365.980
748,39020.226000,252.046,-18.609,-85.665,470.962,170.966,-190.750,-734.040,-324.490,334.980
749,39020.252000,261.931,4.527,-65.743,470.867,161.258,-190.966,-980.040,-425.490,410.980
750,39020.293000,280.710,64.880,-97.619,466.131,170.984,-187.818,-2275.040,-689.490,567.980
751,39020.335000,248.093,50.798,-228.109,465.273,184.351,-197.329,-3240.040,-1295.490,740.980
752,39020.366000,303.444,146.358,-175.315,451.917,206.268,-209.620,-4606.040,-2416.490,949.980
753,39020.410000,289.606,25.650,-27.891,440.513,227.493,-210.153,-4465.040,-2128.490,428.980
754,39020.445000,272.803,7.544,24.903,421.443,258.156,-219.319,-1052.040,-1214.490,-724.020
755,39020.497000,245.127,56.833,-33.868,401.323,280.094,-227.701,-539.040,-491.490,-1136.020
756,39020.507000,195.707,-11.568,-22.911,391.861,301.402,-225.287,59.960,499.510,-1210.020
757,39020.547000,199.660,-33.697,-43.829,397.846,318.157,-216.076,562.960,1179.510,-1086.020
758,39020.587000,225.359,-4.527,-74.708,410.529,325.464,-198.235,872.960,1826.510,-953.020
759,39020.630000,239.197,-3.521,-116.545,419.293,326.973,-177.589,978.960,2044.510,-767.020
760,39020.662000,248.093,-0.503,-120.529,435.823,329.700,-149.055,1177.960,2163.510,-618.020
761,39020.711000,267.861,-6.538,-140.451,447.460,325.671,-116.758,1668.960,2119.510,-529.020
762,39020.747000,218.440,54.821,-170.335,452.361,328.091,-97.081,2138.960,2019.510,-522.020
763,39020.787000,254.023,3.521,-140.451,457.409,342.485,-62.427,828.960,1696.510,-505.020
764,39020.802000,226.347,-34.703,-169.339,455.568,347.774,-41.720,1220.960,1488.510,-365.020
765,39020.848000,199.660,22.633,-211.175,449.742,343.985,-34.952,953.960,758.510,-237.020
766,39020.882000,213.498,-13.580,-142.444,451.665,343.011,-35.950,558.960,154.510,14.980
767,39020.928000,167.042,-46.774,-260.981,449.627,334.966,-47.901,907.960,-451.490,289.980
768,39020.965000,217.452,3.521,-42.833,457.364,337.652,-61.554,57.960,-323.490,406.980
769,39021.5000,233.266,84.998,-80.685,465.980,329.819,-68.574,362.960,-170.490,288.980
770,39021.47000,318.270,62.868,-20.918,466.779,315.007,-80.669,817.960,-113.490,271.980
771,39021.87000,271.815,59.851,-55.782,470.513,303.179,-90.731,939.960,-70.490,355.980
772,39021.133000,228.324,-4.527,-91.642,477.170,293.342,-99.761,358.960,-39.490,354.980
773,39021.142000,256.000,94.051,-58.770,480.035,290.371,-103.744,740.960,94.510,231.980
774,39021.186000,261.931,65.886,-51.798,486.759,286.446,-108.720,267.960,-51.490,281.980
775,39021.227000,250.069,6.538,-56.778,486.625,273.717,-113.906,390.960,-111.490,299.980
776,39021.267000,222.394,-17.603,-97.619,490.460,270.777,-116.905,391.960,108.510,186.980
777,39021.307000,257.977,63.874,-59.767,493.296,264.010,-117.049,368.960,165.510,97.980
778,39021.347000,259.954,35.709,-72.716,495.165,257.232,-117.196,73.960,101.510,222.980
779,39021.386000,246.116,11.568,-88.654,500.903,249.608,-113.430,13.960,169.510,199.980
780,39021.427000,253.035,0.503,-78.693,500.895,246.890,-104.665,-69.040,373.510,124.980
781,39021.447000,255.012,24.644,-59.767,504.827,251.048,-93.777,-203.040,422.510,144.980
782,39021.487000,252.046,18.609,-53.790,512.464,237.812,-81.306,-142.040,441.510,127.980
783,39021.527000,252.046,-6.538,-29.883,511.573,242.937,-68.445,-85.040,410.510,84.980
784,39021.566000,244.139,9.556,-34.864,512.594,246.981,-61.489,-41.040,364.510,61.980
785,39021.607000,243.151,9.556,-34.864,516.444,243.308,-53.717,-24.040,282.510,39.980
786,39021.646000,239.197,16.597,-19.922,515.495,244.356,-49.773,75.960,204.510,6.980
787,39021.687000,256.988,-5.532,-25.899,517.422,243.425,-48.809,221.960,113.510,-55.020
788,39021.722000,240.185,-4.527,-23.907,514.518,243.375,-49.797,51.960,40.510,-144.020
789,39021.777000,250.069,22.633,-41.837,513.574,245.351,-47.794,118.960,89.510,-150.020
790,39021.796000,256.988,46.774,-35.860,514.661,257.075,-44.589,29.960,170.510,-101.020
791,39021.825000,251.058,17.603,-23.907,512.679,251.318,-40.799,89.960,165.510,-126.020
792,39021.866000,259.954,15.591,-22.911,512.780,261.975,-41.542,221.960,153.510,-189.020
793,39021.906000,256.000,12.574,-27.891,508.945,264.915,-38.543,314.960,170.510,-310.020
794,39021.946000,257.977,30.680,-27.891,502.220,269.703,-38.451,246.960,193.510,-333.020
795,39021.986000,278.734,38.727,-23.907,501.394,283.372,-34.227,-185.040,187.510,-333.020
796,39022.27000,299.490,44.762,-25.899,495.692,291.342,-22.294,-376.040,370.510,-258.020
797,39022.67000,257.977,27.662,-29.883,494.727,286.952,-0.819,-924.040,529.510,-105.020
798,39022.87000,226.347,-31.686,-188.265,492.794,286.070,4.061,-562.040,-12.490,54.980
799,39022.132000,233.266,-25.650,-185.276,497.559,281.911,-10.732,-7.040,-838.490,105.980
800,39022.168000,209.544,24.644,-143.440,497.448,278.200,-47.099,-140.040,-1389.490,222.980
801,39022.208000,205.591,16.597,-148.420,502.134,271.516,-88.425,-177.040,-1600.490,222.980
802,39022.243000,203.614,40.739,-94.630,493.226,262.456,-143.562,673.960,-1439.490,45.980
803,39022.283000,207.568,52.809,-62.755,484.286,249.578,-195.842,997.960,-1221.490,-74.020
804,39022.330000,223.382,70.916,-52.794,467.653,238.825,-236.322,1205.960,-828.490,-208.020
805,39022.363000,256.000,71.921,-32.872,462.671,229.457,-263.019,809.960,-648.490,-105.020
806,39022.383000,224.371,79.969,-11.953,449.035,224.924,-286.684,175.960,-368.490,-13.020
807,39022.430000,248.093,17.603,-20.918,444.071,213.982,-296.744,177.960,-66.490,103.980
808,39022.463000,286.641,64.880,111.564,454.703,211.346,-288.935,9.960,593.510,217.980
809,39022.503000,296.525,96.063,-194.241,469.247,209.157,-262.475,-1216.040,722.510,379.980
810,39022.543000,309.375,-112.157,-30.879,481.890,212.559,-245.701,134.960,865.510,119.980
811,39022.586000,277.745,82.986,-32.872,485.686,203.082,-237.078,388.960,509.510,15.980
812,39022.625000,262.919,9.556,-54.786,489.544,202.127,-238.071,34.960,221.510,2.980
813,39022.667000,243.151,-3.521,-70.724,490.537,203.258,-231.180,-49.040,113.510,-84.020
814,39022.706000,243.151,-15.591,-75.704,490.532,202.331,-229.239,-1.040,171.510,-147.020
815,39022.727000,232.278,12.574,-66.739,489.632,207.370,-220.303,34.960,226.510,-194.020
816,39022.768000,242.162,34.703,-48.809,485.823,214.085,-222.123,102.960,139.510,-197.020
817,39022.808000,243.151,-4.527,-51.798,489.766,220.983,-219.020,154.960,27.510,-242.020
818,39022.848000,237.220,14.585,-73.712,484.903,218.930,-222.018,185.960,12.510,-303.020
819,39022.888000,246.116,31.686,-51.798,478.209,227.537,-224.783,79.960,-39.490,-380.020
820,39022.931000,245.127,9.556,-44.825,473.385,230.251,-231.597,289.960,-102.490,-378.020
821,39022.973000,237.220,-12.574,-60.763,464.768,240.716,-237.267,466.960,-115.490,-378.020
822,39023.8000,255.012,100.086,-68.732,459.027,248.319,-242.014,-57.040,-187.490,-464.020
823,39023.28000,243.151,33.697,-54.786,451.364,256.895,-245.762,-148.040,-208.490,-439.020
824,39023.68000,243.151,37.721,-74.708,439.872,269.360,-247.471,-98.040,-190.490,-535.020
825,39023.108000,257.977,55.827,-70.724,434.124,275.129,-247.355,-228.040,-164.490,-617.020
826,39023.148000,272.803,65.886,-54.786,418.787,289.541,-247.068,-214.040,-203.490,-711.020
827,39023.188000,312.340,32.692,-50.802,405.479,314.565,-250.463,-185.040,-310.490,-683.020
828,39023.228000,308.386,55.827,-50.802,388.158,325.852,-259.075,99.960,-444.490,-581.020
829,39023.268000,292.571,28.668,-48.809,372.747,333.403,-261.882,-476.040,-513.490,-545.020
830,39023.310000,241.174,0.503,-94.630,351.667,351.879,-250.729,-1029.040,-633.490,-338.020
831,39023.350000,214.486,3.521,-152.405,337.381,373.269,-242.439,-1240.040,-841.490,2.980
832,39023.365000,203.614,-37.721,-51.798,327.677,372.010,-251.313,-178.040,-752.490,191.980
833,39023.415000,178.903,50.798,-59.767,326.425,348.139,-277.343,2189.960,-110.490,483.980
834,39023.450000,183.846,89.022,-62.755,336.605,305.956,-302.774,1936.960,267.510,1033.980
835,39023.490000,167.042,170.499,-50.802,355.795,287.893,-294.309,-215.040,600.510,889.980
836,39023.530000,197.683,106.122,-78.693,372.228,282.637,-275.758,-251.040,886.510,726.980
837,39023.569000,217.452,140.322,-109.572,398.252,267.876,-252.495,-169.040,1040.510,747.980
838,39023.611000,231.290,80.974,-136.467,405.022,264.404,-236.867,-722.040,831.510,737.980
839,39023.647000,230.301,86.004,-124.514,423.330,252.436,-215.520,-417.040,594.510,733.980
840,39023.666000,237.220,71.921,-95.626,434.950,250.888,-202.781,-483.040,403.510,601.980
841,39023.707000,226.347,24.644,-97.619,446.365,228.002,-189.536,-117.040,313.510,530.980
842,39023.747000,223.382,164.464,-105.588,446.458,236.826,-185.417,-267.040,107.510,225.980
843,39023.787000,266.873,68.904,-48.809,448.370,234.860,-187.418,400.960,-43.490,49.980
844,39023.827000,278.734,33.697,-46.817,453.984,215.478,-188.817,871.960,193.510,299.980
845,39023.868000,258.965,-30.680,-61.759,457.851,215.494,-189.789,-448.040,155.510,293.980
846,39023.908000,263.907,45.768,-33.868,458.707,202.990,-185.162,327.960,229.510,233.980
847,39023.948000,251.058,4.527,-44.825,463.579,205.130,-178.239,-58.040,172.510,243.980
848,39023.985000,252.046,-12.574,-27.891,468.392,201.423,-172.427,-159.040,143.510,216.980
849,39024.5000,244.139,-4.527,-46.817,471.256,196.683,-168.604,-2.040,192.510,207.980
850,39024.51000,244.139,1.509,-33.868,474.066,186.140,-163.929,-139.040,176.510,247.980
851,39024.132000,255.012,-7.544,-37.852,476.005,185.317,-158.059,32.960,194.510,203.980
852,39024.148000,255.012,-2.515,-31.875,479.877,185.377,-157.069,-166.040,116.510,161.980
853,39024.170000,247.104,50.798,-29.883,480.804,180.596,-154.231,62.960,132.510,222.980
854,39024.211000,253.035,2.515,-25.899,483.697,178.769,-150.343,-456.040,-7.490,296.980
855,39024.251000,244.139,-31.686,-15.938,488.435,169.065,-152.509,-374.040,-156.490,218.980
856,39024.291000,250.069,-25.650,-27.891,484.559,168.962,-155.462,-407.040,-289.490,207.980
857,39024.322000,241.174,0.503,-34.864,486.529,172.843,-156.352,-429.040,-367.490,196.980
858,39024.353000,244.139,-2.515,-35.860,479.720,170.663,-164.260,-475.040,-517.490,218.980
859,39024.393000,246.116,26.656,-62.755,483.501,163.689,-174.214,-691.040,-778.490,208.980
860,39024.430000,250.069,-10.562,-100.607,474.819,168.242,-183.938,-787.040,-703.490,308.980
861,39024.470000,258.965,6.538,-83.673,477.555,153.470,-195.047,-975.040,-537.490,342.980
862,39024.510000,249.081,-5.532,-96.623,473.832,168.923,-196.673,-1217.040,-433.490,356.980
863,39024.550000,266.873,-14.585,-75.704,478.681,169.963,-195.659,-948.040,-276.490,387.980
864,39024.610000,268.849,-2.515,-26.895,474.747,163.151,-194.838,-1135.040,-523.490,345.980
865,39024.655000,271.815,65.886,-152.405,468.139,182.265,-205.215,-2440.040,-1543.490,300.980
866,39024.662000,307.398,125.234,-197.230,453.661,191.250,-231.524,-2581.040,-2204.490,403.980
867,39024.697000,336.062,62.868,-93.634,430.701,220.797,-245.626,-3696.040,-2393.490,399.980
868,39024.731000,297.514,25.650,4.981,409.826,264.127,-251.573,-3066.040,-1783.490,-244.020
869,39024.771000,234.255,12.574,34.864,397.482,288.255,-252.044,-1448.040,-878.490,-662.020
870,39024.806000,210.533,15.591,-30.879,394.791,307.859,-241.808,-620.040,218.510,-917.020
871,39024.846000,181.869,-13.580,-2.988,395.883,319.627,-236.641,454.960,1131.510,-952.020
872,39024.890000,198.672,15.591,-62.755,411.339,314.276,-222.018,1325.960,2009.510,-1001.020
873,39024.929000,239.197,1.509,-83.673,434.689,321.924,-193.360,1605.960,2471.510,-1019.020
874,39024.946000,272.803,-1.509,-127.502,456.138,331.646,-157.795,2100.960,2744.510,-965.020
875,39024.988000,293.560,-3.521,-140.451,469.726,328.671,-122.528,2493.960,2767.510,-877.020
876,39025.30000,271.815,51.804,-167.346,468.924,337.291,-83.112,1808.960,2406.510,-905.020
877,39025.71000,252.046,-29.674,-193.245,462.397,354.549,-45.478,1193.960,1956.510,-705.020
878,39025.106000,223.382,19.615,-199.222,454.727,358.659,-31.673,701.960,1198.510,-354.020
879,39025.148000,209.544,-75.945,-163.362,453.854,363.957,-10.964,97.960,459.510,-114.020
880,39025.190000,272.803,-73.933,-121.525,454.729,358.681,-30.692,1160.960,-348.490,-47.020
881,39025.229000,222.394,-37.721,-37.852,460.375,345.771,-46.658,64.960,-247.490,584.980
882,39025.273000,253.035,67.898,-65.743,470.950,337.310,-38.978,-781.040,-146.490,605.980
883,39025.287000,283.676,90.028,-28.887,484.412,329.610,-42.062,894.960,133.510,434.980
884,39025.327000,290.595,64.880,-30.879,490.119,320.799,-48.130,672.960,181.510,492.980
885,39025.367000,253.035,53.815,-46.817,492.856,303.395,-46.549,67.960,122.510,394.980
886,39025.407000,252.046,24.644,-58.770,500.555,298.681,-43.695,-89.040,139.510,323.980
887,39025.447000,236.232,47.780,-48.809,502.380,285.324,-34.181,-169.040,291.510,215.980
888,39025.487000,244.139,35.709,-25.899,506.306,289.417,-26.237,-188.040,262.510,192.980
889,39025.527000,252.046,12.574,-10.957,512.053,281.879,-18.547,-187.040,172.510,132.980
890,39025.570000,243.151,17.603,-35.860,507.248,283.903,-12.628,-119.040,180.510,58.980
891,39025.591000,252.046,34.703,-15.938,510.110,278.258,-5.883,-251.040,138.510,-34.020
892,39025.630000,254.023,15.591,1.992,511.173,287.997,-4.684,-228.040,12.510,-92.020
893,39025.670000,255.012,15.591,-15.938,506.301,284.088,-3.800,41.960,-57.490,-183.020
894,39025.711000,260.942,32.692,5.977,500.655,301.399,-8.331,-13.040,-168.490,-334.020
895,39025.751000,263.907,30.680,18.926,495.910,312.808,-16.914,-65.040,-434.490,-427.020
896,39025.791000,278.734,34.703,18.926,484.283,316.040,-41.383,290.960,-839.490,-645.020
897,39025.831000,355.830,-35.709,8.965,461.169,334.432,-77.308,544.960,-1154.490,-652.020
898,39025.867000,512.988,-2.515,5.977,448.652,346.327,-104.529,494.960,-1207.490,-694.020
899,39025.907000,295.537,-163.458,-171.331,422.702,366.202,-115.910,-1352.040,-1242.490,-760.020
900,39025.927000,235.243,-134.287,-193.245,402.485,376.640,-117.683,-842.040,-852.490,-19.020
901,39025.967000,188.788,-171.505,-110.568,394.622,370.093,-147.264,1566.960,-243.490,363.980
902,39026.7000,146.286,-36.715,-51.798,398.941,326.430,-193.335,3328.960,680.510,926.980
903,39026.47000,172.973,30.680,-131.486,412.995,283.443,-212.892,2966.960,1085.510,982.980
904,39026.87000,158.147,46.774,-163.362,434.979,254.685,-206.619,1390.960,1326.510,979.980
905,39026.127000,130.471,-1.509,-220.140,441.448,221.030,-195.585,1092.960,1249.510,1122.980
906,39026.167000,156.170,94.051,-272.934,457.533,182.506,-189.541,2025.960,1054.510,1062.980
907,39026.207000,187.799,135.293,-257.992,466.867,146.765,-186.392,1161.960,415.510,727.980
908,39026.237000,204.602,72.927,-242.054,467.676,132.039,-194.563,911.960,-94.490,354.980
909,39026.271000,150.239,116.181,-131.486,468.449,116.104,-213.547,1096.960,-282.490,137.980
910,39026.311000,242.162,110.145,-84.669,467.374,105.372,-215.749,396.960,-109.490,185.980
911,39026.351000,271.815,122.216,-18.926,474.153,105.503,-212.790,-575.040,3.510,14.980
912,39026.392000,362.749,33.697,62.755,478.999,105.636,-208.854,-458.040,238.510,-159.020
913,39026.432000,405.251,-158.428,121.525,478.966,101.796,-206.978,2066.960,202.510,-591.020
914,39026.472000,257.977,104.110,-42.833,474.127,103.497,-215.777,1467.960,-181.490,-483.020
915,39026.512000,167.042,38.727,-125.510,469.371,114.798,-229.265,189.960,-366.490,-512.020
916,39026.552000,320.247,6.538,-22.911,466.370,105.018,-231.450,743.960,-132.490,-347.020
917,39026.572000,238.208,-11.568,-45.821,459.708,118.328,-240.975,-31.040,-291.490,-378.020
918,39026.612000,235.243,-1.509,-50.802,459.715,120.162,-245.838,441.960,-255.490,-375.020
919,39026.657000,262.919,-18.609,-75.704,451.061,127.628,-255.497,-94.040,-287.490,-244.020
920,39026.692000,248.093,-13.580,-63.751,448.269,138.344,-252.323,-144.040,-90.490,-257.020
921,39026.732000,238.208,-11.568,-81.681,444.463,145.081,-253.162,-279.040,115.510,-198.020
922,39026.772000,235.243,-5.532,-79.689,448.363,146.284,-244.301,-77.040,305.510,-217.020
923,39026.812000,243.151,4.527,-57.774,452.331,154.304,-234.308,-200.040,354.510,-179.020
924,39026.852000,261.931,14.585,-26.895,457.174,154.416,-231.353,-307.040,258.510,-146.020
925,39026.882000,246.116,-4.527,-48.809,456.313,164.223,-226.234,-300.040,212.510,-163.020
926,39026.908000,253.035,18.609,-29.883,455.460,175.001,-221.093,-392.040,109.510,-241.020
927,39026.948000,245.127,12.574,-43.829,453.610,182.835,-217.001,-274.040,62.510,-247.020
928,39026.991000,251.058,4.527,-34.864,452.677,185.803,-213.995,-341.040,0.510,-278.020
929,39027.31000,252.046,9.556,-26.895,451.795,194.532,-213.803,-163.040,-89.490,-368.020
930,39027.71000,243.151,44.762,-41.837,442.245,207.965,-216.467,-318.040,-206.490,-382.020
931,39027.111000,262.919,16.597,-53.790,441.377,218.592,-218.194,-250.040,-160.490,-415.020
932,39027.151000,256.988,17.603,-66.739,433.763,231.159,-216.951,-209.040,-22.490,-466.020
933,39027.191000,265.884,51.804,-50.802,431.914,239.015,-211.877,-91.040,179.510,-449.020
934,39027.211000,243.151,69.910,-55.782,429.150,251.759,-204.735,-275.040,291.510,-318.020
935,39027.251000,245.127,62.868,-45.821,428.255,257.726,-197.740,-315.040,200.510,-220.020
936,39027.295000,254.023,16.597,-65.743,426.392,262.798,-186.844,-749.040,42.510,-35.020
937,39027.328000,236.232,2.515,-132.482,425.429,261.948,-180.981,-1898.040,-611.490,358.980
938,39027.368000,229.313,1.509,-79.689,427.432,268.784,-179.844,-1603.040,-892.490,422.980
939,39027.408000,224.371,23.639,-41.837,423.560,269.609,-184.738,-1112.040,-855.490,415.980
940,39027.453000,225.359,32.692,-30.879,420.652,271.285,-195.494,-600.040,-687.490,413.980
941,39027.497000,221.405,44.762,-40.840,425.385,263.285,-208.410,-217.040,-486.490,316.980
942,39027.516000,231.290,42.750,-35.860,423.284,248.466,-219.531,481.960,-200.490,195.980
943,39027.551000,250.069,11.568,14.942,425.040,231.808,-227.742,884.960,24.510,241.980
944,39027.591000,235.243,116.181,-12.949,430.803,227.938,-229.777,426.960,588.510,261.980
945,39027.636000,253.035,94.051,-37.852,433.725,228.160,-220.940,-330.040,225.510,224.980
946,39027.672000,248.093,-32.692,-90.646,445.249,218.651,-217.204,889.960,408.510,220.980
947,39027.708000,253.035,43.756,-37.852,447.085,207.149,-211.572,20.960,440.510,211.980
948,39027.751000,274.780,44.762,-26.895,451.787,191.813,-205.037,438.960,401.510,192.980
949,39027.789000,266.873,38.727,-22.911,455.660,191.009,-199.163,124.960,277.510,176.980
950,39027.829000,248.093,2.515,-43.829,463.414,192.099,-197.161,44.960,270.510,110.980
951,39027.850000,251.058,3.521,-40.840,466.332,192.278,-190.287,107.960,370.510,84.980
952,39027.888000,252.046,18.609,-23.907,469.210,188.552,-184.479,153.960,400.510,87.980
953,39027.940000,256.000,5.532,-19.922,476.892,180.149,-172.882,-7.040,341.510,128.980
954,39027.973000,248.093,4.527,-24.903,480.752,178.331,-168.991,182.960,322.510,53.980
955,39028.13000,248.093,4.527,-15.938,481.688,173.637,-162.229,-95.040,305.510,54.980
956,39028.53000,253.035,2.515,-27.891,485.681,183.664,-149.249,-199.040,375.510,59.980
957,39028.93000,258.965,-7.544,-8.965,489.550,181.932,-141.434,93.960,478.510,4.980
958,39028.134000,244.139,7.544,1.992,489.561,181.156,-132.625,-6.040,428.510,53.980
959,39028.155000,263.907,4.527,-7.969,496.237,168.859,-121.116,-75.040,472.510,67.980
960,39028.188000,274.780,46.774,-5.977,498.241,173.064,-107.290,-115.040,567.510,86.980
961,39028.229000,277.745,33.697,-16.934,499.303,178.380,-86.575,-614.040,737.510,174.980
962,39028.270000,264.896,53.815,-24.903,512.858,173.334,-57.239,-831.040,971.510,260.980
963,39028.309000,259.954,38.727,-20.918,512.838,164.337,-25.077,-1057.040,1079.510,259.980
964,39028.352000,287.629,75.945,-60.763,515.775,162.942,-1.566,-1435.040,836.510,108.980
965,39028.392000,241.174,-19.615,-107.580,517.765,165.247,14.180,-1406.040,21.510,-149.020
966,39028.432000,212.510,75.945,-99.611,518.723,168.687,-6.335,-636.040,-1007.490,-559.020
967,39028.477000,238.208,66.892,-69.728,512.991,184.294,-44.247,-421.040,-1593.490,-791.020
968,39028.497000,250.069,43.756,-80.685,499.441,194.669,-96.020,-39.040,-1969.490,-874.020
969,39028.532000,280.710,11.568,-65.743,481.131,212.786,-146.651,-40.040,-2078.490,-795.020
970,39028.580000,276.757,9.556,-67.735,459.919,229.990,-193.386,-780.040,-1963.490,-674.020
971,39028.615000,275.768,-42.750,-44.825,439.699,243.923,-212.732,-1378.040,-1722.490,-592.020
972,39028.653000,247.104,-70.916,-8.965,422.430,261.876,-227.080,-1080.040,-1025.490,-406.020
973,39028.693000,237.220,-60.857,17.930,411.900,274.286,-231.730,-812.040,-394.490,-125.020
974,39028.734000,240.185,-91.033,8.965,410.011,276.468,-219.918,-1015.040,265.510,251.980
975,39028.775000,295.537,-171.505,190.257,429.329,268.436,-196.519,138.960,1250.510,745.980
976,39028.789000,386.471,-88.016,-147.424,451.424,247.790,-174.376,1105.960,1554.510,336.980
977,39028.830000,276.757,155.411,0.996,463.984,241.591,-152.912,-588.040,1393.510,556.980
978,39028.869000,254.023,83.992,71.720,473.625,231.675,-122.712,-754.040,828.510,619.980
979,39028.910000,239.197,-66.892,8.965,481.203,213.476,-115.254,785.960,373.510,529.980
980,39028.949000,242.162,-36.715,0.000,485.986,207.720,-114.391,495.960,218.510,309.980
981,39028.992000,254.023,19.615,-0.996,489.794,201.004,-112.571,183.960,136.510,150.980
982,39029.32000,255.012,4.527,1.992,490.733,198.101,-112.634,80.960,75.510,171.980
983,39029.71000,252.046,-0.503,-1.992,490.628,188.285,-117.755,392.960,31.510,91.980
984,39029.111000,255.012,2.515,-10.957,492.553,187.333,-117.772,152.960,-30.490,15.980
985,39029.131000,253.035,0.503,-13.946,491.539,182.469,-117.882,22.960,-22.490,-21.020
986,39029.171000,255.012,14.585,-5.977,490.633,189.213,-119.696,61.960,-32.490,-5.020
987,39029.211000,256.988,2.515,-11.953,491.605,190.150,-121.634,129.960,-24.490,26.980
988,39029.251000,256.000,0.503,-16.934,491.621,191.185,-118.669,46.960,-0.490,-2.020
989,39029.291000,250.069,0.503,-7.969,490.576,183.387,-119.825,-90.040,-7.490,-27.020
990,39029.330000,255.012,15.591,-7.969,488.665,186.238,-121.727,-36.040,-12.490,1.980
991,39029.375000,258.965,6.538,-16.934,491.628,192.135,-119.629,-49.040,22.510,17.980
992,39029.414000,254.023,0.503,-12.949,490.656,191.197,-117.690,-136.040,75.510,20.980
993,39029.460000,250.069,3.521,-0.996,492.617,193.223,-114.699,-57.040,66.510,19.980
994,39029.478000,255.012,1.509,-1.992,491.670,195.177,-113.677,-6.040,-3.490,18.980
995,39029.513000,254.023,0.503,-12.949,492.539,185.434,-115.853,-3.040,-19.490,12.980
996,39029.553000,251.058,1.509,-11.953,492.595,191.259,-115.724,-28.040,-2.490,15.980
997,39029.593000,255.012,5.532,-6.973,491.630,191.272,-114.745,34.960,-2.490,26.980
998,39029.635000,254.023,0.503,-7.969,494.514,189.358,-114.781,59.960,-11.490,22.980
999,39029.676000,254.023,0.503,-6.973,491.564,184.475,-114.896,28.960,-19.490,9.980
1000,39029.716000,253.035,1.509,-5.977,491.588,187.345,-116.793,3.960,-37.490,1.980
1001,39029.734000,255.012,1.509,-8.965,493.544,190.212,-119.667,23.960,-62.490,-5.020
1002,39029.775000,254.023,1.509,-9.961,493.531,189.198,-121.651,9.960,-70.490,-14.020
1003,39029.815000,254.023,4.527,-11.953,488.658,185.289,-120.768,-44.040,-66.490,-28.020
1004,39029.855000,255.012,1.509,-12.949,491.626,192.113,-120.610,-57.040,-58.490,-31.020
1005,39029.895000,254.023,1.509,-8.965,490.619,188.199,-121.680,-24.040,-58.490,-27.020
1006,39029.935000,252.046,5.532,-14.942,486.827,196.834,-124.438,-10.040,-64.490,-25.020
1007,39029.975000,257.977,7.544,-19.922,491.662,195.975,-121.505,-59.040,-44.490,-24.020
1008,39030.15000,248.093,1.509,-12.949,489.703,193.971,-123.515,-221.040,-16.490,-30.020
1009,39030.56000,250.069,2.515,-11.953,488.705,191.028,-124.563,-37.040,-10.490,-3.020
1010,39030.76000,251.058,4.527,-7.969,491.606,191.034,-125.537,58.960,-50.490,7.980
1011,39030.115000,253.035,-1.509,-13.946,486.764,190.944,-127.511,90.960,-74.490,-5.020
1012,39030.156000,252.046,6.538,-13.946,488.767,198.665,-130.277,76.960,-88.490,-9.020
1013,39030.196000,255.012,6.538,-19.922,485.823,194.710,-132.332,89.960,-97.490,-6.020
1014,39030.231000,256.000,5.532,-17.930,487.685,187.868,-135.422,99.960,-82.490,0.980
1015,39030.277000,254.023,2.515,-17.930,484.804,190.688,-138.308,106.960,-74.490,7.980
1016,39030.317000,254.023,3.521,-18.926,486.765,193.598,-139.220,128.960,-85.490,5.980
1017,39030.351000,253.035,4.527,-18.926,483.879,195.490,-140.165,143.960,-95.490,2.980
1018,39030.371000,253.035,4.527,-19.922,483.812,189.557,-145.200,124.960,-102.490,-0.020
1019,39030.412000,251.058,4.527,-21.914,484.772,189.501,-148.141,117.960,-107.490,-6.020
1020,39030.452000,253.035,5.532,-23.907,480.825,182.560,-153.207,111.960,-106.490,-0.020
1021,39030.492000,250.069,9.556,-28.887,480.882,189.269,-156.980,65.960,-97.490,5.980
1022,39030.532000,254.023,7.544,-32.872,480.898,190.305,-154.015,-28.040,-63.490,21.980
1023,39030.572000,251.058,5.532,-32.872,481.864,190.293,-154.994,-41.040,-33.490,29.980
1024,39030.612000,257.977,5.532,-31.875,481.795,183.475,-156.126,-60.040,-10.490,50.980
1025,39030.652000,250.069,10.562,-29.883,480.786,179.539,-158.177,-67.040,19.510,66.980
1026,39030.692000,255.012,1.509,-31.875,481.774,180.627,-153.247,-67.040,44.510,73.980
1027,39030.712000,249.081,0.503,-25.899,483.697,178.769,-150.343,-73.040,64.510,65.980
1028,39030.755000,256.000,0.503,-25.899,485.693,184.656,-148.247,-68.040,64.510,68.980
1029,39030.796000,253.035,3.521,-23.907,489.463,174.058,-146.512,-103.040,65.510,56.980
1030,39030.836000,255.012,-0.503,-20.918,490.523,183.754,-147.276,-92.040,57.510,46.980
1031,39030.876000,251.058,0.503,-20.918,490.527,183.797,-145.313,-63.040,43.510,33.980
1032,39030.921000,252.046,0.503,-22.911,488.580,181.902,-142.418,-71.040,30.510,21.980
1033,39030.956000,255.012,-0.503,-20.918,491.506,183.915,-140.405,-28.040,19.510,15.980
1034,39030.996000,251.058,0.503,-23.907,490.512,181.014,-139.491,-1.040,24.510,7.980
1035,39031.16000,251.058,-0.503,-21.914,485.591,173.114,-143.600,-22.040,15.510,3.980
1036,39031.56000,254.023,-0.503,-20.918,490.470,177.088,-141.540,-51.040,1.510,-7.020
1037,39031.96000,252.046,-2.515,-17.930,488.540,177.112,-139.582,-51.040,-12.490,-15.020
1038,39031.136000,252.046,0.503,-20.918,491.553,188.769,-140.298,-44.040,-25.490,-22.020
1039,39031.176000,253.035,0.503,-21.914,489.609,187.779,-140.324,-36.040,-24.490,-25.020
1040,39031.216000,255.012,2.515,-21.914,486.652,181.947,-139.479,-53.040,-15.490,-27.020
1041,39031.256000,254.023,2.515,-21.914,488.599,183.843,-142.374,-48.040,-6.490,-24.020
1042,39031.296000,254.023,3.521,-21.914,490.501,180.022,-140.494,-49.040,1.510,-18.020
1043,39031.336000,250.069,-0.503,-24.903,489.594,185.881,-138.404,-40.040,9.510,-16.020
1044,39031.356000,254.023,4.527,-24.903,490.581,187.832,-138.359,-32.040,23.510,-4.020
1045,39031.392000,252.046,1.509,-22.911,487.702,189.788,-136.360,-25.040,27.510,3.980
