Sample, Time, ACCX, ACCY, ACCZ, MAGX, MAGY, MAGZ, GYRX, GYRY, GYRZ
0,39167.714000,259.946,22.722,7.515,440.699,189.094,-115.224,-47.200,44.290,-56.580
1,39167.735000,257.973,22.722,8.517,444.231,191.757,-113.141,-49.200,62.290,-48.580
2,39167.776000,248.108,23.732,12.524,441.594,191.812,-111.161,-29.200,85.290,-44.580
3,39167.816000,244.162,24.742,19.538,442.475,191.812,-111.159,7.800,77.290,-40.580
4,39167.856000,245.148,30.801,22.544,438.948,187.470,-111.311,12.800,27.290,-33.580
5,39167.894000,248.108,24.742,17.534,438.945,188.310,-112.277,0.800,-12.710,-33.580
6,39167.934000,259.946,21.712,10.521,438.950,187.498,-110.317,-45.200,-15.710,-35.580
7,39167.982000,251.067,26.761,11.523,436.302,190.884,-113.194,-36.200,9.290,-43.580
8,39167.994000,250.081,26.761,14.528,439.841,197.075,-109.010,-28.200,12.290,-38.580
9,39168.42000,251.067,26.761,16.532,438.075,194.441,-110.094,5.800,7.290,-32.580
10,39168.82000,254.027,27.771,15.530,438.075,194.441,-110.094,-8.200,6.290,-26.580
11,39168.117000,250.081,27.771,14.528,439.848,197.999,-106.994,2.800,7.290,-24.580
12,39168.159000,250.081,27.771,17.534,436.311,196.148,-111.038,-3.200,-7.710,-13.580
13,39168.199000,252.054,28.781,17.534,439.839,197.915,-109.976,42.800,-25.710,0.420
14,39168.219000,248.108,28.781,14.528,437.189,191.808,-111.176,7.800,-44.710,-2.580
15,39168.256000,252.054,28.781,10.521,438.951,191.810,-111.170,13.800,-39.710,3.420
16,39168.296000,252.054,29.791,12.524,438.948,196.093,-113.017,28.800,-29.710,16.420
17,39168.339000,251.067,30.801,14.528,437.181,192.592,-114.129,26.800,-36.710,23.420
18,39168.379000,253.040,29.791,14.528,436.298,189.119,-114.245,62.800,-58.710,51.420
19,39168.416000,250.081,25.751,18.536,438.051,193.348,-118.074,115.800,-98.710,62.420
20,39168.459000,252.054,25.751,12.524,437.155,188.027,-122.221,14.800,-142.710,40.420
21,39168.479000,254.027,26.761,3.507,438.036,191.471,-123.100,33.800,-104.710,40.420
22,39168.519000,248.108,19.692,8.517,436.264,185.338,-125.290,82.800,-79.710,41.420
23,39168.559000,253.040,21.712,6.513,438.026,189.651,-126.138,11.800,-83.710,16.420
24,39168.599000,251.067,20.702,1.503,438.016,187.830,-129.176,-27.200,-45.710,-4.580
25,39168.636000,255.013,16.663,-2.505,436.254,187.829,-129.182,42.800,-0.710,2.420
26,39168.676000,253.040,25.751,5.511,436.250,182.621,-129.351,119.800,41.290,0.420
27,39168.699000,251.067,26.761,10.521,436.249,180.885,-129.407,7.800,33.290,5.420
28,39168.737000,254.027,23.732,6.513,435.374,185.252,-128.275,45.800,8.290,22.420
29,39168.777000,252.054,26.761,7.515,438.898,181.811,-127.382,80.800,-6.710,37.420
30,39168.817000,250.081,28.781,8.517,435.371,185.224,-129.269,47.800,-0.710,47.420
31,39168.860000,255.013,19.692,7.515,438.015,182.650,-128.351,40.800,-9.710,60.420
32,39168.895000,253.040,22.722,10.521,439.763,175.623,-131.552,117.800,-15.710,74.420
33,39168.935000,251.067,21.712,9.519,440.644,175.624,-131.550,92.800,-22.710,81.420
34,39168.975000,256.987,16.663,6.513,440.640,177.303,-133.481,108.800,-14.710,85.420
35,39169.0,252.054,17.673,6.513,442.395,168.625,-133.757,165.800,-14.710,94.420
36,39169.40000,249.094,24.742,6.513,442.391,165.992,-134.835,198.800,-9.710,107.420
37,39169.79000,254.027,15.653,8.517,444.144,165.909,-137.812,233.800,4.290,120.420
38,39169.120000,253.040,11.613,8.517,445.904,163.307,-137.890,232.800,0.290,109.420
39,39169.159000,255.013,11.613,11.523,443.257,161.540,-138.949,173.800,-35.710,105.420
40,39169.199000,253.040,12.623,9.519,445.888,160.562,-142.944,218.800,-67.710,98.420
41,39169.219000,249.094,8.584,7.515,442.348,154.370,-147.129,279.800,-110.710,88.420
42,39169.266000,256.987,12.623,6.513,443.218,146.503,-149.367,279.800,-133.710,75.420
43,39169.302000,248.108,16.663,-1.503,443.201,146.334,-155.331,234.800,-89.710,36.420
44,39169.342000,252.054,7.574,9.519,442.312,147.117,-158.287,192.800,-173.710,-12.580
45,39169.382000,256.000,0.505,10.521,439.665,146.219,-159.318,619.800,-128.710,-54.580
46,39169.422000,256.987,4.544,-15.530,441.379,142.297,-175.327,874.800,-134.710,-65.580
47,39169.441000,251.067,14.643,-37.573,438.720,135.239,-179.537,574.800,-217.710,-32.580
48,39169.476000,245.148,16.663,-36.571,436.060,131.624,-184.628,-38.200,-289.710,13.420
49,39169.517000,238.243,-1.515,-29.558,433.407,132.377,-188.584,-553.200,-272.710,68.420
50,39169.564000,247.121,10.604,-19.538,430.777,139.404,-185.385,-698.200,-126.710,133.420
51,39169.602000,249.094,13.633,-21.542,432.533,141.925,-188.277,-666.200,-120.710,111.420
52,39169.637000,250.081,21.712,11.523,433.424,148.926,-186.061,-566.200,-80.710,27.420
53,39169.680000,239.229,49.988,4.509,431.676,148.197,-181.125,-247.200,236.290,-73.580
54,39169.696000,266.852,8.584,-17.534,434.338,150.972,-175.068,118.800,230.290,-110.580
55,39169.744000,266.852,-15.653,-15.530,437.881,153.748,-169.009,-166.200,235.290,-59.580
56,39169.784000,263.892,-25.751,-12.524,435.253,151.311,-163.139,-170.200,212.290,-116.580
57,39169.820000,250.081,14.643,-6.513,434.384,159.178,-160.900,-57.200,204.290,-156.580
58,39169.859000,253.040,22.722,0.501,436.160,159.320,-155.925,-80.200,175.290,-147.580
59,39169.900000,249.094,15.653,-5.511,437.054,166.350,-152.715,-119.200,162.290,-151.580
60,39169.917000,251.067,19.692,6.513,433.543,164.752,-147.813,-83.200,163.290,-157.580
61,39169.957000,253.040,21.712,7.515,434.431,169.989,-146.647,-138.200,116.290,-159.580
62,39169.997000,253.040,25.751,10.521,434.444,176.149,-143.468,-124.200,76.290,-154.580
63,39170.37000,248.108,25.751,6.513,431.818,183.204,-139.276,-148.200,42.290,-154.580
64,39170.79000,253.040,30.801,10.521,433.593,189.366,-136.091,-195.200,6.290,-160.580
65,39170.119000,253.040,27.771,4.509,427.416,183.229,-138.296,-187.200,-3.710,-164.580
66,39170.157000,251.067,29.791,8.517,427.426,193.673,-136.964,-164.200,-6.710,-160.580
67,39170.176000,250.081,33.830,4.509,426.559,197.257,-132.879,-158.200,2.290,-170.580
68,39170.216000,253.040,33.830,9.519,422.172,205.179,-128.664,-166.200,0.290,-182.580
69,39170.260000,250.081,38.880,7.515,420.402,205.961,-131.623,-150.200,-3.710,-169.580
70,39170.316000,254.027,44.939,3.507,421.288,209.462,-130.514,-124.200,24.290,-174.580
71,39170.341000,246.135,39.890,8.517,416.879,210.270,-132.487,-80.200,57.290,-165.580
72,39170.380000,256.000,44.939,7.515,416.902,219.119,-126.242,-63.200,80.290,-151.580
73,39170.401000,248.108,49.988,10.521,416.908,223.487,-125.108,4.800,101.290,-124.580
74,39170.440000,250.081,55.037,16.532,416.910,226.091,-125.023,-20.200,88.290,-90.580
75,39170.476000,246.135,52.008,14.528,415.150,220.938,-123.210,-40.200,43.290,-53.580
76,39170.516000,246.135,54.028,14.528,416.040,221.891,-120.197,-46.200,12.290,-22.580
77,39170.557000,245.148,54.028,17.534,415.153,221.834,-122.188,-41.200,-17.710,1.420
78,39170.599000,250.081,48.978,9.519,414.272,224.410,-123.100,-21.200,-0.710,22.420
79,39170.645000,249.094,49.988,12.524,416.918,220.996,-121.216,-17.200,1.290,42.420
80,39170.660000,252.054,46.959,12.524,419.568,220.214,-118.254,-33.200,-17.710,61.420
81,39170.701000,247.121,50.998,14.528,419.557,215.790,-121.377,-29.200,-42.710,90.420
82,39170.745000,249.094,46.959,12.524,421.326,221.895,-120.180,-9.200,-54.710,108.420
83,39170.779000,248.108,43.929,10.521,416.916,218.392,-121.301,31.800,-54.710,114.420
84,39170.817000,251.067,37.870,10.521,419.551,219.177,-124.246,26.800,-44.710,97.420
85,39170.864000,252.054,35.850,7.515,422.193,214.867,-123.384,6.800,-25.710,86.420
86,39170.881000,249.094,39.890,9.519,423.951,209.661,-123.548,72.800,9.290,88.420
87,39170.921000,248.108,35.850,12.524,425.710,208.766,-124.564,86.800,1.290,76.420
88,39170.960000,250.081,36.860,9.519,422.190,210.527,-123.525,-3.200,-29.710,59.420
89,39171.1000,249.094,37.870,8.517,422.179,206.971,-126.620,53.800,-18.710,60.420
90,39171.37000,249.094,36.860,6.513,423.053,201.735,-127.780,64.800,7.290,64.420
91,39171.79000,251.067,33.830,8.517,428.346,207.843,-126.572,55.800,23.290,60.420
92,39171.125000,250.081,36.860,12.524,426.573,200.842,-128.790,81.800,29.290,57.420
93,39171.139000,249.094,36.860,13.526,427.455,198.267,-127.878,51.800,-3.710,58.420
94,39171.179000,250.081,34.840,11.523,426.576,196.558,-126.943,37.800,-29.710,60.420
95,39171.222000,250.081,33.830,8.517,427.453,202.550,-129.725,50.800,-33.710,60.420
96,39171.261000,251.067,33.830,10.521,429.203,198.127,-132.842,34.800,-34.710,54.420
97,39171.301000,250.081,31.811,9.519,430.091,196.476,-129.914,21.800,-32.710,50.420
98,39171.339000,248.108,30.801,9.519,431.852,194.741,-129.964,34.800,-36.710,50.420
99,39171.359000,251.067,29.791,8.517,430.967,193.845,-130.989,26.800,-44.710,49.420
100,39171.399000,251.067,28.781,6.513,430.971,195.609,-129.939,21.800,-41.710,45.420
101,39171.437000,251.067,31.811,7.515,430.956,193.732,-134.965,22.800,-35.710,39.420
102,39171.479000,255.013,27.771,5.511,432.711,184.185,-135.269,10.800,-26.710,39.420
103,39171.520000,249.094,29.791,5.511,432.719,191.157,-134.050,23.800,-23.710,38.420
104,39171.560000,251.067,30.801,7.515,430.075,190.287,-134.087,14.800,-38.710,35.420
105,39171.600000,251.067,27.771,5.511,430.951,190.232,-136.072,22.800,-40.710,34.420
106,39171.617000,254.027,27.771,6.513,433.588,191.045,-138.023,15.800,-40.710,29.420
107,39171.658000,253.040,29.791,1.503,428.301,188.438,-138.124,10.800,-32.710,25.420
108,39171.704000,253.040,27.771,2.505,434.458,183.178,-140.261,18.800,-20.710,25.420
109,39171.737000,250.081,28.781,1.503,432.694,184.016,-141.233,8.800,-15.710,19.420
110,39171.777000,252.054,26.761,5.511,433.577,184.045,-140.236,12.800,-18.710,16.420
111,39171.822000,253.040,26.761,4.509,430.045,183.090,-143.257,6.800,-15.710,15.420
112,39171.862000,251.067,25.751,2.505,431.825,185.864,-137.203,9.800,-12.710,12.420
113,39171.880000,252.054,26.761,1.503,430.935,188.355,-141.097,4.800,-9.710,7.420
114,39171.925000,251.067,24.742,1.503,428.277,179.589,-144.369,0.800,-7.710,3.420
115,39171.960000,252.054,26.761,5.511,431.817,185.780,-140.185,-1.200,-8.710,2.420
116,39172.4000,252.054,26.761,4.509,431.820,186.676,-139.163,4.800,-6.710,2.420
117,39172.45000,253.040,25.751,5.511,431.812,186.591,-142.145,3.800,-6.710,1.420
118,39172.85000,252.054,23.732,1.503,429.171,184.882,-141.216,0.800,-1.710,-0.580
119,39172.104000,251.067,25.751,3.507,430.933,181.439,-140.329,6.800,2.290,-1.580
120,39172.142000,253.040,27.771,2.505,432.681,185.611,-146.146,1.800,8.290,-2.580
121,39172.184000,254.027,26.761,1.503,432.694,180.572,-140.351,-1.200,19.290,-2.580
122,39172.225000,252.054,27.771,6.513,430.933,181.439,-140.329,-2.200,12.290,-7.580
123,39172.260000,250.081,25.751,0.501,430.059,183.231,-138.288,-2.200,12.290,-5.580
124,39172.299000,251.067,27.771,4.509,430.936,182.335,-139.307,1.800,15.290,-6.580
125,39172.340000,253.040,28.781,4.509,431.823,186.704,-138.169,-5.200,11.290,-5.580
126,39172.359000,252.054,28.781,6.513,431.823,190.148,-139.050,11.800,10.290,-2.580
127,39172.400000,250.081,25.751,5.511,433.579,185.781,-140.180,2.800,1.290,-3.580
128,39172.446000,251.067,26.761,6.513,430.938,188.383,-140.104,-2.200,0.290,-0.580
129,39172.484000,252.054,26.761,6.513,431.820,186.676,-139.163,2.800,1.290,-1.580
130,39172.526000,252.054,27.771,7.515,431.819,181.496,-138.338,-0.200,-4.710,-2.580
131,39172.566000,252.054,27.771,5.511,431.814,181.440,-140.326,-0.200,-3.710,-2.580
132,39172.585000,252.054,26.761,5.511,430.944,188.439,-138.116,-2.200,-6.710,-4.580
133,39172.624000,251.067,27.771,5.511,430.065,187.599,-137.153,-5.200,-13.710,-4.580
134,39172.661000,252.054,25.751,5.511,432.703,189.281,-139.076,-0.200,-13.710,-3.580
135,39172.701000,252.054,28.781,4.509,429.180,186.702,-138.178,-8.200,-13.710,-4.580
136,39172.741000,253.040,27.771,4.509,430.941,184.967,-138.228,-9.200,-11.710,-3.580
137,39172.781000,252.054,26.761,5.511,430.050,183.146,-141.269,-8.200,-9.710,-3.580
138,39172.826000,249.094,28.781,4.509,431.827,188.468,-137.119,0.800,-6.710,-1.580
139,39172.841000,252.054,26.761,2.505,431.822,188.412,-139.107,-3.200,-2.710,-0.580
140,39172.884000,252.054,26.761,1.503,431.827,187.600,-137.147,-3.200,1.290,-1.580
141,39172.924000,251.067,28.781,5.511,432.696,187.488,-141.120,-1.200,-2.710,2.420
142,39172.962000,252.054,28.781,4.509,426.529,182.304,-140.315,-0.200,-2.710,2.420
143,39173.2000,251.067,28.781,4.509,430.057,181.495,-138.344,-2.200,0.290,1.420
144,39173.46000,251.067,27.771,4.509,433.575,184.885,-141.202,0.800,8.290,1.420
145,39173.66000,252.054,26.761,5.511,431.825,185.864,-137.203,0.800,9.290,2.420
146,39173.105000,250.081,25.751,4.509,432.700,189.252,-140.070,3.800,6.290,0.420
147,39173.146000,253.040,26.761,7.515,432.709,189.337,-137.088,-5.200,-5.710,1.420
148,39173.185000,252.054,30.801,4.509,433.585,190.149,-139.045,4.800,-5.710,5.420
149,39173.226000,251.067,28.781,7.515,430.060,188.411,-139.113,10.800,-7.710,8.420
150,39173.265000,254.027,28.781,5.511,432.710,187.629,-136.150,0.800,-16.710,9.420
151,39173.306000,252.054,27.771,4.509,430.059,187.543,-139.141,14.800,-19.710,13.420
152,39173.327000,252.054,26.761,4.509,429.179,188.410,-139.115,4.800,-29.710,14.420
153,39173.367000,251.067,25.751,1.503,430.054,184.910,-140.219,-1.200,-21.710,14.420
154,39173.400000,252.054,25.751,-0.501,430.926,179.647,-142.373,-5.200,-3.710,9.420
155,39173.441000,251.067,29.791,6.513,429.174,189.222,-141.075,-14.200,11.290,3.420
156,39173.484000,252.054,29.791,5.511,434.454,181.414,-141.311,-11.200,7.290,7.420
157,39173.524000,252.054,25.751,6.513,432.699,183.205,-139.273,-8.200,-7.710,7.420
158,39173.561000,252.054,26.761,3.507,430.052,181.438,-140.332,-6.200,-18.710,6.420
159,39173.581000,253.040,27.771,4.509,432.699,187.516,-140.126,0.800,-15.710,9.420
160,39173.621000,252.054,25.751,1.503,433.583,187.545,-139.129,-5.200,-7.710,13.420
161,39173.661000,253.040,26.761,2.505,433.582,185.809,-139.186,-16.200,-1.710,5.420
162,39173.700000,251.067,24.742,4.509,430.053,183.174,-140.275,-3.200,-3.710,9.420
163,39173.744000,251.067,27.771,1.503,430.932,180.571,-140.357,13.800,-2.710,16.420
164,39173.781000,251.067,23.732,3.507,431.813,180.572,-140.354,11.800,-6.710,20.420
165,39173.804000,250.081,23.732,4.509,431.814,177.996,-139.445,25.800,-12.710,22.420
166,39173.841000,253.040,25.751,5.511,432.690,179.676,-141.373,54.800,-26.710,29.420
167,39173.886000,249.094,24.742,11.523,432.682,183.036,-145.236,77.800,-87.710,51.420
168,39173.927000,246.135,32.821,14.528,431.790,179.478,-148.334,130.800,-187.710,68.420
169,39173.967000,254.027,29.791,16.532,431.770,180.149,-155.263,-0.200,-330.710,100.420
170,39174.6000,254.027,28.781,20.540,427.335,176.392,-165.329,-20.200,-557.710,129.420
171,39174.47000,264.879,23.732,22.544,422.880,169.862,-181.443,-55.200,-793.710,167.420
172,39174.67000,303.353,4.544,24.548,420.197,169.466,-195.366,4.800,-1123.710,177.420
173,39174.114000,350.705,-13.633,21.542,410.439,165.339,-218.370,295.800,-1191.710,100.420
174,39174.140000,333.935,60.087,20.540,401.560,159.477,-241.428,352.800,-1135.710,306.420
175,39174.181000,216.540,17.673,-8.517,392.701,157.256,-258.409,-786.200,-893.710,488.420
176,39174.225000,168.200,12.623,42.583,394.507,167.171,-245.173,-748.200,244.290,228.420
177,39174.265000,163.268,-17.673,-1.503,406.022,172.111,-224.123,-1491.200,1031.290,338.420
178,39174.285000,198.782,-32.821,-67.632,422.886,177.674,-181.189,-1131.200,1581.290,452.420
179,39174.325000,230.351,-1.515,-106.708,437.972,177.916,-142.407,-154.200,1633.290,420.420
180,39174.365000,211.607,50.998,-172.838,452.145,172.667,-113.735,185.800,1313.290,337.420
181,39174.405000,245.148,52.008,-226.943,453.042,175.413,-108.678,309.800,30.290,27.420
182,39174.441000,261.919,1.515,75.648,450.375,176.025,-117.604,415.800,-97.710,-41.580
183,39174.482000,354.651,-58.067,-21.542,450.360,171.572,-121.720,66.800,-194.710,88.420
184,39174.525000,261.919,-45.949,-81.659,450.373,173.421,-117.688,-83.200,157.290,69.420
185,39174.546000,215.553,-15.653,-123.742,455.661,162.254,-114.061,36.800,354.290,102.420
186,39174.586000,226.405,43.929,-187.867,455.676,162.395,-109.092,-45.200,363.290,290.420
187,39174.625000,227.391,139.866,-235.961,458.305,155.368,-112.290,-342.200,-539.710,105.420
188,39174.662000,230.351,59.077,-172.838,446.749,156.921,-149.018,565.800,-1268.710,-251.580
189,39174.702000,246.135,72.205,-136.767,431.666,145.509,-184.191,2610.800,-1570.710,-733.580
190,39174.754000,271.784,88.363,-101.699,410.344,124.763,-242.526,3772.800,-1745.710,-1015.580
191,39174.767000,266.852,167.132,-102.701,384.613,75.540,-295.841,4418.800,-1734.710,-959.580
192,39174.809000,275.730,208.536,-106.708,356.275,28.389,-337.182,4589.800,-1600.710,-1324.580
193,39174.846000,242.189,201.467,-136.767,342.074,-37.285,-359.218,4927.800,-1441.710,-1680.580
194,39174.889000,228.378,204.497,-143.781,338.523,-74.611,-360.441,5856.800,-1077.710,-1997.580
195,39174.929000,230.351,213.586,-131.757,344.686,-140.992,-346.687,4919.800,-1168.710,-1684.580
196,39174.969000,217.526,157.034,-90.677,342.903,-169.637,-347.622,2203.800,-1303.710,-1243.580
197,39175.10000,222.459,86.343,-57.613,344.626,-160.539,-363.209,637.800,-1066.710,-1189.580
198,39175.22000,232.324,68.166,-58.614,346.370,-158.130,-370.077,853.800,-407.710,-1114.580
199,39175.69000,241.202,50.998,-49.597,358.714,-155.433,-366.971,1193.800,-61.710,-960.580
200,39175.109000,259.946,38.880,-11.523,375.461,-150.156,-364.760,551.800,95.290,-785.580
201,39175.149000,183.985,-18.682,25.550,387.806,-138.835,-363.360,160.800,508.290,-484.580
202,39175.182000,207.661,-78.264,97.691,408.979,-121.291,-356.765,-596.200,1044.290,-486.580
203,39175.225000,224.432,50.998,-242.975,428.419,-102.598,-340.208,-56.200,929.290,-200.580
204,39175.244000,311.245,43.929,0.501,441.662,-78.172,-335.401,-910.200,456.290,-342.580
205,39175.284000,303.353,60.087,-28.556,450.485,-72.005,-332.194,271.800,106.290,-42.580
206,39175.324000,320.123,122.698,-48.595,449.583,-69.627,-340.063,-433.200,-138.710,-70.580
207,39175.376000,378.328,-107.550,-117.730,446.042,-80.998,-343.423,635.800,-361.710,219.420
208,39175.406000,440.478,-52.008,-68.634,430.143,-84.008,-357.473,-67.200,-943.710,127.420
209,39175.442000,511.507,-45.949,53.605,400.119,-94.226,-380.740,326.800,-1399.710,84.420
210,39175.486000,312.231,184.300,-93.683,348.044,-101.269,-413.904,-1011.200,-2302.710,587.420
211,39175.506000,146.497,-3.535,-157.808,310.098,-97.633,-437.739,-1681.200,-1828.710,793.420
212,39175.549000,106.050,76.245,34.568,271.297,-78.232,-456.101,-2410.200,-752.710,1528.420
213,39175.589000,157.349,7.574,50.599,260.740,-59.144,-455.515,-1946.200,325.290,1918.420
214,39175.629000,182.012,61.097,1.503,269.597,-67.282,-436.884,-792.200,1271.290,2151.420
215,39175.667000,216.540,171.172,-55.609,289.029,-62.449,-419.784,-2171.200,2001.290,2153.420
216,39175.706000,214.566,208.536,-91.679,313.792,-24.431,-394.639,-4355.200,2112.290,2049.420
217,39175.726000,257.973,158.043,-117.730,346.529,37.310,-358.769,-5207.200,2159.290,2136.420
218,39175.764000,262.906,207.527,-109.714,380.182,78.727,-305.682,-4607.200,2181.290,2076.420
219,39175.806000,257.973,236.813,-128.751,405.904,112.355,-251.880,-5111.200,1850.290,1750.420
220,39175.845000,261.919,201.467,-153.800,425.428,140.488,-208.206,-5527.200,1381.290,1288.420
221,39175.884000,219.499,186.320,-154.802,435.281,166.236,-156.696,-3130.200,846.290,455.420
222,39175.924000,175.106,257.010,-232.955,433.555,176.932,-146.425,-346.200,165.290,-364.580
223,39175.964000,227.391,-78.264,0.501,422.957,190.446,-158.929,1136.800,-456.710,-999.580
224,39175.989000,218.513,-166.122,-218.928,425.582,192.855,-165.793,608.800,-101.710,-190.580
225,39176.27000,251.067,77.254,-68.634,418.576,207.048,-154.432,-2278.200,-93.710,-397.580
226,39176.62000,269.811,20.702,-5.511,415.096,220.403,-142.094,-200.200,304.290,-314.580
227,39176.106000,266.852,40.899,-10.521,413.344,223.090,-139.034,-411.200,96.290,-215.580
228,39176.146000,256.987,37.870,9.519,415.108,225.696,-138.944,-25.200,5.290,-229.580
229,39176.186000,258.960,71.195,-20.540,412.473,232.666,-137.733,-153.200,6.290,-166.580
230,39176.224000,214.566,71.195,-25.550,409.841,238.796,-135.556,-181.200,25.290,-127.580
231,39176.244000,253.040,22.722,-16.532,406.326,239.746,-132.558,-46.200,-10.710,-71.580
232,39176.287000,241.202,62.107,-18.536,407.218,238.991,-128.607,-376.200,-13.710,-115.580
233,39176.329000,251.067,4.544,-18.536,406.328,238.906,-131.592,-159.200,-33.710,-43.580
234,39176.369000,259.946,16.663,6.513,403.675,236.216,-134.667,60.800,-203.710,-34.580
235,39176.409000,249.094,33.830,-27.554,405.431,243.916,-138.383,-167.200,-313.710,-47.580
236,39176.444000,257.973,32.821,-18.536,401.012,243.772,-143.367,-138.200,-367.710,-19.580
237,39176.466000,225.418,27.771,-9.519,401.883,248.840,-148.165,-24.200,-533.710,-49.580
238,39176.506000,252.054,35.850,-69.636,392.148,250.118,-164.042,2.800,-658.710,-114.580
239,39176.544000,253.040,48.978,-76.650,387.729,245.663,-168.173,153.800,-365.710,-115.580
240,39176.590000,252.054,35.850,-101.699,386.827,244.597,-175.161,105.800,-19.710,-141.580
241,39176.629000,265.865,34.840,-71.640,389.488,249.079,-170.043,111.800,411.290,-187.580
242,39176.675000,269.811,40.899,-49.597,388.621,249.220,-165.076,263.800,583.290,-190.580
243,39176.709000,219.499,106.540,-30.560,391.290,253.787,-156.975,237.800,579.290,-150.580
244,39176.729000,238.243,63.116,-13.526,392.208,258.466,-144.904,-43.200,435.290,-33.580
245,39176.769000,232.324,61.097,-10.521,391.330,251.605,-142.151,-122.200,248.290,-28.580
246,39176.810000,233.310,44.939,-1.503,393.116,261.324,-135.872,-96.200,10.290,-42.580
247,39176.847000,254.027,38.880,-11.523,390.478,263.086,-134.830,-444.200,-205.710,-83.580
248,39176.884000,247.121,44.939,-13.526,387.826,263.000,-137.820,-220.200,-311.710,-71.580
249,39176.925000,264.879,43.929,-38.575,383.415,265.516,-140.732,-159.200,-256.710,-95.580
250,39176.947000,251.067,70.185,-45.589,385.184,275.065,-140.416,-311.200,-112.710,-70.580
251,39176.984000,252.054,61.097,-35.569,381.670,272.571,-136.537,-478.200,-52.710,-37.580
252,39177.27000,240.216,70.185,-23.546,384.330,280.498,-132.299,-457.200,-68.710,-9.580
253,39177.69000,248.108,37.870,-25.550,379.053,277.135,-128.453,-354.200,-56.710,3.420
254,39177.109000,238.243,78.264,-13.526,381.702,281.505,-127.310,-290.200,-103.710,-21.580
255,39177.145000,249.094,66.146,-51.601,379.948,280.720,-124.362,-445.200,-149.710,11.420
256,39177.191000,250.081,54.028,-30.560,381.722,286.014,-121.205,-399.200,-134.710,48.420
257,39177.205000,223.445,49.988,7.515,381.709,283.297,-125.266,-75.200,-364.710,34.420
258,39177.246000,249.094,53.018,-25.550,374.637,289.086,-135.030,-315.200,-517.710,-22.580
259,39177.290000,236.270,74.225,9.519,376.379,288.890,-141.982,151.800,-796.710,25.420
260,39177.330000,266.852,8.584,-59.616,370.175,288.520,-154.923,-61.200,-821.710,-48.580
261,39177.370000,233.310,71.195,-89.675,362.201,288.063,-170.851,158.800,-668.710,-136.580
262,39177.411000,247.121,31.811,-111.718,356.887,286.910,-180.835,-0.200,-348.710,-120.580
263,39177.447000,245.148,74.225,-151.796,359.534,288.676,-179.777,79.800,105.290,-135.580
264,39177.471000,250.081,52.008,-88.673,361.311,290.554,-174.745,37.800,552.290,3.420
265,39177.505000,244.162,33.830,-72.642,364.881,295.319,-159.684,-109.200,748.290,-29.580
266,39177.549000,238.243,75.235,-33.566,371.084,295.690,-146.743,155.800,749.290,4.420
267,39177.590000,226.405,66.146,-11.523,368.449,290.592,-142.945,256.800,525.290,43.420
268,39177.630000,229.364,70.185,-32.564,375.518,285.643,-134.146,154.800,398.290,79.420
269,39177.666000,246.135,67.156,-41.581,377.280,285.644,-134.140,390.800,343.290,78.420
270,39177.687000,251.067,41.909,-32.564,379.044,277.050,-131.435,394.800,407.290,74.420
271,39177.726000,244.162,65.136,-36.571,383.454,271.930,-128.608,415.800,345.290,77.420
272,39177.771000,246.135,61.097,-13.526,386.089,272.715,-131.553,478.800,301.290,105.420
273,39177.811000,237.256,54.028,-26.552,387.856,272.773,-129.559,342.800,282.290,132.420
274,39177.851000,248.108,63.116,-11.523,392.244,264.851,-133.774,619.800,243.290,119.420
275,39177.885000,236.270,77.254,-18.536,397.530,262.279,-132.848,171.800,154.290,142.420
276,39177.935000,256.000,40.899,-21.542,398.403,254.440,-134.092,232.800,121.290,201.420
277,39177.947000,243.175,28.781,-23.546,401.042,252.678,-135.134,283.800,137.290,160.420
278,39177.989000,248.108,57.057,-9.519,403.691,245.848,-131.375,14.800,96.290,139.420
279,39178.26000,254.027,38.880,-22.544,406.332,240.670,-130.542,124.800,85.290,209.420
280,39178.69000,244.162,29.791,-13.526,408.096,242.408,-130.480,71.800,26.290,202.420
281,39178.109000,249.094,42.919,-1.503,410.734,239.777,-131.550,49.800,-98.710,168.420
282,39178.151000,241.202,42.919,-8.517,411.591,234.373,-138.673,127.800,-181.710,215.420
283,39178.171000,251.067,58.067,-9.519,410.699,230.816,-141.770,-104.200,-276.710,279.420
284,39178.211000,264.879,8.584,-14.528,415.081,223.706,-147.945,4.800,-374.710,269.420
285,39178.249000,257.973,0.505,-46.591,413.294,212.252,-154.280,-82.200,-419.710,207.420
286,39178.289000,251.067,32.821,-57.613,414.161,212.980,-159.219,200.800,-300.710,186.420
287,39178.327000,255.013,27.771,-56.611,416.781,208.444,-166.309,172.800,-79.710,217.420
288,39178.369000,252.054,16.663,-37.573,415.902,203.292,-164.493,195.800,-28.710,206.420
289,39178.407000,248.108,14.643,-29.558,418.534,204.049,-168.432,239.800,-36.710,131.420
290,39178.426000,244.162,27.771,-33.566,420.293,199.711,-168.567,462.800,7.290,40.420
291,39178.469000,244.162,34.840,-51.601,418.504,193.408,-176.721,524.800,23.290,6.420
292,39178.506000,244.162,23.732,-65.628,421.129,184.617,-180.970,371.800,-21.710,-35.580
293,39178.549000,244.162,29.791,-62.622,420.255,189.853,-179.810,225.800,-89.710,-84.580
294,39178.591000,242.189,-12.623,-22.544,418.476,189.682,-185.779,183.800,-44.710,-99.580
295,39178.626000,242.189,-21.712,-4.509,421.109,180.108,-187.074,721.800,233.290,-25.580
296,39178.646000,253.040,16.663,-53.605,423.751,180.110,-187.066,520.800,199.290,-7.580
297,39178.686000,245.148,6.564,-42.583,425.514,176.668,-186.179,145.800,120.290,65.420
298,39178.726000,252.054,10.604,-31.562,421.994,171.541,-183.377,44.800,115.290,59.420
299,39178.766000,261.919,2.525,-30.560,427.286,172.470,-181.344,174.800,114.290,51.420
300,39178.809000,259.946,10.604,-25.550,430.808,169.000,-181.446,117.800,115.290,24.420
301,39178.851000,247.121,3.535,-32.564,429.053,167.347,-178.526,19.800,101.290,9.420
302,39178.891000,245.148,6.564,-34.568,431.703,172.586,-177.354,47.800,100.290,6.420
303,39178.910000,248.108,7.574,-25.550,431.710,174.378,-175.310,29.800,80.290,11.420
304,39178.946000,255.013,13.633,-25.550,428.184,175.215,-176.287,33.800,72.290,11.420
305,39178.986000,247.121,8.584,-25.550,432.590,170.067,-174.454,21.800,60.290,9.420
306,39179.26000,254.027,6.564,-26.552,433.474,165.784,-172.604,63.800,31.290,10.420
307,39179.72000,253.040,9.594,-28.556,430.828,165.754,-173.607,25.800,20.290,6.420
308,39179.112000,250.081,9.594,-29.558,436.113,169.201,-174.471,38.800,36.290,3.420
309,39179.147000,251.067,8.584,-26.552,433.487,168.500,-168.544,-9.200,40.290,8.420
310,39179.167000,259.946,4.544,-27.554,429.956,170.149,-171.481,-31.200,35.290,17.420
311,39179.219000,251.067,5.554,-23.546,434.361,166.709,-170.586,29.800,48.290,12.420
312,39179.247000,248.108,7.574,-22.544,433.479,164.972,-170.645,5.800,21.290,8.420
313,39179.287000,250.081,9.594,-22.544,435.249,164.190,-167.686,-8.200,-6.710,13.420
314,39179.325000,252.054,8.584,-23.546,435.241,165.841,-170.611,2.800,-29.710,24.420
315,39179.370000,253.040,4.544,-17.534,435.247,169.341,-169.504,27.800,-63.710,17.420
316,39179.386000,255.013,7.574,-23.546,435.229,168.304,-175.496,-8.200,-89.710,20.420
317,39179.430000,249.094,1.515,-23.546,434.357,168.388,-172.517,-0.200,-126.710,22.420
318,39179.467000,253.040,9.594,-19.538,435.216,166.456,-179.528,24.800,-202.710,30.420
319,39179.510000,254.027,9.594,-16.532,429.037,161.159,-182.699,-29.200,-285.710,27.420
320,39179.550000,260.933,7.574,-25.550,429.018,161.830,-189.628,-38.200,-351.710,20.420
321,39179.587000,272.771,2.525,-24.548,425.471,161.602,-197.591,-36.200,-358.710,2.420
322,39179.632000,262.906,-0.505,-34.568,421.935,163.194,-202.515,22.800,-398.710,-23.580
323,39179.652000,274.744,10.604,-37.573,415.739,166.352,-213.355,153.800,-515.710,-81.580
324,39179.692000,271.784,11.613,-44.587,410.433,169.595,-221.211,212.800,-517.710,-85.580
325,39179.727000,256.000,-3.535,-52.603,408.646,169.340,-230.162,-246.200,-501.710,34.420
326,39179.767000,253.040,0.505,-8.517,403.365,176.280,-229.954,-998.200,-242.710,157.420
327,39179.812000,240.216,-21.712,1.503,407.793,177.377,-221.960,-723.200,113.290,248.420
328,39179.850000,246.135,-0.505,-13.526,413.119,185.531,-209.763,-323.200,484.290,303.420
329,39179.866000,253.040,0.505,-29.558,422.854,184.252,-193.885,-133.200,753.290,264.420
330,39179.914000,273.757,7.574,-22.544,432.595,180.455,-175.110,22.800,845.290,162.420
331,39179.954000,261.919,-3.535,-33.566,438.834,179.455,-149.305,-93.200,828.290,125.420
332,39179.992000,262.906,-4.544,-46.591,441.509,177.191,-137.454,-103.200,774.290,230.420
333,39180.34000,234.297,6.564,-70.638,445.076,173.305,-121.681,-96.200,571.290,187.420
334,39180.72000,205.688,17.673,-65.628,449.509,177.033,-112.609,-40.200,271.290,207.420
335,39180.112000,189.904,36.860,-75.648,449.513,171.910,-109.796,-282.200,-159.710,68.420
336,39180.134000,203.715,41.909,-52.603,447.748,182.212,-113.439,-772.200,-535.710,-29.580
337,39180.172000,224.432,1.515,-53.605,444.198,185.400,-123.277,-68.200,-569.710,-106.580
338,39180.215000,201.742,-42.919,-111.718,442.403,183.352,-134.272,28.800,-534.710,78.420
339,39180.250000,264.879,-87.353,-136.767,442.374,182.203,-144.239,-28.200,-277.710,164.420
340,39180.290000,290.528,-18.682,-128.751,445.904,171.062,-139.625,496.800,282.290,57.420
341,39180.330000,220.486,65.136,-142.779,448.558,162.553,-133.934,643.800,921.290,2.420
342,39180.350000,257.973,86.343,-244.978,454.749,158.499,-124.116,1059.800,738.290,150.420
343,39180.387000,230.351,209.546,-190.873,452.919,150.066,-146.241,1653.800,-386.710,-413.580
344,39180.434000,256.000,62.107,-189.871,435.150,145.985,-198.066,2215.800,-1688.710,-949.580
345,39180.491000,252.054,80.284,-156.806,414.751,132.550,-243.252,3705.800,-1979.710,-1344.580
346,39180.507000,250.081,97.452,-67.632,381.075,94.352,-305.172,4780.800,-1982.710,-1513.580
347,39180.547000,277.703,147.945,-62.622,353.602,34.125,-348.920,5221.800,-1623.710,-1321.580
348,39180.594000,278.690,258.020,-89.675,339.405,-38.408,-368.200,5104.800,-1166.710,-1200.580
349,39180.607000,221.472,175.211,-90.677,341.131,-68.060,-374.122,3069.800,-1016.710,-1252.580
350,39180.652000,212.593,155.014,-99.695,336.692,-95.112,-379.979,2535.800,-842.710,-1364.580
351,39180.691000,244.162,134.817,-80.658,342.841,-115.099,-381.600,2007.800,-594.710,-1476.580
352,39180.731000,233.310,66.146,-62.622,357.839,-127.798,-371.042,2450.800,-136.710,-1407.580
353,39180.769000,244.162,50.998,-76.650,378.129,-154.213,-354.953,2682.800,166.290,-1083.580
354,39180.807000,230.351,43.929,-36.571,385.193,-162.662,-347.261,1741.800,183.290,-773.580
355,39180.849000,229.364,-0.505,-49.597,398.425,-158.172,-342.107,-66.200,160.290,-340.580
356,39180.869000,243.175,-1.515,17.534,406.331,-131.681,-356.117,-1246.200,76.290,-210.580
357,39180.909000,203.715,2.525,35.569,412.504,-88.530,-363.634,-1707.200,174.290,-267.580
358,39180.954000,215.553,-49.988,-30.560,427.505,-73.622,-358.138,421.800,834.290,-22.580
359,39180.994000,183.985,66.146,-68.634,439.868,-69.019,-349.012,-69.200,466.290,-400.580
360,39181.32000,511.507,239.842,159.812,450.464,-61.871,-341.795,276.800,326.290,-26.580
361,39181.71000,433.572,-69.176,-8.517,431.035,-20.141,-368.307,-2766.200,-1085.710,124.420
362,39181.91000,229.364,-31.811,-271.029,433.656,-27.253,-374.487,598.800,-63.710,153.420
363,39181.134000,269.811,-1.515,-156.806,437.188,-34.921,-369.760,-2.200,348.290,219.420
364,39181.174000,283.622,54.028,-50.599,439.849,-40.770,-361.997,244.800,292.290,120.420
365,39181.209000,419.761,11.613,-53.605,437.207,-43.348,-361.096,-81.200,-56.710,243.420
366,39181.249000,386.220,-66.146,1.503,422.191,-40.309,-375.940,-628.200,-706.710,112.420
367,39181.289000,320.123,-36.860,58.614,393.950,-39.969,-393.894,-976.200,-1625.710,100.420
368,39181.331000,318.150,-1.515,-104.704,348.046,-34.044,-428.603,-807.200,-2038.710,189.420
369,39181.351000,209.634,18.682,-9.519,299.522,-31.340,-454.489,-652.200,-1581.710,475.420
370,39181.391000,149.457,-18.682,41.581,274.832,-39.339,-460.785,-493.200,-792.710,853.420
371,39181.429000,146.497,44.939,-4.509,268.671,-54.798,-455.349,88.800,201.290,1263.420
372,39181.469000,162.281,80.284,-34.568,279.293,-63.775,-435.746,-690.200,1361.290,1523.420
373,39181.510000,192.863,160.063,-73.644,303.158,-47.458,-411.308,-2295.200,1865.290,1614.420
374,39181.551000,237.256,174.201,-114.724,329.690,-3.334,-384.967,-3970.200,2069.290,1748.420
375,39181.571000,274.744,170.162,-114.724,350.928,29.501,-359.009,-4606.200,2085.290,1838.420
376,39181.607000,302.366,188.339,-120.736,380.158,76.766,-313.690,-4291.200,1920.290,1717.420
377,39181.647000,278.690,207.527,-147.789,403.232,114.647,-262.737,-4300.200,1639.290,1399.420
378,39181.689000,242.189,147.945,-182.857,418.343,140.117,-221.149,-3671.200,768.290,989.420
379,39181.729000,194.836,152.994,-159.812,427.224,149.451,-197.979,-2741.200,241.290,597.420
380,39181.781000,189.904,75.235,-113.722,425.523,170.732,-181.406,-1804.200,166.290,309.420
381,39181.810000,215.553,69.176,-96.689,429.974,172.054,-165.461,-874.200,373.290,81.420
382,39181.830000,209.634,94.422,-143.781,431.758,178.301,-159.295,-190.200,421.290,-237.580
383,39181.869000,284.609,7.574,-17.534,425.600,186.136,-158.067,330.800,28.290,-496.580
384,39181.910000,252.054,21.712,-99.695,428.251,197.422,-157.693,-149.200,61.290,-382.580
385,39181.950000,310.258,-74.225,-41.581,424.768,210.749,-146.349,-1234.200,-48.710,-348.580
386,39181.991000,256.987,88.363,-33.566,417.738,223.849,-142.967,-515.200,193.290,-383.580
387,39182.32000,227.391,88.363,-19.538,417.790,235.555,-127.692,-722.200,300.290,-301.580
388,39182.71000,277.703,5.554,-18.536,416.038,234.799,-123.750,-254.200,258.290,-164.580
389,39182.87000,252.054,13.633,1.503,417.818,239.281,-118.634,-136.200,-46.710,-152.580
390,39182.127000,235.283,56.047,-2.505,411.647,245.268,-121.439,-146.200,-204.710,-121.580
391,39182.170000,249.094,39.890,-17.534,411.632,240.815,-125.555,-191.200,-278.710,-62.580
392,39182.210000,248.108,20.702,-12.524,408.101,249.352,-130.254,-111.200,-395.710,-94.580
393,39182.255000,247.121,17.673,-17.534,404.560,253.492,-137.082,-100.200,-503.710,-145.580
394,39182.291000,259.946,34.840,0.501,394.839,254.043,-148.019,-86.200,-757.710,-170.580
395,39182.314000,245.148,24.742,-106.708,392.153,256.194,-163.845,283.800,-621.710,-199.580
396,39182.351000,238.243,65.136,-91.679,385.072,253.275,-174.886,311.800,-342.710,-238.580
397,39182.389000,262.906,29.791,-80.658,384.193,260.191,-175.657,204.800,113.290,-248.580
398,39182.435000,261.919,46.959,-73.644,385.085,259.436,-171.707,267.800,494.290,-265.580
399,39182.476000,247.121,75.235,-54.607,381.582,264.810,-165.585,286.800,524.290,-206.580
400,39182.516000,254.027,82.304,-39.577,387.761,265.796,-161.562,295.800,402.290,-13.580
401,39182.556000,222.459,57.057,-33.566,388.649,260.701,-157.752,-32.200,391.290,50.420
402,39182.575000,232.324,25.751,-29.558,388.679,258.407,-146.904,-205.200,278.290,-21.580
403,39182.610000,248.108,62.107,-20.540,389.579,265.492,-141.706,-192.200,129.290,-65.580
404,39182.650000,220.486,75.235,-27.554,393.112,267.315,-138.656,-305.200,47.290,-42.580
405,39182.690000,242.189,58.067,-15.530,391.373,275.295,-132.445,-634.200,-122.710,-6.580
406,39182.735000,256.000,48.978,-3.507,390.497,277.058,-131.398,-680.200,-286.710,9.420
407,39182.774000,248.108,41.909,-36.571,386.112,285.876,-126.161,-886.200,-357.710,-23.580
408,39182.792000,255.013,54.028,-42.583,382.611,289.543,-119.102,-894.200,-330.710,-35.580
409,39182.836000,246.135,43.929,-40.579,381.738,293.070,-117.004,-644.200,-304.710,-32.580
410,39182.870000,233.310,78.264,-1.503,381.736,290.466,-117.089,-745.200,-458.710,60.420
411,39182.914000,240.216,25.751,-63.624,384.382,293.940,-116.968,-283.200,-493.710,116.420
412,39182.954000,244.162,55.037,-40.579,380.824,290.156,-128.025,30.800,-423.710,-24.580
413,39182.989000,215.553,151.984,-6.513,379.907,286.345,-140.067,173.800,-805.710,57.420
414,39183.40000,182.012,42.919,-149.793,372.830,289.502,-150.910,-406.200,-682.710,-35.580
415,39183.56000,305.326,19.692,-63.624,371.058,294.568,-155.717,78.800,-279.710,-154.580
416,39183.90000,194.836,11.613,-109.714,363.117,292.714,-159.774,-364.200,-403.710,-172.580
417,39183.130000,279.676,96.442,-122.740,359.571,289.910,-166.828,780.800,187.290,-152.580
418,39183.169000,234.297,36.860,-97.691,364.891,301.451,-157.499,-163.200,493.290,-58.580
419,39183.215000,232.324,81.294,-76.650,367.556,293.055,-147.833,287.800,664.290,-21.580
420,39183.251000,240.216,76.245,-62.622,371.108,301.095,-139.617,307.800,741.290,10.420
421,39183.271000,218.513,70.185,-36.571,376.419,297.040,-129.801,345.800,727.290,53.420
422,39183.310000,244.162,43.929,-15.530,379.957,293.740,-123.939,336.800,562.290,96.420
423,39183.350000,247.121,73.215,-17.534,379.946,285.872,-126.181,576.800,403.290,101.420
424,39183.391000,229.364,82.304,-22.544,386.116,286.772,-125.139,415.800,325.290,119.420
425,39183.439000,244.162,48.978,-32.564,387.874,278.122,-124.421,489.800,315.290,91.420
426,39183.472000,236.270,70.185,-7.515,388.757,272.971,-122.599,293.800,224.290,25.420
427,39183.515000,248.108,35.850,-35.569,388.754,276.386,-124.474,442.800,196.290,80.420
428,39183.535000,246.135,66.146,-18.536,386.981,269.385,-126.693,346.800,148.290,92.420
429,39183.575000,236.270,43.929,-34.568,394.914,267.711,-124.736,469.800,240.290,101.420
430,39183.615000,256.987,57.057,-18.536,396.659,264.099,-129.813,274.800,144.290,162.420
431,39183.656000,252.054,48.978,-10.521,401.940,257.159,-130.021,292.800,58.290,158.420
432,39183.691000,244.162,39.890,-20.540,401.928,249.291,-132.262,400.800,34.290,137.420
433,39183.730000,251.067,36.860,-12.524,404.562,248.340,-135.264,217.800,-46.710,169.420
434,39183.771000,250.081,46.959,-10.521,405.421,241.228,-141.450,384.800,-136.710,156.420
435,39183.790000,257.973,38.880,-34.568,408.045,238.457,-147.489,249.800,-193.710,149.420
436,39183.835000,257.973,29.791,-10.521,403.607,232.096,-157.640,438.800,-260.710,196.420
437,39183.870000,287.568,43.929,29.558,403.576,232.654,-168.544,232.800,-582.710,96.420
438,39183.916000,325.056,40.899,6.513,397.352,220.019,-185.855,272.800,-827.710,14.420
439,39183.951000,307.299,-9.594,-40.579,391.128,218.583,-205.782,537.800,-787.710,-21.580
440,39183.996000,273.757,18.682,-54.607,386.692,221.714,-217.610,539.800,-653.710,-29.580
441,39184.15000,212.593,79.274,-54.607,382.249,219.608,-230.602,625.800,-319.710,-73.580
442,39184.50000,188.917,-10.604,13.526,388.408,209.197,-230.920,1124.800,504.290,75.420
443,39184.95000,261.919,1.515,-15.530,399.903,202.740,-214.211,262.800,1178.290,280.420
444,39184.131000,250.081,-1.515,-70.638,411.423,201.688,-190.377,-219.200,1381.290,384.420
445,39184.176000,249.094,-28.781,-55.609,427.368,194.818,-157.780,242.800,1534.290,449.420
446,39184.210000,155.376,-11.613,-194.881,437.109,183.264,-137.271,1216.800,1106.290,243.420
447,39184.250000,229.364,29.791,-265.018,439.744,179.738,-139.363,460.800,-249.710,39.420
448,39184.275000,225.418,0.505,-64.626,441.482,170.890,-145.602,379.800,-23.710,149.420
449,39184.311000,247.121,1.515,-52.603,437.964,174.388,-144.507,21.800,32.290,160.420
450,39184.350000,256.987,30.801,-74.646,444.130,165.768,-142.781,402.800,376.290,38.420
451,39184.392000,200.755,26.761,-146.787,449.431,163.337,-136.885,389.800,387.290,78.420
452,39184.432000,233.310,63.116,-178.849,447.647,149.335,-141.317,151.800,-84.710,229.420
453,39184.470000,256.000,61.097,-195.883,445.854,149.892,-152.228,-227.200,-987.710,-10.580
454,39184.496000,260.933,85.333,-152.798,433.385,140.776,-198.241,1414.800,-1608.710,-434.580
455,39184.531000,268.825,87.353,-95.687,406.798,128.847,-251.342,2403.800,-1839.710,-1049.580
456,39184.582000,262.906,118.659,-80.658,381.088,101.380,-301.965,3579.800,-1706.710,-1145.580
457,39184.620000,251.067,152.994,-81.659,365.125,71.880,-332.763,3982.800,-1580.710,-1173.580
458,39184.650000,228.378,140.876,-75.648,342.087,22.297,-368.208,3867.800,-1363.710,-1226.580
459,39184.692000,213.580,172.181,-72.642,329.683,-35.281,-380.046,3748.800,-1027.710,-1331.580
460,39184.732000,144.524,139.866,-73.644,334.948,-63.921,-380.958,2734.800,-424.710,-1421.580
461,39184.751000,171.160,120.679,-55.609,345.524,-75.925,-376.349,2712.800,233.290,-1488.580
462,39184.796000,279.676,66.146,-83.663,372.877,-101.325,-355.240,3024.800,678.290,-1320.580
463,39184.831000,279.676,84.323,-78.654,389.659,-118.109,-335.871,1431.800,276.290,-577.580
464,39184.876000,262.906,69.176,-43.585,403.747,-106.116,-341.394,-438.200,79.290,-610.580
465,39184.911000,258.960,-9.594,14.528,419.633,-59.289,-341.810,-1234.200,288.290,-747.580
466,39184.951000,280.663,-78.264,87.671,431.997,-47.771,-333.452,86.800,1173.290,-146.580
467,39184.977000,289.541,-60.087,133.761,462.049,-51.075,-297.716,1188.800,1706.290,-184.580
468,39185.12000,306.312,-135.826,-66.630,483.268,-69.254,-266.462,1926.800,1034.290,-260.580
469,39185.57000,404.963,13.633,54.607,486.790,-52.900,-270.885,-1891.200,-68.710,-178.580
470,39185.97000,199.769,88.363,-65.628,486.789,-46.881,-272.676,318.800,1.290,-144.580
471,39185.132000,247.121,107.550,-64.626,487.673,-46.852,-271.679,-77.200,-75.710,112.420
472,39185.177000,259.946,-20.702,-79.656,485.901,-52.985,-273.870,-13.200,-69.710,147.420
473,39185.212000,239.229,24.742,-36.571,478.839,-49.688,-279.743,-68.200,-179.710,140.420
474,39185.236000,272.771,24.742,-4.509,471.775,-59.325,-283.057,116.800,-453.710,175.420
475,39185.271000,363.530,-14.643,-11.523,459.380,-63.398,-304.082,81.800,-1096.710,173.420
476,39185.322000,393.125,-25.751,-11.523,432.853,-73.866,-336.283,-60.200,-1651.710,178.420
477,39185.352000,399.044,-3.535,5.511,391.341,-80.987,-372.394,19.800,-1985.710,218.420
478,39185.397000,278.690,81.294,-130.755,343.665,-85.507,-408.441,-860.200,-2028.710,515.420
479,39185.445000,180.039,85.333,2.505,315.440,-67.779,-424.837,-1832.200,-1227.710,796.420
480,39185.451000,145.511,8.584,34.568,289.880,-34.312,-436.742,-2509.200,-77.710,1383.420
481,39185.496000,164.254,44.939,-8.517,296.963,-32.232,-424.736,-1367.200,899.290,1763.420
482,39185.531000,190.890,91.393,-43.585,318.184,-29.721,-397.776,-1121.200,1676.290,1836.420
483,39185.579000,225.418,146.935,-114.724,340.268,-24.801,-377.686,-2578.200,2077.290,1592.420
484,39185.624000,239.229,169.152,-137.769,366.809,4.763,-344.866,-3118.200,1994.290,1242.420
485,39185.652000,263.892,140.876,-160.814,391.608,54.347,-309.415,-3779.200,1843.290,981.420
486,39185.692000,205.688,117.649,-172.838,416.430,96.400,-264.280,-4035.200,1574.290,856.420
487,39185.712000,215.553,137.846,-175.843,423.592,125.111,-230.556,-4538.200,1232.290,642.420
488,39185.759000,228.378,28.781,-144.783,433.451,154.359,-177.940,-4572.200,882.290,620.420
489,39185.791000,208.647,138.856,-143.781,444.134,178.732,-144.346,-3147.200,301.290,390.420
490,39185.835000,208.647,166.122,-204.900,441.578,197.691,-117.922,-2956.200,-209.710,-50.580
491,39185.874000,256.987,53.018,20.540,436.295,204.602,-118.707,-1354.200,-587.710,-404.580
492,39185.914000,251.067,-24.742,18.536,437.199,216.896,-113.341,-11.200,72.290,-357.580
493,39185.937000,318.150,-47.968,-93.683,432.805,228.205,-111.995,-796.200,-167.710,-339.580
494,39185.979000,271.784,-44.939,-47.593,427.546,241.390,-105.626,-908.200,6.290,-453.580
495,39186.19000,216.540,86.343,-51.601,426.687,247.634,-99.468,-267.200,270.290,-300.580
496,39186.51000,263.892,0.505,0.501,422.293,239.120,-93.800,-283.200,211.290,-231.580
497,39186.91000,277.703,25.751,2.505,415.253,249.531,-93.485,147.800,112.290,-227.580
498,39186.140000,254.027,38.880,16.532,417.013,254.684,-95.298,308.800,-31.710,-172.580
499,39186.180000,245.148,76.245,-43.585,416.132,254.683,-95.301,323.800,84.290,-80.580
500,39186.200000,224.432,89.373,-15.530,414.385,263.447,-92.043,-407.200,193.290,-125.580
501,39186.246000,231.337,48.978,16.532,415.299,266.361,-81.023,-703.200,90.290,-123.580
502,39186.276000,271.784,-6.564,3.507,411.789,273.387,-77.827,-498.200,-74.710,-129.580
503,39186.315000,266.852,-2.525,8.517,409.132,273.244,-82.805,-228.200,-446.710,-127.580
504,39186.354000,254.027,36.860,-11.523,405.592,270.497,-87.871,-170.200,-552.710,-102.580
505,39186.409000,259.946,44.939,-30.560,407.328,270.245,-96.810,87.800,-570.710,-78.580
506,39186.419000,256.987,60.087,-36.571,403.769,271.612,-109.686,1.800,-577.710,-125.580
507,39186.459000,212.593,4.544,-78.654,398.468,280.931,-117.345,60.800,-392.710,-172.580
508,39186.497000,268.825,68.166,-85.667,393.178,283.474,-119.265,141.800,-85.710,-168.580
509,39186.539000,252.054,47.968,-89.675,388.781,278.376,-115.473,-241.200,208.290,-81.580
510,39186.574000,233.310,41.909,-60.618,393.213,288.124,-108.191,20.800,477.290,-82.580
511,39186.615000,258.960,46.959,-21.542,392.366,289.330,-96.239,61.800,536.290,-89.580
512,39186.652000,232.324,89.373,-6.513,394.131,285.915,-94.358,240.800,437.290,-56.580
513,39186.674000,245.148,65.136,-5.511,397.663,288.578,-92.274,158.800,311.290,-7.580
514,39186.712000,242.189,52.008,-37.573,393.280,284.488,-83.484,-19.200,280.290,-21.580
515,39186.760000,226.405,56.047,-5.511,398.583,292.417,-79.238,-271.200,100.290,-51.580
516,39186.792000,237.256,50.998,5.511,395.950,293.368,-76.237,-342.200,-97.710,-86.580
517,39186.832000,254.027,73.215,-8.517,395.958,293.452,-73.255,-324.200,-248.710,-116.580
518,39186.877000,246.135,46.959,-18.536,392.423,293.337,-77.242,-418.200,-308.710,-34.580
519,39186.919000,247.121,37.870,-48.595,388.028,298.598,-75.099,-518.200,-254.710,-92.580
520,39186.939000,252.054,55.037,-28.556,389.811,300.532,-68.080,-565.200,-144.710,-108.580
521,39186.975000,239.229,63.116,-2.505,387.182,304.115,-64.000,-476.200,-194.710,-66.580
522,39187.12000,238.243,70.185,-34.568,385.420,308.426,-64.859,-313.200,-259.710,-36.580
523,39187.52000,254.027,22.722,31.562,386.304,311.898,-64.743,-415.200,-417.710,-27.580
524,39187.97000,225.418,75.235,21.542,380.996,308.225,-71.830,-327.200,-830.710,-69.580
525,39187.132000,245.148,43.929,-49.597,378.318,314.773,-85.528,-35.200,-816.710,-45.580
526,39187.157000,251.067,140.876,-58.614,377.376,308.133,-105.607,-40.200,-1014.710,78.420
527,39187.200000,192.863,-10.604,-140.775,376.487,312.360,-109.444,-319.200,-487.710,18.420
528,39187.232000,261.919,84.323,-68.634,373.826,310.453,-115.473,297.800,-117.710,-40.580
529,39187.272000,208.647,57.057,-121.738,374.718,314.010,-112.375,37.800,287.290,-10.580
530,39187.315000,251.067,97.452,-81.659,379.140,315.050,-106.370,15.800,624.290,33.420
531,39187.360000,254.027,55.037,-48.595,380.942,307.690,-90.715,-54.200,794.290,68.420
532,39187.394000,219.499,76.245,-35.569,383.627,308.115,-75.798,-94.200,684.290,94.420
533,39187.415000,238.243,54.028,-10.521,382.773,305.792,-65.946,1.800,555.290,162.420
534,39187.457000,233.310,66.146,-13.526,388.956,301.653,-59.109,64.800,393.290,166.420
535,39187.494000,234.297,53.018,-13.526,392.478,302.496,-60.064,106.800,177.290,153.420
536,39187.535000,245.148,45.949,-9.519,396.885,301.659,-59.084,168.800,80.290,131.420
537,39187.581000,248.108,38.880,-21.542,395.115,295.554,-60.280,219.800,71.290,108.420
538,39187.620000,243.175,60.087,-23.546,397.751,292.895,-62.344,249.800,65.290,97.420
539,39187.634000,255.013,46.959,-32.564,400.397,290.349,-60.432,278.800,103.290,110.420
540,39187.681000,249.094,48.978,-33.566,400.385,285.057,-63.583,328.800,162.290,128.420
541,39187.715000,252.054,25.751,-16.532,402.146,283.322,-63.634,250.800,151.290,127.420
542,39187.756000,243.175,73.215,-3.507,409.179,283.187,-68.581,507.800,140.290,137.420
543,39187.794000,246.135,46.959,-21.542,409.175,281.422,-69.631,239.800,22.290,172.420
544,39187.839000,256.000,10.604,10.521,410.040,275.234,-73.801,454.800,-59.710,181.420
545,39187.873000,245.148,57.057,-19.538,412.643,270.530,-86.854,641.800,-169.710,143.420
546,39187.894000,254.027,6.564,-12.524,412.611,261.597,-96.081,497.800,-218.710,146.420
547,39187.934000,273.757,46.959,18.536,411.677,251.597,-112.296,808.800,-408.710,109.420
548,39187.974000,283.622,48.978,-33.566,412.529,254.760,-123.114,862.800,-487.710,115.420
549,39188.15000,393.125,32.821,61.620,411.582,248.932,-145.152,910.800,-579.710,-25.580
550,39188.54000,435.545,-8.584,65.628,403.579,240.438,-169.285,1298.800,-697.710,-206.580
551,39188.100000,269.811,49.988,-54.607,393.840,243.396,-187.094,966.800,-686.710,-402.580
552,39188.120000,162.281,5.554,5.511,388.530,241.431,-195.119,1433.800,285.290,-357.580
553,39188.179000,153.403,-18.682,59.616,392.071,229.535,-186.556,1140.800,1269.290,74.420
554,39188.195000,197.796,14.643,-70.638,412.418,226.083,-155.820,258.800,1601.290,362.420
555,39188.235000,214.566,-41.909,-108.712,427.517,223.861,-112.153,-435.200,1580.290,639.420
556,39188.275000,97.171,194.398,-394.270,436.384,222.723,-91.308,77.800,1091.290,106.420
557,39188.315000,292.501,-13.633,45.589,436.367,218.242,-96.419,904.800,-119.710,248.420
558,39188.355000,368.462,-7.574,-70.638,439.002,211.272,-97.629,-39.200,29.290,253.420
559,39188.375000,221.472,-45.949,-51.601,442.524,205.227,-96.821,150.800,158.290,227.420
560,39188.424000,238.243,47.968,-87.671,440.755,195.677,-97.137,619.800,350.290,242.420
561,39188.456000,202.728,27.771,-121.738,446.038,184.454,-95.498,68.800,82.290,299.420
562,39188.496000,208.647,234.793,-300.086,448.628,177.901,-112.583,429.800,-679.710,92.420
563,39188.536000,245.148,116.639,-186.865,439.687,175.731,-158.360,1891.800,-1622.710,-587.580
564,39188.576000,265.865,127.748,-214.920,414.787,154.448,-235.591,4062.800,-2048.710,-1089.580
565,39188.596000,256.000,178.241,-182.857,394.362,127.824,-287.163,4148.800,-2394.710,-1058.580
566,39188.636000,229.364,172.181,-116.728,357.163,91.359,-349.037,2828.800,-2295.710,-1257.580
567,39188.676000,215.553,110.580,-54.607,327.960,51.264,-386.180,3079.800,-1458.710,-1429.580
568,39188.720000,237.256,106.540,-49.597,319.070,7.379,-404.513,3243.800,-709.710,-1491.580
569,39188.761000,272.771,124.718,-61.620,323.459,-21.206,-403.441,3624.800,-110.710,-1482.580
570,39188.801000,270.798,115.629,-43.585,342.837,-66.886,-393.938,3413.800,158.290,-1258.580
571,39188.841000,261.919,90.383,-47.593,358.715,-114.919,-375.586,3080.800,310.290,-922.580
572,39188.862000,258.960,157.034,-15.530,371.064,-120.789,-368.786,519.800,112.290,-542.580
573,39188.895000,198.782,37.870,47.593,378.987,-98.440,-375.979,-2187.200,290.290,-351.580
574,39188.935000,283.622,17.673,70.638,392.231,-42.991,-378.109,-2227.200,620.290,-435.580
575,39188.980000,248.108,150.974,-108.712,416.083,-48.346,-353.382,1877.800,1107.290,-212.580
576,39189.20000,304.339,68.166,-26.552,435.507,-47.041,-338.383,12.800,719.290,-66.580
577,39189.60000,354.651,-120.679,-37.573,439.922,-45.217,-335.330,108.800,243.290,32.420
578,39189.80000,374.382,-11.613,-38.575,438.152,-36.679,-340.024,-274.200,-384.710,22.420
579,39189.120000,336.894,11.613,-62.622,424.910,-47.302,-347.362,301.800,-429.710,121.420
580,39189.160000,293.487,-37.870,-21.542,413.422,-54.564,-358.557,155.800,-609.710,106.420
581,39189.200000,329.002,10.604,-6.513,387.800,-59.627,-383.628,-75.200,-1321.710,160.420
582,39189.238000,313.218,48.978,-61.620,357.794,-55.004,-403.434,-866.200,-1725.710,219.420
583,39189.287000,266.852,66.146,-118.732,308.389,-33.346,-433.673,-1545.200,-1932.710,417.420
584,39189.321000,206.674,7.574,7.515,266.065,2.432,-455.486,-1766.200,-1398.710,729.420
585,39189.342000,144.524,2.525,84.665,249.325,7.571,-457.359,-971.200,-203.710,1166.420
586,39189.375000,170.173,80.284,-3.507,259.926,1.841,-445.595,-379.200,1370.290,1544.420
587,39189.421000,175.106,120.679,-58.614,297.003,-0.816,-417.759,-1408.200,2156.290,1611.420
588,39189.460000,227.391,166.122,-128.751,338.542,39.317,-379.583,-3363.200,2402.290,1578.420
589,39189.501000,270.798,184.300,-162.818,374.841,87.652,-327.255,-5121.200,2146.290,1425.420
590,39189.541000,255.013,188.339,-167.828,401.641,131.739,-516.393,-5065.200,1634.290,1300.420
591,39189.561000,251.067,128.757,-169.832,415.705,166.014,-225.282,-3627.200,1333.290,1188.420
592,39189.601000,235.283,136.836,-170.834,433.459,175.974,-180.218,-1709.200,998.290,562.420
593,39189.642000,207.661,114.619,-184.861,437.061,186.229,-155.049,-1374.200,402.290,68.420
594,39189.675000,219.499,110.580,-152.798,436.221,200.426,-143.668,-1490.200,-167.710,-127.580
595,39189.716000,232.324,78.264,-147.789,430.955,210.951,-139.371,-1555.200,-540.710,-238.580
596,39189.756000,206.674,-37.870,-66.630,426.576,223.269,-133.028,-704.200,-95.710,-285.580
597,39189.797000,253.040,-50.998,-157.808,427.461,225.034,-131.974,361.800,177.290,-160.580
598,39189.821000,253.040,72.205,20.540,424.859,234.050,-119.774,-1450.200,66.290,-305.580
599,39189.856000,263.892,-32.821,-58.614,424.004,242.926,-112.538,-331.200,178.290,-278.580
600,39189.896000,264.879,45.949,-29.558,422.265,254.350,-107.208,103.800,390.290,-290.580
601,39189.937000,272.771,27.771,-19.538,416.114,260.534,-103.055,52.800,209.290,-200.580
602,39189.977000,234.297,75.235,-27.554,413.463,253.560,-104.283,318.800,210.290,-121.580
603,39190.17000,231.337,64.126,-17.534,417.881,260.592,-101.062,155.800,219.290,-58.580
604,39190.57000,220.486,71.195,0.501,419.657,259.866,-96.115,-257.200,108.290,-71.580
605,39190.76000,209.634,102.501,20.540,418.800,269.582,-89.844,-784.200,-7.710,-176.580
606,39190.124000,275.730,-57.057,2.505,415.281,272.212,-88.777,-652.200,-371.710,-34.580
607,39190.162000,244.162,34.840,-41.581,410.852,278.003,-98.533,-310.200,-759.710,-175.580
608,39190.197000,250.081,23.732,-42.583,406.424,272.594,-105.674,-26.200,-611.710,-148.580
609,39190.237000,268.825,46.959,-98.693,405.517,272.340,-114.622,350.800,-45.710,-156.580
610,39190.281000,262.906,76.245,-57.613,401.122,274.158,-111.598,29.800,238.290,-128.580
611,39190.300000,228.378,74.225,-61.620,407.314,276.991,-103.542,-95.200,391.290,-6.580
612,39190.336000,239.229,27.771,-3.507,406.459,282.424,-95.425,22.800,403.290,18.420
613,39190.376000,246.135,67.156,20.540,407.342,281.585,-94.456,-142.200,178.290,-17.580
614,39190.419000,232.324,33.830,-8.517,410.883,285.200,-89.363,-198.200,-31.710,4.420
615,39190.457000,258.960,30.801,-41.581,406.476,281.725,-89.490,-242.200,-86.710,-118.580
616,39190.500000,251.067,55.037,-51.601,401.194,283.485,-88.456,-82.200,-36.710,-136.580
617,39190.541000,239.229,69.176,-10.521,405.607,286.149,-86.370,-25.200,-72.710,-59.580
618,39190.567000,249.094,31.811,-39.577,402.958,286.091,-88.366,-240.200,-48.710,-55.580
619,39190.602000,244.162,57.057,-23.546,401.209,292.250,-85.193,-414.200,-100.710,-67.580
620,39190.637000,241.202,83.314,-15.530,401.217,294.910,-83.121,-323.200,-161.710,39.420
621,39190.677000,250.081,69.176,-47.593,399.461,295.833,-81.110,-501.200,-43.710,-2.580
622,39190.730000,238.243,30.801,9.519,398.608,298.690,-72.083,-693.200,-143.710,6.420
623,39190.756000,256.000,60.087,-45.589,399.487,296.955,-72.137,-322.200,-178.710,-78.580
624,39190.777000,239.229,81.294,-30.560,395.962,294.348,-72.233,-255.200,-162.710,-57.580
625,39190.821000,219.499,110.580,-32.564,395.969,303.896,-71.923,-534.200,-441.710,-8.580
626,39190.856000,273.757,-10.604,14.528,397.728,307.313,-73.792,-447.200,-564.710,-136.580
627,39190.897000,230.351,48.978,-61.620,387.110,301.675,-88.904,174.800,-503.710,-168.580
628,39190.943000,247.121,98.462,-63.624,388.849,309.207,-98.584,214.800,-416.710,-116.580
629,39190.977000,231.337,64.126,-116.728,382.674,305.674,-100.705,146.800,37.290,13.420
630,39191.16000,232.324,100.481,-45.589,387.959,300.498,-99.863,-78.200,219.290,59.420
631,39191.36000,268.825,19.692,-61.620,387.980,302.431,-92.849,210.800,369.290,75.420
632,39191.81000,234.297,77.254,-32.564,390.641,300.026,-85.967,154.800,455.290,116.420
633,39191.117000,235.283,81.294,-43.585,397.702,303.616,-81.856,392.800,464.290,158.420
634,39191.164000,239.229,55.037,-22.544,397.701,297.568,-81.060,239.800,433.290,171.420
635,39191.202000,247.121,41.909,-17.534,402.996,295.081,-77.151,485.800,390.290,127.420
636,39191.241000,235.283,68.166,-32.564,403.002,291.693,-74.282,399.800,354.290,133.420
637,39191.256000,242.189,57.057,-11.523,404.758,284.750,-74.502,325.800,325.290,145.420
638,39191.302000,239.229,37.870,7.515,410.044,280.442,-73.632,276.800,201.290,103.420
639,39191.345000,251.067,48.978,-10.521,411.788,275.095,-78.765,362.800,109.290,110.420
640,39191.377000,243.175,45.949,-8.517,412.665,277.643,-80.665,387.800,68.290,121.420
641,39191.417000,248.108,54.028,-27.554,417.936,269.750,-83.883,394.800,73.290,145.420
642,39191.457000,248.108,52.008,-14.528,416.176,268.909,-82.923,252.800,55.290,128.420
643,39191.505000,246.135,44.939,-18.536,418.809,261.911,-85.128,239.800,70.290,152.420
644,39191.519000,256.000,41.909,-30.560,421.444,255.809,-86.311,342.800,109.290,210.420
645,39191.557000,253.040,22.722,-28.556,423.197,251.414,-88.434,230.800,117.290,222.420
646,39191.601000,254.027,18.682,14.528,431.112,248.703,-92.468,442.800,5.290,207.420
647,39191.642000,247.121,48.978,34.568,429.326,245.872,-100.510,231.800,-426.710,233.420
648,39191.682000,271.784,18.682,19.538,428.399,241.109,-115.562,141.800,-829.710,243.420
649,39191.723000,359.584,29.791,21.542,426.572,233.572,-136.665,310.800,-1037.710,54.420
650,39191.763000,394.112,-5.554,10.521,415.917,235.323,-166.432,904.800,-1051.710,-191.580
651,39191.784000,309.272,52.008,-42.583,402.645,225.259,-184.675,1129.800,-854.710,-413.580
652,39191.822000,195.823,8.584,-36.571,394.663,226.454,-203.529,976.800,-237.710,-228.580
653,39191.862000,181.025,-1.515,10.521,392.919,226.622,-197.571,295.800,466.290,-72.580
654,39191.904000,216.540,-19.692,-16.532,403.555,229.853,-175.586,135.800,1031.290,125.420
655,39191.943000,244.162,11.613,-62.622,412.420,229.555,-155.708,16.800,1390.290,286.420
656,39191.980000,208.647,-9.594,-86.669,421.319,227.859,-123.959,-58.200,1406.290,294.420
657,39192.0,182.012,-84.323,-111.718,426.656,221.482,-104.289,1248.800,1414.290,146.420
658,39192.44000,312.231,61.097,-218.928,426.635,216.105,-110.421,702.800,-11.710,102.420
659,39192.84000,241.202,-13.633,-44.587,430.153,208.295,-110.663,-625.200,-104.710,340.420
660,39192.122000,369.449,-32.821,-47.593,435.452,202.392,-104.880,-414.200,14.290,323.420
661,39192.160000,223.445,-0.505,-139.773,436.340,208.497,-103.686,-267.200,24.290,115.420
662,39192.197000,232.324,73.215,-214.920,438.971,204.074,-106.800,-245.200,-245.710,148.420
663,39192.241000,252.054,52.008,-163.820,436.280,203.594,-123.705,-1093.200,-908.710,28.420
664,39192.261000,224.432,33.830,-209.910,428.273,200.223,-150.651,1127.800,-1614.710,-384.580
665,39192.299000,233.310,75.235,-146.787,410.469,183.736,-211.815,1603.800,-1939.710,-654.580
666,39192.341000,228.378,85.333,-134.763,383.861,174.187,-272.783,1787.800,-2004.710,-977.580
667,39192.377000,235.283,111.590,-129.753,349.317,145.592,-332.408,3137.800,-1858.710,-1187.580
668,39192.417000,236.270,185.310,-125.746,325.406,117.624,-370.133,4261.800,-1688.710,-1318.580
669,39192.459000,210.620,196.418,-118.732,293.539,53.195,-409.066,3580.800,-1440.710,-1575.580
670,39192.479000,203.715,183.290,-96.689,270.541,14.339,-433.240,2893.800,-1190.710,-1771.580
671,39192.518000,194.836,173.191,-74.646,258.153,-12.916,-446.079,2154.800,-909.710,-1827.580
672,39192.560000,207.661,112.600,-33.566,258.130,-26.077,-451.472,1829.800,-243.710,-1862.580
673,39192.600000,224.432,30.801,-52.603,273.101,-51.966,-447.299,2467.800,346.290,-1701.580
674,39192.640000,207.661,67.156,-47.593,297.785,-69.866,-436.878,1838.800,498.290,-1314.580
675,39192.680000,221.472,-33.830,-13.526,317.187,-53.275,-433.298,-569.200,593.290,-733.580
676,39192.727000,255.013,-44.939,39.577,347.190,-26.903,-421.423,-619.200,1129.290,-326.580
677,39192.740000,297.434,22.722,-156.806,366.601,-24.004,-411.337,-160.200,851.290,-59.580
678,39192.780000,280.663,47.968,-66.630,379.856,-8.088,-400.848,-838.200,566.290,-67.580
679,39192.821000,406.936,44.939,-14.528,394.858,-3.512,-392.708,-197.200,390.290,67.420
680,39192.864000,409.896,-56.047,-77.652,394.850,-9.616,-393.899,141.800,6.290,71.420
681,39192.902000,397.071,-34.840,-80.658,386.029,-9.735,-397.903,233.800,-479.710,156.420
682,39192.945000,383.260,-28.781,-29.558,374.535,-20.498,-410.205,157.800,-814.710,158.420
683,39192.965000,365.503,49.988,-18.536,338.357,-20.247,-431.166,-231.200,-1294.710,281.420
684,39193.5000,258.960,33.830,-135.765,297.788,-16.416,-448.052,-778.200,-1582.710,493.420
685,39193.43000,185.958,43.929,-59.616,264.260,-13.503,-466.932,-1273.200,-1466.710,753.420
686,39193.78000,138.605,25.751,18.536,232.549,13.212,-472.124,-2193.200,-868.710,1174.420
687,39193.119000,132.686,1.515,25.550,226.413,39.360,-467.324,-1658.200,237.290,1509.420
688,39193.168000,145.511,57.057,-41.581,252.016,41.650,-448.301,-938.200,1193.290,1737.420
689,39193.203000,168.200,130.777,-85.667,291.756,58.148,-417.848,-1993.200,2117.290,1801.420
690,39193.223000,197.796,145.925,-130.755,319.184,89.506,-382.981,-3388.200,2317.290,1737.420
691,39193.262000,249.094,154.004,-154.802,368.713,136.283,-324.704,-4152.200,2273.290,1654.420
692,39193.300000,286.582,200.458,-149.793,397.995,161.656,-256.263,-4138.200,1884.290,1403.420
693,39193.340000,271.784,159.053,-151.796,428.124,178.067,-198.041,-2953.200,1443.290,1207.420
694,39193.380000,234.297,177.231,-192.877,438.794,182.505,-164.101,-2492.200,1192.290,821.420
695,39193.422000,235.283,121.688,-161.816,447.739,201.083,-120.771,-2797.200,592.290,265.420
696,39193.462000,211.607,92.402,-136.767,451.370,212.487,-85.634,-2281.200,149.290,-85.580
697,39193.485000,218.513,87.353,-176.845,445.229,224.803,-79.297,-1270.200,-228.710,-486.580
698,39193.525000,245.148,-69.176,-44.587,444.341,225.586,-82.253,965.800,294.290,-247.580
699,39193.565000,263.892,-3.535,-58.614,443.474,229.170,-78.167,-603.200,77.290,-295.580
700,39193.604000,254.027,-7.574,-29.558,436.454,237.203,-69.985,-657.200,167.290,-432.580
701,39193.644000,264.879,102.501,53.605,433.831,248.597,-65.652,128.800,212.290,-353.580
702,39193.689000,244.162,38.880,5.511,432.081,252.152,-62.563,-483.200,-144.710,-298.580
703,39193.701000,250.081,19.692,-28.556,425.922,262.564,-62.245,-137.200,-352.710,-277.580
704,39193.739000,254.027,36.860,-58.614,425.910,270.207,-67.955,-320.200,-314.710,-208.580
705,39193.778000,251.067,41.909,-42.583,418.854,270.117,-70.960,-134.200,-191.710,-198.580
706,39193.819000,260.933,27.771,-62.622,417.978,277.061,-70.737,-1.200,62.290,-103.580
707,39193.859000,267.838,23.732,-9.519,417.097,272.748,-69.887,-91.200,105.290,-171.580
708,39193.901000,231.337,96.442,-2.505,410.072,279.856,-63.721,-442.200,-65.710,-205.580
709,39193.942000,231.337,76.245,8.517,415.366,284.256,-61.575,-250.200,-157.710,-8.580
710,39193.964000,249.094,36.860,-29.558,410.973,287.809,-58.495,-511.200,-235.710,-22.580
711,39194.1000,253.040,43.929,-25.550,412.733,286.075,-58.546,-383.200,-226.710,-30.580
712,39194.48000,238.243,58.067,-57.613,411.849,286.046,-59.542,-328.200,-127.710,-23.580
713,39194.82000,244.162,23.732,-27.554,406.562,284.306,-59.616,-272.200,-113.710,-76.580
714,39194.123000,249.094,57.057,-1.503,407.434,287.666,-63.476,-160.200,-346.710,-138.580
715,39194.160000,256.000,41.909,-8.517,404.799,290.324,-61.412,-298.200,-523.710,-102.580
716,39194.185000,231.337,36.860,-53.605,397.713,291.661,-75.293,-164.200,-558.710,-127.580
717,39194.220000,261.919,45.949,-42.583,399.457,297.513,-83.042,4.800,-477.710,-190.580
718,39194.264000,234.297,79.274,-73.644,395.916,305.097,-90.751,167.800,-353.710,-144.580
719,39194.302000,241.202,75.235,-100.697,394.140,297.199,-93.992,153.800,-81.710,-66.580
720,39194.340000,264.879,47.968,-90.677,395.031,304.200,-91.776,-97.200,192.290,11.420
721,39194.383000,240.216,44.939,-68.634,393.285,298.320,-85.021,-18.200,434.290,64.420
722,39194.420000,223.445,99.471,-65.628,397.712,297.681,-77.084,130.800,527.290,66.420
723,39194.440000,230.351,78.264,-62.622,399.513,301.520,-64.045,-26.200,651.290,65.420
724,39194.480000,247.121,32.821,-24.548,397.767,299.952,-58.143,98.800,567.290,39.420
725,39194.521000,219.499,94.422,-20.540,398.684,302.026,-46.157,-193.200,424.290,-1.580
726,39194.562000,235.283,68.166,-7.515,403.982,292.680,-39.492,-120.200,354.290,60.420
727,39194.601000,276.717,-59.077,30.560,403.993,288.480,-34.664,-324.200,115.290,52.420
728,39194.641000,254.027,52.008,-37.573,404.006,301.529,-33.247,623.800,257.290,-56.580
729,39194.662000,245.148,48.978,-19.538,405.759,298.002,-35.342,649.800,77.290,40.420
730,39194.700000,240.216,62.107,-34.568,403.072,291.529,-49.463,848.800,99.290,75.420
731,39194.743000,259.946,45.949,2.505,403.055,295.672,-56.279,947.800,142.290,85.420
732,39194.780000,232.324,76.245,-28.556,403.026,293.654,-66.275,788.800,228.290,74.420
733,39194.822000,217.526,99.471,17.534,404.762,282.203,-72.599,750.800,239.290,104.420
734,39194.866000,222.459,88.363,-8.517,408.279,280.413,-74.631,361.800,137.290,153.420
735,39194.906000,247.121,35.850,-17.534,410.901,275.038,-80.755,535.800,17.290,143.420
736,39194.920000,250.081,36.860,-35.569,414.414,272.352,-83.810,204.800,-9.710,141.420
737,39194.960000,241.202,65.136,-22.544,412.653,268.907,-82.935,362.800,27.290,164.420
738,39195.6000,255.013,23.732,-10.521,416.171,269.721,-84.883,18.800,28.290,180.420
739,39195.40000,260.933,38.880,9.519,420.567,257.572,-85.263,206.800,11.290,155.420
740,39195.82000,260.933,39.890,25.550,419.666,260.818,-93.105,195.800,-146.710,171.420
741,39195.120000,288.555,36.860,-8.517,418.753,251.884,-102.334,592.800,-408.710,98.420
742,39195.161000,285.595,19.692,-35.569,419.587,249.698,-118.291,851.800,-291.710,157.420
743,39195.186000,280.663,55.037,20.540,416.915,247.678,-128.295,355.800,-337.710,250.420
744,39195.222000,294.474,71.195,13.526,415.997,240.424,-139.456,-355.200,-828.710,332.420
745,39195.266000,264.879,74.225,-60.618,409.797,236.638,-150.521,-358.200,-852.710,165.420
746,39195.302000,186.944,38.880,-33.566,409.779,232.157,-155.632,402.800,70.290,143.420
747,39195.346000,172.146,10.604,-10.521,414.222,229.950,-141.787,-305.200,614.290,398.420
748,39195.386000,216.540,-33.830,-56.611,424.871,224.699,-113.127,-459.200,923.290,444.420
749,39195.402000,188.917,-78.264,-73.644,433.738,218.381,-91.458,685.800,1099.290,249.420
750,39195.442000,118.875,213.586,-396.274,431.983,219.304,-89.447,770.800,284.290,-431.580
751,39195.486000,222.459,-34.840,29.558,431.956,213.871,-97.568,1133.800,439.290,36.420
752,39195.522000,349.719,-1.515,-15.530,437.257,207.996,-90.790,-182.200,263.290,215.420
753,39195.566000,268.825,-32.821,-49.597,438.156,205.590,-83.915,278.800,274.290,186.420
754,39195.602000,238.243,19.692,-148.791,444.314,201.198,-86.023,859.800,292.290,103.420
755,39195.646000,223.445,77.254,-201.894,446.032,194.729,-100.130,782.800,-349.710,28.420
756,39195.665000,224.432,44.939,-195.883,443.295,190.353,-132.056,1049.800,-1086.710,2.420
757,39195.701000,234.297,78.264,-176.845,431.688,179.332,-184.086,1880.800,-1495.710,-313.580
758,39195.742000,248.108,117.649,-161.816,417.457,159.883,-227.462,2858.800,-1856.710,-786.580
759,39195.786000,226.405,164.103,-165.824,389.069,132.916,-290.986,3477.800,-1986.710,-883.580
760,39195.825000,218.513,192.379,-151.796,357.161,89.623,-349.094,3334.800,-2077.710,-991.580
761,39195.866000,225.418,179.250,-105.706,321.767,38.938,-392.557,3549.800,-1822.710,-1489.580
762,39195.881000,198.782,158.043,-93.683,298.757,-7.786,-418.972,3447.800,-1440.710,-1611.580
763,39195.921000,208.647,146.935,-72.642,293.445,-28.735,-423.641,2377.800,-1018.710,-1550.580
764,39195.966000,217.526,88.363,-61.620,289.000,-48.088,-433.220,1931.800,-491.710,-1407.580
765,39196.6000,201.742,109.570,-89.675,301.320,-59.419,-435.534,1542.800,-236.710,-1330.580
766,39196.41000,208.647,74.225,-6.513,310.146,-44.600,-433.039,-103.200,174.290,-1008.580
767,39196.83000,205.688,-24.742,-15.530,325.130,-37.617,-431.772,-42.200,676.290,-607.580
768,39196.121000,248.108,42.919,-176.845,359.540,-37.925,-412.804,585.800,1493.290,-276.580
769,39196.150000,367.476,54.028,-21.542,382.478,-34.994,-401.713,-74.200,647.290,-0.580
770,39196.181000,419.761,-30.801,-48.595,390.422,-22.780,-399.305,-366.200,222.290,3.420
771,39196.223000,422.721,-34.840,-68.634,386.907,-25.274,-395.425,620.800,-68.710,38.420
772,39196.261000,406.936,-42.919,-32.564,377.186,-35.923,-403.746,207.800,-723.710,171.420
773,39196.307000,328.015,57.057,-44.587,348.055,-44.291,-422.978,-116.200,-1215.710,340.420
774,39196.344000,249.094,12.623,-129.753,311.011,-39.589,-439.825,-821.200,-1199.710,394.420
775,39196.362000,179.052,44.939,-164.822,273.972,-23.631,-457.299,-1280.200,-1299.710,669.420
776,39196.414000,160.308,22.722,-100.697,251.046,-13.513,-466.974,-1988.200,-1080.710,1001.420
777,39196.443000,149.457,4.544,39.577,230.800,19.372,-468.951,-2181.200,-443.710,1372.420
778,39196.482000,160.308,32.821,1.503,237.887,34.414,-458.510,-1253.200,665.290,1706.420
779,39196.524000,192.863,103.511,-56.611,265.256,42.781,-439.284,-1292.200,1379.290,1825.420
780,39196.567000,217.526,121.688,-87.671,291.758,58.176,-416.854,-2013.200,1928.290,1825.420
781,39196.607000,244.162,137.846,-100.697,335.072,88.091,-372.053,-3045.200,2307.290,1659.420
782,39196.626000,261.919,155.014,-119.734,372.248,120.019,-317.276,-3726.200,2196.290,1442.420
783,39196.666000,278.690,165.112,-144.783,411.228,160.127,-249.320,-3670.200,2042.290,1086.420
784,39196.707000,245.148,92.402,-147.789,425.447,174.284,-209.095,-2842.200,1595.290,829.420
785,39196.743000,224.432,115.629,-141.777,443.212,185.225,-160.027,-1399.200,1380.290,528.420
786,39196.787000,240.216,129.767,-152.798,449.482,190.555,-125.079,-1460.200,655.290,90.420
787,39196.827000,220.486,94.422,-181.855,447.787,205.005,-104.756,-1852.200,-137.710,-94.580
788,39196.847000,231.337,58.067,-109.714,440.751,217.180,-103.390,-1096.200,-543.710,-352.580
789,39196.887000,216.540,-21.712,-46.591,442.498,216.173,-108.382,473.800,-37.710,-415.580
790,39196.927000,307.299,-27.771,-92.681,438.083,220.369,-113.225,576.800,-63.710,-209.580
791,39196.969000,301.380,-19.692,-29.558,433.696,229.158,-108.982,-1079.200,-220.710,-310.580
792,39197.5000,303.353,-11.613,-25.550,430.199,239.769,-101.698,-111.200,-22.710,-282.580
793,39197.47000,228.378,41.909,-41.581,430.204,246.713,-101.473,-414.200,7.290,-304.580
794,39197.87000,272.771,30.801,-14.528,424.930,253.709,-99.276,-191.200,28.290,-271.580
795,39197.106000,260.933,23.732,-18.536,424.054,261.520,-99.026,-3.200,26.290,-269.580
796,39197.146000,241.202,66.146,-33.566,416.997,259.695,-102.087,71.800,1.290,-208.580
797,39197.182000,242.189,62.107,-39.577,416.129,261.543,-98.057,128.800,116.290,-121.580
798,39197.227000,227.391,60.087,-31.562,418.787,266.865,-93.904,-218.200,164.290,-112.580
799,39197.263000,250.081,52.008,-6.513,416.154,265.240,-89.993,-225.200,96.290,-118.580
800,39197.303000,253.040,18.682,-18.536,414.411,271.456,-84.832,-445.200,12.290,-82.580
801,39197.323000,244.162,25.751,-2.505,413.538,274.115,-82.763,-68.200,-108.710,-104.580
802,39197.365000,260.933,59.077,4.509,411.775,281.002,-84.531,-233.200,-295.710,-129.580
803,39197.405000,234.297,21.712,-33.566,409.999,284.303,-90.388,249.800,-310.710,-128.580
804,39197.445000,268.825,40.899,-54.607,404.701,287.631,-95.262,256.800,-47.710,-166.580
805,39197.485000,263.892,38.880,-62.622,404.698,287.603,-96.255,259.800,149.290,-161.580
806,39197.525000,228.378,85.333,-20.540,401.177,283.316,-94.420,4.800,249.290,-108.580
807,39197.565000,252.054,67.156,-24.548,402.949,289.450,-92.229,-2.200,230.290,-21.580
808,39197.584000,236.270,47.968,-23.546,402.079,292.138,-89.166,-103.200,156.290,-49.580
809,39197.627000,246.135,87.353,30.560,399.439,288.720,-87.299,-143.200,-182.710,-97.580
810,39197.671000,244.162,62.107,-22.544,398.563,292.220,-86.195,-218.200,-307.710,1.420
811,39197.705000,250.081,48.978,-47.593,396.780,290.285,-93.215,-219.200,-233.710,-35.580
812,39197.745000,254.027,65.136,-18.536,396.779,292.861,-94.124,-204.200,-185.710,-65.580
813,39197.787000,241.202,63.116,-43.585,392.391,296.471,-89.056,-423.200,-188.710,-40.580
814,39197.826000,256.000,57.057,-45.589,394.157,301.680,-88.881,-474.200,-48.710,-20.580
815,39197.843000,231.337,55.037,-2.505,396.818,302.719,-82.881,-306.200,-98.710,-19.580
816,39197.890000,242.189,74.225,-21.542,391.539,307.951,-81.735,-175.200,-254.710,-58.580
817,39197.930000,242.189,80.284,-12.524,391.537,301.903,-80.939,-429.200,-337.710,13.420
818,39197.964000,243.175,57.057,-26.552,392.398,306.019,-88.746,-349.200,-453.710,56.420
819,39198.5000,227.391,57.057,-22.544,386.226,302.514,-89.873,-196.200,-449.710,-89.580
820,39198.45000,259.946,110.580,-5.511,385.304,299.515,-103.875,257.800,-672.710,27.420
821,39198.64000,247.121,3.535,-105.706,385.283,301.894,-111.742,-319.200,-426.710,29.420
822,39198.108000,257.973,60.087,-76.650,382.629,306.091,-116.579,251.800,-271.710,-100.580
823,39198.146000,246.135,48.978,-89.675,380.872,312.166,-116.388,128.800,149.290,-168.580
824,39198.188000,219.499,92.402,-95.687,376.469,311.323,-115.436,283.800,434.290,-59.580
825,39198.226000,222.459,77.254,-49.597,381.780,311.580,-106.474,3.800,493.290,-1.580
826,39198.265000,239.229,68.166,-27.554,380.912,309.116,-101.591,318.800,553.290,20.420
827,39198.315000,242.189,49.988,-57.613,384.448,306.656,-96.695,422.800,589.290,18.420
828,39198.330000,237.256,76.245,-51.601,387.991,310.299,-90.608,458.800,663.290,17.420
829,39198.363000,251.067,46.959,-28.556,391.534,308.763,-83.695,419.800,632.290,33.420
830,39198.419000,242.189,83.314,-8.517,393.289,303.528,-84.852,430.800,458.290,6.420
831,39198.451000,236.270,66.146,-17.534,395.055,301.850,-82.915,359.800,365.290,87.420
832,39198.483000,243.175,60.087,-31.562,397.696,291.492,-81.257,376.800,408.290,151.420
833,39198.525000,249.094,50.998,-12.524,398.575,284.577,-80.485,460.800,397.290,154.420
834,39198.547000,242.189,74.225,-8.517,402.103,286.344,-79.424,385.800,360.290,148.420
835,39198.588000,246.135,62.107,-3.507,405.639,280.439,-73.646,377.800,335.290,184.420
836,39198.623000,247.121,47.968,-5.511,408.270,283.772,-78.494,262.800,322.290,193.420
837,39198.666000,256.987,53.018,-20.540,411.808,275.292,-71.807,347.800,379.290,191.420
838,39198.703000,237.256,53.018,24.548,420.617,271.855,-70.898,297.800,432.290,186.420
839,39198.746000,232.324,66.146,41.581,420.632,269.420,-65.019,76.800,222.290,182.420
840,39198.783000,241.202,52.008,35.569,423.274,259.930,-63.332,135.800,5.290,215.420
841,39198.808000,235.283,53.018,39.577,425.894,255.395,-70.422,-49.200,-341.710,245.420
842,39198.846000,254.027,37.870,39.577,427.624,255.086,-81.349,84.800,-610.710,265.420
843,39198.888000,266.852,46.959,69.636,424.924,250.209,-100.383,-94.200,-1106.710,258.420
844,39198.925000,313.218,24.742,42.583,422.205,238.247,-124.612,117.800,-1278.710,106.420
845,39198.965000,357.611,-1.515,-0.501,413.343,240.309,-143.440,540.800,-1242.710,-139.580
846,39199.5000,292.501,78.264,-43.585,400.052,243.851,-171.171,1034.800,-842.710,-241.580
847,39199.23000,206.674,40.899,-42.583,393.832,239.868,-189.194,958.800,-316.710,-95.580
848,39199.66000,181.025,-1.515,-23.546,393.827,232.924,-189.420,616.800,318.290,77.420
849,39199.106000,198.782,-17.673,-64.626,397.397,235.113,-173.449,-29.200,842.290,258.420
850,39199.150000,212.593,6.564,-96.689,408.022,233.920,-154.587,82.800,973.290,231.420
851,39199.185000,211.607,-2.525,-136.767,413.346,229.138,-139.830,489.800,887.290,78.420
852,39199.228000,265.865,39.890,-175.843,409.819,228.239,-140.864,808.800,270.290,-167.580
853,39199.265000,275.730,-2.525,-30.560,412.446,222.921,-145.000,850.800,231.290,-18.580
854,39199.286000,285.595,-23.732,-40.579,412.454,214.381,-140.312,109.800,34.290,223.420
855,39199.326000,273.757,1.515,-75.648,417.726,206.489,-143.530,-402.200,92.290,226.420
856,39199.373000,178.066,-49.988,-142.779,421.288,219.793,-133.157,-692.200,18.290,121.420
857,39199.408000,163.268,34.840,-237.965,423.012,207.361,-143.485,-127.200,-129.710,265.420
858,39199.448000,180.039,68.166,-208.908,422.997,202.908,-147.602,31.800,-697.710,126.420
859,39199.490000,196.809,87.353,-180.853,420.251,200.156,-183.447,1374.800,-923.710,-52.580
860,39199.542000,207.661,121.688,-176.845,408.660,177.236,-226.927,2145.800,-1087.710,-530.580
861,39199.550000,257.973,80.284,-136.767,393.529,142.946,-273.766,3038.800,-1152.710,-632.580
862,39199.592000,271.784,178.241,-166.826,384.594,111.545,-310.561,3950.800,-1284.710,-743.580
863,39199.630000,273.757,171.172,-148.791,364.165,49.559,-355.336,3991.800,-1557.710,-958.580
864,39199.666000,259.946,159.053,-101.699,339.401,2.050,-378.803,3163.800,-1524.710,-1062.580
865,39199.711000,254.027,123.708,-101.699,320.820,-23.755,-401.546,2054.800,-1341.710,-1093.580
866,39199.745000,231.337,111.590,-69.636,315.512,-31.740,-407.780,1424.800,-871.710,-1098.580
867,39199.765000,212.593,74.225,-42.583,306.672,-42.388,-416.098,1169.800,-430.710,-1002.580
868,39199.807000,204.701,45.949,-22.544,321.644,-47.585,-416.218,1032.800,22.290,-820.580
869,39199.850000,233.310,19.692,42.583,341.920,-50.873,-410.302,310.800,632.290,-476.580
870,39199.886000,246.135,55.037,115.726,366.631,-52.141,-394.376,353.800,968.290,-222.580
871,39199.930000,253.040,69.176,-2.505,392.231,-42.123,-378.081,83.800,1477.290,-267.580
872,39199.965000,336.894,-60.087,-28.556,410.784,-28.667,-362.690,-101.200,681.290,-275.580
873,39200.10000,405.950,-22.722,-38.575,422.262,-19.782,-355.414,-461.200,182.290,-85.580
874,39200.27000,378.328,22.722,-21.542,414.319,-20.796,-360.438,0.800,-197.710,40.420
875,39200.65000,353.665,-3.535,-38.575,408.999,-32.338,-369.766,514.800,-659.710,182.420
876,39200.106000,311.245,4.544,-27.554,386.041,-51.845,-384.374,144.800,-1039.710,283.420
877,39200.150000,313.218,33.830,-28.556,354.266,-49.884,-406.258,-245.200,-1256.710,293.420
878,39200.185000,270.798,19.692,-99.695,311.909,-42.863,-432.977,-445.200,-1536.710,345.420
879,39200.225000,195.823,50.998,-144.783,286.340,-37.059,-441.808,-876.200,-1460.710,443.420
880,39200.245000,180.039,21.712,-33.566,248.428,-14.998,-458.094,-1507.200,-772.710,712.420
881,39200.286000,151.430,1.515,36.571,240.511,16.132,-461.081,-1968.200,66.290,1044.420
882,39200.333000,138.605,19.692,-26.552,252.906,42.603,-445.288,-1780.200,880.290,1421.420
883,39200.366000,164.254,61.097,-71.640,287.350,56.409,-417.919,-1711.200,1920.290,1731.420
884,39200.407000,188.917,111.590,-117.730,322.683,66.856,-386.684,-2067.200,2418.290,1735.420
885,39200.447000,274.744,156.024,-180.853,364.238,87.334,-338.222,-2986.200,2409.290,1519.420
886,39200.491000,278.690,144.915,-182.857,399.669,126.318,-279.250,-3818.200,1846.290,1179.420
887,39200.511000,256.000,148.955,-149.793,420.988,162.546,-225.378,-3548.200,1297.290,879.420
888,39200.547000,254.027,97.452,-121.738,429.903,179.106,-192.043,-3205.200,1017.290,528.420
889,39200.587000,218.513,85.333,-149.793,437.953,190.654,-151.923,-1297.200,799.290,292.420
890,39200.631000,225.418,98.462,-148.791,441.543,199.928,-130.758,-1364.200,279.290,47.420
891,39200.671000,222.459,36.860,-126.748,439.819,208.917,-119.549,-1391.200,-116.710,-132.580
892,39200.710000,224.432,32.821,-104.704,438.950,214.209,-116.401,-512.200,-228.710,-319.580
893,39200.731000,245.148,20.702,-69.636,437.204,223.840,-113.115,-281.200,-94.710,-403.580
894,39200.771000,228.378,-34.840,-91.679,434.565,228.178,-112.983,399.800,224.290,-255.580
895,39200.812000,286.582,40.899,-39.577,434.587,235.291,-106.794,-623.200,247.290,-171.580
896,39200.846000,293.487,-5.554,22.544,431.107,241.759,-92.693,-847.200,231.290,-284.580
897,39200.886000,251.067,48.978,-6.513,429.357,246.182,-89.577,-166.200,273.290,-296.580
898,39200.926000,261.919,40.899,-6.513,426.739,252.453,-82.431,-80.200,183.290,-291.580
899,39200.976000,251.067,45.949,-5.511,428.510,253.407,-79.415,-128.200,132.290,-241.580
900,39200.986000,248.108,56.047,-7.515,425.878,260.405,-77.210,-39.200,4.290,-141.580
901,39201.33000,248.108,48.978,-11.523,422.357,260.431,-76.228,-113.200,-24.710,-123.580
902,39201.67000,250.081,27.771,-35.569,417.960,263.088,-74.170,-12.200,10.290,-82.580
903,39201.110000,251.067,37.870,-14.528,415.316,266.530,-75.059,-193.200,-59.710,-99.580
904,39201.150000,242.189,31.811,-10.521,417.956,266.504,-76.045,3.800,-100.710,-95.580
905,39201.186000,240.216,45.949,-6.513,414.424,269.861,-79.919,37.800,-238.710,-94.580
906,39201.212000,258.960,28.781,-16.532,415.293,273.192,-84.773,-72.200,-366.710,-140.580
907,39201.252000,257.973,61.097,-21.542,407.341,275.537,-93.660,96.800,-305.710,-148.580
908,39201.292000,262.906,34.840,-66.630,407.342,281.585,-94.456,122.800,19.290,-149.580
909,39201.331000,240.216,54.028,-69.636,407.363,286.962,-88.324,-193.200,389.290,-132.580
910,39201.366000,247.121,53.018,-16.532,408.271,288.084,-79.348,-95.200,488.290,-119.580
911,39201.406000,247.121,48.978,2.505,406.541,290.129,-68.364,-127.200,416.290,-107.580
912,39201.448000,237.256,56.047,21.542,402.147,289.370,-64.431,63.800,178.290,-79.580
913,39201.468000,245.148,44.939,15.530,403.909,289.371,-64.425,51.800,-38.710,-83.580
914,39201.508000,232.324,75.235,-28.556,403.906,297.099,-67.153,-132.200,-168.710,-114.580
915,39201.548000,247.121,56.047,-26.552,400.386,293.681,-65.289,-52.200,-56.710,-57.580
916,39201.586000,251.067,50.998,-18.536,399.516,297.236,-62.198,-171.200,68.290,-67.580
917,39201.628000,249.094,65.136,-1.503,395.123,301.658,-59.089,-210.200,44.290,-64.580
918,39201.667000,241.202,63.116,-3.507,398.638,298.132,-61.178,-184.200,-40.710,-37.580
919,39201.707000,243.175,71.195,-22.544,397.770,296.536,-56.268,-348.200,34.290,-21.580
920,39201.727000,237.256,53.018,13.526,398.666,297.546,-51.268,-405.200,-118.710,-13.580
921,39201.775000,246.135,60.087,28.556,399.554,302.782,-50.102,-257.200,-332.710,-32.580
922,39201.808000,220.486,76.245,7.515,396.004,301.658,-59.087,-163.200,-687.710,-21.580
923,39201.852000,250.081,16.663,6.513,392.447,306.498,-71.850,24.800,-1118.710,-95.580
924,39201.888000,213.580,126.738,-52.603,387.093,310.130,-96.574,157.800,-1053.710,-202.580
925,39201.928000,269.811,2.525,-83.663,379.123,310.569,-111.480,402.800,-669.710,-202.580
926,39201.952000,263.892,82.304,-118.732,377.334,309.446,-120.459,115.800,-282.710,-94.580
927,39201.987000,218.513,112.600,-104.704,379.974,305.108,-120.591,-11.200,209.290,119.420
928,39202.33000,243.175,53.018,-78.654,384.404,300.185,-110.807,-92.200,529.290,241.420
929,39202.67000,241.202,46.959,-43.585,388.843,305.706,-99.691,-215.200,743.290,129.420
930,39202.110000,234.297,54.028,-63.624,390.658,304.507,-80.857,123.800,996.290,38.420
931,39202.150000,238.243,80.284,13.526,393.325,302.158,-71.988,268.800,947.290,71.420
932,39202.192000,239.229,50.998,30.560,398.636,298.972,-62.144,207.800,608.290,121.420
933,39202.207000,237.256,67.156,9.519,403.045,296.427,-60.227,468.800,368.290,177.420
934,39202.258000,248.108,44.939,4.509,403.927,290.408,-58.433,254.800,178.290,158.420
935,39202.295000,248.108,47.968,-21.542,408.326,290.355,-60.407,418.800,208.290,145.420
936,39202.331000,246.135,60.087,-10.521,408.314,285.931,-63.529,426.800,225.290,163.420
937,39202.371000,247.121,57.057,8.517,412.730,281.735,-58.686,368.800,234.290,191.420
938,39202.408000,243.175,45.949,-3.507,416.238,272.105,-61.967,290.800,222.290,198.420
939,39202.430000,244.162,37.870,2.505,418.889,275.635,-59.858,355.800,200.290,188.420
940,39202.473000,234.297,52.008,19.538,420.638,265.164,-62.178,224.800,11.290,214.420
941,39202.515000,250.081,39.890,38.575,424.142,258.082,-67.361,123.800,-235.710,237.420
942,39202.555000,250.081,31.811,9.519,427.634,244.839,-75.724,153.800,-390.710,225.420
943,39202.595000,256.987,46.959,61.620,425.826,247.831,-92.513,295.800,-737.710,238.420
944,39202.630000,276.717,67.156,79.656,425.790,252.645,-106.259,-49.200,-1281.710,196.420
945,39202.670000,388.193,-6.564,13.526,417.789,250.199,-131.189,-75.200,-1421.710,25.420
946,39202.690000,352.678,-5.554,-39.577,404.488,246.740,-161.133,664.800,-1113.710,-152.580
947,39202.730000,215.553,81.294,-89.675,392.095,242.696,-181.164,290.800,-829.710,14.420
948,39202.767000,110.983,-12.623,-28.556,388.572,244.429,-181.119,346.800,-60.710,35.420
949,39202.821000,172.146,0.505,-10.521,400.925,232.568,-171.535,917.800,1196.290,250.420
950,39202.847000,193.850,8.584,-37.573,409.805,224.655,-144.952,709.800,1576.290,279.420
951,39202.890000,240.216,3.535,-103.703,422.233,227.329,-112.057,30.800,1562.290,265.420
952,39202.907000,221.472,-14.643,-121.738,431.123,224.680,-83.318,109.800,1316.290,233.420
953,39202.947000,309.272,-39.890,-170.834,428.491,224.791,-79.351,198.800,431.290,96.420
954,39202.990000,255.013,6.564,-19.538,432.012,209.254,-76.864,-37.200,112.290,255.420
955,39203.28000,272.771,23.732,-178.849,435.537,210.993,-76.797,-1005.200,-430.710,212.420
956,39203.73000,263.892,53.018,-182.857,434.609,207.938,-92.787,-1064.200,-1039.710,-24.580
957,39203.108000,240.216,42.919,-156.806,431.904,211.628,-115.514,769.800,-1431.710,-199.580
958,39203.155000,223.445,56.047,-168.830,420.287,203.098,-171.436,2266.800,-1614.710,-651.580
959,39203.173000,226.405,105.531,-127.750,400.713,189.969,-236.469,2599.800,-1744.710,-868.580
960,39203.211000,224.432,96.442,-115.726,373.207,164.739,-299.934,3384.800,-1693.710,-1158.580
961,39203.248000,219.499,175.211,-130.755,351.932,131.537,-338.814,3771.800,-1713.710,-1341.580
962,39203.290000,241.202,139.866,-119.734,318.284,78.109,-387.326,3823.800,-1575.710,-1521.580
963,39203.335000,217.526,146.935,-112.720,294.372,19.118,-418.113,4135.800,-1221.710,-1621.580
964,39203.370000,212.593,127.748,-106.708,281.972,-41.008,-428.048,3684.800,-990.710,-1561.580
965,39203.410000,221.472,124.718,-85.667,274.883,-62.099,-437.692,2440.800,-764.710,-1182.580
966,39203.428000,208.647,84.323,-53.605,273.104,-70.024,-441.927,192.800,-434.710,-772.580
967,39203.473000,190.890,45.949,-61.620,280.158,-53.584,-443.357,-225.200,26.290,-749.580
968,39203.522000,194.836,65.136,-33.566,295.159,-31.788,-439.622,-542.200,487.290,-788.580
969,39203.551000,243.175,-117.649,19.538,329.579,7.635,-426.317,-989.200,1187.290,-573.580
970,39203.593000,363.530,24.742,-145.785,354.272,-3.293,-414.677,711.800,1317.290,-260.580
971,39203.632000,292.501,78.264,-69.636,376.358,15.430,-397.117,-530.200,957.290,-364.580
972,39203.650000,344.786,17.673,-32.564,394.918,43.613,-382.241,-1043.200,710.290,61.420
973,39203.695000,339.854,16.663,-47.593,408.144,40.292,-377.342,122.800,551.290,-3.580
974,39203.735000,359.584,-22.722,-48.595,407.293,46.621,-368.202,63.800,97.290,82.420
975,39203.770000,352.678,-3.535,-38.575,402.858,35.976,-376.506,327.800,-456.710,10.420
976,39203.813000,341.827,3.535,-30.560,384.309,19.105,-390.022,672.800,-758.710,64.420
977,39203.850000,304.339,24.742,-20.540,352.533,5.554,-408.437,167.800,-1225.710,225.420
978,39203.890000,258.960,48.978,-109.714,328.702,5.086,-424.416,-464.200,-1377.710,290.420
979,39203.908000,204.701,35.850,-161.816,291.650,14.884,-445.070,-984.200,-1547.710,359.420
980,39203.955000,175.106,-15.653,-76.650,256.380,29.192,-459.614,-1125.200,-1164.710,590.420
981,39203.990000,163.268,-22.722,-20.540,238.760,38.642,-462.342,-536.200,-379.710,850.420
982,39204.30000,137.618,20.702,-40.579,244.066,31.956,-453.605,-415.200,401.290,1092.420
983,39204.75000,141.565,22.722,-64.626,257.308,31.379,-443.652,-749.200,1317.290,1267.420
984,39204.110000,175.106,38.880,-73.644,291.741,30.429,-416.762,-1233.200,1865.290,1344.420
985,39204.128000,241.202,82.304,-146.787,330.630,53.255,-377.170,-2056.200,2142.290,1351.420
986,39204.175000,251.067,101.491,-171.836,364.254,93.523,-334.050,-3702.200,1828.290,1311.420
987,39204.210000,280.663,87.353,-148.791,380.216,123.863,-304.217,-4231.200,1283.290,1474.420
988,39204.255000,263.892,103.511,-120.736,397.091,148.494,-261.658,-3793.200,877.290,1463.420
989,39204.291000,251.067,100.481,-104.704,411.305,167.775,-224.246,-3123.200,664.290,1119.420
990,39204.336000,231.337,102.501,-79.656,421.091,172.183,-191.303,-2271.200,628.290,715.420
991,39204.371000,233.310,98.462,-81.659,429.942,178.632,-178.157,-1375.200,583.290,240.420
992,39204.390000,228.378,89.373,-66.630,433.526,191.294,-159.861,-286.200,580.290,-173.580
993,39204.433000,199.769,169.152,-172.838,435.328,199.445,-147.674,-28.200,520.290,-309.580
994,39204.471000,256.000,-28.781,-50.599,430.055,204.734,-144.541,112.800,-24.710,-306.580
995,39204.516000,255.013,-10.604,-91.679,431.831,209.188,-140.419,449.800,341.290,-344.580
996,39204.552000,261.919,4.544,-57.613,429.210,211.119,-133.413,-580.200,344.290,-281.580
997,39204.590000,280.663,-9.594,-34.568,430.129,220.977,-122.168,-143.200,574.290,-335.580
998,39204.617000,270.798,50.998,-8.517,426.659,229.266,-105.029,-149.200,647.290,-348.580
999,39204.650000,238.243,14.643,2.505,427.587,235.765,-89.920,-350.200,599.290,-373.580
1000,39204.690000,267.838,20.702,25.550,424.976,247.272,-81.611,-14.200,508.290,-349.580
1001,39204.735000,253.040,42.919,14.528,419.712,250.937,-74.558,-200.200,377.290,-320.580
1002,39204.771000,232.324,45.949,17.534,418.858,260.682,-67.294,-69.200,291.290,-260.580
1003,39204.821000,246.135,52.008,9.519,413.586,263.395,-63.251,-28.200,200.290,-157.580
1004,39204.856000,251.067,53.018,16.532,416.238,264.349,-60.232,80.800,152.290,-105.580
1005,39204.876000,252.054,49.988,11.523,415.356,262.613,-60.292,31.800,157.290,-61.580
1006,39204.911000,250.081,47.968,17.534,413.613,265.384,-54.249,47.800,152.290,-40.580
1007,39204.955000,244.162,50.998,13.526,412.741,273.224,-53.005,-23.200,123.290,-32.580
1008,39204.990000,246.135,48.978,21.542,412.747,270.704,-50.107,-24.200,80.290,-27.580
1009,39205.30000,246.135,49.988,19.538,410.104,266.391,-49.263,-98.200,81.290,-20.580
1010,39205.73000,251.067,44.939,24.548,411.878,270.816,-46.135,-62.200,69.290,-8.580
1011,39205.90000,246.135,45.949,14.528,412.761,270.845,-45.138,-35.200,66.290,0.420
1012,39205.137000,246.135,43.929,24.548,410.118,265.663,-44.321,-60.200,9.290,28.420
1013,39205.175000,247.121,50.998,19.538,414.516,269.054,-47.176,-25.200,4.290,34.420
1014,39205.211000,244.162,52.008,21.542,413.643,267.402,-44.254,-45.200,31.290,44.420
1015,39205.251000,257.973,33.830,18.536,415.410,263.148,-41.407,-65.200,47.290,65.420
1016,39205.292000,250.081,47.968,18.536,415.422,267.572,-38.285,-35.200,75.290,62.420
1017,39205.333000,244.162,49.988,20.540,416.300,260.657,-37.513,-46.200,130.290,91.420
1018,39205.352000,248.108,47.968,19.538,418.955,265.084,-34.382,-91.200,148.290,118.420
1019,39205.392000,244.162,40.899,33.566,421.604,261.698,-31.504,-61.200,147.290,124.420
1020,39205.436000,246.135,48.978,31.562,421.615,261.811,-27.529,-96.200,130.290,172.420
1021,39205.473000,250.081,45.949,28.556,424.265,255.849,-23.742,-23.200,149.290,198.420
1022,39205.510000,249.094,32.821,33.566,428.683,251.681,-17.905,-63.200,154.290,240.420
1023,39205.553000,247.121,33.830,23.546,429.570,247.427,-15.061,62.800,203.290,276.420
1024,39205.571000,253.040,21.712,30.560,436.620,239.704,-12.310,123.800,230.290,280.420
1025,39205.612000,251.067,27.771,39.577,438.393,231.195,-6.623,101.800,240.290,292.420
1026,39205.656000,252.054,22.722,55.609,441.035,226.885,-5.761,139.800,185.290,301.420
1027,39205.697000,258.960,1.515,46.591,445.436,221.680,-5.916,161.800,47.290,292.420
1028,39205.736000,265.865,8.584,48.595,445.427,217.284,-8.045,239.800,-71.710,260.420
