Sample, Time, ACCX, ACCY, ACCZ, MAGX, MAGY, MAGZ, GYRX, GYRY, GYRZ
0,39351.331000,253.040,22.722,6.513,426.632,204.009,-108.828,9.800,-30.710,25.420
1,39351.375000,254.027,21.712,6.513,431.045,207.541,-106.713,67.800,-25.710,33.420
2,39351.391000,254.027,20.702,3.507,430.155,198.832,-107.991,82.800,-21.710,39.420
3,39351.434000,252.054,25.751,7.515,427.520,205.802,-106.781,140.800,4.290,41.420
4,39351.474000,250.081,31.811,7.515,429.279,205.775,-107.769,138.800,23.290,37.420
5,39351.524000,250.081,28.781,9.519,430.152,202.247,-109.866,101.800,25.290,36.420
6,39351.551000,248.108,23.732,8.517,431.028,196.172,-110.061,43.800,8.290,35.420
7,39351.590000,252.054,23.732,10.521,431.031,196.200,-109.067,79.800,0.290,34.420
8,39351.614000,255.013,23.732,9.519,432.785,196.985,-112.015,71.800,-8.710,35.420
9,39351.653000,248.108,24.742,8.517,432.779,196.929,-114.003,68.800,-14.710,33.420
10,39351.690000,252.054,23.732,7.515,432.780,197.797,-113.974,38.800,-16.710,33.420
11,39351.730000,252.054,25.751,8.517,431.903,195.248,-112.074,51.800,-9.710,30.420
12,39351.773000,251.067,22.722,8.517,432.782,196.089,-113.037,-9.200,-11.710,18.420
13,39351.815000,255.013,22.722,7.515,431.024,194.408,-111.111,-48.200,-13.710,7.420
14,39351.851000,250.081,23.732,8.517,433.661,193.486,-113.119,-38.200,-14.710,1.420
15,39351.875000,251.067,28.781,10.521,432.777,196.901,-114.997,-43.200,-22.710,-5.580
16,39351.913000,253.040,20.702,7.515,434.548,198.722,-111.953,-110.200,-34.710,-8.580
17,39351.954000,251.067,21.712,8.517,431.017,199.503,-114.918,-87.200,-32.710,-14.580
18,39352.15000,250.081,24.742,8.517,431.901,196.956,-113.012,-118.200,-51.710,-21.580
19,39352.31000,252.054,22.722,7.515,431.022,195.248,-112.077,-114.200,-53.710,-23.580
20,39352.71000,253.040,25.751,6.513,429.269,195.331,-109.101,-109.200,-49.710,-23.580
21,39352.95000,253.040,18.682,3.507,431.905,202.164,-112.843,-129.200,-37.710,-32.580
22,39352.131000,248.108,23.732,3.507,431.026,201.324,-111.880,-118.200,-23.710,-36.580
23,39352.171000,253.040,22.722,9.519,431.034,203.984,-109.807,-113.200,-16.710,-36.580
24,39352.213000,260.933,14.643,4.509,429.278,207.483,-108.706,-46.200,-19.710,-22.580
25,39352.253000,250.081,23.732,4.509,431.032,204.824,-110.773,6.800,9.290,-25.580
26,39352.295000,250.081,32.821,7.515,430.157,205.748,-108.760,-5.200,10.290,-13.580
27,39352.335000,254.027,31.811,8.517,428.394,207.454,-109.703,-56.200,-10.710,2.420
28,39352.354000,252.054,30.801,9.519,426.624,200.481,-110.928,-21.200,-14.710,18.420
29,39352.394000,252.054,29.791,7.515,429.260,199.558,-112.936,-9.200,-29.710,31.420
30,39352.434000,252.054,27.771,8.517,428.383,200.454,-111.916,-4.200,-50.710,43.420
31,39352.471000,252.054,23.732,10.521,430.145,204.767,-112.764,33.800,-85.710,60.420
32,39352.515000,249.094,26.761,10.521,428.371,203.785,-116.773,31.800,-155.710,73.420
33,39352.553000,248.108,23.732,8.517,428.360,200.229,-119.868,20.800,-235.710,78.420
34,39352.571000,256.987,25.751,7.515,427.470,199.275,-122.880,-41.200,-308.710,80.420
35,39352.611000,251.067,15.653,-4.509,426.565,200.757,-131.772,33.800,-361.710,76.420
36,39352.651000,253.040,12.623,-13.526,428.299,190.145,-139.062,88.800,-382.710,68.420
37,39352.692000,260.933,29.791,-14.528,425.633,185.606,-146.169,70.800,-372.710,45.420
38,39352.733000,260.933,14.643,-27.554,422.978,192.379,-151.915,29.800,-249.710,34.420
39,39352.773000,255.013,8.584,-32.564,422.965,189.663,-155.975,160.800,-171.710,3.420
40,39352.815000,253.040,16.663,-36.571,420.312,191.284,-159.903,205.800,-107.710,-16.580
41,39352.834000,247.121,12.623,-41.581,420.296,191.983,-165.839,381.800,-39.710,-68.580
42,39352.871000,243.175,21.712,-45.589,418.530,186.774,-166.013,628.800,-1.710,-99.580
43,39352.913000,245.148,22.722,-54.607,417.625,177.056,-172.289,567.800,1.290,-57.580
44,39352.955000,246.135,23.732,-58.614,420.257,185.569,-177.963,299.800,-62.710,-34.580
45,39352.993000,245.148,4.544,-55.609,418.487,177.728,-179.216,266.800,-96.710,-28.580
46,39353.31000,249.094,2.525,-49.597,418.463,180.078,-188.077,413.800,-113.710,-22.580
47,39353.55000,247.121,2.525,-53.605,414.030,169.462,-195.386,528.800,-144.710,-1.580
48,39353.93000,249.094,6.564,-54.607,412.252,169.291,-201.355,501.800,-190.710,3.420
49,39353.140000,250.081,7.574,-52.603,410.470,157.893,-205.703,383.800,-255.710,41.420
50,39353.172000,253.040,9.594,-51.601,403.388,153.238,-216.800,299.800,-315.710,57.420
51,39353.215000,247.121,6.564,-48.595,398.083,153.905,-223.746,284.800,-317.710,47.420
52,39353.256000,247.121,11.613,-53.605,398.042,144.887,-235.955,352.800,-302.710,30.420
53,39353.304000,248.108,9.594,-51.601,392.751,148.271,-238.841,378.800,-294.710,55.420
54,39353.321000,248.108,11.613,-54.607,391.845,141.997,-245.998,410.800,-263.710,57.420
55,39353.356000,243.175,18.682,-53.605,383.009,132.246,-253.294,325.800,-243.710,48.420
56,39353.394000,242.189,19.692,-55.609,381.238,132.160,-256.281,261.800,-242.710,41.420
57,39353.436000,243.175,15.653,-40.579,375.927,127.591,-264.390,99.800,-219.710,39.420
58,39353.474000,251.067,17.673,-36.571,380.329,124.122,-264.489,144.800,-69.710,92.420
59,39353.515000,220.486,94.422,-35.569,382.106,122.556,-258.576,-65.200,386.290,-16.580
60,39353.534000,258.960,54.028,-107.710,383.020,136.670,-250.171,-601.200,302.290,-180.580
61,39353.576000,239.229,15.653,-62.622,385.683,140.313,-244.086,360.800,517.290,-148.580
62,39353.614000,243.175,11.613,-51.601,386.587,141.407,-236.104,-83.200,497.290,-177.580
63,39353.655000,252.054,0.505,-49.597,393.672,146.090,-224.014,-121.200,513.290,-162.580
64,39353.696000,258.960,11.613,-28.556,395.466,150.713,-213.928,-204.200,508.290,-158.580
65,39353.734000,262.906,22.722,-17.534,398.155,155.478,-198.870,-232.200,479.290,-178.580
66,39353.775000,261.919,6.564,-17.534,405.214,156.463,-194.843,-140.200,436.290,-193.580
67,39353.794000,249.094,20.702,-6.513,405.241,166.209,-187.576,-69.200,316.290,-222.580
68,39353.836000,249.094,26.761,-12.524,405.255,174.105,-184.341,-189.200,222.290,-236.580
69,39353.874000,253.040,37.870,-8.517,406.159,181.219,-178.149,-161.200,176.290,-223.580
70,39353.916000,255.013,28.781,-13.526,406.172,183.935,-174.089,-34.200,182.290,-208.580
71,39353.953000,250.081,44.939,-1.503,398.250,185.722,-172.070,-129.200,113.290,-193.580
72,39353.995000,247.121,40.899,-3.507,399.145,188.439,-168.007,-62.200,46.290,-157.580
73,39354.14000,253.040,46.959,-5.511,394.738,190.144,-168.959,-118.200,7.290,-131.580
74,39354.56000,260.933,33.830,-19.538,395.629,196.277,-166.771,-90.200,46.290,-93.580
75,39354.94000,250.081,40.899,-18.536,397.401,198.099,-163.728,-11.200,144.290,-75.580
76,39354.135000,253.040,41.909,-11.523,398.294,199.080,-159.721,5.800,192.290,-52.580
77,39354.173000,246.135,47.968,6.513,401.825,205.187,-158.518,-5.200,162.290,-25.580
78,39354.215000,248.108,48.978,11.523,395.666,196.643,-153.850,-59.200,70.290,3.420
79,39354.252000,248.108,41.909,5.511,397.425,195.748,-154.867,-35.200,21.290,27.420
80,39354.276000,247.121,49.988,10.521,400.947,197.459,-155.793,18.800,-13.710,46.420
81,39354.314000,246.135,42.919,4.509,403.585,194.828,-156.863,-23.200,-78.710,66.420
82,39354.356000,247.121,45.949,-1.503,400.056,195.637,-158.834,-52.200,-97.710,87.420
83,39354.394000,252.054,46.959,-2.505,400.935,196.478,-159.797,-51.200,-111.710,118.420
84,39354.434000,249.094,43.929,-0.501,403.584,196.536,-157.801,-36.200,-127.710,178.420
85,39354.476000,250.081,36.860,1.503,402.676,191.102,-165.924,-6.200,-154.710,206.420
86,39354.499000,250.081,34.840,-2.505,403.552,185.027,-166.118,-13.200,-203.710,219.420
87,39354.536000,252.054,33.830,-2.505,404.414,177.943,-171.310,48.800,-249.710,239.420
88,39354.581000,253.040,23.732,-13.526,404.401,171.782,-174.489,21.800,-266.710,246.420
89,39354.614000,252.054,24.742,-11.523,405.261,162.962,-179.737,66.800,-286.710,251.420
90,39354.654000,253.040,15.653,-13.526,405.230,162.652,-190.670,32.800,-377.710,243.420
91,39354.694000,253.040,11.613,-17.534,403.435,155.425,-200.841,50.800,-463.710,230.420
92,39354.734000,247.121,10.604,-1.503,399.010,151.781,-206.931,179.800,-601.710,214.420
93,39354.755000,278.690,6.564,-33.566,395.440,150.460,-222.873,73.800,-668.710,196.420
94,39354.795000,271.784,13.633,-34.568,390.105,137.042,-237.228,284.800,-602.710,245.420
95,39354.834000,258.960,13.633,-53.605,386.547,128.945,-247.432,250.800,-669.710,194.420
96,39354.879000,257.973,23.732,-60.618,383.870,128.605,-259.367,342.800,-644.710,83.420
97,39354.919000,237.256,28.781,-62.622,378.557,125.744,-268.414,26.800,-533.710,1.420
98,39354.959000,214.566,52.008,-32.564,375.044,137.054,-267.065,-1095.200,-98.710,-66.580
99,39354.980000,227.391,14.643,-21.542,379.517,164.444,-249.281,-2040.200,294.290,-48.580
100,39355.16000,246.135,-0.505,-39.577,383.099,177.945,-231.951,-2074.200,672.290,20.420
101,39355.56000,244.162,-18.682,-28.556,394.646,187.507,-200.821,-981.200,1093.290,261.420
102,39355.98000,258.960,2.525,-65.628,408.821,188.306,-172.946,-89.200,1204.290,227.420
103,39355.137000,257.973,17.673,-75.648,417.679,188.791,-156.021,280.800,1046.290,-44.580
104,39355.177000,245.148,5.554,-75.648,424.761,194.314,-144.896,409.800,582.290,-67.580
105,39355.217000,235.283,53.018,-122.740,427.412,189.220,-141.081,251.800,194.290,-72.580
106,39355.239000,237.256,-10.604,-7.515,428.288,190.033,-143.038,23.800,-147.710,13.420
107,39355.274000,233.310,26.761,-34.568,427.403,192.580,-144.944,7.800,79.290,-59.580
108,39355.319000,245.148,30.801,-27.554,427.428,195.409,-136.908,-279.200,117.290,-26.580
109,39355.359000,259.946,22.722,-24.548,426.549,186.813,-134.211,-238.200,237.290,-29.580
110,39355.397000,275.730,-3.535,-9.519,426.573,193.086,-127.056,-96.200,333.290,2.420
111,39355.434000,269.811,-11.613,3.507,432.762,189.004,-118.232,-21.200,363.290,-28.580
112,39355.454000,256.987,11.613,8.517,433.663,188.334,-111.300,55.800,348.290,-71.580
113,39355.499000,243.175,36.860,17.534,435.437,197.940,-108.996,78.800,269.290,-57.580
114,39355.535000,242.189,30.801,24.548,434.570,200.656,-104.939,43.800,166.290,-49.580
115,39355.575000,251.067,24.742,19.538,433.691,200.683,-103.948,-73.200,-9.710,-43.580
116,39355.615000,257.973,24.742,18.536,429.282,201.492,-105.922,-2.200,-79.710,-9.580
117,39355.658000,256.987,24.742,12.524,431.916,197.965,-108.014,52.800,-94.710,1.420
118,39355.698000,249.094,20.702,5.511,433.674,196.202,-109.058,50.800,-92.710,1.420
119,39355.715000,251.067,28.781,3.507,433.659,190.882,-113.203,7.800,-75.710,9.420
120,39355.755000,250.081,22.722,7.515,433.659,195.193,-114.056,48.800,-43.710,22.420
121,39355.800000,255.013,14.643,0.501,433.670,198.750,-110.962,72.800,-11.710,17.420
122,39355.840000,253.040,19.692,4.509,431.904,196.984,-112.018,82.800,9.290,0.420
123,39355.881000,249.094,26.761,7.515,429.268,198.775,-109.982,37.800,9.290,-7.580
124,39355.915000,250.081,23.732,9.519,429.247,193.398,-116.114,0.800,-12.710,-7.580
125,39355.935000,251.067,24.742,5.511,429.254,194.322,-114.098,19.800,-15.710,1.420
126,39355.975000,255.013,23.732,8.517,431.023,200.428,-112.902,21.800,-14.710,8.420
127,39356.17000,252.054,22.722,5.511,431.022,198.692,-112.958,-5.200,-17.710,9.420
128,39356.59000,252.054,23.732,4.509,429.246,198.550,-117.933,-7.200,-13.710,11.420
129,39356.100000,249.094,23.732,3.507,432.785,200.429,-112.896,7.800,-3.710,18.420
130,39356.138000,251.067,23.732,8.517,431.013,195.163,-115.059,-20.200,-2.710,23.420
131,39356.177000,252.054,20.702,6.513,432.773,191.693,-115.166,-31.200,-15.710,16.420
132,39356.195000,249.094,25.751,8.517,430.139,192.643,-112.164,-18.200,-30.710,17.420
133,39356.237000,252.054,22.722,4.509,431.008,188.219,-115.284,13.800,-24.710,27.420
134,39356.280000,249.094,23.732,6.513,431.011,195.135,-116.052,-12.200,-22.710,30.420
135,39356.320000,253.040,20.702,7.515,431.888,194.240,-117.072,-25.200,-45.710,29.420
136,39356.360000,254.027,23.732,8.517,432.764,191.608,-118.147,-10.200,-55.710,37.420
137,39356.400000,249.094,21.712,7.515,433.646,193.345,-118.088,-24.200,-81.710,41.420
138,39356.420000,254.027,22.722,5.511,431.873,192.363,-122.098,-43.200,-119.710,48.420
139,39356.460000,256.000,20.702,3.507,436.271,187.130,-123.246,-4.200,-134.710,62.420
140,39356.499000,261.919,15.653,3.507,435.386,185.365,-124.299,-11.200,-140.710,79.420
141,39356.539000,252.054,6.564,-3.507,432.713,183.345,-134.303,-1.200,-340.710,52.420
142,39356.579000,263.892,10.604,8.517,430.939,186.675,-139.166,20.800,-415.710,1.420
143,39356.619000,258.960,20.702,-7.515,426.520,189.107,-145.059,137.800,-438.710,-104.580
144,39356.659000,249.094,15.653,-27.554,421.193,191.285,-159.900,541.800,-424.710,-217.580
145,39356.679000,240.216,34.840,-40.579,418.522,183.245,-168.114,367.800,-320.710,-90.580
146,39356.719000,246.135,41.909,-32.564,415.871,191.783,-172.810,-326.200,-261.710,-43.580
147,39356.760000,242.189,17.673,-31.562,414.987,187.442,-172.954,-528.200,-98.710,8.420
148,39356.800000,233.310,28.781,-35.569,415.013,195.451,-165.743,-257.200,125.290,2.420
149,39356.840000,237.256,43.929,-46.591,418.557,199.963,-159.627,-28.200,273.290,-61.580
150,39356.881000,257.973,-7.574,-21.542,419.436,197.359,-159.709,435.800,294.290,54.420
151,39356.916000,249.094,40.899,-5.511,424.734,194.900,-154.807,14.800,221.290,-35.580
152,39356.936000,258.960,17.673,-19.538,421.212,194.058,-153.852,-191.200,104.290,-25.580
153,39356.979000,257.973,18.682,-13.526,423.865,195.880,-150.806,-26.200,109.290,-40.580
154,39357.19000,254.027,8.584,-18.536,422.114,195.992,-146.836,-96.200,83.290,-63.580
155,39357.60000,253.040,5.554,-24.548,418.601,198.677,-143.781,-7.200,76.290,-73.580
156,39357.100000,256.987,39.890,-3.507,423.006,202.992,-144.620,-30.200,84.290,-80.580
157,39357.139000,247.121,21.712,-16.532,419.493,205.678,-141.565,-7.200,88.290,-66.580
158,39357.160000,253.040,27.771,-15.530,422.141,204.869,-139.597,19.800,119.290,-39.580
159,39357.196000,253.040,26.761,-6.513,424.793,205.823,-136.578,20.800,123.290,-37.580
160,39357.242000,252.054,40.899,-0.501,423.031,202.378,-135.703,-24.200,98.290,-14.580
161,39357.278000,246.135,30.801,-6.513,419.513,202.432,-133.726,11.800,84.290,6.420
162,39357.319000,254.027,28.781,0.501,420.395,204.168,-133.667,7.800,60.290,16.420
163,39357.360000,252.054,32.821,2.505,422.155,201.566,-133.746,15.800,33.290,28.420
164,39357.401000,250.081,31.811,-2.505,424.790,198.039,-135.838,19.800,-3.710,56.420
165,39357.421000,249.094,29.791,2.505,423.038,200.726,-132.777,35.800,-32.710,73.420
166,39357.456000,247.121,28.781,8.517,422.148,195.462,-134.937,27.800,-94.710,83.420
167,39357.497000,250.081,19.692,15.530,423.893,191.850,-140.014,102.800,-295.710,116.420
168,39357.539000,260.933,12.623,31.562,421.212,194.058,-153.852,180.800,-605.710,99.420
169,39357.585000,282.636,25.751,29.558,416.763,183.272,-167.126,320.800,-905.710,28.420
170,39357.627000,297.434,80.284,29.558,407.005,188.637,-191.808,277.800,-1106.710,-222.580
171,39357.640000,299.407,54.028,16.532,399.882,189.607,-218.610,1286.800,-671.710,-473.580
172,39357.681000,232.324,80.284,37.573,398.981,188.542,-225.598,1074.800,-99.710,-345.580
173,39357.724000,216.540,47.968,27.554,401.644,185.297,-217.751,-380.200,712.290,-183.580
174,39357.760000,237.256,26.761,-13.526,413.203,203.595,-184.351,-911.200,1114.290,28.420
175,39357.801000,247.121,40.899,-30.560,427.416,214.252,-145.233,-1148.200,1299.290,79.420
176,39357.837000,259.946,29.791,-51.601,440.754,220.652,-103.277,-941.200,1311.290,21.420
177,39357.877000,250.081,28.781,-55.609,445.255,229.369,-71.204,-361.200,1213.290,22.420
178,39357.896000,256.987,56.047,-49.597,450.595,233.352,-53.184,111.800,889.290,-64.580
179,39357.936000,244.162,42.919,-51.601,448.877,235.509,-38.225,-57.200,418.290,-156.580
180,39357.977000,223.445,33.830,-48.595,450.652,245.114,-35.921,28.800,81.290,-261.580
181,39358.20000,224.432,32.821,-48.595,448.023,248.697,-31.842,-20.200,-147.710,-250.580
182,39358.61000,217.526,31.811,-35.569,446.249,247.715,-35.851,240.800,-126.710,-303.580
183,39358.97000,216.540,16.663,2.505,441.840,253.704,-38.650,296.800,85.290,-272.580
184,39358.117000,302.366,18.682,86.669,441.860,253.901,-31.693,-575.200,-27.710,-24.580
185,39358.163000,298.420,-64.126,76.650,444.516,256.619,-27.624,-631.200,-263.710,-157.580
186,39358.196000,262.906,11.613,39.577,442.745,266.865,-33.255,-280.200,-524.710,-209.580
187,39358.238000,242.189,77.254,16.532,440.944,268.205,-47.119,308.800,-409.710,-97.580
188,39358.283000,285.595,48.978,-6.513,439.162,267.139,-54.110,-146.200,-335.710,-73.580
189,39358.317000,267.838,7.574,28.556,436.517,272.289,-55.938,54.800,-283.710,-83.580
190,39358.357000,235.283,94.422,6.513,436.483,267.639,-67.012,294.800,-196.710,-25.580
191,39358.381000,253.040,50.998,6.513,438.237,264.980,-69.078,53.800,-103.710,28.420
192,39358.426000,212.593,129.767,33.566,437.350,264.055,-71.097,-2.200,-86.710,-40.580
193,39358.462000,253.040,50.998,25.550,433.833,270.156,-69.917,-351.200,-234.710,45.420
194,39358.500000,247.121,36.860,-21.542,436.494,272.063,-63.889,-674.200,-202.710,-17.580
195,39358.541000,273.757,12.623,-15.530,434.733,276.374,-64.748,-94.200,-120.710,3.420
196,39358.582000,255.013,33.830,-13.526,432.085,273.740,-65.835,86.800,28.290,-17.580
197,39358.602000,254.027,59.077,-1.503,432.971,272.061,-63.900,90.800,66.290,-16.580
198,39358.640000,238.243,80.284,21.542,433.844,269.401,-65.970,56.800,27.290,24.420
199,39358.680000,243.175,26.761,34.568,435.612,273.770,-64.829,-105.200,-113.710,14.420
200,39358.718000,246.135,69.176,-15.530,433.828,274.412,-72.758,187.800,-357.710,-52.580
201,39358.757000,235.283,64.126,-36.571,432.948,275.279,-72.733,-83.200,-21.710,-5.580
202,39358.800000,259.946,55.037,-7.515,433.836,273.628,-69.805,-27.200,135.290,50.420
203,39358.840000,271.784,36.860,-10.521,437.377,273.800,-63.830,-480.200,198.290,114.420
204,39358.860000,278.690,38.880,-5.511,438.268,261.846,-57.264,98.800,437.290,152.420
205,39358.901000,256.987,38.880,16.532,434.770,262.097,-48.330,42.800,476.290,170.420
206,39358.941000,262.906,37.870,33.566,437.440,260.644,-38.439,98.800,437.290,189.420
207,39358.982000,293.487,9.594,35.569,441.841,255.440,-38.594,456.800,390.290,125.420
208,39359.19000,285.595,-69.176,-71.640,441.854,260.732,-35.443,-20.200,115.290,245.420
209,39359.59000,220.486,-7.574,-261.010,446.261,248.696,-31.847,-1768.200,-677.710,717.420
210,39359.81000,228.378,95.432,-384.250,447.982,228.480,-41.435,-2853.200,-1948.710,693.420
211,39359.121000,226.405,101.491,-261.010,438.108,219.754,-104.308,452.800,-2433.710,345.420
212,39359.163000,213.580,131.787,-230.951,421.203,205.173,-159.450,1880.800,-2687.710,-129.580
213,39359.197000,238.243,110.580,-171.836,384.857,187.382,-235.611,1952.800,-2734.710,-263.580
214,39359.237000,251.067,218.635,-134.763,342.395,174.405,-294.754,1633.800,-2583.710,-266.580
215,39359.282000,269.811,182.280,-73.644,296.458,166.216,-337.866,743.800,-2335.710,-487.580
216,39359.324000,287.568,166.122,-17.534,273.497,163.060,-356.909,942.800,-1672.710,-722.580
217,39359.339000,337.881,202.477,30.560,249.636,149.375,-380.268,928.800,-1020.710,-857.580
218,39359.379000,300.393,133.807,90.677,229.351,160.335,-390.900,80.800,-337.710,-1138.580
219,39359.419000,278.690,91.393,60.618,222.319,173.406,-388.513,-64.200,465.290,-1271.580
220,39359.459000,285.595,-41.909,12.524,228.526,197.072,-379.781,-1214.200,912.290,-1072.580
221,39359.499000,266.852,-59.077,-41.581,243.555,211.393,-364.373,302.800,1197.290,-418.580
222,39359.550000,270.798,-46.959,-26.552,264.737,210.935,-350.418,-150.200,1283.290,-40.580
223,39359.564000,285.595,-33.830,-50.599,285.956,222.910,-326.130,-1090.200,1172.290,160.420
224,39359.599000,272.771,-59.077,22.544,310.688,226.152,-304.100,-250.200,1326.290,150.420
225,39359.639000,276.717,-8.584,-18.536,323.939,215.328,-288.521,438.800,1726.290,33.420
226,39359.695000,202.728,194.398,-503.483,336.295,203.495,-277.942,896.800,880.290,-71.580
227,39359.722000,219.499,6.564,77.652,332.760,207.692,-282.782,183.800,275.290,-84.580
228,39359.764000,252.054,38.880,-125.746,341.598,208.848,-272.787,-149.200,539.290,-87.580
229,39359.804000,253.040,22.722,-92.681,346.031,216.020,-264.596,-91.200,703.290,-40.580
230,39359.824000,343.800,29.791,-2.505,348.716,219.889,-250.560,-516.200,367.290,-64.580
231,39359.859000,254.027,68.166,-29.558,353.134,218.297,-245.632,70.800,72.290,-76.580
232,39359.899000,223.445,78.264,-79.656,351.371,220.003,-246.575,168.800,28.290,27.420
233,39359.939000,238.243,82.304,-68.634,351.369,218.267,-246.632,-33.200,178.290,62.420
234,39359.979000,236.270,50.998,-54.607,356.669,218.412,-241.645,-37.200,287.290,36.420
235,39360.24000,232.324,69.176,-25.550,361.086,219.396,-237.627,-202.200,221.290,-15.580
236,39360.46000,262.906,25.751,-29.558,359.334,221.215,-234.595,79.800,-74.710,-10.580
237,39360.81000,241.202,65.136,-72.642,356.678,226.252,-240.398,97.800,-84.710,-48.580
238,39360.126000,236.270,59.077,-73.644,355.798,215.920,-237.757,205.800,15.290,7.420
239,39360.161000,246.135,59.077,-39.577,353.151,215.022,-238.788,50.800,-36.710,-11.580
240,39360.201000,240.216,78.264,-35.569,355.794,222.779,-240.513,-6.200,-102.710,-13.580
241,39360.245000,247.121,66.146,-45.589,352.251,215.692,-245.720,167.800,-151.710,-21.580
242,39360.279000,250.081,11.613,-73.644,350.474,213.814,-250.751,12.800,-272.710,20.420
243,39360.299000,240.216,49.988,-76.650,348.715,218.153,-250.616,133.800,-188.710,-48.580
244,39360.339000,237.256,55.037,-73.644,350.461,219.721,-256.517,83.800,-77.710,-45.580
245,39360.379000,240.216,58.067,-62.622,347.815,214.511,-256.695,163.800,-86.710,-51.580
246,39360.424000,239.229,32.821,-72.642,343.403,217.027,-259.606,178.800,-87.710,-27.580
247,39360.461000,246.135,53.018,-73.644,341.626,215.149,-264.638,230.800,-132.710,-2.580
248,39360.504000,233.310,67.156,-55.609,341.612,208.121,-267.845,300.800,-218.710,39.420
249,39360.519000,227.391,67.156,-70.638,338.940,203.525,-276.940,197.800,-227.710,62.420
250,39360.559000,230.351,77.254,-74.646,338.925,201.648,-281.966,187.800,-177.710,40.420
251,39360.602000,241.202,47.968,-66.630,337.162,204.223,-282.881,41.800,-269.710,59.420
252,39360.642000,236.270,44.939,-74.646,330.957,194.361,-294.144,55.800,-389.710,38.420
253,39360.688000,241.202,65.136,-91.679,323.013,192.478,-299.195,128.800,-466.710,57.420
254,39360.724000,237.256,58.067,-90.677,317.691,192.976,-312.105,142.800,-456.710,57.420
255,39360.759000,246.135,52.008,-90.677,316.798,187.683,-315.258,229.800,-490.710,111.420
256,39360.779000,279.676,29.791,-60.618,307.075,178.742,-324.517,324.800,-612.710,123.420
257,39360.820000,309.272,20.702,-37.573,295.572,171.339,-340.682,328.800,-932.710,157.420
258,39360.866000,308.285,53.018,-83.663,277.882,163.734,-363.824,155.800,-1405.710,91.420
259,39360.901000,275.730,144.915,-132.759,258.462,163.326,-377.801,-220.200,-1544.710,120.420
260,39360.942000,144.524,67.156,-60.618,236.423,177.812,-386.339,-607.200,-972.710,3.420
261,39360.984000,167.214,64.126,3.507,239.944,176.919,-387.349,-42.200,376.290,109.420
262,39361.20000,186.944,48.978,-76.650,256.749,194.826,-367.848,-1241.200,922.290,136.420
263,39361.40000,195.823,25.751,-121.738,279.748,207.840,-337.562,-1633.200,1212.290,141.420
264,39361.80000,218.513,21.712,-144.783,300.077,223.174,-317.139,-461.200,1289.290,336.420
265,39361.120000,195.823,53.018,-210.912,325.659,223.531,-305.130,66.800,1097.290,220.420
266,39361.160000,211.607,-10.604,-192.877,338.918,223.123,-289.213,44.800,816.290,127.420
267,39361.200000,158.335,63.116,-383.249,346.867,216.438,-280.467,-83.200,408.290,130.420
268,39361.241000,184.971,18.682,-187.867,343.338,216.379,-282.466,-295.200,-429.710,100.420
269,39361.262000,140.578,28.781,-29.558,345.113,222.541,-279.282,14.800,249.290,66.420
270,39361.302000,272.771,169.152,-67.632,343.365,218.369,-273.465,-300.200,151.290,-38.580
271,39361.340000,231.337,64.126,-62.622,349.535,220.137,-272.395,-290.200,131.290,-12.580
272,39361.382000,225.418,-18.682,-92.681,350.425,227.978,-271.145,113.800,196.290,-135.580
273,39361.422000,218.513,84.323,-97.691,353.091,228.206,-263.185,-134.200,286.290,-137.580
274,39361.460000,236.270,82.304,-81.659,357.515,231.850,-257.094,8.800,466.290,-153.580
275,39361.500000,248.108,74.225,-70.638,361.069,234.738,-247.059,-325.200,416.290,-39.580
276,39361.520000,226.405,70.185,-63.624,361.968,239.219,-241.946,-429.200,331.290,-131.580
277,39361.560000,258.960,45.949,-44.587,365.529,244.768,-229.839,-237.200,285.290,-76.580
278,39361.600000,302.366,42.919,-38.575,364.665,251.824,-225.641,-281.200,57.290,-110.580
279,39361.645000,258.960,28.781,-85.667,361.136,252.633,-227.612,24.800,24.290,-145.580
280,39361.685000,251.067,42.919,-108.712,363.782,244.908,-224.875,418.800,275.290,-63.580
281,39361.724000,236.270,89.373,-47.593,369.068,245.779,-224.830,423.800,299.290,16.420
282,39361.744000,195.823,96.442,-48.595,370.834,244.101,-222.892,-40.200,227.290,59.420
283,39361.784000,209.634,67.156,-60.618,373.500,248.640,-215.786,-42.200,286.290,53.420
284,39361.820000,189.904,98.462,-43.585,378.814,251.502,-206.739,-395.200,281.290,63.420
285,39361.860000,216.540,39.890,-58.614,378.826,241.283,-200.119,-288.200,263.290,118.420
286,39361.900000,237.256,46.959,-60.618,386.777,244.958,-193.024,-480.200,261.290,120.420
287,39361.941000,303.353,8.584,-10.521,385.922,249.522,-184.934,-199.200,212.290,41.420
288,39361.981000,258.960,55.037,-49.597,388.588,254.061,-177.828,-254.200,217.290,-16.580
289,39362.1000,258.960,74.225,-15.530,386.839,255.909,-173.801,-300.200,211.290,-6.580
290,39362.41000,250.081,101.491,-10.521,385.975,256.945,-167.813,-318.200,64.290,66.420
291,39362.81000,253.040,54.028,-37.573,392.162,253.703,-159.954,-62.200,130.290,86.420
292,39362.121000,245.148,68.166,-29.558,392.155,251.043,-162.026,-72.200,138.290,118.420
293,39362.166000,227.391,66.146,-25.550,395.706,258.215,-153.838,-53.200,117.290,27.420
294,39362.201000,239.229,59.077,-4.509,391.290,250.343,-156.094,107.800,87.290,-8.580
295,39362.221000,267.838,19.692,28.556,392.165,258.043,-159.813,60.800,-87.710,-93.580
296,39362.265000,286.582,-8.584,-10.521,387.736,258.654,-168.744,432.800,-456.710,-193.580
297,39362.304000,197.796,112.600,-99.695,382.428,262.737,-177.566,-40.200,-365.710,-233.580
298,39362.347000,265.865,78.264,-50.599,382.423,260.973,-178.616,256.800,-75.710,-94.580
299,39362.384000,208.647,86.343,-97.691,378.017,259.234,-178.687,-199.200,195.290,-56.580
300,39362.426000,280.663,33.830,-32.564,382.437,255.934,-172.822,230.800,435.290,28.420
301,39362.466000,248.108,54.028,-48.595,384.212,255.208,-167.875,212.800,402.290,85.420
302,39362.486000,225.418,85.333,-13.526,390.388,256.165,-164.845,298.800,478.290,64.420
303,39362.527000,231.337,75.235,-7.515,394.818,255.554,-155.914,-44.200,482.290,108.420
304,39362.561000,235.283,58.067,-8.517,400.129,255.811,-146.951,-198.200,322.290,103.420
305,39362.601000,251.067,50.998,22.544,400.139,254.188,-143.032,108.800,214.290,65.420
306,39362.642000,234.297,71.195,-6.513,400.129,248.055,-145.217,192.800,162.290,35.420
307,39362.681000,250.081,65.136,42.583,398.376,244.695,-141.360,236.800,39.290,65.420
308,39362.707000,239.229,47.968,-8.517,401.897,244.669,-142.342,42.800,-28.710,68.420
309,39362.745000,232.324,76.245,-27.554,400.116,241.895,-148.396,227.800,-217.710,19.420
310,39362.786000,246.135,92.402,-5.511,401.866,240.915,-152.394,-227.200,-247.710,5.420
311,39362.822000,229.364,94.422,9.519,399.232,249.622,-151.127,-268.200,-198.710,25.420
312,39362.866000,286.582,-11.613,-13.526,400.106,244.386,-152.287,-498.200,-231.710,123.420
313,39362.906000,256.000,8.584,-2.505,397.450,249.423,-158.090,194.800,-316.710,-51.580
314,39362.946000,223.445,72.205,-74.646,392.146,246.646,-164.155,142.800,-249.710,-77.580
315,39362.966000,272.771,62.107,-4.509,396.537,243.933,-168.201,179.800,-42.710,-11.580
316,39363.6000,217.526,70.185,-70.638,393.002,248.130,-173.041,0.800,-176.710,15.420
317,39363.47000,210.620,71.195,-62.622,396.540,247.405,-168.088,-70.200,118.290,38.420
318,39363.84000,263.892,53.018,-31.562,395.675,246.705,-162.156,-50.200,227.290,87.420
319,39363.127000,260.933,70.185,-27.554,399.213,245.981,-157.203,-116.200,184.290,61.420
320,39363.162000,237.256,61.097,-43.585,402.744,244.332,-154.266,-45.200,391.290,78.420
321,39363.182000,218.513,68.166,-19.538,403.656,241.198,-142.449,49.800,569.290,86.420
322,39363.227000,247.121,64.126,1.503,409.851,237.173,-131.637,-114.200,451.290,91.420
323,39363.265000,251.067,46.959,11.523,412.524,240.060,-121.605,-52.200,376.290,79.420
324,39363.306000,255.013,47.968,10.521,414.296,241.882,-118.561,-35.200,291.290,80.420
325,39363.342000,246.135,46.959,25.550,417.834,242.026,-113.580,25.800,218.290,63.420
326,39363.381000,244.162,48.978,20.540,416.080,242.109,-110.604,7.800,129.290,46.420
327,39363.427000,257.973,48.978,23.546,417.856,241.383,-105.657,38.800,76.290,17.420
328,39363.444000,256.987,29.791,44.587,421.375,234.442,-105.871,108.800,36.290,37.420
329,39363.485000,257.973,60.087,55.609,417.839,237.770,-110.739,51.800,-5.710,21.420
330,39363.524000,256.987,41.909,66.630,418.727,236.119,-107.811,-191.200,-41.710,39.420
331,39363.562000,235.283,34.840,67.632,421.391,237.186,-100.817,-286.200,69.290,55.420
332,39363.602000,230.351,28.781,55.609,421.408,237.355,-94.853,-299.200,268.290,108.420
333,39363.642000,229.364,42.919,32.564,425.851,242.905,-82.743,-219.200,471.290,180.420
334,39363.666000,225.418,54.028,10.521,427.653,239.856,-67.941,-272.200,536.290,176.420
335,39363.705000,232.324,71.195,0.501,432.970,237.594,-56.082,-200.200,478.290,155.420
336,39363.744000,242.189,45.949,38.575,438.304,233.765,-38.315,-0.200,504.290,92.420
337,39363.785000,256.987,30.801,114.724,437.428,232.085,-36.387,74.800,600.290,111.420
338,39363.826000,250.081,29.791,135.765,441.002,231.726,-18.513,29.800,633.290,82.420
339,39363.866000,239.229,7.574,96.689,446.347,232.322,2.376,22.800,836.290,51.420
340,39363.907000,214.566,40.899,14.528,447.259,227.452,14.137,-22.200,524.290,52.420
341,39363.926000,199.769,43.929,-61.620,445.503,236.131,14.413,218.800,-15.710,25.420
342,39363.967000,195.823,166.122,-139.773,447.206,232.965,-5.544,638.800,-742.710,-210.580
343,39364.4000,314.204,88.363,114.724,447.166,236.015,-20.340,-492.200,-946.710,-182.580
344,39364.42000,310.258,-82.304,-13.526,443.590,230.325,-37.417,61.800,-832.710,-111.580
345,39364.84000,237.256,89.373,-10.521,443.574,246.535,-46.821,-70.200,-563.710,-216.580
346,39364.127000,262.906,8.584,24.548,438.270,248.938,-53.711,-133.200,-483.710,-74.580
347,39364.146000,256.987,27.771,29.558,438.246,250.421,-62.600,25.800,-379.710,-164.580
348,39364.184000,259.946,34.840,56.611,431.160,251.757,-76.481,353.800,-465.710,-149.580
349,39364.226000,235.283,80.284,3.507,432.015,247.193,-84.570,152.800,-462.710,-67.580
350,39364.267000,246.135,57.057,-9.519,426.697,246.011,-95.549,109.800,-308.710,-44.580
351,39364.306000,252.054,60.087,2.505,426.687,247.634,-99.468,56.800,-207.710,-43.580
352,39364.344000,247.121,61.097,-1.503,427.558,252.702,-104.266,26.800,-161.710,-18.580
353,39364.385000,254.027,50.998,-0.501,430.190,246.572,-106.442,-42.200,-114.710,-2.580
354,39364.404000,233.310,53.018,16.532,427.549,248.306,-106.394,-73.200,-153.710,-35.580
355,39364.446000,253.040,44.939,-2.505,424.915,257.012,-105.127,-159.200,-194.710,-18.580
356,39364.487000,261.919,37.870,-4.509,424.885,250.683,-114.270,129.800,-290.710,-70.580
357,39364.525000,276.717,30.801,24.548,421.331,251.238,-125.186,144.800,-331.710,36.420
358,39364.566000,269.811,50.998,-5.511,417.786,246.727,-131.302,393.800,-404.710,61.420
359,39364.606000,247.121,63.116,-48.595,417.759,248.181,-141.184,456.800,-138.710,62.420
360,39364.625000,270.798,23.732,-14.528,418.618,241.069,-147.370,843.800,48.290,41.420
361,39364.664000,251.067,21.712,-46.591,420.360,236.561,-153.469,348.800,56.290,43.420
362,39364.710000,236.270,68.166,-25.550,418.610,237.540,-149.471,88.800,191.290,93.420
363,39364.749000,264.879,55.037,0.501,420.378,235.022,-146.568,27.800,141.290,156.420
364,39364.799000,267.838,16.663,-58.614,423.034,232.561,-141.674,-269.200,156.290,244.420
365,39364.827000,283.622,-72.205,-64.626,425.690,224.080,-134.990,142.800,375.290,356.420
366,39364.865000,258.960,-102.501,-106.708,430.107,221.620,-130.091,-100.200,155.290,432.420
367,39364.884000,211.607,89.373,-218.928,429.236,219.996,-126.174,-1995.200,-463.710,789.420
368,39364.927000,235.283,-2.525,-263.014,430.099,207.760,-129.548,-1595.200,-1287.710,892.420
369,39364.967000,173.133,56.047,-233.957,419.395,188.341,-171.918,1027.800,-1564.710,616.420
370,39365.4000,194.836,67.156,-203.898,400.777,177.681,-211.050,321.800,-1761.710,247.420
371,39365.45000,223.445,83.314,-123.742,381.321,168.311,-235.248,311.800,-1707.710,86.420
372,39365.86000,252.054,105.531,-100.697,359.216,169.214,-264.086,120.800,-1700.710,-36.580
373,39365.105000,279.676,97.452,-97.691,335.358,165.889,-289.095,448.800,-1638.710,-212.580
374,39365.146000,294.474,112.600,-79.656,310.597,160.629,-321.121,513.800,-1542.710,-228.580
375,39365.185000,272.771,123.708,-33.566,297.341,161.065,-336.044,169.800,-1300.710,-142.580
376,39365.227000,290.528,112.600,-12.524,278.806,178.801,-352.409,-779.200,-797.710,-249.580
377,39365.265000,280.663,83.314,-3.507,264.725,197.887,-351.835,-1030.200,-358.710,-481.580
378,39365.307000,254.027,27.771,-6.513,254.196,225.012,-343.044,-953.200,-21.710,-706.580
379,39365.349000,229.364,-24.742,-23.546,251.553,228.454,-343.934,300.800,407.290,-653.580
380,39365.369000,211.607,-14.643,-39.577,250.659,218.849,-346.235,598.800,399.290,-569.580
381,39365.409000,175.106,-64.126,-36.571,252.434,229.323,-343.903,-166.200,445.290,-436.580
382,39365.459000,137.618,-81.294,-158.810,255.976,231.230,-337.872,186.800,482.290,-376.580
383,39365.485000,216.540,40.899,-168.830,260.323,209.979,-353.443,1759.800,264.290,-124.580
384,39365.527000,283.622,60.087,-141.777,260.314,204.715,-355.599,-19.200,-191.710,-74.580
385,39365.566000,370.435,99.471,-52.603,256.772,200.231,-360.721,350.800,-169.710,-50.580
386,39365.594000,397.071,86.343,-48.595,249.692,193.868,-370.880,112.800,-515.710,9.420
387,39365.626000,299.407,84.323,-175.843,230.308,201.582,-373.671,-497.200,-880.710,-95.580
388,39365.669000,210.620,1.515,-100.697,225.893,210.958,-379.339,252.800,-484.710,-285.580
389,39365.706000,192.863,55.037,-73.644,225.902,211.910,-376.329,-129.200,126.290,-182.580
390,39365.747000,185.958,-15.653,-109.714,233.884,226.226,-360.944,-783.200,367.290,86.420
391,39365.786000,175.106,40.899,-137.769,247.998,225.566,-353.969,-384.200,587.290,60.420
392,39365.825000,183.985,19.692,-151.796,250.664,225.793,-346.009,-36.200,565.290,24.420
393,39365.849000,149.457,41.909,-180.853,263.014,221.659,-339.153,169.800,559.290,-35.580
394,39365.886000,182.012,42.919,-161.816,272.710,220.855,-337.162,333.800,622.290,-82.580
395,39365.929000,127.753,63.116,-466.411,271.836,215.759,-333.358,11.800,31.290,-116.580
396,39365.966000,159.322,43.929,-94.685,270.937,217.297,-340.262,72.800,-91.710,-64.580
397,39366.5000,237.256,34.840,-65.628,275.357,219.177,-335.222,260.800,471.290,107.420
398,39366.46000,230.351,86.343,-179.851,281.543,218.511,-328.273,-227.200,291.290,138.420
399,39366.69000,184.971,12.623,-59.616,281.555,220.359,-324.241,156.800,267.290,-34.580
400,39366.107000,163.268,88.363,-132.759,290.357,217.705,-326.285,591.800,579.290,-97.580
401,39366.145000,182.998,95.432,-148.791,297.419,210.096,-319.558,-11.200,397.290,-140.580
402,39366.186000,186.944,70.185,-122.740,301.834,205.032,-314.743,466.800,676.290,-184.580
403,39366.225000,217.526,27.771,-111.718,314.183,206.918,-309.678,238.800,729.290,-134.580
404,39366.267000,283.622,34.840,-56.611,320.386,209.864,-297.646,-18.200,593.290,-55.580
405,39366.305000,283.622,45.949,-51.601,322.172,216.139,-290.486,-676.200,220.290,-14.580
406,39366.329000,259.946,43.929,-84.665,323.947,218.856,-286.420,-60.200,231.290,-48.580
407,39366.366000,256.000,55.037,-98.693,331.016,219.927,-279.412,47.800,300.290,-32.580
408,39366.405000,214.566,41.909,-117.730,332.798,216.681,-271.568,-158.200,428.290,-14.580
409,39366.450000,203.715,71.195,-114.724,340.750,225.536,-265.297,-246.200,674.290,-22.580
410,39366.490000,285.595,-5.554,-32.564,348.725,232.041,-250.165,-576.200,587.290,-26.580
411,39366.530000,310.258,47.968,7.515,350.507,235.683,-244.083,-100.200,286.290,-82.580
412,39366.545000,237.256,66.146,-30.560,350.515,235.767,-241.102,194.800,98.290,8.420
413,39366.586000,229.364,64.126,-66.630,351.387,227.060,-242.374,287.800,72.290,42.420
414,39366.629000,237.256,57.057,-44.587,352.258,225.240,-245.410,136.800,34.290,42.420
415,39366.670000,235.283,58.067,-41.581,351.373,222.607,-246.491,271.800,10.290,17.420
416,39366.707000,242.189,43.929,-49.597,353.113,216.363,-252.646,512.800,-74.710,20.420
417,39366.747000,236.270,69.176,-56.611,353.978,210.175,-256.816,291.800,-91.710,6.420
418,39366.786000,242.189,67.156,-56.611,352.214,215.326,-258.640,247.800,-68.710,22.420
419,39366.816000,245.148,20.702,-66.630,347.790,211.682,-264.731,381.800,-79.710,35.420
420,39366.846000,245.148,46.959,-56.611,347.779,204.681,-266.944,517.800,-105.710,6.420
421,39366.886000,250.081,58.067,-62.622,347.735,194.767,-280.175,603.800,-127.710,28.420
422,39366.925000,254.027,33.830,-39.577,344.193,185.104,-284.472,563.800,-388.710,36.420
423,39366.969000,299.407,26.761,-7.515,337.101,179.496,-298.578,390.800,-852.710,15.420
424,39367.5000,324.069,39.890,-14.528,316.779,181.466,-320.425,58.800,-1329.710,-24.580
425,39367.26000,311.245,45.949,-72.642,292.053,188.612,-343.111,-407.200,-1673.710,-116.580
426,39367.69000,290.528,46.959,-58.614,269.128,192.710,-350.996,-141.200,-1424.710,-51.580
427,39367.105000,231.337,4.544,32.564,259.396,181.949,-363.292,457.800,-583.710,278.420
428,39367.145000,205.688,35.850,51.601,270.841,160.342,-360.977,424.800,636.290,662.420
429,39367.185000,219.499,78.264,-7.515,296.448,157.508,-339.142,-274.200,1304.290,806.420
430,39367.225000,261.919,116.639,-67.632,330.034,164.651,-302.062,-823.200,1713.290,800.420
431,39367.267000,265.865,134.817,-97.691,353.909,177.609,-273.761,-2312.200,1673.290,722.420
432,39367.290000,262.906,114.619,-96.689,380.496,197.293,-222.394,-2732.200,1553.290,646.420
433,39367.327000,264.879,90.383,-82.661,399.135,206.442,-175.367,-1725.200,1602.290,435.420
434,39367.377000,260.933,65.136,-70.638,422.152,209.293,-136.474,-67.200,1745.290,166.420
435,39367.411000,226.405,55.037,-111.718,428.372,201.209,-115.864,628.800,1686.290,-0.580
436,39367.449000,219.499,37.870,-158.810,439.894,202.762,-91.945,656.800,1377.290,-122.580
437,39367.491000,228.378,35.850,-132.759,441.700,209.233,-77.827,514.800,726.290,-241.580
438,39367.510000,224.432,38.880,-89.675,444.377,213.885,-66.745,41.800,312.290,-214.580
439,39367.547000,240.216,25.751,-89.675,442.626,220.884,-64.537,-162.200,-29.710,-179.580
440,39367.586000,251.067,14.643,-148.791,439.972,217.326,-67.640,-112.200,-480.710,-258.580
441,39367.630000,259.946,16.663,83.663,438.173,223.846,-82.329,311.800,-560.710,-13.580
442,39367.667000,280.663,119.669,23.546,435.532,226.448,-82.253,-1296.200,-488.710,-219.580
443,39367.709000,259.946,-9.594,16.532,437.296,229.921,-82.135,-384.200,-280.710,-207.580
444,39367.747000,259.946,37.870,22.544,430.225,236.578,-91.871,121.800,-302.710,-247.580
445,39367.767000,262.906,46.959,-12.524,428.452,244.220,-97.587,-272.200,-381.710,-229.580
446,39367.808000,261.919,39.890,-24.548,425.806,251.078,-100.352,87.800,-247.710,-119.580
447,39367.847000,272.771,14.643,-28.556,420.508,250.093,-104.373,142.800,-213.710,-87.580
448,39367.890000,250.081,55.037,-13.526,419.608,250.763,-111.305,260.800,-44.710,-110.580
449,39367.927000,226.405,97.452,23.546,418.731,252.527,-110.258,134.800,13.290,-80.580
450,39367.970000,206.674,94.422,19.538,420.486,247.292,-111.415,-164.200,-51.710,-117.580
451,39367.989000,292.501,-22.722,-4.509,416.978,253.478,-107.253,-839.200,-241.710,13.420
452,39368.31000,267.838,-23.732,-0.501,418.730,255.103,-111.167,-373.200,-386.710,-86.580
453,39368.72000,264.879,48.978,4.509,414.316,265.346,-116.807,-341.200,-545.710,-89.580
454,39368.111000,256.000,42.919,-34.568,408.125,263.381,-124.834,-55.200,-410.710,-38.580
455,39368.149000,243.175,37.870,-31.562,408.121,265.060,-126.766,-166.200,-331.710,-72.580
456,39368.192000,257.973,33.830,-10.521,405.450,262.201,-135.804,3.800,-317.710,-102.580
457,39368.236000,242.189,70.185,-44.587,404.539,259.314,-145.830,300.800,-431.710,-76.580
458,39368.250000,244.162,69.176,-66.630,400.116,261.718,-152.718,138.800,-257.710,-60.580
459,39368.290000,237.256,48.978,-67.632,399.231,263.397,-154.652,135.800,57.290,-75.580
460,39368.331000,250.081,21.712,-20.540,400.999,260.011,-151.777,162.800,274.290,-89.580
461,39368.369000,249.094,91.393,-36.571,400.122,265.218,-151.611,537.800,354.290,-134.580
462,39368.406000,263.892,66.146,-20.540,400.141,268.859,-145.535,186.800,331.290,-88.580
463,39368.449000,251.067,67.156,-22.544,399.265,267.179,-143.606,415.800,284.290,14.420
464,39368.472000,241.202,77.254,-32.564,401.906,265.445,-143.654,194.800,217.290,36.420
465,39368.509000,225.418,68.166,-45.589,406.324,259.541,-137.873,41.800,357.290,91.420
466,39368.551000,225.418,56.047,-21.542,408.984,256.268,-131.020,-154.200,317.290,86.420
467,39368.589000,235.283,50.998,16.532,409.004,260.777,-124.916,-202.200,199.290,25.420
468,39368.631000,252.054,67.156,14.528,409.012,259.994,-121.962,-214.200,-55.710,-5.580
469,39368.669000,260.933,41.909,-5.511,409.014,266.909,-122.731,72.800,-59.710,-6.580
470,39368.716000,256.000,43.929,-15.530,407.241,262.484,-125.859,-48.200,-119.710,14.420
471,39368.730000,252.054,59.077,-40.579,405.473,262.426,-127.853,-164.200,-124.710,38.420
472,39368.770000,230.351,93.412,-18.536,408.123,259.909,-124.947,-271.200,12.290,92.420
473,39368.811000,247.121,44.939,-17.534,410.780,263.495,-120.850,-236.200,30.290,131.420
474,39368.851000,261.919,40.899,-1.503,411.666,263.552,-118.859,-26.200,154.290,19.420
475,39368.889000,228.378,57.057,11.523,409.908,264.447,-117.843,-94.200,-19.710,-4.580
476,39368.929000,254.027,82.304,-14.528,409.918,263.692,-113.895,-282.200,-57.710,-6.580
477,39368.949000,244.162,66.146,19.538,410.805,263.749,-111.905,-287.200,-77.710,64.420
478,39368.991000,245.148,25.751,8.517,409.913,255.880,-114.149,-315.200,-499.710,-32.580
479,39369.29000,247.121,16.663,-61.620,403.718,263.349,-125.842,-19.200,-443.710,-180.580
480,39369.72000,287.568,22.722,-13.526,398.399,269.055,-138.583,408.800,-454.710,-257.580
481,39369.111000,217.526,95.432,-49.597,393.095,270.590,-145.501,12.800,-443.710,-229.580
482,39369.149000,213.580,76.245,-57.613,394.845,273.055,-150.381,278.800,-40.710,-167.580
483,39369.189000,253.040,61.097,-58.614,389.554,277.306,-153.239,158.800,33.290,-56.580
484,39369.211000,263.892,53.018,-40.579,392.200,270.449,-150.474,210.800,129.290,95.420
485,39369.250000,228.378,59.077,-29.558,393.965,271.346,-149.446,382.800,337.290,118.420
486,39369.294000,219.499,104.521,-22.544,394.843,262.695,-148.731,278.800,423.290,49.420
487,39369.331000,277.703,38.880,-1.503,400.165,263.065,-135.793,-183.200,455.290,101.420
488,39369.372000,252.054,57.057,-9.519,403.707,259.793,-128.937,-35.200,404.290,110.420
489,39369.410000,260.933,59.077,-11.523,408.136,262.625,-120.887,-210.200,356.290,116.420
490,39369.430000,249.094,32.821,2.505,410.803,261.145,-111.989,29.800,374.290,80.420
491,39369.472000,242.189,77.254,24.548,409.931,265.540,-109.863,-112.200,219.290,48.420
492,39369.512000,220.486,100.481,-12.524,416.136,267.647,-96.866,-740.200,138.290,74.420
493,39369.552000,253.040,-23.732,5.511,413.526,269.691,-85.885,-556.200,140.290,58.420
494,39369.590000,279.676,-28.781,30.560,411.749,264.369,-90.036,-211.200,-235.710,-96.580
495,39369.632000,244.162,86.343,28.556,414.390,273.834,-92.699,65.800,-427.710,-83.580
496,39369.670000,243.175,65.136,-31.562,414.358,269.213,-102.779,-21.200,-432.710,36.420
497,39369.691000,254.027,32.821,-65.628,414.350,262.241,-103.998,-84.200,-43.710,35.420
498,39369.730000,241.202,61.097,-20.540,415.248,270.166,-99.766,-11.200,184.290,52.420
499,39369.771000,235.283,45.949,8.517,416.136,264.203,-95.985,-84.200,249.290,76.420
500,39369.811000,239.229,19.692,55.609,413.493,263.333,-96.022,212.800,-181.710,-14.580
501,39369.847000,270.798,69.176,-1.503,407.293,263.859,-107.940,139.800,-383.710,-47.580
502,39369.887000,284.609,53.018,2.505,410.792,261.900,-115.937,118.800,-388.710,74.420
503,39369.937000,276.717,57.057,-15.530,408.999,261.589,-126.875,-51.200,-664.710,22.420
504,39369.952000,249.094,50.998,96.689,408.992,267.552,-130.654,-185.200,-349.710,82.420
505,39369.991000,258.960,67.156,79.656,412.558,266.241,-115.790,-958.200,435.290,303.420
506,39370.30000,245.148,8.584,74.646,419.693,266.252,-84.984,-528.200,979.290,446.420
507,39370.71000,254.027,9.594,22.544,428.584,255.007,-53.545,-383.200,1154.290,434.420
508,39370.110000,240.216,27.771,-35.569,437.447,253.813,-34.689,18.800,1157.290,346.420
509,39370.149000,198.782,38.880,-62.622,440.163,246.792,-7.104,42.800,972.290,343.420
510,39370.169000,198.782,42.919,-69.636,447.246,240.247,6.608,98.800,775.290,250.420
511,39370.211000,208.647,65.136,-40.579,449.927,242.351,19.594,44.800,366.290,217.420
512,39370.249000,233.310,65.136,-19.538,447.293,243.302,22.595,-66.200,15.290,98.420
513,39370.289000,297.434,57.057,78.654,445.509,247.387,13.785,660.800,-188.710,-427.580
514,39370.337000,280.663,43.929,12.524,442.826,251.303,-0.991,374.800,-492.710,-39.580
515,39370.371000,258.960,-33.830,45.589,443.669,253.513,-14.818,192.800,-479.710,-215.580
516,39370.410000,253.040,70.185,4.509,441.014,259.418,-20.593,29.800,-373.710,-188.580
517,39370.434000,246.135,63.116,25.550,437.471,260.086,-27.534,103.800,-218.710,-115.580
518,39370.470000,256.987,16.663,29.558,439.220,258.239,-31.560,44.800,-219.710,-148.580
519,39370.511000,252.054,67.156,13.526,439.210,266.750,-37.242,305.800,-219.710,-113.580
520,39370.552000,244.162,58.067,5.511,433.915,266.661,-40.241,-146.200,-78.710,-77.580
521,39370.591000,258.960,38.880,32.564,433.022,264.812,-44.276,107.800,-73.710,-19.580
522,39370.634000,243.175,34.840,-16.532,432.148,263.160,-41.353,-136.200,-74.710,-11.580
523,39370.651000,256.000,65.136,25.550,430.388,265.763,-41.274,-74.200,31.290,-31.580
524,39370.694000,257.973,37.870,36.571,435.670,264.870,-42.279,-104.200,-50.710,25.420
525,39370.731000,265.865,31.811,37.573,433.020,266.520,-45.213,153.800,-205.710,-5.580
526,39370.772000,256.987,16.663,9.519,433.002,268.927,-52.086,244.800,-227.710,-103.580
527,39370.812000,276.717,41.909,-7.515,428.585,267.943,-56.104,153.800,-215.710,38.420
528,39370.852000,282.636,6.564,-28.556,431.222,267.020,-58.112,30.800,21.290,177.420
529,39370.890000,250.081,-42.919,-101.699,432.103,260.133,-56.346,-405.200,-41.710,291.420
530,39370.910000,214.566,-7.574,-237.965,434.752,253.304,-52.587,-891.200,-320.710,520.420
531,39370.951000,237.256,49.988,-277.041,442.681,241.242,-49.975,-2291.200,-1160.710,962.420
532,39370.989000,220.486,22.722,-298.082,440.802,224.575,-87.262,-694.200,-1833.710,685.420
533,39371.30000,204.701,61.097,-223.937,420.375,211.727,-142.359,464.800,-2122.710,278.420
534,39371.72000,254.027,130.777,-162.818,403.540,209.889,-176.234,663.800,-2183.710,-29.580
535,39371.110000,268.825,134.817,-113.722,374.339,203.420,-220.229,509.800,-2074.710,-131.580
536,39371.130000,290.528,139.866,-107.710,345.144,191.828,-261.412,1003.800,-1858.710,-218.580
537,39371.175000,300.393,180.260,-84.665,315.984,186.622,-291.464,802.800,-1580.710,-498.580
538,39371.219000,291.514,157.034,-32.564,303.614,198.314,-307.012,379.800,-1350.710,-763.580
539,39371.250000,309.272,117.649,-6.513,279.780,206.442,-325.691,115.800,-1078.710,-926.580
540,39371.292000,252.054,28.781,25.550,254.207,221.681,-338.188,77.800,-548.710,-968.580
541,39371.335000,217.526,-29.791,26.552,246.269,227.610,-342.986,170.800,-9.710,-862.580
542,39371.375000,235.283,-49.988,37.573,246.268,230.186,-343.895,399.800,452.290,-558.580
543,39371.390000,200.755,-33.830,51.601,254.196,217.257,-341.310,738.800,799.290,-411.580
544,39371.435000,169.187,65.136,-20.540,258.582,211.043,-346.463,1132.800,536.290,-539.580
545,39371.474000,227.391,32.821,-114.724,253.261,198.634,-355.819,1451.800,-205.710,-532.580
546,39371.514000,443.437,-76.245,-131.757,240.876,185.182,-371.190,1152.800,-627.710,-330.580
547,39371.554000,429.626,-88.363,-127.750,232.911,174.479,-381.493,-121.200,-585.710,22.420
548,39371.590000,416.802,-11.613,-70.638,219.707,192.669,-381.938,-534.200,-676.710,-3.580
549,39371.612000,342.813,117.649,-178.849,202.062,195.846,-391.822,-27.200,-1242.710,-142.580
550,39371.656000,217.526,76.245,-134.763,173.832,187.676,-404.093,106.800,-1351.710,-8.580
551,39371.690000,114.929,130.777,-20.540,171.197,190.334,-402.029,-1142.200,-261.710,222.420
552,39371.732000,36.008,91.393,-49.597,183.649,236.324,-370.707,-3336.200,784.290,345.420
553,39371.770000,119.861,-21.712,-119.734,218.979,253.630,-342.229,-427.200,1851.290,427.420
554,39371.814000,187.931,109.570,-234.959,250.732,241.980,-325.624,232.800,1824.290,89.420
555,39371.852000,160.308,15.653,-248.986,265.745,245.801,-313.536,-99.200,1078.290,70.420
556,39371.874000,109.996,59.077,-209.910,276.325,238.138,-308.786,-47.200,698.290,55.420
557,39371.915000,97.171,23.732,-503.483,278.116,247.045,-300.547,2.800,-240.710,-10.580
558,39371.957000,90.266,13.633,-28.556,282.509,238.311,-302.803,259.800,470.290,-29.580
559,39371.990000,415.815,61.097,-98.693,284.272,236.605,-301.859,328.800,235.290,-39.580
560,39372.30000,309.272,24.742,-55.609,289.558,233.165,-300.961,180.800,108.290,-73.580
561,39372.71000,286.582,5.554,-105.706,284.244,225.124,-309.183,751.800,-250.710,-268.580
562,39372.95000,264.879,26.761,-143.781,266.570,223.708,-328.152,511.800,-737.710,-322.580
563,39372.135000,261.919,35.850,-105.706,252.429,218.067,-343.275,732.800,-1015.710,-284.580
564,39372.171000,213.580,10.604,-42.583,240.909,195.852,-361.907,953.800,-659.710,10.420
565,39372.214000,163.268,26.761,-23.546,240.883,183.531,-368.265,480.800,169.290,416.420
566,39372.254000,209.634,61.097,-56.611,257.642,177.720,-359.463,-190.200,708.290,546.420
567,39372.291000,252.054,88.363,-85.667,277.991,195.827,-332.992,-1637.200,962.290,490.420
568,39372.334000,276.717,62.107,-99.695,293.032,214.573,-314.462,-1275.200,1003.290,528.420
569,39372.351000,244.162,114.619,-190.873,312.479,216.971,-291.483,-227.200,855.290,353.420
570,39372.400000,128.740,70.185,-292.070,323.052,214.403,-290.540,570.800,542.290,4.420
571,39372.435000,105.064,34.840,-267.022,323.034,205.611,-294.797,683.800,62.290,-265.580
572,39372.480000,150.443,28.781,-215.922,319.490,201.099,-300.913,405.800,-26.710,-206.580
573,39372.514000,206.674,90.383,-216.924,318.616,202.891,-298.871,-165.200,-45.710,-37.580
574,39372.552000,197.796,44.939,-193.879,313.352,213.444,-293.581,-780.200,-542.710,-20.580
575,39372.596000,188.917,-20.702,-130.755,305.374,207.779,-309.678,478.800,-352.710,-147.580
576,39372.611000,207.661,47.968,-195.883,299.191,204.162,-314.780,674.800,-127.710,-242.580
577,39372.652000,208.647,-8.584,-178.849,291.256,203.232,-316.822,465.800,-609.710,-222.580
578,39372.694000,212.593,78.264,-110.716,277.980,188.827,-335.206,839.800,-538.710,-193.580
579,39372.735000,203.715,58.067,6.513,272.701,194.059,-334.060,-199.200,-56.710,-105.580
580,39372.776000,236.270,65.136,33.566,286.848,210.088,-319.592,-701.200,848.290,70.420
581,39372.816000,284.609,66.146,-113.722,294.817,207.912,-304.743,-186.200,952.290,1.420
582,39372.832000,226.405,30.801,-92.681,304.530,204.701,-295.879,452.800,796.290,-279.580
583,39372.871000,240.216,-29.791,-128.751,311.587,204.791,-292.874,557.800,608.290,-203.580
584,39372.914000,258.960,-36.860,-117.730,317.777,206.756,-284.847,-164.200,444.290,-76.580
585,39372.951000,240.216,46.959,-62.622,317.809,218.266,-276.529,-548.200,266.290,-109.580
586,39372.999000,243.175,106.540,-70.638,318.708,220.171,-270.506,-234.200,331.290,-90.580
587,39373.35000,256.000,49.988,-91.679,324.905,223.062,-260.463,-41.200,384.290,-27.580
588,39373.80000,269.811,40.899,-60.618,328.454,223.318,-251.506,-87.200,388.290,31.420
589,39373.94000,273.757,63.116,-56.611,334.627,223.378,-249.499,6.800,321.290,42.420
590,39373.134000,241.202,25.751,-62.622,338.159,223.465,-246.505,349.800,300.290,23.420
591,39373.176000,215.553,54.028,-50.599,339.039,222.598,-246.531,138.800,49.290,22.420
592,39373.214000,221.472,66.146,-54.607,339.028,219.042,-249.625,93.800,-110.710,-0.580
593,39373.251000,240.216,24.742,-73.644,334.610,216.322,-253.700,69.800,-171.710,-48.580
594,39373.295000,253.040,46.959,-61.620,330.187,210.970,-258.852,66.800,-324.710,-21.580
595,39373.316000,250.081,65.136,-61.620,326.652,218.610,-264.574,-22.200,-439.710,14.420
596,39373.352000,232.324,33.830,-89.675,323.983,213.175,-272.703,53.800,-452.710,41.420
597,39373.397000,258.960,58.067,-82.661,316.904,205.104,-281.924,45.800,-477.710,121.420
598,39373.437000,276.717,40.899,-70.638,317.762,209.191,-290.726,219.800,-529.710,168.420
599,39373.471000,266.852,31.811,-84.665,310.683,200.253,-299.975,387.800,-551.710,137.420
600,39373.517000,258.960,49.988,-72.642,302.719,194.729,-311.103,136.800,-675.710,169.420
601,39373.552000,265.865,57.057,-50.599,287.702,192.588,-325.122,27.800,-886.710,110.420
602,39373.572000,243.175,67.156,-107.710,274.420,185.014,-347.257,136.800,-1148.710,-69.580
603,39373.616000,242.189,82.304,-114.724,260.293,180.383,-357.382,671.800,-1172.710,-82.580
604,39373.657000,204.701,62.107,-38.575,250.527,163.264,-379.815,996.800,-863.710,-120.580
605,39373.696000,162.281,61.097,-43.585,246.986,162.224,-385.818,59.800,109.290,-9.580
606,39373.735000,162.281,33.830,-64.626,262.028,182.706,-367.231,-1482.200,707.290,30.420
607,39373.784000,191.877,36.860,-104.704,274.445,208.535,-343.514,-2214.200,1173.290,49.420
608,39373.797000,211.607,-21.712,-124.744,300.138,241.013,-299.679,-1825.200,1479.290,243.420
609,39373.832000,233.310,29.791,-181.855,329.274,235.634,-275.929,241.800,1534.290,356.420
610,39373.872000,217.526,71.195,-228.947,344.311,241.416,-255.833,46.800,1108.290,45.420
611,39373.915000,146.497,22.722,-503.483,350.512,246.071,-244.739,-735.200,-33.710,126.420
612,39373.955000,124.794,77.254,-170.834,350.491,244.137,-251.753,3.800,-232.710,69.420
613,39373.994000,269.811,146.935,-78.654,353.173,252.289,-239.564,-883.200,247.290,88.420
614,39374.36000,208.647,83.314,-48.595,354.089,253.496,-227.606,169.800,439.290,-90.580
615,39374.52000,211.607,39.890,-106.708,356.725,248.262,-228.761,502.800,592.290,-162.580
616,39374.97000,219.499,-13.633,-120.736,362.039,251.123,-219.714,-51.200,580.290,-18.580
617,39374.135000,262.906,70.185,-56.611,369.123,251.494,-206.770,-350.200,715.290,-63.580
618,39374.172000,279.676,88.363,-11.523,372.687,251.891,-192.844,206.800,696.290,-100.580
619,39374.212000,261.919,72.205,17.534,377.120,252.176,-182.891,-143.200,424.290,-58.580
620,39374.259000,241.202,88.363,3.507,377.149,265.393,-175.511,-636.200,115.290,-127.580
621,39374.279000,282.636,11.613,-79.656,378.056,265.648,-166.563,-383.200,115.290,1.420
622,39374.317000,260.933,41.909,-55.609,378.073,269.260,-161.480,-201.200,340.290,-23.580
623,39374.357000,226.405,94.422,-9.519,378.979,268.647,-152.560,194.800,398.290,16.420
624,39374.396000,230.351,71.195,-9.519,382.507,266.970,-150.618,151.800,278.290,40.420
625,39374.435000,238.243,57.057,-15.530,386.032,264.396,-149.697,-4.200,98.290,37.420
626,39374.475000,240.216,56.047,-25.550,386.902,261.708,-152.760,27.800,-63.710,43.420
627,39374.514000,242.189,69.176,-15.530,386.023,264.312,-152.679,-36.200,-175.710,31.420
628,39374.535000,255.013,52.008,-56.611,384.259,260.839,-152.797,-248.200,-10.710,61.420
629,39374.581000,235.283,56.047,-21.542,383.385,262.630,-150.756,-602.200,-131.710,121.420
630,39374.616000,243.175,79.274,13.526,379.878,266.240,-145.685,-655.200,-407.710,114.420
631,39374.654000,239.229,67.156,-7.515,378.093,262.570,-152.760,-267.200,-499.710,125.420
632,39374.696000,217.526,60.087,-55.609,377.190,259.768,-159.805,-191.200,-424.710,58.420
633,39374.734000,239.229,47.968,-75.648,381.591,265.763,-162.576,231.800,-238.710,-28.580
634,39374.754000,266.852,60.087,-55.609,375.407,265.589,-168.559,379.800,-41.710,-104.580
635,39374.792000,257.973,42.919,-79.656,378.923,266.375,-171.501,558.800,162.290,-108.580
636,39374.836000,265.865,76.245,-42.583,379.800,256.856,-170.814,343.800,372.290,-74.580
637,39374.872000,232.324,70.185,-46.591,378.934,261.308,-166.701,10.800,421.290,7.420
638,39374.914000,243.175,50.998,-43.585,382.470,258.848,-161.804,310.800,430.290,13.420
639,39374.956000,232.324,81.294,-25.550,386.887,256.388,-156.905,180.800,412.290,21.420
640,39374.996000,230.351,45.949,-8.517,386.922,257.594,-144.950,-98.200,309.290,86.420
641,39375.16000,254.027,28.781,7.515,393.082,260.986,-147.799,48.800,58.290,28.420
642,39375.61000,231.337,80.284,-32.564,392.218,263.730,-142.748,-165.200,-36.710,10.420
643,39375.94000,239.229,31.811,-17.534,393.104,260.343,-139.876,-401.200,-11.710,6.420
644,39375.136000,224.432,107.550,-16.532,388.710,259.585,-135.942,-426.200,-79.710,-58.580
645,39375.176000,246.135,56.047,-54.607,389.618,268.462,-128.701,-592.200,-82.710,93.420
646,39375.216000,279.676,8.584,-9.519,389.623,267.651,-126.741,-102.200,5.290,41.420
647,39375.236000,252.054,61.097,-35.569,393.152,266.842,-124.770,-246.200,-45.710,-40.580
648,39375.277000,232.324,83.314,-32.564,389.628,263.395,-123.900,-167.200,97.290,55.420
649,39375.319000,254.027,34.840,10.521,391.405,272.161,-120.631,-47.200,26.290,36.420
650,39375.354000,238.243,32.821,43.585,388.763,273.895,-120.583,-9.200,-284.710,-26.580
651,39375.396000,248.108,49.988,30.560,387.826,266.443,-138.702,454.800,-551.710,-98.580
652,39375.434000,256.000,42.919,-9.519,378.081,272.789,-159.380,333.800,-902.710,-145.580
653,39375.474000,189.904,70.185,-130.755,369.223,268.860,-175.424,293.800,-843.710,-265.580
654,39375.495000,255.013,81.294,-50.599,363.895,271.877,-191.231,322.800,-761.710,-217.580
655,39375.536000,197.796,81.294,-144.783,359.468,272.517,-199.168,-13.200,-242.710,-214.580
656,39375.576000,275.730,62.107,-107.710,361.231,274.254,-199.106,-71.200,188.290,81.420
657,39375.614000,282.636,-9.594,-79.656,366.543,271.067,-189.262,-147.200,293.290,204.420
658,39375.654000,250.081,15.653,-44.587,368.324,270.398,-182.327,108.800,453.290,-40.580
659,39375.694000,219.499,109.570,-54.607,369.221,269.699,-176.389,110.800,471.290,-73.580
660,39375.740000,227.391,73.215,-47.593,374.535,269.117,-166.461,-311.200,406.290,180.420
661,39375.760000,257.973,44.939,2.505,377.193,266.684,-160.574,-10.200,315.290,128.420
662,39375.800000,230.351,59.077,-57.613,381.621,263.469,-151.727,-376.200,180.290,54.420
663,39375.836000,248.108,35.850,-53.605,383.401,266.243,-145.673,88.800,417.290,38.420
664,39375.879000,251.067,29.791,-11.523,387.826,270.755,-139.555,87.800,406.290,30.420
665,39375.919000,255.013,75.235,9.519,388.713,270.812,-137.564,209.800,295.290,-39.580
666,39375.957000,227.391,83.314,11.523,388.704,266.416,-139.693,272.800,43.290,21.420
667,39375.977000,244.162,54.028,-9.519,385.182,268.149,-139.648,120.800,-55.710,29.420
668,39376.15000,241.202,46.959,-32.564,387.813,263.727,-142.762,187.800,-56.710,3.420
669,39376.54000,260.933,43.929,-13.526,388.679,255.831,-145.994,222.800,-31.710,21.420
670,39376.96000,235.283,80.284,-56.611,386.026,260.896,-150.803,535.800,22.290,26.420
671,39376.139000,248.108,52.008,-21.542,389.558,260.115,-147.838,125.800,68.290,46.420
672,39376.180000,244.162,60.087,-7.515,389.545,258.267,-151.870,223.800,24.290,38.420
673,39376.220000,242.189,74.225,-2.505,388.652,256.417,-155.905,246.800,-82.710,48.420
674,39376.240000,238.243,56.047,-33.566,388.633,254.512,-161.925,211.800,-135.710,49.420
675,39376.280000,234.297,59.077,-42.583,386.860,250.954,-165.025,125.800,-72.710,57.420
676,39376.320000,250.081,52.008,-31.562,390.378,243.145,-165.267,169.800,-52.710,74.420
677,39376.355000,237.256,63.116,-32.564,389.485,245.607,-170.155,146.800,-86.710,81.420
678,39376.395000,256.987,64.126,-30.560,389.479,244.683,-172.171,-118.200,-93.710,113.420
679,39376.440000,240.216,32.821,-41.581,393.001,242.082,-172.244,-9.200,-75.710,91.420
680,39376.460000,244.162,46.959,-28.556,391.226,232.476,-174.548,55.800,-144.710,134.420
681,39376.499000,244.162,60.087,-14.528,392.982,232.421,-176.530,167.800,-269.710,132.420
682,39376.539000,261.919,46.959,-54.607,388.548,231.268,-186.511,123.800,-293.710,166.420
683,39376.577000,242.189,40.899,-62.622,395.583,225.113,-189.668,122.800,-38.710,187.420
684,39376.619000,262.906,50.998,-52.603,397.343,219.066,-188.865,-96.200,-51.710,194.420
685,39376.657000,237.256,37.870,-71.640,397.342,221.642,-189.775,133.800,-25.710,168.420
686,39376.699000,227.391,58.067,-113.722,397.324,215.425,-194.941,440.800,-160.710,0.420
687,39376.720000,233.310,131.787,-242.975,388.421,204.158,-225.125,1532.800,-850.710,-24.580
688,39376.759000,221.472,85.333,-139.773,378.670,194.936,-244.322,-146.200,-1247.710,-67.580
689,39376.799000,233.310,66.146,-116.728,366.303,202.344,-258.024,-584.200,-1016.710,-168.580
690,39376.839000,226.405,58.067,-81.659,351.291,211.459,-272.671,-522.200,-999.710,-219.580
691,39376.877000,247.121,62.107,-30.560,335.399,217.997,-286.411,78.800,-889.710,-331.580
692,39376.916000,240.216,50.998,9.519,323.909,223.642,-301.160,259.800,-720.710,-363.580
693,39376.936000,240.216,22.722,50.599,316.846,222.628,-306.180,59.800,-394.710,-355.580
694,39376.975000,241.202,-15.653,60.618,315.079,227.750,-308.999,-38.200,67.290,-294.580
695,39377.17000,163.268,-50.998,-72.642,314.201,231.222,-308.889,124.800,195.290,-354.580
696,39377.57000,202.728,5.554,-202.896,312.388,215.202,-323.316,1069.800,-20.710,-310.580
697,39377.102000,363.530,78.264,-109.714,316.784,211.677,-325.403,384.800,221.290,-31.580
698,39377.136000,296.447,41.909,-126.748,320.331,216.217,-318.293,-36.200,487.290,-84.580
699,39377.179000,269.811,74.225,-157.808,330.037,213.789,-312.383,579.800,689.290,-233.580
700,39377.200000,211.607,0.505,-352.188,328.231,196.986,-323.857,1453.800,-230.710,-313.580
701,39377.236000,172.146,18.682,-311.108,310.562,186.134,-339.160,655.800,-1224.710,-183.580
702,39377.280000,165.241,-26.761,-173.840,286.715,187.233,-361.047,-171.200,-1361.710,86.420
703,39377.320000,188.917,60.087,-79.656,261.986,178.840,-381.258,250.800,-1143.710,119.420
704,39377.360000,195.823,50.998,-35.569,242.576,178.544,-391.260,-20.200,-1015.710,120.420
705,39377.395000,185.958,49.988,38.575,234.622,173.973,-399.378,54.800,-567.710,109.420
706,39377.419000,170.173,82.304,27.554,233.744,178.312,-399.240,-329.200,27.290,-51.580
707,39377.459000,115.915,142.895,-149.793,237.301,185.540,-389.064,-611.200,257.290,18.420
708,39377.497000,221.472,86.343,-215.922,230.274,205.556,-386.451,-267.200,-293.710,-227.580
709,39377.539000,299.407,42.919,-140.775,222.321,198.409,-393.659,330.800,-190.710,-118.580
710,39377.575000,342.813,-29.791,-131.757,218.806,195.047,-389.808,-114.200,-90.710,31.420
711,39377.621000,385.233,-4.544,-91.679,221.430,193.144,-395.819,200.800,16.290,86.420
712,39377.661000,350.705,18.682,-72.642,223.184,186.173,-397.033,273.800,-3.710,143.420
713,39377.680000,266.852,11.613,-143.781,218.753,173.849,-403.405,487.800,-167.710,145.420
714,39377.720000,246.135,24.742,-137.769,212.596,186.864,-403.002,-517.200,-1054.710,132.420
715,39377.759000,233.310,48.978,-154.802,187.025,193.508,-412.798,-191.200,-1229.710,9.420
716,39377.800000,172.146,52.008,-77.652,168.503,190.693,-419.900,317.800,-921.710,-29.580
717,39377.839000,133.672,-29.791,5.511,165.800,159.077,-433.843,1835.800,158.290,164.420
718,39377.880000,152.416,18.682,-58.614,189.569,128.771,-432.765,1854.800,968.290,251.420
719,39377.899000,214.566,100.481,-80.658,217.749,99.392,-429.656,1275.800,1657.290,240.420
720,39377.940000,207.661,87.353,-88.673,262.762,109.733,-402.365,-1042.200,2103.290,272.420
721,39377.979000,255.013,69.176,-111.718,300.784,140.456,-359.541,-1920.200,2272.290,491.420
722,39378.19000,247.121,90.383,-114.724,344.982,163.512,-311.980,-1782.200,2303.290,698.420
723,39378.60000,299.407,134.817,-92.681,367.980,172.214,-280.842,-1525.200,2051.290,604.420
724,39378.101000,313.218,114.619,-109.714,402.486,178.883,-229.872,-914.200,2010.290,400.420
725,39378.139000,295.461,130.777,-111.718,424.643,182.799,-183.997,-374.200,1771.290,-69.580
726,39378.160000,262.906,80.284,-117.730,437.094,201.210,-146.619,-283.200,1498.290,-260.580
727,39378.201000,230.351,42.919,-101.699,445.105,208.921,-119.532,338.800,1565.290,-298.580
728,39378.240000,246.135,58.067,-121.738,453.160,223.101,-78.333,-204.200,1269.290,-307.580
729,39378.276000,230.351,5.554,-164.822,449.742,233.633,-43.248,-937.200,869.290,-202.580
730,39378.320000,190.890,-1.515,-135.765,448.943,240.469,-16.218,-800.200,589.290,-131.580
731,39378.356000,210.620,1.515,-102.701,448.088,237.278,-6.394,-473.200,136.290,-210.580
732,39378.377000,265.865,25.751,-103.703,442.805,245.058,-7.152,100.800,-332.710,-287.580
733,39378.417000,296.447,-54.028,55.609,446.320,244.976,-10.122,-14.200,0.290,-65.580
734,39378.462000,322.096,-40.899,61.620,446.326,249.344,-8.987,-139.200,-265.710,-92.580
735,39378.502000,253.040,63.116,7.515,446.323,257.071,-11.716,41.800,-250.710,-86.580
736,39378.542000,218.513,99.471,11.523,442.784,255.192,-16.753,184.800,-131.710,-25.580
737,39378.581000,258.960,22.722,10.521,442.763,249.815,-22.885,161.800,-29.710,35.420
738,39378.622000,253.040,31.811,41.581,441.001,256.701,-24.653,104.800,-180.710,-19.580
739,39378.636000,243.175,74.225,42.583,440.101,254.796,-30.676,-247.200,-342.710,-50.580
740,39378.677000,243.175,38.880,25.550,444.502,253.035,-31.712,-183.200,-331.710,-62.580
741,39378.721000,222.459,10.604,-6.513,442.738,258.185,-33.537,-60.200,-184.710,-79.580
742,39378.761000,281.649,-39.890,-14.528,436.567,259.860,-35.488,-98.200,-156.710,-90.580
743,39378.801000,249.094,39.890,5.511,439.182,263.892,-46.272,124.800,-88.710,-114.580
744,39378.840000,258.960,77.254,36.571,435.652,262.965,-48.299,203.800,-148.710,-67.580
745,39378.860000,277.703,29.791,69.636,434.742,258.371,-57.388,-12.200,-414.710,0.420
746,39378.896000,291.514,11.613,59.616,429.412,263.096,-74.133,-45.200,-1085.710,-135.580
747,39378.937000,272.771,74.225,25.550,423.200,266.953,-90.908,-81.200,-968.710,-236.580
748,39378.977000,179.052,20.702,81.659,424.089,266.170,-87.952,111.800,364.290,151.420
749,39379.24000,212.593,8.584,38.575,427.671,268.472,-68.006,-526.200,1159.290,359.420
750,39379.59000,239.229,105.531,-111.718,426.006,265.985,-33.337,-55.200,1228.290,135.420
751,39379.100000,286.582,-27.771,-180.853,425.145,270.493,-27.236,254.800,-199.710,-320.580
752,39379.120000,199.769,49.988,153.800,421.599,270.265,-35.198,646.800,-69.710,-95.580
753,39379.160000,355.638,-1.515,1.503,423.378,271.304,-29.201,-1341.200,-439.710,-49.580
754,39379.197000,282.636,22.722,-8.517,419.852,275.585,-31.059,102.800,-140.710,-159.580
755,39379.240000,248.108,52.008,27.554,419.855,279.057,-30.947,-199.200,-210.710,-148.580
756,39379.277000,258.960,45.949,-18.536,416.317,283.225,-36.781,-0.200,-282.710,-55.580
757,39379.319000,254.027,50.998,-36.571,413.667,284.875,-39.715,133.800,-76.710,-8.580
758,39379.339000,258.960,29.791,-37.573,414.557,285.828,-36.702,208.800,272.290,4.420
759,39379.384000,247.121,89.373,37.573,415.441,282.413,-34.824,104.800,284.290,3.420
760,39379.417000,232.324,69.176,37.573,415.463,280.902,-26.929,-285.200,116.290,41.420
761,39379.461000,232.324,53.018,23.546,416.334,279.082,-29.964,-545.200,-154.710,11.420
762,39379.502000,257.973,12.623,16.532,418.122,284.517,-21.838,-480.200,-352.710,18.420
763,39379.542000,263.892,6.564,-20.540,416.352,284.431,-24.826,-135.200,-339.710,-41.580
764,39379.582000,232.324,74.225,-31.562,410.155,289.297,-36.604,200.800,-301.710,-127.580
765,39379.602000,240.216,59.077,-52.603,414.554,290.111,-38.549,165.800,0.290,-99.580
766,39379.642000,284.609,38.880,8.517,414.557,285.828,-36.702,-5.200,162.290,-41.580
767,39379.682000,256.000,36.860,-16.532,411.044,285.070,-32.766,-54.200,205.290,-40.580
768,39379.722000,239.229,69.176,-7.515,412.827,287.004,-25.746,-274.200,168.290,16.420
769,39379.761000,263.892,3.535,15.530,411.954,286.220,-22.796,-155.200,43.290,65.420
770,39379.801000,257.973,32.821,33.566,410.186,286.163,-24.789,276.800,-66.710,20.420
771,39379.822000,234.297,66.146,-2.505,411.933,288.599,-30.663,329.800,-125.710,-38.580
772,39379.864000,248.108,76.245,-20.540,412.804,285.911,-33.726,-22.200,-145.710,10.420
773,39379.901000,256.000,56.047,-6.513,411.034,290.137,-37.566,168.800,-14.710,61.420
774,39379.942000,239.229,57.057,-6.513,411.911,281.486,-36.851,-46.200,72.290,18.420
775,39379.979000,254.027,43.929,1.503,412.805,284.203,-32.788,40.800,60.290,69.420
776,39380.22000,238.243,35.850,20.540,413.671,283.195,-37.783,90.800,29.290,61.420
777,39380.61000,240.216,76.245,-13.526,416.319,281.517,-35.843,-138.200,79.290,-10.580
778,39380.82000,257.973,39.890,-5.511,415.444,285.885,-34.711,-85.200,79.290,71.420
779,39380.119000,217.526,64.126,42.583,413.690,285.100,-31.763,-146.200,-166.710,-97.580
780,39380.159000,255.013,71.195,-17.534,413.701,289.524,-28.641,-288.200,-29.710,-25.580
781,39380.197000,279.676,32.821,18.536,409.288,285.125,-30.784,-192.200,-253.710,107.420
782,39380.239000,287.568,-66.146,-44.587,412.820,289.524,-28.644,-485.200,-121.710,-12.580
783,39380.279000,298.420,-29.791,-21.542,413.690,285.968,-31.735,879.800,157.290,-78.580
784,39380.299000,246.135,71.195,-10.521,411.913,288.402,-37.620,403.800,145.290,-54.580
785,39380.341000,165.241,160.063,23.546,411.902,281.401,-39.833,386.800,133.290,12.420
786,39380.382000,240.216,134.817,41.581,414.572,279.081,-29.970,-428.200,71.290,154.420
787,39380.422000,232.324,45.949,22.544,414.591,281.854,-23.922,-1031.200,-41.710,97.420
788,39380.462000,305.326,-44.939,-3.507,418.143,278.694,-13.090,-840.200,-276.710,165.420
789,39380.502000,258.960,15.653,-39.577,416.383,276.985,-12.158,-503.200,-237.710,-98.580
790,39380.542000,261.919,-0.505,-12.524,418.149,282.195,-11.984,-81.200,-76.710,-99.580
791,39380.561000,249.094,57.057,-14.528,417.263,287.317,-14.799,81.800,61.290,-67.580
792,39380.601000,257.973,14.643,-1.503,415.507,287.372,-12.817,148.800,143.290,-27.580
793,39380.642000,253.040,21.712,-25.550,415.510,287.401,-11.823,544.800,270.290,-56.580
794,39380.684000,241.202,62.107,11.523,411.096,283.001,-13.966,345.800,189.290,-50.580
795,39380.727000,239.229,72.205,-1.503,411.092,284.681,-15.897,430.800,184.290,-33.580
796,39380.761000,239.229,32.821,23.546,414.605,286.307,-19.805,151.800,33.290,6.420
797,39380.782000,242.189,62.107,15.530,411.938,283.475,-27.850,548.800,-222.710,-14.580
798,39380.825000,245.148,56.047,-37.573,415.440,288.432,-36.615,282.800,-222.710,11.420
799,39380.865000,262.906,29.791,-32.564,415.425,287.424,-41.612,360.800,-88.710,33.420
800,39380.899000,252.054,63.116,0.501,412.753,278.516,-49.854,464.800,-74.710,43.420
801,39380.940000,233.310,69.176,-12.524,410.102,287.054,-54.550,330.800,-112.710,56.420
802,39380.984000,244.162,42.919,-7.515,412.719,279.046,-61.753,213.800,-130.710,92.420
803,39381.24000,247.121,59.077,3.507,411.818,274.537,-67.860,150.800,-220.710,68.420
804,39381.45000,240.216,60.087,-5.511,411.797,276.915,-75.727,136.800,-305.710,101.420
805,39381.85000,252.054,50.998,-28.556,411.779,271.566,-80.865,258.800,-303.710,116.420
806,39381.125000,279.676,41.909,-20.540,412.639,273.946,-88.729,134.800,-291.710,163.420
807,39381.165000,238.243,50.998,-71.640,416.144,266.863,-93.913,182.800,-202.710,206.420
808,39381.204000,237.256,75.235,-79.656,420.546,259.951,-93.130,-176.200,-47.710,212.420
809,39381.245000,237.256,41.909,-60.618,420.546,259.951,-93.130,-378.200,-183.710,170.420
810,39381.281000,224.432,50.998,-271.029,416.981,256.950,-107.141,205.800,-816.710,-84.580
811,39381.304000,227.391,82.304,-257.002,410.698,256.659,-147.883,585.800,-1536.710,-215.580
812,39381.344000,249.094,34.840,-171.836,394.705,255.295,-195.642,153.800,-1869.710,-270.580
813,39381.385000,246.135,46.959,-98.693,382.283,257.857,-227.374,498.800,-1719.710,-307.580
814,39381.425000,244.162,48.978,-75.648,361.006,245.318,-271.541,695.800,-1395.710,-313.580
815,39381.459000,244.162,63.116,-35.569,339.765,233.985,-303.752,587.800,-1073.710,-271.580
816,39381.504000,235.283,14.643,-32.564,327.352,226.300,-329.859,850.800,-693.710,-184.580
817,39381.522000,229.364,29.791,-35.569,322.034,212.182,-338.278,817.800,-213.710,-114.580
818,39381.564000,237.256,49.988,-18.536,322.004,202.409,-346.540,109.800,9.290,-111.580
819,39381.602000,245.148,34.840,-37.573,319.385,215.568,-341.156,-527.200,153.290,-106.580
820,39381.642000,254.027,58.067,4.509,325.583,223.638,-331.937,-552.200,408.290,-106.580
821,39381.682000,242.189,37.870,2.505,333.550,225.746,-318.935,-501.200,735.290,-79.580
822,39381.722000,241.202,17.673,0.501,348.587,235.840,-299.692,34.800,1195.290,95.420
823,39381.762000,249.094,79.274,-108.712,368.914,235.635,-276.795,-131.200,1090.290,-87.580
824,39381.781000,196.809,26.761,-228.947,378.652,239.564,-260.748,-110.200,784.290,-158.580
825,39381.827000,170.173,61.097,-344.172,384.828,236.210,-256.865,616.800,475.290,-205.580
826,39381.860000,202.728,67.156,-108.712,391.896,240.724,-250.738,-283.200,578.290,-98.580
827,39381.900000,284.609,94.422,-7.515,395.465,248.933,-236.559,-321.200,649.290,-145.580
828,39381.942000,298.420,-4.544,-49.597,400.777,250.058,-227.568,129.800,492.290,-74.580
829,39381.982000,270.798,66.146,-34.568,401.687,254.652,-218.479,-350.200,140.290,-167.580
830,39382.6000,243.175,64.126,-51.601,398.166,254.678,-217.497,-49.200,102.290,-83.580
831,39382.41000,210.620,114.619,-78.654,399.059,252.215,-212.609,-189.200,181.290,-52.580
832,39382.86000,259.946,7.574,-67.632,406.147,261.238,-200.377,-322.200,281.290,40.420
833,39382.122000,243.175,33.830,-51.601,405.275,262.190,-197.370,-40.200,245.290,-52.580
834,39382.164000,248.108,72.205,-42.583,408.809,267.457,-195.202,52.800,197.290,-64.580
835,39382.204000,233.310,95.432,-40.579,409.701,266.703,-191.252,-83.200,140.290,-34.580
836,39382.246000,243.175,50.998,-59.616,408.841,269.503,-184.213,-39.200,203.290,-3.580
837,39382.262000,239.229,59.077,-47.593,409.730,268.720,-181.256,96.800,197.290,33.420
838,39382.304000,247.121,69.176,-10.521,412.371,265.250,-181.360,157.800,120.290,69.420
839,39382.344000,238.243,44.939,-48.595,412.355,259.061,-185.533,48.800,-134.710,65.420
840,39382.386000,246.135,58.067,-60.618,412.355,263.373,-186.386,156.800,-70.710,-13.580
841,39382.421000,224.432,107.550,-36.571,408.824,260.710,-188.470,-180.200,-102.710,30.420
842,39382.466000,213.580,64.126,-61.620,411.470,265.052,-188.321,-372.200,-154.710,63.420
843,39382.486000,221.472,49.988,-60.618,410.604,262.617,-182.445,-430.200,27.290,-27.580
844,39382.526000,287.568,13.633,-2.505,407.093,272.218,-180.158,-218.200,-96.710,-18.580
845,39382.566000,225.418,54.028,-69.636,405.315,270.340,-185.190,58.800,-206.710,-150.580
846,39382.606000,237.256,70.185,-48.595,399.140,269.383,-188.220,118.800,-149.710,-102.580
847,39382.645000,285.595,80.284,-6.513,398.241,276.101,-195.948,75.800,-482.710,-189.580
848,39382.684000,170.173,69.176,-91.679,387.646,282.756,-205.696,53.800,-412.710,-317.580
849,39382.720000,275.730,50.998,-59.616,383.225,283.452,-211.646,305.800,-254.710,-193.580
850,39382.746000,176.092,126.738,-96.689,377.026,284.845,-223.536,246.800,-528.710,-142.580
851,39382.782000,219.499,75.235,-110.716,369.075,278.594,-229.723,27.800,-140.710,-203.580
852,39382.820000,206.674,103.511,-110.716,369.099,284.000,-222.596,-100.200,182.290,-49.580
853,39382.864000,208.647,77.254,-95.687,374.401,282.436,-216.672,-67.200,480.290,83.420
854,39382.904000,312.231,58.067,-31.562,383.233,275.781,-206.930,170.800,556.290,124.420
855,39382.947000,223.445,16.663,-73.644,390.296,272.483,-201.056,46.800,510.290,131.420
856,39382.962000,233.310,60.087,-64.626,393.832,274.334,-197.013,356.800,559.290,112.420
857,39383.2000,245.148,70.185,-16.532,400.898,272.800,-190.089,214.800,501.290,99.420
858,39383.45000,228.378,90.383,-14.528,407.089,270.454,-181.208,104.800,539.290,137.420
859,39383.84000,225.418,94.422,-42.583,410.639,268.135,-171.342,-161.200,455.290,140.420
860,39383.125000,279.676,6.564,-14.528,415.947,264.052,-162.521,-106.200,308.290,205.420
861,39383.166000,232.324,59.077,-20.540,421.241,259.828,-158.669,195.800,182.290,80.420
862,39383.206000,230.351,76.245,1.503,419.482,263.299,-158.562,-41.200,41.290,23.420
863,39383.226000,229.364,91.393,-5.511,420.368,262.488,-156.600,32.800,-33.710,40.420
864,39383.266000,251.067,48.978,-16.532,421.240,258.092,-158.725,-249.200,-165.710,47.420
865,39383.306000,220.486,43.929,-77.652,419.473,259.771,-160.663,-200.200,-147.710,2.420
866,39383.346000,266.852,82.304,-22.544,420.368,259.044,-155.718,-134.200,96.290,92.420
867,39383.385000,237.256,92.402,-44.587,423.903,254.848,-150.878,-271.200,236.290,86.420
868,39383.427000,302.366,-28.781,-17.534,424.816,260.338,-140.767,-270.200,255.290,125.420
869,39383.441000,233.310,65.136,-5.511,428.344,262.105,-139.706,-51.200,87.290,10.420
870,39383.487000,252.054,74.225,-16.532,429.222,262.077,-140.697,33.800,61.290,88.420
871,39383.526000,289.541,28.781,22.544,428.335,254.265,-140.953,12.800,60.290,168.420
872,39383.566000,288.555,24.742,17.534,429.216,257.709,-141.831,55.800,-254.710,56.420
873,39383.605000,247.121,45.949,-64.626,426.557,254.962,-146.894,-96.200,-418.710,31.420
874,39383.645000,248.108,-33.830,88.673,426.554,251.490,-147.007,-76.200,-50.710,175.420
875,39383.685000,255.013,40.899,56.611,434.539,246.880,-126.278,-1375.200,486.290,507.420
876,39383.705000,244.162,19.692,6.513,447.837,242.554,-95.593,-1418.200,649.290,804.420
877,39383.742000,238.243,5.554,4.509,451.425,240.601,-72.806,-1034.200,763.290,676.420
878,39383.782000,222.459,-30.801,-57.613,460.276,228.962,-55.282,84.800,700.290,511.420
879,39383.825000,275.730,264.079,-124.744,462.030,221.123,-56.523,592.800,-77.710,258.420
880,39383.866000,283.622,46.959,77.652,461.163,216.952,-50.703,-553.200,-49.710,224.420
881,39383.901000,257.973,-8.584,-27.554,462.917,210.849,-51.889,784.800,214.290,69.420
882,39383.927000,241.202,-27.771,-86.669,463.788,209.029,-54.924,124.800,52.290,218.420
883,39383.967000,207.661,-42.919,-149.793,465.555,208.219,-52.959,-479.200,-59.710,335.420
884,39384.20000,208.647,85.333,-155.804,465.551,202.143,-53.156,-921.200,-269.710,358.420
885,39384.50000,227.391,20.702,-156.806,464.606,185.143,-71.584,-353.200,-611.710,436.420
886,39384.85000,231.337,60.087,-143.781,460.136,180.180,-93.606,823.800,-1007.710,188.420
887,39384.125000,252.054,32.821,-138.771,448.563,169.497,-133.709,816.800,-1351.710,-21.580
888,39384.165000,256.987,39.890,-131.757,429.940,160.517,-174.773,986.800,-1506.710,-126.580
889,39384.185000,265.865,66.146,-139.773,409.553,151.507,-216.836,720.800,-1663.710,-127.580
890,39384.225000,283.622,63.116,-121.738,391.857,149.866,-243.757,531.800,-1754.710,-112.580
891,39384.269000,256.987,72.205,-113.722,367.093,141.134,-275.895,204.800,-1718.710,-158.580
892,39384.302000,276.717,95.432,-92.681,341.483,152.563,-300.431,-374.200,-1615.710,-126.580
893,39384.344000,279.676,143.905,-80.658,315.024,175.501,-316.652,-1240.200,-1460.710,-176.580
894,39384.386000,250.081,81.294,-2.505,299.169,194.473,-320.060,-1748.200,-1212.710,-458.580
895,39384.406000,214.566,-3.535,56.611,279.814,225.735,-318.114,-811.200,-384.710,-795.580
896,39384.447000,248.108,-41.909,62.622,276.276,224.724,-323.123,658.800,323.290,-688.580
897,39384.487000,256.987,-65.136,150.795,279.784,215.094,-326.403,1168.800,720.290,-704.580
898,39384.526000,226.405,25.751,32.564,293.013,216.112,-321.363,599.800,1079.290,-513.580
899,39384.566000,381.287,-227.724,-81.659,293.878,205.612,-324.680,1086.800,670.290,-163.580
900,39384.607000,375.368,61.097,-39.577,302.684,196.967,-323.939,-218.200,454.290,47.420
901,39384.647000,363.530,83.314,5.511,300.082,206.851,-311.711,-639.200,-101.710,60.420
902,39384.667000,323.083,61.097,-21.542,296.534,208.331,-320.611,-294.200,-500.710,82.420
903,39384.707000,312.231,56.047,-62.622,285.055,207.201,-329.622,-114.200,-1146.710,-238.580
904,39384.747000,260.933,69.176,-92.681,270.029,208.419,-347.504,955.800,-563.710,-435.580
905,39384.787000,79.414,9.594,69.636,292.049,184.272,-343.252,2063.800,1647.290,-322.580
906,39384.826000,269.811,107.550,-146.787,326.487,182.510,-314.402,-273.200,2118.290,-418.580
907,39384.866000,59.684,-35.850,-503.483,337.144,203.186,-288.872,-2107.200,908.290,-184.580
908,39384.889000,119.861,-14.643,-57.613,333.573,196.685,-303.990,1424.800,-648.710,9.420
909,39384.927000,126.767,35.850,-68.634,327.392,187.916,-307.273,-312.200,91.290,124.420
910,39384.966000,273.757,59.077,-109.714,330.919,188.814,-306.240,-71.200,116.290,140.420
911,39385.6000,276.717,41.909,-17.534,328.288,197.549,-303.979,-710.200,-438.710,70.420
912,39385.47000,311.245,20.702,-29.558,315.044,202.409,-315.779,35.800,-848.710,-179.580
913,39385.84000,277.703,-18.682,7.515,300.014,194.975,-332.949,646.800,-708.710,-188.580
914,39385.129000,260.933,-8.584,26.552,295.585,184.387,-339.265,964.800,-277.710,-142.580
915,39385.142000,278.690,18.682,18.536,301.730,170.391,-343.672,606.800,266.290,230.420
916,39385.190000,265.865,62.107,2.505,307.035,166.280,-335.844,-349.200,474.290,503.420
917,39385.224000,267.838,88.363,-29.558,324.713,178.084,-317.531,-1318.200,666.290,615.420
918,39385.264000,261.919,80.284,-43.585,346.842,193.786,-284.181,-2046.200,998.290,759.420
919,39385.309000,258.960,77.254,-40.579,369.871,201.061,-242.166,-1872.200,1294.290,802.420
920,39385.345000,262.906,75.235,-55.609,391.096,205.338,-214.155,-706.200,1622.290,573.420
921,39385.366000,253.040,93.412,-71.640,415.878,201.331,-172.500,-177.200,1952.290,232.420
922,39385.402000,238.243,41.909,-99.695,432.753,211.319,-126.445,-159.200,2069.290,51.420
923,39385.444000,238.243,63.116,-160.814,446.975,209.992,-81.757,451.800,1966.290,125.420
924,39385.484000,228.378,88.363,-185.863,454.967,204.598,-58.075,-4.200,1294.290,2.420
925,39385.523000,220.486,39.890,-132.759,458.561,211.325,-35.007,-232.200,674.290,-127.580
926,39385.564000,216.540,44.939,-123.742,455.048,219.190,-32.777,71.800,-97.710,-300.580
927,39385.604000,245.148,78.264,41.581,451.515,221.679,-36.679,55.800,-309.710,-296.580
928,39385.624000,275.730,42.919,-3.507,453.261,226.691,-43.462,-573.200,-542.710,-142.580
929,39385.664000,250.081,16.663,-9.519,451.499,234.446,-45.202,-976.200,-511.710,-389.580
930,39385.704000,305.326,-44.939,-6.513,444.439,244.659,-51.844,-408.200,-508.710,-254.580
931,39385.744000,272.771,28.781,-11.523,440.027,253.195,-56.546,-37.200,-415.710,-298.580
932,39385.784000,257.973,28.781,-14.528,437.372,255.656,-61.440,1.800,-177.710,-187.580
933,39385.824000,265.865,33.830,2.505,435.594,252.910,-66.499,311.800,-99.710,-137.580
934,39385.864000,228.378,66.146,-2.505,435.593,255.486,-67.409,72.800,-114.710,-119.580
935,39385.884000,233.310,70.185,-4.509,433.813,261.336,-75.169,136.800,-155.710,-56.580
936,39385.924000,241.202,65.136,10.521,433.802,262.091,-79.116,123.800,-161.710,-26.580
937,39385.966000,244.162,65.136,0.501,427.632,257.746,-79.277,-119.200,-202.710,-16.580
938,39386.6000,256.987,42.919,-22.544,428.514,262.927,-80.099,-78.200,-111.710,36.420
939,39386.46000,246.135,32.821,-14.528,433.785,258.478,-84.198,-62.200,-97.710,21.420
940,39386.86000,254.027,43.929,19.538,430.234,255.618,-93.240,85.800,-372.710,-11.580
941,39386.107000,207.661,71.195,-5.511,427.558,257.014,-105.119,19.800,-520.710,-112.580
942,39386.146000,263.892,38.880,-20.540,423.136,260.286,-111.978,95.800,-583.710,-130.580
943,39386.190000,190.890,140.876,-40.579,417.817,261.680,-123.865,133.800,-470.710,-156.580
944,39386.230000,285.595,28.781,-37.573,416.928,265.906,-127.703,-92.200,-281.710,35.420
945,39386.270000,259.946,49.988,-59.616,413.389,259.715,-131.887,68.800,-81.710,41.420
946,39386.309000,245.148,36.860,-66.630,417.801,258.935,-128.919,-90.200,231.290,51.420
947,39386.345000,251.067,49.988,-60.618,421.352,256.615,-119.053,-204.200,324.290,119.420
948,39386.365000,239.229,20.702,21.542,425.777,261.995,-112.907,-9.200,322.290,39.420
949,39386.409000,240.216,77.254,-19.538,424.920,267.400,-105.783,-52.200,293.290,-95.580
950,39386.450000,198.782,117.649,-5.511,424.931,266.645,-101.836,-104.200,339.290,-82.580
951,39386.489000,218.513,95.432,-26.552,424.087,267.878,-88.889,-461.200,322.290,-8.580
952,39386.529000,288.555,-74.225,15.530,425.847,264.407,-88.996,427.800,-92.710,-55.580
953,39386.580000,217.526,79.274,-31.562,421.419,271.066,-98.724,-2.200,-366.710,-215.580
954,39386.590000,250.081,64.126,-14.528,422.291,275.294,-102.556,-112.200,-380.710,-119.580
955,39386.630000,256.987,40.899,52.603,418.735,273.246,-113.557,136.800,-589.710,-36.580
956,39386.670000,211.607,81.294,-100.697,416.948,277.303,-123.361,-132.200,-503.710,-112.580
957,39386.710000,270.798,46.959,-34.568,411.648,277.158,-128.348,38.800,-260.710,-27.580
958,39386.749000,261.919,50.998,-71.640,415.169,277.133,-129.330,-79.200,-31.710,11.420
959,39386.789000,250.081,57.057,-67.632,409.881,273.657,-129.460,-134.200,149.290,23.420
960,39386.829000,252.054,50.998,-51.601,415.199,272.263,-117.572,-38.200,425.290,91.420
961,39386.849000,246.135,57.057,-44.587,417.883,273.527,-103.621,-118.200,704.290,102.420
962,39386.888000,259.946,18.682,-16.532,423.209,271.349,-88.780,-25.200,642.290,46.420
963,39386.928000,243.175,52.008,-17.534,423.226,275.830,-83.669,171.800,649.290,38.420
964,39386.969000,242.189,58.067,5.511,425.899,274.406,-72.784,212.800,565.290,25.420
965,39387.7000,241.202,61.097,17.534,425.041,270.319,-63.982,25.800,451.290,0.420
966,39387.50000,240.216,50.998,25.550,426.813,269.565,-60.029,137.800,361.290,3.420
967,39387.69000,242.189,61.097,24.548,425.066,269.704,-55.065,-12.200,243.290,11.420
968,39387.107000,234.297,61.097,22.544,429.479,269.792,-52.069,-35.200,140.290,15.420
969,39387.150000,241.202,55.037,16.532,429.487,273.320,-49.969,-113.200,66.290,27.420
970,39387.190000,246.135,49.988,14.528,430.373,272.509,-48.006,-26.200,8.290,48.420
971,39387.229000,247.121,50.998,22.544,427.726,269.875,-49.093,29.800,-12.710,64.420
972,39387.269000,242.189,57.057,17.534,429.488,270.745,-49.059,50.800,-41.710,82.420
973,39387.310000,252.054,44.939,10.521,427.721,268.111,-50.144,52.800,-29.710,100.420
974,39387.331000,249.094,39.890,9.519,433.005,265.511,-50.211,21.800,-13.710,88.420
975,39387.370000,245.148,57.057,11.523,432.112,256.774,-52.483,36.800,-13.710,104.420
976,39387.410000,249.094,38.880,16.532,435.641,260.277,-51.365,4.800,-41.710,147.420
977,39387.445000,250.081,40.899,12.524,436.512,257.589,-54.429,20.800,-70.710,142.420
978,39387.487000,249.094,41.909,9.519,440.031,254.959,-55.496,3.800,-76.710,142.420
979,39387.527000,247.121,46.959,11.523,441.789,253.197,-56.540,36.800,-72.710,152.420
980,39387.545000,255.013,32.821,6.513,438.259,248.826,-57.687,26.800,-64.710,143.420
981,39387.585000,253.040,34.840,7.515,443.532,246.981,-61.701,19.800,-51.710,141.420
982,39387.627000,256.000,32.821,5.511,445.291,242.642,-61.837,104.800,-28.710,151.420
983,39387.670000,251.067,27.771,7.515,444.407,235.726,-61.071,88.800,-11.710,107.420
984,39387.710000,262.906,23.732,-2.505,447.922,234.776,-64.069,138.800,14.290,102.420
985,39387.750000,258.960,25.751,10.521,448.812,239.173,-61.938,222.800,29.290,100.420
986,39387.791000,251.067,27.771,17.534,448.799,233.012,-65.117,255.800,-75.710,88.420
987,39387.811000,252.054,26.761,12.524,447.895,228.475,-72.218,184.800,-148.710,45.420
988,39387.865000,253.040,20.702,-3.507,446.116,224.860,-77.306,206.800,-171.710,21.420
989,39387.890000,258.960,9.594,-12.524,446.990,227.381,-80.200,526.800,-55.710,11.420
990,39387.932000,244.162,7.574,-47.593,445.193,221.861,-91.308,739.800,-60.710,54.420
991,39387.970000,245.148,5.554,-47.593,446.046,218.137,-100.363,506.800,-175.710,66.420
992,39388.11000,242.189,2.525,-45.589,445.135,218.694,-111.271,287.800,-297.710,113.420
993,39388.36000,247.121,11.613,-46.591,445.116,215.921,-117.319,164.800,-391.710,139.420
994,39388.67000,250.081,8.584,-45.589,441.539,205.920,-133.543,142.800,-454.710,183.420
995,39388.112000,252.054,15.653,-38.575,435.338,201.265,-144.636,333.800,-485.710,163.420
996,39388.146000,257.973,24.742,-38.575,429.993,190.339,-162.882,445.800,-468.710,122.420
997,39388.189000,255.013,21.712,-33.566,424.657,186.384,-179.908,562.800,-449.710,79.420
998,39388.229000,252.054,18.682,-35.569,422.872,181.845,-187.012,782.800,-369.710,30.420
999,39388.267000,246.135,12.623,-35.569,417.538,173.607,-202.191,1074.800,-259.710,17.420
1000,39388.287000,248.108,21.712,-35.569,414.857,160.303,-212.562,1136.800,-182.710,41.420
1001,39388.330000,250.081,22.722,-35.569,409.524,146.045,-225.950,1286.800,-85.710,51.420
1002,39388.369000,243.175,39.890,-40.579,407.731,131.091,-233.392,1414.800,8.290,29.420
1003,39388.410000,240.216,27.771,-30.560,410.342,115.272,-240.848,1598.800,162.290,-35.580
1004,39388.449000,252.054,92.402,-12.524,411.204,96.120,-243.453,1626.800,299.290,-186.580
1005,39388.489000,252.054,47.968,30.560,419.149,96.295,-237.464,799.800,606.290,-318.580
1006,39388.508000,266.852,13.633,-43.585,418.295,94.840,-227.584,766.800,471.290,-224.580
1007,39388.549000,257.973,4.544,-43.585,422.702,86.248,-224.869,366.800,434.290,-149.580
1008,39388.586000,255.013,-6.564,-33.566,425.370,89.947,-216.797,-103.200,336.290,-62.580
1009,39388.632000,258.960,-2.525,-14.528,428.047,98.043,-206.596,-59.200,335.290,-175.580
1010,39388.666000,257.973,1.515,-13.526,428.943,102.496,-202.476,-60.200,317.290,-212.580
1011,39388.711000,255.013,46.959,-5.511,433.365,106.112,-197.380,-121.200,293.290,-164.580
1012,39388.752000,252.054,16.663,4.509,434.272,108.102,-188.376,-27.200,287.290,-152.580
1013,39388.767000,254.027,12.623,4.509,436.041,109.028,-186.354,51.800,249.290,-136.580
1014,39388.811000,253.040,14.643,2.505,436.059,115.245,-181.187,24.800,190.290,-143.580
1015,39388.850000,257.973,26.761,4.509,435.190,119.668,-178.067,-6.200,156.290,-129.580
1016,39388.890000,254.027,16.663,2.505,435.208,125.017,-172.929,70.800,160.290,-114.580
1017,39388.929000,252.054,26.761,6.513,433.447,122.440,-172.025,115.800,154.290,-106.580
1018,39388.967000,256.987,24.742,8.517,434.327,124.149,-172.960,94.800,131.290,-95.580
1019,39388.987000,251.067,22.722,7.515,436.088,118.970,-172.129,83.800,117.290,-101.580
1020,39389.31000,250.081,27.771,8.517,436.988,126.923,-166.903,50.800,96.290,-99.580
1021,39389.70000,249.094,38.880,8.517,437.000,130.480,-163.809,21.800,71.290,-79.580
1022,39389.107000,246.135,28.781,10.521,437.878,131.320,-164.772,-8.200,49.290,-60.580
1023,39389.152000,248.108,33.830,12.524,435.241,131.375,-162.792,-85.200,-9.710,-54.580
1024,39389.190000,254.027,30.801,9.519,435.245,132.271,-161.770,-52.200,6.290,-37.580
1025,39389.231000,250.081,29.791,6.513,436.116,130.451,-164.806,4.800,37.290,-19.580
1026,39389.247000,252.054,34.840,10.521,437.004,128.800,-161.877,-5.200,35.290,-9.580
1027,39389.292000,253.040,28.781,11.523,436.121,133.083,-163.727,21.800,39.290,2.420
1028,39389.331000,250.081,30.801,12.524,438.769,133.142,-161.731,46.800,25.290,4.420
1029,39389.367000,249.094,30.801,12.524,438.766,133.113,-162.725,21.800,-16.710,2.420
1030,39389.410000,251.067,29.791,10.521,437.889,134.877,-161.677,-4.200,-32.710,-3.580
1031,39389.450000,254.027,28.781,10.521,433.489,133.194,-159.760,3.800,-23.710,-3.580
1032,39389.487000,250.081,31.811,10.521,434.365,130.563,-160.836,33.800,-22.710,-0.580
1033,39389.507000,246.135,33.830,10.521,436.121,130.508,-162.818,93.800,-32.710,11.420
1034,39389.552000,253.040,25.751,8.517,436.994,126.112,-164.944,48.800,-56.710,16.420
