Sample, Time, ACCX, ACCY, ACCZ, MAGX, MAGY, MAGZ, GYRX, GYRY, GYRZ
0,38747.582000,252.054,25.751,10.521,409.208,238.670,-48.179,-0.200,-15.710,4.420
1,38747.608000,252.054,25.751,11.523,406.557,235.140,-50.288,6.800,-12.710,5.420
2,38747.641000,251.067,25.751,9.519,408.323,241.217,-50.085,4.800,-8.710,4.420
3,38747.690000,252.054,24.742,10.521,408.311,239.369,-54.117,3.800,-1.710,4.420
4,38747.722000,253.040,26.761,11.523,408.318,242.029,-52.045,9.800,2.290,4.420
5,38747.763000,253.040,25.751,11.523,403.927,241.299,-47.118,-2.200,-3.710,4.420
6,38747.801000,252.054,25.751,10.521,404.796,236.875,-50.238,-2.200,-6.710,4.420
7,38747.824000,253.040,25.751,10.521,403.906,235.054,-53.279,-2.200,-6.710,2.420
8,38747.862000,252.054,25.751,11.523,409.196,241.133,-53.064,-1.200,-5.710,2.420
9,38747.901000,252.054,27.771,10.521,406.553,237.688,-52.192,-4.200,-6.710,4.420
10,38747.942000,252.054,26.761,10.521,404.798,239.479,-50.153,-2.200,-4.710,5.420
11,38747.981000,251.067,27.771,11.523,406.563,236.064,-48.272,1.800,-11.710,8.420
12,38748.26000,250.081,24.742,11.523,407.432,238.528,-53.155,-4.200,-15.710,9.420
13,38748.62000,252.054,23.732,10.521,408.311,228.169,-51.502,-6.200,-22.710,8.420
14,38748.91000,250.081,23.732,10.521,405.670,235.083,-52.279,-2.200,-20.710,7.420
15,38748.122000,253.040,22.722,9.519,409.201,236.878,-50.223,-28.200,-29.710,9.420
16,38748.165000,247.121,24.742,8.517,408.312,233.349,-52.327,33.800,-29.710,5.420
17,38748.202000,255.013,23.732,10.521,406.555,240.292,-52.107,17.800,-58.710,8.420
18,38748.245000,245.148,28.781,9.519,410.947,237.578,-56.153,43.800,-43.710,7.420
19,38748.289000,258.960,25.751,5.511,405.664,238.471,-55.148,-25.200,-20.710,30.420
20,38748.305000,251.067,24.742,10.521,407.422,236.708,-56.193,23.800,-8.710,36.420
21,38748.341000,248.108,23.732,4.509,410.949,236.738,-55.187,25.800,16.290,30.420
22,38748.391000,252.054,27.771,9.519,410.061,230.634,-56.381,4.800,16.290,30.420
23,38748.422000,251.067,26.761,12.524,411.827,233.267,-55.297,-18.200,-37.710,46.420
24,38748.466000,250.081,20.702,13.526,410.947,234.134,-55.272,42.800,-78.710,58.420
25,38748.505000,251.067,25.751,8.517,409.178,232.341,-57.322,30.800,-109.710,54.420
26,38748.542000,252.054,22.722,4.509,408.292,233.152,-59.284,29.800,-107.710,57.420
27,38748.566000,252.054,19.692,0.501,410.922,231.305,-63.308,0.800,-91.710,55.420
28,38748.606000,255.013,13.633,5.511,408.279,230.435,-63.344,16.800,-62.710,48.420
29,38748.646000,254.027,17.673,3.507,413.557,224.335,-64.518,26.800,-46.710,43.420
30,38748.682000,253.040,18.682,7.515,410.912,229.485,-66.346,13.800,-45.710,45.420
31,38748.722000,250.081,16.663,2.505,412.674,228.618,-66.368,43.800,-52.710,43.420
32,38748.769000,254.027,17.673,1.503,415.308,228.535,-69.341,31.800,-52.710,30.420
33,38748.785000,255.013,17.673,0.501,412.661,226.769,-70.400,17.800,-48.710,24.420
34,38748.825000,253.040,15.653,-0.501,411.779,225.901,-70.431,11.800,-30.710,20.420
35,38748.862000,253.040,14.643,-3.507,413.535,221.534,-71.560,15.800,-14.710,14.420
36,38748.906000,252.054,16.663,-1.503,414.418,216.383,-69.739,4.800,-0.710,10.420
37,38748.944000,252.054,17.673,-1.503,414.417,215.515,-69.767,5.800,8.290,8.420
38,38748.987000,252.054,14.643,3.507,411.777,225.872,-71.425,0.800,12.290,6.420
39,38749.22000,254.027,17.673,1.503,412.662,224.193,-69.491,-2.200,9.290,2.420
40,38749.44000,254.027,16.663,1.503,409.138,223.323,-69.530,-2.200,6.290,1.420
41,38749.86000,253.040,17.673,-0.501,413.544,225.930,-69.432,-2.200,1.290,-1.580
42,38749.124000,253.040,14.643,3.507,410.017,220.719,-69.612,-0.200,-7.710,-2.580
43,38749.164000,253.040,16.663,0.501,412.645,217.137,-73.692,-4.200,-9.710,-2.580
44,38749.204000,253.040,16.663,0.501,411.782,221.617,-68.584,-1.200,-7.710,-2.580
45,38749.242000,254.027,15.653,0.501,413.533,218.062,-71.673,-0.200,-5.710,-2.580
46,38749.262000,253.040,17.673,0.501,412.660,225.901,-70.428,-2.200,1.290,-5.580
47,38749.306000,252.054,16.663,1.503,411.788,229.429,-68.331,-0.200,6.290,-7.580
48,38749.342000,252.054,16.663,-0.501,411.785,229.401,-69.325,-9.200,7.290,-7.580
49,38749.389000,253.040,16.663,-0.501,411.782,229.373,-70.319,-9.200,5.290,-10.580
50,38749.422000,253.040,18.682,-1.503,410.023,222.512,-67.568,-11.200,14.290,-12.580
51,38749.467000,256.000,16.663,-0.501,410.900,220.748,-68.615,-5.200,41.290,-11.580
52,38749.502000,251.067,15.653,-2.505,412.667,223.382,-67.531,-9.200,59.290,-17.580
53,38749.529000,256.000,15.653,2.505,412.671,225.146,-66.481,-16.200,74.290,-21.580
54,38749.562000,253.040,16.663,0.501,412.673,227.750,-66.396,-15.200,94.290,-23.580
55,38749.607000,252.054,16.663,3.507,410.042,224.417,-61.548,-29.200,102.290,-27.580
56,38749.645000,252.054,18.682,8.517,411.810,229.654,-60.379,-19.200,102.290,-25.580
57,38749.682000,249.094,23.732,11.523,410.053,227.973,-58.454,10.800,79.290,-16.580
58,38749.722000,253.040,19.692,12.524,410.051,225.369,-58.538,6.800,45.290,-7.580
59,38749.762000,252.054,20.702,9.519,411.821,228.899,-56.432,12.800,12.290,-3.580
60,38749.782000,252.054,19.692,8.517,413.581,229.740,-57.392,0.800,6.290,-3.580
61,38749.827000,253.040,19.692,9.519,416.226,232.346,-57.299,7.800,11.290,-2.580
62,38749.866000,254.027,18.682,9.519,415.341,231.449,-58.324,9.800,9.290,2.420
63,38749.902000,250.081,19.692,9.519,411.817,231.447,-58.335,17.800,3.290,3.420
64,38749.945000,251.067,18.682,8.517,411.815,224.531,-57.567,7.800,-2.710,0.420
65,38749.985000,254.027,20.702,9.519,410.054,225.397,-57.544,-1.200,-5.710,-0.580
66,38750.5000,253.040,18.682,8.517,411.816,226.267,-57.510,3.800,-3.710,2.420
67,38750.44000,250.081,20.702,9.519,413.581,222.852,-55.629,15.800,2.290,4.420
68,38750.89000,252.054,19.692,8.517,414.462,222.853,-55.627,25.800,-2.710,4.420
69,38750.129000,252.054,19.692,8.517,411.824,228.927,-55.438,12.800,-10.710,5.420
70,38750.165000,252.054,17.673,8.517,410.940,228.898,-56.435,21.800,-3.710,3.420
71,38750.209000,253.040,18.682,8.517,410.930,230.522,-60.354,7.800,-0.710,-0.580
72,38750.246000,253.040,19.692,9.519,413.575,225.372,-58.527,5.800,2.290,-1.580
73,38750.265000,252.054,19.692,9.519,414.458,232.288,-59.292,8.800,1.290,-0.580
74,38750.310000,252.054,19.692,9.519,413.579,222.824,-56.623,-0.200,-14.710,-2.580
75,38750.352000,253.040,21.712,9.519,416.222,230.582,-58.349,-3.200,-17.710,-2.580
76,38750.385000,254.027,19.692,7.515,413.576,230.552,-59.352,-4.200,-13.710,-4.580
77,38750.424000,254.027,18.682,9.519,409.175,228.001,-57.462,-7.200,-7.710,-6.580
78,38750.471000,253.040,19.692,9.519,409.180,230.633,-56.384,-11.200,-6.710,-8.580
79,38750.485000,251.067,19.692,8.517,410.937,228.870,-57.429,-9.200,-0.710,-5.580
80,38750.524000,252.054,20.702,9.519,410.053,224.529,-57.572,-17.200,-4.710,-4.580
81,38750.564000,253.040,20.702,9.519,410.938,233.182,-58.282,-12.200,-10.710,-4.580
82,38750.610000,252.054,20.702,7.515,411.816,229.711,-58.392,-4.200,-15.710,-1.580
83,38750.649000,253.040,20.702,7.515,412.698,230.579,-58.361,-10.200,-16.710,-2.580
84,38750.689000,254.027,19.692,7.515,412.698,230.579,-58.361,-10.200,-10.710,-0.580
85,38750.729000,253.040,19.692,9.519,413.568,227.891,-61.424,1.800,-1.710,1.420
86,38750.746000,253.040,19.692,7.515,413.582,231.476,-57.336,3.800,-1.710,-0.580
87,38750.787000,251.067,19.692,7.515,413.564,218.372,-60.740,2.800,-3.710,1.420
88,38750.829000,252.054,19.692,9.519,413.574,227.948,-59.436,4.800,-5.710,3.420
89,38750.867000,251.067,18.682,7.515,414.464,225.457,-55.542,5.800,-7.710,1.420
90,38750.909000,252.054,19.692,9.519,410.927,229.625,-61.376,5.800,-18.710,2.420
91,38750.947000,251.067,19.692,6.513,409.172,232.284,-59.309,-1.200,-32.710,3.420
92,38750.972000,252.054,20.702,7.515,411.808,230.494,-61.345,-2.200,-29.710,3.420
93,38751.5000,253.040,18.682,7.515,410.934,232.286,-59.304,-8.200,-18.710,0.420
94,38751.46000,254.027,20.702,6.513,411.800,226.966,-63.446,-4.200,-4.710,0.420
95,38751.86000,251.067,18.682,6.513,413.572,225.344,-59.521,2.800,1.290,1.420
96,38751.126000,252.054,18.682,6.513,410.926,225.314,-60.523,3.800,6.290,1.420
97,38751.166000,252.054,18.682,8.517,413.572,225.344,-59.521,-1.200,11.290,-4.580
98,38751.205000,253.040,20.702,9.519,410.934,232.286,-59.304,-11.200,6.290,-6.580
99,38751.225000,252.054,21.712,5.511,412.695,230.551,-59.354,-9.200,2.290,-6.580
100,38751.274000,252.054,20.702,6.513,407.408,233.123,-60.281,-3.200,9.290,-4.580
101,38751.310000,252.054,19.692,7.515,408.291,232.284,-59.312,-16.200,3.290,-4.580
102,38751.346000,250.081,19.692,8.517,410.926,221.002,-59.670,-18.200,0.290,-4.580
103,38751.386000,252.054,19.692,7.515,410.052,230.549,-59.363,-8.200,4.290,-3.580
104,38751.426000,252.054,22.722,8.517,410.939,230.606,-57.372,-9.200,4.290,-4.580
105,38751.446000,251.067,21.712,8.517,410.930,230.522,-60.354,-8.200,-0.710,-1.580
106,38751.487000,252.054,19.692,8.517,412.692,230.523,-60.348,-9.200,-7.710,-0.580
107,38751.525000,251.067,21.712,6.513,410.051,229.681,-59.391,-9.200,-11.710,-1.580
108,38751.571000,251.067,20.702,5.511,410.058,230.605,-57.375,-5.200,-13.710,-0.580
109,38751.611000,253.040,18.682,7.515,411.808,226.182,-60.492,-0.200,-13.710,-0.580
110,38751.645000,253.040,21.712,5.511,410.932,229.682,-59.388,-1.200,-14.710,-0.580
111,38751.702000,255.013,20.702,8.517,412.698,230.579,-58.361,1.800,-7.710,1.420
112,38751.710000,252.054,18.682,7.515,411.810,233.098,-61.261,0.800,-6.710,-1.580
113,38751.745000,252.054,20.702,6.513,412.693,232.259,-60.292,-0.200,-5.710,-2.580
114,38751.785000,252.054,21.712,9.519,410.934,231.418,-59.332,1.800,-3.710,-1.580
115,38751.826000,251.067,18.682,7.515,410.928,224.474,-59.557,-4.200,-7.710,-1.580
116,38751.865000,253.040,19.692,7.515,408.281,226.151,-61.497,-4.200,-6.710,-1.580
117,38751.907000,251.067,22.722,5.511,408.285,227.048,-60.475,-2.200,-5.710,-3.580
118,38751.927000,252.054,19.692,8.517,411.815,227.975,-58.448,-0.200,-9.710,-2.580
119,38751.970000,252.054,20.702,8.517,406.524,225.339,-59.543,-2.200,-6.710,0.420
120,38752.10000,251.067,21.712,7.515,410.936,230.578,-58.366,0.800,-2.710,-1.580
121,38752.52000,253.040,19.692,8.517,411.813,233.126,-60.267,-0.200,-3.710,-0.580
122,38752.90000,252.054,20.702,7.515,411.820,234.919,-58.223,-0.200,-5.710,0.420
123,38752.125000,252.054,21.712,6.513,410.053,232.285,-59.307,3.800,-4.710,0.420
124,38752.165000,253.040,19.692,6.513,410.928,227.050,-60.467,0.800,-1.710,2.420
125,38752.190000,253.040,20.702,8.517,412.694,228.815,-59.411,2.800,-2.710,0.420
126,38752.226000,252.054,20.702,5.511,409.160,231.304,-63.313,-1.200,-3.710,0.420
127,38752.270000,252.054,21.712,8.517,410.938,233.182,-58.282,-0.200,-3.710,1.420
128,38752.310000,254.027,20.702,6.513,413.574,232.259,-60.289,1.800,-3.710,-0.580
129,38752.346000,254.027,19.692,7.515,405.647,230.546,-59.377,-0.200,-0.710,-0.580
130,38752.389000,253.040,19.692,3.507,410.056,231.445,-58.341,1.800,-0.710,-1.580
131,38752.407000,254.027,19.692,7.515,410.049,230.521,-60.357,2.800,-0.710,0.420
132,38752.447000,252.054,21.712,6.513,410.054,233.153,-59.278,-0.200,-6.710,-1.580
133,38752.487000,250.081,20.702,8.517,408.291,232.284,-59.312,-5.200,-14.710,-2.580
134,38752.525000,253.040,20.702,7.515,410.049,229.653,-60.385,-0.200,-14.710,-0.580
135,38752.566000,253.040,21.712,8.517,413.568,235.647,-63.158,-6.200,-11.710,-2.580
136,38752.606000,252.054,22.722,7.515,411.806,231.334,-62.311,-4.200,-12.710,0.420
137,38752.650000,254.027,20.702,7.515,409.167,228.784,-60.416,-9.200,-11.710,2.420
138,38752.667000,253.040,20.702,6.513,411.808,229.626,-61.373,-1.200,-9.710,1.420
139,38752.707000,250.081,20.702,7.515,408.291,231.416,-59.340,-12.200,-14.710,1.420
140,38752.746000,253.040,22.722,7.515,409.161,228.728,-62.404,-7.200,-16.710,3.420
141,38752.790000,251.067,19.692,3.507,411.807,233.070,-62.255,-8.200,-13.710,5.420
142,38752.831000,253.040,19.692,5.511,412.685,233.042,-63.246,-13.200,-9.710,0.420
143,38752.872000,253.040,20.702,5.511,410.045,228.757,-61.407,-11.200,-7.710,-1.580
144,38752.906000,252.054,19.692,6.513,410.928,235.673,-62.173,-6.200,-3.710,-1.580
145,38752.927000,252.054,19.692,3.507,411.807,233.070,-62.255,-9.200,-1.710,-4.580
146,38752.977000,252.054,19.692,4.509,410.050,231.389,-60.329,-8.200,2.290,-4.580
147,38753.7000,251.067,22.722,6.513,410.047,227.917,-60.441,-7.200,1.290,-2.580
148,38753.51000,253.040,20.702,6.513,410.044,227.021,-61.463,-0.200,1.290,1.420
149,38753.87000,252.054,20.702,7.515,411.817,234.890,-59.216,-0.200,-1.710,0.420
150,38753.127000,252.054,22.722,4.509,407.404,227.047,-60.478,5.800,0.290,2.420
151,38753.146000,252.054,22.722,6.513,410.045,228.757,-61.407,9.800,4.290,5.420
152,38753.199000,252.054,20.702,5.511,410.054,233.153,-59.278,10.800,5.290,5.420
153,38753.229000,253.040,20.702,6.513,410.924,230.465,-62.342,16.800,3.290,7.420
154,38753.266000,253.040,20.702,7.515,408.274,227.803,-64.423,10.800,0.290,6.420
155,38753.312000,253.040,22.722,7.515,409.164,232.200,-62.291,15.800,0.290,7.420
156,38753.350000,252.054,20.702,4.509,410.925,231.333,-62.314,14.800,2.290,9.420
157,38753.386000,252.054,19.692,9.519,409.176,226.293,-56.525,18.800,6.290,8.420
158,38753.411000,253.040,20.702,7.515,410.051,228.813,-59.419,10.800,1.290,6.420
159,38753.454000,254.027,19.692,7.515,410.043,229.597,-62.373,15.800,-0.710,7.420
160,38753.487000,252.054,20.702,7.515,411.802,221.814,-61.627,10.800,-2.710,5.420
161,38753.526000,252.054,18.682,6.513,412.686,229.599,-62.364,5.800,-3.710,5.420
162,38753.566000,254.027,20.702,6.513,411.812,231.390,-60.323,3.800,-5.710,4.420
163,38753.610000,252.054,21.712,6.513,413.568,231.335,-62.305,1.800,-6.710,4.420
164,38753.629000,253.040,20.702,3.507,409.152,224.332,-64.533,0.800,-7.710,4.420
165,38753.666000,251.067,19.692,7.515,406.516,229.566,-63.378,-6.200,-10.710,1.420
166,38753.712000,251.067,20.702,7.515,409.163,231.332,-62.319,-7.200,-14.710,1.420
167,38753.751000,251.067,19.692,5.511,410.923,227.861,-62.426,-6.200,-12.710,1.420
168,38753.794000,251.067,19.692,7.515,408.285,231.359,-61.328,-9.200,-10.710,-1.580
169,38753.831000,255.013,20.702,4.509,409.158,231.276,-64.307,-19.200,-10.710,-0.580
170,38753.867000,254.027,19.692,7.515,412.678,223.494,-63.555,-14.200,-3.710,-1.580
171,38753.891000,252.054,20.702,6.513,411.808,229.626,-61.373,-13.200,-2.710,-3.580
172,38753.932000,253.040,20.702,6.513,414.444,233.015,-64.234,-12.200,-8.710,-1.580
173,38753.971000,252.054,19.692,5.511,412.690,232.231,-61.286,-17.200,-8.710,-0.580
174,38754.10000,247.121,25.751,5.511,410.050,231.389,-60.329,-4.200,-2.710,1.420
175,38754.49000,256.987,16.663,6.513,410.924,230.465,-62.342,-4.200,-1.710,1.420
176,38754.95000,253.040,21.712,7.515,410.926,225.314,-60.523,-12.200,-13.710,2.420
177,38754.107000,252.054,20.702,7.515,412.690,231.363,-61.314,14.800,-15.710,12.420
178,38754.151000,249.094,20.702,6.513,410.926,233.069,-62.257,12.800,-25.710,11.420
179,38754.187000,254.027,23.732,3.507,411.806,231.334,-62.311,7.800,-40.710,10.420
180,38754.240000,253.040,19.692,1.503,410.043,229.597,-62.373,13.800,-26.710,18.420
181,38754.274000,250.081,18.682,3.507,410.033,227.776,-65.411,-6.200,-16.710,12.420
182,38754.307000,252.054,19.692,4.509,409.156,225.228,-63.510,2.800,-12.710,8.420
183,38754.354000,253.040,18.682,2.505,409.150,225.171,-65.498,-0.200,-6.710,14.420
184,38754.372000,250.081,19.692,7.515,411.799,233.853,-65.208,24.800,-13.710,14.420
185,38754.409000,255.013,17.673,9.519,410.037,229.540,-64.361,10.800,-50.710,11.420
186,38754.449000,242.189,5.554,8.517,410.033,231.220,-66.292,49.800,-35.710,7.420
187,38754.492000,244.162,4.544,1.503,411.780,230.212,-71.284,118.800,-182.710,17.420
188,38754.529000,249.094,34.840,33.566,410.859,222.062,-83.468,1.800,-543.710,48.420
189,38754.569000,254.027,27.771,57.613,405.545,221.776,-93.424,132.800,-898.710,82.420
190,38754.587000,281.649,46.959,45.589,399.292,216.615,-122.408,180.800,-1354.710,101.420
191,38754.631000,313.218,56.047,3.507,389.518,213.187,-151.347,91.800,-1486.710,52.420
192,38754.667000,332.948,80.284,-9.519,378.858,208.862,-181.312,262.800,-1431.710,121.420
193,38754.709000,250.081,25.751,48.595,373.542,213.728,-193.087,-15.200,-745.710,-12.580
194,38754.756000,203.715,9.594,61.620,370.048,222.631,-184.865,-1190.200,420.290,-34.580
195,38754.787000,237.256,-8.584,26.552,375.429,233.056,-153.727,-1679.200,1060.290,6.420
196,38754.830000,244.162,-8.584,4.509,385.251,242.983,-109.682,-1617.200,1459.290,71.420
197,38754.856000,258.960,-1.515,-29.558,394.140,243.778,-81.823,-1036.200,1569.290,158.420
198,38754.890000,265.865,1.515,-54.607,403.045,243.006,-48.058,-316.200,1415.290,253.420
199,38754.927000,255.013,41.909,-46.591,407.513,241.053,-25.269,278.800,1172.290,142.420
200,38754.975000,231.337,52.008,-64.626,410.178,243.856,-18.218,493.800,664.290,-115.580
201,38755.12000,204.701,85.333,-124.744,408.418,239.571,-16.377,256.800,211.290,-182.580
202,38755.50000,187.931,62.107,-150.795,404.892,248.164,-19.088,-221.200,-339.710,-220.580
203,38755.91000,242.189,-14.643,-90.677,404.836,245.025,-38.057,-248.200,-992.710,-36.580
204,38755.110000,313.218,10.604,-23.546,401.301,249.221,-42.897,-1051.200,-995.710,-181.580
205,38755.147000,296.447,-15.653,-83.663,399.497,248.798,-57.812,-50.200,-613.710,-212.580
206,38755.190000,251.067,36.860,-61.620,400.367,260.753,-64.372,212.800,-367.710,-208.580
207,38755.232000,273.757,27.771,-41.581,392.426,263.210,-69.283,-57.200,-233.710,-163.580
208,38755.271000,256.000,23.732,-14.528,394.179,266.571,-73.140,355.800,-96.710,-110.580
209,38755.309000,236.270,44.939,-12.524,395.041,259.487,-78.332,217.800,-66.710,-103.580
210,38755.334000,244.162,79.274,-5.511,391.504,261.079,-83.256,508.800,-63.710,-69.580
211,38755.369000,231.337,62.107,11.523,393.251,264.384,-89.102,341.800,-215.710,-19.580
212,38755.411000,232.324,82.304,8.517,388.811,257.995,-100.246,-13.200,-442.710,-5.580
213,38755.454000,209.634,86.343,-18.536,386.141,259.447,-110.137,-111.200,-549.710,-45.580
214,38755.490000,290.528,-22.722,-46.591,385.227,264.288,-122.892,155.800,-644.710,91.420
215,38755.539000,258.960,40.899,-19.538,382.556,252.805,-130.224,174.800,-732.710,39.420
216,38755.574000,258.960,45.949,1.503,378.089,257.362,-152.929,178.800,-991.710,59.420
217,38755.594000,266.852,56.047,11.523,367.422,249.509,-184.994,309.800,-1596.710,52.420
218,38755.641000,373.395,35.850,14.528,347.041,245.735,-225.895,319.800,-2203.710,-31.580
219,38755.669000,511.507,-20.702,76.650,333.729,239.588,-258.905,499.800,-2582.710,-336.580
220,38755.709000,384.247,137.846,-108.712,296.574,231.992,-311.899,1098.800,-2726.710,-292.580
221,38755.750000,197.796,46.959,47.593,273.564,227.489,-347.867,864.800,-1695.710,-364.580
222,38755.792000,120.848,49.988,34.568,282.394,232.005,-341.734,-235.200,-80.710,-116.580
223,38755.815000,96.185,13.633,56.611,306.266,249.247,-315.280,-1408.200,1671.290,168.420
224,38755.855000,138.605,-26.761,-31.562,348.770,265.222,-242.138,-1850.200,2633.290,595.420
225,38755.895000,225.418,20.702,-104.704,394.849,263.619,-146.715,-1358.200,3503.290,1120.420
226,38755.935000,304.339,0.505,-187.867,425.089,240.643,-40.120,-1513.200,3744.290,1334.420
227,38755.975000,294.474,114.619,-263.014,431.436,236.403,24.307,-988.200,3519.290,1147.420
228,38756.9000,277.703,181.270,-368.219,423.707,215.102,99.058,-872.200,2134.290,556.420
229,38756.49000,156.362,130.777,-483.444,414.048,216.272,109.988,1237.800,125.290,-320.580
230,38756.70000,173.133,25.751,103.703,412.225,228.587,85.557,-37.200,-1143.710,-589.580
231,38756.112000,314.204,-36.860,-71.640,417.471,229.064,71.687,-870.200,-1083.710,-224.580
232,38756.159000,393.125,9.594,-35.569,416.572,223.715,66.546,-867.200,-782.710,-22.580
233,38756.192000,337.881,-36.860,-40.579,423.607,221.871,62.537,-435.200,-335.710,69.420
234,38756.232000,281.649,12.623,-70.638,424.503,211.681,70.153,-209.200,265.290,245.420
235,38756.275000,292.501,26.761,-56.611,425.417,206.840,82.908,-11.200,721.290,399.420
236,38756.295000,319.137,-39.890,-34.568,422.819,202.977,99.655,315.800,1259.290,419.420
237,38756.335000,195.823,-73.215,-101.699,416.725,201.969,125.420,1123.800,1596.290,234.420
238,38756.375000,199.769,15.653,-109.714,413.235,209.192,135.573,1097.800,1121.290,196.420
239,38756.409000,217.526,161.073,-241.973,414.076,226.886,117.283,1816.800,-6.710,-57.580
240,38756.456000,214.566,82.304,-146.787,418.399,224.364,89.412,1555.800,-1480.710,-228.580
241,38756.490000,248.108,47.968,-195.883,422.620,238.916,21.381,2363.800,-2054.710,-428.580
242,38756.530000,280.663,80.284,-136.767,425.040,247.052,-58.779,1747.800,-2325.710,-514.580
243,38756.550000,256.000,46.959,-117.730,415.139,248.404,-133.242,405.800,-2624.710,-334.580
244,38756.590000,250.081,31.811,-99.695,392.931,246.557,-197.917,18.800,-2481.710,-199.580
245,38756.630000,242.189,32.821,-74.646,376.968,245.504,-234.743,57.800,-2080.710,-38.580
246,38756.670000,243.175,24.742,-40.579,346.009,239.062,-277.750,-22.200,-1679.710,98.420
247,38756.710000,230.351,37.870,32.564,324.802,232.379,-298.888,-239.200,-1114.710,258.420
248,38756.756000,219.499,64.126,51.601,316.886,235.090,-294.853,-1049.200,-65.710,259.420
249,38756.770000,215.553,62.107,114.724,321.361,253.016,-274.397,-2071.200,810.290,154.420
250,38756.821000,288.555,89.373,-64.626,342.607,263.538,-240.226,-328.200,2001.290,283.420
251,38756.852000,280.663,40.899,-20.540,352.359,262.428,-218.385,739.800,1605.290,-345.580
252,38756.902000,331.961,6.564,-44.587,359.456,256.893,-199.675,565.800,1360.290,-212.580
253,38756.930000,363.530,37.870,-20.540,360.386,265.996,-184.482,-936.200,892.290,-184.580
254,38756.971000,323.083,12.623,-48.595,365.730,263.987,-163.677,222.800,869.290,-44.580
255,38757.11000,244.162,29.791,-90.677,369.298,267.016,-148.672,-101.200,803.290,57.420
256,38757.31000,252.054,52.008,-47.593,372.858,269.093,-136.678,186.800,776.290,109.420
257,38757.75000,215.553,49.988,-17.534,377.290,271.954,-127.634,233.800,706.290,53.420
258,38757.115000,221.472,68.166,-35.569,387.881,268.715,-119.761,165.800,642.290,44.420
259,38757.155000,226.405,61.097,-19.538,387.914,267.317,-107.890,192.800,636.290,83.420
260,38757.196000,237.256,59.077,24.548,392.354,269.394,-95.893,-333.200,333.290,25.420
261,38757.236000,253.040,36.860,-32.564,392.369,269.535,-90.923,-198.200,229.290,43.420
262,38757.256000,261.919,45.949,-9.519,394.147,268.837,-84.982,-149.200,348.290,97.420
263,38757.295000,231.337,54.028,25.550,395.037,262.034,-80.235,-207.200,124.290,78.420
264,38757.335000,230.351,110.580,-20.540,394.178,260.523,-72.343,-242.200,103.290,17.420
265,38757.374000,258.960,56.047,-3.507,401.246,262.461,-65.307,-269.200,164.290,206.420
266,38757.414000,248.108,-8.584,-16.532,398.618,263.468,-60.317,-245.200,-19.710,65.420
267,38757.454000,310.258,39.890,-50.599,403.915,263.585,-56.325,-251.200,347.290,94.420
268,38757.494000,269.811,41.909,19.538,402.179,259.525,-46.532,38.800,460.290,108.420
269,38757.514000,203.715,48.978,-10.521,401.330,260.703,-35.574,-209.200,522.290,80.420
270,38757.554000,229.364,23.732,18.536,406.638,253.176,-25.871,-22.200,654.290,113.420
271,38757.594000,261.919,0.505,29.558,409.309,256.035,-16.833,374.800,514.290,76.420
272,38757.634000,318.150,56.047,49.597,407.580,258.948,-5.821,-377.200,326.290,152.420
273,38757.674000,235.283,24.742,20.540,412.899,254.978,6.976,-149.200,441.290,241.420
274,38757.714000,241.202,32.821,12.524,411.152,248.230,13.703,-73.200,381.290,146.420
275,38757.734000,273.757,30.801,-3.507,409.401,247.473,17.644,436.800,228.290,106.420
276,38757.776000,243.175,64.126,-16.532,412.897,244.618,8.626,391.800,-136.710,113.420
277,38757.817000,231.337,17.673,7.515,410.228,243.495,-0.356,-278.200,-586.710,-11.580
278,38757.857000,212.593,2.525,35.569,413.738,244.225,-5.286,-436.200,-579.710,-21.580
279,38757.897000,225.418,19.692,25.550,410.191,250.016,-15.039,-434.200,-722.710,-77.580
280,38757.937000,203.715,5.554,53.605,407.524,248.921,-23.027,-276.200,-659.710,24.420
281,38757.975000,217.526,11.613,48.595,403.971,246.901,-33.034,-22.200,-472.710,68.420
282,38757.996000,243.175,13.633,32.564,403.947,245.808,-41.014,-87.200,-379.710,32.420
283,38758.37000,249.094,23.732,26.552,404.832,246.704,-39.989,-316.200,-237.710,30.420
284,38758.81000,274.744,35.850,45.589,404.812,242.195,-46.093,173.800,-208.710,-37.580
285,38758.117000,218.513,50.998,-18.536,403.917,246.366,-51.918,558.800,-158.710,-65.580
286,38758.157000,257.973,86.343,23.546,401.254,241.855,-58.031,106.800,-3.710,-81.580
287,38758.197000,297.434,-5.554,42.583,401.260,242.779,-56.015,-441.200,-148.710,-50.580
288,38758.217000,281.649,18.682,-43.585,399.507,251.486,-54.745,-208.200,-153.710,-132.580
289,38758.257000,239.229,32.821,-0.501,392.451,247.953,-56.869,-141.200,-157.710,-204.580
290,38758.297000,240.216,62.107,5.511,389.803,251.338,-59.746,-244.200,-183.710,-238.580
291,38758.337000,266.852,0.505,-39.577,387.152,255.564,-63.590,-197.200,-333.710,-107.580
292,38758.377000,257.973,16.663,-44.587,390.668,256.350,-66.532,191.800,-271.710,-132.580
293,38758.417000,251.067,49.988,-18.536,386.251,258.810,-71.431,241.800,-179.710,-135.580
294,38758.457000,240.216,59.077,-10.521,383.587,262.054,-79.278,286.800,-136.710,-96.580
295,38758.471000,242.189,53.018,10.521,381.817,266.280,-83.119,183.800,-229.710,-90.580
296,38758.520000,241.202,43.929,-19.538,383.554,266.028,-92.058,14.800,-415.710,-62.580
297,38758.556000,248.108,27.771,-5.511,377.354,266.554,-103.977,219.800,-640.710,-81.580
298,38758.595000,264.879,40.899,-10.521,374.654,254.789,-121.248,101.800,-879.710,-52.580
299,38758.637000,263.892,46.959,-38.575,369.300,254.109,-145.119,358.800,-997.710,-46.580
300,38758.677000,263.892,31.811,-35.569,362.217,264.097,-159.713,429.800,-1165.710,-26.580
301,38758.697000,283.622,22.722,-39.577,355.964,257.200,-188.753,253.800,-1453.710,53.420
302,38758.737000,341.827,10.604,-5.511,339.118,252.673,-225.695,108.800,-1881.710,34.420
303,38758.777000,505.588,7.574,48.595,316.099,243.774,-263.791,700.800,-2163.710,-113.580
304,38758.817000,371.422,86.343,-45.589,282.480,230.274,-311.007,690.800,-2595.710,-170.580
305,38758.859000,246.135,100.481,-80.658,270.055,219.872,-341.174,1291.800,-2170.710,-7.580
306,38758.891000,171.160,96.442,50.599,259.410,205.357,-363.525,673.800,-530.710,-229.580
307,38758.931000,154.389,16.663,91.679,276.202,223.991,-348.965,-751.200,743.290,-91.580
308,38758.951000,151.430,-8.584,-18.536,319.522,244.499,-299.504,-1427.200,1855.290,319.420
309,38758.991000,184.971,-15.653,-57.613,355.792,253.774,-248.444,-1512.200,2899.290,695.420
310,38759.31000,257.973,42.919,-136.767,400.982,252.086,-156.006,-889.200,3360.290,937.420
311,38759.79000,318.150,49.988,-216.924,425.919,243.581,-58.889,-1102.200,3512.290,867.420
312,38759.119000,310.258,68.166,-248.986,431.444,224.420,29.876,-1021.200,2942.290,878.420
313,38759.159000,298.420,124.718,-198.888,422.754,216.973,73.298,-1329.200,2262.290,554.420
314,38759.179000,147.484,129.767,-315.115,414.952,208.743,119.676,-1124.200,908.290,84.420
315,38759.219000,163.268,194.398,-503.483,414.921,209.301,108.772,552.800,-1074.710,-394.580
316,38759.259000,275.730,3.535,-69.636,413.982,219.068,86.247,-333.200,-1133.710,-472.580
317,38759.299000,366.489,-41.909,-72.642,415.690,218.534,67.368,-477.200,-955.710,-214.580
318,38759.339000,353.665,-33.830,-28.556,416.556,220.970,61.492,-478.200,-662.710,-98.580
319,38759.385000,284.609,47.968,-40.579,417.433,222.650,59.563,86.800,-309.710,-106.580
320,38759.420000,222.459,31.811,-66.630,416.537,221.641,54.563,-75.200,-15.710,42.420
321,38759.432000,259.946,29.791,-5.511,418.305,218.255,57.437,10.800,127.290,91.420
322,38759.472000,269.811,30.801,5.511,421.840,218.370,61.424,-65.200,116.290,108.420
323,38759.512000,223.445,47.968,-66.630,422.728,212.407,65.206,-344.200,202.290,261.420
324,38759.559000,229.364,26.761,-98.693,424.515,200.595,76.744,-313.200,496.290,406.420
325,38759.592000,270.798,-14.643,-81.659,423.695,195.166,99.404,-44.200,982.290,447.420
326,38759.641000,265.865,-28.781,-38.575,421.972,191.247,114.166,609.800,1601.290,255.420
327,38759.654000,257.973,8.584,-38.575,411.479,193.736,141.024,898.800,1497.290,181.420
328,38759.697000,243.175,86.343,-247.984,410.584,202.218,134.346,1306.800,338.290,-190.580
329,38759.739000,235.283,59.077,-169.832,417.510,224.279,86.427,2124.800,-1516.710,-477.580
330,38759.772000,274.744,21.712,-115.726,420.916,241.214,41.310,2058.800,-2008.710,-484.580
331,38759.817000,282.636,6.564,-138.771,426.897,248.851,-25.946,1523.800,-2170.710,-428.580
332,38759.859000,259.946,68.166,-101.699,417.884,252.864,-98.333,1272.800,-2186.710,-366.580
333,38759.897000,254.027,76.245,-97.691,407.136,251.110,-159.990,378.800,-2243.710,-275.580
334,38759.917000,245.148,53.018,-84.665,384.943,250.272,-219.668,251.800,-2015.710,-276.580
335,38759.957000,215.553,22.722,-52.603,366.352,239.026,-248.889,712.800,-1596.710,-236.580
336,38759.996000,198.782,29.791,-47.593,338.037,230.878,-290.950,694.800,-1118.710,-173.580
337,38760.37000,188.917,21.712,22.544,325.650,226.890,-308.993,153.800,-559.710,39.420
338,38760.79000,149.457,10.604,41.581,319.501,227.054,-303.049,-602.200,175.290,256.420
339,38760.112000,250.081,12.623,117.730,326.608,231.095,-283.036,-1318.200,1208.290,323.420
340,38760.132000,511.507,207.527,-19.538,345.218,243.406,-246.829,-1572.200,1245.290,276.420
341,38760.172000,292.501,-56.047,4.509,359.386,241.545,-221.026,684.800,1709.290,-369.580
342,38760.212000,330.975,40.899,-29.558,369.127,242.059,-203.104,811.800,1380.290,-211.580
343,38760.252000,307.299,30.801,-17.534,373.592,253.853,-184.833,-740.200,855.290,-202.580
344,38760.292000,279.676,39.890,-46.591,377.170,258.703,-166.791,-5.200,822.290,-57.580
345,38760.340000,261.919,19.692,-38.575,381.615,259.969,-152.834,-194.200,605.290,-30.580
346,38760.380000,230.351,45.949,-64.626,385.175,262.913,-140.811,-9.200,604.290,-14.580
347,38760.398000,214.566,62.107,-36.571,390.501,263.311,-126.879,-0.200,686.290,23.420
348,38760.441000,225.418,42.919,-30.560,389.645,259.252,-117.083,-255.200,600.290,47.420
349,38760.476000,258.960,31.811,-25.550,391.441,263.904,-106.004,-198.200,552.290,24.420
350,38760.516000,246.135,41.909,4.509,395.877,259.905,-94.203,-338.200,465.290,44.420
351,38760.556000,259.946,54.028,-1.503,398.554,260.245,-82.268,-95.200,314.290,70.420
352,38760.596000,241.202,65.136,-13.526,397.680,262.036,-80.227,-190.200,232.290,130.420
353,38760.659000,252.054,41.909,-12.524,402.976,256.973,-75.409,-213.200,300.290,183.420
354,38760.666000,252.054,27.771,-20.540,403.016,258.235,-61.466,-148.200,402.290,176.420
355,38760.702000,258.960,60.087,7.515,407.444,255.020,-52.619,-244.200,427.290,270.420
356,38760.739000,271.784,12.623,-18.536,413.628,248.306,-44.873,-228.200,423.290,340.420
357,38760.779000,287.568,-27.771,-50.599,416.312,241.815,-29.188,194.800,756.290,246.420
358,38760.817000,273.757,22.722,-65.628,420.757,243.080,-15.230,340.800,896.290,158.420
359,38760.854000,274.744,109.570,-114.724,417.264,243.387,-4.309,-209.200,511.290,88.420
360,38760.874000,256.000,9.594,-179.851,414.590,246.520,-16.132,422.800,-618.710,-103.580
361,38760.914000,258.960,23.732,-154.802,411.871,243.181,-42.066,1630.800,-1192.710,-140.580
362,38760.956000,210.620,5.554,-123.742,400.305,241.178,-81.888,727.800,-1670.710,-58.580
363,38760.999000,201.742,30.801,-106.708,388.746,238.392,-118.756,-51.200,-1903.710,123.420
364,38761.38000,196.809,45.949,-98.693,377.192,234.793,-153.665,3.800,-1917.710,75.420
365,38761.80000,181.025,41.909,-73.644,365.677,234.165,-175.568,347.800,-1812.710,-74.580
366,38761.114000,217.526,45.949,-31.562,354.141,235.916,-205.338,733.800,-1368.710,-185.580
367,38761.134000,259.946,45.949,22.544,348.770,231.623,-234.291,916.800,-904.710,-285.580
368,38761.174000,281.649,30.801,-9.519,348.716,219.889,-250.560,1072.800,-411.710,-216.580
369,38761.213000,338.867,99.471,65.628,347.791,213.418,-264.674,438.800,74.290,40.420
370,38761.254000,389.179,58.067,146.787,361.012,214.352,-262.616,74.800,522.290,272.420
371,38761.296000,365.503,127.748,1.503,375.161,214.897,-243.686,-653.200,586.290,108.420
372,38761.336000,306.312,-53.018,8.517,376.040,207.982,-242.915,680.800,125.290,16.420
373,38761.357000,317.164,9.594,-6.513,367.195,205.901,-254.926,85.800,-558.710,-71.580
374,38761.395000,322.096,56.047,-20.540,353.959,210.846,-263.745,607.800,-1047.710,-99.580
375,38761.435000,307.299,66.146,-18.536,335.383,196.297,-287.116,522.800,-1124.710,-85.580
376,38761.475000,251.067,76.245,66.630,324.793,197.828,-294.051,23.800,-505.710,-121.580
377,38761.517000,236.270,37.870,65.628,322.206,212.165,-277.706,-837.200,513.290,12.420
378,38761.557000,227.391,55.037,10.521,331.062,213.490,-261.747,-1094.200,1131.290,155.420
379,38761.597000,225.418,48.978,-25.550,347.045,227.676,-220.523,-1291.200,1563.290,206.420
380,38761.617000,228.378,41.909,-39.577,365.674,237.581,-177.443,-1324.200,1866.290,273.420
381,38761.665000,240.216,26.761,-42.583,384.314,244.155,-129.506,-1229.200,1997.290,304.420
382,38761.695000,230.351,30.801,-90.677,396.734,238.989,-97.858,-927.200,2132.290,335.420
383,38761.735000,262.906,32.821,-76.650,410.089,234.359,-47.323,-493.200,2141.290,349.420
384,38761.776000,271.784,36.860,-103.703,423.431,235.636,-2.555,-295.200,1996.290,286.420
385,38761.817000,253.040,62.107,-174.841,426.156,232.143,27.131,-98.200,1223.290,59.420
386,38761.857000,232.324,35.850,-156.806,428.777,229.344,20.097,902.800,-7.710,-254.580
387,38761.880000,196.809,78.264,-230.951,426.094,240.147,3.558,695.800,-915.710,-284.580
388,38761.920000,355.638,133.807,43.585,429.586,238.972,-7.392,-1990.200,-938.710,-293.580
389,38761.961000,282.636,-109.570,-52.603,428.691,246.586,-14.098,-1436.200,-1104.710,-256.580
390,38762.0,325.056,-85.333,-50.599,425.123,251.313,-30.837,338.800,-791.710,-281.580
391,38762.45000,261.919,32.821,-57.613,418.051,252.790,-39.749,50.800,-462.710,-313.580
392,38762.81000,250.081,35.850,-23.546,415.381,261.998,-51.374,269.800,-272.710,-220.580
393,38762.101000,264.879,37.870,-22.544,411.838,259.223,-57.434,283.800,-217.710,-156.580
394,38762.141000,253.040,47.968,-18.536,411.823,262.525,-63.285,363.800,-111.710,-112.580
395,38762.181000,242.189,39.890,-8.517,410.055,268.488,-67.069,421.800,-48.710,-66.580
396,38762.221000,237.256,61.097,-9.519,410.028,267.366,-76.042,613.800,-91.710,-47.580
397,38762.261000,242.189,53.018,1.503,414.408,263.672,-84.092,304.800,-230.710,19.420
398,38762.295000,249.094,44.939,-6.513,411.735,261.652,-94.096,375.800,-287.710,36.420
399,38762.335000,247.121,49.988,6.513,409.049,256.048,-108.188,384.800,-404.710,71.420
400,38762.355000,260.933,43.929,30.560,407.248,249.633,-120.318,201.800,-832.710,97.420
401,38762.395000,268.825,31.811,29.558,403.650,244.586,-145.318,187.800,-1317.710,85.420
402,38762.437000,276.717,25.751,13.526,392.965,240.008,-184.228,246.800,-1793.710,101.420
403,38762.480000,369.449,28.781,-3.507,377.886,242.427,-220.938,-165.200,-2284.710,0.420
404,38762.516000,511.507,-7.574,117.730,358.427,243.360,-248.774,514.800,-2359.710,-283.580
405,38762.556000,376.355,90.383,-82.661,328.332,234.174,-296.832,902.800,-2630.710,-86.580
406,38762.576000,305.326,104.521,-102.701,306.197,220.992,-333.078,1279.800,-1629.710,-173.580
407,38762.616000,143.538,77.254,47.593,304.446,224.547,-329.990,279.800,-179.710,-175.580
408,38762.656000,127.753,39.890,56.611,319.501,235.678,-304.755,-1246.200,1450.290,5.420
409,38762.696000,124.794,-21.712,2.505,352.282,253.912,-243.486,-1305.200,2554.290,245.420
410,38762.736000,212.593,15.653,-128.751,387.780,265.125,-154.633,-1058.200,3475.290,601.420
411,38762.775000,218.513,91.393,-144.783,409.233,260.455,-44.493,-2288.200,3849.290,669.420
412,38762.815000,344.786,64.126,-206.904,410.400,243.477,60.217,-2036.200,3612.290,920.420
413,38762.835000,340.840,84.323,-280.047,403.461,233.343,100.578,-50.200,2905.290,971.420
414,38762.876000,205.688,41.909,-252.994,393.856,227.293,132.127,-5.200,1128.290,6.420
415,38762.916000,133.672,95.432,-447.374,391.200,231.462,126.296,62.800,-609.710,-537.580
416,38762.958000,250.081,132.797,51.601,397.290,235.018,98.627,-202.200,-1635.710,-360.580
417,38762.996000,391.152,-43.929,-56.611,402.554,239.977,89.868,-470.200,-1315.710,-295.580
418,38763.36000,261.919,0.505,-95.687,405.150,245.547,72.183,-436.200,-930.710,-234.580
419,38763.56000,300.393,31.811,-49.597,403.366,238.433,65.988,-167.200,-393.710,-153.580
420,38763.97000,306.312,30.801,-9.519,405.138,244.567,68.179,5.800,77.290,60.420
421,38763.139000,265.865,-2.525,-31.562,405.139,238.547,69.970,-168.200,241.290,78.420
422,38763.179000,237.256,49.988,-26.552,401.637,237.034,77.853,82.800,430.290,137.420
423,38763.221000,236.270,100.481,-71.640,407.853,231.498,96.560,-676.200,669.290,534.420
424,38763.259000,248.108,-32.821,-61.620,407.037,215.765,122.858,-448.200,1148.290,556.420
425,38763.302000,289.541,-139.866,-26.552,400.925,205.965,144.366,559.800,1466.290,317.420
426,38763.322000,221.472,47.968,-155.804,394.786,216.573,151.642,1175.800,977.290,155.420
427,38763.362000,238.243,207.527,-305.096,396.515,221.416,138.895,185.800,-587.710,-38.580
428,38763.397000,236.270,47.968,-181.855,405.239,224.890,108.253,1346.800,-1586.710,-246.580
429,38763.442000,259.946,10.604,-124.744,411.235,238.715,45.170,1908.800,-1955.710,-405.580
430,38763.482000,281.649,34.840,-117.730,418.160,240.085,1.545,2504.800,-2063.710,-400.580
431,38763.521000,312.231,111.590,-116.728,414.418,246.537,-76.704,1191.800,-2421.710,-480.580
432,38763.556000,262.906,34.840,-93.683,402.772,248.925,-145.180,778.800,-2520.710,-436.580
433,38763.577000,244.162,33.830,-83.663,380.535,242.485,-218.942,1383.800,-2306.710,-362.580
434,38763.625000,189.904,17.673,-89.675,362.783,226.505,-262.216,1254.800,-1822.710,-195.580
435,38763.657000,181.025,59.077,-38.575,333.593,219.281,-302.263,-48.200,-1500.710,-73.580
436,38763.705000,150.443,17.673,24.548,313.280,226.515,-321.954,-784.200,-1009.710,205.420
437,38763.737000,182.012,79.274,-73.644,308.865,223.823,-325.034,-494.200,48.290,548.420
438,38763.777000,279.676,121.688,204.900,322.184,231.763,-289.979,-1706.200,1064.290,589.420
439,38763.797000,367.476,275.187,-250.990,336.353,248.016,-267.560,-2209.200,1240.290,477.420
440,38763.837000,372.408,-52.008,26.552,353.140,245.932,-249.700,1831.800,1734.290,-297.580
441,38763.877000,346.759,-50.998,-73.644,361.108,241.152,-234.935,525.800,1282.290,-196.580
442,38763.917000,309.272,74.225,-44.587,368.223,248.721,-212.821,-646.200,818.290,-95.580
443,38763.957000,257.973,72.205,-77.652,373.529,245.478,-204.965,115.800,820.290,-8.580
444,38763.997000,192.863,-0.505,-127.750,381.516,244.339,-184.124,-155.200,1033.290,60.420
445,38764.44000,236.270,56.047,-56.611,385.979,242.330,-163.322,-172.200,1076.290,142.420
446,38764.59000,245.148,49.988,-5.511,399.256,243.827,-141.385,-39.200,933.290,123.420
447,38764.100000,241.202,34.840,-21.542,400.170,246.742,-130.365,-183.200,742.290,126.420
448,38764.140000,261.919,59.077,-3.507,405.509,249.857,-112.373,-570.200,455.290,187.420
449,38764.182000,255.013,-5.554,-16.532,408.174,244.904,-103.588,-202.200,325.290,187.420
450,38764.216000,260.933,63.116,-13.526,413.487,243.454,-93.688,-473.200,303.290,198.420
451,38764.265000,235.283,48.978,-26.552,417.912,237.634,-84.926,-236.200,474.290,268.420
452,38764.277000,297.434,-25.751,-19.538,421.461,233.579,-75.116,-54.200,545.290,189.420
453,38764.317000,274.744,0.505,-19.538,425.012,227.815,-64.369,40.800,374.290,177.420
454,38764.359000,294.474,5.554,-44.587,426.798,222.022,-54.621,345.800,467.290,243.420
455,38764.402000,214.566,13.633,-3.507,432.123,225.864,-41.570,366.800,780.290,261.420
456,38764.442000,245.148,62.107,37.573,434.784,223.459,-34.689,366.800,851.290,214.420
457,38764.482000,270.798,-35.850,39.577,433.931,219.428,-23.900,112.800,516.290,139.420
458,38764.524000,264.879,-6.564,-5.511,435.719,220.551,-14.921,766.800,549.290,11.420
459,38764.543000,249.094,22.722,-66.630,433.950,218.758,-16.970,539.800,212.290,-2.580
460,38764.583000,255.013,91.393,-106.708,435.687,219.373,-25.882,-33.200,-499.710,-76.580
461,38764.623000,255.013,29.791,-53.605,432.126,221.581,-39.723,-212.200,-856.710,-60.580
462,38764.657000,237.256,24.742,5.511,425.021,220.144,-59.653,68.800,-900.710,-119.580
463,38764.697000,270.798,26.761,56.611,419.680,222.181,-79.463,31.800,-828.710,-138.580
464,38764.744000,285.595,32.821,74.646,409.951,219.204,-92.500,-3.200,-846.710,-183.580
465,38764.764000,236.270,0.505,143.781,409.035,217.997,-104.458,19.800,-566.710,-188.580
466,38764.797000,236.270,-7.574,139.773,405.512,226.618,-106.176,152.800,46.290,-153.580
467,38764.837000,217.526,-0.505,89.675,408.184,235.525,-97.934,78.800,321.290,-77.580
468,38764.877000,265.865,53.018,73.644,414.405,233.489,-78.120,-543.200,621.290,106.420
469,38764.917000,250.081,20.702,68.634,420.595,230.275,-69.268,-653.200,783.290,105.420
470,38764.959000,242.189,8.584,41.581,423.307,232.689,-45.349,-188.200,957.290,-30.580
471,38765.2000,322.096,50.998,-0.501,426.887,235.831,-26.369,18.800,715.290,-99.580
472,38765.21000,251.067,-0.505,-26.552,426.904,236.000,-20.405,379.800,335.290,-137.580
473,38765.62000,194.836,21.712,-94.685,426.017,238.519,-23.306,731.800,69.290,-215.580
474,38765.97000,152.416,19.692,-137.769,426.865,239.917,-35.173,261.800,-280.710,-154.580
475,38765.137000,205.688,43.929,-3.507,424.195,242.238,-45.036,31.800,-417.710,-108.580
476,38765.177000,390.166,-40.899,-30.560,425.029,242.628,-61.902,-92.200,-873.710,-41.580
477,38765.223000,271.784,2.525,-44.587,420.598,242.371,-70.861,341.800,-617.710,-178.580
478,38765.242000,216.540,105.531,-10.521,416.152,242.813,-85.756,480.800,-437.710,-174.580
479,38765.283000,280.663,27.771,-22.544,414.374,252.134,-93.403,-361.200,-326.710,-66.580
480,38765.323000,258.960,18.682,-8.517,412.596,253.700,-99.316,-103.200,-323.710,-39.580
481,38765.363000,256.987,32.821,-14.528,408.177,249.244,-103.447,-22.200,-285.710,-66.580
482,38765.405000,237.256,75.235,-25.550,413.458,257.815,-107.124,-118.200,-219.710,-79.580
483,38765.439000,249.094,22.722,-25.550,412.569,258.598,-110.080,144.800,-222.710,-28.580
484,38765.487000,248.108,41.909,-22.544,408.154,255.907,-113.161,159.800,-231.710,2.420
485,38765.501000,245.148,39.890,-31.562,410.762,255.570,-125.079,135.800,-218.710,15.420
486,38765.541000,257.973,39.890,-30.560,408.111,247.728,-126.335,233.800,-188.710,32.420
487,38765.581000,235.283,40.899,-15.530,408.088,239.747,-132.552,312.800,-230.710,49.420
488,38765.621000,236.270,53.018,33.566,405.413,242.011,-144.403,217.800,-621.710,119.420
489,38765.660000,262.906,60.087,26.552,401.813,238.672,-170.341,218.800,-1127.710,225.420
490,38765.701000,280.663,34.840,11.523,399.116,233.824,-188.381,189.800,-1603.710,258.420
491,38765.721000,336.894,-13.633,-7.515,384.014,223.950,-230.455,404.800,-2110.710,175.420
492,38765.780000,439.491,-9.594,4.509,360.115,222.806,-270.288,130.800,-2307.710,12.420
493,38765.805000,402.004,123.708,49.597,330.913,215.469,-314.312,568.800,-2589.710,-33.580
494,38765.845000,295.461,124.718,-158.810,308.812,209.513,-340.393,209.800,-2382.710,239.420
495,38765.885000,215.553,91.393,-23.546,291.143,210.729,-358.284,422.800,-1108.710,8.420
496,38765.925000,140.578,69.176,46.591,297.334,212.694,-350.257,-214.200,261.290,79.420
497,38765.965000,109.010,2.525,14.528,328.324,230.646,-298.933,-1271.200,1735.290,241.420
498,38765.985000,141.565,39.890,-74.646,363.787,252.720,-224.621,-1848.200,2478.290,418.420
499,38766.19000,235.283,-10.604,-83.663,383.359,262.377,-159.701,-2458.200,2995.290,739.420
500,38766.60000,300.393,32.821,-196.885,408.292,256.419,-64.487,-1049.200,3361.290,1007.420
501,38766.100000,316.177,58.067,-207.906,419.074,238.688,13.418,-657.200,3090.290,1038.420
502,38766.140000,315.191,100.481,-201.894,416.611,215.486,82.167,-1249.200,2639.290,748.420
503,38766.180000,270.798,34.840,-179.851,408.758,214.504,108.921,-208.200,1584.290,179.420
504,38766.200000,177.079,123.708,-376.235,402.609,222.425,113.130,447.800,-50.710,-441.580
505,38766.244000,244.162,49.988,-9.519,404.317,230.514,92.545,-612.200,-1498.710,-480.580
506,38766.285000,308.285,-43.929,-111.718,406.931,232.810,81.705,-540.200,-896.710,-204.580
507,38766.325000,279.676,-66.146,-61.620,404.283,234.488,79.765,-587.200,-580.710,-219.580
508,38766.371000,352.678,-2.525,30.560,408.659,232.474,69.784,181.800,-283.710,-175.580
509,38766.399000,276.717,60.087,-17.534,405.123,235.802,64.916,140.800,-190.710,-99.580
510,38766.439000,197.796,62.107,-66.630,406.887,234.964,65.887,-294.200,62.290,55.420
511,38766.466000,235.283,25.751,-55.609,406.036,232.669,76.733,-155.200,430.290,270.420
512,38766.499000,291.514,-57.057,-78.654,411.348,230.350,86.604,199.800,886.290,297.420
513,38766.539000,330.975,-19.692,10.521,403.466,229.088,103.419,850.800,1283.290,258.420
514,38766.580000,182.012,27.771,-71.640,399.100,232.054,116.410,1191.800,1361.290,211.420
515,38766.618000,188.917,94.422,-202.896,400.008,234.045,125.415,299.800,484.290,232.420
516,38766.662000,212.593,121.688,-267.022,397.317,225.808,110.244,262.800,-964.710,-49.580
517,38766.705000,241.202,1.515,-170.834,411.305,229.060,71.668,574.800,-1957.710,-141.580
518,38766.725000,296.447,60.087,-186.865,414.666,234.345,13.263,801.800,-2320.710,-373.580
519,38766.758000,287.568,58.067,-182.857,412.749,243.154,-43.057,113.800,-2625.710,-593.580
520,38766.800000,274.744,56.047,-133.761,408.229,259.243,-87.234,342.800,-2714.710,-757.580
521,38766.840000,232.324,19.692,-95.687,391.298,265.071,-156.609,1045.800,-2379.710,-682.580
522,38766.882000,224.432,22.722,-73.644,371.722,261.405,-224.314,1336.800,-1963.710,-420.580
523,38766.926000,196.809,6.564,-37.573,345.153,249.646,-271.451,549.800,-1432.710,-59.580
524,38766.946000,202.728,67.156,1.503,330.966,237.535,-300.686,158.800,-949.710,104.420
525,38766.986000,130.713,52.008,49.597,326.557,234.900,-301.779,-493.200,-88.710,258.420
526,38767.20000,245.148,177.231,-194.881,347.783,244.356,-274.594,-847.200,2197.290,161.420
527,38767.66000,511.507,68.166,111.718,365.489,247.818,-244.635,-467.200,1976.290,119.420
528,38767.106000,337.881,9.594,-8.517,380.544,250.325,-217.694,373.800,1749.290,-357.580
529,38767.150000,285.595,-48.978,-74.646,384.119,250.835,-199.793,-86.200,1326.290,-130.580
530,38767.185000,281.649,89.373,-56.611,395.651,255.943,-172.779,-555.200,1318.290,-55.580
531,38767.205000,232.324,14.643,-38.575,404.539,255.003,-144.977,135.800,1423.290,106.420
532,38767.242000,242.189,13.633,-31.562,412.538,254.845,-120.132,-14.200,1108.290,23.420
533,38767.282000,278.690,44.939,2.505,415.222,261.289,-107.005,-293.200,864.290,-15.580
534,38767.321000,243.175,44.939,1.503,417.031,264.345,-91.013,-47.200,629.290,-7.580
535,38767.365000,244.162,52.008,8.517,419.710,262.977,-78.140,-158.200,460.290,16.420
536,38767.405000,256.987,29.791,-18.536,417.968,258.861,-70.335,43.800,367.290,79.420
537,38767.424000,241.202,42.919,-12.524,421.509,248.701,-61.716,-169.200,386.290,88.420
538,38767.466000,245.148,45.949,-6.513,422.407,255.758,-57.512,-200.200,322.290,115.420
539,38767.506000,258.960,37.870,-13.526,423.305,252.484,-50.665,107.800,351.290,136.420
540,38767.546000,260.933,47.968,40.579,426.838,241.372,-45.056,-227.200,229.290,191.420
541,38767.585000,245.148,54.028,-19.538,431.287,247.845,-30.930,-411.200,244.290,227.420
542,38767.624000,271.784,-8.584,-30.560,429.548,244.625,-22.103,-275.200,529.290,279.420
543,38767.660000,301.380,-3.535,-33.566,434.880,242.504,-5.274,149.800,862.290,306.420
544,38767.680000,291.514,-14.643,-45.589,434.920,235.143,10.375,405.800,1017.290,335.420
545,38767.720000,263.892,144.915,-73.644,435.834,234.613,22.277,341.800,856.290,276.420
546,38767.761000,237.256,58.067,-263.014,438.478,225.152,24.957,-175.200,-344.710,-12.580
547,38767.801000,279.676,28.781,-261.010,433.075,226.569,-16.720,1756.800,-1423.710,-175.580
548,38767.841000,309.272,64.126,-220.932,418.808,234.332,-79.072,402.800,-2688.710,-312.580
549,38767.884000,298.420,10.604,-182.857,393.086,239.483,-141.546,84.800,-3102.710,-289.580
550,38767.903000,262.906,18.682,-159.812,364.783,239.204,-181.365,231.800,-3372.710,-265.580
551,38767.943000,251.067,32.821,-103.703,325.855,240.985,-240.018,833.800,-3189.710,-379.580
552,38767.986000,210.620,47.968,-14.528,288.691,228.125,-295.169,1044.800,-2635.710,-397.580
553,38768.25000,219.499,65.136,6.513,262.137,211.355,-335.518,1112.800,-1833.710,-391.580
554,38768.65000,199.769,108.560,-26.552,238.278,200.274,-358.793,535.800,-1052.710,-348.580
555,38768.106000,215.553,88.363,85.667,234.741,216.510,-367.214,150.800,-127.710,-238.580
556,38768.145000,216.540,66.146,5.511,240.023,215.618,-368.219,381.800,773.290,-147.580
557,38768.166000,208.647,68.166,-84.665,264.733,221.238,-354.056,-479.200,1602.290,-323.580
558,38768.206000,402.990,-83.314,-22.544,274.425,219.537,-353.087,658.800,749.290,-299.580
559,38768.246000,333.935,43.929,-25.550,281.459,208.202,-355.418,607.800,681.290,-98.580
560,38768.286000,386.220,44.939,-31.562,288.540,218.877,-346.112,-390.200,378.290,45.420
561,38768.336000,394.112,26.761,-41.581,290.301,214.566,-345.254,526.800,261.290,51.420
562,38768.367000,411.869,-15.653,45.589,291.168,206.670,-348.486,192.800,-219.710,90.420
563,38768.387000,357.611,42.919,20.540,283.220,203.892,-354.560,665.800,-830.710,-213.580
564,38768.425000,319.137,79.274,-88.673,260.253,192.056,-373.884,682.800,-1438.710,-249.580
565,38768.467000,243.175,83.314,-94.685,232.896,173.470,-386.491,449.800,-1578.710,130.420
566,38768.507000,197.796,138.856,36.571,219.667,175.895,-392.412,-419.200,-595.710,313.420
567,38768.547000,135.645,17.673,78.654,232.958,188.733,-368.122,-1354.200,510.290,600.420
568,38768.587000,157.349,64.126,-7.515,258.578,198.079,-344.897,-1355.200,1970.290,803.420
569,38768.626000,186.944,81.294,-28.556,304.550,215.230,-291.565,-2097.200,2718.290,825.420
570,38768.651000,265.865,72.205,-53.605,350.571,234.595,-221.280,-2703.200,3223.290,980.420
571,38768.686000,336.894,102.501,-90.677,393.129,236.462,-125.756,-2264.200,3675.290,1048.420
572,38768.721000,357.611,70.185,-152.798,414.439,233.827,-66.193,-1484.200,3578.290,907.420
573,38768.770000,329.002,77.254,-184.861,434.013,223.689,4.043,430.800,3185.290,470.420
574,38768.806000,269.811,66.146,-200.892,433.245,230.835,42.006,2360.800,2238.290,-505.580
575,38768.850000,221.472,35.850,-251.992,428.855,246.484,43.492,2166.800,766.290,-535.580
576,38768.862000,188.917,-0.505,-292.070,432.354,252.281,33.762,-72.200,-847.710,-288.580
577,38768.902000,380.301,-0.505,129.753,434.089,252.868,23.857,-1967.200,-1173.710,-236.580
578,38768.942000,240.216,16.663,-48.595,435.790,254.854,2.081,257.800,-1281.710,-288.580
579,38768.982000,291.514,66.146,-45.589,435.743,259.555,-15.641,250.800,-762.710,-223.580
580,38769.23000,266.852,42.919,-39.577,433.951,260.980,-26.523,-2.200,-436.710,-143.580
581,38769.65000,287.568,0.505,-21.542,429.530,259.100,-31.563,248.800,-269.710,-103.580
582,38769.105000,251.067,67.156,-3.507,427.747,260.609,-39.464,491.800,-170.710,-66.580
583,38769.126000,243.175,60.087,25.550,430.368,261.254,-47.379,371.800,-125.710,16.420
584,38769.165000,231.337,66.146,33.566,432.990,256.747,-53.474,294.800,-147.710,16.420
585,38769.209000,222.459,64.126,23.546,432.098,256.633,-57.453,142.800,-200.710,-42.580
586,38769.241000,234.297,62.107,14.528,430.322,260.803,-63.281,-25.200,-374.710,-46.580
587,38769.281000,261.919,38.880,36.571,430.301,262.314,-71.176,-357.200,-679.710,-12.580
588,38769.321000,253.040,20.702,-12.524,427.607,258.361,-88.194,-292.200,-983.710,-26.580
589,38769.361000,242.189,76.245,-11.523,424.050,258.888,-100.104,-50.200,-1011.710,24.420
590,38769.381000,254.027,53.018,0.501,422.232,259.192,-119.960,-271.200,-1075.710,76.420
591,38769.428000,264.879,24.742,15.530,415.969,252.210,-151.982,654.800,-1517.710,75.420
592,38769.468000,305.326,50.998,-21.542,408.804,249.314,-192.812,451.800,-1953.710,35.420
593,38769.512000,383.260,26.761,-15.530,383.995,244.444,-241.706,646.800,-2341.710,-25.580
594,38769.547000,511.507,-7.574,97.691,364.525,241.820,-272.636,474.800,-2664.710,-201.580
595,38769.587000,402.004,56.047,67.632,329.140,229.998,-321.790,1613.800,-2589.710,-69.580
596,38769.607000,210.620,117.649,-45.589,299.106,223.140,-348.919,848.800,-1753.710,-252.580
597,38769.647000,153.403,59.077,119.734,306.193,223.539,-334.982,-101.200,515.290,-227.580
598,38769.687000,138.605,11.613,49.597,318.634,239.262,-300.670,-1425.200,1844.290,-63.580
599,38769.729000,227.391,-20.702,-50.599,352.359,270.184,-220.119,-1812.200,2852.290,235.420
600,38769.768000,277.703,47.968,-124.744,383.450,270.166,-129.658,-1399.200,3491.290,795.420
601,38769.807000,314.204,44.939,-178.849,399.554,257.117,-39.668,-1145.200,3572.290,955.420
602,38769.847000,329.988,122.698,-247.984,404.121,255.281,17.881,-1311.200,3151.290,888.420
603,38769.867000,223.445,102.501,-345.174,402.505,234.318,73.796,-1234.200,1649.290,631.420
604,38769.907000,167.214,95.432,-321.127,400.801,228.860,95.459,-983.200,142.290,-59.580
605,38769.947000,238.243,1.515,12.524,399.864,230.032,75.634,-69.200,-1397.710,-467.580
606,38769.986000,129.726,56.047,-110.716,403.354,245.208,60.250,-538.200,-1239.710,-291.580
607,38770.29000,271.784,33.830,-53.605,402.439,241.426,49.202,-474.200,-1036.710,-259.580
608,38770.68000,293.487,-0.505,-62.622,404.155,247.864,31.542,123.800,-706.710,-193.580
609,38770.82000,309.272,-9.594,-69.636,402.378,254.609,24.804,-201.200,-430.710,56.420
610,38770.140000,260.933,71.195,-56.611,401.506,243.494,30.399,-325.200,-172.710,143.420
611,38770.165000,236.270,68.166,-54.607,400.617,239.965,28.296,-39.200,161.290,159.420
612,38770.207000,222.459,50.998,-66.630,404.166,239.353,37.224,-109.200,319.290,240.420
613,38770.248000,244.162,12.623,-84.665,408.585,232.609,43.970,77.800,521.290,276.420
614,38770.288000,260.933,32.821,-94.685,408.633,224.464,62.573,206.800,994.290,316.420
615,38770.328000,224.432,13.633,-96.689,406.022,225.640,73.526,283.800,1383.290,295.420
616,38770.348000,216.540,17.673,-85.667,401.687,220.294,99.156,577.800,1511.290,251.420
617,38770.388000,220.486,83.314,-244.978,400.833,218.839,109.036,105.800,116.290,130.420
618,38770.426000,252.054,49.988,-158.810,405.155,229.224,77.611,469.800,-1395.710,-425.580
619,38770.464000,297.434,27.771,-193.879,408.561,237.536,34.200,2396.800,-2122.710,-534.580
620,38770.507000,293.487,16.663,-133.761,402.182,248.354,-42.923,1856.800,-2490.710,-746.580
621,38770.549000,265.865,67.156,-107.710,394.041,251.415,-118.317,1784.800,-2562.710,-555.580
622,38770.562000,265.865,45.949,-75.648,378.000,250.441,-182.944,1108.800,-2455.710,-318.580
623,38770.607000,226.405,21.712,-31.562,359.341,237.651,-236.047,743.800,-1864.710,-72.580
624,38770.650000,197.796,37.870,-26.552,349.578,236.071,-260.955,466.800,-1237.710,49.420
625,38770.682000,172.146,54.028,120.736,341.589,226.850,-280.146,-244.200,-570.710,94.420
626,38770.730000,219.499,58.067,173.840,357.494,233.360,-264.989,-692.200,1104.290,366.420
627,38770.767000,245.148,187.329,-252.994,383.155,245.705,-227.766,-1012.200,1619.290,208.420
628,38770.803000,306.312,88.363,13.526,397.310,247.175,-206.820,477.800,1792.290,-104.580
629,38770.823000,320.123,12.623,-24.548,412.334,245.929,-189.931,679.800,1607.290,-279.580
630,38770.865000,312.231,14.643,-47.593,417.708,251.118,-159.956,-373.200,1175.290,-203.580
631,38770.906000,299.407,68.166,-13.526,427.451,256.812,-142.859,-110.200,996.290,-89.580
632,38770.948000,284.609,48.978,-7.515,429.256,254.660,-127.035,-130.200,775.290,-13.580
633,38770.988000,252.054,28.781,-39.577,429.287,254.969,-116.102,-242.200,627.290,-27.580
634,38771.30000,228.378,25.751,-57.613,434.622,260.632,-100.014,-12.200,657.290,-29.580
635,38771.70000,220.486,50.998,-36.571,436.426,260.188,-85.127,-97.200,682.290,6.420
636,38771.90000,238.243,38.880,-18.536,440.887,259.886,-65.263,-222.200,661.290,14.420
637,38771.130000,252.054,28.781,-7.515,440.029,263.555,-58.196,-212.200,500.290,48.420
638,38771.170000,267.838,46.959,17.534,438.288,262.043,-50.307,-280.200,315.290,54.420
639,38771.210000,256.000,42.919,-4.509,445.355,257.065,-42.502,-205.200,271.290,130.420
640,38771.250000,244.162,31.811,-16.532,446.265,254.772,-31.650,-139.200,343.290,196.420
641,38771.290000,268.825,27.771,-26.552,450.692,250.689,-22.832,-193.200,511.290,229.420
642,38771.310000,271.784,16.663,7.515,451.612,249.348,-8.970,-169.200,696.290,253.420
643,38771.350000,292.501,-16.663,4.509,456.945,244.651,8.768,139.800,851.290,285.420
644,38771.390000,298.420,-11.613,-8.517,454.330,232.863,21.286,467.800,873.290,306.420
645,38771.430000,226.405,66.146,-130.755,455.221,235.552,24.355,195.800,382.290,232.420
646,38771.470000,273.757,59.077,-184.861,456.944,236.027,10.474,-273.200,-1103.710,-133.580
647,38771.510000,296.447,40.899,-179.851,447.984,237.971,-43.113,1330.800,-1763.710,-231.580
648,38771.550000,265.865,45.949,-166.826,431.930,239.460,-112.625,1160.800,-2171.710,-426.580
649,38771.570000,221.472,9.594,-119.734,403.594,237.135,-163.434,262.800,-2338.710,-330.580
650,38771.610000,192.863,-21.712,-85.667,387.637,235.270,-198.300,333.800,-2208.710,-187.580
651,38771.650000,192.863,1.515,-81.659,359.315,226.198,-242.377,875.800,-1876.710,-125.580
652,38771.684000,204.701,37.870,-102.701,331.007,216.398,-281.512,825.800,-1538.710,-118.580
653,38771.723000,197.796,48.978,-97.691,308.045,211.507,-300.612,534.800,-1157.710,-108.580
654,38771.763000,190.890,42.919,-58.614,297.444,205.169,-309.788,10.800,-457.710,3.420
655,38771.784000,215.553,41.909,-80.658,294.824,213.148,-303.580,-372.200,178.290,91.420
656,38771.823000,235.283,-8.584,-52.603,302.791,216.124,-290.549,-601.200,573.290,261.420
657,38771.863000,315.191,5.554,147.789,322.262,218.748,-259.618,-908.200,1251.290,505.420
658,38771.904000,310.258,112.600,91.679,339.091,231.729,-230.347,-1451.200,1715.290,320.420
659,38771.944000,317.164,93.412,39.577,355.056,244.010,-195.142,263.800,1851.290,-227.580
660,38771.990000,312.231,-30.801,-38.575,369.212,238.592,-172.434,946.800,1681.290,-303.580
661,38772.31000,292.501,-28.781,-51.601,376.362,246.499,-138.393,-1063.200,1042.290,-268.580
662,38772.51000,243.175,87.353,41.581,378.153,259.718,-131.007,-119.200,589.290,-178.580
663,38772.91000,236.270,106.540,62.622,376.400,248.601,-125.415,-3.200,150.290,-101.580
664,38772.125000,243.175,40.899,-2.505,373.762,258.987,-126.080,102.800,-32.710,-43.580
665,38772.176000,261.919,43.929,-35.569,374.642,258.120,-126.105,-86.200,-81.710,-16.580
666,38772.207000,251.067,37.870,-31.562,375.510,258.848,-131.044,246.800,65.290,18.420
667,38772.247000,240.216,37.870,-9.519,375.516,255.460,-128.175,120.800,16.290,-22.580
668,38772.267000,255.013,25.751,-35.569,373.742,262.234,-133.918,73.800,-39.710,-15.580
669,38772.307000,247.121,45.949,-25.550,374.610,260.386,-137.948,474.800,-42.710,-1.580
670,38772.347000,247.121,42.919,-26.552,374.601,259.433,-140.958,169.800,-100.710,11.420
671,38772.387000,258.960,38.880,-41.581,373.697,248.008,-146.296,344.800,-87.710,13.420
672,38772.426000,256.987,43.929,-19.538,375.443,248.708,-152.226,557.800,-102.710,63.420
673,38772.466000,246.135,63.116,-10.521,374.526,241.454,-163.387,421.800,-235.710,80.420
674,38772.506000,256.987,69.176,-23.546,370.093,237.725,-172.459,77.800,-463.710,129.420
675,38772.526000,251.067,40.899,-36.571,366.528,232.148,-185.560,292.800,-564.710,169.420
676,38772.565000,240.216,53.018,-13.526,359.451,222.370,-193.844,175.800,-799.710,217.420
677,38772.605000,271.784,25.751,-6.513,351.452,215.640,-216.927,110.800,-1297.710,245.420
678,38772.653000,341.827,-8.584,14.528,333.735,205.178,-249.099,536.800,-1715.710,213.420
679,38772.686000,390.166,1.515,14.528,309.840,198.910,-286.120,288.800,-2111.710,81.420
680,38772.730000,444.424,17.673,13.526,293.015,192.005,-315.194,345.800,-2283.710,422.420
681,38772.747000,312.231,176.221,-112.720,258.559,188.419,-349.183,-593.200,-2380.710,398.420
682,38772.790000,188.917,78.264,6.513,234.753,206.291,-360.595,-808.200,-1630.710,32.420
683,38772.831000,126.767,34.840,124.744,236.523,213.265,-359.370,-353.200,413.290,-23.580
684,38772.870000,94.212,12.623,31.562,257.708,220.590,-346.156,-523.200,1731.290,-2.580
685,38772.906000,138.605,19.692,2.505,307.171,231.385,-302.948,-648.200,2830.290,72.420
686,38772.946000,230.351,4.544,-56.611,364.648,244.767,-229.842,-1697.200,3695.290,408.420
687,38772.986000,326.042,-23.732,-123.742,417.788,245.019,-130.364,-1336.200,4166.290,718.420
688,38773.6000,385.233,91.393,-229.949,449.801,236.800,-23.285,-857.200,4054.290,903.420
689,38773.46000,297.434,101.491,-293.072,455.249,234.098,34.238,-853.200,2656.290,478.420
690,38773.87000,212.593,58.067,-298.082,448.335,224.217,83.545,-407.200,1149.290,-30.580
691,38773.128000,182.012,73.215,-315.115,448.312,231.747,73.859,144.800,-1140.710,-282.580
692,38773.168000,290.528,90.383,163.820,450.917,229.647,60.891,-706.200,-866.710,-94.580
693,38773.209000,323.083,-62.107,-57.613,453.548,229.536,56.923,-1767.200,-1251.710,-250.580
694,38773.227000,264.879,35.850,-48.595,452.625,229.981,42.040,319.800,-746.710,-356.580
695,38773.268000,272.771,61.097,-71.640,450.836,242.634,29.536,-79.200,-596.710,-297.580
696,38773.309000,274.744,1.515,-21.542,448.173,242.434,22.570,-594.200,-498.710,-222.580
697,38773.350000,260.933,18.682,-14.528,449.050,251.870,18.907,97.800,-414.710,-246.580
698,38773.391000,243.175,58.067,-27.554,442.865,257.717,11.133,-117.200,-363.710,-201.580
699,38773.431000,243.175,41.909,-16.532,441.960,260.066,2.270,105.800,-173.710,-130.580
700,38773.471000,244.162,20.702,-1.503,442.833,264.294,-1.562,237.800,-214.710,-144.580
701,38773.492000,244.162,56.047,13.526,439.283,258.858,-9.694,92.800,-406.710,-112.580
702,38773.532000,247.121,38.880,-24.548,436.613,260.311,-19.585,166.800,-580.710,-84.580
703,38773.567000,262.906,47.968,-26.552,435.698,259.972,-31.515,94.800,-644.710,-5.580
704,38773.608000,255.013,40.899,-26.552,436.526,262.042,-50.312,176.800,-708.710,-26.580
705,38773.651000,257.973,44.939,-43.585,431.197,263.323,-66.176,72.800,-839.710,-10.580
706,38773.691000,254.027,30.801,-48.595,429.394,262.059,-80.124,307.800,-900.710,19.420
707,38773.710000,251.067,30.801,-52.603,426.688,259.702,-102.055,359.800,-989.710,20.420
708,38773.746000,248.108,56.047,-77.652,418.679,254.596,-129.057,548.800,-1161.710,-15.580
709,38773.786000,213.580,30.801,-115.726,408.009,247.582,-162.088,703.800,-1068.710,-161.580
710,38773.827000,211.607,29.791,-157.808,402.682,248.892,-176.957,988.800,-741.710,-218.580
711,38773.872000,221.472,26.761,-154.802,398.216,245.693,-197.928,1017.800,-444.710,-169.580
712,38773.906000,244.162,44.939,-135.765,392.887,240.955,-212.001,565.800,-413.710,-166.580
713,38773.946000,259.946,52.008,-123.742,384.038,237.110,-225.063,279.800,-471.710,-190.580
714,38773.967000,238.243,16.663,-104.704,375.232,245.756,-225.804,-485.200,-442.710,-146.580
715,38774.11000,218.513,-2.525,-95.687,369.948,251.800,-226.617,-320.200,-209.710,-106.580
716,38774.57000,195.823,1.515,-97.691,365.567,253.758,-218.624,-546.200,32.290,-79.580
717,38774.92000,156.362,-12.623,-98.693,370.891,262.752,-207.392,-184.200,440.290,110.420
718,38774.132000,130.713,57.057,-228.947,378.850,255.312,-194.699,190.800,578.290,181.420
719,38774.166000,165.241,59.077,-167.828,379.756,265.897,-188.395,-726.200,-23.710,-150.580
720,38774.206000,77.441,132.797,-226.943,378.011,272.953,-184.200,219.800,462.290,-390.580
721,38774.226000,175.106,88.363,-186.865,383.322,277.522,-176.090,332.800,814.290,-467.580
722,38774.267000,223.445,-4.544,-139.773,391.317,279.043,-153.177,-193.200,1041.290,-33.580
723,38774.306000,272.771,-9.594,-90.677,398.411,273.480,-135.461,-530.200,1300.290,171.420
724,38774.347000,294.474,60.087,-18.536,410.844,277.918,-101.515,-507.200,1226.290,121.420
725,38774.387000,281.649,46.959,-4.509,419.711,272.468,-79.818,-211.200,989.290,48.420
726,38774.430000,274.744,19.692,-35.569,423.287,273.846,-61.888,-238.200,661.290,63.420
727,38774.450000,263.892,31.811,-33.566,423.311,280.119,-54.733,-61.200,555.290,61.420
728,38774.492000,246.135,52.008,-30.560,425.096,276.902,-45.895,-18.200,450.290,72.420
729,38774.532000,238.243,46.959,-61.620,425.126,271.164,-34.165,-56.200,516.290,107.420
730,38774.572000,233.310,45.949,-32.564,427.812,268.145,-18.366,-183.200,598.290,162.420
731,38774.613000,250.081,60.087,9.519,429.614,277.164,-6.152,-10.200,584.290,146.420
732,38774.653000,258.960,70.185,7.515,434.897,265.940,-4.513,-238.200,408.290,180.420
733,38774.693000,237.256,49.988,-28.556,441.983,260.292,10.221,-150.200,426.290,206.420
734,38774.713000,250.081,36.860,-14.528,444.659,263.208,21.247,-226.200,499.290,249.420
735,38774.748000,295.461,20.702,7.515,447.337,257.528,34.973,-206.200,488.290,280.420
736,38774.787000,299.407,-13.633,-30.560,448.235,253.386,41.792,86.800,593.290,302.420
737,38774.827000,302.366,6.564,-59.616,446.503,247.646,53.517,149.800,491.290,202.420
738,38774.867000,271.784,150.974,-297.080,448.243,248.290,45.599,-482.200,-584.710,-126.580
739,38774.915000,242.189,29.791,-308.102,448.989,252.987,-2.903,357.800,-1728.710,-341.580
740,38774.928000,253.040,17.673,-245.980,441.783,260.896,-60.263,1754.800,-2474.710,-614.580
741,38774.971000,225.418,16.663,-191.875,417.737,260.023,-151.723,1868.800,-2848.710,-484.580
742,38775.12000,212.593,22.722,-179.851,378.722,245.420,-237.719,1334.800,-2888.710,-256.580
743,38775.52000,198.782,34.840,-175.843,330.944,229.554,-306.903,871.800,-2839.710,-69.580
744,38775.88000,170.173,17.673,-102.701,277.956,213.577,-349.297,915.800,-2453.710,-32.580
745,38775.128000,136.632,31.811,-26.552,254.105,198.268,-368.737,788.800,-1768.710,14.420
746,38775.168000,113.942,36.860,69.636,233.804,190.971,-380.955,121.800,-482.710,194.420
747,38775.197000,119.861,32.821,9.519,240.012,196.550,-367.845,-344.200,927.290,184.420
748,38775.237000,275.730,156.024,37.573,274.492,207.278,-326.674,-468.200,2185.290,237.420
749,38775.275000,511.507,-92.402,143.781,286.913,229.691,-301.082,-694.200,2052.290,-29.580
750,38775.316000,402.004,208.536,37.573,307.230,219.909,-279.489,914.800,1778.290,-405.580
751,38775.347000,298.420,-4.544,7.515,321.391,229.191,-258.289,-17.200,1168.290,-263.580
752,38775.387000,260.933,35.850,-117.730,324.960,233.088,-243.257,-92.200,800.290,-175.580
753,38775.407000,262.906,17.673,-113.722,329.411,238.722,-228.165,-503.200,902.290,-111.580
754,38775.448000,228.378,13.633,-70.638,339.140,236.519,-214.303,93.800,635.290,-55.580
755,38775.488000,263.892,64.126,-30.560,342.683,239.295,-208.244,-246.200,81.290,-31.580
756,38775.528000,287.568,15.653,-8.517,339.171,248.029,-205.986,-322.200,-187.710,-55.580
757,38775.568000,248.108,58.067,-69.636,333.864,246.092,-213.016,133.800,-257.710,-35.580
758,38775.608000,232.324,52.008,-113.722,337.391,246.123,-212.011,150.800,-41.710,-6.580
759,38775.647000,252.054,42.919,-69.636,332.980,245.195,-214.041,67.800,54.290,10.420
760,38775.667000,239.229,41.909,-74.646,336.489,241.613,-218.118,426.800,23.290,40.420
761,38775.708000,253.040,47.968,-75.648,337.357,235.453,-221.294,367.800,43.290,103.420
762,38775.748000,265.865,28.781,-53.605,339.985,225.822,-224.577,378.800,-16.710,95.420
763,38775.791000,265.865,66.146,-41.581,338.194,224.672,-234.550,411.800,-285.710,130.420
764,38775.830000,270.798,61.097,-70.638,336.413,221.897,-240.604,100.800,-440.710,182.420
765,38775.872000,276.717,18.682,-38.575,329.313,212.761,-256.811,203.800,-663.710,271.420
766,38775.911000,320.123,-1.515,10.521,318.703,209.784,-269.851,69.800,-1376.710,255.420
767,38775.930000,392.139,19.692,4.509,304.518,203.720,-299.883,97.800,-1726.710,133.420
768,38775.976000,404.963,133.807,45.589,277.106,187.175,-332.283,642.800,-1897.710,41.420
769,38776.20000,328.015,164.103,-67.632,248.799,173.932,-370.537,19.800,-2176.710,391.420
770,38776.51000,184.971,111.590,-138.771,227.626,178.787,-382.363,-364.200,-1617.710,33.420
771,38776.92000,165.241,76.245,94.685,228.495,186.430,-388.070,-529.200,-81.710,-114.580
772,38776.133000,72.509,-5.554,13.526,258.514,203.479,-368.554,-721.200,1613.290,-44.580
773,38776.155000,110.983,33.830,-37.573,307.991,225.615,-322.993,-1051.200,2619.290,-59.580
774,38776.195000,172.146,59.077,-66.630,367.269,256.611,-240.372,-2404.200,3573.290,159.420
775,38776.235000,280.663,-17.673,-123.742,399.174,259.390,-173.649,-1949.200,3883.290,632.420
776,38776.275000,404.963,32.821,-228.947,440.871,253.698,-69.436,118.800,3918.290,931.420
777,38776.313000,281.649,118.659,-332.149,453.420,243.780,8.729,-390.200,2257.290,237.420
778,38776.353000,213.580,29.791,-275.037,448.253,247.535,49.547,-464.200,986.290,-75.580
779,38776.393000,170.173,19.692,-407.296,446.495,259.629,47.947,281.800,-306.710,-174.580
780,38776.413000,327.029,110.580,11.523,445.563,256.546,30.964,-864.200,-1103.710,-247.580
781,38776.453000,301.380,-93.412,-92.681,442.016,252.006,23.854,-653.200,-1021.710,-52.580
782,38776.493000,277.703,10.604,-34.568,440.210,256.734,7.121,40.800,-632.710,-273.580
783,38776.533000,241.202,73.215,-34.568,434.024,260.844,-0.710,-77.200,-448.710,-259.580
784,38776.575000,260.933,34.840,-37.573,441.942,262.473,-4.603,-177.200,-368.710,-77.580
785,38776.616000,266.852,-0.505,-32.564,437.522,260.593,-9.643,-64.200,-324.710,-28.580
786,38776.628000,248.108,44.939,-7.515,434.872,269.998,-14.312,94.800,-361.710,-106.580
787,38776.668000,245.148,43.929,-0.501,433.070,268.735,-28.260,210.800,-453.710,-67.580
788,38776.715000,242.189,50.998,-38.575,432.155,264.952,-39.309,239.800,-559.710,-61.580
789,38776.750000,253.040,45.949,-39.577,429.481,268.952,-51.104,153.800,-620.710,-14.580
790,38776.792000,243.175,43.929,-48.595,431.197,267.635,-67.029,303.800,-625.710,-35.580
791,38776.843000,243.175,53.018,-54.607,425.850,264.436,-88.002,341.800,-640.710,9.420
792,38776.875000,217.526,37.870,-25.550,424.951,266.842,-94.878,647.800,-793.710,-1.580
793,38776.900000,229.364,50.998,-77.652,420.446,261.541,-128.826,861.800,-915.710,-84.580
794,38776.935000,278.690,88.363,-55.609,411.559,256.462,-154.837,1065.800,-1019.710,-158.580
795,38776.968000,260.933,50.998,-97.691,399.135,255.552,-186.682,1060.800,-953.710,-322.580
796,38777.8000,233.310,-12.623,-167.828,388.469,238.235,-216.075,1328.800,-583.710,-310.580
797,38777.55000,245.148,-10.604,-182.857,386.693,238.093,-221.051,287.800,-323.710,-84.580
798,38777.95000,249.094,-45.949,-146.787,383.161,235.430,-223.134,-472.200,-273.710,48.420
799,38777.115000,206.674,-7.574,-167.828,378.766,248.447,-222.726,-451.200,-228.710,152.420
800,38777.151000,193.850,8.584,-166.826,378.746,243.938,-228.830,-331.200,-349.710,269.420
801,38777.192000,191.877,9.594,-161.816,373.450,237.802,-231.032,-208.200,-553.710,238.420
802,38777.232000,185.958,20.702,-125.746,363.735,246.165,-241.715,-301.200,-639.710,145.420
803,38777.273000,176.092,36.860,-61.620,361.959,246.891,-246.662,-231.200,-307.710,160.420
804,38777.322000,143.538,14.643,-33.566,364.621,246.222,-239.724,-367.200,223.290,302.420
805,38777.350000,94.212,114.619,-286.059,374.345,244.831,-227.822,-593.200,588.290,207.420
806,38777.371000,81.387,64.126,-209.910,380.584,255.031,-204.633,-850.200,880.290,-137.580
807,38777.410000,257.973,85.333,-113.722,392.966,259.831,-188.549,616.800,1364.290,-401.580
808,38777.450000,339.854,75.235,-27.554,401.837,267.345,-168.417,292.800,1416.290,-277.580
809,38777.491000,279.676,-31.811,-91.679,409.849,272.479,-140.421,-490.200,1024.290,-148.580
810,38777.532000,285.595,56.047,-56.611,415.176,275.481,-126.405,-205.200,998.290,-26.580
811,38777.572000,262.906,40.899,-62.622,417.884,279.575,-104.418,-139.200,878.290,50.420
812,38777.615000,276.717,40.899,-24.548,424.094,277.426,-88.580,49.800,743.290,40.420
813,38777.635000,241.202,18.682,-48.595,425.873,269.841,-80.876,171.800,701.290,59.420
814,38777.676000,231.337,53.018,-48.595,428.547,273.596,-70.816,72.800,532.290,63.420
815,38777.716000,227.391,45.949,-28.556,430.325,272.031,-64.903,261.800,549.290,54.420
816,38777.756000,251.067,69.176,-6.513,433.870,273.966,-57.878,176.800,486.290,46.420
817,38777.796000,236.270,36.860,-10.521,433.881,273.211,-53.930,158.800,286.290,55.420
818,38777.836000,249.094,58.067,-12.524,433.007,264.671,-49.245,-27.200,195.290,84.420
819,38777.850000,252.054,70.185,-45.589,436.540,257.871,-44.490,-233.200,225.290,144.420
820,38777.890000,248.108,48.978,-55.609,441.868,253.985,-28.711,-133.200,708.290,213.420
821,38777.935000,275.730,9.594,-29.558,441.052,260.652,-7.644,-349.200,875.290,285.420
822,38777.972000,291.514,-33.830,-31.562,449.912,253.410,12.009,-106.200,964.290,283.420
823,38778.16000,274.744,-18.682,-44.587,449.068,252.907,24.899,451.800,997.290,248.420
824,38778.56000,270.798,120.679,-20.540,450.852,248.822,33.709,276.800,786.290,203.420
825,38778.96000,249.094,90.383,-305.096,456.123,247.817,28.728,-536.200,-163.710,148.420
826,38778.116000,264.879,-6.564,-248.986,453.319,247.946,-27.877,1266.800,-1827.710,-318.580
827,38778.156000,259.946,20.702,-194.881,443.472,242.078,-81.721,1131.800,-2489.710,-368.580
828,38778.196000,237.256,-2.525,-151.796,421.227,241.600,-159.261,693.800,-2814.710,-260.580
829,38778.236000,242.189,33.830,-126.748,390.173,229.049,-234.242,870.800,-2682.710,-133.580
830,38778.275000,211.607,38.880,-100.697,346.856,220.637,-285.296,648.800,-2444.710,-71.580
831,38778.312000,193.850,29.791,-51.601,323.868,210.312,-312.515,448.800,-1785.710,-56.580
832,38778.336000,194.836,38.880,-57.613,292.951,204.293,-340.614,336.800,-1234.710,-29.580
833,38778.371000,204.701,29.791,-8.517,271.779,199.684,-349.768,522.800,-643.710,-53.580
834,38778.411000,188.917,16.663,-34.568,269.121,190.918,-353.040,550.800,142.290,189.420
835,38778.451000,256.000,56.047,11.523,281.471,179.028,-344.449,333.800,737.290,399.420
836,38778.498000,236.270,101.491,5.511,295.636,185.762,-321.346,-1202.200,1351.290,255.420
837,38778.533000,329.988,-32.821,5.511,308.074,208.344,-289.791,-228.200,1416.290,-375.580
838,38778.585000,319.137,118.659,-13.526,323.959,203.458,-278.976,965.800,1372.290,-280.580
839,38778.592000,238.243,20.702,-12.524,330.172,205.649,-262.997,-185.200,935.290,-276.580
840,38778.636000,375.368,52.008,-7.515,331.075,197.251,-253.337,70.800,594.290,-196.580
841,38778.675000,310.258,-20.702,-48.595,337.253,205.124,-251.076,63.800,176.290,-124.580
842,38778.717000,232.324,85.333,-98.693,334.619,205.207,-248.102,68.800,-0.710,-51.580
843,38778.760000,242.189,57.057,-99.695,341.663,204.316,-249.102,301.800,271.290,80.420
844,38778.793000,232.324,7.574,-70.638,346.953,206.084,-248.034,247.800,194.290,92.420
845,38778.813000,264.879,33.830,-35.569,346.062,200.819,-250.194,165.800,-45.710,105.420
846,38778.853000,282.636,34.840,-24.548,344.279,194.573,-256.360,164.800,-503.710,180.420
847,38778.900000,296.447,-1.515,-48.595,335.421,189.775,-272.432,136.800,-828.710,194.420
848,38778.932000,298.420,-13.633,-44.587,323.927,179.881,-284.706,53.800,-1082.710,208.420
849,38778.972000,325.056,27.771,-26.552,313.301,178.470,-303.653,-209.200,-1316.710,249.420
850,38779.12000,345.773,61.097,2.505,292.969,171.732,-326.775,113.800,-1418.710,161.420
851,38779.52000,314.204,166.122,-63.624,272.620,168.268,-356.743,-198.200,-1841.710,422.420
852,38779.72000,240.216,108.560,-118.732,247.900,172.894,-376.532,-602.200,-1675.710,283.420
853,38779.112000,188.917,63.116,-59.616,237.303,171.765,-385.539,-304.200,-914.710,183.420
854,38779.153000,141.565,44.939,127.750,253.184,178.050,-378.333,-584.200,865.290,180.420
855,38779.197000,169.187,39.890,35.569,290.280,197.122,-348.799,-1282.200,1952.290,214.420
856,38779.237000,193.850,20.702,-23.546,348.620,219.799,-284.325,-1811.200,2827.290,273.420
857,38779.271000,299.407,52.008,-72.642,390.215,235.492,-221.124,-2224.200,3756.290,518.420
858,38779.292000,335.908,7.574,-147.789,438.133,251.030,-102.300,-2279.200,4085.290,636.420
859,38779.332000,393.125,38.880,-213.918,462.229,242.050,8.701,-446.200,3651.290,802.420
860,38779.371000,326.042,122.698,-288.063,452.707,241.129,68.220,954.800,2179.290,68.420
861,38779.416000,200.755,24.742,-298.082,441.299,247.591,82.295,542.800,507.290,-261.580
862,38779.457000,159.322,44.939,-224.939,435.115,254.306,74.549,505.800,-538.710,-371.580
863,38779.501000,351.692,115.629,75.648,435.975,249.797,68.448,-1110.200,-1027.710,-48.580
864,38779.537000,439.491,-34.840,-42.583,439.480,247.027,62.411,-1128.200,-1017.710,-185.580
865,38779.557000,266.852,-76.245,-51.601,437.652,252.397,37.755,449.800,-799.710,-323.580
866,38779.597000,249.094,118.659,-48.595,437.624,265.051,25.256,-235.200,-679.710,-311.580
867,38779.637000,255.013,50.998,-21.542,435.850,267.513,20.365,32.800,-422.710,-100.580
868,38779.676000,258.960,36.860,-33.566,432.303,270.729,11.521,123.800,-354.710,-45.580
869,38779.711000,243.175,30.801,-15.530,432.288,269.720,6.524,138.800,-287.710,-60.580
870,38779.752000,234.297,72.205,-2.505,428.742,266.048,-0.558,133.800,-292.710,-49.580
871,38779.793000,229.364,60.087,-7.515,428.717,266.663,-9.475,151.800,-340.710,-39.580
872,38779.815000,267.838,33.830,-21.542,431.338,267.307,-17.389,116.800,-532.710,10.420
873,38779.860000,252.054,36.860,-30.560,432.173,265.989,-33.317,132.800,-608.710,19.420
874,38779.892000,248.108,55.037,-28.556,430.373,261.310,-45.391,242.800,-657.710,24.420
875,38779.938000,248.108,41.909,-44.587,427.687,266.905,-62.099,258.800,-683.710,70.420
876,38779.977000,247.121,28.781,-41.581,424.995,266.424,-79.004,258.800,-761.710,67.420
877,38780.12000,251.067,11.613,-52.603,420.527,260.622,-100.059,362.800,-1050.710,109.420
878,38780.35000,279.676,20.702,-78.654,413.395,253.752,-128.109,369.800,-1109.710,82.420
879,38780.77000,258.960,62.107,-100.697,408.931,248.845,-148.142,503.800,-1165.710,-56.580
880,38780.117000,241.202,50.998,-135.765,399.172,244.718,-171.146,601.800,-738.710,-167.580
881,38780.157000,199.769,8.584,-122.740,392.069,245.886,-190.991,958.800,-199.710,-117.580
882,38780.197000,234.297,22.722,-164.822,392.054,244.877,-195.988,483.800,-101.710,-20.580
883,38780.237000,212.593,8.584,-175.843,385.878,240.476,-198.137,-437.200,-423.710,110.420
884,38780.277000,163.268,2.525,-150.795,384.984,248.958,-204.816,-137.200,-386.710,104.420
885,38780.297000,165.241,8.584,-158.810,378.780,240.832,-216.022,388.800,-313.710,-25.580
886,38780.336000,190.890,7.574,-162.818,373.436,230.773,-234.239,629.800,-524.710,-10.580
887,38780.377000,110.983,8.584,-95.687,375.189,234.134,-238.097,-108.200,-268.710,109.420
888,38780.416000,197.796,31.811,-91.679,380.497,233.495,-230.157,-322.200,276.290,161.420
889,38780.460000,201.742,113.609,-110.716,386.704,238.206,-217.075,-965.200,412.290,122.420
890,38780.492000,192.863,26.761,-134.763,391.168,245.688,-197.951,-744.200,548.290,59.420
891,38780.512000,194.836,57.057,-118.732,400.022,248.721,-182.929,35.800,737.290,-215.580
892,38780.562000,241.202,6.564,-140.775,404.455,249.006,-172.976,446.800,980.290,-267.580
893,38780.598000,296.447,53.018,-87.671,411.549,250.330,-157.022,51.800,1065.290,-188.580
894,38780.637000,248.108,20.702,-69.636,418.681,258.068,-128.945,-598.200,1027.290,-177.580
895,38780.678000,239.229,69.176,-76.650,421.410,267.538,-100.825,-315.200,1118.290,-88.580
896,38780.718000,236.270,49.988,-53.605,431.163,271.609,-79.809,-591.200,1081.290,86.420
897,38780.762000,306.312,-29.791,-19.538,433.864,269.598,-59.013,-426.200,756.290,62.420
898,38780.776000,265.865,46.959,14.528,436.555,270.079,-42.107,-352.200,421.290,10.420
899,38780.816000,240.216,37.870,-74.646,439.222,268.598,-33.210,-153.200,277.290,20.420
900,38780.857000,244.162,71.195,-51.601,435.715,260.141,-25.552,-127.200,539.290,50.420
901,38780.892000,240.216,63.116,-30.560,439.286,263.198,-9.553,-473.200,580.290,105.420
902,38780.932000,257.973,28.781,8.517,441.967,261.859,4.314,-311.200,503.290,110.420
903,38780.972000,250.081,63.116,4.509,445.512,256.039,13.073,-217.200,360.290,192.420
904,38780.992000,253.040,45.949,-16.532,445.537,255.424,21.990,-173.200,349.290,307.420
905,38781.40000,257.973,12.623,-50.599,453.493,253.976,31.899,-84.200,535.290,319.420
906,38781.80000,279.676,10.604,-27.554,452.660,246.698,50.527,32.800,907.290,322.420
907,38781.138000,315.191,4.544,-19.538,454.487,239.592,75.127,167.800,1179.290,369.420
908,38781.157000,270.798,27.771,-56.611,450.993,237.295,85.964,420.800,1006.290,224.420
909,38781.198000,251.067,99.471,-282.051,458.011,235.283,75.991,477.800,-758.710,-65.580
910,38781.235000,294.474,48.978,-242.975,460.507,243.311,22.638,675.800,-1999.710,-173.580
911,38781.256000,303.353,44.939,-214.920,460.274,248.757,-60.597,834.800,-2614.710,-386.580
912,38781.296000,270.798,15.653,-169.832,436.241,249.733,-148.026,1157.800,-2868.710,-487.580
913,38781.336000,211.607,1.515,-146.787,408.762,242.004,-205.958,1282.800,-2879.710,-346.580
914,38781.375000,186.944,-5.554,-100.697,365.377,226.028,-279.104,948.800,-2774.710,-92.580
915,38781.416000,187.931,-4.544,-68.634,322.047,207.144,-332.484,736.800,-2230.710,-16.580
916,38781.458000,199.769,17.673,-71.640,284.955,186.392,-360.087,827.800,-1524.710,-44.580
917,38781.478000,218.513,42.919,-62.622,272.570,181.564,-377.164,985.800,-636.710,-22.580
918,38781.518000,209.634,50.998,-37.573,259.337,166.714,-380.667,560.800,3.290,29.420
919,38781.560000,206.674,60.087,-9.519,263.756,166.858,-375.684,94.800,573.290,43.420
920,38781.600000,267.838,53.018,-5.511,283.207,171.020,-351.654,-463.200,1339.290,240.420
921,38781.641000,274.744,88.363,-236.963,302.705,195.456,-316.044,-1730.200,1601.290,86.420
922,38781.675000,357.611,7.574,-23.546,315.088,193.368,-298.199,-462.200,1377.290,52.420
923,38781.715000,277.703,22.722,8.517,327.466,189.516,-281.403,471.800,1175.290,-325.580
924,38781.735000,295.461,68.166,18.536,334.557,202.011,-269.059,-334.200,474.290,-209.580
925,38781.776000,352.678,11.613,-34.568,332.809,202.151,-264.095,-327.200,-55.710,-91.580
926,38781.818000,338.867,18.682,-87.671,329.272,210.631,-270.782,-22.200,-360.710,68.420
927,38781.858000,316.177,-1.515,-99.695,324.854,207.911,-274.857,-30.200,-351.710,146.420
928,38781.893000,272.771,9.594,-99.695,325.726,207.827,-277.835,-218.200,-354.710,184.420
929,38781.933000,246.135,27.771,-80.658,323.074,206.005,-280.882,-168.200,-326.710,213.420
930,38781.953000,241.202,57.057,-40.579,320.413,204.098,-286.910,67.800,-466.710,205.420
931,38781.995000,286.582,52.008,-12.524,316.826,192.276,-306.172,359.800,-783.710,116.420
932,38782.35000,313.218,21.712,-18.536,300.899,188.985,-330.162,715.800,-1252.710,-74.580
933,38782.75000,369.449,19.692,-18.536,279.655,166.424,-360.752,1130.800,-1552.710,97.420
934,38782.115000,276.717,101.491,-72.642,259.298,149.101,-390.176,875.800,-1671.710,256.420
935,38782.155000,137.618,67.156,-113.722,241.645,144.438,-401.307,235.800,-1080.710,-62.580
936,38782.197000,154.389,16.663,70.638,246.043,151.272,-405.043,-200.200,263.290,-265.580
937,38782.218000,131.699,27.771,-8.517,277.821,164.851,-385.634,-1054.200,1325.290,-235.580
938,38782.253000,153.403,4.544,-16.532,325.566,201.070,-332.670,-1874.200,2579.290,-83.580
939,38782.295000,217.526,4.544,-57.613,367.143,227.793,-278.048,-1986.200,3353.290,192.420
940,38782.337000,339.854,4.544,-116.728,424.723,244.765,-170.070,-1620.200,4091.290,578.420
941,38782.376000,368.462,50.998,-224.939,459.405,241.114,-54.890,-669.200,3914.290,674.420
942,38782.423000,328.015,68.166,-233.957,460.536,236.705,34.340,-548.200,2993.290,425.420
943,38782.461000,270.798,31.811,-259.006,452.713,230.854,72.851,-153.200,1467.290,42.420
944,38782.481000,178.066,29.791,-286.059,443.956,239.979,89.007,90.800,79.290,-123.580
945,38782.521000,302.366,123.708,-54.607,444.775,240.227,67.172,61.800,-1262.710,-203.580
946,38782.561000,273.757,11.613,-78.654,443.859,246.776,53.480,-590.200,-1135.710,-172.580
947,38782.601000,287.568,2.525,-19.538,444.686,241.930,35.451,-199.200,-938.710,-296.580
948,38782.641000,259.946,58.067,-56.611,436.749,253.907,29.857,-237.200,-641.710,-331.580
949,38782.681000,285.595,11.613,-24.548,440.253,258.025,22.058,-146.200,-459.710,-180.580
950,38782.695000,257.973,28.781,-45.589,432.300,262.077,12.234,149.800,-384.710,-180.580
951,38782.735000,259.946,27.771,-11.523,429.638,263.614,5.324,11.800,-317.710,-132.580
952,38782.777000,237.256,69.176,-32.564,431.386,260.031,1.241,200.800,-251.710,-85.580
953,38782.817000,226.405,60.087,-24.548,429.598,266.663,-9.472,150.800,-193.710,-62.580
954,38782.856000,249.094,42.919,-20.540,431.344,264.788,-14.492,69.800,-200.710,-44.580
955,38782.903000,249.094,43.929,-5.511,428.692,267.277,-18.392,44.800,-318.710,-59.580
956,38782.938000,259.946,34.840,-20.540,426.914,267.975,-24.333,134.800,-488.710,-10.580
957,38782.958000,253.040,49.988,-41.581,426.879,270.213,-37.169,247.800,-520.710,11.420
958,38782.996000,253.040,48.978,-37.573,429.474,263.716,-52.267,269.800,-537.710,57.420
959,38783.36000,252.054,42.919,-30.560,424.140,258.922,-68.327,338.800,-603.710,84.420
960,38783.78000,225.418,11.613,-61.620,424.965,259.227,-88.174,296.800,-745.710,104.420
961,38783.125000,237.256,37.870,-72.642,419.637,255.357,-102.219,353.800,-907.710,115.420
962,38783.160000,269.811,33.830,-83.663,417.809,253.840,-125.113,378.800,-969.710,73.420
963,38783.181000,229.364,18.682,-149.793,409.820,244.619,-144.304,420.800,-688.710,-8.580
964,38783.216000,219.499,13.633,-150.795,406.257,238.202,-156.440,302.800,-367.710,31.420
965,38783.258000,255.013,35.850,-103.703,403.604,239.823,-160.368,227.800,-221.710,82.420
966,38783.298000,237.256,52.008,-108.712,403.579,236.126,-168.432,230.800,-91.710,25.420
967,38783.338000,209.634,32.821,-193.879,400.040,238.559,-174.322,242.800,-270.710,-118.580
968,38783.381000,174.119,9.594,-151.796,395.592,233.821,-188.392,444.800,-365.710,-139.580
969,38783.421000,199.769,11.613,-156.806,396.468,242.389,-192.083,119.800,-302.710,-84.580
970,38783.441000,205.688,17.673,-222.935,390.263,243.726,-205.961,-335.200,-880.710,-80.580
971,38783.480000,188.917,-5.554,-178.849,373.462,243.094,-227.882,-304.200,-1271.710,-147.580
972,38783.521000,166.227,-7.574,-110.716,357.529,243.190,-254.740,40.800,-1082.710,-110.580
973,38783.562000,124.794,-27.771,1.503,353.107,243.018,-260.718,-203.200,-472.710,90.420
974,38783.596000,120.848,-27.771,-56.611,361.039,239.608,-258.817,44.800,443.290,175.420
975,38783.638000,181.025,129.767,-169.832,373.425,242.728,-240.802,-1028.200,663.290,33.420
976,38783.693000,194.836,96.442,-110.716,380.539,258.892,-221.388,-334.200,832.290,-40.580
977,38783.712000,240.216,85.333,-115.726,393.796,260.192,-206.409,360.800,1044.290,-380.580
978,38783.742000,269.811,-27.771,-102.701,397.348,259.609,-196.486,344.800,1243.290,-246.580
979,38783.782000,258.960,26.761,-86.669,405.361,267.347,-168.406,-324.200,1179.290,-219.580
980,38783.821000,256.000,72.205,-68.634,416.012,271.587,-141.423,-666.200,1130.290,-66.580
981,38783.865000,310.258,37.870,-15.530,425.785,276.723,-113.422,-285.200,1024.290,-15.580
982,38783.901000,288.555,17.673,-31.562,427.573,276.978,-104.471,-411.200,655.290,-45.580
983,38783.926000,235.283,54.028,-54.607,426.734,280.844,-90.446,-161.200,485.290,29.420
984,38783.961000,205.688,46.959,-95.687,432.066,282.166,-74.498,-222.200,639.290,83.420
985,38783.996000,236.270,74.225,-23.546,436.510,285.140,-61.479,-382.200,549.290,72.420
986,38784.36000,270.798,16.663,-6.513,436.547,282.062,-47.677,-48.200,448.290,6.420
987,38784.76000,242.189,79.274,8.517,438.294,276.743,-51.816,35.800,188.290,6.420
988,38784.123000,248.108,37.870,-55.609,436.562,275.315,-40.945,136.800,266.290,86.420
989,38784.156000,256.000,60.087,-30.560,439.217,276.298,-36.932,-88.200,263.290,32.420
990,38784.176000,245.148,42.919,-35.569,441.874,276.441,-31.954,123.800,349.290,89.420
991,38784.223000,234.297,49.988,-22.544,443.644,273.082,-28.085,88.800,318.290,119.420
992,38784.256000,253.040,46.959,-15.530,443.661,276.695,-23.003,-23.200,206.290,107.420
993,38784.296000,243.175,57.057,3.507,445.430,270.733,-19.219,-32.200,125.290,114.420
994,38784.336000,253.040,37.870,-17.534,448.089,273.480,-14.156,-139.200,135.290,121.420
995,38784.376000,255.013,31.811,5.511,446.331,270.931,-12.259,-79.200,161.290,125.420
996,38784.396000,263.892,43.929,3.507,450.740,261.499,-8.579,-37.200,184.290,156.420
997,38784.436000,253.040,43.929,-41.581,452.522,258.254,-0.734,-46.200,257.290,201.420
998,38784.476000,270.798,30.801,-34.568,456.946,254.142,7.090,69.800,575.290,162.420
999,38784.516000,252.054,24.742,-6.513,460.509,252.803,20.960,110.800,644.290,154.420
1000,38784.556000,249.094,30.801,17.534,453.472,248.599,25.766,388.800,408.290,127.420
1001,38784.596000,254.027,32.821,28.556,454.348,249.411,23.809,357.800,247.290,88.420
1002,38784.636000,225.418,11.613,-71.640,455.214,252.715,17.961,331.800,-69.710,69.420
1003,38784.656000,252.054,16.663,-128.751,459.535,245.853,-10.051,96.800,-955.710,61.420
1004,38784.696000,242.189,-9.594,-95.687,460.370,248.847,-26.832,-353.200,-1302.710,133.420
1005,38784.745000,241.202,2.525,-52.603,458.516,241.897,-57.846,-208.200,-1321.710,168.420
1006,38784.777000,246.135,1.515,-43.585,455.764,232.201,-93.918,228.800,-1123.710,117.420
1007,38784.817000,258.960,31.811,-7.515,448.627,226.142,-123.927,605.800,-880.710,58.420
1008,38784.857000,257.973,44.939,25.550,445.045,223.840,-143.873,836.800,-596.710,37.420
1009,38784.877000,238.243,44.939,68.634,439.713,218.206,-158.968,811.800,103.290,-89.580
1010,38784.916000,229.364,115.629,25.550,443.253,213.198,-152.168,536.800,899.290,-183.580
1011,38784.964000,297.434,72.205,-103.703,447.691,220.427,-141.989,77.800,604.290,-137.580
1012,38784.997000,262.906,52.008,-20.540,448.582,217.936,-138.095,160.800,521.290,-118.580
1013,38785.37000,246.135,10.604,-15.530,450.371,217.351,-128.178,-69.200,327.290,-121.580
1014,38785.77000,248.108,37.870,-24.548,448.624,217.491,-123.215,-60.200,234.290,-95.580
1015,38785.117000,248.108,20.702,-18.536,447.761,222.839,-118.079,45.800,216.290,-55.580
1016,38785.140000,259.946,18.682,-21.542,450.418,222.982,-113.101,-105.200,181.290,-56.580
1017,38785.182000,256.987,9.594,-21.542,453.061,216.096,-111.330,17.800,167.290,-43.580
1018,38785.221000,248.108,25.751,-16.532,451.313,227.435,-108.981,42.800,142.290,-33.580
1019,38785.262000,253.040,34.840,-23.546,451.317,224.887,-107.078,-8.200,140.290,-16.580
1020,38785.303000,252.054,28.781,-25.550,452.221,225.981,-99.096,-28.200,187.290,5.420
1021,38785.343000,251.067,27.771,-9.519,451.339,231.132,-100.917,-2.200,209.290,11.420
1022,38785.363000,252.054,35.850,-11.523,454.882,230.464,-93.977,-56.200,204.290,8.420
1023,38785.403000,246.135,31.811,-11.523,452.257,232.367,-87.965,-105.200,209.290,7.420
1024,38785.443000,252.054,23.732,-6.513,455.795,223.887,-81.278,-61.200,207.290,9.420
1025,38785.483000,252.054,26.761,-6.513,455.803,223.971,-78.297,-75.200,193.290,3.420
1026,38785.523000,249.094,25.751,-0.501,458.459,225.822,-74.256,-15.200,199.290,12.420
1027,38785.558000,249.094,25.751,3.507,456.712,231.141,-70.117,-73.200,161.290,8.420
1028,38785.598000,249.094,23.732,7.515,454.957,229.489,-67.197,-59.200,134.290,5.420
1029,38785.618000,256.000,30.801,3.507,460.252,230.445,-64.170,-46.200,125.290,9.420
1030,38785.663000,246.135,23.732,4.509,455.860,227.979,-59.300,17.800,139.290,16.420
1031,38785.697000,252.054,27.771,11.523,455.862,227.139,-58.334,-26.200,114.290,15.420
1032,38785.737000,251.067,25.751,10.521,458.501,217.621,-57.641,1.800,72.290,25.420
1033,38785.777000,250.081,25.751,9.519,458.514,223.781,-54.462,33.800,52.290,31.420
1034,38785.818000,248.108,25.751,9.519,461.168,228.208,-51.331,27.800,38.290,29.420
1035,38785.858000,253.040,24.742,8.517,459.398,228.990,-54.290,-5.200,20.290,22.420
1036,38785.877000,254.027,24.742,6.513,462.035,224.624,-55.417,11.800,29.290,20.420
1037,38785.923000,249.094,24.742,10.521,460.278,223.811,-53.463,37.800,40.290,25.420
1038,38785.962000,251.067,27.771,14.528,458.515,218.630,-52.644,18.800,18.290,25.420
1039,38785.997000,254.027,22.722,9.519,456.756,222.100,-52.537,9.800,3.290,26.420
1040,38786.37000,252.054,23.732,9.519,460.271,221.150,-55.535,29.800,3.290,25.420
1041,38786.83000,251.067,24.742,12.524,460.279,216.923,-51.700,24.800,-3.710,22.420
