Sample, Time, ACCX, ACCY, ACCZ, MAGX, MAGY, MAGZ, GYRX, GYRY, GYRZ
0,39065.357000,252.054,21.712,12.524,436.268,175.902,-121.625,1.800,13.290,17.420
1,39065.398000,252.054,23.732,11.523,441.565,182.906,-119.394,-7.200,4.290,13.420
2,39065.438000,252.054,23.732,12.524,434.512,179.401,-120.524,-12.200,-2.710,11.420
3,39065.478000,251.067,23.732,11.523,437.156,177.695,-119.578,-22.200,-6.710,12.420
4,39065.520000,251.067,25.751,11.523,438.922,182.904,-119.403,-39.200,-0.710,15.420
5,39065.566000,252.054,20.702,11.523,438.926,185.537,-118.325,-56.200,-1.710,14.420
6,39065.581000,253.040,17.673,14.528,439.808,182.093,-117.440,-30.200,-8.710,3.420
7,39065.621000,251.067,22.722,12.524,437.162,177.751,-117.590,-13.200,-24.710,3.420
8,39065.656000,251.067,26.761,14.528,435.397,178.590,-118.561,24.800,-25.710,15.420
9,39065.696000,251.067,25.751,11.523,438.041,176.016,-117.643,-0.200,-30.710,19.420
10,39065.736000,250.081,20.702,10.521,437.160,179.459,-118.527,15.800,-31.710,19.420
11,39065.779000,251.067,24.742,11.523,439.787,173.273,-122.692,19.800,-33.710,19.420
12,39065.799000,252.054,23.732,9.519,438.920,180.300,-119.487,31.800,-26.710,22.420
13,39065.839000,252.054,21.712,9.519,438.034,181.979,-121.422,24.800,-21.710,21.420
14,39065.879000,253.040,21.712,11.523,438.914,180.244,-121.475,18.800,-22.710,18.420
15,39065.919000,251.067,21.712,11.523,441.546,180.133,-125.442,17.800,-21.710,18.420
16,39065.959000,252.054,21.712,10.521,439.778,173.188,-125.673,28.800,-25.710,19.420
17,39065.998000,251.067,22.722,11.523,440.657,174.029,-126.636,18.800,-35.710,22.420
18,39066.39000,253.040,16.663,10.521,438.014,173.159,-126.673,6.800,-47.710,23.420
19,39066.61000,252.054,20.702,8.517,438.016,175.763,-126.589,3.800,-36.710,17.420
20,39066.99000,251.067,19.692,9.519,436.249,173.129,-127.673,18.800,-18.710,11.420
21,39066.144000,253.040,18.682,8.517,438.017,177.499,-126.532,12.800,-10.710,10.420
22,39066.179000,253.040,19.692,10.521,436.249,173.129,-127.673,24.800,-8.710,4.420
23,39066.218000,250.081,19.692,9.519,439.769,171.368,-128.712,14.800,-9.710,4.420
24,39066.259000,251.067,19.692,9.519,436.256,170.610,-124.775,20.800,-13.710,2.420
25,39066.278000,252.054,19.692,9.519,438.892,176.575,-128.545,0.800,-19.710,-2.580
26,39066.319000,252.054,18.682,6.513,439.777,179.208,-127.464,-9.200,-17.710,-6.580
27,39066.359000,253.040,19.692,9.519,440.650,179.124,-130.443,-12.200,-17.710,-9.580
28,39066.397000,253.040,20.702,9.519,441.534,175.709,-128.565,7.800,-8.710,-7.580
29,39066.437000,252.054,19.692,8.517,438.010,172.262,-127.695,18.800,4.290,-6.580
30,39066.482000,252.054,19.692,9.519,434.483,171.364,-128.729,3.800,-2.710,-8.580
31,39066.522000,253.040,20.702,9.519,437.124,172.205,-129.686,13.800,-6.710,-7.580
32,39066.537000,253.040,21.712,9.519,436.245,172.233,-128.695,7.800,-16.710,-5.580
33,39066.584000,253.040,18.682,8.517,438.005,169.630,-128.774,-20.200,-23.710,-10.580
34,39066.622000,255.013,18.682,6.513,437.119,170.441,-130.736,-36.200,-26.710,-14.580
35,39066.662000,253.040,19.692,6.513,437.126,172.234,-128.692,0.800,-12.710,-11.580
36,39066.697000,252.054,19.692,7.515,437.130,176.574,-128.551,16.800,-0.710,1.420
37,39066.737000,254.027,20.702,9.519,435.360,173.912,-130.629,34.800,-0.710,6.420
38,39066.764000,251.067,23.732,9.519,438.000,173.018,-131.643,53.800,-5.710,10.420
39,39066.801000,252.054,20.702,8.517,438.880,173.018,-131.640,17.800,-21.710,13.420
40,39066.841000,255.013,16.663,7.515,439.757,171.255,-132.687,56.800,-17.710,17.420
41,39066.879000,254.027,20.702,7.515,437.126,174.809,-129.601,92.800,-2.710,20.420
42,39066.919000,252.054,19.692,6.513,437.116,173.857,-132.611,59.800,3.290,11.420
43,39066.958000,255.013,18.682,5.511,433.594,175.590,-132.566,46.800,5.290,12.420
44,39067.2000,254.027,21.712,6.513,437.990,171.197,-134.681,140.800,32.290,19.420
45,39067.22000,252.054,18.682,8.517,437.114,170.385,-132.724,120.800,37.290,18.420
46,39067.61000,254.027,16.663,7.515,437.987,164.281,-133.912,134.800,31.290,11.420
47,39067.102000,250.081,22.722,7.515,441.514,168.624,-133.760,136.800,36.290,9.420
48,39067.143000,251.067,23.732,9.519,439.747,168.566,-135.753,126.800,53.290,13.420
49,39067.183000,252.054,16.663,8.517,438.879,167.839,-130.815,62.800,31.290,6.420
50,39067.223000,250.081,21.712,8.517,438.870,170.330,-134.706,57.800,21.290,-1.580
51,39067.243000,251.067,24.742,10.521,441.519,167.812,-131.800,8.800,4.290,-3.580
52,39067.281000,250.081,20.702,8.517,440.631,168.595,-134.757,-10.200,-15.710,-7.580
53,39067.324000,249.094,23.732,9.519,435.349,170.356,-133.723,-69.200,-44.710,-15.580
54,39067.359000,252.054,20.702,11.523,436.223,168.564,-135.765,-92.200,-56.710,-14.580
55,39067.401000,252.054,19.692,9.519,439.753,172.935,-134.619,-80.200,-69.710,-19.580
56,39067.440000,253.040,21.712,8.517,437.100,171.112,-137.665,-118.200,-93.710,-23.580
57,39067.478000,252.054,20.702,8.517,436.223,172.876,-136.618,-92.200,-100.710,-17.580
58,39067.507000,253.040,19.692,4.509,437.091,173.603,-141.556,-119.200,-108.710,-23.580
59,39067.542000,252.054,19.692,0.501,436.211,171.027,-140.650,-70.200,-97.710,-20.580
60,39067.582000,253.040,24.742,1.503,433.562,167.525,-141.765,-115.200,-101.710,-22.580
61,39067.621000,253.040,18.682,0.501,433.556,170.912,-144.634,-145.200,-102.710,-26.580
62,39067.664000,253.040,22.722,0.501,433.558,173.516,-144.550,-138.200,-94.710,-18.580
63,39067.704000,252.054,23.732,0.501,432.688,179.648,-142.367,-101.200,-83.710,-13.580
64,39067.718000,254.027,21.712,-1.503,431.803,175.307,-142.511,-124.200,-78.710,-20.580
65,39067.758000,253.040,22.722,-3.507,431.794,182.111,-147.255,-147.200,-78.710,-27.580
66,39067.798000,251.067,23.732,-5.511,429.159,184.769,-145.192,-109.200,-71.710,-20.580
67,39067.853000,253.040,24.742,-2.505,429.165,184.825,-143.204,-109.200,-69.710,-16.580
68,39067.883000,254.027,20.702,-6.513,431.793,176.931,-146.430,-93.200,-57.710,-17.580
69,39067.924000,251.067,25.751,-3.507,427.384,177.739,-148.404,-79.200,-53.710,-14.580
70,39067.958000,251.067,24.742,-6.513,429.157,185.609,-146.157,-78.200,-55.710,-13.580
71,39067.978000,252.054,21.712,-6.513,426.509,186.419,-148.125,-50.200,-53.710,-10.580
72,39068.18000,251.067,23.732,-6.513,426.507,190.702,-149.972,-36.200,-50.710,-8.580
73,39068.58000,252.054,23.732,-11.523,430.907,181.186,-149.274,-17.200,-24.710,-8.580
74,39068.101000,251.067,23.732,-9.519,427.392,189.023,-148.038,-10.200,-9.710,-11.580
75,39068.142000,252.054,21.712,-9.519,425.633,189.050,-147.050,0.800,3.290,-17.580
76,39068.182000,253.040,24.742,-6.513,426.506,185.522,-149.148,14.800,7.290,-21.580
77,39068.233000,252.054,23.732,-9.519,425.624,188.098,-150.060,30.800,22.290,-23.580
78,39068.242000,251.067,24.742,-11.523,426.511,189.023,-148.041,43.800,42.290,-21.580
79,39068.282000,252.054,23.732,-7.515,428.284,188.269,-144.088,47.800,56.290,-25.580
80,39068.322000,251.067,25.751,-4.509,424.745,183.813,-148.216,51.800,57.290,-27.580
81,39068.364000,252.054,25.751,-4.509,426.510,179.531,-146.363,63.800,64.290,-25.580
82,39068.403000,253.040,25.751,-3.507,426.519,184.795,-144.206,49.800,72.290,-34.580
83,39068.444000,252.054,24.742,-4.509,429.166,182.249,-142.294,26.800,78.290,-42.580
84,39068.466000,250.081,29.791,-1.503,428.290,185.749,-141.191,60.800,82.290,-41.580
85,39068.499000,252.054,29.791,3.507,430.060,192.722,-139.966,16.800,61.290,-50.580
86,39068.541000,251.067,27.771,0.501,427.423,192.777,-137.986,-13.200,54.290,-59.580
87,39068.583000,250.081,25.751,2.505,424.777,196.191,-139.870,-19.200,42.290,-70.580
88,39068.623000,250.081,29.791,5.511,426.542,192.776,-137.989,-5.200,38.290,-80.580
89,39068.663000,252.054,26.761,-2.505,423.018,192.774,-138.001,-68.200,38.290,-94.580
90,39068.699000,250.081,32.821,4.509,425.680,199.860,-132.797,-94.200,40.290,-114.580
91,39068.719000,250.081,34.840,1.503,421.274,205.009,-134.630,-43.200,38.290,-120.580
92,39068.762000,247.121,28.781,-0.501,422.160,208.510,-133.521,-78.200,48.290,-114.580
93,39068.802000,248.108,34.840,-1.503,420.404,208.565,-131.539,-47.200,72.290,-130.580
94,39068.843000,250.081,35.850,8.517,418.647,207.752,-129.585,-74.200,69.290,-124.580
95,39068.883000,255.013,56.047,5.511,418.655,211.280,-127.484,-11.200,69.290,-126.580
96,39068.924000,248.108,39.890,10.521,416.898,209.599,-125.558,3.800,89.290,-86.580
97,39068.939000,251.067,39.890,10.521,420.423,214.782,-126.372,-56.200,79.290,-68.580
98,39068.983000,247.121,40.899,11.523,418.665,219.988,-126.208,-5.200,59.290,-63.580
99,39069.23000,250.081,52.008,11.523,417.802,218.449,-119.310,-74.200,17.290,-29.580
100,39069.64000,246.135,48.978,12.524,418.679,220.129,-121.239,-0.200,-1.710,12.420
101,39069.99000,250.081,46.959,8.517,418.679,220.129,-121.239,-1.200,-21.710,42.420
102,39069.146000,250.081,41.909,8.517,416.911,219.203,-123.261,-20.200,-26.710,68.420
103,39069.183000,245.148,46.959,11.523,417.783,211.364,-124.505,2.800,-35.710,81.420
104,39069.204000,252.054,35.850,6.513,418.680,209.798,-118.595,-25.200,-21.710,83.420
105,39069.239000,250.081,43.929,5.511,420.438,213.215,-120.465,-69.200,25.290,98.420
106,39069.279000,252.054,43.929,8.517,420.444,213.271,-118.477,-28.200,49.290,123.420
107,39069.324000,249.094,37.870,10.521,420.443,211.535,-118.533,-29.200,41.290,155.420
108,39069.366000,248.108,36.860,17.534,424.836,207.114,-121.641,36.800,11.290,191.420
109,39069.402000,250.081,35.850,16.532,427.481,202.832,-119.786,-4.200,-41.710,196.420
110,39069.422000,253.040,31.811,11.523,430.124,195.078,-118.043,-26.200,-76.710,202.420
111,39069.463000,255.013,27.771,19.538,433.638,193.260,-121.070,-67.200,-122.710,226.420
112,39069.503000,249.094,25.751,31.562,430.967,186.089,-129.255,51.800,-342.710,254.420
113,39069.539000,273.757,8.584,13.526,429.176,177.182,-137.494,95.800,-674.710,193.420
114,39069.584000,270.798,1.515,-8.517,428.256,181.099,-152.264,56.800,-646.710,86.420
115,39069.619000,247.121,67.156,-41.581,423.826,181.710,-161.196,-257.200,-546.710,-50.580
116,39069.661000,243.175,3.535,-32.564,422.061,185.125,-163.077,-1092.200,-468.710,79.420
117,39069.688000,241.202,0.505,-35.569,418.537,185.122,-163.088,-579.200,-251.710,94.420
118,39069.723000,223.445,12.623,-36.571,421.177,185.096,-164.073,41.800,-2.710,15.420
119,39069.763000,229.364,19.692,-68.634,422.960,190.474,-157.935,419.800,276.290,5.420
120,39069.804000,244.162,27.771,-39.577,422.082,186.190,-156.091,247.800,306.290,53.420
121,39069.844000,245.148,30.801,-15.530,430.899,181.101,-152.256,160.800,348.290,50.420
122,39069.885000,260.933,44.939,-7.515,430.924,188.242,-145.073,-138.200,393.290,22.420
123,39069.922000,257.973,-15.653,-7.515,435.358,185.951,-134.210,-212.200,322.290,-1.580
124,39069.943000,266.852,-12.623,-3.507,433.605,182.591,-130.353,-171.200,291.290,-62.580
125,39069.984000,261.919,17.673,13.526,434.509,187.129,-123.252,-134.200,224.290,-77.580
126,39070.24000,256.000,23.732,5.511,433.652,193.401,-116.100,2.800,225.290,-39.580
127,39070.64000,243.175,21.712,10.521,435.422,189.175,-112.260,46.800,194.290,-39.580
128,39070.104000,243.175,26.761,22.544,434.537,190.854,-114.194,-62.200,67.290,-65.580
129,39070.144000,251.067,21.712,6.513,431.900,191.776,-112.187,-115.200,6.290,-60.580
130,39070.166000,252.054,24.742,9.519,436.304,193.488,-113.110,-5.200,4.290,-32.580
131,39070.201000,253.040,19.692,8.517,431.015,193.455,-114.121,-13.200,-4.710,-29.580
132,39070.241000,253.040,19.692,5.511,434.546,196.118,-112.037,-3.200,-11.710,-33.580
133,39070.285000,249.094,26.761,5.511,431.907,200.456,-111.905,13.800,10.290,-26.580
134,39070.326000,249.094,22.722,9.519,437.190,201.300,-112.854,2.800,9.290,-31.580
135,39070.365000,249.094,22.722,10.521,434.555,203.959,-110.790,-39.200,-18.710,-40.580
136,39070.420000,256.000,23.732,4.509,431.917,203.145,-108.839,-41.200,-15.710,-38.580
137,39070.429000,256.987,23.732,3.507,430.139,196.955,-113.017,35.800,33.290,-24.580
138,39070.467000,251.067,22.722,7.515,429.265,198.747,-110.976,73.800,57.290,-26.580
139,39070.504000,250.081,27.771,7.515,431.027,197.880,-110.998,58.800,62.290,-31.580
140,39070.544000,247.121,29.791,9.519,431.914,203.117,-109.833,73.800,71.290,-27.580
141,39070.585000,249.094,25.751,10.521,431.916,204.853,-109.776,37.800,58.290,-26.580
142,39070.624000,251.067,25.751,11.523,430.155,203.144,-108.844,26.800,36.290,-31.580
143,39070.644000,250.081,27.771,10.521,432.802,204.042,-107.814,-4.200,11.290,-29.580
144,39070.684000,250.081,28.781,9.519,428.403,204.095,-105.840,0.800,5.290,-27.580
145,39070.724000,251.067,26.761,8.517,431.030,198.776,-109.976,19.800,11.290,-15.580
146,39070.763000,252.054,24.742,10.521,433.686,204.939,-106.789,86.800,31.290,-5.580
147,39070.804000,252.054,29.791,9.519,431.037,204.012,-108.813,28.800,34.290,-8.580
148,39070.843000,249.094,30.801,11.523,431.929,199.814,-103.982,44.800,41.290,1.420
149,39070.885000,250.081,26.761,11.523,433.679,198.834,-107.980,47.800,30.290,0.420
150,39070.905000,248.108,31.811,12.524,430.163,202.360,-105.891,9.800,13.290,-4.580
151,39070.946000,252.054,29.791,13.526,432.810,203.258,-104.860,-4.200,-3.710,-6.580
152,39070.984000,251.067,28.781,10.521,430.164,195.473,-104.128,-24.200,-11.710,-10.580
153,39071.27000,250.081,26.761,11.523,430.162,200.624,-105.947,-43.200,-17.710,-15.580
154,39071.71000,254.027,23.732,10.521,432.801,199.730,-106.961,-64.200,-17.710,-25.580
155,39071.104000,250.081,32.821,11.523,433.690,202.391,-104.886,-21.200,-1.710,-17.580
156,39071.126000,250.081,29.791,10.521,428.402,203.227,-105.868,-21.200,1.290,-11.580
157,39071.165000,251.067,25.751,12.524,428.410,202.443,-102.915,-13.200,-5.710,-12.580
158,39071.205000,251.067,30.801,10.521,431.923,203.201,-106.851,-65.200,-18.710,-21.580
159,39071.247000,253.040,30.801,10.521,430.163,205.804,-106.772,-2.200,-13.710,-7.580
160,39071.287000,252.054,27.771,12.524,430.169,202.417,-103.903,-37.200,26.290,-4.580
161,39071.327000,252.054,26.761,11.523,430.167,203.256,-104.869,-19.200,20.290,-2.580
162,39071.366000,250.081,31.811,13.526,431.050,202.417,-103.900,-18.200,8.290,3.420
163,39071.391000,253.040,27.771,15.530,428.406,201.547,-103.937,36.800,-9.710,11.420
164,39071.424000,249.094,37.870,12.524,425.764,201.545,-103.945,37.800,-24.710,24.420
165,39071.472000,251.067,29.791,10.521,427.518,203.198,-106.865,14.800,-32.710,32.420
166,39071.502000,253.040,28.781,10.521,430.166,202.388,-104.897,-4.200,-32.710,30.420
167,39071.542000,250.081,24.742,10.521,432.804,207.514,-107.701,2.800,-31.710,34.420
168,39071.582000,250.081,26.761,11.523,429.273,204.851,-109.785,70.800,-41.710,42.420
169,39071.602000,252.054,35.850,10.521,431.911,205.664,-111.736,50.800,-31.710,52.420
170,39071.647000,248.108,24.742,10.521,431.916,204.853,-109.776,26.800,-38.710,61.420
171,39071.698000,252.054,23.732,28.556,431.907,200.456,-111.905,71.800,-82.710,68.420
172,39071.727000,256.987,17.673,14.528,430.138,190.907,-112.220,3.800,-166.710,96.420
173,39071.767000,262.906,22.722,4.509,430.998,189.843,-119.203,152.800,-195.710,137.420
174,39071.805000,255.013,31.811,-10.521,430.985,187.126,-123.263,198.800,-103.710,142.420
175,39071.847000,260.933,18.682,-1.503,434.499,185.308,-126.290,214.800,-41.710,153.420
176,39071.867000,255.013,33.830,11.523,435.372,186.092,-129.241,36.800,-131.710,182.420
177,39071.908000,246.135,38.880,10.521,436.236,174.724,-132.586,-13.200,-180.710,168.420
178,39071.944000,279.676,37.870,-15.530,433.577,171.978,-137.648,-161.200,-209.710,166.420
179,39071.982000,233.310,61.097,-300.086,429.113,171.383,-158.535,574.800,-1218.710,-135.580
180,39072.27000,267.838,22.722,-330.145,410.518,176.459,-193.184,-52.200,-2453.710,-413.580
181,39072.67000,247.121,-46.959,-277.041,377.740,174.633,-256.900,739.800,-2974.710,-494.580
182,39072.86000,232.324,-65.136,-202.896,333.535,171.316,-311.764,692.800,-2853.710,-230.580
183,39072.122000,200.755,-73.215,-92.681,293.774,157.196,-350.083,661.800,-2243.710,2.420
184,39072.162000,194.836,-22.722,-42.583,274.344,154.967,-367.099,491.800,-1537.710,197.420
185,39072.203000,210.620,-0.505,-12.524,254.912,136.359,-380.674,154.800,-550.710,372.420
186,39072.246000,261.919,15.653,-30.560,261.082,128.636,-377.925,147.800,143.290,451.420
187,39072.286000,241.202,78.264,-41.581,272.550,123.634,-371.100,31.800,567.290,525.420
188,39072.326000,239.229,86.343,-10.521,282.290,144.811,-358.466,-1363.200,684.290,526.420
189,39072.345000,191.877,4.544,-35.569,295.595,175.008,-333.611,-2131.200,613.290,222.420
190,39072.389000,196.809,-2.525,-116.728,300.900,178.653,-327.518,227.800,279.290,-105.580
191,39072.423000,292.501,111.590,-72.642,299.116,168.095,-332.832,516.800,-25.710,-97.580
192,39072.468000,346.759,50.998,-56.611,294.701,165.403,-335.912,-375.200,-229.710,-98.580
193,39072.508000,433.572,-16.663,-63.624,292.920,162.629,-341.966,396.800,-198.710,5.420
194,39072.548000,430.613,-27.771,-16.532,289.377,158.985,-348.053,105.800,-534.710,-61.580
195,39072.588000,353.665,56.047,-89.675,270.832,152.502,-362.225,497.800,-921.710,-323.580
196,39072.608000,302.366,79.274,-68.634,246.974,138.845,-384.590,1325.800,-1136.710,-438.580
197,39072.648000,130.713,72.205,-7.515,239.894,124.726,-393.015,392.800,-202.710,-388.580
198,39072.687000,97.171,44.939,57.613,251.405,158.056,-379.981,-1640.200,903.290,-302.580
199,39072.727000,150.443,-128.757,28.556,292.926,178.197,-343.447,-729.200,2393.290,282.420
200,39072.768000,265.865,-8.584,-80.658,341.522,173.621,-291.804,-32.200,2983.290,406.420
201,39072.807000,265.865,55.037,-215.922,370.692,181.515,-258.685,-1130.200,2700.290,336.420
202,39072.828000,228.378,12.623,-195.883,403.448,192.608,-204.599,-1030.200,1845.290,471.420
203,39072.868000,236.270,77.254,-195.883,422.055,192.824,-166.799,-587.200,1426.290,317.420
204,39072.909000,191.877,40.899,-193.879,437.101,195.247,-142.840,-295.200,1085.290,114.420
205,39072.961000,222.459,54.028,-242.975,436.245,194.632,-133.926,234.800,355.290,-163.580
206,39072.990000,212.593,100.481,-180.853,436.246,198.944,-134.779,2.800,-136.710,-389.580
207,39073.25000,277.703,-44.939,-11.523,428.291,206.440,-145.484,-30.200,-580.710,-245.580
208,39073.65000,306.312,2.525,-14.528,427.386,203.610,-153.523,301.800,-59.710,-278.580
209,39073.85000,342.813,13.633,-47.593,425.623,209.629,-155.319,-486.200,-246.710,-160.580
210,39073.125000,265.865,6.564,-34.568,422.108,217.466,-154.083,-56.200,-63.710,-220.580
211,39073.172000,209.634,68.166,-70.638,418.597,223.624,-150.915,-92.200,182.290,-131.580
212,39073.206000,246.135,44.939,-39.577,418.617,224.689,-143.930,-351.200,393.290,-131.580
213,39073.247000,258.960,15.653,-27.554,420.423,231.161,-129.812,-17.200,535.290,-168.580
214,39073.287000,261.919,4.544,18.536,421.321,230.463,-123.874,-245.200,329.290,-254.580
215,39073.307000,256.987,46.959,8.517,418.692,238.357,-120.647,105.800,202.290,-180.580
216,39073.349000,259.946,37.870,-15.530,419.588,242.810,-116.528,203.800,114.290,-55.580
217,39073.383000,233.310,63.116,6.513,416.933,241.828,-120.540,94.800,-19.710,-77.580
218,39073.424000,230.351,73.215,-9.519,415.169,243.534,-121.484,-196.200,-161.710,-45.580
219,39073.464000,241.202,52.008,-26.552,416.055,241.855,-119.549,-233.200,-92.710,4.420
220,39073.504000,238.243,38.880,9.519,416.941,241.044,-117.587,-354.200,-144.710,-74.580
221,39073.545000,257.973,47.968,4.509,411.657,250.532,-119.282,-419.200,-278.710,8.420
222,39073.567000,256.987,53.018,-31.562,413.426,245.438,-115.469,-443.200,-167.710,46.420
223,39073.607000,256.000,11.613,-21.542,410.786,248.908,-115.365,-383.200,-65.710,60.420
224,39073.648000,258.960,40.899,3.507,413.429,249.778,-115.329,-200.200,-124.710,58.420
225,39073.689000,244.162,63.116,-14.528,414.298,248.798,-119.330,-241.200,-228.710,92.420
226,39073.729000,254.027,22.722,4.509,416.060,248.799,-119.324,-56.200,-267.710,103.420
227,39073.767000,242.189,19.692,6.513,413.379,238.940,-130.575,-80.200,-588.710,56.420
228,39073.787000,253.040,11.613,-57.613,410.696,241.987,-145.380,63.800,-663.710,-51.580
229,39073.826000,217.526,57.057,-58.614,406.255,243.354,-158.259,340.800,-589.710,-157.580
230,39073.864000,257.973,53.018,-86.669,404.467,241.363,-167.266,67.800,-374.710,-88.580
231,39073.906000,232.324,54.028,-85.667,400.944,246.540,-168.102,-10.200,-81.710,-38.580
232,39073.947000,273.757,30.801,-65.628,400.069,247.464,-166.089,90.800,255.290,25.420
233,39073.988000,256.000,50.998,-17.534,402.740,250.323,-157.051,-6.200,379.290,-19.580
234,39074.27000,214.566,50.998,-27.554,403.650,248.030,-146.199,-65.200,390.290,-13.580
235,39074.45000,226.405,66.146,-45.589,406.296,241.172,-143.435,-53.200,425.290,65.420
236,39074.87000,252.054,0.505,-2.505,410.721,245.684,-137.316,121.800,266.290,-14.580
237,39074.125000,249.094,47.968,-15.530,409.845,248.316,-136.240,147.800,117.290,-80.580
238,39074.167000,254.027,48.978,-47.593,411.608,242.298,-134.444,129.800,237.290,-12.580
239,39074.207000,256.987,30.801,-33.566,411.638,247.759,-125.330,263.800,395.290,3.420
240,39074.259000,253.040,34.840,-17.534,415.152,243.365,-127.447,366.800,408.290,15.420
241,39074.288000,231.337,64.126,-9.519,415.169,239.223,-120.631,239.800,325.290,54.420
242,39074.308000,235.283,54.028,9.519,415.176,237.571,-117.705,114.800,160.290,67.420
243,39074.348000,245.148,43.929,7.515,418.700,237.574,-117.694,44.800,41.290,67.420
244,39074.394000,250.081,39.890,-2.505,422.219,234.076,-118.789,78.800,-38.710,91.420
245,39074.429000,248.108,35.850,-9.519,420.446,234.830,-122.742,71.800,-114.710,89.420
246,39074.469000,246.135,36.860,10.521,423.956,231.248,-126.819,-23.200,-268.710,82.420
247,39074.508000,251.067,36.860,-15.530,419.529,231.887,-134.756,107.800,-339.710,106.420
248,39074.528000,263.892,38.880,-12.524,420.389,226.511,-140.886,82.800,-347.710,157.420
249,39074.565000,244.162,-4.544,-72.642,422.130,221.135,-147.013,-40.200,-256.710,159.420
250,39074.606000,288.555,19.692,-28.556,421.247,215.087,-146.219,263.800,11.290,182.420
251,39074.650000,280.663,16.663,-24.548,421.229,217.494,-153.092,154.800,-205.710,124.420
252,39074.684000,267.838,40.899,-86.669,423.857,215.619,-158.109,226.800,-252.710,7.420
253,39074.724000,249.094,41.909,-208.908,415.010,215.246,-171.059,372.800,-603.710,-67.580
254,39074.770000,211.607,-12.623,-225.941,402.602,209.325,-196.115,307.800,-1143.710,-76.580
255,39074.785000,219.499,-10.604,-202.896,385.756,200.487,-232.204,846.800,-1453.710,-109.580
256,39074.827000,224.432,-8.584,-184.861,360.961,188.002,-274.394,935.800,-1718.710,-7.580
257,39074.869000,198.782,-11.613,-144.783,345.045,180.511,-293.555,631.800,-1740.710,138.420
258,39074.911000,223.445,6.564,-93.683,321.178,173.657,-320.664,229.800,-1446.710,277.420
259,39074.949000,227.391,18.682,-90.677,303.512,167.146,-335.827,-276.200,-999.710,321.420
260,39075.2000,219.499,39.890,-71.640,288.522,171.306,-341.698,-133.200,-773.710,282.420
261,39075.10000,212.593,28.781,-29.558,283.226,165.170,-343.900,-47.200,-469.710,237.420
262,39075.46000,198.782,8.584,-11.523,285.871,165.200,-342.898,-43.200,300.290,462.420
263,39075.85000,211.607,62.107,91.679,300.006,161.293,-328.084,-301.200,1013.290,349.420
264,39075.125000,277.703,85.333,-92.681,309.749,171.298,-311.841,-807.200,468.290,-40.580
265,39075.168000,274.744,35.850,-71.640,318.546,166.012,-314.963,866.800,405.290,-111.580
266,39075.210000,331.961,-31.811,-54.607,317.671,166.068,-312.978,205.800,195.290,-74.580
267,39075.249000,355.638,-23.732,-52.603,315.914,164.387,-311.052,84.800,26.290,27.420
268,39075.269000,376.355,1.515,-40.579,313.261,162.564,-314.099,134.800,-217.710,125.420
269,39075.310000,356.624,5.554,7.515,312.349,154.498,-323.300,131.800,-400.710,82.420
270,39075.350000,301.380,113.609,-95.687,296.442,145.384,-338.542,449.800,-1039.710,-152.580
271,39075.390000,291.514,45.949,-107.710,274.355,147.324,-361.389,734.800,-1512.710,-501.580
272,39075.428000,232.324,46.959,-58.614,254.898,132.774,-384.762,1118.800,-906.710,-398.580
273,39075.467000,156.362,10.604,29.558,257.543,138.824,-385.550,-449.200,132.290,-247.580
274,39075.488000,126.767,-42.919,8.517,275.213,147.100,-369.337,-799.200,1592.290,-75.580
275,39075.537000,197.796,-40.899,-62.622,315.838,154.163,-335.216,-902.200,2345.290,180.420
276,39075.574000,248.108,31.811,-148.791,360.059,170.557,-277.942,-1156.200,2950.290,222.420
277,39075.607000,288.555,16.663,-200.892,399.904,188.097,-210.715,-1401.200,2788.290,386.420
278,39075.648000,232.324,52.008,-250.990,424.708,186.891,-162.018,-798.200,1956.290,460.420
279,39075.687000,213.580,44.939,-198.888,437.100,193.511,-142.896,-456.200,989.290,-62.580
280,39075.728000,221.472,27.771,-155.804,439.779,197.323,-130.848,331.800,445.290,-263.580
281,39075.748000,239.229,133.807,-166.826,437.134,201.605,-132.704,535.800,135.290,-412.580
282,39075.787000,319.137,-34.840,-110.716,433.595,208.349,-139.447,225.800,-227.710,-176.580
283,39075.828000,274.744,-20.702,-34.568,432.716,202.329,-137.659,86.800,26.290,-191.580
284,39075.868000,265.865,-33.830,-33.566,431.834,208.348,-139.453,-445.200,-106.710,-181.580
285,39075.913000,263.892,52.008,9.519,427.428,215.232,-141.230,-138.200,-63.710,-137.580
286,39075.952000,210.620,70.185,-44.587,427.457,223.270,-133.025,-286.200,69.290,-149.580
287,39075.985000,257.973,26.761,-40.579,428.354,222.571,-127.087,-374.200,268.290,-148.580
288,39076.6000,294.474,-36.860,5.511,429.265,225.457,-117.060,-196.200,359.290,-186.580
289,39076.47000,285.595,-16.663,-22.544,426.640,234.248,-112.811,-115.200,221.290,-244.580
290,39076.88000,251.067,57.057,-7.515,420.487,236.960,-108.771,15.800,178.290,-192.580
291,39076.129000,238.243,68.166,10.521,423.141,240.519,-105.668,386.800,299.290,-27.580
292,39076.168000,228.378,62.107,12.524,424.911,244.048,-103.562,-81.200,201.290,-58.580
293,39076.209000,229.364,47.968,35.569,424.035,243.236,-101.605,-41.200,40.290,-106.580
294,39076.229000,231.337,87.353,-1.503,424.927,246.793,-98.508,-443.200,-39.710,-70.580
295,39076.267000,264.879,-16.663,9.519,422.296,247.772,-94.513,-311.200,-178.710,15.420
296,39076.309000,254.027,45.949,-0.501,420.512,244.102,-101.588,-234.200,-279.710,-19.580
297,39076.352000,236.270,58.067,11.523,420.509,244.073,-102.582,-144.200,-275.710,62.420
298,39076.392000,229.364,44.939,-10.521,421.361,239.481,-111.665,-263.200,-509.710,98.420
299,39076.428000,250.081,74.225,21.542,419.559,245.973,-127.348,-78.200,-796.710,14.420
300,39076.468000,242.189,54.028,30.560,416.005,246.528,-138.265,-126.200,-1006.710,57.420
301,39076.487000,269.811,-36.860,-59.616,408.906,246.016,-156.178,-235.200,-893.710,-4.580
302,39076.528000,218.513,98.462,-62.622,400.924,246.343,-175.060,302.800,-932.710,-161.580
303,39076.569000,210.620,82.304,-85.667,397.364,246.842,-187.964,-214.200,-607.710,-19.580
304,39076.608000,270.798,46.959,-119.734,395.584,241.492,-193.108,13.800,-233.710,170.420
305,39076.655000,272.771,-19.692,-97.691,400.005,245.108,-188.012,-126.200,196.290,12.420
306,39076.690000,247.121,37.870,-99.695,400.031,245.362,-179.066,-235.200,516.290,-179.580
307,39076.709000,213.580,55.037,-57.613,405.364,248.420,-163.062,-198.200,626.290,-51.580
308,39076.755000,256.987,44.939,-20.540,409.812,246.270,-147.230,-50.200,657.290,86.420
309,39076.790000,247.121,34.840,-28.556,412.463,245.489,-144.268,-165.200,585.290,111.420
310,39076.832000,243.175,43.929,-12.524,415.145,240.705,-129.519,53.800,564.290,58.420
311,39076.872000,243.175,36.860,-18.536,418.688,240.037,-122.579,-20.200,466.290,72.420
312,39076.912000,254.027,37.870,-16.532,421.367,239.537,-109.678,128.800,414.290,41.420
313,39076.952000,245.148,34.840,-9.519,425.783,246.540,-107.450,164.800,374.290,25.420
314,39076.972000,241.202,57.057,-0.501,423.150,240.603,-102.686,134.800,294.290,46.420
315,39077.8000,240.216,37.870,-10.521,428.442,238.088,-99.772,107.800,250.290,100.420
316,39077.49000,246.135,36.860,14.528,429.333,236.465,-95.850,141.800,90.290,75.420
317,39077.88000,250.081,33.830,-2.505,430.203,232.909,-98.941,38.800,-15.710,74.420
318,39077.130000,241.202,42.919,12.524,429.316,228.540,-100.079,80.800,-99.710,110.420
319,39077.172000,243.175,34.840,-8.517,432.824,230.110,-105.975,150.800,-192.710,163.420
320,39077.192000,258.960,28.781,10.521,435.443,229.018,-113.946,149.800,-309.710,157.420
321,39077.227000,245.148,55.037,-3.507,432.770,226.131,-123.978,-14.200,-575.710,164.420
322,39077.269000,285.595,13.633,-64.626,430.108,219.912,-129.153,234.800,-300.710,177.420
323,39077.309000,276.717,7.574,-34.568,431.847,214.508,-136.274,170.800,-294.710,108.420
324,39077.350000,270.798,24.742,-96.689,429.173,202.997,-144.600,164.800,-284.710,54.420
325,39077.387000,269.811,49.988,-171.836,420.334,213.040,-157.211,247.800,-659.710,45.420
326,39077.433000,231.337,30.801,-175.843,418.523,215.136,-175.023,182.800,-1033.710,-175.580
327,39077.453000,218.513,7.574,-171.836,404.337,211.649,-205.964,1033.800,-1176.710,-304.580
328,39077.489000,214.566,21.712,-164.822,384.854,202.865,-240.073,912.800,-1365.710,-311.580
329,39077.530000,203.715,2.525,-126.748,358.308,189.623,-278.322,949.800,-1364.710,-255.580
330,39077.572000,200.755,13.633,-112.720,345.033,183.842,-298.412,573.800,-1366.710,-34.580
331,39077.617000,193.850,3.535,-122.740,322.949,178.055,-318.530,247.800,-1126.710,50.420
332,39077.652000,218.513,14.643,-96.689,306.165,169.836,-332.752,223.800,-880.710,105.420
333,39077.672000,235.283,27.771,-86.669,296.440,165.179,-343.858,268.800,-533.710,158.420
334,39077.712000,224.432,15.653,-79.656,292.901,159.856,-348.014,252.800,-300.710,186.420
335,39077.748000,214.566,20.702,-104.704,288.487,162.344,-351.919,116.800,-160.710,254.420
336,39077.793000,204.701,22.722,-74.646,286.724,160.607,-351.981,-212.200,-31.710,230.420
337,39077.832000,174.119,-3.535,51.601,292.912,163.413,-344.919,-559.200,382.290,333.420
338,39077.874000,192.863,88.363,-14.528,301.777,162.246,-325.069,-567.200,641.290,359.420
339,39077.913000,221.472,56.047,-142.779,308.871,179.081,-312.584,-1130.200,444.290,73.420
340,39077.933000,247.121,61.097,-72.642,318.584,182.758,-305.483,523.800,714.290,-9.580
341,39077.973000,375.368,2.525,-11.523,328.283,170.782,-299.882,774.800,640.290,-74.580
342,39078.13000,396.085,-6.564,18.536,329.166,166.499,-298.032,277.800,35.290,-11.580
343,39078.54000,380.301,27.771,7.515,320.341,168.059,-303.968,-382.200,-536.710,-9.580
344,39078.98000,299.407,40.899,-14.528,313.262,167.744,-314.924,116.800,-863.710,-146.580
345,39078.133000,261.919,5.554,-136.767,292.048,159.269,-338.106,778.800,-1217.710,-461.580
346,39078.173000,272.771,-11.613,-119.734,269.040,141.859,-370.520,1780.800,-1223.710,-498.580
347,39078.188000,229.364,52.008,-84.665,251.333,122.018,-397.038,2060.800,-1019.710,-508.580
348,39078.228000,193.850,62.107,-6.513,247.808,124.591,-397.959,-550.200,-296.710,-599.580
349,39078.268000,158.335,-38.880,-13.526,255.787,150.947,-386.155,-1199.200,565.290,-472.580
350,39078.309000,174.119,-24.742,-42.583,277.002,164.602,-363.798,-900.200,1427.290,-13.580
351,39078.350000,187.931,9.594,-68.634,321.168,179.592,-325.437,-998.200,2305.290,183.420
352,39078.393000,220.486,-5.554,-150.795,350.358,190.260,-286.271,-1173.200,2629.290,388.420
353,39078.408000,253.040,37.870,-240.971,388.401,196.205,-230.348,-996.200,2254.290,627.420
354,39078.450000,220.486,70.185,-249.988,414.960,200.964,-185.424,-1057.200,1481.290,498.420
355,39078.489000,204.701,28.781,-236.963,422.967,207.778,-159.360,-947.200,906.290,251.420
356,39078.528000,221.472,25.751,-208.908,426.509,209.686,-153.328,6.800,206.290,-216.580
357,39078.570000,215.553,56.047,-142.779,424.748,214.864,-154.159,142.800,-139.710,-295.580
358,39078.610000,237.256,95.432,-11.523,422.987,219.175,-155.018,-445.200,-61.710,-221.580
359,39078.649000,296.447,-57.057,-52.603,420.351,220.965,-152.982,-67.200,-86.710,-42.580
360,39078.668000,293.487,23.732,-15.530,423.001,230.515,-152.664,-682.200,-131.710,-165.580
361,39078.708000,274.744,1.515,-39.577,421.258,237.598,-147.475,-465.200,-102.710,-214.580
362,39078.754000,255.013,35.850,-56.611,416.860,242.831,-146.326,-105.200,72.290,-162.580
363,39078.793000,257.973,21.712,-33.566,415.996,245.576,-141.275,-165.200,184.290,-181.580
364,39078.830000,237.256,90.383,-28.556,417.781,250.114,-134.171,-31.200,221.290,-163.580
365,39078.874000,264.879,26.761,-41.581,414.268,246.780,-129.325,-304.200,378.290,-15.580
366,39078.889000,239.229,13.633,-6.513,414.296,249.638,-120.295,-90.200,402.290,-53.580
367,39078.933000,269.811,39.890,11.523,416.088,255.969,-111.147,-143.200,225.290,-69.580
368,39078.974000,242.189,48.978,-9.519,416.087,254.233,-111.204,-3.200,35.290,-60.580
369,39079.13000,240.216,54.028,3.507,415.210,255.996,-110.156,-40.200,-52.710,-4.580
370,39079.58000,253.040,50.998,-18.536,416.971,258.573,-111.060,-131.200,-96.710,-13.580
371,39079.92000,244.162,56.047,-14.528,415.208,257.704,-111.094,-288.200,-118.710,11.420
372,39079.134000,256.987,36.860,-31.562,413.455,262.099,-108.971,-375.200,-91.710,58.420
373,39079.153000,244.162,31.811,-29.558,416.982,258.686,-107.084,-228.200,40.290,46.420
374,39079.194000,249.094,53.018,-10.521,416.111,256.194,-103.196,-195.200,53.290,76.420
375,39079.229000,252.054,52.008,-15.530,422.278,253.623,-102.267,-192.200,58.290,125.420
376,39079.269000,253.040,33.830,-13.526,423.183,259.028,-95.137,-118.200,113.290,128.420
377,39079.309000,248.108,64.126,2.505,424.957,255.699,-90.275,-307.200,51.290,142.420
378,39079.349000,252.054,30.801,-1.503,425.843,252.312,-87.403,-126.200,26.290,179.420
379,39079.375000,252.054,26.761,16.532,426.713,244.444,-89.641,39.800,-142.710,118.420
380,39079.417000,252.054,33.830,14.528,428.447,241.588,-98.665,11.800,-298.710,134.420
381,39079.454000,249.094,10.604,16.532,424.886,236.907,-110.745,70.800,-475.710,88.420
382,39079.494000,255.013,23.732,-10.521,424.875,245.418,-116.426,-61.200,-692.710,-69.580
383,39079.534000,287.568,16.663,-59.616,419.558,247.680,-128.286,263.800,-398.710,-92.580
384,39079.575000,240.216,52.008,-80.658,418.666,248.435,-132.236,121.800,-248.710,-104.580
385,39079.612000,192.863,8.584,-110.716,418.671,247.623,-130.277,125.800,259.290,-112.580
386,39079.632000,273.757,54.028,-50.599,416.916,245.103,-127.385,232.800,555.290,-20.580
387,39079.673000,241.202,47.968,-46.591,420.474,241.999,-114.566,111.800,662.290,17.420
388,39079.714000,230.351,48.978,-16.532,427.560,240.663,-100.684,-11.200,724.290,99.420
389,39079.757000,244.162,42.919,-6.513,429.371,246.323,-84.607,-345.200,589.290,15.420
390,39079.794000,253.040,4.544,28.556,428.512,245.680,-76.687,47.800,459.290,-109.580
391,39079.832000,255.013,33.830,67.632,425.004,250.998,-72.553,25.800,122.290,-137.580
392,39079.854000,263.892,40.899,-19.538,427.643,253.547,-74.448,122.800,98.290,-76.580
393,39079.895000,256.987,21.712,-27.554,425.882,255.282,-74.398,227.800,230.290,-64.580
394,39079.929000,250.081,31.811,-4.509,424.138,256.318,-68.412,375.800,326.290,-80.580
395,39079.975000,243.175,63.116,24.548,424.137,251.138,-67.587,303.800,244.290,-24.580
396,39080.9000,246.135,46.959,10.521,424.135,248.534,-67.671,386.800,240.290,41.420
397,39080.54000,243.175,42.919,16.532,427.666,246.885,-64.734,209.800,206.290,62.420
398,39080.90000,237.256,33.830,28.556,427.682,245.318,-58.827,226.800,91.290,52.420
399,39080.110000,243.175,57.057,38.575,428.540,248.537,-67.657,167.800,-137.710,103.420
400,39080.153000,247.121,35.850,13.526,432.043,246.606,-74.659,242.800,-159.710,121.420
401,39080.194000,246.135,49.988,10.521,428.496,242.935,-81.741,236.800,-168.710,130.420
402,39080.235000,238.243,55.037,20.540,430.234,236.663,-88.890,85.800,-306.710,141.420
403,39080.275000,241.202,38.880,19.538,430.214,225.266,-93.231,41.800,-447.710,158.420
404,39080.315000,252.054,42.919,18.536,430.186,229.296,-104.024,-43.200,-640.710,195.420
405,39080.352000,246.135,20.702,5.511,430.136,226.213,-121.005,-10.200,-825.710,153.420
406,39080.374000,266.852,40.899,-46.591,428.329,226.629,-136.885,-102.200,-729.710,124.420
407,39080.417000,251.067,-8.584,-80.658,428.300,222.036,-145.971,22.800,-408.710,148.420
408,39080.454000,280.663,7.574,-27.554,423.885,215.032,-148.198,8.800,-159.710,145.420
409,39080.495000,273.757,29.791,-27.554,430.040,211.480,-151.273,6.800,-3.710,108.420
410,39080.532000,272.771,18.682,-48.595,430.057,208.206,-144.428,146.800,220.290,130.420
411,39080.570000,253.040,16.663,-57.613,437.120,209.220,-139.408,-68.200,257.290,155.420
412,39080.590000,239.229,26.761,-106.708,434.497,209.415,-132.459,-105.200,72.290,136.420
413,39080.640000,232.324,62.107,-157.808,435.347,209.974,-143.361,60.800,-365.710,-47.580
414,39080.672000,214.566,28.781,-155.804,428.245,208.565,-162.296,484.800,-794.710,-94.580
415,39080.714000,218.513,15.653,-153.800,414.947,202.559,-190.337,827.800,-1069.710,-223.580
416,39080.755000,245.148,-8.584,-164.822,395.456,194.559,-227.400,875.800,-1378.710,-231.580
417,39080.795000,246.135,5.554,-173.840,377.757,186.001,-253.552,1164.800,-1621.710,-203.580
418,39080.835000,238.243,14.643,-165.824,351.217,171.948,-289.841,980.800,-1724.710,-127.580
419,39080.855000,235.283,14.643,-148.791,321.157,160.524,-325.063,458.800,-1659.710,-7.580
420,39080.902000,217.526,-7.574,-106.708,296.420,152.915,-348.228,541.800,-1303.710,0.420
421,39080.932000,224.432,32.821,-84.665,284.927,151.644,-362.208,564.800,-990.710,88.420
422,39080.975000,220.486,28.781,-67.632,273.451,147.098,-369.343,-25.200,-563.710,166.420
423,39081.13000,214.566,35.850,-39.577,263.743,149.498,-376.247,-191.200,-381.710,243.420
424,39081.50000,197.796,48.978,-1.503,265.533,156.669,-368.065,-604.200,-55.710,280.420
425,39081.72000,168.200,21.712,-20.540,270.836,162.021,-362.909,-376.200,412.290,182.420
426,39081.110000,151.430,13.633,-78.654,282.308,157.047,-355.090,-182.200,710.290,21.420
427,39081.150000,162.281,17.673,-150.795,283.204,158.925,-350.061,296.800,265.290,-143.580
428,39081.192000,333.935,-4.544,-100.697,284.952,151.897,-353.262,571.800,-8.710,-119.580
429,39081.232000,319.137,20.702,-82.661,278.779,150.101,-355.326,291.800,-139.710,-76.580
430,39081.274000,377.341,2.525,-86.669,276.137,150.967,-355.307,-101.200,-172.710,-52.580
431,39081.313000,404.963,-20.702,-95.687,275.247,147.438,-357.410,36.800,-118.710,80.420
432,39081.332000,341.827,-16.663,-54.607,273.465,142.927,-363.520,-30.200,-201.710,33.420
433,39081.375000,313.218,55.037,-125.746,260.215,139.976,-375.574,76.800,-575.710,-132.580
434,39081.417000,258.960,44.939,-111.718,248.750,145.874,-381.378,426.800,-988.710,-174.580
435,39081.457000,223.445,43.929,-120.736,237.240,133.235,-398.705,785.800,-776.710,-213.580
436,39081.497000,172.146,46.959,-30.560,231.068,136.618,-401.594,-438.200,-45.710,-188.580
437,39081.535000,138.605,-24.742,-19.538,242.556,147.324,-391.280,-662.200,631.290,-89.580
438,39081.554000,160.308,-10.604,-55.609,257.563,151.089,-381.180,-252.200,1372.290,-2.580
439,39081.593000,196.809,23.732,-83.663,291.121,158.818,-354.011,-717.200,2052.290,52.420
440,39081.635000,217.526,10.604,-92.681,334.426,177.449,-309.576,-1084.200,2295.290,203.420
441,39081.675000,254.027,20.702,-147.789,377.735,178.888,-259.741,-736.200,2426.290,348.420
442,39081.714000,263.892,62.107,-199.890,398.094,188.485,-227.589,-1011.200,2163.290,319.420
443,39081.754000,255.013,28.781,-202.896,420.263,197.693,-178.562,-863.200,1732.290,178.420
444,39081.795000,245.148,9.594,-155.804,431.814,200.395,-144.676,-45.200,1289.290,19.420
445,39081.815000,201.742,93.412,-200.892,439.778,202.475,-132.667,710.800,811.290,-131.580
446,39081.859000,213.580,26.761,-190.873,438.913,206.087,-127.588,74.800,129.290,-175.580
447,39081.894000,242.189,-11.613,-82.661,438.887,200.654,-135.708,-178.200,-405.710,-216.580
448,39081.938000,264.879,30.801,-14.528,438.028,211.210,-130.403,-309.200,42.290,-184.580
449,39081.975000,256.987,-6.564,-19.538,435.388,215.548,-130.271,-475.200,-28.710,-161.580
450,39082.20000,293.487,28.781,-4.509,438.043,219.974,-127.140,-259.200,115.290,-125.580
451,39082.39000,277.703,-16.663,3.507,432.778,225.347,-121.024,-153.200,94.290,-186.580
452,39082.77000,251.067,33.830,-23.546,430.127,225.261,-124.015,-25.200,100.290,-218.580
453,39082.117000,239.229,14.643,-36.571,429.272,227.250,-115.016,-361.200,131.290,-218.580
454,39082.157000,251.067,24.742,-11.523,426.652,235.229,-108.807,101.800,261.290,-264.580
455,39082.195000,242.189,63.116,20.540,423.125,241.218,-111.603,-58.200,147.290,-186.580
456,39082.235000,237.256,68.166,5.511,424.016,239.595,-107.681,125.800,67.290,-72.580
457,39082.273000,251.067,52.008,3.507,423.130,240.406,-109.644,-9.200,-27.710,-38.580
458,39082.294000,234.297,49.988,-14.528,424.901,249.116,-108.362,-448.200,-128.710,-54.580
459,39082.334000,237.256,38.880,-2.505,421.387,250.934,-105.336,-310.200,-148.710,-98.580
460,39082.373000,267.838,24.742,-7.515,418.745,249.224,-104.407,-392.200,-209.710,-94.580
461,39082.418000,252.054,41.909,12.524,419.615,249.112,-108.380,-69.200,-253.710,-39.580
462,39082.453000,240.216,68.166,-12.524,418.726,253.338,-112.217,-335.200,-278.710,14.420
463,39082.495000,256.000,44.939,-26.552,418.722,251.574,-113.267,-437.200,-232.710,27.420
464,39082.532000,252.054,35.850,-20.540,416.974,258.601,-110.066,-265.200,-176.710,68.420
465,39082.552000,253.040,46.959,-8.517,417.846,255.074,-112.164,-19.200,-137.710,63.420
466,39082.592000,242.189,35.850,24.548,416.961,256.753,-114.098,-207.200,-265.710,98.420
467,39082.638000,235.283,34.840,13.526,415.160,250.338,-126.228,-58.200,-557.710,64.420
468,39082.679000,258.960,46.959,-28.556,415.139,247.536,-133.270,10.800,-619.710,17.420
469,39082.714000,236.270,43.929,-42.583,408.926,247.081,-149.192,-7.200,-811.710,-28.580
470,39082.758000,274.744,7.574,-32.564,401.835,252.673,-165.914,113.800,-678.710,-136.580
471,39082.778000,234.297,60.087,-102.701,395.633,254.038,-178.799,408.800,-500.710,-257.580
472,39082.818000,233.310,46.959,-101.699,393.856,256.472,-184.684,227.800,-199.710,-193.580
473,39082.859000,225.418,62.107,-110.716,394.736,259.917,-185.562,4.800,137.290,-8.580
474,39082.893000,285.595,12.623,-87.671,399.168,257.598,-175.693,-4.200,476.290,28.420
475,39082.934000,226.405,81.294,-47.593,398.307,250.906,-166.976,125.800,603.290,-70.580
476,39082.974000,206.674,77.254,-44.587,406.274,253.882,-153.945,-291.200,620.290,120.420
477,39083.14000,228.378,40.899,-48.595,408.077,259.458,-140.849,-98.200,678.290,187.420
478,39083.33000,270.798,5.554,7.515,413.392,256.300,-130.012,115.800,541.290,25.420
479,39083.75000,235.283,83.314,-9.519,414.279,257.225,-127.993,205.800,324.290,-70.580
480,39083.115000,251.067,43.929,-33.566,414.304,256.610,-119.076,102.800,373.290,14.420
481,39083.157000,255.013,33.830,14.528,416.072,253.224,-116.201,222.800,349.290,-30.580
482,39083.200000,255.013,60.087,-13.526,416.077,256.724,-115.095,70.800,279.290,-53.580
483,39083.238000,235.283,52.008,-9.519,421.383,253.481,-107.239,229.800,349.290,-11.580
484,39083.258000,252.054,49.988,6.513,418.750,251.856,-103.328,0.800,258.290,-1.580
485,39083.299000,257.973,39.890,-8.517,421.412,258.075,-98.153,57.800,219.290,-4.580
486,39083.334000,246.135,38.880,-9.519,423.180,255.556,-95.250,194.800,276.290,-16.580
487,39083.375000,246.135,64.126,9.519,421.425,257.348,-93.212,174.800,288.290,2.420
488,39083.415000,247.121,52.008,34.568,422.303,253.008,-93.350,279.800,143.290,87.420
489,39083.455000,220.486,31.811,12.524,420.541,252.139,-93.383,196.800,-97.710,45.420
490,39083.497000,269.811,71.195,10.521,422.283,245.055,-98.573,27.800,-208.710,55.420
491,39083.515000,197.796,28.781,-16.532,425.787,241.417,-104.637,151.800,-191.710,163.420
492,39083.556000,281.649,23.732,-10.521,427.548,243.126,-105.569,-195.200,-164.710,180.420
493,39083.598000,265.865,30.801,6.513,429.295,238.675,-109.680,333.800,-106.710,251.420
494,39083.638000,251.067,37.870,11.523,430.166,233.411,-111.834,179.800,-216.710,233.420
495,39083.677000,265.865,37.870,-8.517,431.898,226.215,-120.999,188.800,-255.710,219.420
496,39083.717000,256.987,32.821,-14.528,435.395,213.896,-127.346,451.800,-90.710,225.420
497,39083.738000,265.865,-4.544,-93.683,433.621,212.046,-131.383,-72.200,-51.710,166.420
498,39083.778000,248.108,-9.594,-109.714,438.933,217.484,-123.246,-333.200,91.290,170.420
499,39083.817000,230.351,54.028,-185.863,438.045,214.823,-125.321,-365.200,-381.710,189.420
500,39083.858000,233.310,19.692,-217.926,430.957,214.423,-139.259,-709.200,-1156.710,67.420
501,39083.898000,223.445,-1.515,-188.869,415.861,205.473,-179.317,1229.800,-1449.710,14.420
502,39083.938000,247.121,5.554,-146.787,393.700,194.614,-225.418,921.800,-1714.710,-28.580
503,39083.978000,263.892,18.682,-120.736,375.996,179.112,-251.795,674.800,-1724.710,8.420
504,39084.3000,273.757,26.761,-69.636,352.108,170.325,-285.919,695.800,-1569.710,-8.580
505,39084.42000,265.865,34.840,-55.609,331.758,158.238,-314.180,825.800,-1222.710,-24.580
506,39084.75000,246.135,25.751,-31.562,314.960,149.879,-333.372,520.800,-942.710,-10.580
507,39084.117000,232.324,1.515,-60.618,308.781,155.781,-339.158,164.800,-720.710,70.420
508,39084.158000,215.553,6.564,-33.566,296.426,153.839,-346.212,-55.200,-498.710,222.420
509,39084.197000,202.728,8.584,-17.534,291.141,159.015,-347.054,-362.200,-298.710,299.420
510,39084.237000,173.133,0.505,19.538,296.436,159.971,-344.027,-487.200,175.290,352.420
511,39084.257000,148.470,90.383,4.509,302.636,159.446,-332.108,-947.200,634.290,116.420
512,39084.297000,230.351,104.521,-196.885,303.559,177.088,-321.603,-839.200,129.290,13.420
513,39084.335000,283.622,89.373,-49.597,305.350,182.551,-312.483,256.800,123.290,-197.580
514,39084.377000,297.434,1.515,-57.613,303.577,178.993,-315.583,367.800,60.290,-130.580
515,39084.418000,387.206,-61.097,-57.613,300.919,177.982,-320.589,224.800,-62.710,-4.580
516,39084.458000,364.516,-7.574,-73.644,297.391,171.904,-320.798,-9.200,-197.710,101.420
517,39084.478000,288.555,34.840,-62.622,297.375,169.159,-325.852,79.800,-249.710,117.420
518,39084.519000,251.067,62.107,-62.622,294.713,162.940,-331.027,254.800,-311.710,2.420
519,39084.559000,232.324,46.959,-108.712,277.924,162.421,-348.971,9.800,-1012.710,-161.580
520,39084.594000,239.229,36.860,-117.730,267.330,166.500,-357.810,140.800,-1181.710,-295.580
521,39084.634000,215.553,38.880,-69.636,249.645,158.083,-378.993,996.800,-949.710,-315.580
522,39084.674000,179.052,42.919,-16.532,244.318,143.014,-390.421,640.800,38.290,-247.580
523,39084.715000,191.877,-21.712,-35.569,257.548,134.569,-382.709,333.800,798.290,-213.580
524,39084.734000,156.362,2.525,-103.703,274.316,136.599,-372.660,478.800,1541.290,-212.580
525,39084.777000,159.322,36.860,-109.714,307.880,145.252,-343.475,-1233.200,1949.290,-272.580
526,39084.818000,239.229,-40.899,-131.757,345.914,176.087,-296.675,-2161.200,2231.290,-77.580
527,39084.859000,253.040,17.673,-183.859,380.434,190.653,-242.470,-1032.200,2317.290,249.420
528,39084.900000,257.973,56.047,-171.836,405.230,201.430,-199.342,-697.200,1811.290,218.420
529,39084.940000,245.148,17.673,-156.806,415.000,204.802,-172.391,-537.200,1463.290,139.420
530,39084.955000,253.040,37.870,-156.806,426.526,209.855,-147.365,-764.200,858.290,40.420
531,39084.997000,197.796,28.781,-154.802,430.117,215.685,-125.318,-486.200,532.290,26.420
532,39085.37000,238.243,29.791,-190.873,431.875,214.790,-126.335,-205.200,-145.710,-246.580
533,39085.80000,236.270,2.525,-14.528,434.512,214.736,-128.314,501.800,302.290,-191.580
534,39085.118000,296.447,41.909,-31.562,433.639,217.395,-126.245,126.800,259.290,-97.580
535,39085.159000,272.771,18.682,-6.513,434.548,225.433,-118.037,-765.200,57.290,-233.580
536,39085.199000,272.771,29.791,4.509,431.916,231.564,-115.860,138.800,74.290,-209.580
537,39085.220000,241.202,11.613,-13.526,424.873,230.747,-113.924,-365.200,-43.710,-230.580
538,39085.259000,293.487,15.653,-23.546,421.354,237.688,-113.710,56.800,13.290,-223.580
539,39085.303000,267.838,12.623,-33.566,422.242,238.613,-111.691,-4.200,160.290,-163.580
540,39085.338000,282.636,30.801,44.587,418.712,238.554,-113.690,500.800,106.290,-127.580
541,39085.378000,245.148,47.968,-17.534,417.824,236.761,-115.737,534.800,18.290,-0.580
542,39085.418000,231.337,79.274,2.505,419.567,241.745,-123.514,462.800,9.290,2.420
543,39085.438000,230.351,60.087,5.511,419.547,237.236,-129.618,462.800,-12.710,21.420
544,39085.478000,230.351,99.471,11.523,418.658,233.707,-131.721,166.800,-118.710,-69.580
545,39085.518000,267.838,10.604,-19.538,418.664,234.632,-129.705,-392.200,-280.710,20.420
546,39085.558000,268.825,-1.515,-40.579,417.767,235.330,-135.643,-61.200,-272.710,55.420
547,39085.599000,247.121,48.978,-20.540,415.122,237.036,-136.590,-389.200,-224.710,16.420
548,39085.640000,256.000,49.988,-24.548,415.112,234.347,-139.656,-360.200,-248.710,63.420
549,39085.680000,257.973,59.077,31.562,415.981,234.235,-143.629,-290.200,-423.710,74.420
550,39085.700000,172.146,82.304,-23.546,409.816,242.854,-145.355,-460.200,-469.710,-152.580
551,39085.740000,203.715,122.698,-35.569,405.393,249.570,-153.095,-679.200,-564.710,9.420
552,39085.785000,288.555,-40.899,-17.534,405.372,251.081,-160.990,-385.200,-801.710,40.420
553,39085.815000,267.838,17.673,-27.554,397.399,252.360,-176.862,158.800,-725.710,-191.580
554,39085.855000,231.337,61.097,-129.753,392.957,248.547,-188.916,286.800,-356.710,-83.580
555,39085.910000,258.960,39.890,-95.687,392.073,251.962,-190.794,210.800,-253.710,-1.580
556,39085.938000,288.555,29.791,-93.683,392.945,251.010,-193.801,97.800,194.290,30.420
557,39085.957000,229.364,47.968,-83.663,397.375,250.399,-184.869,-56.200,427.290,31.420
558,39085.995000,236.270,66.146,-48.595,398.286,248.973,-173.990,9.800,514.290,69.420
559,39086.39000,241.202,63.116,-24.548,404.480,251.835,-164.940,-294.200,484.290,95.420
560,39086.75000,242.189,16.663,-36.571,408.033,245.232,-153.227,-376.200,432.290,103.420
561,39086.120000,269.811,-6.564,-11.523,410.708,247.280,-142.229,-400.200,320.290,92.420
562,39086.160000,252.054,5.554,-26.552,408.957,246.523,-138.287,236.800,256.290,-7.580
563,39086.180000,260.933,40.899,-47.593,416.012,249.188,-136.192,438.800,354.290,27.420
564,39086.220000,247.121,62.107,-21.542,415.132,245.744,-135.314,534.800,439.290,30.420
565,39086.255000,237.256,57.057,-9.519,418.670,242.444,-129.452,193.800,270.290,51.420
566,39086.299000,234.297,40.899,-10.521,420.425,241.521,-131.462,367.800,185.290,69.420
567,39086.339000,230.351,42.919,-14.528,420.430,239.841,-129.531,94.800,-37.710,66.420
568,39086.379000,245.148,78.264,15.530,422.175,232.785,-133.726,95.800,-195.710,92.420
569,39086.418000,255.013,25.751,-29.558,420.400,230.068,-137.792,-12.200,-242.710,115.420
570,39086.439000,241.202,32.821,-35.569,422.138,223.796,-144.941,-19.200,-90.710,121.420
571,39086.479000,241.202,36.860,-6.513,422.139,225.532,-144.884,-176.200,-283.710,153.420
572,39086.519000,262.906,58.067,19.538,422.991,217.495,-153.086,89.800,-385.710,167.420
573,39086.560000,266.852,9.594,-46.591,421.208,215.560,-160.106,86.800,-299.710,136.420
574,39086.600000,259.946,11.613,-47.593,422.967,223.289,-162.828,-86.200,-238.710,135.420
575,39086.640000,253.040,8.584,-50.599,422.951,216.233,-167.029,36.800,-229.710,128.420
576,39086.685000,237.256,22.722,-59.616,421.172,204.863,-170.383,265.800,-53.710,121.420
577,39086.700000,249.094,32.821,-49.597,422.938,210.940,-170.180,188.800,56.290,139.420
578,39086.740000,262.906,31.811,-82.661,421.169,204.835,-171.377,39.800,-93.710,79.420
579,39086.780000,256.987,35.850,-208.908,423.781,207.971,-183.183,692.800,-326.710,-48.580
580,39086.819000,210.620,35.850,-205.902,413.152,199.644,-201.361,528.800,-672.710,-54.580
581,39086.860000,214.566,-23.732,-186.865,401.640,194.732,-221.417,502.800,-1077.710,-132.580
582,39086.899000,229.364,-10.604,-157.808,383.924,186.006,-253.532,624.800,-1346.710,-73.580
583,39086.920000,237.256,-10.604,-145.785,361.812,178.229,-282.652,450.800,-1414.710,10.420
584,39086.962000,233.310,-13.633,-121.738,343.243,172.360,-305.741,257.800,-1285.710,151.420
585,39087.4000,234.297,-1.515,-103.703,328.234,173.747,-317.660,94.800,-1078.710,225.420
586,39087.40000,234.297,7.574,-92.681,312.328,165.501,-332.873,118.800,-818.710,228.420
587,39087.82000,215.553,19.692,-87.671,305.251,160.034,-342.010,143.800,-584.710,223.420
588,39087.124000,208.647,19.692,-80.658,297.306,156.415,-347.118,172.800,-391.710,199.420
589,39087.160000,188.917,17.673,-71.640,289.358,153.637,-353.192,295.800,-275.710,117.420
590,39087.182000,168.200,27.771,-59.616,288.461,146.579,-357.396,-19.200,-140.710,122.420
591,39087.222000,184.971,20.702,16.532,289.356,146.721,-352.423,-197.200,257.290,6.420
592,39087.262000,158.335,91.393,-199.890,292.033,154.816,-342.222,-314.200,542.290,66.420
593,39087.303000,196.809,48.978,-175.843,292.931,158.430,-337.137,-28.200,-22.710,-148.580
594,39087.337000,328.015,40.899,-85.667,294.669,148.714,-343.405,446.800,11.290,-118.580
595,39087.377000,318.150,-17.673,-90.677,291.155,150.532,-340.378,-256.200,-6.710,-91.580
596,39087.397000,374.382,-25.751,-76.650,288.510,155.682,-342.205,297.800,49.290,-19.580
597,39087.437000,330.975,6.564,-57.613,287.616,149.521,-345.387,125.800,-134.710,23.420
598,39087.477000,276.717,26.761,-74.646,287.604,148.540,-349.391,174.800,-319.710,-26.580
599,39087.523000,256.987,41.909,-102.701,278.764,142.204,-358.562,456.800,-497.710,-215.580
600,39087.557000,227.391,44.939,-133.761,269.029,134.859,-372.733,656.800,-776.710,-277.580
601,39087.597000,198.782,9.594,-100.697,255.772,130.115,-386.831,615.800,-572.710,-257.580
602,39087.638000,167.214,19.692,-34.568,252.229,123.895,-392.010,332.800,-56.710,-253.580
603,39087.658000,185.958,19.692,-47.593,258.408,128.324,-388.867,-353.200,450.290,-234.580
604,39087.699000,199.769,24.742,-57.613,276.962,147.828,-374.273,-1125.200,1100.290,-233.580
605,39087.742000,196.809,11.613,-95.687,304.367,171.205,-345.623,-1127.200,1405.290,-55.580
606,39087.782000,213.580,8.584,-142.779,332.660,183.439,-312.366,-868.200,1762.290,90.420
607,39087.823000,223.445,3.535,-130.755,359.171,191.163,-285.220,-393.200,1922.290,67.420
608,39087.858000,234.297,2.525,-140.775,384.826,192.252,-247.369,-403.200,1917.290,20.420
609,39087.883000,232.324,2.525,-160.814,409.611,202.916,-208.217,-323.200,1908.290,50.420
610,39087.923000,262.906,47.968,-187.867,424.712,207.610,-165.317,-568.200,1522.290,45.420
611,39087.963000,227.391,23.732,-196.885,431.820,209.075,-144.394,-815.200,1021.290,-34.580
612,39088.2000,218.513,68.166,-225.941,436.273,216.445,-129.246,-487.200,282.290,-259.580
613,39088.42000,242.189,-4.544,13.526,435.389,217.284,-130.215,110.800,72.290,-168.580
614,39088.82000,294.474,-26.761,-85.667,432.736,221.481,-135.052,36.800,-110.710,-168.580
615,39088.123000,258.960,37.870,-36.571,428.355,226.883,-127.940,-619.200,-71.710,-268.580
616,39088.142000,236.270,52.008,-31.562,428.370,239.959,-125.529,-52.200,116.290,-192.580
617,39088.178000,268.825,22.722,-19.538,428.379,237.468,-121.638,-26.200,157.290,-158.580
618,39088.218000,264.879,38.880,-11.523,420.460,242.727,-119.507,-35.200,179.290,-183.580
619,39088.259000,245.148,52.008,-5.511,423.993,250.569,-118.248,58.800,149.290,-121.580
620,39088.299000,250.081,63.116,-17.534,421.355,245.444,-115.444,217.800,207.290,-48.580
621,39088.342000,229.364,62.107,-3.507,424.884,248.947,-114.326,-92.200,138.290,-60.580
622,39088.382000,241.202,35.850,11.523,425.776,252.504,-111.229,-50.200,27.290,-60.580
623,39088.402000,260.933,44.939,-9.519,421.381,254.321,-108.205,-341.200,-134.710,-79.580
624,39088.442000,247.121,35.850,-13.526,424.022,252.587,-108.253,-57.200,-126.710,-41.580
625,39088.484000,261.919,54.028,-21.542,420.485,249.000,-112.352,-49.200,-50.710,-17.580
626,39088.518000,242.189,58.067,-16.532,418.732,249.951,-109.348,58.800,33.290,25.420
627,39088.558000,233.310,66.146,16.532,417.846,247.318,-110.429,-100.200,-135.710,51.420
628,39088.600000,238.243,52.008,9.519,420.477,249.783,-115.306,-177.200,-260.710,62.420
629,39088.620000,236.270,57.057,-13.526,423.113,256.616,-119.048,-277.200,-360.710,68.420
630,39088.662000,242.189,30.801,-21.542,421.340,255.634,-123.057,-349.200,-479.710,88.420
631,39088.702000,248.108,58.067,-19.538,420.439,255.437,-130.017,-227.200,-532.710,112.420
632,39088.743000,258.960,35.850,-30.560,421.296,250.900,-137.113,-255.200,-509.710,166.420
633,39088.778000,268.825,-12.623,-13.526,417.752,249.832,-144.110,-124.200,-739.710,11.420
634,39088.823000,184.971,86.343,-41.581,411.528,244.953,-163.155,119.800,-1026.710,-107.580
635,39088.863000,219.499,56.047,-53.605,401.775,244.326,-185.052,165.800,-886.710,-89.580
636,39088.878000,245.148,3.535,-70.638,393.808,249.974,-199.789,256.800,-698.710,-103.580
637,39088.918000,273.757,44.939,-94.685,391.138,251.426,-209.681,-28.200,-430.710,-150.580
638,39088.963000,228.378,45.949,-155.804,385.844,247.026,-211.826,-26.200,-45.710,-43.580
639,39088.999000,260.933,18.682,-102.701,390.275,249.019,-202.811,-198.200,409.290,59.420
640,39089.40000,227.391,65.136,-66.630,398.247,249.447,-187.876,-168.200,603.290,-39.580
641,39089.80000,208.647,33.830,-76.650,401.815,260.232,-174.606,-107.200,732.290,21.420
642,39089.100000,219.499,46.959,-38.575,408.905,259.791,-159.703,-184.200,692.290,119.420
643,39089.140000,269.811,29.791,-33.566,411.583,258.423,-146.830,61.800,650.290,76.420
644,39089.182000,240.216,15.653,-13.526,412.487,258.649,-138.876,-71.200,459.290,-53.580
645,39089.222000,248.108,39.890,-27.554,416.035,260.613,-130.857,173.800,373.290,-65.580
646,39089.262000,249.094,34.840,-26.552,414.279,257.225,-127.993,427.800,386.290,-61.580
647,39089.302000,243.175,66.146,-18.536,413.399,251.204,-126.205,453.800,335.290,-28.580
648,39089.342000,250.081,63.116,-7.515,415.160,249.470,-126.256,430.800,291.290,2.420
649,39089.365000,234.297,60.087,-8.517,416.924,249.499,-125.256,319.800,179.290,37.420
650,39089.399000,248.108,47.968,-20.540,418.682,251.180,-127.182,173.800,74.290,70.420
651,39089.439000,241.202,31.811,-21.542,423.961,249.391,-129.209,231.800,76.290,46.420
652,39089.482000,249.094,70.185,-4.509,420.446,250.341,-126.211,47.800,19.290,23.420
653,39089.520000,244.162,38.880,-15.530,421.314,239.870,-128.534,53.800,-23.710,64.420
654,39089.562000,243.175,34.840,-17.534,421.317,244.210,-128.393,71.800,-90.710,41.420
655,39089.583000,251.067,82.304,-11.523,422.184,240.626,-132.478,56.800,-102.710,59.420
656,39089.620000,226.405,60.087,-24.548,425.706,238.892,-132.523,-307.200,-126.710,128.420
657,39089.659000,276.717,7.574,-17.534,424.825,242.335,-133.407,-56.200,-124.710,122.420
658,39089.699000,246.135,35.850,-12.524,424.807,236.119,-138.574,150.800,-195.710,146.420
659,39089.745000,262.906,63.116,-24.548,421.269,236.843,-143.527,-120.200,-407.710,175.420
660,39089.779000,263.892,10.604,-69.636,423.898,233.260,-147.607,74.800,-196.710,156.420
661,39089.819000,248.108,22.722,-57.613,429.168,223.632,-150.881,166.800,73.290,190.420
662,39089.843000,256.987,26.761,-32.564,430.928,217.585,-150.079,180.800,-8.710,183.420
663,39089.883000,237.256,25.751,-50.599,430.918,219.209,-153.998,134.800,-151.710,124.420
664,39089.923000,241.202,48.978,-178.849,426.475,209.348,-165.255,247.800,-646.710,35.420
665,39089.963000,243.175,16.663,-166.826,419.374,216.563,-185.897,20.800,-992.710,-1.580
666,39090.4000,256.987,-7.574,-177.847,402.558,211.478,-211.933,462.800,-1155.710,-108.580
667,39090.39000,256.987,-2.525,-191.875,387.492,196.791,-240.262,849.800,-1342.710,-39.580
668,39090.62000,220.486,-1.515,-196.885,370.659,190.669,-272.290,418.800,-1565.710,72.420
669,39090.102000,202.728,-9.594,-158.810,346.791,186.391,-300.309,95.800,-1555.710,161.420
670,39090.147000,202.728,5.554,-148.791,323.813,178.754,-324.463,125.800,-1308.710,219.420
671,39090.183000,213.580,15.653,-99.695,306.150,172.271,-338.631,81.800,-1066.710,225.420
672,39090.230000,222.459,21.712,-79.656,293.796,174.641,-346.538,95.800,-759.710,197.420
673,39090.259000,218.513,24.742,-122.740,288.494,172.760,-351.581,84.800,-477.710,118.420
674,39090.299000,241.202,47.968,-58.614,277.018,166.479,-358.773,464.800,-255.710,49.420
675,39090.325000,207.661,9.594,-13.526,274.367,162.948,-360.882,77.800,-111.710,52.420
676,39090.365000,196.809,-0.505,15.530,281.409,152.566,-360.203,517.800,479.290,79.420
677,39090.400000,195.823,9.594,-9.519,293.772,145.969,-348.462,298.800,793.290,217.420
678,39090.447000,176.092,128.757,-163.820,303.508,161.938,-335.996,-528.200,454.290,53.420
679,39090.482000,110.983,35.850,-165.824,300.907,177.002,-324.593,-782.200,213.290,-123.580
680,39090.522000,256.000,99.471,-128.751,302.666,172.663,-324.728,587.800,129.290,-235.580
681,39090.562000,276.717,-70.185,-50.599,295.601,169.045,-329.833,335.800,-181.710,-231.580
682,39090.582000,408.909,-30.801,-93.683,292.945,162.015,-333.049,234.800,-190.710,-19.580
683,39090.622000,394.112,6.564,-79.656,289.415,161.956,-335.048,-292.200,-260.710,62.420
684,39090.662000,383.260,27.771,-41.581,287.650,165.370,-336.929,179.800,-381.710,73.420
685,39090.703000,337.881,27.771,-25.550,278.795,160.601,-352.007,274.800,-589.710,-67.580
686,39090.744000,290.528,12.623,-145.785,265.535,152.385,-366.218,574.800,-906.710,-197.580
687,39090.784000,228.378,67.156,-123.742,242.562,139.625,-387.558,1080.800,-1097.710,-355.580
688,39090.804000,202.728,56.047,-80.658,231.057,130.486,-403.779,472.800,-736.710,-413.580
689,39090.842000,164.254,6.564,-49.597,226.643,129.530,-406.803,-290.200,-304.710,-372.580
690,39090.883000,144.524,-25.751,-40.579,232.838,140.148,-399.488,-242.200,707.290,-210.580
691,39090.920000,140.578,22.722,-68.634,261.072,149.215,-386.195,-340.200,1486.290,-83.580
692,39090.960000,174.119,12.623,-107.710,306.136,179.886,-345.335,-1303.200,2128.290,15.420
693,39091.0,190.890,7.574,-156.806,335.321,196.545,-308.954,-1682.200,2567.290,330.420
694,39091.45000,225.418,28.781,-231.953,378.661,209.494,-250.801,-1142.200,2429.290,510.420
695,39091.65000,241.202,49.988,-231.953,406.999,214.423,-199.908,-1126.200,2011.290,467.420
696,39091.100000,194.836,10.604,-188.869,425.608,216.375,-162.051,-225.200,1466.290,205.420
697,39091.143000,211.607,23.732,-172.838,435.355,209.190,-140.407,428.800,1493.290,-2.580
698,39091.184000,200.755,197.428,-388.258,441.558,212.137,-128.376,518.800,571.290,-484.580
699,39091.225000,278.690,-70.185,67.632,442.427,211.157,-132.377,412.800,283.290,4.420
700,39091.267000,328.015,19.692,-34.568,444.227,221.016,-121.128,-1429.200,-110.710,-183.580
701,39091.287000,274.744,-24.742,-12.524,441.592,224.542,-119.036,206.800,-118.710,-182.580
702,39091.320000,228.378,70.185,-45.589,438.943,231.372,-122.795,0.800,-81.710,-140.580
703,39091.360000,239.229,33.830,-32.564,438.075,233.220,-118.766,-175.200,56.290,-117.580
704,39091.402000,240.216,36.860,-24.548,437.198,234.115,-117.747,-42.200,189.290,-179.580
705,39091.448000,258.960,45.949,15.530,432.789,233.216,-118.783,646.800,158.290,-178.580
706,39091.487000,232.324,26.761,-0.501,431.916,240.187,-117.567,-322.200,-69.710,-131.580
707,39091.524000,255.013,81.294,-11.523,433.687,243.717,-115.460,-300.200,-64.710,-159.580
708,39091.544000,275.730,5.554,-40.579,432.828,251.697,-109.246,-649.200,-49.710,-86.580
709,39091.584000,254.027,22.722,-11.523,430.198,253.544,-105.223,-143.200,3.290,-119.580
710,39091.625000,258.960,42.919,-24.548,425.785,249.144,-107.366,-138.200,-108.710,-85.580
711,39091.662000,243.175,54.028,-7.515,425.780,249.956,-109.325,117.800,-76.710,-73.580
712,39091.703000,243.175,58.067,-21.542,423.137,258.578,-111.040,-61.200,-95.710,-39.580
713,39091.742000,249.094,58.067,-34.568,428.428,254.326,-108.182,-155.200,-65.710,14.420
714,39091.762000,254.027,43.929,-26.552,424.903,251.720,-108.278,-203.200,20.290,63.420
715,39091.805000,238.243,23.732,-9.519,426.669,261.241,-108.956,-199.200,18.290,41.420
716,39091.842000,246.135,72.205,17.534,424.029,254.379,-106.208,-253.200,-156.710,94.420
717,39091.888000,227.391,48.978,-17.534,428.439,261.326,-105.969,-491.200,-336.710,155.420
718,39091.928000,267.838,18.682,-19.538,426.661,258.580,-111.029,-120.200,-211.710,81.420
719,39091.963000,255.013,40.899,-22.544,431.052,251.555,-114.222,-62.200,-339.710,40.420
720,39092.5000,237.256,47.968,-1.503,426.620,248.694,-123.265,-28.200,-572.710,1.420
721,39092.27000,259.946,17.673,-32.564,421.306,251.853,-134.103,128.800,-529.710,-44.580
722,39092.62000,262.906,22.722,-56.611,420.387,254.062,-147.936,285.800,-369.710,-82.580
723,39092.104000,230.351,60.087,-57.613,414.204,255.624,-153.863,163.800,-324.710,-168.580
724,39092.145000,254.027,47.968,-87.671,415.084,258.201,-154.770,242.800,35.290,-126.580
725,39092.182000,248.108,61.097,-75.648,408.920,257.356,-153.824,-149.200,135.290,-68.580
726,39092.225000,239.229,38.880,-55.609,415.107,254.982,-145.937,92.800,297.290,-33.580
727,39092.243000,225.418,69.176,-63.624,415.125,260.331,-140.799,-94.200,437.290,48.420
728,39092.284000,257.973,36.860,-13.526,416.909,259.690,-132.870,-22.200,395.290,43.420
729,39092.325000,247.121,5.554,-33.566,419.566,254.653,-127.067,-100.200,285.290,-57.580
730,39092.367000,261.919,41.909,-31.562,419.578,264.257,-124.769,253.800,328.290,-94.580
731,39092.402000,254.027,32.821,-20.540,421.340,255.634,-123.057,423.800,379.290,-59.580
732,39092.447000,257.973,58.067,-19.538,418.708,255.745,-119.090,377.800,412.290,-41.580
733,39092.487000,245.148,9.594,-27.554,422.246,252.445,-113.228,542.800,542.290,42.420
734,39092.502000,256.987,67.156,12.524,424.881,252.362,-116.201,727.800,246.290,21.420
735,39092.542000,240.216,74.225,-31.562,423.104,243.596,-119.470,527.800,239.290,53.420
736,39092.584000,238.243,49.988,-32.564,428.408,248.949,-114.315,604.800,391.290,26.420
737,39092.622000,226.405,56.047,17.534,428.405,245.477,-114.427,452.800,288.290,34.420
738,39092.662000,237.256,67.156,22.544,430.163,243.714,-115.472,175.800,14.290,31.420
739,39092.707000,234.297,56.047,-0.501,429.270,242.733,-119.478,-119.200,-183.710,21.420
740,39092.727000,245.148,19.692,-13.526,427.502,241.807,-121.500,-28.200,-323.710,51.420
741,39092.767000,253.040,96.442,31.562,429.230,234.583,-131.659,290.800,-343.710,50.420
742,39092.802000,259.946,25.751,-17.534,426.575,233.600,-135.671,-288.200,-310.710,145.420
743,39092.848000,266.852,13.633,-37.573,428.334,237.017,-137.541,144.800,-188.710,150.420
744,39092.882000,241.202,25.751,-44.587,428.308,232.452,-145.633,177.800,-140.710,159.420
745,39092.922000,233.310,102.501,3.507,428.296,224.584,-147.874,345.800,-50.710,166.420
746,39092.964000,255.013,58.067,-30.560,428.300,225.480,-146.852,-361.200,-79.710,162.420
747,39092.984000,254.027,14.643,-27.554,431.820,216.831,-146.129,-130.200,-28.710,165.420
748,39093.25000,262.906,11.613,-15.530,431.812,213.302,-148.229,5.800,-78.710,121.420
749,39093.65000,283.622,18.682,-37.573,435.340,219.381,-148.021,15.800,-131.710,102.420
750,39093.105000,259.946,29.791,-92.681,433.566,217.531,-152.058,-225.200,-225.710,102.420
751,39093.147000,244.162,38.880,-179.851,432.679,220.918,-154.930,-565.200,-507.710,65.420
752,39093.184000,233.310,-18.682,-213.918,423.820,216.121,-171.002,-637.200,-885.710,35.420
753,39093.225000,203.715,-10.604,-223.937,414.068,212.918,-191.990,690.800,-1213.710,-61.580
754,39093.245000,227.391,-12.623,-199.890,394.579,207.522,-228.968,847.800,-1479.710,-49.580
755,39093.290000,232.324,-3.535,-172.838,368.905,181.261,-267.636,760.800,-1687.710,33.420
756,39093.328000,249.094,0.505,-150.795,343.258,181.124,-302.478,607.800,-1649.710,120.420
757,39093.367000,247.121,2.525,-127.750,316.754,166.569,-325.874,575.800,-1457.710,180.420
758,39093.403000,221.472,9.594,-88.673,303.484,164.288,-344.857,484.800,-1202.710,258.420
759,39093.457000,183.985,1.515,-95.687,287.598,158.815,-354.022,-94.200,-729.710,381.420
760,39093.470000,203.715,26.761,-21.542,282.299,153.519,-357.190,-316.200,-349.710,370.420
761,39093.509000,201.742,11.613,26.552,283.197,153.688,-351.224,-522.200,53.290,426.420
762,39093.543000,204.701,54.028,33.566,292.017,152.072,-347.276,78.800,433.290,352.420
763,39093.588000,234.297,67.156,120.736,299.096,148.075,-335.467,-130.200,628.290,116.420
764,39093.623000,268.825,61.097,-195.883,299.988,159.388,-334.104,137.800,-6.710,-270.580
765,39093.663000,360.570,-15.653,-54.607,299.078,142.726,-340.606,1124.800,-70.710,-184.580
766,39093.703000,385.233,-1.515,-64.626,289.397,148.851,-338.452,-456.200,-313.710,-47.580
767,39093.723000,378.328,7.574,-79.656,280.573,151.280,-344.360,-269.200,-285.710,-1.580
768,39093.765000,332.948,10.604,-98.693,282.332,155.565,-346.201,16.800,-128.710,-9.580
769,39093.807000,270.798,23.732,-80.658,278.794,147.666,-349.447,358.800,-119.710,-115.580
770,39093.848000,265.865,42.919,-102.701,266.408,141.970,-366.553,361.800,-831.710,-307.580
771,39093.888000,243.175,27.771,-149.793,257.570,145.125,-377.402,689.800,-958.710,-399.580
772,39093.928000,215.553,27.771,-119.734,241.648,133.267,-397.697,822.800,-889.710,-283.580
773,39093.948000,174.119,19.692,-24.548,235.469,132.281,-401.721,-482.200,-157.710,-164.580
774,39093.988000,135.645,-29.791,-49.597,246.960,146.459,-391.294,-603.200,506.290,-75.580
775,39094.33000,142.551,-9.594,-57.613,261.968,151.092,-381.166,-372.200,1270.290,-65.580
776,39094.63000,221.472,25.751,-85.667,296.414,164.058,-352.831,-828.200,2101.290,-83.580
777,39094.105000,221.472,13.633,-119.734,337.959,182.715,-307.408,-1256.200,2427.290,-22.580
778,39094.145000,250.081,-1.515,-156.806,380.409,194.712,-252.268,-798.200,2561.290,135.420
779,39094.187000,269.811,64.126,-193.879,399.000,199.070,-221.284,-485.200,2357.290,55.420
780,39094.207000,227.391,18.682,-234.959,422.939,215.252,-171.033,-532.200,1747.290,-8.580
781,39094.248000,183.985,1.515,-169.832,434.470,218.625,-144.076,-168.200,1049.290,-113.580
782,39094.289000,300.393,69.176,-236.963,434.492,225.738,-137.887,246.800,83.290,-541.580
783,39094.329000,266.852,-5.554,17.534,432.736,221.481,-135.052,-515.200,-22.710,-87.580
784,39094.372000,344.786,-108.560,-53.605,434.509,225.907,-131.924,-675.200,-25.710,-49.580
785,39094.408000,325.056,9.594,1.503,430.997,230.329,-128.812,-358.200,28.290,-206.580
786,39094.429000,230.351,54.028,-32.564,431.000,241.556,-130.434,231.800,57.290,-166.580
787,39094.464000,239.229,38.880,-21.542,428.368,241.667,-126.467,-95.200,51.290,-117.580
788,39094.505000,229.364,40.899,-28.556,426.620,245.251,-122.384,9.800,120.290,-127.580
789,39094.545000,246.135,45.949,-20.540,422.221,248.747,-121.292,-64.200,208.290,-125.580
790,39094.584000,244.162,19.692,-23.546,426.647,247.240,-113.383,79.800,321.290,-139.580
791,39094.629000,261.919,29.791,-0.501,424.893,245.587,-110.463,133.800,285.290,-166.580
792,39094.664000,256.987,30.801,-7.515,425.790,256.088,-107.140,-232.200,210.290,-156.580
793,39094.685000,261.919,21.712,-11.523,426.682,256.202,-103.162,326.800,89.290,-36.580
794,39094.725000,264.879,54.028,11.523,420.490,248.188,-110.393,359.800,-10.710,53.420
795,39094.765000,227.391,65.136,-9.519,423.125,245.530,-112.456,439.800,20.290,14.420
796,39094.808000,224.432,67.156,6.513,423.118,251.493,-116.235,242.800,24.290,1.420
797,39094.848000,237.256,77.254,-2.505,423.994,247.993,-117.339,-43.200,-67.710,-29.580
798,39094.888000,245.148,46.959,-24.548,422.232,247.992,-117.344,-90.200,-81.710,30.420
799,39094.930000,255.013,38.880,-14.528,425.748,245.334,-119.405,-131.200,-46.710,82.420
800,39094.948000,241.202,42.919,-2.505,424.864,241.862,-119.521,-73.200,-91.710,80.420
801,39094.993000,244.162,63.116,26.552,425.737,238.334,-121.619,-37.200,-237.710,101.420
802,39095.29000,229.364,42.919,-12.524,423.091,246.060,-124.355,-257.200,-398.710,108.420
803,39095.69000,262.906,25.751,9.519,423.066,242.362,-132.419,-205.200,-435.710,61.420
804,39095.108000,249.094,40.899,25.550,418.621,244.541,-147.258,-101.200,-792.710,13.420
805,39095.148000,226.405,32.821,-47.593,414.174,240.671,-161.299,-9.200,-920.710,-49.580
806,39095.167000,242.189,59.077,-27.554,407.089,243.743,-175.124,-121.200,-922.710,-122.580
807,39095.208000,257.973,26.761,-111.718,400.872,244.968,-192.978,-138.200,-733.710,-42.580
808,39095.248000,237.256,75.235,-101.699,394.683,241.294,-200.068,104.800,-428.710,-67.580
809,39095.289000,270.798,5.554,-149.793,397.330,250.816,-200.744,-129.200,-43.710,-18.580
810,39095.328000,263.892,45.949,-93.683,398.220,250.901,-197.759,-107.200,416.290,-75.580
811,39095.365000,228.378,71.195,-33.566,398.263,255.636,-183.704,-29.200,596.290,-95.580
812,39095.407000,221.472,71.195,-65.628,408.000,257.829,-167.713,-276.200,699.290,69.420
813,39095.427000,258.960,-20.702,-36.571,415.979,254.030,-148.944,-225.200,751.290,197.420
814,39095.468000,289.541,-7.574,-10.521,419.523,250.786,-141.094,190.800,656.290,47.420
815,39095.508000,239.229,26.761,-11.523,420.431,252.776,-132.090,120.800,547.290,-72.580
816,39095.548000,242.189,56.047,-26.552,423.086,250.315,-127.196,592.800,531.290,12.420
817,39095.588000,255.013,53.018,4.509,423.097,249.560,-123.249,366.800,469.290,26.420
818,39095.628000,224.432,50.998,-4.509,423.104,244.464,-119.442,516.800,373.290,-4.580
819,39095.649000,245.148,83.314,6.513,426.614,240.882,-123.519,117.800,208.290,16.420
820,39095.689000,228.378,65.136,10.521,426.627,239.287,-118.606,103.800,98.290,42.420
821,39095.729000,249.094,31.811,-4.509,425.750,236.739,-116.705,64.800,8.290,80.420
822,39095.769000,256.000,43.929,6.513,431.023,241.782,-122.483,40.800,-86.710,54.420
823,39095.810000,235.283,47.968,10.521,429.254,240.856,-124.504,44.800,-212.710,70.420
824,39095.849000,260.933,54.028,-14.528,431.008,240.773,-127.480,-0.200,-319.710,121.420
825,39095.892000,251.067,27.771,-20.540,430.967,236.067,-140.542,53.800,-330.710,140.420
826,39095.907000,258.960,53.018,-21.542,430.069,231.585,-145.655,39.800,-350.710,138.420
827,39095.945000,246.135,47.968,-40.579,426.537,224.611,-146.886,49.800,-209.710,156.420
828,39095.987000,257.973,36.860,-24.548,429.168,222.764,-150.910,-123.200,-148.710,140.420
829,39096.25000,239.229,29.791,-25.550,429.163,220.132,-151.988,-264.200,-172.710,112.420
830,39096.67000,254.027,27.771,-30.560,432.688,222.738,-151.892,-126.200,-146.710,104.420
831,39096.108000,254.027,4.544,-25.550,430.033,220.888,-155.933,-44.200,-224.710,103.420
832,39096.129000,260.933,28.781,-31.562,430.905,224.248,-159.793,-76.200,-254.710,73.420
833,39096.170000,256.000,14.643,-69.636,427.372,215.537,-161.080,3.800,-147.710,66.420
834,39096.210000,282.636,9.594,-60.618,428.256,219.009,-160.964,72.800,214.290,87.420
835,39096.245000,238.243,-7.574,-87.671,430.917,214.029,-153.173,-104.200,133.290,62.420
836,39096.285000,247.121,4.544,-167.828,433.557,213.135,-154.187,-656.200,-263.710,241.420
837,39096.325000,253.040,10.604,-240.971,426.486,220.660,-163.895,-1133.200,-938.710,128.420
838,39096.365000,207.661,-37.870,-247.984,412.298,212.832,-194.977,679.800,-1225.710,85.420
839,39096.385000,220.486,-10.604,-200.892,391.040,203.066,-233.096,569.800,-1618.710,127.420
840,39096.425000,232.324,-1.515,-171.836,375.105,188.491,-257.452,271.800,-1715.710,199.420
841,39096.465000,248.108,11.613,-114.724,347.713,187.654,-286.364,341.800,-1616.710,167.420
842,39096.505000,256.987,42.919,-62.622,323.854,176.573,-309.638,530.800,-1207.710,132.420
843,39096.545000,270.798,73.215,-45.589,308.816,165.611,-328.909,516.800,-884.710,115.420
844,39096.587000,236.270,65.136,-49.597,299.095,159.274,-338.083,315.800,-762.710,187.420
845,39096.608000,214.566,35.850,-14.528,291.140,157.279,-347.110,-90.200,-585.710,130.420
846,39096.649000,194.836,3.535,13.526,287.619,157.305,-346.127,-50.200,-216.710,68.420
847,39096.689000,147.484,-3.535,-48.595,293.796,159.130,-343.069,232.800,391.290,183.420
848,39096.730000,142.551,103.511,-81.659,297.343,156.782,-334.197,-780.200,701.290,-54.580
849,39096.770000,172.146,70.185,-185.863,299.138,167.452,-324.908,-781.200,72.290,-145.580
850,39096.805000,328.015,-43.929,-83.663,296.487,171.678,-328.752,540.800,-68.710,-193.580
851,39096.852000,352.678,-76.245,-66.630,292.943,163.722,-333.986,446.800,-146.710,-155.580
852,39096.873000,400.031,-54.028,-74.646,287.654,161.954,-335.053,-161.200,-286.710,22.420
853,39096.908000,356.624,30.801,-75.648,282.364,168.810,-337.827,22.800,-232.710,2.420
854,39096.967000,293.487,30.801,-58.614,282.344,164.301,-343.931,516.800,-203.710,-88.580
855,39096.990000,229.364,14.643,-147.789,271.732,154.407,-356.202,783.800,-417.710,-217.580
856,39097.30000,232.324,41.909,-129.753,256.680,128.661,-376.946,1193.800,-793.710,-327.580
857,39097.72000,208.647,59.077,-149.793,250.476,120.535,-388.152,1082.800,-776.710,-366.580
858,39097.108000,177.079,42.919,-35.569,242.523,122.011,-397.067,97.800,-286.710,-395.580
859,39097.133000,150.443,-35.850,-51.601,252.238,135.179,-391.643,-469.200,540.290,-228.580
860,39097.168000,158.335,-31.811,-68.634,274.308,140.826,-376.495,-256.200,1205.290,-119.580
861,39097.208000,188.917,5.554,-73.644,295.499,148.208,-361.292,-471.200,1832.290,-129.580
862,39097.248000,204.701,-0.505,-127.750,326.478,178.114,-316.531,-1805.200,2076.290,-118.580
863,39097.299000,255.013,-26.761,-145.785,364.497,192.429,-271.260,-882.200,2233.290,97.420
864,39097.330000,264.879,50.998,-168.830,391.939,196.348,-225.367,-485.200,2110.290,114.420
865,39097.350000,240.216,32.821,-161.816,414.083,201.859,-184.405,-682.200,1704.290,124.420
866,39097.390000,255.013,24.742,-149.793,425.618,211.308,-157.251,-742.200,1477.290,45.420
867,39097.430000,240.216,21.712,-179.851,436.290,216.614,-123.283,-139.200,1182.290,-135.580
868,39097.472000,222.459,28.781,-263.014,439.835,222.861,-117.110,405.800,136.290,-255.580
869,39097.507000,264.879,-23.732,7.515,442.479,220.287,-116.193,285.800,180.290,-58.580
870,39097.552000,300.393,-0.505,-23.546,439.849,222.134,-112.169,-829.200,-87.710,-129.580
871,39097.590000,243.175,35.850,-28.556,437.229,227.537,-105.051,63.800,100.290,-167.580
872,39097.608000,243.175,38.880,-31.562,438.104,230.057,-107.946,-27.200,108.290,-126.580
873,39097.653000,258.960,50.998,8.517,434.599,232.828,-101.909,-251.200,145.290,-197.580
874,39097.687000,250.081,10.604,-9.519,437.262,244.226,-97.559,36.800,160.290,-188.580
875,39097.733000,249.094,37.870,-6.513,432.864,246.884,-95.500,-89.200,134.290,-166.580
876,39097.769000,257.973,63.116,22.544,431.988,248.647,-94.453,88.800,149.290,-106.580
877,39097.809000,238.243,60.087,21.542,431.119,249.627,-90.452,-29.200,29.290,-76.580
878,39097.830000,244.162,41.909,-21.542,430.244,253.995,-89.320,-279.200,-65.710,-28.580
879,39097.870000,256.987,22.722,-5.511,429.360,246.210,-88.583,-57.200,-36.710,-14.580
880,39097.910000,242.189,52.008,1.503,429.360,250.522,-89.436,-133.200,-63.710,-41.580
881,39097.950000,240.216,48.978,8.517,430.247,258.335,-89.179,-236.200,-131.710,-33.580
882,39097.990000,257.973,25.751,-5.511,429.352,254.749,-93.271,-252.200,-246.710,-6.580
883,39098.32000,248.108,49.988,1.503,425.824,256.426,-95.213,-168.200,-279.710,-1.580
884,39098.67000,247.121,48.978,-11.523,425.811,258.022,-100.127,-125.200,-315.710,52.420
885,39098.95000,237.256,52.008,10.521,425.789,255.220,-107.169,-224.200,-461.710,96.420
886,39098.130000,246.135,35.850,-23.546,423.998,250.626,-116.260,-222.200,-563.710,75.420
887,39098.172000,248.108,25.751,-25.550,425.749,253.958,-121.111,-240.200,-519.710,-9.580
888,39098.212000,256.987,12.623,7.515,419.546,255.323,-133.996,13.800,-754.710,-82.580
889,39098.252000,256.000,20.702,-1.503,413.327,252.208,-151.991,137.800,-919.710,-187.580
890,39098.292000,230.351,22.722,-75.648,407.120,259.565,-167.660,140.800,-723.710,-196.580
891,39098.313000,247.121,61.097,-64.626,399.148,261.712,-183.504,387.800,-570.710,-148.580
892,39098.353000,253.040,46.959,-127.750,393.847,256.388,-187.665,43.800,-291.710,-52.580
893,39098.392000,240.216,50.998,-136.767,397.368,252.050,-187.795,-96.200,238.290,148.420
894,39098.428000,277.703,-4.544,-112.720,409.738,252.425,-174.834,-74.200,624.290,50.420
895,39098.473000,257.973,50.998,-39.577,409.773,253.631,-162.879,114.800,803.290,-40.580
896,39098.509000,184.971,119.669,-48.595,412.452,257.443,-150.831,8.800,768.290,71.420
897,39098.560000,248.108,4.544,-20.540,419.543,254.427,-135.018,-183.200,695.290,269.420
898,39098.580000,254.027,-29.791,-13.526,423.979,251.296,-123.190,167.800,595.290,94.420
899,39098.613000,270.798,32.821,-18.536,424.895,252.503,-111.232,322.800,536.290,8.420
900,39098.648000,253.040,69.176,-20.540,429.294,245.562,-111.443,680.800,594.290,55.420
901,39098.689000,238.243,22.722,-11.523,430.191,239.684,-104.680,270.800,578.290,69.420
902,39098.728000,242.189,42.919,15.530,431.974,237.307,-96.807,431.800,523.290,15.420
903,39098.770000,212.593,77.254,27.554,434.632,242.629,-92.654,216.800,290.290,2.420
904,39098.810000,235.283,58.067,30.560,434.642,241.874,-88.706,203.800,104.290,42.420
905,39098.832000,235.283,39.890,23.546,433.751,242.629,-92.657,-89.200,-220.710,52.420
906,39098.870000,256.987,25.751,2.505,432.837,240.582,-103.649,-46.200,-381.710,62.420
907,39098.912000,231.337,59.077,-5.511,434.581,238.678,-109.663,-63.200,-436.710,52.420
908,39098.949000,232.324,55.037,-11.523,431.907,228.035,-117.961,-419.200,-535.710,70.420
909,39098.989000,233.310,46.959,-7.515,431.025,240.942,-121.517,-336.200,-564.710,78.420
910,39099.32000,277.703,10.604,-25.550,430.993,236.320,-131.597,-150.200,-594.710,120.420
911,39099.52000,270.798,-0.505,-55.609,428.323,237.773,-141.488,-79.200,-525.710,105.420
912,39099.93000,258.960,18.682,-74.646,430.946,233.266,-147.584,105.800,-222.710,64.420
913,39099.134000,250.081,42.919,-37.573,430.057,226.293,-148.806,270.800,-14.710,130.420
914,39099.168000,268.825,31.811,-32.564,430.929,221.897,-150.932,51.800,16.290,123.420
915,39099.208000,245.148,22.722,-39.577,432.689,215.851,-150.130,98.800,21.290,111.420
916,39099.254000,241.202,25.751,-66.630,431.808,215.850,-150.132,23.800,88.290,89.420
917,39099.288000,242.189,48.978,-68.634,435.346,219.437,-146.033,-37.200,210.290,100.420
918,39099.308000,242.189,26.761,-184.861,437.118,221.259,-142.989,-436.200,44.290,101.420
919,39099.350000,252.054,3.535,-207.906,430.047,221.028,-150.963,216.800,-594.710,6.420
920,39099.390000,228.378,2.525,-211.914,418.507,212.391,-180.077,777.800,-996.710,-61.580
921,39099.432000,225.418,-23.732,-190.873,403.409,204.281,-221.101,1064.800,-1273.710,-118.580
922,39099.472000,235.283,6.564,-164.822,383.950,187.127,-244.559,1268.800,-1513.710,-34.580
923,39099.519000,255.013,20.702,-129.753,360.925,177.304,-284.671,576.800,-1638.710,74.420
924,39099.534000,259.946,21.712,-78.654,336.164,164.289,-314.962,285.800,-1563.710,152.420
925,39099.570000,251.067,20.702,-64.626,312.332,158.641,-330.117,158.800,-1155.710,203.420
926,39099.610000,245.148,12.623,-28.556,305.258,157.515,-339.113,180.800,-729.710,241.420
927,39099.650000,246.135,14.643,-15.530,299.962,154.822,-342.196,86.800,-343.710,302.420
928,39099.692000,220.486,46.959,-0.501,299.073,152.161,-344.272,3.800,38.290,228.420
929,39099.730000,219.499,-34.840,43.585,306.149,152.448,-334.310,-132.200,430.290,160.420
930,39099.770000,153.403,29.791,-72.642,318.502,144.031,-325.606,580.800,916.290,-18.580
931,39099.789000,215.553,82.304,-98.693,322.929,143.391,-317.669,-270.200,453.290,-145.580
932,39099.835000,295.461,-16.663,-78.654,327.350,142.695,-311.719,322.800,482.290,-112.580
933,39099.872000,296.447,-15.653,-62.622,333.531,142.841,-306.730,341.800,366.290,-73.580
934,39099.912000,295.461,33.830,-31.562,335.298,142.030,-304.765,-65.200,107.290,-1.580
935,39099.952000,307.299,42.919,-42.583,333.538,145.501,-304.658,-133.200,-128.710,56.420
936,39100.0,301.380,-20.702,-71.640,331.766,146.255,-308.611,-146.200,-291.710,104.420
937,39100.9000,284.609,-10.604,-58.614,326.463,142.638,-313.710,-201.200,-400.710,99.420
938,39100.49000,271.784,13.633,-43.585,316.741,142.321,-324.674,-141.200,-652.710,48.420
939,39100.89000,246.135,39.890,-111.718,307.018,147.156,-337.458,25.800,-1017.710,-115.580
940,39100.129000,265.865,33.830,-124.744,286.706,144.927,-354.476,229.800,-1387.710,-130.580
941,39100.174000,242.189,59.077,-90.677,268.153,137.490,-371.658,453.800,-1157.710,-215.580
942,39100.214000,202.728,13.633,-10.521,262.845,142.441,-380.451,-188.200,-250.710,-228.580
943,39100.249000,174.119,-23.732,-33.566,266.370,144.179,-380.383,87.800,497.290,-183.580
944,39100.269000,184.971,6.564,-44.587,289.308,135.042,-366.704,402.800,1190.290,-168.580
945,39100.309000,195.823,14.643,-89.675,324.617,134.904,-341.771,-113.200,2015.290,-309.580
946,39100.349000,212.593,10.604,-122.740,357.371,170.972,-293.825,-1200.200,2336.290,-353.580
947,39100.389000,234.297,-37.870,-167.828,396.299,189.013,-239.493,-1458.200,2387.290,-9.580
948,39100.429000,251.067,39.890,-200.892,410.505,201.322,-203.301,-730.200,2190.290,193.420
949,39100.469000,219.499,22.722,-244.978,429.138,206.103,-157.408,-938.200,1428.290,57.420
950,39100.495000,215.553,75.235,-218.928,439.764,207.514,-138.462,-19.200,534.290,-79.580
951,39100.529000,246.135,89.373,-252.994,436.240,210.955,-139.354,-340.200,-466.710,-260.580
952,39100.574000,230.351,-17.673,-17.534,436.226,214.258,-145.205,396.800,124.290,-176.580
953,39100.609000,294.474,-58.067,-57.613,437.127,215.324,-138.217,-560.200,-14.710,-15.580
954,39100.649000,288.555,25.751,-0.501,437.129,217.060,-138.160,-334.200,109.290,-144.580
955,39100.689000,235.283,55.037,-45.589,433.640,226.019,-127.951,53.800,229.290,-123.580
956,39100.732000,235.283,19.692,-74.646,437.169,229.522,-126.833,-110.200,360.290,-74.580
957,39100.753000,256.987,12.623,-18.536,436.324,232.463,-114.824,73.800,425.290,-164.580
958,39100.793000,262.906,67.156,25.550,435.467,238.735,-107.672,-212.200,302.290,-176.580
959,39100.835000,245.148,45.949,13.526,435.479,239.716,-103.669,-105.200,187.290,-128.580
960,39100.874000,238.243,39.890,-14.528,433.731,238.988,-98.733,-4.200,137.290,-130.580
961,39100.915000,250.081,32.821,-26.552,435.506,245.149,-95.548,-129.200,173.290,-145.580
962,39100.950000,247.121,40.899,10.521,433.766,251.393,-89.393,-248.200,123.290,-144.580
963,39100.997000,261.919,63.116,37.573,432.004,247.948,-88.518,82.800,94.290,-159.580
964,39101.10000,256.000,17.673,-0.501,432.010,252.316,-87.383,-250.200,-46.710,-91.580
965,39101.52000,247.121,63.116,-6.513,429.366,254.890,-88.301,255.800,4.290,-42.580
966,39101.92000,256.000,38.880,-2.505,425.837,251.387,-89.419,211.800,33.290,-11.580
967,39101.139000,238.243,69.176,3.507,427.590,250.436,-92.423,155.800,25.290,-23.580
968,39101.173000,243.175,50.998,1.503,426.707,251.275,-93.392,-53.200,-22.710,29.420
969,39101.218000,247.121,42.919,12.524,430.238,257.382,-92.189,-42.200,-81.710,9.420
970,39101.233000,244.162,44.939,8.517,429.351,257.325,-94.180,-60.200,-148.710,35.420
971,39101.278000,223.445,60.087,42.583,427.573,254.579,-99.240,-59.200,-504.710,71.420
972,39101.310000,228.378,49.988,53.605,425.767,255.863,-115.092,-261.200,-937.710,65.420
973,39101.350000,212.593,55.037,-28.556,419.543,258.739,-135.871,-161.200,-1078.710,-35.580
974,39101.394000,265.865,63.116,-42.583,414.216,252.293,-149.006,-221.200,-788.710,-13.580
975,39101.435000,249.094,27.771,-3.507,409.776,251.084,-160.976,-102.200,-831.710,-63.580
976,39101.474000,260.933,59.077,-79.656,401.792,252.251,-180.823,124.800,-775.710,-117.580
977,39101.494000,235.283,73.215,-102.701,400.011,256.364,-188.639,-55.200,-546.710,20.420
978,39101.537000,244.162,14.643,-110.716,398.250,258.099,-188.589,-383.200,-284.710,149.420
979,39101.570000,268.825,11.613,-103.703,396.489,258.965,-188.566,-97.200,164.290,9.420
980,39101.614000,261.919,25.751,-114.724,400.048,260.174,-176.600,-138.200,514.290,-1.580
981,39101.650000,249.094,20.702,-59.616,407.131,258.809,-163.712,42.800,746.290,-13.580
982,39101.692000,254.027,34.840,-21.542,408.038,255.620,-153.883,233.800,804.290,-124.580
983,39101.717000,218.513,90.383,-41.581,412.474,256.801,-142.908,258.800,751.290,-49.580
984,39101.753000,227.391,67.156,-37.573,417.800,260.643,-129.857,153.800,758.290,74.420
985,39101.794000,255.013,23.732,-5.511,419.593,257.510,-118.037,201.800,667.290,23.420
986,39101.835000,246.135,42.919,-22.544,424.026,253.483,-107.231,175.800,590.290,-35.580
987,39101.875000,255.013,50.998,-4.509,423.166,258.859,-101.101,285.800,620.290,-20.580
988,39101.915000,252.054,49.988,-8.517,424.081,255.754,-88.290,127.800,594.290,-23.580
989,39101.954000,241.202,63.116,22.544,424.981,255.084,-81.358,174.800,544.290,-16.580
990,39101.975000,240.216,48.978,24.548,426.758,252.650,-75.473,158.800,449.290,17.420
991,39102.18000,240.216,55.037,34.568,429.413,257.077,-72.342,249.800,303.290,48.420
992,39102.55000,235.283,47.968,42.583,431.184,257.163,-69.355,188.800,117.290,57.420
993,39102.95000,248.108,50.998,35.569,430.291,252.737,-72.480,87.800,-80.710,58.420
994,39102.137000,243.175,49.988,17.534,432.036,249.126,-77.557,2.800,-140.710,82.420
995,39102.177000,250.081,55.037,9.519,432.910,243.890,-78.717,93.800,-118.710,126.420
996,39102.197000,241.202,38.880,17.534,434.664,243.807,-81.693,-50.200,-148.710,164.420
997,39102.235000,256.987,32.821,15.530,433.766,240.194,-86.778,23.800,-197.710,176.420
998,39102.275000,246.135,55.037,38.575,434.649,235.043,-84.956,78.800,-225.710,179.420
999,39102.317000,254.027,32.821,3.507,441.674,234.822,-92.885,38.800,-224.710,190.420
1000,39102.357000,244.162,26.761,-20.540,441.660,231.238,-96.973,84.800,-180.710,164.420
1001,39102.397000,250.081,26.761,-6.513,443.408,228.522,-101.027,139.800,-89.710,147.420
1002,39102.437000,253.040,34.840,17.534,443.396,223.230,-104.178,177.800,-107.710,131.420
1003,39102.452000,252.054,47.968,13.526,440.742,220.540,-107.253,8.800,-126.710,92.420
1004,39102.492000,263.892,1.515,-15.530,446.014,213.515,-110.443,144.800,-125.710,133.420
1005,39102.534000,256.000,30.801,-6.513,445.117,209.901,-115.528,116.800,-68.710,93.420
1006,39102.575000,263.892,20.702,-6.513,446.889,212.591,-112.456,105.800,-15.710,85.420
1007,39102.617000,246.135,20.702,-12.524,447.755,211.583,-117.451,115.800,-47.710,46.420
1008,39102.652000,251.067,4.544,1.503,445.979,203.685,-120.692,107.800,-183.710,-6.580
1009,39102.677000,260.933,-16.663,-3.507,444.199,209.535,-128.452,809.800,-126.710,-38.580
1010,39102.712000,252.054,-0.505,-51.601,442.370,195.950,-148.758,1850.800,-55.710,1.420
1011,39102.752000,256.000,11.613,-71.640,441.431,185.026,-166.990,1232.800,-262.710,40.420
1012,39102.792000,247.121,-5.554,-77.652,437.877,175.250,-175.262,568.800,-402.710,96.420
1013,39102.832000,245.148,6.564,-62.622,429.024,173.953,-190.227,225.800,-525.710,170.420
1014,39102.874000,240.216,6.564,-62.622,428.099,167.482,-204.342,91.800,-555.710,192.420
1015,39102.915000,248.108,10.604,-63.624,423.656,161.933,-216.452,169.800,-524.710,190.420
1016,39102.935000,244.162,21.712,-73.644,413.926,154.644,-228.636,241.800,-508.710,158.420
1017,39102.975000,240.216,14.643,-67.632,408.612,142.291,-236.005,250.800,-511.710,128.420
1018,39103.15000,247.121,14.643,-68.634,400.640,137.551,-250.086,283.800,-505.710,112.420
1019,39103.54000,239.229,11.613,-70.638,392.676,131.159,-261.242,210.800,-518.710,110.420
1020,39103.93000,236.270,3.535,-69.636,381.191,129.105,-272.268,316.800,-476.710,68.420
1021,39103.134000,245.148,13.633,-68.634,381.163,125.380,-281.326,410.800,-447.710,65.420
1022,39103.154000,238.243,1.515,-66.630,374.957,118.093,-293.498,308.800,-429.710,82.420
1023,39103.195000,226.405,7.574,-55.609,363.482,110.104,-299.752,142.800,-365.710,120.420
1024,39103.235000,222.459,14.643,-32.564,362.594,108.311,-301.799,-284.200,-160.710,134.420
1025,39103.277000,239.229,7.574,9.519,359.097,111.166,-292.781,-478.200,436.290,102.420
1026,39103.317000,255.013,96.442,-154.802,370.587,123.608,-282.411,-931.200,532.290,-164.580
1027,39103.357000,228.378,3.535,-72.642,375.928,133.639,-265.187,-102.200,723.290,-436.580
1028,39103.398000,258.960,39.890,-58.614,382.127,134.821,-254.206,202.800,786.290,-312.580
1029,39103.418000,244.162,-7.574,-60.618,390.107,143.089,-238.024,-223.200,780.290,-339.580
1030,39103.460000,248.108,32.821,-49.597,391.027,154.684,-226.722,-13.200,855.290,-363.580
1031,39103.495000,283.622,18.682,-19.538,397.253,165.611,-208.474,-123.200,854.290,-351.580
1032,39103.534000,264.879,1.515,-5.511,399.939,171.216,-194.381,78.800,779.290,-374.580
1033,39103.577000,238.243,52.008,9.519,404.375,174.104,-184.344,-98.200,593.290,-362.580
1034,39103.615000,247.121,55.037,10.521,403.522,182.141,-176.142,-86.200,360.290,-289.580
1035,39103.634000,248.108,52.008,7.515,403.540,184.046,-170.122,-103.200,241.290,-222.580
1036,39103.679000,247.121,49.988,-2.505,400.034,196.280,-166.757,-116.200,163.290,-147.580
1037,39103.717000,244.162,43.929,1.503,402.691,199.867,-162.660,-102.200,118.290,-108.580
1038,39103.760000,249.094,48.978,-1.503,401.823,201.715,-158.631,-111.200,72.290,-96.580
1039,39103.795000,255.013,43.929,-9.519,399.190,203.533,-155.602,-138.200,108.290,-78.580
1040,39103.835000,252.054,41.909,-9.519,401.843,201.912,-151.674,-111.200,163.290,-67.580
1041,39103.875000,243.175,45.949,0.501,401.847,203.676,-150.623,-63.200,172.290,-61.580
1042,39103.895000,255.013,57.057,7.515,401.862,208.997,-146.479,-157.200,142.290,-35.580
1043,39103.937000,257.973,45.949,-0.501,402.758,210.006,-141.478,-134.200,182.290,-25.580
1044,39103.977000,247.121,47.968,11.523,404.536,212.752,-136.418,-164.200,245.290,-35.580
1045,39104.17000,243.175,56.047,17.534,406.321,213.847,-128.433,-226.200,207.290,-28.580
