Sample, Time, ACCX, ACCY, ACCZ, MAGX, MAGY, MAGZ, GYRX, GYRY, GYRZ
0,38827.995000,254.027,23.732,10.521,425.698,188.830,-124.218,-100.200,-54.710,-92.580
1,38828.8000,253.040,23.732,10.521,427.457,188.803,-125.206,-101.200,-55.710,-94.580
2,38828.48000,247.121,23.732,10.521,424.819,187.989,-123.255,-91.200,-60.710,-101.580
3,38828.88000,250.081,21.712,10.521,424.824,191.490,-122.149,-103.200,-60.710,-128.580
4,38828.133000,250.081,21.712,4.509,423.945,197.537,-122.948,-43.200,-31.710,-140.580
5,38828.171000,254.027,22.722,6.513,418.659,197.533,-122.965,-90.200,-19.710,-148.580
6,38828.209000,254.027,47.968,10.521,418.655,199.213,-124.897,-131.200,-24.710,-145.580
7,38828.250000,260.933,34.840,7.515,418.665,205.345,-122.712,-127.200,-11.710,-123.580
8,38828.269000,252.054,31.811,7.515,418.672,207.137,-120.667,-22.200,17.290,-66.580
9,38828.310000,256.987,35.850,3.507,416.909,206.268,-120.701,10.800,38.290,-35.580
10,38828.351000,244.162,44.939,10.521,415.143,203.635,-121.785,-40.200,38.290,12.420
11,38828.390000,249.094,40.899,16.532,417.791,207.137,-120.670,-11.200,-1.710,54.420
12,38828.429000,247.121,32.821,15.530,422.199,203.724,-118.781,36.800,-44.710,93.420
13,38828.468000,244.162,40.899,14.528,422.189,198.460,-120.938,42.800,-91.710,108.420
14,38828.509000,251.067,42.919,14.528,423.054,194.848,-126.017,-24.200,-191.710,149.420
15,38828.529000,255.013,35.850,12.524,422.155,189.498,-131.159,-53.200,-267.710,211.420
16,38828.576000,252.054,33.830,11.523,422.138,186.753,-136.213,57.800,-307.710,265.420
17,38828.609000,247.121,29.791,16.532,421.229,183.027,-145.273,39.800,-420.710,253.420
18,38828.657000,259.946,7.574,2.505,421.201,178.434,-154.359,-103.200,-597.710,212.420
19,38828.690000,262.906,0.505,-39.577,420.275,171.963,-168.474,-54.200,-544.710,178.420
20,38828.734000,264.879,2.525,-38.575,418.507,174.481,-171.377,126.800,-364.710,140.420
21,38828.748000,256.987,2.525,-43.585,414.083,167.393,-176.586,127.800,-263.710,119.420
22,38828.794000,248.108,17.673,-48.595,417.585,168.906,-184.470,134.800,-230.710,94.420
23,38828.828000,250.081,56.047,-46.591,414.054,162.799,-185.672,-265.200,-257.710,-0.580
24,38828.873000,246.135,22.722,-34.568,407.888,172.287,-187.370,-1097.200,-303.710,-81.580
25,38828.913000,254.027,10.604,-32.564,410.540,176.685,-185.233,-565.200,-149.710,-40.580
26,38828.953000,234.297,14.643,-24.548,409.669,182.816,-183.051,-96.200,70.290,-79.580
27,38828.991000,242.189,-10.604,-16.532,411.441,181.194,-179.126,222.800,315.290,-55.580
28,38829.13000,238.243,1.515,-47.593,416.748,186.575,-172.976,257.800,403.290,-42.580
29,38829.53000,261.919,12.623,-25.550,416.758,184.952,-169.057,322.800,376.290,-19.580
30,38829.92000,256.987,44.939,-13.526,417.670,185.262,-158.121,27.800,384.290,-47.580
31,38829.131000,256.000,4.544,-19.538,424.727,185.352,-155.117,-166.200,286.290,-37.580
32,38829.171000,258.960,-7.574,-13.526,423.861,183.784,-149.212,143.800,261.290,-49.580
33,38829.211000,252.054,33.830,-8.517,426.520,185.663,-144.178,-106.200,200.290,-89.580
34,38829.231000,247.121,23.732,-14.528,427.427,194.541,-136.936,-96.200,228.290,-79.580
35,38829.271000,262.906,19.692,-8.517,423.905,192.831,-136.010,-35.200,273.290,-58.580
36,38829.309000,262.906,9.594,-6.513,424.818,194.877,-125.018,-98.200,298.290,-68.580
37,38829.358000,259.946,23.732,8.517,427.466,194.067,-123.049,13.800,305.290,-62.580
38,38829.392000,242.189,28.781,21.542,426.605,190.820,-115.214,59.800,234.290,-38.580
39,38829.433000,244.162,30.801,23.546,428.370,190.850,-114.214,52.800,105.290,-27.580
40,38829.473000,246.135,26.761,10.521,426.609,195.160,-115.073,36.800,-32.710,-31.580
41,38829.493000,253.040,25.751,4.509,425.727,198.603,-115.957,-53.200,-52.710,-41.580
42,38829.533000,256.987,25.751,-0.501,424.851,201.235,-114.881,-54.200,22.290,-30.580
43,38829.572000,253.040,21.712,6.513,427.504,199.613,-110.953,-38.200,59.290,-26.580
44,38829.613000,250.081,29.791,13.526,429.265,202.191,-111.857,-14.200,41.290,-25.580
45,38829.653000,247.121,28.781,13.526,425.738,204.736,-113.772,8.800,-20.710,-17.580
46,38829.693000,248.108,29.791,11.523,424.853,200.395,-113.916,-14.200,-53.710,-20.580
47,38829.732000,256.000,26.761,4.509,429.250,201.182,-116.855,-50.200,-44.710,-17.580
48,38829.763000,254.027,24.742,2.505,428.373,198.633,-114.954,-4.200,-0.710,-16.580
49,38829.789000,252.054,27.771,7.515,426.618,200.424,-112.916,-8.200,15.290,-15.580
50,38829.829000,251.067,25.751,9.519,423.973,204.706,-114.771,0.800,20.290,-18.580
51,38829.877000,251.067,27.771,9.519,423.094,199.554,-112.955,-4.200,18.290,-29.580
52,38829.911000,251.067,28.781,9.519,426.621,204.764,-112.775,-11.200,18.290,-31.580
53,38829.951000,251.067,31.811,9.519,426.627,204.821,-110.787,-23.200,19.290,-29.580
54,38829.971000,252.054,29.791,10.521,423.098,201.318,-111.905,-17.200,17.290,-26.580
55,38830.11000,251.067,29.791,9.519,426.627,201.377,-109.906,-11.200,9.290,-23.580
56,38830.52000,252.054,31.811,8.517,423.983,207.395,-111.705,-20.200,3.290,-24.580
57,38830.91000,251.067,28.781,9.519,425.753,210.056,-109.627,-12.200,7.290,-21.580
58,38830.129000,251.067,29.791,9.519,423.987,209.159,-110.655,-22.200,2.290,-19.580
59,38830.172000,250.081,32.821,10.521,420.474,211.845,-107.600,-0.200,-2.710,-16.580
60,38830.211000,253.040,32.821,9.519,422.218,206.497,-112.733,1.800,-8.710,-10.580
61,38830.232000,251.067,31.811,8.517,423.098,204.762,-112.786,0.800,-7.710,-14.580
62,38830.272000,252.054,31.811,9.519,423.106,204.846,-109.805,-24.200,-7.710,-14.580
63,38830.312000,252.054,31.811,8.517,424.866,209.999,-111.618,-20.200,-3.710,-11.580
64,38830.352000,252.054,30.801,7.515,423.113,210.951,-108.614,0.800,5.290,-6.580
65,38830.392000,250.081,33.830,10.521,419.584,210.892,-110.613,7.800,2.290,-2.580
66,38830.434000,250.081,31.811,9.519,422.227,206.582,-109.751,1.800,-4.710,-0.580
67,38830.454000,249.094,31.811,9.519,423.986,206.555,-110.739,2.800,-5.710,0.420
68,38830.494000,254.027,30.801,9.519,418.694,206.495,-112.744,9.800,-10.710,4.420
69,38830.534000,251.067,32.821,10.521,424.869,206.584,-109.743,3.800,-18.710,3.420
70,38830.576000,250.081,32.821,10.521,423.979,205.631,-112.755,6.800,-18.710,2.420
71,38830.616000,249.094,32.821,8.517,423.103,203.950,-110.827,-3.200,-13.710,1.420
72,38830.654000,254.027,29.791,10.521,424.857,204.735,-113.775,-2.200,-11.710,1.420
73,38830.696000,250.081,30.801,10.521,423.984,211.706,-112.558,-10.200,-22.710,0.420
74,38830.716000,251.067,32.821,7.515,422.222,212.573,-112.536,-5.200,-23.710,5.420
75,38830.756000,255.013,27.771,6.513,421.349,215.233,-110.466,2.800,-11.710,8.420
76,38830.791000,248.108,31.811,7.515,422.223,205.686,-110.773,4.800,7.290,2.420
77,38830.832000,254.027,30.801,9.519,423.107,209.158,-110.658,5.800,16.290,5.420
78,38830.872000,249.094,33.830,9.519,426.622,209.076,-113.628,-1.200,15.290,9.420
79,38830.911000,251.067,28.781,10.521,421.335,208.204,-113.673,-3.200,5.290,11.420
80,38830.931000,248.108,33.830,10.521,419.583,210.024,-110.641,-5.200,0.290,15.420
81,38830.976000,252.054,29.791,10.521,423.988,210.027,-110.627,-6.200,1.290,18.420
82,38831.16000,250.081,28.781,9.519,423.979,205.631,-112.755,-4.200,4.290,13.420
83,38831.62000,252.054,30.801,9.519,422.213,202.997,-113.840,-10.200,5.290,10.420
84,38831.92000,251.067,28.781,9.519,423.104,205.686,-110.770,5.800,16.290,7.420
85,38831.131000,253.040,30.801,9.519,423.993,209.215,-108.667,3.800,24.290,5.420
86,38831.173000,251.067,26.761,9.519,424.871,209.188,-109.658,23.800,27.290,6.420
87,38831.193000,249.094,30.801,12.524,427.515,210.058,-109.621,3.800,8.290,-4.580
88,38831.232000,251.067,30.801,10.521,425.751,211.764,-110.565,1.800,-23.710,4.420
89,38831.272000,251.067,30.801,8.517,423.981,203.923,-111.818,10.800,-29.710,13.420
90,38831.312000,254.027,28.781,7.515,424.866,202.244,-109.884,-10.200,-19.710,8.420
91,38831.352000,251.067,28.781,10.521,423.096,203.026,-112.843,-3.200,-3.710,3.420
92,38831.392000,251.067,30.801,11.523,423.099,203.054,-111.849,7.800,-9.710,5.420
93,38831.432000,253.040,29.791,9.519,424.863,209.103,-112.640,4.800,-18.710,7.420
94,38831.452000,251.067,28.781,8.517,426.633,208.321,-109.681,1.800,-20.710,4.420
95,38831.492000,250.081,28.781,8.517,427.501,206.473,-113.710,-2.200,-10.710,3.420
96,38831.532000,252.054,29.791,8.517,425.744,209.972,-112.609,3.800,-2.710,2.420
97,38831.572000,251.067,29.791,10.521,423.986,206.555,-110.739,13.800,-11.710,1.420
98,38831.612000,251.067,30.801,9.519,423.091,203.838,-114.802,13.800,-17.710,2.420
99,38831.652000,252.054,28.781,7.515,422.214,201.289,-112.902,3.800,-16.710,-2.580
100,38831.672000,253.040,29.791,6.513,425.744,201.348,-110.903,-6.200,-5.710,-8.580
101,38831.712000,249.094,29.791,7.515,424.864,206.527,-111.731,-8.200,1.290,-9.580
102,38831.753000,251.067,32.821,8.517,422.220,209.101,-112.648,-3.200,3.290,-6.580
103,38831.794000,251.067,27.771,7.515,423.093,206.442,-114.718,-4.200,7.290,-2.580
104,38831.836000,250.081,31.811,10.521,422.223,209.129,-111.655,-1.200,3.290,-2.580
105,38831.876000,253.040,32.821,10.521,421.346,206.581,-109.754,6.800,-9.710,4.420
106,38831.916000,251.067,29.791,8.517,426.626,207.397,-111.697,7.800,-10.710,4.420
107,38831.941000,252.054,30.801,8.517,424.861,207.367,-112.696,4.800,-13.710,3.420
108,38831.982000,250.081,29.791,7.515,423.095,208.178,-114.662,8.800,-13.710,5.420
109,38832.16000,252.054,28.781,7.515,422.211,204.705,-114.777,12.800,-10.710,6.420
110,38832.57000,251.067,29.791,9.519,423.965,208.934,-118.606,5.800,-8.710,2.420
111,38832.93000,250.081,31.811,9.519,421.339,209.101,-112.651,-7.200,-8.710,4.420
112,38832.134000,252.054,29.791,9.519,423.093,206.442,-114.718,3.800,-6.710,4.420
113,38832.157000,251.067,29.791,8.517,423.092,201.262,-113.893,0.800,-5.710,3.420
114,38832.197000,250.081,28.781,7.515,421.329,202.968,-114.836,0.800,-4.710,2.420
115,38832.237000,251.067,30.801,8.517,424.851,208.990,-116.616,-4.200,-7.710,3.420
116,38832.276000,252.054,28.781,8.517,422.209,202.101,-114.862,-1.200,-5.710,3.420
117,38832.339000,252.054,28.781,8.517,422.214,208.177,-114.664,-9.200,-12.710,2.420
118,38832.357000,252.054,29.791,6.513,423.092,204.706,-114.774,-3.200,-11.710,7.420
119,38832.396000,252.054,29.791,7.515,423.965,197.734,-115.991,4.800,0.290,8.420
120,38832.414000,252.054,30.801,8.517,423.100,208.234,-112.674,-5.200,5.290,9.420
121,38832.454000,251.067,27.771,8.517,429.255,203.814,-115.776,-1.200,-0.710,7.420
122,38832.494000,251.067,30.801,9.519,424.853,203.839,-114.797,-3.200,-8.710,9.420
123,38832.534000,250.081,28.781,9.519,425.738,205.604,-113.744,-4.200,-17.710,9.420
124,38832.574000,252.054,30.801,7.515,426.620,206.472,-113.713,-2.200,-18.710,7.420
125,38832.616000,252.054,29.791,6.513,423.980,207.367,-112.699,0.800,-4.710,9.420
126,38832.657000,252.054,28.781,7.515,424.860,205.631,-112.753,-0.200,6.290,9.420
127,38832.677000,252.054,27.771,7.515,422.214,204.733,-113.783,6.800,11.290,6.420
128,38832.718000,250.081,29.791,8.517,424.848,201.207,-115.875,2.800,14.290,0.420
129,38832.758000,252.054,30.801,9.519,424.849,198.631,-114.966,-5.200,10.290,1.420
130,38832.792000,253.040,27.771,6.513,423.096,206.470,-113.724,11.800,17.290,5.420
131,38832.837000,252.054,28.781,7.515,425.749,208.292,-110.677,4.800,20.290,5.420
132,38832.876000,249.094,30.801,9.519,424.861,206.499,-112.724,-6.200,8.290,2.420
133,38832.894000,250.081,29.791,8.517,424.860,209.075,-113.634,3.800,-4.710,3.420
134,38832.934000,252.054,28.781,7.515,423.980,207.367,-112.699,-0.200,-5.710,4.420
135,38832.977000,252.054,28.781,7.515,422.211,208.149,-115.658,-3.200,-0.710,-0.580
136,38833.14000,253.040,27.771,8.517,423.978,203.895,-112.812,10.800,0.290,-0.580
137,38833.54000,251.067,31.811,7.515,421.332,203.864,-113.814,6.800,-8.710,1.420
138,38833.94000,252.054,27.771,7.515,425.736,206.443,-114.709,4.800,-6.710,5.420
139,38833.134000,251.067,28.781,9.519,424.858,206.471,-113.718,17.800,-3.710,5.420
140,38833.154000,250.081,28.781,9.519,425.740,207.340,-113.687,-6.200,-9.710,6.420
141,38833.194000,253.040,28.781,8.517,425.736,203.000,-113.828,0.800,-4.710,10.420
142,38833.239000,253.040,27.771,8.517,424.851,200.367,-114.909,-7.200,-3.710,2.420
143,38833.283000,251.067,29.791,9.519,426.615,200.396,-113.910,-4.200,-3.710,-0.580
144,38833.313000,252.054,28.781,9.519,425.728,199.471,-115.929,-10.200,-2.710,-2.580
145,38833.354000,253.040,24.742,8.517,423.980,207.367,-112.699,-5.200,1.290,-9.580
146,38833.374000,250.081,31.811,8.517,426.614,205.548,-115.729,-9.200,-2.710,-15.580
147,38833.418000,251.067,30.801,8.517,424.849,202.075,-115.847,-1.200,-0.710,-8.580
148,38833.454000,253.040,28.781,9.519,426.621,207.340,-113.684,-15.200,1.290,-3.580
149,38833.494000,252.054,28.781,7.515,423.982,209.103,-112.643,-18.200,1.290,-2.580
150,38833.534000,252.054,27.771,8.517,423.098,201.318,-111.905,-11.200,6.290,-2.580
151,38833.574000,253.040,29.791,9.519,423.970,201.234,-114.884,-5.200,8.290,-8.580
152,38833.623000,252.054,29.791,8.517,427.498,203.001,-113.822,-10.200,3.290,-6.580
153,38833.638000,250.081,30.801,8.517,427.505,200.481,-110.925,-2.200,6.290,2.420
154,38833.677000,252.054,29.791,7.515,426.622,205.632,-112.747,16.800,23.290,8.420
155,38833.717000,252.054,27.771,9.519,424.862,208.235,-112.668,-0.200,16.290,6.420
156,38833.756000,251.067,25.751,10.521,423.990,208.319,-109.689,-12.200,-0.710,-0.580
157,38833.798000,248.108,29.791,9.519,423.986,207.423,-110.711,-31.200,-15.710,-16.580
158,38833.838000,250.081,30.801,6.513,423.098,201.318,-111.905,-25.200,-13.710,-10.580
159,38833.858000,254.027,27.771,6.513,425.745,203.084,-110.846,5.800,11.290,-1.580
160,38833.898000,253.040,29.791,9.519,425.742,207.368,-112.693,14.800,37.290,1.420
161,38833.933000,250.081,28.781,10.521,426.635,208.349,-108.687,45.800,41.290,10.420
162,38833.976000,251.067,29.791,10.521,428.389,208.266,-111.663,19.800,27.290,1.420
163,38834.23000,253.040,28.781,10.521,423.993,209.215,-108.667,11.800,16.290,5.420
164,38834.53000,249.094,29.791,10.521,421.347,204.873,-108.816,3.800,3.290,3.420
165,38834.106000,251.067,29.791,10.521,423.104,201.374,-109.917,-26.200,-9.710,-1.580
166,38834.114000,251.067,27.771,9.519,423.106,201.403,-108.923,-15.200,-9.710,-4.580
167,38834.154000,253.040,28.781,10.521,425.755,209.216,-108.661,5.800,-2.710,-4.580
168,38834.211000,250.081,29.791,10.521,427.522,208.406,-106.696,16.800,-0.710,-7.580
169,38834.236000,251.067,32.821,10.521,425.757,207.509,-107.724,26.800,6.290,-4.580
170,38834.279000,252.054,30.801,10.521,424.871,208.320,-109.686,11.800,5.290,5.420
171,38834.319000,251.067,29.791,10.521,426.635,207.481,-108.715,0.800,-2.710,4.420
172,38834.359000,252.054,29.791,10.521,423.974,202.130,-113.862,-7.200,-15.710,1.420
173,38834.379000,251.067,29.791,10.521,422.228,204.874,-108.814,-14.200,-19.710,3.420
174,38834.416000,250.081,27.771,9.519,424.870,204.008,-108.833,-5.200,-9.710,5.420
175,38834.458000,251.067,29.791,9.519,426.625,201.349,-110.900,-10.200,-12.710,0.420
176,38834.499000,252.054,30.801,9.519,424.858,202.159,-112.865,-5.200,-21.710,3.420
177,38834.539000,251.067,28.781,9.519,423.110,206.611,-108.754,6.800,-24.710,10.420
178,38834.579000,254.027,22.722,6.513,423.097,207.338,-113.696,36.800,-16.710,8.420
179,38834.599000,251.067,18.682,12.524,423.979,205.631,-112.755,205.800,1.290,38.420
180,38834.639000,244.162,46.959,34.568,425.721,201.123,-118.854,279.800,-192.710,63.420
181,38834.676000,244.162,33.830,29.558,427.463,197.483,-124.925,53.800,-433.710,73.420
182,38834.716000,256.987,50.998,98.693,422.125,191.792,-142.007,258.800,-955.710,172.420
183,38834.756000,371.422,16.663,98.693,414.097,194.245,-177.701,216.800,-1827.710,18.420
184,38834.798000,448.370,24.742,32.564,398.127,190.530,-216.599,573.800,-1779.710,-132.580
185,38834.838000,250.081,98.462,-16.532,387.528,195.421,-227.398,-1300.200,-865.710,-113.580
186,38834.857000,181.025,1.515,36.571,387.612,225.553,-204.574,-2736.200,251.290,-25.580
187,38834.908000,72.509,-54.028,-189.871,401.793,229.852,-175.592,-494.200,1035.290,423.420
188,38834.936000,162.281,104.521,-503.483,405.342,225.796,-165.782,-289.200,-9.710,79.420
189,38834.976000,131.699,-50.998,-38.575,406.223,222.353,-164.898,317.800,190.290,-42.580
190,38835.14000,383.260,119.669,27.554,407.115,230.222,-162.654,127.800,144.290,-118.580
191,38835.57000,340.840,-9.594,-7.515,407.983,227.506,-166.711,361.800,36.290,-43.580
192,38835.98000,393.125,-26.761,66.630,404.443,221.314,-170.896,246.800,-143.710,-13.580
193,38835.118000,297.434,-22.722,-71.640,400.908,225.511,-175.736,341.800,-381.710,74.420
194,38835.168000,182.998,25.751,-179.851,402.642,220.919,-184.816,176.800,-238.710,198.420
195,38835.194000,158.335,66.146,-204.900,399.095,212.935,-191.044,372.800,-337.710,272.420
196,38835.234000,99.145,140.876,-252.994,388.456,209.676,-214.023,279.800,-899.710,-53.580
197,38835.274000,66.590,-19.692,-77.652,377.828,209.973,-233.907,862.800,-777.710,-224.580
198,38835.314000,79.414,14.643,-99.695,371.613,201.734,-249.089,1097.800,-443.710,-391.580
199,38835.334000,183.985,116.639,100.697,365.420,191.984,-256.377,506.800,91.290,-462.580
200,38835.379000,338.867,45.949,67.632,367.234,201.984,-240.158,-368.200,720.290,-431.580
201,38835.417000,511.507,-48.978,203.898,366.353,208.871,-241.924,756.800,311.290,-439.580
202,38835.456000,437.518,-206.517,-15.530,353.990,203.400,-251.078,1041.800,-653.710,-607.580
203,38835.499000,268.825,-106.540,-120.736,339.827,207.026,-275.830,779.800,-761.710,-361.580
204,38835.536000,205.688,-247.921,-28.556,330.976,197.133,-288.096,518.800,-482.710,307.420
205,38835.576000,177.079,-195.408,6.513,339.740,158.779,-295.270,1569.800,463.290,1167.420
206,38835.599000,164.254,-29.791,-30.560,353.841,139.890,-288.887,581.800,1121.290,1614.420
207,38835.639000,142.551,17.673,-136.767,378.565,113.761,-262.845,-448.200,1498.290,1978.420
208,38835.679000,261.919,147.945,-87.671,407.718,79.265,-226.137,-722.200,1589.290,1682.420
209,38835.724000,213.580,191.369,-420.321,417.493,82.693,-197.198,-2371.200,1032.290,1320.420
210,38835.758000,243.175,267.108,125.746,415.744,96.607,-195.759,-3582.200,-805.710,631.420
211,38835.796000,281.649,-15.653,12.524,413.084,96.436,-201.731,1258.800,-238.710,-444.580
212,38835.817000,291.514,-42.919,-54.607,407.762,84.867,-212.053,1140.800,-254.710,-314.580
213,38835.861000,333.935,11.613,21.542,402.464,99.394,-219.543,-488.200,-434.710,-283.580
214,38835.896000,291.514,-34.840,-43.585,394.515,101.767,-227.435,92.800,-437.710,-148.580
215,38835.949000,283.622,-31.811,-110.716,391.855,105.039,-234.288,-152.200,-298.710,50.420
216,38835.981000,270.798,-13.633,-97.691,395.385,102.523,-231.380,8.800,160.290,196.420
217,38836.22000,307.299,1.515,-58.614,405.098,94.999,-221.663,-206.200,503.290,445.420
218,38836.59000,275.730,66.146,-28.556,410.418,83.274,-207.131,64.800,643.290,474.420
219,38836.79000,245.148,110.580,18.536,418.379,86.193,-196.088,-259.200,626.290,268.420
220,38836.119000,210.620,8.584,-65.628,422.793,86.281,-193.092,549.800,155.290,-78.580
221,38836.156000,241.202,53.018,-121.738,420.095,62.477,-206.782,2955.800,-375.710,-381.580
222,38836.196000,321.110,186.320,-130.755,409.440,63.360,-236.578,648.800,-1469.710,-901.580
223,38836.242000,252.054,30.801,-108.712,388.244,94.700,-262.439,-1139.200,-1578.710,-1185.580
224,38836.275000,243.175,21.712,-35.569,372.364,117.730,-275.645,-1855.200,-1187.710,-1478.580
225,38836.296000,168.200,-166.122,-38.575,353.064,184.862,-262.605,-3113.200,-476.710,-1886.580
226,38836.336000,190.890,-222.675,-38.575,344.287,217.056,-258.610,-43.200,306.290,-1406.580
227,38836.377000,145.511,-96.442,-24.548,354.030,223.618,-241.485,382.800,1026.290,-607.580
228,38836.417000,256.000,-92.402,-91.679,367.327,239.956,-216.087,-1742.200,1527.290,-59.580
229,38836.457000,294.474,9.594,-134.763,381.559,255.961,-171.831,-772.200,1572.290,-165.580
230,38836.499000,382.274,-232.773,19.538,393.044,255.440,-159.895,382.800,719.290,-50.580
231,38836.541000,336.894,-2.525,-70.638,392.179,253.872,-153.991,-601.200,4.290,-90.580
232,38836.558000,315.191,29.791,34.568,394.854,262.808,-144.755,-999.200,-127.710,-254.580
233,38836.598000,255.013,96.442,-52.603,393.073,260.033,-150.809,719.800,39.290,-84.580
234,38836.638000,268.825,48.978,-39.577,393.947,253.930,-151.997,-285.200,-7.710,88.420
235,38836.678000,254.027,20.702,-41.581,393.961,257.514,-147.909,174.800,156.290,97.420
236,38836.718000,238.243,78.264,-14.528,397.485,250.629,-146.135,251.800,198.290,42.420
237,38836.764000,220.486,71.195,-5.511,395.718,250.572,-148.128,253.800,170.290,42.420
238,38836.801000,237.256,84.323,3.507,393.958,253.174,-148.050,-26.200,32.290,56.420
239,38836.821000,249.094,43.929,18.536,394.833,246.231,-148.272,-65.200,-144.710,80.420
240,38836.862000,213.580,95.432,-9.519,394.813,246.034,-155.229,-108.200,-425.710,-12.580
241,38836.902000,270.798,44.939,-28.556,396.564,253.678,-160.934,-191.200,-466.710,66.420
242,38836.948000,250.081,45.949,-81.659,394.788,253.536,-165.909,-363.200,-282.710,25.420
243,38836.977000,270.798,11.613,-83.663,395.677,257.065,-163.806,-167.200,-68.710,5.420
244,38837.17000,270.798,63.116,-61.620,394.812,255.497,-157.901,-36.200,267.290,36.420
245,38837.51000,227.391,60.087,-34.568,397.460,251.244,-155.052,74.800,462.290,50.420
246,38837.78000,214.566,65.136,-9.519,399.251,248.083,-144.226,120.800,356.290,49.420
247,38837.118000,212.593,59.077,2.505,402.757,242.737,-149.353,199.800,106.290,89.420
248,38837.158000,263.892,52.008,38.575,402.751,243.548,-151.313,-42.200,-452.710,146.420
249,38837.198000,234.297,32.821,-26.552,402.702,233.578,-166.531,18.800,-707.710,110.420
250,38837.238000,229.364,87.353,-44.587,396.504,234.131,-177.456,-136.200,-970.710,120.420
251,38837.278000,250.081,11.613,-53.605,395.586,236.340,-191.289,-149.200,-730.710,190.420
252,38837.298000,245.148,14.643,-37.573,387.611,235.016,-207.246,-388.200,-972.710,106.420
253,38837.338000,252.054,3.535,-45.589,374.332,231.783,-229.239,4.800,-1072.710,35.420
254,38837.378000,203.715,49.988,-125.746,374.303,230.633,-239.206,78.800,-747.710,208.420
255,38837.418000,284.609,29.791,-20.540,364.573,222.476,-251.418,-242.200,-1018.710,221.420
256,38837.463000,233.310,4.544,-123.742,357.496,221.321,-261.408,-272.200,-559.710,215.420
257,38837.502000,267.838,-33.830,-171.836,360.123,222.890,-267.307,-91.200,-2.710,75.420
258,38837.521000,254.027,-24.742,-138.771,361.913,226.617,-258.243,-1.200,360.290,-160.580
259,38837.563000,257.973,7.574,-138.771,363.707,232.108,-248.129,120.800,767.290,-287.580
260,38837.598000,253.040,20.702,-107.710,372.552,226.433,-234.383,516.800,1088.290,-359.580
261,38837.637000,229.364,91.393,-83.663,378.765,223.444,-217.579,589.800,1160.290,-179.580
262,38837.678000,202.728,45.949,-40.579,392.031,224.829,-199.618,263.800,1052.290,52.420
263,38837.718000,220.486,57.057,-37.573,397.346,226.850,-189.606,140.800,880.290,73.420
264,38837.758000,240.216,16.663,-20.540,404.441,229.910,-173.596,165.800,889.290,54.420
265,38837.779000,233.310,42.919,-22.544,409.758,229.356,-162.674,-21.200,540.290,-2.580
266,38837.819000,231.337,53.018,39.577,411.534,230.366,-157.670,116.800,238.290,-22.580
267,38837.857000,252.054,58.067,3.507,407.142,227.899,-152.799,-32.200,90.290,-16.580
268,38837.903000,260.933,34.840,-33.566,413.311,227.064,-151.814,13.800,99.290,27.420
269,38837.937000,267.838,9.594,-11.523,411.537,222.638,-154.942,157.800,35.290,37.420
270,38837.977000,245.148,56.047,9.519,408.009,220.872,-156.004,48.800,-194.710,15.420
271,38837.997000,250.081,59.077,-19.538,409.750,223.251,-163.865,98.800,-402.710,111.420
272,38838.42000,295.461,25.751,20.540,407.969,223.921,-170.800,110.800,-605.710,142.420
273,38838.79000,385.233,-5.554,16.532,403.497,217.222,-192.877,152.800,-864.710,87.420
274,38838.119000,364.516,-26.761,-0.501,393.754,214.972,-210.855,458.800,-988.710,35.420
275,38838.159000,263.892,62.107,-81.659,386.653,207.544,-228.000,-161.200,-988.710,286.420
276,38838.199000,193.850,78.264,-11.523,382.249,215.296,-229.748,-969.200,-507.710,191.420
277,38838.239000,178.066,-22.722,34.568,389.363,225.441,-208.544,-810.200,597.290,209.420
278,38838.259000,215.553,62.107,-41.581,406.169,221.818,-183.783,-120.200,1160.290,354.420
279,38838.299000,195.823,82.304,-65.628,423.031,224.777,-140.934,-680.200,1433.290,365.420
280,38838.338000,233.310,39.890,-47.593,433.684,229.045,-112.958,-1057.200,1468.290,528.420
281,38838.382000,160.308,90.383,-229.949,449.646,225.787,-75.278,-1066.200,999.290,450.420
282,38838.422000,221.472,-30.801,-266.020,447.026,222.567,-66.454,-913.200,123.290,190.420
283,38838.459000,352.678,-67.156,21.542,447.899,223.351,-69.405,297.800,98.290,-116.580
284,38838.479000,357.611,-93.412,-29.558,441.716,224.046,-75.360,739.800,72.290,-261.580
285,38838.521000,279.676,-90.383,-113.722,438.171,221.242,-82.414,542.800,-272.710,-106.580
286,38838.563000,257.973,-179.250,-73.644,437.231,221.518,-103.261,1361.800,-272.710,301.420
287,38838.607000,234.297,-99.471,-29.558,437.159,196.678,-122.934,1507.800,-133.710,802.420
288,38838.642000,226.405,-166.122,-72.642,439.767,176.519,-130.530,669.800,-64.710,1105.420
289,38838.682000,224.432,-11.613,-39.577,442.378,149.501,-135.371,1245.800,312.290,1292.420
290,38838.721000,235.283,19.692,-27.554,448.536,118.398,-131.395,555.800,422.290,1267.420
291,38838.741000,249.094,21.712,3.507,454.700,87.352,-125.432,1011.800,536.290,1206.420
292,38838.778000,217.526,122.698,-27.554,457.326,57.030,-124.422,398.800,211.290,1139.420
293,38838.818000,209.634,248.931,62.622,458.206,56.163,-124.447,-1299.200,12.290,686.420
294,38838.859000,297.434,193.389,93.683,456.446,62.209,-125.249,-1509.200,-506.710,157.420
295,38838.902000,263.892,1.515,86.669,451.119,63.519,-140.119,846.800,-658.710,-185.580
296,38838.941000,394.112,-149.964,17.534,449.325,58.896,-150.204,1017.800,-371.710,-57.580
297,38838.978000,415.815,-122.698,36.571,444.037,55.420,-150.334,-548.200,-52.710,41.420
298,38839.3000,343.800,76.245,57.613,445.806,53.770,-147.403,43.800,266.290,95.420
299,38839.43000,257.973,115.629,-47.593,447.581,56.488,-143.337,-287.200,133.290,-146.580
300,38839.81000,226.405,91.393,-138.771,443.152,73.478,-155.709,-127.200,-859.710,-561.580
301,38839.127000,249.094,88.363,-107.710,432.502,84.749,-186.160,-611.200,-1491.710,-736.580
302,38839.161000,207.661,23.732,-76.650,419.249,109.348,-205.264,-1506.200,-1601.710,-1058.580
303,38839.201000,173.133,34.840,-61.620,400.722,145.256,-223.025,-784.200,-1158.710,-1287.580
304,38839.219000,167.214,-20.702,-21.542,384.855,177.022,-233.961,-655.200,-596.710,-1388.580
305,38839.259000,178.066,-59.077,-25.550,379.592,197.067,-230.349,95.800,142.290,-1164.580
306,38839.304000,184.971,-24.742,-49.597,377.852,206.754,-225.075,-150.200,681.290,-1038.580
307,38839.342000,213.580,-74.225,-76.650,383.199,222.021,-206.688,-351.200,939.290,-740.580
308,38839.383000,243.175,-66.146,-83.663,392.963,228.780,-182.606,-216.200,1273.290,-383.580
309,38839.423000,308.285,35.850,-74.646,400.084,236.405,-158.504,551.800,1360.290,-633.580
310,38839.463000,435.545,-351.937,-30.560,406.262,236.522,-154.508,1362.800,1057.290,33.420
311,38839.482000,394.112,1.515,-5.511,409.784,227.033,-152.819,-1313.200,70.290,-381.580
312,38839.523000,251.067,65.136,-42.583,406.327,248.370,-134.264,-586.200,296.290,-218.580
313,38839.563000,212.593,97.452,-12.524,408.986,246.805,-128.348,281.800,574.290,-3.580
314,38839.604000,262.906,5.554,6.513,407.257,241.962,-115.602,-630.200,343.290,-68.580
315,38839.644000,254.027,33.830,15.530,413.439,247.287,-111.438,-142.200,184.290,-70.580
316,38839.686000,246.135,43.929,24.548,412.560,250.758,-111.328,95.800,-25.710,8.420
317,38839.699000,238.243,57.057,10.521,412.550,248.938,-114.366,189.800,-161.710,31.420
318,38839.746000,246.135,60.087,-19.538,411.660,247.984,-117.379,23.800,-124.710,33.420
319,38839.779000,247.121,39.890,-3.507,410.775,242.776,-117.550,-147.200,-81.710,29.420
320,38839.819000,234.297,77.254,6.513,409.890,247.899,-120.366,-115.200,-181.710,81.420
321,38839.859000,243.175,39.890,1.503,410.761,242.635,-122.520,-10.200,-254.710,119.420
322,38839.901000,260.933,19.692,-21.542,414.265,238.997,-128.585,4.800,-297.710,12.420
323,38839.946000,231.337,12.623,-34.568,410.731,244.061,-133.397,65.800,-242.710,-34.580
324,38839.959000,264.879,71.195,-13.526,408.940,238.598,-142.517,107.800,-227.710,-8.580
325,38840.4000,256.000,12.623,-76.650,408.065,242.966,-141.385,54.800,59.290,59.420
326,38840.43000,235.283,47.968,-24.548,410.715,241.316,-138.451,33.800,215.290,24.420
327,38840.83000,245.148,57.057,-6.513,409.856,240.673,-130.530,-119.200,185.290,18.420
328,38840.121000,234.297,53.018,10.521,412.494,241.487,-132.482,23.800,-37.710,70.420
329,38840.161000,240.216,64.126,10.521,409.832,237.844,-138.566,0.800,-274.710,97.420
330,38840.181000,242.189,31.811,-36.571,409.831,233.532,-137.713,-114.200,-294.710,123.420
331,38840.222000,246.135,31.811,2.505,412.447,234.988,-147.587,-63.200,-364.710,119.420
332,38840.262000,238.243,54.028,-10.521,411.545,233.922,-154.576,-8.200,-603.710,164.420
333,38840.302000,242.189,76.245,-25.550,409.729,229.074,-172.613,-44.200,-908.710,211.420
334,38840.342000,224.432,12.623,-43.585,403.523,225.231,-185.666,-265.200,-781.710,230.420
335,38840.384000,256.000,30.801,-45.589,401.705,218.647,-203.760,-35.200,-995.710,191.420
336,38840.424000,207.661,7.574,-78.654,390.201,212.952,-220.862,137.800,-1252.710,96.420
337,38840.444000,188.917,-11.613,-110.716,382.192,204.402,-246.983,690.800,-1060.710,-14.580
338,38840.483000,265.865,58.067,-141.777,372.438,197.727,-268.084,257.800,-637.710,162.420
339,38840.524000,247.121,32.821,-169.832,375.082,195.153,-267.166,-281.200,-234.710,294.420
340,38840.562000,265.865,-56.047,-159.812,380.393,196.279,-258.175,-212.200,519.290,93.420
341,38840.602000,253.040,-27.771,-155.804,385.726,206.225,-243.934,-161.200,990.290,-115.580
342,38840.642000,252.054,-17.673,-107.710,395.487,210.380,-219.936,219.800,1282.290,-235.580
343,38840.682000,239.229,44.939,-57.613,406.124,211.035,-197.042,304.800,1300.290,-199.580
344,38840.702000,230.351,39.890,-37.573,415.874,211.634,-176.138,380.800,1327.290,7.420
345,38840.747000,241.202,23.732,-9.519,418.549,201.614,-162.553,689.800,1009.290,-12.580
346,38840.781000,224.432,23.732,2.505,424.751,203.693,-150.550,208.800,779.290,-56.580
347,38840.821000,235.283,7.574,-4.509,429.181,202.213,-141.646,700.800,676.290,-62.580
348,38840.861000,231.337,38.880,22.544,428.330,208.542,-132.507,329.800,290.290,-101.580
349,38840.906000,226.405,60.087,-10.521,426.559,204.145,-134.641,161.800,182.290,-20.580
350,38840.929000,274.744,36.860,19.538,427.441,205.881,-134.582,290.800,105.290,21.420
351,38840.962000,221.472,33.830,40.579,425.658,203.947,-141.601,201.800,-262.710,-8.580
352,38841.2000,256.000,47.968,74.646,420.335,203.577,-154.539,-154.200,-827.710,-29.580
353,38841.46000,314.204,1.515,71.640,409.668,203.479,-188.338,79.800,-1447.710,-33.580
354,38841.87000,443.437,-14.643,11.523,404.326,203.780,-208.206,260.800,-1630.710,-113.580
355,38841.123000,320.123,58.067,-54.607,388.383,205.499,-238.984,546.800,-1344.710,113.420
356,38841.162000,171.160,125.728,-12.524,383.964,209.667,-244.820,-456.200,-573.710,173.420
357,38841.181000,156.362,-63.116,29.558,395.501,220.852,-217.610,-1341.200,546.290,516.420
358,38841.221000,167.214,29.791,-5.511,404.386,220.751,-190.774,-773.200,1350.290,595.420
359,38841.266000,180.039,74.225,-85.667,423.912,217.890,-139.169,-1622.200,1698.290,566.420
360,38841.311000,242.189,68.166,-73.644,446.098,208.312,-79.829,-1288.200,1817.290,706.420
361,38841.347000,211.607,114.619,-134.763,456.791,207.795,-37.113,-445.200,1541.290,723.420
362,38841.382000,222.459,53.018,-149.793,459.487,207.464,-18.248,-271.200,1027.290,180.420
363,38841.403000,301.380,-197.428,-46.591,462.151,209.399,-11.226,563.800,114.290,-306.580
364,38841.446000,329.988,-225.704,78.654,456.858,215.359,-15.021,1646.800,421.290,-261.580
365,38841.484000,321.110,-127.748,-47.593,456.848,216.114,-18.969,-314.200,-57.710,123.420
366,38841.522000,256.000,-147.945,-70.638,455.944,209.000,-25.160,-183.200,-305.710,426.420
367,38841.561000,257.973,-140.876,-36.571,457.663,193.068,-36.595,602.800,-379.710,676.420
368,38841.603000,228.378,-60.087,-56.611,463.753,173.357,-59.061,1583.800,-351.710,1038.420
369,38841.646000,235.283,8.584,-56.611,463.667,139.753,-81.997,1248.800,-411.710,1069.420
370,38841.663000,238.243,28.781,-33.566,460.954,117.516,-101.594,762.800,-541.710,1041.420
371,38841.703000,212.593,-29.791,-4.509,457.381,101.523,-115.034,496.800,-590.710,750.420
372,38841.743000,169.187,10.604,16.532,459.987,89.959,-125.330,458.800,-204.710,852.420
373,38841.784000,182.998,36.860,-87.671,452.922,69.962,-126.995,-614.200,-81.710,940.420
374,38841.832000,223.445,68.166,71.640,453.783,58.566,-131.334,-1233.200,-155.710,764.420
375,38841.861000,290.528,46.959,-4.509,453.777,50.754,-131.587,-215.200,-128.710,292.420
376,38841.886000,444.424,152.994,128.751,449.361,46.326,-134.724,730.800,-26.710,-144.580
377,38841.926000,489.803,-131.787,91.679,453.756,41.065,-136.867,427.800,167.290,135.420
378,38841.962000,345.773,-65.136,57.613,454.662,43.895,-128.828,27.800,359.290,86.420
379,38842.3000,289.541,87.353,14.528,455.542,50.784,-130.588,11.800,-129.710,-140.580
380,38842.43000,311.245,202.477,-197.886,447.547,60.461,-156.117,-1321.200,-1795.710,-814.580
381,38842.83000,225.418,37.870,-80.658,426.337,99.416,-188.683,-1959.200,-2060.710,-1196.580
382,38842.122000,200.755,37.870,-33.566,406.888,125.437,-218.683,-234.200,-1528.710,-1393.580
383,38842.142000,140.578,60.087,-8.517,390.102,143.901,-239.984,415.800,-811.710,-1587.580
384,38842.189000,120.848,-29.791,-28.556,383.047,164.502,-247.282,199.800,-283.710,-1580.580
385,38842.222000,125.780,-30.801,-56.611,377.788,189.755,-243.500,-383.200,187.290,-1483.580
386,38842.268000,191.877,-73.215,-49.597,372.577,218.062,-223.732,-1217.200,753.290,-1248.580
387,38842.307000,217.526,-112.600,-87.671,383.239,244.814,-198.005,-899.200,1044.290,-568.580
388,38842.344000,337.881,-26.761,-183.859,392.095,242.696,-181.164,-69.200,1447.290,-550.580
389,38842.388000,373.395,-294.375,-23.546,404.446,232.542,-172.517,2463.800,1326.290,129.420
390,38842.402000,425.680,44.939,51.601,403.608,232.964,-157.611,-1254.200,315.290,-187.580
391,38842.446000,222.459,-20.702,-32.564,401.004,244.556,-146.321,760.800,297.290,-204.580
392,38842.492000,240.216,132.797,-35.569,405.420,248.116,-143.212,499.800,526.290,65.420
393,38842.527000,240.216,28.781,-18.536,412.504,246.751,-130.325,-916.200,469.290,-38.580
394,38842.584000,262.906,-3.535,11.523,413.412,253.921,-122.145,419.800,309.290,17.420
395,38842.607000,213.580,80.284,17.534,413.423,252.298,-118.226,-134.200,-62.710,26.420
396,38842.627000,231.337,84.323,24.548,412.512,250.279,-128.224,201.800,-160.710,88.420
397,38842.667000,216.540,66.146,-15.530,410.752,245.126,-126.411,-396.200,-248.710,67.420
398,38842.708000,233.310,53.018,19.538,411.631,246.835,-127.346,-532.200,-344.710,29.420
399,38842.746000,283.622,-9.594,-21.542,411.605,241.401,-135.466,-167.200,-631.710,58.420
400,38842.787000,257.973,8.584,-65.628,406.289,247.136,-147.213,142.800,-472.710,-78.580
401,38842.827000,281.649,39.890,-78.654,404.507,249.513,-155.086,363.800,-77.710,-57.580
402,38842.867000,267.838,43.929,-64.626,407.146,240.863,-154.365,372.800,162.290,-72.580
403,38842.887000,238.243,20.702,-18.536,405.403,247.947,-149.176,250.800,345.290,-33.580
404,38842.927000,240.216,62.107,11.523,402.754,247.020,-151.200,283.800,73.290,-10.580
405,38842.964000,222.459,110.580,-9.519,406.239,239.741,-163.341,465.800,-151.710,105.420
406,38843.2000,212.593,82.304,25.550,405.346,235.316,-166.466,84.800,-555.710,206.420
407,38843.47000,243.175,19.692,-13.526,402.663,234.051,-180.418,-223.200,-912.710,141.420
408,38843.87000,253.040,16.663,19.538,392.032,230.876,-200.415,-353.200,-1251.710,69.420
409,38843.107000,182.012,83.314,-107.710,384.932,236.384,-220.119,-265.200,-1291.710,-0.580
410,38843.144000,304.339,23.732,-59.616,369.024,231.553,-237.207,24.800,-1216.710,52.420
411,38843.183000,192.863,57.057,-101.699,355.722,224.651,-266.271,187.800,-1251.710,-40.580
412,38843.223000,295.461,52.008,-153.800,352.152,219.018,-281.360,421.800,-665.710,324.420
413,38843.263000,230.351,30.801,-172.838,352.122,201.489,-287.886,-267.200,-338.710,449.420
414,38843.303000,276.717,-39.890,-179.851,358.318,218.154,-281.368,-149.200,455.290,67.420
415,38843.348000,224.432,20.702,-157.808,362.769,216.032,-264.542,-316.200,986.290,-149.580
416,38843.368000,252.054,-21.712,-125.746,376.944,220.275,-237.548,6.800,1356.290,-150.580
417,38843.403000,250.081,45.949,-86.669,389.356,227.961,-211.441,370.800,1468.290,-68.580
418,38843.444000,206.674,64.126,-55.609,402.609,218.873,-195.805,432.800,1496.290,90.420
419,38843.484000,222.459,63.116,39.577,411.478,219.471,-174.905,362.800,1254.290,122.420
420,38843.524000,220.486,39.890,5.511,418.573,214.775,-157.161,-21.200,738.290,114.420
421,38843.564000,245.148,55.037,25.550,423.880,213.268,-149.249,304.800,484.290,81.420
422,38843.584000,216.540,56.047,23.546,423.877,212.372,-150.271,-128.200,57.290,30.420
423,38843.624000,242.189,4.544,-4.509,420.350,211.473,-151.304,224.800,-178.710,-2.580
424,38843.664000,274.744,46.959,-7.515,421.218,209.625,-155.333,-160.200,-336.710,12.420
425,38843.706000,265.865,4.544,31.562,415.022,208.471,-165.320,24.800,-467.710,61.420
426,38843.749000,393.125,-5.554,34.568,410.551,206.952,-188.223,126.800,-1110.710,-25.580
427,38843.784000,451.329,-8.584,28.556,401.700,210.835,-204.013,172.800,-1295.710,-185.580
428,38843.824000,334.921,41.909,19.538,391.087,219.896,-220.634,-167.200,-714.710,-184.580
429,38843.844000,226.405,19.692,111.718,389.346,228.716,-215.388,-417.200,283.290,171.420
430,38843.886000,218.513,-20.702,46.591,409.674,223.359,-190.672,269.800,1199.290,565.420
431,38843.927000,217.526,67.156,-34.568,430.932,215.038,-148.176,-780.200,1760.290,513.420
432,38843.966000,199.769,65.136,-64.626,441.630,221.464,-105.234,-1860.200,1759.290,530.420
433,38844.8000,174.119,15.653,-204.900,451.446,215.823,-59.708,-1143.200,1024.290,565.420
434,38844.49000,79.414,170.162,-443.366,452.321,208.012,-59.959,64.800,-442.710,136.420
435,38844.83000,197.796,-87.353,-7.515,450.513,206.692,-75.895,117.800,-556.710,-98.580
436,38844.103000,421.734,-124.718,-15.530,452.241,209.799,-88.698,877.800,-327.710,-21.580
437,38844.143000,421.734,-122.698,18.536,446.066,210.578,-91.671,630.800,162.290,-228.580
438,38844.183000,287.568,-79.274,-78.654,441.633,210.293,-101.625,2166.800,497.290,-318.580
439,38844.223000,217.526,-83.314,-99.695,444.233,197.805,-113.937,1710.800,213.290,260.420
440,38844.263000,216.540,-121.688,-223.937,442.418,180.049,-128.421,287.800,-546.710,847.420
441,38844.303000,189.904,-77.254,-56.611,443.206,146.390,-153.343,1312.800,-637.710,1388.420
442,38844.323000,234.297,-20.702,-16.532,447.553,113.939,-166.298,312.800,-340.710,1565.420
443,38844.363000,236.270,0.505,5.511,449.289,79.221,-167.419,-343.200,80.290,1619.420
444,38844.409000,209.634,31.811,-13.526,452.827,62.985,-158.997,-443.200,345.290,1571.420
445,38844.448000,216.540,89.373,-20.540,454.579,35.323,-155.917,-632.200,264.290,1409.420
446,38844.491000,161.295,73.215,17.534,449.281,25.715,-158.232,-2153.200,-294.710,910.420
447,38844.530000,343.800,-30.801,49.597,444.875,31.731,-160.037,-954.200,117.290,-12.580
448,38844.569000,357.611,95.432,137.769,441.327,18.568,-165.440,1056.800,-430.710,-59.580
449,38844.584000,505.588,-164.103,60.618,440.410,11.313,-176.602,601.800,-337.710,-63.580
450,38844.629000,452.316,-18.682,27.554,439.535,15.681,-175.470,-383.200,14.290,32.420
451,38844.669000,351.692,96.442,58.614,443.974,20.334,-164.382,-270.200,554.290,-203.580
452,38844.709000,301.380,52.008,-113.722,446.629,32.516,-162.985,299.800,-107.710,-624.580
453,38844.749000,282.636,50.998,-213.918,440.417,36.372,-179.761,1064.800,-1076.710,-998.580
454,38844.793000,205.688,123.708,-77.652,425.376,70.180,-210.487,-1495.200,-1592.710,-1351.580
455,38844.808000,186.944,-2.525,-37.573,408.618,112.193,-227.052,-1487.200,-1241.710,-1492.580
456,38844.847000,150.443,-22.722,-1.503,395.397,144.857,-236.957,-959.200,-695.710,-1431.580
457,38844.888000,141.565,-124.718,-12.524,389.254,170.081,-234.172,-450.200,105.290,-1403.580
458,38844.928000,137.618,-101.491,-76.650,390.160,191.866,-230.483,74.800,432.290,-1082.580
459,38844.967000,186.944,-70.185,-93.683,394.625,204.529,-212.184,-857.200,635.290,-639.580
460,38845.7000,225.418,-3.535,-107.710,397.334,225.869,-193.609,-33.200,1075.290,-894.580
461,38845.46000,292.501,-181.270,-114.724,405.304,228.006,-179.613,1257.800,1291.290,-1207.580
462,38845.67000,511.507,41.909,-19.538,419.355,195.703,-187.567,3039.800,1292.290,353.420
463,38845.108000,286.582,-374.154,-78.654,416.825,229.558,-155.694,-4188.200,-37.710,-370.580
464,38845.148000,246.135,69.176,-58.614,416.818,232.077,-158.591,2012.800,617.290,-204.580
465,38845.189000,231.337,173.191,-32.564,417.730,227.208,-146.830,-140.200,531.290,94.420
466,38845.229000,264.879,-19.692,-21.542,422.175,236.229,-134.607,-222.200,570.290,2.420
467,38845.269000,222.459,64.126,16.532,428.374,238.280,-123.598,58.800,462.290,-13.580
468,38845.309000,221.472,68.166,26.552,425.745,237.551,-118.665,-113.200,63.290,42.420
469,38845.329000,241.202,57.057,18.536,428.378,235.732,-121.694,-220.200,-198.710,105.420
470,38845.369000,250.081,34.840,46.591,425.700,225.900,-131.952,-28.200,-545.710,176.420
471,38845.409000,243.175,10.604,10.521,425.659,220.326,-145.042,8.800,-957.710,110.420
472,38845.446000,255.013,38.880,-48.595,419.447,224.183,-161.818,175.800,-936.710,-5.580
473,38845.486000,273.757,62.107,-105.706,414.107,223.644,-180.719,329.800,-567.710,-19.580
474,38845.526000,224.432,-38.880,-162.818,414.986,220.172,-180.829,266.800,115.290,16.420
475,38845.546000,278.690,72.205,-70.638,416.767,223.815,-174.747,-583.200,247.290,-35.580
476,38845.586000,228.378,40.899,-32.564,417.678,225.833,-164.749,-255.200,432.290,74.420
477,38845.626000,244.162,46.959,19.538,421.223,223.457,-156.870,-300.200,126.290,101.420
478,38845.666000,223.445,60.087,7.515,419.464,220.908,-154.973,-281.200,-185.710,82.420
479,38845.706000,242.189,44.939,-10.521,425.618,225.952,-160.747,-47.200,-344.710,121.420
480,38845.744000,248.108,29.791,15.530,422.064,223.931,-170.754,-342.200,-777.710,126.420
481,38845.789000,232.324,-19.692,-32.564,415.853,225.212,-186.620,-142.200,-912.710,45.420
482,38845.809000,249.094,15.653,-7.515,405.223,225.481,-207.499,-81.200,-1065.710,25.420
483,38845.847000,178.066,41.909,-120.736,393.702,223.928,-231.418,-236.200,-1403.710,-53.580
484,38845.887000,242.189,31.811,-106.708,383.071,212.130,-249.708,394.800,-1151.710,24.420
485,38845.927000,256.000,4.544,-80.658,369.769,204.359,-278.800,322.800,-1236.710,102.420
486,38845.967000,231.337,48.978,-153.800,360.902,199.478,-297.854,296.800,-919.710,238.420
487,38846.7000,232.324,4.544,-189.871,359.105,187.071,-307.199,179.800,-412.710,231.420
488,38846.27000,269.811,-46.959,-203.898,362.640,197.518,-305.855,49.800,338.290,-136.580
489,38846.69000,241.202,-17.673,-198.888,366.212,205.755,-290.682,-178.200,926.290,-381.580
490,38846.109000,248.108,-13.633,-178.849,376.856,211.646,-266.625,-22.200,1380.290,-358.580
491,38846.147000,253.040,11.613,-88.673,389.265,215.860,-240.631,566.800,1578.290,-191.580
492,38846.187000,199.769,89.373,-55.609,398.986,210.129,-228.870,824.800,1601.290,-156.580
493,38846.227000,196.809,124.718,-34.568,414.921,204.881,-200.192,230.800,1451.290,76.420
494,38846.267000,217.526,9.594,8.517,423.795,200.356,-176.479,260.800,1158.290,205.420
495,38846.287000,227.391,-6.564,13.526,435.298,204.315,-159.432,-34.200,696.290,88.420
496,38846.327000,242.189,15.653,26.552,434.436,202.775,-152.534,130.800,376.290,-53.580
497,38846.367000,235.283,46.959,-5.511,430.912,203.641,-152.517,-263.200,-22.710,-49.580
498,38846.418000,262.906,45.949,14.528,430.914,206.245,-152.433,-76.200,-273.710,-6.580
499,38846.449000,255.013,39.890,22.544,429.113,205.849,-166.353,-61.200,-533.710,-20.580
500,38846.491000,343.800,-11.613,14.528,420.248,203.572,-185.323,-345.200,-1170.710,-30.580
501,38846.512000,426.667,-5.554,-9.519,412.283,211.823,-199.975,-138.200,-1302.710,-27.580
502,38846.548000,386.220,21.712,4.509,399.894,220.743,-221.571,-239.200,-1140.710,-28.580
503,38846.586000,211.607,5.554,53.605,395.499,221.692,-218.576,-238.200,-239.710,79.420
504,38846.626000,179.052,-19.692,71.640,407.888,224.840,-199.567,-79.200,896.290,228.420
505,38846.667000,218.513,35.850,-5.511,418.517,218.524,-177.892,391.800,1767.290,358.420
506,38846.706000,182.012,58.067,-48.595,437.158,214.766,-127.312,-316.200,2261.290,450.420
507,38846.747000,223.445,65.136,-135.765,453.184,210.419,-66.829,-581.200,2259.290,482.420
508,38846.766000,195.823,59.077,-142.779,458.583,207.238,-26.202,-585.200,1100.290,464.420
509,38846.808000,163.268,-19.692,-236.963,461.250,204.890,-17.333,-884.200,-91.710,23.420
510,38846.846000,274.744,-87.353,71.640,458.577,207.182,-28.190,354.800,-431.710,-108.580
511,38846.886000,422.721,-10.604,64.626,457.672,204.352,-36.229,146.800,-272.710,-90.580
512,38846.926000,329.002,-92.402,-0.501,458.529,210.147,-45.968,704.800,-33.710,-306.580
513,38846.972000,311.245,-97.452,-99.695,450.563,205.463,-58.061,1412.800,27.290,-112.580
514,38847.11000,246.135,-22.722,-141.777,447.882,204.227,-71.019,50.800,-553.710,76.420
515,38847.29000,242.189,-172.181,-62.622,446.048,198.342,-95.047,228.800,-1006.710,380.420
516,38847.71000,230.351,-68.166,-94.685,444.163,172.994,-132.617,1290.800,-1089.710,838.420
517,38847.111000,183.985,-38.880,-61.620,437.869,141.567,-170.397,623.800,-1234.710,1136.420
518,38847.156000,140.578,-49.988,10.521,433.420,131.650,-183.642,-259.200,-781.710,1245.420
519,38847.188000,166.227,-37.870,16.532,436.020,104.519,-192.458,118.800,-66.710,1300.420
520,38847.228000,171.160,63.116,-9.519,436.032,77.921,-182.398,-945.200,385.290,1429.420
521,38847.249000,279.676,89.373,-61.620,443.100,56.592,-170.159,-1276.200,618.290,1452.420
522,38847.292000,314.204,264.079,58.614,441.340,54.883,-169.227,-2179.200,-154.710,589.420
523,38847.332000,464.154,65.136,134.763,438.687,53.060,-172.274,2443.800,168.290,-160.580
524,38847.372000,500.655,-9.594,71.640,436.903,49.390,-179.349,-108.200,-310.710,-34.580
525,38847.413000,437.518,-89.373,23.546,436.023,46.813,-178.443,-141.200,-183.710,36.420
526,38847.452000,369.449,148.955,54.607,440.441,52.977,-175.250,-423.200,198.290,-89.580
527,38847.491000,256.000,177.231,-50.599,441.343,59.223,-169.086,-0.200,119.290,-449.580
528,38847.508000,234.297,177.231,-246.982,436.895,73.440,-187.506,1263.800,-980.710,-1412.580
529,38847.551000,178.066,88.363,-107.710,417.454,102.989,-215.406,900.800,-1376.710,-2175.580
530,38847.591000,159.322,25.751,-94.685,391.809,126.988,-255.422,1541.800,-1495.710,-2390.580
531,38847.633000,77.441,-71.195,90.677,376.811,155.198,-269.450,-890.200,-969.710,-1732.580
532,38847.668000,29.102,-182.280,54.607,375.108,192.831,-257.311,-1739.200,494.290,-823.580
533,38847.709000,208.647,-60.087,-63.624,392.855,220.822,-218.612,-1815.200,1443.290,-350.580
534,38847.729000,363.530,-111.590,-162.818,407.114,243.997,-166.179,-1925.200,1263.290,-240.580
535,38847.769000,321.110,-310.533,-69.636,410.694,247.139,-147.199,-411.200,758.290,-238.580
536,38847.812000,426.667,-58.067,-61.620,415.995,236.952,-139.568,695.800,917.290,269.420
537,38847.852000,252.054,-27.771,-14.528,416.914,243.367,-127.441,-1086.200,140.290,-225.580
538,38847.892000,191.877,91.393,-35.569,418.689,248.660,-124.285,244.800,187.290,-166.580
539,38847.932000,222.459,67.156,-59.616,418.722,248.130,-112.386,-767.200,160.290,21.420
540,38847.972000,322.096,-24.742,-6.513,424.031,256.983,-106.124,-327.200,29.290,34.420
541,38847.989000,229.364,20.702,-24.548,418.750,259.612,-105.063,-190.200,-123.710,8.420
542,38848.29000,230.351,105.531,9.519,419.621,256.924,-108.126,238.800,98.290,-25.580
543,38848.76000,222.459,100.481,36.571,422.271,255.274,-105.192,-83.200,41.290,96.420
544,38848.108000,232.324,81.294,17.534,423.147,251.775,-106.296,-327.200,-218.710,81.420
545,38848.148000,191.877,97.452,15.530,424.901,249.984,-108.334,-878.200,-584.710,61.420
546,38848.187000,241.202,6.564,6.513,423.104,251.352,-121.205,-721.200,-1119.710,135.420
547,38848.212000,264.879,-56.047,-48.595,415.115,257.642,-143.865,-292.200,-1451.710,4.420
548,38848.252000,242.189,-2.525,-60.618,407.093,257.575,-176.661,682.800,-1300.710,-276.580
549,38848.292000,279.676,48.978,-128.751,395.590,249.304,-192.854,747.800,-648.710,-225.580
550,38848.333000,269.811,55.037,-173.840,393.819,253.530,-196.695,118.800,-73.710,-81.580
551,38848.368000,260.933,14.643,-126.748,396.483,251.153,-188.820,-7.200,571.290,-11.580
552,38848.408000,251.067,22.722,-59.616,400.059,253.399,-170.861,-56.200,762.290,-9.580
553,38848.448000,217.526,100.481,-34.568,407.120,255.253,-166.807,461.800,837.290,24.420
554,38848.468000,207.661,78.264,-9.519,411.562,252.178,-152.990,160.800,573.290,149.420
555,38848.508000,227.391,46.959,3.507,418.615,248.796,-150.099,7.800,222.290,116.420
556,38848.549000,222.459,59.077,6.513,415.077,248.653,-155.080,-37.200,-223.710,68.420
557,38848.589000,245.148,34.840,-14.528,414.189,245.992,-157.155,-39.200,-633.710,55.420
558,38848.628000,208.647,69.176,-55.609,408.850,242.877,-175.147,-314.200,-990.710,1.420
559,38848.674000,211.607,28.781,-66.630,399.980,241.411,-196.076,-145.200,-1077.710,25.420
560,38848.713000,234.297,60.087,-69.636,391.993,239.106,-216.036,-213.200,-1250.710,75.420
561,38848.733000,234.297,63.116,-133.761,383.107,238.339,-242.900,106.800,-1121.710,242.420
562,38848.773000,220.486,14.643,-167.828,380.439,227.752,-249.210,6.800,-799.710,322.420
563,38848.808000,242.189,-9.594,-196.885,378.651,222.317,-257.336,163.800,-157.710,131.420
564,38848.848000,285.595,-54.028,-202.896,383.949,227.614,-254.168,99.800,445.290,-92.580
565,38848.892000,249.094,6.564,-156.806,391.060,233.418,-233.104,31.800,911.290,-268.580
566,38848.928000,222.459,52.008,-114.724,394.620,232.051,-220.228,220.800,1286.290,-282.580
567,38848.948000,235.283,79.274,-82.661,405.265,237.103,-195.205,59.800,1348.290,-68.580
568,38848.989000,223.445,39.890,-23.546,418.550,232.637,-169.490,24.800,1267.290,227.420
569,38849.29000,243.175,58.067,-16.532,423.019,231.552,-146.672,-115.200,1036.290,228.420
570,38849.69000,208.647,17.673,8.517,429.238,237.243,-129.587,-280.200,731.290,109.420
571,38849.109000,242.189,-8.584,6.513,433.669,235.792,-119.690,126.800,344.290,-60.580
572,38849.149000,249.094,55.037,-2.505,431.031,238.422,-118.620,297.800,148.290,-132.580
573,38849.189000,245.148,31.811,4.509,428.391,241.892,-118.516,-10.200,-34.710,-84.580
574,38849.209000,256.000,29.791,-23.546,429.249,237.356,-125.611,322.800,-224.710,7.420
575,38849.249000,231.337,20.702,-36.571,429.228,236.291,-132.597,400.800,-182.710,-6.580
576,38849.289000,278.690,28.781,-41.581,424.808,234.411,-137.637,260.800,-151.710,12.420
577,38849.328000,276.717,9.594,16.532,422.138,232.419,-146.647,336.800,-382.710,-46.580
578,38849.373000,369.449,6.564,34.568,414.140,225.690,-169.730,729.800,-826.710,-141.580
579,38849.414000,344.786,21.712,-14.528,407.048,234.725,-187.333,567.800,-997.710,-290.580
580,38849.428000,322.096,29.791,-25.550,393.770,236.672,-210.151,468.800,-895.710,-274.580
581,38849.473000,229.364,21.712,-19.538,385.818,234.705,-218.184,269.800,-507.710,20.420
582,38849.513000,179.052,-29.791,27.554,390.237,234.849,-213.201,-352.200,133.290,307.420
583,38849.553000,198.782,32.821,10.521,402.618,234.469,-196.292,-161.200,879.290,628.420
584,38849.588000,219.499,50.998,-36.571,418.555,228.381,-166.649,-691.200,1292.290,761.420
585,38849.628000,263.892,47.968,-56.611,438.069,221.096,-118.166,-990.200,1463.290,953.420
586,38849.672000,252.054,132.797,-36.571,451.404,209.381,-72.826,-1856.200,1321.290,771.420
587,38849.694000,155.376,23.732,-81.659,460.380,205.002,-13.360,-2041.200,1420.290,404.420
588,38849.734000,170.173,33.830,-144.783,459.545,198.564,4.302,461.800,1467.290,256.420
589,38849.774000,116.902,40.899,-286.059,463.107,196.357,18.144,-667.200,-70.710,249.420
590,38849.817000,182.998,-138.856,-20.540,468.344,191.570,2.117,-842.200,-1101.710,-58.580
591,38849.856000,355.638,-118.659,-32.564,470.912,189.972,-23.744,410.800,-782.710,32.420
592,38849.891000,396.085,90.383,21.542,468.265,195.961,-26.537,65.800,-124.710,-330.580
593,38849.931000,412.855,-108.560,-54.607,462.089,209.648,-33.064,2264.800,743.290,-644.580
594,38849.951000,305.326,-56.047,-74.646,457.713,214.238,-23.992,1128.800,1174.290,-23.580
595,38849.991000,277.703,-147.945,-65.628,459.473,208.191,-23.189,1752.800,956.290,428.420
596,38850.30000,251.067,35.850,-98.693,460.326,193.267,-29.629,1681.800,414.290,463.420
597,38850.74000,281.649,-156.024,-63.624,462.001,177.752,-56.938,813.800,-1078.710,791.420
598,38850.113000,231.337,-53.018,-28.556,457.437,153.772,-107.380,1429.800,-1398.710,1082.420
599,38850.152000,202.728,-21.712,9.519,450.280,127.694,-140.025,21.800,-1425.710,1066.420
600,38850.174000,136.632,12.623,30.560,445.819,109.908,-155.511,-201.200,-876.710,1161.420
601,38850.211000,132.686,29.791,25.550,446.653,92.211,-167.999,-272.200,-382.710,1135.420
602,38850.258000,158.335,53.018,17.534,443.979,68.632,-173.737,-158.200,-192.710,985.420
603,38850.294000,198.782,194.398,46.591,438.682,57.316,-175.115,-1132.200,-249.710,712.420
604,38850.336000,511.507,67.156,183.859,435.138,64.004,-183.846,-1663.200,-567.710,362.420
605,38850.369000,432.586,-185.310,41.581,433.349,57.701,-192.000,1110.800,-533.710,-31.580
606,38850.418000,471.060,-84.323,-52.603,430.681,50.558,-199.191,-210.200,-119.710,-19.580
607,38850.434000,383.260,3.535,-65.628,436.006,57.844,-187.022,-423.200,691.290,111.420
608,38850.474000,287.568,251.961,12.524,445.751,59.254,-168.078,-89.200,965.290,-174.580
609,38850.513000,281.649,70.185,-157.808,441.366,67.204,-162.869,1195.800,0.290,-1081.580
610,38850.552000,243.175,220.655,-56.611,436.021,78.676,-186.346,1889.800,-907.710,-1563.580
611,38850.592000,205.688,-0.505,-26.552,416.599,115.310,-209.051,-1167.200,-1288.710,-1792.580
612,38850.631000,209.634,-54.028,-25.550,398.990,162.783,-216.504,-1572.200,-877.710,-1579.580
613,38850.651000,186.944,-116.639,-3.507,392.838,189.630,-217.638,-1156.200,-371.710,-1243.580
614,38850.690000,155.376,-155.014,27.554,390.257,212.647,-201.012,-1240.200,551.290,-712.580
615,38850.730000,212.593,-173.191,-33.566,400.037,235.087,-174.435,-793.200,1144.290,-433.580
616,38850.769000,266.852,-88.363,-136.767,410.689,243.639,-148.305,-273.200,1227.290,-456.580
617,38850.814000,379.314,-169.152,-242.975,415.988,238.603,-142.494,867.800,174.290,188.420
618,38850.852000,344.786,5.554,-40.579,414.225,241.178,-143.409,-1539.200,-291.710,-113.580
619,38850.892000,202.728,39.890,-133.761,412.469,246.413,-142.252,150.800,48.290,-190.580
620,38850.912000,226.405,91.393,-46.591,416.014,244.037,-134.374,-3.200,510.290,11.420
621,38850.951000,292.501,16.663,42.583,412.516,239.976,-124.587,-32.200,364.290,44.420
622,38850.990000,248.108,21.712,25.550,416.926,243.479,-123.466,-8.200,13.290,-41.580
623,38851.31000,215.553,88.363,-2.505,413.396,246.864,-126.346,-352.200,-250.710,-39.580
624,38851.71000,272.771,32.821,-35.569,413.413,250.477,-121.264,-377.200,-123.710,65.420
625,38851.111000,266.852,-8.584,-29.558,411.656,253.108,-120.191,-403.200,-114.710,-14.580
626,38851.131000,230.351,78.264,-37.573,411.645,250.419,-123.257,152.800,-41.710,-41.580
627,38851.171000,227.391,72.205,-26.552,415.167,252.130,-124.184,-68.200,-51.710,57.420
628,38851.211000,254.027,31.811,-32.564,416.932,255.603,-124.065,-204.200,-84.710,55.420
629,38851.257000,260.933,21.712,-48.595,416.944,252.272,-119.208,-66.200,37.290,49.420
630,38851.304000,240.216,57.057,-32.564,417.827,252.301,-118.212,-34.200,81.290,50.420
631,38851.331000,241.202,45.949,1.503,416.069,253.196,-117.195,4.800,-61.710,103.420
632,38851.379000,241.202,37.870,10.521,420.456,248.718,-122.291,92.800,-275.710,131.420
633,38851.394000,234.297,16.663,-2.505,416.887,240.509,-136.471,278.800,-478.710,121.420
634,38851.434000,231.337,27.771,19.538,411.536,236.414,-158.467,146.800,-1145.710,-60.580
635,38851.471000,302.366,33.830,-80.658,403.559,239.373,-176.270,325.800,-1127.710,-112.580
636,38851.511000,228.378,10.604,-230.951,400.868,236.316,-192.266,584.800,-317.710,-61.580
637,38851.552000,276.717,70.185,-105.706,401.755,232.929,-189.394,150.800,566.290,71.420
638,38851.592000,230.351,49.988,-80.658,407.105,235.289,-167.455,-233.200,835.290,25.420
639,38851.632000,148.470,60.087,-90.677,414.165,232.831,-162.547,824.800,1212.290,-41.580
640,38851.652000,323.083,6.564,78.654,417.741,230.765,-143.736,128.800,817.290,-56.580
641,38851.692000,240.216,41.909,30.560,420.401,230.936,-137.764,252.800,295.290,-137.580
642,38851.732000,227.391,78.264,-41.581,418.645,230.991,-135.781,257.800,-6.710,-32.580
643,38851.772000,239.229,53.018,-22.544,423.906,228.165,-143.800,-14.200,-100.710,71.420
644,38851.812000,237.256,58.067,12.524,418.625,231.661,-142.711,-252.200,-412.710,87.420
645,38851.852000,238.243,32.821,6.513,415.944,233.001,-156.578,-361.200,-750.710,147.420
646,38851.872000,200.755,62.107,-48.595,409.734,236.018,-172.387,-548.200,-1240.710,10.420
647,38851.912000,291.514,-13.633,8.517,399.078,231.721,-201.358,271.800,-1280.710,42.420
648,38851.952000,165.241,75.235,-311.108,391.081,224.152,-223.475,170.800,-1329.710,-101.580
649,38851.992000,267.838,-28.781,-122.740,384.015,225.686,-230.399,97.800,-362.710,26.420
650,38852.32000,288.555,-29.791,-201.894,385.789,226.668,-226.389,-46.200,216.290,-24.580
651,38852.71000,262.906,7.574,-138.771,390.228,231.321,-215.301,79.800,688.290,-35.580
652,38852.111000,230.351,65.136,-55.609,393.779,233.313,-206.288,240.800,871.290,-0.580
653,38852.131000,217.526,36.860,-37.573,400.880,232.985,-187.409,-164.200,830.290,37.420
654,38852.171000,226.405,1.515,-20.540,407.969,235.120,-173.415,378.800,719.290,-24.580
655,38852.211000,237.256,52.008,-23.546,408.869,234.450,-166.483,163.800,539.290,-28.580
656,38852.257000,257.973,12.623,-17.534,412.414,232.074,-158.605,207.800,417.290,-60.580
657,38852.297000,239.229,40.899,11.523,413.282,225.914,-161.781,263.800,144.290,-64.580
658,38852.332000,232.324,64.126,-27.554,412.411,232.046,-159.599,13.800,-31.710,-27.580
659,38852.352000,230.351,58.067,-15.530,411.525,232.857,-161.561,23.800,-119.710,15.420
660,38852.397000,247.121,58.067,16.532,411.509,234.424,-167.469,-175.200,-452.710,90.420
661,38852.438000,195.823,-9.594,-68.634,407.091,231.704,-171.543,-171.200,-548.710,78.420
662,38852.472000,297.434,55.037,-31.562,402.651,226.183,-182.659,-2.200,-448.710,19.420
663,38852.512000,261.919,37.870,-103.703,402.634,222.570,-187.741,-103.200,-183.710,41.420
664,38852.552000,244.162,17.673,-132.759,405.282,220.893,-185.801,64.800,137.290,169.420
665,38852.592000,288.555,15.653,-28.556,410.578,224.453,-182.690,65.800,168.290,156.420
666,38852.612000,320.123,-28.781,14.528,409.698,225.320,-182.665,181.800,-212.710,-67.580
667,38852.652000,313.218,39.890,7.515,406.134,228.367,-197.472,313.800,-583.710,-149.580
668,38852.692000,268.825,27.771,-18.536,396.416,228.946,-207.414,17.800,-746.710,-10.580
669,38852.732000,237.256,56.047,84.665,398.181,236.732,-208.149,-440.200,-252.710,-3.580
670,38852.778000,226.405,13.633,92.681,394.689,233.595,-196.346,-218.200,454.290,-6.580
671,38852.830000,216.540,1.515,55.609,407.962,233.328,-175.459,600.800,1319.290,148.420
672,38852.839000,250.081,67.156,-12.524,430.096,229.263,-135.801,-115.200,1764.290,138.420
673,38852.872000,226.405,-16.663,-65.628,438.187,242.942,-81.709,-1257.200,1760.290,-16.580
674,38852.913000,246.135,-27.771,-70.638,442.693,246.535,-46.824,78.800,1842.290,403.420
675,38852.953000,159.322,138.856,-346.176,447.173,233.495,-17.443,2.800,548.290,237.420
676,38852.993000,178.066,63.116,-331.147,446.251,235.676,-32.270,-1260.200,-1696.710,99.420
677,38853.33000,229.364,191.369,-23.546,443.556,237.743,-51.078,-613.200,-1034.710,-191.580
678,38853.76000,224.432,-31.811,-98.693,443.537,241.857,-58.889,709.800,-409.710,-456.580
679,38853.93000,466.127,6.564,23.546,444.395,241.633,-66.837,599.800,140.290,-171.580
680,38853.133000,511.507,-52.008,56.611,442.662,246.225,-57.757,638.800,712.290,-118.580
681,38853.178000,326.042,-211.566,-59.616,438.249,250.449,-61.606,1841.800,1020.290,-164.580
682,38853.219000,224.432,-183.290,-90.677,442.619,238.047,-70.931,1549.800,537.290,493.420
683,38853.262000,198.782,9.594,-258.004,436.422,227.401,-79.240,278.800,-403.710,469.420
684,38853.294000,115.915,-102.501,-37.573,438.969,200.602,-106.913,1646.800,-493.710,1064.420
685,38853.332000,169.187,12.623,15.530,447.699,158.466,-125.133,1391.800,67.290,1579.420
686,38853.357000,185.958,47.968,-7.515,458.257,117.847,-120.459,-116.200,422.290,1696.420
687,38853.397000,231.337,13.633,-75.648,461.784,98.922,-115.104,-280.200,483.290,1624.420
688,38853.432000,191.877,114.619,-19.538,469.703,63.509,-110.270,454.800,382.290,1296.420
689,38853.472000,259.946,173.191,0.501,464.381,44.184,-118.858,-1417.200,-485.710,732.420
690,38853.512000,364.516,156.024,363.209,461.724,37.154,-122.073,-510.200,-244.710,478.420
691,38853.553000,511.507,229.744,178.849,464.365,33.684,-122.178,1033.800,-68.710,-18.580
692,38853.573000,474.019,-178.241,130.755,462.592,37.881,-127.012,-931.200,-152.710,118.420
693,38853.613000,356.624,7.574,59.616,463.492,40.655,-120.961,-536.200,-36.710,77.420
694,38853.657000,258.960,204.497,-273.033,459.955,53.447,-128.501,-1436.200,-678.710,-449.580
695,38853.696000,183.985,127.748,-55.609,458.184,87.828,-139.307,-3014.200,-780.710,-818.580
696,38853.736000,163.268,23.732,-53.605,448.519,113.917,-136.506,-1938.200,-571.710,-993.580
697,38853.773000,167.214,36.860,-30.560,444.992,140.597,-143.595,108.800,-182.710,-1361.580
698,38853.813000,189.904,46.959,-55.609,437.075,170.859,-146.611,-36.200,-139.710,-1598.580
699,38853.833000,182.012,-80.284,-121.738,426.510,198.486,-150.713,-145.200,-221.710,-1528.580
700,38853.873000,190.890,-95.432,-124.744,417.692,210.463,-156.310,365.800,-219.710,-1243.580
701,38853.917000,214.566,-114.619,-70.638,412.384,226.613,-167.719,108.800,-225.710,-877.580
702,38853.959000,214.566,-150.974,35.569,407.110,231.033,-164.614,75.800,398.290,-618.580
703,38853.998000,337.881,-198.438,-42.583,415.976,237.623,-146.498,406.800,1319.290,-287.580
704,38854.38000,404.963,-19.692,-25.550,423.931,235.306,-136.617,506.800,907.290,118.420
705,38854.58000,326.042,-202.477,18.536,423.977,237.493,-120.658,-1531.200,254.290,-191.580
706,38854.100000,212.593,212.576,-0.501,417.818,247.036,-120.369,737.800,107.290,-276.580
707,38854.133000,207.661,157.034,-18.536,420.465,245.359,-118.428,-242.200,94.290,5.420
708,38854.178000,266.852,-4.544,-2.505,421.344,249.643,-120.273,214.800,152.290,15.420
709,38854.217000,241.202,26.761,3.507,421.356,250.624,-116.269,-321.200,-177.710,-162.580
710,38854.257000,231.337,59.077,-46.591,414.302,254.006,-119.161,72.800,-141.710,-116.580
711,38854.298000,254.027,71.195,-35.569,414.289,247.846,-122.340,34.800,24.290,21.420
712,38854.313000,250.081,41.909,-22.544,417.825,245.385,-117.443,-69.200,93.290,44.420
713,38854.354000,245.148,50.998,6.513,416.058,249.639,-120.290,-82.200,-14.710,32.420
714,38854.394000,237.256,57.057,-11.523,416.939,246.196,-119.406,68.800,-27.710,35.420
715,38854.434000,244.162,43.929,-13.526,417.810,240.064,-121.588,-44.200,-41.710,-22.580
716,38854.474000,246.135,43.929,15.530,415.176,252.214,-121.202,-336.200,-195.710,-25.580
717,38854.516000,244.162,34.840,13.526,416.934,254.763,-123.100,172.800,-452.710,33.420
718,38854.534000,242.189,47.968,20.540,413.364,253.442,-139.042,44.800,-762.710,-23.580
719,38854.576000,224.432,36.860,-3.507,407.127,253.601,-163.881,142.800,-1170.710,-97.580
720,38854.616000,259.946,32.821,-136.767,395.607,253.785,-187.744,478.800,-825.710,-198.580
721,38854.655000,277.703,46.959,-122.740,394.703,249.247,-194.845,535.800,-73.710,-34.580
722,38854.695000,257.973,17.673,-89.675,392.944,245.830,-192.976,56.800,279.290,25.420
723,38854.736000,237.256,60.087,-99.695,398.247,246.003,-186.995,40.800,629.290,0.420
724,38854.776000,237.256,66.146,-43.585,407.982,241.281,-170.236,-7.200,674.290,135.420
725,38854.796000,220.486,34.840,8.517,414.179,237.283,-158.430,-4.200,539.290,184.420
726,38854.836000,231.337,34.840,5.511,414.186,242.520,-157.267,56.800,-0.710,54.420
727,38854.878000,236.270,67.156,-5.511,411.520,237.981,-164.374,90.800,-393.710,76.420
728,38854.917000,247.121,46.959,0.501,404.426,239.233,-181.237,-14.200,-828.710,112.420
729,38854.958000,190.890,75.235,-43.585,395.569,237.039,-197.225,-426.200,-1092.710,4.420
730,38854.997000,299.407,4.544,42.583,383.157,233.666,-224.185,-256.200,-1382.710,-64.580
731,38855.38000,166.227,66.146,-141.777,377.840,236.796,-236.016,-105.200,-1167.710,44.420
732,38855.57000,232.324,67.156,-102.701,367.198,233.508,-259.988,97.800,-1162.710,241.420
733,38855.98000,178.066,74.225,-166.826,361.875,232.270,-272.955,-359.200,-957.710,284.420
734,38855.138000,247.121,65.136,-171.836,362.726,225.941,-282.094,-37.200,-262.710,352.420
735,38855.178000,258.960,-18.682,-216.924,364.499,222.612,-277.231,-209.200,368.290,284.420
736,38855.218000,248.108,32.821,-168.830,376.882,220.524,-259.386,-74.200,953.290,60.420
737,38855.259000,236.270,-16.663,-136.767,386.655,224.791,-231.412,-144.200,1485.290,-221.580
738,38855.279000,257.973,-26.761,-122.740,398.201,230.041,-199.429,224.800,1773.290,-176.580
739,38855.319000,216.540,61.097,-77.652,412.371,239.407,-175.248,60.800,1705.290,61.420
740,38855.373000,212.593,20.702,9.519,425.649,229.705,-150.696,695.800,1469.290,106.420
741,38855.398000,213.580,65.136,43.585,434.510,230.219,-132.777,242.800,1000.290,9.420
742,38855.434000,244.162,52.008,39.577,435.435,229.802,-116.899,-153.200,585.290,-52.580
743,38855.475000,228.378,22.722,7.515,432.793,226.356,-116.027,231.800,183.290,-29.580
744,38855.517000,250.081,61.097,11.523,431.908,225.459,-117.052,82.800,-35.710,-38.580
745,38855.538000,245.148,43.929,7.515,428.395,224.702,-113.115,-218.200,-177.710,-1.580
746,38855.579000,243.175,31.811,2.505,434.532,222.688,-123.091,-180.200,-297.710,65.420
747,38855.618000,267.838,19.692,-27.554,430.996,221.705,-127.106,-43.200,-339.710,51.420
748,38855.658000,264.879,15.653,-55.609,430.995,226.857,-128.925,-72.200,-206.710,64.420
749,38855.697000,262.906,35.850,-60.618,430.996,225.149,-127.987,41.800,159.290,77.420
750,38855.737000,233.310,15.653,2.505,435.414,224.425,-123.032,133.800,223.290,34.420
751,38855.757000,253.040,26.761,31.562,431.004,224.365,-125.034,85.800,-6.710,37.420
752,38855.795000,312.231,-4.544,68.634,429.210,219.742,-135.120,398.800,-561.710,90.420
753,38855.834000,373.395,15.653,49.597,427.374,214.697,-160.114,594.800,-1102.710,-34.580
754,38855.874000,420.748,16.663,15.530,414.966,216.531,-186.905,65.800,-1328.710,-122.580
755,38855.914000,329.002,50.998,-8.517,405.239,223.914,-201.591,-296.200,-1063.710,71.420
756,38855.954000,176.092,22.722,97.691,400.868,236.316,-192.266,-1118.200,-45.710,-3.580
757,38855.997000,140.578,-9.594,51.601,412.407,241.481,-163.265,-395.200,1456.290,162.420
758,38856.17000,154.389,46.959,-92.681,427.519,242.844,-115.508,-338.200,2083.290,324.420
759,38856.57000,158.335,38.880,-148.791,442.662,239.337,-55.994,-739.200,2106.290,366.420
760,38856.99000,184.971,18.682,-210.912,448.029,230.666,-25.476,146.800,1066.290,391.420
761,38856.137000,142.551,94.422,-302.090,454.188,235.766,-29.263,-152.200,-369.710,-41.580
762,38856.177000,250.081,-24.742,151.796,450.622,231.897,-43.301,-487.200,-704.710,-103.580
763,38856.217000,483.884,42.919,63.624,449.717,237.691,-53.046,316.800,-302.710,-238.580
764,38856.237000,432.586,-129.767,-19.538,445.294,239.227,-59.961,504.800,-14.710,-193.580
765,38856.277000,373.395,-121.688,-30.560,444.411,233.178,-59.168,770.800,384.290,-199.580
766,38856.317000,267.838,-149.964,-93.683,442.637,232.196,-63.177,866.800,342.290,191.420
767,38856.357000,218.513,-43.929,-102.701,445.260,220.801,-67.510,383.800,92.290,577.420
768,38856.398000,248.108,-205.507,-81.659,445.187,205.426,-89.855,372.800,-559.710,933.420
769,38856.441000,199.769,-63.116,-66.630,446.867,182.211,-113.442,1577.800,-646.710,1326.420
770,38856.480000,217.526,-32.821,-33.566,450.305,146.902,-135.430,443.800,-575.710,1472.420
771,38856.501000,187.931,39.890,-18.536,450.240,112.656,-150.443,81.800,-414.710,1544.420
772,38856.541000,220.486,79.274,6.513,451.084,85.580,-157.277,-459.200,-238.710,1533.420
773,38856.581000,164.254,84.323,-50.599,448.424,66.454,-158.899,-1426.200,-201.710,1211.420
774,38856.621000,321.110,129.767,-14.528,449.315,64.831,-154.977,-1708.200,176.290,640.420
775,38856.659000,511.507,145.925,151.796,448.440,60.575,-152.139,281.800,117.290,66.420
776,38856.698000,458.235,-22.722,104.704,451.071,52.708,-154.372,938.800,102.290,-101.580
777,38856.742000,423.707,-9.594,75.648,451.085,52.849,-149.402,-223.200,229.290,-68.580
778,38856.755000,303.353,198.438,-97.691,452.863,65.927,-146.986,-650.200,-186.710,-339.580
779,38856.796000,287.568,65.136,-226.943,445.792,88.963,-160.163,-1136.200,-1174.710,-852.580
780,38856.842000,170.173,113.609,-73.644,429.022,129.127,-180.759,-2127.200,-1227.710,-1623.580
781,38856.876000,151.430,-8.584,-22.544,416.711,175.010,-183.282,-1376.200,-502.710,-1694.580
782,38856.920000,99.145,-21.712,-18.536,408.785,186.232,-184.929,485.800,315.290,-1601.580
783,38856.960000,122.821,-78.264,-6.513,406.181,208.155,-176.282,696.800,1106.290,-1475.580
784,38856.983000,210.620,-161.073,-25.550,411.537,226.082,-155.823,840.800,1521.290,-1010.580
785,38857.19000,368.462,16.663,-107.710,419.535,232.812,-132.740,534.800,1667.290,-475.580
786,38857.58000,467.114,-391.322,-158.810,427.496,230.552,-120.872,1082.800,779.290,112.420
787,38857.98000,411.869,121.688,92.681,424.870,229.851,-114.946,-518.200,387.290,-223.580
788,38857.138000,264.879,-104.521,9.519,422.300,245.224,-92.609,-2251.200,-280.710,-95.580
789,38857.178000,199.769,139.866,-8.517,422.262,239.678,-104.705,1325.800,111.290,-17.580
790,38857.218000,234.297,44.939,11.523,421.367,235.225,-108.825,-174.200,-110.710,-27.580
791,38857.238000,267.838,4.544,17.534,421.374,244.773,-108.515,-577.200,-288.710,-73.580
792,38857.278000,242.189,13.633,-34.568,421.372,249.925,-110.333,-247.200,-284.710,-126.580
793,38857.318000,271.784,13.633,-42.583,416.962,250.733,-112.307,-56.200,-212.710,-110.580
794,38857.358000,264.879,61.097,-18.536,416.953,246.337,-114.436,-8.200,-72.710,-149.580
795,38857.398000,232.324,38.880,-13.526,411.672,252.409,-114.256,-77.200,5.290,-84.580
796,38857.438000,233.310,66.146,9.519,408.140,248.878,-116.368,157.800,-39.710,-58.580
797,38857.461000,246.135,50.998,-11.523,407.248,245.321,-119.465,-17.200,-74.710,-10.580
798,38857.503000,245.148,54.028,4.509,409.889,250.474,-121.275,23.800,-120.710,-3.580
799,38857.537000,234.297,61.097,-12.524,409.871,248.569,-127.295,-125.200,-306.710,-8.580
800,38857.577000,261.919,37.870,12.524,408.983,255.400,-131.048,-120.200,-491.710,70.420
801,38857.617000,219.499,67.156,-0.501,407.180,253.269,-145.025,93.800,-936.710,-20.580
802,38857.657000,209.634,-2.525,-84.665,400.943,253.428,-169.865,188.800,-1070.710,-129.580
803,38857.697000,254.027,35.850,-86.669,389.424,251.036,-192.818,339.800,-828.710,-190.580
804,38857.717000,247.121,62.107,-178.849,386.765,247.421,-197.909,279.800,-260.710,-147.580
805,38857.757000,299.407,26.761,-130.755,388.530,244.874,-196.000,53.800,385.290,54.420
806,38857.798000,240.216,44.939,-58.614,395.633,250.595,-177.918,-151.200,763.290,33.420
807,38857.838000,212.593,102.501,-33.566,400.972,254.577,-159.897,-209.200,782.290,68.420
808,38857.877000,230.351,57.057,3.507,409.811,252.290,-149.020,-40.200,679.290,210.420
809,38857.939000,225.418,29.791,13.526,411.586,250.696,-144.102,-127.200,234.290,143.420
810,38857.962000,247.121,52.008,15.530,405.410,246.295,-146.250,270.800,-162.710,59.420
811,38857.982000,225.418,55.037,10.521,404.499,242.541,-156.305,35.800,-578.710,64.420
812,38858.22000,230.351,49.988,1.503,403.553,239.316,-178.258,-64.200,-989.710,69.420
813,38858.62000,230.351,13.633,-72.642,397.370,244.323,-185.067,-468.200,-1018.710,139.420
814,38858.102000,204.701,69.176,-72.642,392.032,245.520,-203.912,-403.200,-1220.710,22.420
815,38858.142000,237.256,55.037,-103.703,379.627,243.939,-228.827,45.800,-1188.710,18.420
816,38858.182000,224.432,100.481,-152.798,370.762,238.217,-246.915,183.800,-1036.710,105.420
817,38858.202000,281.649,-23.732,-187.867,372.499,235.389,-254.945,-122.200,-163.710,220.420
818,38858.242000,298.420,-82.304,-230.951,372.522,231.303,-246.141,-20.200,483.290,-67.580
819,38858.277000,262.906,-30.801,-150.795,378.741,237.862,-229.027,118.800,1044.290,-335.580
820,38858.317000,239.229,65.136,-123.742,384.974,235.938,-205.238,850.800,1449.290,-234.580
821,38858.363000,206.674,94.422,-67.632,396.466,239.785,-192.168,432.800,1514.290,51.420
822,38858.397000,191.877,80.284,-40.579,405.334,234.335,-170.470,491.800,1404.290,150.420
823,38858.437000,249.094,65.136,-10.521,414.211,230.706,-145.735,-9.200,1163.290,157.420
824,38858.457000,234.297,-39.890,16.532,422.193,233.822,-127.734,355.800,1029.290,-17.580
825,38858.497000,240.216,46.959,22.544,423.970,231.389,-121.850,514.800,639.290,-72.580
826,38858.537000,212.593,71.195,25.550,423.085,225.312,-122.050,249.800,124.290,-51.580
827,38858.577000,221.472,116.639,40.579,421.313,231.246,-126.828,-95.200,-290.710,-72.580
828,38858.619000,300.393,-10.604,-13.526,420.415,227.633,-131.913,-225.200,-469.710,28.420
829,38858.659000,263.892,37.870,-47.593,422.150,225.644,-140.909,163.800,-212.710,17.420
830,38858.679000,235.283,66.146,-32.564,419.523,231.831,-136.744,122.800,15.290,32.420
831,38858.718000,262.906,45.949,-49.597,422.181,232.842,-131.738,61.800,307.290,147.420
832,38858.759000,259.946,14.643,10.521,424.833,226.041,-126.985,63.800,354.290,154.420
833,38858.802000,217.526,19.692,22.544,427.481,226.099,-124.989,-108.200,72.290,62.420
834,38858.842000,249.094,52.008,53.605,428.353,224.279,-128.024,93.800,-341.710,89.420
835,38858.883000,253.040,52.008,12.524,424.802,215.399,-135.275,-147.200,-587.710,166.420
836,38858.923000,268.825,5.554,16.532,422.990,212.315,-152.261,-59.200,-818.710,140.420
837,38858.944000,329.988,-7.574,-5.511,416.763,214.295,-174.063,-251.200,-1223.710,111.420
838,38858.978000,361.557,29.791,-2.505,405.235,207.506,-199.145,155.800,-1191.710,59.420
839,38859.18000,364.516,65.136,-17.534,403.448,211.563,-208.949,106.800,-1029.710,175.420
840,38859.64000,260.933,33.830,-15.530,400.780,216.488,-218.728,-194.200,-483.710,77.420
841,38859.98000,183.985,33.830,30.560,401.692,219.374,-208.701,-707.200,343.290,-5.580
842,38859.138000,182.998,-130.777,4.509,417.656,226.476,-172.672,-1579.200,842.290,404.420
843,38859.178000,191.877,28.781,-39.577,429.193,227.329,-142.817,-1259.200,1392.290,895.420
844,38859.204000,200.755,6.564,-78.654,448.717,218.420,-90.415,-1672.200,1467.290,1067.420
845,38859.239000,218.513,56.047,-126.748,464.694,200.660,-44.270,-1083.200,1240.290,963.420
846,38859.278000,95.198,235.803,-327.139,468.276,195.206,-22.590,-1347.200,258.290,171.420
847,38859.330000,347.746,81.294,191.875,469.124,196.605,-34.457,634.800,-315.710,-290.580
848,38859.358000,378.328,-197.428,-58.614,463.805,200.575,-47.254,994.800,-220.710,-385.580
849,38859.402000,297.434,-247.921,-130.755,457.605,205.412,-60.026,1469.800,169.290,-376.580
850,38859.422000,257.973,-102.501,-176.845,454.064,201.796,-65.120,1329.800,293.290,-49.580
851,38859.463000,236.270,-85.333,-156.806,451.384,197.116,-77.196,928.800,70.290,358.420
852,38859.503000,260.933,-122.698,-123.742,453.954,186.923,-100.358,2431.800,-329.710,879.420
853,38859.547000,232.324,11.613,-17.534,453.849,147.102,-128.461,1553.800,-639.710,1149.420
854,38859.579000,179.052,-70.185,-34.568,455.549,129.264,-145.915,-690.200,-492.710,1218.420
855,38859.621000,177.079,-77.254,-88.673,453.740,98.630,-155.852,459.800,-413.710,1268.420
856,38859.664000,168.200,69.176,26.552,451.067,73.343,-160.653,-142.200,-186.710,1134.420
857,38859.684000,129.726,84.323,-6.513,446.663,67.320,-158.876,-1446.200,-58.710,1060.420
858,38859.723000,207.661,99.471,31.562,448.418,57.774,-159.181,-1447.200,32.290,792.420
859,38859.759000,502.628,116.639,164.822,445.762,51.611,-162.368,474.800,57.290,166.420
860,38859.800000,511.507,103.511,129.753,444.871,53.234,-166.290,480.800,-152.710,-181.580
861,38859.845000,468.100,-46.959,50.599,443.099,47.100,-168.481,347.800,-77.710,45.420
862,38859.884000,360.570,158.043,27.554,446.643,59.367,-164.100,-553.200,77.290,-205.580
863,38859.898000,284.609,85.333,-183.859,441.337,70.366,-173.690,109.800,-568.710,-699.580
864,38859.939000,214.566,159.053,-138.771,430.717,88.835,-194.970,-245.200,-1300.710,-999.580
865,38859.984000,157.349,84.323,-116.728,420.114,118.672,-212.903,-2058.200,-1532.710,-1544.580
866,38860.23000,220.486,-50.998,-13.526,398.072,162.416,-229.428,-275.200,-974.710,-1955.580
867,38860.62000,54.751,-47.968,44.587,381.338,198.635,-236.250,107.800,34.290,-2116.580
868,38860.104000,127.753,-128.757,16.532,375.218,223.216,-225.542,550.800,1096.290,-1954.580
869,38860.142000,192.863,-69.176,-125.746,383.184,235.655,-215.183,1530.800,2012.290,-1254.580
870,38860.164000,260.933,-148.955,-243.977,399.101,231.947,-193.406,1207.800,1795.290,-711.580
871,38860.208000,511.507,-298.414,30.560,411.448,212.273,-184.075,697.800,878.290,489.420
872,38860.243000,362.543,-235.803,-38.575,409.780,236.469,-156.485,-2860.200,-190.710,-121.580
873,38860.283000,186.944,144.915,-51.601,409.754,243.103,-167.193,1448.800,114.290,-112.580
874,38860.323000,193.850,79.274,-68.634,407.113,242.261,-166.235,-281.200,133.290,60.420
875,38860.359000,278.690,8.584,-37.573,411.539,240.754,-158.326,-236.200,230.290,30.420
876,38860.379000,257.973,0.505,-43.585,410.684,245.318,-150.237,-269.200,211.290,-82.580
877,38860.419000,249.094,59.077,-31.562,412.465,248.093,-144.183,3.800,216.290,-157.580
878,38860.459000,250.081,57.057,-35.569,412.462,243.753,-144.324,-64.200,289.290,-38.580
879,38860.503000,257.973,43.929,-8.517,414.250,252.631,-137.079,99.800,298.290,-60.580
880,38860.544000,252.054,33.830,-4.509,413.383,252.771,-132.113,-64.200,103.290,-66.580
881,38860.582000,247.121,61.097,-12.524,412.497,249.270,-133.222,171.800,104.290,-26.580
882,38860.624000,236.270,59.077,-16.532,412.498,243.251,-131.431,261.800,126.290,-1.580
883,38860.644000,248.108,53.018,0.501,412.494,245.798,-133.335,-97.200,-31.710,24.420
884,38860.679000,236.270,57.057,34.568,414.252,243.168,-134.407,73.800,-275.710,35.420
885,38860.719000,222.459,65.136,-8.517,412.453,242.800,-147.334,-45.200,-590.710,52.420
886,38860.763000,251.067,39.890,-35.569,409.786,244.281,-156.231,117.800,-609.710,93.420
887,38860.804000,263.892,-7.574,-93.683,408.865,240.442,-169.268,300.800,-332.710,22.420
888,38860.848000,256.000,56.047,-63.624,407.964,235.932,-175.375,490.800,-104.710,-86.580
889,38860.863000,250.081,64.126,-71.640,407.090,237.724,-173.334,-83.200,100.290,71.420
890,38860.904000,249.094,53.018,-39.577,410.624,236.971,-169.375,41.800,292.290,108.420
891,38860.947000,229.364,25.751,-13.526,410.643,238.876,-163.355,-222.200,190.290,124.420
892,38860.981000,228.378,54.028,0.501,413.284,237.142,-163.403,-142.200,-110.710,73.420
893,38861.22000,233.310,54.028,-30.560,409.757,236.243,-164.436,-191.200,-256.710,117.420
894,38861.62000,247.121,24.742,13.526,411.499,232.604,-170.507,-320.200,-472.710,162.420
895,38861.102000,244.162,-0.505,-26.552,406.175,226.186,-182.648,-42.200,-1032.710,86.420
896,38861.122000,185.958,82.304,-98.693,396.419,232.418,-207.302,-118.200,-1382.710,-29.580
897,38861.162000,194.836,-9.594,-71.640,382.243,230.751,-235.205,510.800,-1342.710,-44.580
898,38861.202000,97.171,137.846,-214.920,368.053,228.076,-268.106,220.800,-1375.710,-152.580
899,38861.242000,398.058,104.521,-135.765,362.722,217.290,-281.382,573.800,-732.710,172.420
900,38861.282000,244.162,0.505,-200.892,360.937,208.439,-287.633,-4.200,-34.710,176.420
901,38861.322000,273.757,-35.850,-191.875,364.474,207.715,-282.680,97.800,693.290,-24.580
902,38861.362000,250.081,19.692,-161.816,376.881,218.788,-259.442,25.800,1180.290,-151.580
903,38861.380000,235.283,35.850,-90.677,394.591,224.014,-228.433,-187.200,1500.290,-7.580
904,38861.420000,220.486,46.959,-87.671,405.225,224.641,-206.533,-97.200,1508.290,98.420
905,38861.461000,230.351,-4.544,-6.513,414.121,223.785,-175.749,151.800,1521.290,162.420
906,38861.500000,199.769,42.919,51.601,422.990,220.071,-153.996,-322.200,788.290,21.420
907,38861.541000,217.526,30.801,15.530,424.779,217.750,-144.135,-81.200,395.290,-29.580
908,38861.585000,216.540,28.781,24.548,423.892,221.137,-147.007,250.800,123.290,-120.580
909,38861.606000,230.351,63.116,-17.534,422.997,221.863,-151.951,18.800,-200.710,-21.580
910,38861.647000,257.973,29.791,-9.519,422.983,217.410,-156.068,65.800,-393.710,41.420
911,38861.681000,272.771,35.850,-71.640,420.311,217.127,-166.016,19.800,-378.710,75.420
912,38861.721000,264.879,25.751,-65.628,422.973,223.346,-160.840,-174.200,5.290,158.420
913,38861.766000,264.879,17.673,-46.591,422.969,213.826,-160.156,-133.200,113.290,172.420
914,38861.801000,238.243,15.653,-28.556,426.501,213.045,-157.191,-75.200,71.290,103.420
915,38861.846000,251.067,35.850,3.507,423.855,213.883,-158.166,153.800,-38.710,128.420
916,38861.866000,280.663,1.515,17.534,425.585,208.394,-168.268,299.800,-295.710,103.420
917,38861.906000,348.732,-1.515,12.524,423.786,203.715,-180.342,224.800,-647.710,27.420
918,38861.949000,348.732,4.544,3.507,414.054,209.333,-196.078,270.800,-907.710,-117.580
919,38861.986000,313.218,24.742,-25.550,404.312,211.395,-214.909,273.800,-893.710,-122.580
920,38862.26000,253.040,16.663,20.540,403.402,214.557,-225.733,-55.200,-609.710,32.420
921,38862.65000,195.823,12.623,59.616,399.021,216.515,-217.739,-12.200,383.290,156.420
922,38862.86000,205.688,49.988,18.536,414.061,214.569,-194.915,-169.200,1116.290,315.420
923,38862.129000,199.769,60.087,-29.558,430.914,213.133,-154.195,-840.200,1545.290,442.420
924,38862.163000,192.863,80.284,-84.665,444.278,210.323,-100.622,-1262.200,1627.290,482.420
925,38862.213000,205.688,64.126,-92.681,457.595,214.791,-65.680,-1414.200,1502.290,572.420
926,38862.246000,106.050,71.195,-199.890,462.991,208.138,-25.166,-1203.200,790.290,273.420
927,38862.285000,286.582,-5.554,-341.166,468.302,210.971,-17.113,100.800,-62.710,-3.580
928,38862.320000,390.166,-140.876,149.793,463.858,211.441,-31.014,609.800,-194.710,-212.580
929,38862.344000,501.642,-146.935,50.599,462.080,220.763,-38.661,534.800,-139.710,-402.580
930,38862.386000,310.258,-91.393,-71.640,451.475,220.417,-50.622,1214.800,24.290,-412.580
931,38862.426000,229.364,-65.136,-92.681,447.927,221.897,-59.522,971.800,30.290,-34.580
932,38862.464000,258.960,-151.984,-86.669,452.276,208.429,-75.833,1320.800,5.290,796.420
933,38862.501000,193.850,-79.274,-86.669,457.473,176.537,-99.690,1335.800,-108.710,1214.420
934,38862.541000,200.755,-45.949,-62.622,460.981,158.284,-101.264,632.800,-192.710,1334.420
935,38862.561000,207.661,-19.692,-45.589,462.686,126.699,-114.200,267.800,-145.710,1301.420
936,38862.608000,158.335,30.801,-40.579,463.522,96.962,-123.106,339.800,-216.710,1163.420
937,38862.649000,179.052,39.890,6.513,463.481,71.565,-131.874,109.800,-214.710,1091.420
938,38862.684000,156.362,49.988,-162.818,459.050,55.797,-137.365,-529.200,-330.710,981.420
939,38862.724000,229.364,165.112,174.841,457.260,40.871,-143.813,-598.200,151.290,551.420
940,38862.767000,511.507,227.724,304.094,455.491,38.209,-145.891,944.800,-107.710,-76.580
941,38862.807000,475.992,-46.959,104.704,453.710,35.435,-151.945,282.800,-252.710,-62.580
942,38862.827000,360.570,-63.116,-53.605,456.370,35.606,-145.973,-113.200,377.290,30.420
943,38862.867000,300.393,144.915,-99.695,459.937,44.654,-132.759,-645.200,733.290,-317.580
944,38862.905000,267.838,161.073,-226.943,460.836,61.203,-130.233,-415.200,-326.710,-756.580
945,38862.943000,263.892,187.329,-64.626,450.235,97.956,-148.934,-2201.200,-1110.710,-1281.580
946,38862.987000,250.081,0.505,-22.544,434.357,138.234,-165.552,-983.200,-1242.710,-1775.580
947,38863.26000,135.645,-27.771,-15.530,421.107,159.417,-182.781,-236.200,-763.710,-1753.580
948,38863.56000,107.037,-92.402,2.505,411.439,193.234,-182.707,-567.200,-222.710,-1559.580
949,38863.86000,84.347,-158.043,-14.528,410.592,212.526,-175.133,224.800,795.290,-1122.580
950,38863.123000,200.755,-136.836,-44.587,414.182,229.556,-155.702,888.800,1564.290,-909.580
951,38863.163000,511.507,-155.014,51.601,421.211,219.032,-159.993,3827.800,1531.290,-78.580
952,38863.203000,440.478,-222.675,74.646,427.458,229.317,-133.821,-4067.200,18.290,-39.580
953,38863.242000,189.904,35.850,-23.546,423.942,231.107,-131.789,1919.800,294.290,-170.580
954,38863.282000,191.877,172.181,-23.546,423.051,229.286,-134.830,800.800,168.290,-8.580
955,38863.302000,207.661,32.821,-17.534,424.816,226.740,-132.921,-214.200,74.290,62.420
956,38863.347000,258.960,3.535,7.515,425.700,225.900,-131.952,67.800,-15.710,-16.580
957,38863.387000,267.838,22.722,-19.538,426.580,229.345,-132.830,-365.200,-167.710,-99.580
958,38863.422000,250.081,30.801,-27.554,423.923,229.202,-137.809,109.800,19.290,-82.580
959,38863.462000,216.540,32.821,-16.532,421.287,230.124,-135.801,23.800,-44.710,-102.580
960,38863.509000,252.054,44.939,-24.548,418.645,235.302,-136.634,-86.200,-83.710,-139.580
961,38863.523000,260.933,24.742,-11.523,414.237,235.271,-137.643,37.800,-55.710,-142.580
962,38863.564000,245.148,78.264,-16.532,415.984,233.395,-142.663,24.800,-163.710,-23.580
963,38863.602000,252.054,45.949,-47.593,418.627,230.822,-141.745,49.800,-72.710,108.420
964,38863.643000,237.256,44.939,-18.536,421.275,233.456,-140.658,-79.200,68.290,121.420
965,38863.683000,238.243,41.909,0.501,423.050,235.306,-136.620,-284.200,-18.710,77.420
966,38863.723000,240.216,43.929,21.542,419.505,233.370,-143.645,-206.200,-302.710,101.420
967,38863.763000,240.216,39.890,-14.528,418.609,232.360,-148.646,-213.200,-546.710,109.420
968,38863.783000,250.081,6.564,36.571,414.156,231.878,-165.557,-306.200,-805.710,63.420
969,38863.822000,223.445,-16.663,-38.575,406.182,231.422,-181.485,-112.200,-1304.710,-43.580
970,38863.866000,236.270,-13.633,-64.626,394.652,230.653,-208.358,713.800,-1174.710,-176.580
971,38863.907000,238.243,43.929,-169.832,387.546,223.169,-227.490,378.800,-735.710,-249.580
972,38863.946000,261.919,66.146,-184.861,387.531,218.716,-231.607,324.800,337.290,-39.580
973,38863.987000,255.013,25.751,-137.769,392.857,226.870,-219.409,-183.200,779.290,21.420
974,38864.29000,245.148,24.742,-58.614,399.970,228.391,-196.498,-169.200,1022.290,24.420
975,38864.43000,247.121,50.998,-12.524,408.837,229.829,-176.563,127.800,999.290,27.420
976,38864.88000,224.432,46.959,-15.530,411.520,230.225,-162.640,-0.200,788.290,29.420
977,38864.123000,230.351,31.811,24.548,417.708,228.719,-154.725,-21.200,388.290,8.420
978,38864.163000,244.162,44.939,19.538,417.706,226.115,-154.809,-109.200,-214.710,-6.580
979,38864.203000,227.391,42.919,32.564,414.148,224.906,-166.776,-96.200,-721.710,55.420
980,38864.243000,159.322,71.195,-143.781,407.934,229.603,-184.517,-314.200,-1120.710,28.420
981,38864.263000,231.337,-33.830,-54.607,399.977,230.183,-194.454,265.800,-976.710,9.420
982,38864.308000,185.958,110.580,-112.720,384.921,228.516,-222.360,-104.200,-1179.710,-151.580
983,38864.349000,297.434,31.811,-97.691,376.061,229.738,-240.223,135.800,-835.710,-39.580
984,38864.383000,229.364,56.047,-216.924,376.035,225.173,-248.315,-47.200,-290.710,93.420
985,38864.423000,272.771,-17.673,-177.847,378.700,220.220,-239.530,30.800,423.290,96.420
986,38864.463000,267.838,-12.623,-155.804,389.309,228.350,-228.309,-166.200,979.290,-56.580
987,38864.503000,219.499,41.909,-88.673,398.201,233.485,-200.310,-8.200,1440.290,-107.580
988,38864.523000,252.054,62.107,-76.650,410.630,232.716,-166.534,210.800,1653.290,54.420
989,38864.563000,240.216,-12.623,5.511,420.407,235.304,-136.629,-52.200,1436.290,58.420
990,38864.603000,223.445,25.751,18.536,425.746,234.975,-117.756,506.800,1143.290,-96.580
991,38864.643000,216.540,94.422,48.595,429.295,234.363,-108.827,432.800,790.290,-83.580
992,38864.689000,208.647,24.742,33.566,428.441,229.464,-98.066,125.800,360.290,-76.580
993,38864.729000,242.189,38.880,30.560,428.444,232.936,-97.953,124.800,107.290,-114.580
994,38864.743000,239.229,57.057,6.513,426.682,237.247,-98.812,138.800,22.290,-113.580
995,38864.785000,226.405,40.899,24.548,424.041,238.981,-98.764,-280.200,-120.710,-51.580
996,38864.828000,254.027,65.136,10.521,424.917,244.105,-101.574,57.800,-149.710,-0.580
997,38864.865000,244.162,53.018,2.505,424.020,237.915,-105.750,-13.200,-186.710,73.420
998,38864.905000,254.027,26.761,-12.524,424.901,233.604,-104.894,-44.200,-126.710,141.420
999,38864.945000,249.094,46.959,-10.521,426.647,228.285,-109.033,262.800,0.290,153.420
1000,38864.985000,243.175,42.919,-5.511,427.528,228.286,-109.030,51.800,67.290,117.420
1001,38865.6000,249.094,39.890,10.521,431.054,227.448,-108.053,0.800,117.290,82.420
1002,38865.45000,256.000,41.909,12.524,428.420,223.219,-104.227,-35.200,64.290,96.420
1003,38865.85000,245.148,45.949,10.521,431.953,225.042,-101.177,-9.200,25.290,123.420
1004,38865.125000,256.987,20.702,9.519,432.820,218.014,-104.381,69.800,-57.710,155.420
1005,38865.165000,253.040,27.771,3.507,435.452,214.460,-107.467,29.800,-92.710,131.420
1006,38865.204000,247.121,38.880,6.513,438.088,212.669,-109.503,82.800,-104.710,119.420
1007,38865.224000,242.189,37.870,2.505,437.190,209.056,-114.588,63.800,-91.710,108.420
1008,38865.264000,255.013,23.732,-2.505,438.949,204.717,-114.723,-15.200,-105.710,86.420
1009,38865.306000,250.081,17.673,-5.511,437.195,210.820,-113.538,32.800,-97.710,65.420
1010,38865.345000,256.000,24.742,-5.511,441.584,209.814,-118.521,12.800,-104.710,58.420
1011,38865.386000,252.054,26.761,-5.511,438.047,206.227,-122.621,68.800,-81.710,57.420
1012,38865.426000,257.973,26.761,-4.509,438.925,207.068,-123.584,25.800,-84.710,58.420
1013,38865.464000,253.040,21.712,-8.517,441.573,205.390,-121.644,19.800,-80.710,56.420
1014,38865.493000,252.054,20.702,-10.521,439.795,202.644,-126.704,66.800,-57.710,57.420
1015,38865.529000,258.960,24.742,-3.507,440.667,198.248,-128.829,9.800,-61.710,54.420
1016,38865.568000,255.013,15.653,-1.503,438.026,200.850,-128.753,-29.200,-109.710,41.420
1017,38865.619000,261.919,10.604,-9.519,438.025,204.294,-129.635,-61.200,-160.710,18.420
1018,38865.649000,256.987,6.564,-14.528,438.009,201.549,-134.689,0.800,-193.710,-1.580
1019,38865.684000,252.054,11.613,-22.544,434.480,202.358,-136.660,-33.200,-238.710,2.420
1020,38865.704000,251.067,13.633,-25.550,434.460,197.849,-142.764,-68.200,-279.710,16.420
1021,38865.746000,246.135,-1.515,-52.603,429.163,189.977,-145.022,-50.200,-361.710,16.420
1022,38865.786000,247.121,-10.604,-39.577,429.139,199.215,-155.646,359.800,-316.710,70.420
1023,38865.826000,240.216,1.515,-38.575,425.578,191.091,-166.844,547.800,-204.710,95.420
1024,38865.866000,241.202,22.722,-46.591,425.561,184.034,-171.045,479.800,-86.710,90.420
1025,38865.906000,238.243,18.682,-39.577,426.429,185.630,-175.955,511.800,-13.710,71.420
1026,38865.946000,255.013,28.781,-23.546,426.414,179.441,-180.128,737.800,144.290,21.420
1027,38865.965000,239.229,25.751,-23.546,429.934,171.660,-179.376,1191.800,506.290,-1.580
1028,38866.5000,250.081,29.791,-36.571,429.051,160.432,-177.757,1345.800,573.290,-17.580
1029,38866.45000,246.135,59.077,-37.573,435.208,150.860,-179.041,1197.800,479.290,-60.580
1030,38866.85000,258.960,35.850,0.501,440.514,145.041,-170.276,136.800,514.290,-21.580
1031,38866.126000,258.960,-4.544,-1.503,442.297,146.108,-163.285,55.800,383.290,-54.580
1032,38866.166000,258.960,41.909,5.511,445.852,150.732,-153.193,169.800,393.290,-113.580
1033,38866.206000,256.987,14.643,10.521,441.467,154.370,-147.131,-34.200,301.290,-101.580
1034,38866.225000,254.027,14.643,11.523,445.011,158.013,-141.044,23.800,260.290,-101.580
1035,38866.265000,248.108,15.653,19.538,442.374,158.936,-139.036,36.800,157.290,-108.580
1036,38866.305000,250.081,21.712,14.528,441.497,160.699,-137.989,-71.200,62.290,-97.580
1037,38866.344000,250.081,23.732,12.524,445.899,156.363,-138.116,9.800,15.290,-78.580
1038,38866.385000,255.013,26.761,10.521,443.264,166.777,-137.786,16.800,-13.710,-66.580
1039,38866.425000,253.040,22.722,8.517,443.264,167.645,-137.758,-5.200,-3.710,-61.580
1040,38866.446000,254.027,18.682,8.517,443.260,169.324,-139.690,-7.200,12.290,-67.580
1041,38866.485000,250.081,25.751,9.519,441.507,170.276,-136.685,-16.200,33.290,-73.580
1042,38866.527000,249.094,29.791,13.526,440.628,168.567,-135.751,1.800,26.290,-69.580
1043,38866.567000,254.027,20.702,9.519,439.753,168.623,-133.766,-39.200,21.290,-69.580
1044,38866.609000,252.054,19.692,7.515,438.874,167.782,-132.803,-10.200,44.290,-75.580
