Sample, Time, ACCX, ACCY, ACCZ, MAGX, MAGY, MAGZ, GYRX, GYRY, GYRZ
0,39065.334000,242.027,-32.564,79.380,398.479,-271.735,283.982,-141.150,26.630,-53.930
1,39065.369000,240.031,-35.569,80.372,399.546,-265.102,284.168,-169.150,33.630,-61.930
2,39065.409000,237.037,-35.569,79.380,399.449,-271.721,283.984,-172.150,23.630,-74.930
3,39065.429000,236.039,-27.554,78.388,397.459,-274.691,279.963,-197.150,35.630,-68.930
4,39065.471000,234.043,-35.569,78.388,396.628,-265.222,281.209,-241.150,37.630,-78.930
5,39065.511000,241.029,-27.554,76.403,398.492,-270.028,277.144,-297.150,60.630,-84.930
6,39065.552000,239.033,-41.581,72.434,400.355,-274.860,272.095,-288.150,56.630,-79.930
7,39065.592000,238.035,-48.595,79.380,399.437,-271.118,271.214,-192.150,25.630,-85.930
8,39065.633000,237.037,-38.575,76.403,398.447,-272.918,275.096,-87.150,31.630,-25.930
9,39065.673000,236.039,-44.587,72.434,401.331,-274.006,268.186,-52.150,11.630,-6.930
10,39065.713000,238.035,-43.585,74.419,401.270,-278.629,271.991,-7.150,-14.370,-4.930
11,39065.733000,235.041,-42.583,79.380,397.370,-279.682,269.988,39.850,-31.370,8.070
12,39065.769000,233.045,-38.575,80.372,401.284,-277.684,272.018,86.850,-25.370,37.070
13,39065.811000,236.039,-39.577,78.388,397.431,-275.821,273.047,133.850,-36.370,43.070
14,39065.851000,239.033,-34.568,78.388,396.447,-276.780,273.018,136.850,-42.370,42.070
15,39065.891000,239.033,-35.569,78.388,402.339,-271.970,273.162,98.850,-36.370,35.070
16,39065.931000,237.037,-36.571,79.380,401.439,-267.229,274.276,80.850,-37.370,26.070
17,39065.971000,237.037,-35.569,76.403,401.428,-268.148,275.234,69.850,-39.370,22.070
18,39066.11000,237.037,-32.564,76.403,402.325,-272.915,273.136,49.850,-38.370,24.070
19,39066.31000,235.041,-36.571,77.395,401.432,-268.096,277.203,53.850,-48.370,23.070
20,39066.72000,240.031,-36.571,74.419,401.355,-272.929,273.134,66.850,-57.370,18.070
21,39066.112000,241.029,-35.569,74.419,405.230,-273.741,276.068,68.850,-47.370,19.070
22,39066.151000,240.031,-36.571,74.419,405.246,-272.769,277.079,92.850,-36.370,23.070
23,39066.191000,240.031,-34.568,75.411,403.318,-271.851,277.101,101.850,-25.370,31.070
24,39066.231000,238.035,-38.575,75.411,402.365,-270.866,279.094,117.850,-10.370,38.070
25,39066.276000,235.041,-32.564,76.403,405.401,-262.314,279.337,113.850,-9.370,38.070
26,39066.291000,239.033,-31.562,79.380,402.373,-269.999,276.168,84.850,4.630,34.070
27,39066.331000,237.037,-32.564,82.357,403.461,-262.315,280.318,48.850,3.630,6.070
28,39066.371000,235.041,-34.568,80.372,401.438,-268.017,280.156,14.850,1.630,-0.930
29,39066.409000,236.039,-42.583,73.426,400.554,-262.304,282.280,21.850,-16.370,0.070
30,39066.453000,236.039,-42.583,71.442,403.399,-266.965,283.139,90.850,-31.370,23.070
31,39066.493000,238.035,-37.573,72.434,400.501,-266.060,283.159,119.850,-36.370,34.070
32,39066.534000,240.031,-34.568,76.403,403.428,-265.047,284.176,101.850,-28.370,31.070
33,39066.582000,236.039,-31.562,78.388,399.665,-256.644,282.436,90.850,-16.370,26.070
34,39066.591000,241.029,-38.575,77.395,401.567,-259.427,283.346,77.850,-7.370,24.070
35,39066.633000,239.033,-39.577,73.426,397.634,-263.212,285.201,107.850,1.630,34.070
36,39066.674000,237.037,-41.581,75.411,398.723,-255.528,289.351,120.850,-28.370,48.070
37,39066.714000,235.041,-43.585,78.388,400.664,-255.500,289.355,180.850,-47.370,68.070
38,39066.754000,234.043,-47.593,74.419,396.703,-261.176,291.158,245.850,-73.370,78.070
39,39066.798000,236.039,-45.589,72.434,397.719,-258.273,293.207,299.850,-112.370,104.070
40,39066.832000,236.039,-42.583,73.426,399.806,-248.684,297.412,398.850,-92.370,139.070
41,39066.871000,240.031,-39.577,73.426,399.788,-250.444,302.281,450.850,-118.370,144.070
42,39066.891000,240.031,-41.581,72.434,397.992,-240.909,306.478,529.850,-128.370,169.070
43,39066.931000,236.039,-44.587,72.434,395.139,-237.116,308.546,597.850,-123.370,192.070
44,39066.973000,241.029,-40.579,68.465,398.156,-231.111,319.537,671.850,-130.370,206.070
45,39067.13000,240.031,-35.569,70.450,395.342,-224.506,320.700,678.850,-123.370,197.070
46,39067.53000,239.033,-35.569,70.450,399.381,-214.758,329.830,689.850,-130.370,194.070
47,39067.93000,241.029,-28.556,68.465,397.365,-220.354,333.606,674.850,-135.370,180.070
48,39067.134000,242.027,-23.546,66.481,396.512,-212.697,337.752,574.850,-118.370,152.070
49,39067.174000,241.029,-20.540,70.450,396.617,-205.973,341.873,395.850,-77.370,113.070
50,39067.194000,243.025,-23.546,73.426,398.697,-196.463,343.125,300.850,-63.370,73.070
51,39067.234000,240.031,-17.534,71.442,396.672,-202.190,341.979,146.850,-22.370,54.070
52,39067.272000,240.031,-23.546,72.434,397.681,-199.366,341.075,-10.150,-17.370,3.070
53,39067.311000,243.025,-21.542,72.434,395.697,-202.257,340.008,-118.150,-2.370,-15.930
54,39067.351000,241.029,-22.544,69.457,395.766,-197.528,340.140,-274.150,28.630,-45.930
55,39067.392000,243.025,-23.546,69.457,395.599,-208.902,338.839,-398.150,44.630,-91.930
56,39067.433000,240.031,-23.546,66.481,399.448,-210.818,335.842,-496.150,45.630,-111.930
57,39067.476000,244.023,-25.550,67.473,394.486,-217.664,329.741,-629.150,71.630,-158.930
58,39067.494000,241.029,-27.554,68.465,397.284,-224.479,320.704,-692.150,75.630,-180.930
59,39067.532000,240.031,-31.562,66.481,402.009,-232.212,311.644,-770.150,89.630,-200.930
60,39067.573000,241.029,-28.556,67.473,398.953,-241.789,308.422,-852.150,94.630,-219.930
61,39067.612000,240.031,-37.573,68.465,399.898,-242.117,295.628,-891.150,77.630,-236.930
62,39067.651000,243.025,-38.575,66.481,402.625,-253.687,285.474,-913.150,146.630,-217.930
63,39067.692000,241.029,-37.573,65.488,407.348,-261.446,275.430,-894.150,138.630,-222.930
64,39067.736000,241.029,-38.575,63.504,404.331,-268.212,271.303,-892.150,141.630,-223.930
65,39067.771000,241.029,-40.579,63.504,410.120,-269.365,260.461,-866.150,150.630,-229.930
66,39067.791000,241.029,-42.583,63.504,411.878,-280.922,251.290,-838.150,155.630,-237.930
67,39067.843000,242.027,-41.581,65.488,414.713,-284.953,240.363,-813.150,150.630,-227.930
68,39067.874000,240.031,-50.599,63.504,410.676,-294.675,232.217,-734.150,131.630,-221.930
69,39067.922000,238.035,-49.597,63.504,414.659,-287.186,227.513,-628.150,92.630,-178.930
70,39067.956000,236.039,-53.605,67.473,417.412,-297.653,223.293,-525.150,81.630,-150.930
71,39067.995000,237.037,-54.607,69.457,415.507,-294.134,214.535,-373.150,52.630,-104.930
72,39068.36000,236.039,-51.601,65.488,419.299,-299.859,210.447,-274.150,37.630,-71.930
73,39068.56000,237.037,-52.603,65.488,416.450,-295.251,207.620,-168.150,20.630,-51.930
74,39068.92000,239.033,-49.597,68.465,417.346,-300.044,204.537,-45.150,0.630,-17.930
75,39068.133000,240.031,-50.599,70.450,413.448,-301.832,210.383,56.850,-12.370,11.070
76,39068.173000,238.035,-48.595,67.473,416.454,-295.198,209.589,177.850,-27.370,36.070
77,39068.214000,239.033,-48.595,66.481,417.413,-296.103,210.549,276.850,-42.370,53.070
78,39068.253000,241.029,-43.585,65.488,417.496,-291.191,217.571,337.850,-52.370,78.070
79,39068.299000,239.033,-39.577,66.481,413.603,-292.139,219.505,384.850,-62.370,88.070
80,39068.337000,240.031,-38.575,65.488,414.667,-286.320,224.587,409.850,-63.370,102.070
81,39068.356000,240.031,-35.569,68.465,414.698,-285.137,233.472,434.850,-65.370,109.070
82,39068.396000,241.029,-33.566,64.496,414.754,-282.116,240.442,423.850,-67.370,117.070
83,39068.436000,242.027,-31.562,69.457,412.707,-289.656,242.196,404.850,-57.370,102.070
84,39068.472000,237.037,-27.554,69.457,409.016,-276.472,242.556,352.850,-70.370,94.070
85,39068.512000,242.027,-28.556,69.457,408.007,-280.058,250.324,308.850,-68.370,94.070
86,39068.553000,243.025,-28.556,67.473,410.025,-274.435,247.533,236.850,-48.370,83.070
87,39068.594000,241.029,-26.552,69.457,410.035,-274.304,252.454,197.850,-37.370,70.070
88,39068.634000,240.031,-28.556,67.473,411.082,-269.457,256.525,208.850,-17.370,73.070
89,39068.654000,243.025,-30.560,68.465,410.047,-274.146,258.360,173.850,-20.370,76.070
90,39068.697000,241.029,-32.564,69.457,406.276,-266.609,259.547,139.850,-22.370,74.070
91,39068.739000,237.037,-34.568,72.434,406.196,-272.257,260.374,122.850,-21.370,79.070
92,39068.773000,240.031,-33.566,72.434,406.280,-266.557,261.516,89.850,-41.370,75.070
93,39068.814000,234.043,-34.568,73.426,402.242,-277.066,259.250,-8.150,-82.370,85.070
94,39068.860000,235.041,-42.583,75.411,402.341,-270.421,260.418,-77.150,-79.370,60.070
95,39068.894000,229.053,-40.579,71.442,406.144,-275.226,255.373,-93.150,-146.370,38.070
96,39068.937000,243.025,-50.599,59.535,407.960,-282.974,247.292,-133.150,-204.370,15.070
97,39068.953000,243.025,-59.616,50.605,409.924,-281.108,245.380,-120.150,-190.370,-16.930
98,39069.7000,241.029,-59.616,51.597,410.938,-277.469,239.581,-123.150,-156.370,-36.930
99,39069.36000,249.014,-61.620,46.636,413.838,-277.586,233.681,-101.150,-152.370,-7.930
100,39069.76000,244.023,-60.618,49.612,411.794,-284.312,230.539,-97.150,-108.370,10.070
101,39069.114000,241.029,-63.624,49.612,416.710,-279.594,227.728,-74.150,-90.370,-5.930
102,39069.152000,247.018,-60.618,46.636,414.655,-287.239,225.545,-77.150,-78.370,-20.930
103,39069.196000,242.027,-51.601,43.659,422.512,-280.562,223.776,-87.150,-26.370,-82.930
104,39069.237000,244.023,-53.605,42.667,418.608,-281.668,219.805,-114.150,7.630,-116.930
105,39069.257000,251.010,-54.607,50.605,424.477,-278.696,221.864,-193.150,124.630,-152.930
106,39069.296000,239.033,-60.618,55.566,424.404,-283.477,219.764,-83.150,80.630,-133.930
107,39069.337000,250.012,-53.605,56.558,424.554,-273.101,219.069,-57.150,71.630,-116.930
108,39069.372000,240.031,-41.581,56.558,426.393,-280.534,222.800,-60.150,131.630,-85.930
109,39069.413000,240.031,-41.581,48.620,425.532,-272.982,223.009,-40.150,105.630,-104.930
110,39069.454000,252.008,-28.556,48.620,426.450,-276.725,223.890,-86.150,67.630,-138.930
111,39069.494000,247.018,-20.540,67.473,429.421,-272.848,225.970,-129.150,169.630,-141.930
112,39069.516000,244.023,-23.546,77.395,428.452,-272.836,226.952,-6.150,139.630,-173.930
113,39069.557000,228.055,-21.542,67.473,429.537,-265.204,229.134,0.850,-74.370,-98.930
114,39069.597000,243.025,-4.509,58.543,433.290,-273.739,225.952,36.850,-175.370,-43.930
115,39069.637000,256.000,-10.521,30.760,435.359,-264.387,221.297,-161.150,-149.370,-49.930
116,39069.674000,254.004,-5.511,50.605,438.180,-270.125,217.208,-161.150,15.630,-48.930
117,39069.714000,252.008,-6.513,43.659,437.233,-268.300,215.290,-313.150,69.630,-46.930
118,39069.761000,251.010,-26.552,52.589,433.338,-269.274,216.240,12.850,235.630,-54.930
119,39069.796000,234.043,-11.523,44.651,435.313,-267.276,219.250,-163.150,230.630,17.070
120,39069.814000,256.000,-17.534,45.643,430.433,-269.998,226.051,-50.150,143.630,114.070
121,39069.856000,250.012,-22.544,50.605,428.262,-286.048,227.568,31.850,281.630,92.070
122,39069.898000,231.049,-37.573,82.357,422.534,-280.273,234.604,21.850,231.630,90.070
123,39069.934000,231.049,-28.556,92.279,415.815,-275.562,237.675,-23.150,202.630,28.070
124,39069.976000,238.035,-25.550,96.248,417.668,-282.049,241.432,-271.150,162.630,-57.930
125,39070.15000,239.033,-27.554,85.333,420.593,-280.300,234.600,-289.150,92.630,-142.930
126,39070.55000,234.043,-29.558,66.481,421.656,-273.720,232.818,-215.150,-1.370,-103.930
127,39070.95000,237.037,-37.573,67.473,418.536,-287.972,231.433,-132.150,20.630,-14.930
128,39070.115000,236.039,-40.579,71.442,420.583,-280.432,229.679,-44.150,-7.370,31.070
129,39070.157000,239.033,-39.577,71.442,418.552,-287.000,232.443,-12.150,-18.370,31.070
130,39070.193000,242.027,-34.568,76.403,419.579,-282.416,226.671,6.850,14.630,55.070
131,39070.233000,236.039,-42.583,75.411,419.504,-287.984,230.450,53.850,-20.370,48.070
132,39070.277000,238.035,-38.575,71.442,417.659,-281.392,230.630,122.850,-40.370,50.070
133,39070.317000,237.037,-37.573,74.419,417.642,-283.152,235.500,142.850,-41.370,82.070
134,39070.357000,234.043,-39.577,73.426,415.767,-278.478,234.643,176.850,-52.370,82.070
135,39070.416000,238.035,-37.573,75.411,417.687,-280.263,237.547,227.850,-62.370,69.070
136,39070.427000,247.018,-35.569,72.434,413.838,-278.347,240.545,252.850,-40.370,77.070
137,39070.455000,245.021,-36.571,70.450,413.832,-279.188,244.456,259.850,-26.370,79.070
138,39070.496000,233.045,-36.571,72.434,414.787,-280.146,243.447,311.850,-27.370,59.070
139,39070.536000,237.037,-37.573,70.450,412.982,-271.505,249.586,327.850,-53.370,63.070
140,39070.577000,240.031,-40.579,71.442,414.862,-276.100,253.396,356.850,-56.370,100.070
141,39070.617000,242.027,-40.579,69.457,414.012,-268.417,258.526,358.850,-56.370,129.070
142,39070.654000,239.033,-38.575,71.442,409.125,-271.217,262.375,363.850,-74.370,135.070
143,39070.694000,238.035,-36.571,69.457,412.163,-262.639,263.602,377.850,-66.370,156.070
144,39070.716000,243.025,-34.568,68.465,406.228,-271.074,269.259,362.850,-64.370,163.070
145,39070.754000,242.027,-33.566,70.450,407.340,-261.552,271.493,307.850,-62.370,135.070
146,39070.796000,240.031,-32.564,68.465,405.320,-267.200,273.300,254.850,-65.370,106.070
147,39070.836000,242.027,-34.568,68.465,406.340,-264.244,277.318,192.850,-40.370,98.070
148,39070.877000,240.031,-34.568,70.450,402.461,-264.247,279.279,153.850,-47.370,85.070
149,39070.917000,236.039,-33.566,71.442,405.499,-255.668,280.506,122.850,-52.370,81.070
150,39070.957000,241.029,-36.571,69.457,405.401,-262.314,279.337,86.850,-48.370,50.070
151,39071.11000,241.029,-35.569,69.457,404.491,-258.466,282.394,60.850,-51.370,44.070
152,39071.18000,242.027,-36.571,67.473,406.318,-266.057,280.218,42.850,-31.370,33.070
153,39071.58000,239.033,-35.569,71.442,404.524,-255.735,278.535,9.850,-32.370,28.070
154,39071.94000,241.029,-34.568,69.457,405.338,-266.963,282.159,-15.150,-19.370,17.070
155,39071.137000,239.033,-37.573,70.450,402.577,-255.841,275.578,-40.150,0.630,-10.930
156,39071.177000,239.033,-40.579,71.442,401.546,-260.478,279.382,-43.150,-7.370,-22.930
157,39071.217000,239.033,-40.579,68.465,400.587,-259.572,278.422,-69.150,-3.370,-13.930
158,39071.258000,241.029,-41.581,65.488,405.395,-262.393,276.384,-78.150,-2.370,-14.930
159,39071.278000,240.031,-42.583,66.481,404.428,-262.354,278.351,-75.150,20.630,-6.930
160,39071.318000,240.031,-42.583,65.488,402.506,-260.596,274.462,-59.150,32.630,-3.930
161,39071.358000,237.037,-41.581,67.473,406.308,-266.188,275.297,-62.150,15.630,-11.930
162,39071.397000,241.029,-45.589,68.465,405.393,-262.419,275.400,-65.150,11.630,-4.930
163,39071.437000,239.033,-44.587,67.473,403.302,-272.823,276.091,-52.150,-2.370,-21.930
164,39071.478000,237.037,-42.583,67.473,401.506,-262.527,273.423,-45.150,-6.370,-25.930
165,39071.514000,242.027,-44.587,68.465,405.284,-269.197,269.310,-49.150,-26.370,-20.930
166,39071.559000,240.031,-46.591,65.488,406.328,-264.402,271.412,-33.150,-8.370,-21.930
167,39071.574000,238.035,-46.591,66.481,404.359,-266.321,271.355,-21.150,-16.370,-19.930
168,39071.614000,239.033,-43.585,66.481,406.289,-267.213,272.317,-21.150,-23.370,-25.930
169,39071.658000,235.041,-46.591,69.457,410.193,-265.346,269.425,8.850,-27.370,-24.930
170,39071.695000,234.043,-45.589,83.349,409.169,-269.116,270.302,-39.150,-57.370,-24.930
171,39071.738000,238.035,-44.587,86.326,410.202,-264.453,267.483,-153.150,7.630,-28.930
172,39071.778000,235.041,-51.601,73.426,413.091,-265.489,262.541,-86.150,-86.370,-129.930
173,39071.817000,235.041,-65.628,53.581,420.852,-265.431,260.588,102.850,-23.370,-198.930
174,39071.858000,235.041,-49.597,73.426,420.062,-253.126,261.913,159.850,-44.370,-124.930
175,39071.886000,244.023,-43.585,82.357,422.899,-258.653,265.698,184.850,-200.370,-32.930
176,39071.920000,246.020,-20.540,75.411,423.988,-250.207,262.984,275.850,-62.370,16.070
177,39071.955000,217.076,0.501,100.217,422.057,-250.103,267.902,123.850,-136.370,13.070
178,39071.999000,243.025,-45.589,34.729,429.022,-237.819,264.321,511.850,-498.370,-294.930
179,39072.38000,308.897,58.614,12.899,440.616,-239.888,251.496,-61.150,-569.370,-242.930
180,39072.79000,262.986,-21.542,3.969,440.683,-235.186,250.643,-98.150,55.630,-95.930
181,39072.119000,251.010,-42.583,34.729,442.634,-235.027,255.569,-142.150,363.630,-98.930
182,39072.159000,234.043,-12.524,80.372,437.773,-236.723,265.350,53.850,426.630,-37.930
183,39072.179000,209.092,-8.517,74.419,436.907,-230.012,269.469,-44.150,233.630,-56.930
184,39072.215000,207.096,-9.519,81.364,433.097,-225.286,271.561,-23.150,76.630,-238.930
185,39072.257000,244.023,12.524,86.326,440.890,-223.285,271.630,-54.150,32.630,-239.930
186,39072.297000,254.004,-2.505,107.163,435.943,-229.947,272.420,-151.150,395.630,-170.930
187,39072.337000,165.177,7.515,82.357,433.208,-218.483,278.636,-176.150,491.630,-281.930
188,39072.377000,107.290,-1.503,64.496,435.100,-222.159,281.488,-302.150,113.630,-196.930
189,39072.416000,181.146,-22.544,30.760,441.006,-215.641,274.794,-33.150,-199.370,-186.930
190,39072.459000,350.815,-35.569,19.845,443.843,-219.646,264.851,-194.150,-765.370,-25.930
191,39072.479000,443.634,-41.581,-19.845,453.578,-216.068,252.180,-156.150,-432.370,-45.930
192,39072.520000,416.686,-60.618,46.636,447.730,-217.228,247.220,-232.150,82.630,2.070
193,39072.559000,330.854,-9.519,78.388,447.725,-218.829,257.995,-129.150,390.630,-83.930
194,39072.599000,215.080,18.536,88.310,440.892,-222.498,265.750,-92.150,432.630,-19.930
195,39072.639000,199.111,-1.503,51.597,439.011,-218.664,268.805,-204.150,129.630,1.070
196,39072.678000,217.076,-19.538,38.698,445.650,-228.261,259.697,-278.150,-268.370,-187.930
197,39072.719000,196.117,-23.546,39.690,451.677,-214.046,258.135,68.850,-271.370,-314.930
198,39072.759000,164.179,-34.568,61.519,458.453,-214.948,256.154,465.850,-303.370,-46.930
199,39072.779000,190.129,20.540,72.434,459.387,-216.957,251.182,96.850,-455.370,201.070
200,39072.819000,230.051,20.540,64.496,460.355,-216.209,243.335,269.850,-428.370,119.070
201,39072.859000,218.074,56.611,57.550,461.199,-223.971,235.252,-94.150,-406.370,305.070
202,39072.899000,235.041,32.564,47.628,463.067,-227.201,219.427,-279.150,-574.370,337.070
203,39072.947000,251.010,15.530,-5.953,459.944,-239.957,203.330,-375.150,-680.370,325.070
204,39072.988000,223.064,-5.511,53.581,465.636,-247.729,192.303,-148.150,-479.370,339.070
205,39073.17000,256.998,1.503,24.806,458.683,-256.784,175.318,-486.150,-542.370,388.070
206,39073.58000,309.895,-63.624,-7.938,459.487,-267.382,167.156,-494.150,-115.370,152.070
207,39073.75000,300.912,-29.558,35.721,456.551,-269.262,169.066,-59.150,142.630,75.070
208,39073.117000,297.918,-34.568,29.767,454.596,-270.235,169.036,-135.150,172.630,104.070
209,39073.157000,277.957,-33.566,15.876,446.833,-271.080,176.868,-114.150,224.630,140.070
210,39073.198000,267.977,8.517,42.667,444.754,-280.564,176.601,-405.150,328.630,179.070
211,39073.238000,211.088,-55.609,64.496,437.917,-283.524,175.523,-466.150,342.630,152.070
212,39073.278000,192.125,-90.677,58.543,438.836,-287.240,177.389,-167.150,47.630,59.070
213,39073.317000,233.045,-74.646,36.713,435.747,-298.787,171.161,-126.150,-190.370,180.070
214,39073.367000,294.924,-69.636,5.953,434.759,-299.799,169.164,7.850,24.630,236.070
215,39073.381000,249.014,-69.636,31.752,428.863,-306.185,180.779,-18.150,403.630,143.070
216,39073.422000,215.080,-46.591,34.729,423.104,-302.353,185.794,69.850,346.630,131.070
217,39073.462000,237.037,-34.568,45.643,417.184,-309.816,192.462,-8.150,407.630,125.070
218,39073.497000,239.033,-65.628,70.450,414.389,-302.975,202.484,-69.150,521.630,13.070
219,39073.537000,222.066,-62.622,82.357,405.559,-310.453,210.130,-149.150,469.630,41.070
220,39073.578000,231.049,-60.618,77.395,405.600,-307.616,210.209,-170.150,347.630,71.070
221,39073.618000,228.055,-63.624,71.442,401.698,-309.457,214.085,-238.150,333.630,-79.930
222,39073.667000,229.053,-70.638,92.279,397.851,-307.515,218.067,-131.150,317.630,-109.930
223,39073.681000,207.096,-68.634,69.457,395.888,-309.355,220.964,-110.150,348.630,-32.930
224,39073.720000,167.173,-70.638,85.333,394.935,-308.371,222.957,-17.150,72.630,-124.930
225,39073.764000,196.117,-54.607,51.597,399.818,-305.623,217.140,-185.150,-51.370,-101.930
226,39073.798000,225.060,-31.562,31.752,399.684,-314.265,211.981,-152.150,-102.370,137.070
227,39073.840000,307.899,-21.542,-23.814,401.589,-315.473,201.131,-421.150,-432.370,120.070
228,39073.880000,376.764,-23.546,18.853,403.524,-315.525,198.182,-96.150,-100.370,-17.930
229,39073.917000,367.782,-61.620,0.992,406.436,-315.483,198.188,53.850,235.630,1.070
230,39073.938000,309.895,-53.605,33.736,401.495,-322.828,208.795,104.850,339.630,-14.930
231,39073.979000,226.058,-44.587,73.426,391.826,-320.942,213.749,189.850,261.630,17.070
232,39074.17000,181.146,-56.611,79.380,393.752,-322.648,219.607,134.850,24.630,141.070
233,39074.58000,138.230,-60.618,83.349,392.880,-316.016,220.773,208.850,-88.370,104.070
234,39074.98000,192.125,-66.630,86.326,393.789,-319.864,217.717,263.850,-333.370,40.070
235,39074.138000,240.031,-67.632,77.395,395.815,-314.136,218.863,308.850,-335.370,52.070
236,39074.178000,250.012,-66.630,65.488,397.755,-314.135,217.883,339.850,-327.370,138.070
237,39074.223000,261.988,-64.626,79.380,401.694,-310.271,218.981,285.850,-133.370,68.070
238,39074.238000,233.045,-56.611,74.419,399.777,-309.221,223.925,231.850,47.630,57.070
239,39074.279000,193.123,-52.603,73.426,393.988,-307.307,227.903,149.850,-80.370,79.070
240,39074.319000,209.092,-62.622,66.481,397.794,-312.086,223.842,116.850,-211.370,71.070
241,39074.358000,223.064,-65.628,51.597,399.757,-310.246,220.945,71.850,-305.370,30.070
242,39074.400000,241.029,-77.652,35.721,402.661,-310.310,217.014,50.850,-378.370,-6.930
243,39074.441000,234.043,-75.648,25.798,408.500,-308.494,211.173,183.850,-276.370,-75.930
244,39074.481000,226.058,-64.626,53.581,408.537,-305.710,209.283,181.850,-215.370,-158.930
245,39074.518000,232.047,-62.622,52.589,418.423,-293.279,209.645,149.850,-221.370,-224.930
246,39074.543000,232.047,-64.626,60.527,425.251,-290.451,205.801,42.850,-158.370,-313.930
247,39074.578000,271.969,-59.616,51.597,428.222,-286.575,207.881,367.850,-124.370,-398.930
248,39074.621000,299.914,-12.524,78.388,433.232,-276.025,211.134,53.850,260.630,-324.930
249,39074.662000,256.998,-28.556,75.411,434.233,-274.855,219.037,79.850,300.630,-242.930
250,39074.700000,257.996,-22.544,32.744,439.324,-258.658,221.463,145.850,-24.370,-211.930
251,39074.738000,276.959,4.509,35.721,442.267,-256.673,223.491,170.850,64.630,-293.930
252,39074.783000,252.008,-2.505,20.837,442.334,-252.732,229.502,80.850,190.630,-227.930
253,39074.818000,207.096,-12.524,56.558,446.284,-248.737,235.521,86.850,354.630,-220.930
254,39074.843000,218.074,-28.556,35.721,444.455,-241.934,243.576,177.850,231.630,-206.930
255,39074.879000,223.064,-14.528,56.558,444.497,-239.859,250.519,308.850,324.630,-138.930
256,39074.922000,248.016,9.519,86.326,439.777,-231.285,255.668,120.850,145.630,-27.930
257,39074.962000,240.031,-0.501,72.434,444.601,-233.895,261.505,118.850,132.630,-137.930
258,39074.999000,214.082,-13.526,72.434,439.978,-218.702,266.838,314.850,174.630,-118.930
259,39075.43000,222.066,15.530,84.341,441.945,-217.571,272.775,153.850,32.630,-5.930
260,39075.83000,221.068,5.511,75.411,436.110,-218.573,273.720,59.850,128.630,136.070
261,39075.123000,176.156,-15.530,78.388,434.145,-220.439,275.632,98.850,0.630,82.070
262,39075.139000,170.168,-14.528,33.736,434.174,-218.522,276.669,239.850,-64.370,67.070
263,39075.179000,280.951,-40.579,20.837,441.067,-211.018,270.988,401.850,-448.370,-109.930
264,39075.219000,384.749,-48.595,-18.853,444.914,-212.960,267.006,-75.150,-316.370,-91.930
265,39075.261000,374.768,-46.591,16.868,448.906,-205.340,267.225,89.850,-8.370,-50.930
266,39075.302000,342.830,-5.511,57.550,446.912,-209.124,268.100,-136.150,146.630,-44.930
267,39075.341000,291.930,-1.503,78.388,441.059,-211.885,273.915,-99.150,229.630,24.070
268,39075.382000,214.082,0.501,93.271,438.120,-214.579,280.720,138.850,352.630,84.070
269,39075.402000,184.140,12.524,74.419,437.242,-208.787,285.798,42.850,125.630,161.070
270,39075.438000,224.062,-5.511,78.388,432.157,-224.144,279.460,-193.150,-92.370,39.070
271,39075.479000,273.965,-14.528,60.527,437.228,-208.971,278.907,112.850,34.630,-245.930
272,39075.539000,199.111,-0.501,74.419,441.097,-210.623,285.753,182.850,243.630,-202.930
273,39075.562000,182.144,-3.507,80.372,439.344,-198.226,291.013,169.850,-46.370,-55.930
274,39075.604000,233.045,26.552,56.558,440.187,-206.776,288.810,26.850,-281.370,3.070
275,39075.639000,233.045,34.568,56.558,446.091,-200.284,281.131,-43.150,-234.370,62.070
276,39075.679000,200.109,48.595,67.473,446.887,-211.750,275.896,-217.150,-250.370,320.070
277,39075.699000,218.074,12.524,39.690,445.745,-222.429,265.761,-305.150,-578.370,432.070
278,39075.739000,257.996,-9.519,30.760,450.330,-238.122,241.725,-479.150,-758.370,435.070
279,39075.779000,284.943,-19.538,16.868,447.327,-243.181,230.760,-623.150,-181.370,209.070
280,39075.818000,304.904,-13.526,15.876,450.117,-250.863,224.649,-315.150,-51.370,-53.930
281,39075.861000,284.943,-0.501,42.667,449.105,-252.952,217.704,-437.150,-114.370,191.070
282,39075.900000,234.043,-35.569,57.550,447.087,-257.813,213.631,-369.150,74.630,211.070
283,39075.939000,242.027,-11.523,80.372,441.156,-264.647,208.513,-480.150,59.630,123.070
284,39075.983000,229.053,10.521,41.674,441.981,-274.195,204.314,-734.150,94.630,111.070
285,39076.3000,243.025,-53.605,73.426,433.106,-283.040,196.184,-591.150,-39.370,158.070
286,39076.44000,337.840,-87.671,58.543,432.027,-289.831,190.092,-303.150,149.630,213.070
287,39076.79000,228.055,-48.595,54.574,425.114,-298.359,192.794,-548.150,526.630,130.070
288,39076.120000,204.101,-78.654,29.767,424.088,-301.394,185.823,-569.150,85.630,-2.930
289,39076.159000,238.035,-82.661,23.814,419.131,-308.187,181.691,-351.150,52.630,37.070
290,39076.200000,206.097,-70.638,41.674,419.131,-308.948,188.555,-95.150,222.630,260.070
291,39076.239000,211.088,-54.607,45.643,409.257,-320.460,187.235,-91.150,95.630,189.070
292,39076.283000,258.994,-36.571,56.558,410.299,-315.692,188.353,-303.150,267.630,82.070
293,39076.315000,252.008,-76.650,80.372,403.387,-324.220,191.055,-202.150,428.630,-37.930
294,39076.339000,225.060,-77.652,82.357,402.436,-323.209,194.032,-177.150,483.630,69.070
295,39076.397000,182.144,-84.665,69.457,396.560,-328.570,208.627,24.850,614.630,157.070
296,39076.419000,156.195,-84.665,75.411,385.967,-323.783,216.611,189.850,494.630,108.070
297,39076.459000,142.222,-37.573,60.527,382.040,-327.488,221.420,-84.150,261.630,238.070
298,39076.499000,131.244,-57.613,76.403,379.012,-335.935,225.114,-89.150,169.630,24.070
299,39076.539000,257.996,-80.658,18.853,382.045,-326.648,217.508,-286.150,-158.370,-465.930
300,39076.560000,407.704,-6.513,69.457,390.921,-317.042,218.774,211.850,-24.370,-305.930
301,39076.600000,458.604,-12.524,31.752,390.822,-322.926,210.742,-176.150,-269.370,140.070
302,39076.643000,400.717,-60.618,24.806,389.965,-315.322,212.919,103.850,1.630,120.070
303,39076.688000,320.873,-77.652,58.543,393.846,-315.293,211.943,149.850,-31.370,-155.930
304,39076.720000,213.084,-58.614,80.372,392.984,-308.530,218.031,266.850,-40.370,-171.930
305,39076.762000,147.212,-68.634,87.318,397.835,-308.487,217.057,232.850,-323.370,-75.930
306,39076.819000,178.152,-70.638,56.558,402.704,-306.685,211.213,207.850,-481.370,8.070
307,39076.843000,234.043,-49.597,67.473,407.634,-301.783,215.292,239.850,-249.370,-84.930
308,39076.863000,237.037,-25.550,67.473,407.559,-306.590,212.208,281.850,-143.370,-15.930
309,39076.903000,220.070,-25.550,75.411,411.530,-300.783,215.327,88.850,-46.370,48.070
310,39076.943000,231.049,-59.616,61.519,404.692,-303.742,214.249,84.850,-224.370,99.070
311,39076.984000,216.078,-58.614,55.566,411.465,-304.697,210.300,56.850,-201.370,72.070
312,39077.20000,218.074,-64.626,56.558,416.269,-307.570,206.293,46.850,-256.370,37.070
313,39077.60000,226.058,-67.632,54.574,418.312,-300.083,202.571,200.850,-254.370,-51.930
314,39077.114000,238.035,-61.620,54.574,420.283,-298.138,203.612,197.850,-209.370,-71.930
315,39077.143000,243.025,-59.616,40.682,424.284,-290.412,207.768,245.850,-92.370,-88.930
316,39077.163000,221.068,-55.609,54.574,420.390,-291.387,208.718,327.850,-1.370,-151.930
317,39077.204000,224.062,-44.587,85.333,430.285,-278.824,214.002,318.850,-41.370,-242.930
318,39077.239000,248.016,-33.566,74.419,430.261,-280.663,215.918,142.850,95.630,-113.930
319,39077.280000,260.990,-5.511,79.380,435.252,-271.138,216.191,113.850,-103.370,-93.930
320,39077.320000,283.945,-56.611,48.620,440.025,-276.717,217.028,252.850,-97.370,-171.930
321,39077.363000,284.943,-27.554,55.566,437.223,-269.954,224.096,511.850,114.630,-77.930
322,39077.404000,266.979,8.517,66.481,437.397,-259.263,235.214,454.850,174.630,-29.930
323,39077.444000,254.004,2.505,44.651,437.440,-257.161,243.141,294.850,97.630,-42.930
324,39077.464000,226.058,2.505,44.651,439.521,-247.651,244.393,307.850,140.630,-107.930
325,39077.507000,225.060,-4.509,55.566,437.665,-242.739,252.395,176.850,136.630,-81.930
326,39077.543000,218.074,-6.513,63.504,437.671,-242.660,255.348,229.850,172.630,-107.930
327,39077.584000,213.084,-1.503,62.512,433.969,-231.157,263.531,196.850,113.630,-124.930
328,39077.623000,229.053,-4.509,65.488,438.842,-230.064,266.520,136.850,34.630,-117.930
329,39077.663000,250.012,-3.507,74.419,439.811,-230.076,265.538,145.850,1.630,-90.930
330,39077.704000,258.994,1.503,85.333,440.845,-226.175,269.583,149.850,76.630,-69.930
331,39077.745000,237.037,-0.501,87.318,434.161,-219.467,276.643,208.850,157.630,-83.930
332,39077.764000,222.066,3.507,95.256,436.126,-218.363,281.595,137.850,165.630,-42.930
333,39077.804000,195.119,-4.509,82.357,435.128,-220.268,281.541,111.850,147.630,-61.930
334,39077.844000,171.166,-2.505,70.450,435.265,-211.573,288.668,24.850,150.630,-87.930
335,39077.880000,148.211,-17.534,64.496,431.371,-212.547,289.618,243.850,55.630,-90.930
336,39077.924000,200.109,-1.503,28.775,438.352,-199.291,287.047,45.850,-183.370,-108.930
337,39077.964000,368.780,-34.568,23.814,447.025,-202.294,276.159,99.850,-624.370,-300.930
338,39078.4000,440.639,-45.589,36.713,453.017,-190.049,271.591,156.850,-261.370,-56.930
339,39078.24000,414.690,-14.528,44.651,448.142,-191.930,274.482,163.850,220.630,56.070
340,39078.62000,327.860,22.544,34.729,447.194,-190.893,278.443,-157.150,154.630,80.070
341,39078.104000,240.031,5.511,34.729,438.299,-202.286,281.062,-366.150,249.630,79.070
342,39078.144000,174.160,-20.540,72.434,435.255,-211.704,283.746,-240.150,245.630,167.070
343,39078.185000,182.144,-31.562,76.403,437.128,-216.405,283.619,36.850,-163.370,257.070
344,39078.225000,264.982,-12.524,45.643,434.131,-221.385,275.606,-186.150,-386.370,445.070
345,39078.265000,265.980,11.523,75.411,433.991,-230.868,274.359,36.850,-6.370,130.070
346,39078.302000,212.086,-2.505,84.341,433.072,-227.151,272.493,-38.150,-117.370,-61.930
347,39078.322000,222.066,9.519,65.488,436.992,-224.312,270.611,-79.150,-131.370,1.070
348,39078.362000,214.082,23.546,69.457,436.925,-228.253,264.600,-169.150,-92.370,-12.930
349,39078.413000,200.109,13.526,61.519,443.597,-235.879,258.498,-191.150,-286.370,-94.930
350,39078.443000,217.076,-0.501,42.667,446.548,-232.266,250.734,-207.150,-444.370,10.070
351,39078.487000,244.023,-11.523,39.690,451.302,-237.321,235.847,-376.150,-342.370,114.070
352,39078.525000,259.992,0.501,28.775,445.348,-245.231,225.781,-455.150,-175.370,122.070
353,39078.562000,243.025,-11.523,40.682,449.162,-249.143,218.794,-403.150,-177.370,154.070
354,39078.600000,249.014,-16.532,41.674,443.286,-252.194,213.781,-331.150,-127.370,239.070
355,39078.624000,258.994,-8.517,55.566,441.184,-262.755,208.565,-284.150,-163.370,288.070
356,39078.665000,256.000,-47.593,55.566,440.934,-279.042,200.243,-329.150,-112.370,122.070
357,39078.705000,259.992,-38.575,42.667,444.026,-265.920,194.712,-214.150,-115.370,-111.930
358,39078.743000,283.945,-41.581,19.845,442.896,-276.441,190.483,-266.150,-17.370,14.070
359,39078.782000,262.986,-79.656,47.628,440.983,-274.577,190.531,-165.150,178.630,109.070
360,39078.828000,258.994,-46.591,57.550,433.135,-281.122,197.221,-62.150,238.630,111.070
361,39078.872000,254.004,-35.569,55.566,430.204,-282.949,201.100,-123.150,296.630,199.070
362,39078.908000,227.057,-39.577,71.442,419.315,-298.125,204.594,-299.150,229.630,216.070
363,39078.924000,250.012,-52.603,77.395,418.383,-295.328,203.687,-251.150,365.630,198.070
364,39078.965000,212.086,-70.638,50.605,411.436,-306.614,209.263,-55.150,192.630,278.070
365,39079.5000,227.057,-51.601,47.628,405.625,-305.751,209.277,-159.150,77.630,253.070
366,39079.45000,241.029,-43.585,67.473,397.766,-312.454,210.061,-127.150,259.630,149.070
367,39079.84000,242.027,-50.599,71.442,398.686,-316.170,211.926,-249.150,304.630,42.070
368,39079.125000,237.037,-66.630,77.395,388.983,-316.255,213.875,-118.150,322.630,8.070
369,39079.165000,227.057,-72.642,88.310,387.991,-318.081,216.773,-178.150,253.630,25.070
370,39079.213000,233.045,-77.652,90.295,385.030,-321.826,219.615,-158.150,328.630,37.070
371,39079.222000,225.060,-71.640,85.333,380.142,-324.653,222.479,-344.150,442.630,74.070
372,39079.267000,213.084,-67.632,97.240,378.177,-326.519,224.391,-252.150,342.630,23.070
373,39079.307000,207.096,-68.634,92.279,374.178,-334.218,221.219,-276.150,286.630,-36.930
374,39079.342000,200.109,-71.640,102.202,372.192,-337.896,226.032,-330.150,345.630,-28.930
375,39079.383000,175.158,-86.669,106.171,375.096,-337.960,222.100,-153.150,154.630,-96.930
376,39079.430000,159.189,-81.659,87.318,378.088,-332.272,221.280,-147.150,-12.370,-121.930
377,39079.465000,158.191,-70.638,71.442,377.098,-333.310,218.298,210.850,-246.370,-184.930
378,39079.505000,184.140,-25.550,52.589,389.877,-321.836,216.672,341.850,-296.370,-90.930
379,39079.525000,332.850,-25.550,42.667,389.749,-329.638,207.602,-163.150,-511.370,17.070
380,39079.573000,410.698,-18.536,-29.767,397.681,-317.393,202.054,154.850,-413.370,-242.930
381,39079.603000,413.692,0.501,-4.961,403.466,-320.121,202.972,129.850,32.630,-173.930
382,39079.642000,350.815,-1.503,7.938,399.703,-312.479,208.096,-25.150,308.630,-45.930
383,39079.684000,237.037,-55.609,44.651,397.745,-315.028,219.825,122.850,300.630,-48.930
384,39079.725000,153.201,-30.560,67.473,395.868,-310.380,217.984,5.850,20.630,57.070
385,39079.762000,143.220,-32.564,75.411,397.753,-314.161,216.899,-47.150,-149.370,139.070
386,39079.786000,146.214,-83.663,108.155,391.901,-316.135,216.834,98.850,-118.370,92.070
387,39079.829000,205.099,-79.656,100.217,394.809,-316.146,214.871,265.850,-385.370,56.070
388,39079.867000,262.986,-55.609,78.388,399.694,-313.372,210.039,233.850,-454.370,106.070
389,39079.907000,283.945,-60.618,59.535,398.680,-316.249,208.973,207.850,-122.370,136.070
390,39079.948000,250.012,-65.628,67.473,388.940,-319.118,212.811,145.850,61.630,119.070
391,39079.987000,203.103,-65.628,73.426,391.854,-319.051,213.802,93.850,-2.370,163.070
392,39080.27000,196.117,-88.673,57.550,390.881,-319.091,212.816,74.850,-248.370,154.070
393,39080.67000,215.080,-76.650,56.558,391.868,-318.105,213.828,168.850,-280.370,55.070
394,39080.88000,239.033,-77.652,62.512,395.736,-318.996,213.810,297.850,-163.370,-111.930
395,39080.128000,241.029,-69.636,36.713,402.547,-317.928,214.835,341.850,-222.370,-115.930
396,39080.165000,238.035,-62.622,30.760,402.712,-306.580,215.151,363.850,-321.370,-7.930
397,39080.205000,244.023,-62.622,44.651,406.587,-307.392,218.085,238.850,-92.370,-36.930
398,39080.247000,228.055,-47.593,61.519,409.534,-304.593,215.217,218.850,-33.370,-133.930
399,39080.288000,214.082,-48.595,80.372,413.601,-292.165,218.521,208.850,-145.370,-254.930
400,39080.324000,233.045,-36.571,84.341,416.502,-293.043,219.485,103.850,-131.370,-254.930
401,39080.365000,237.037,-43.585,78.388,422.524,-278.882,215.954,174.850,-8.370,-137.930
402,39080.387000,258.994,-39.577,57.550,425.359,-284.435,218.756,23.850,-94.370,-26.930
403,39080.424000,272.967,-41.581,34.729,428.359,-277.880,215.008,18.850,-100.370,-103.930
404,39080.465000,269.973,-47.593,40.682,430.272,-280.531,220.840,134.850,77.630,-89.930
405,39080.508000,269.973,-31.562,59.535,427.364,-280.520,222.802,251.850,88.630,-72.930
406,39080.544000,264.982,-8.517,56.558,432.386,-269.051,225.097,99.850,71.630,-127.930
407,39080.583000,237.037,-18.536,58.543,432.439,-266.056,231.082,125.850,159.630,-228.930
408,39080.627000,233.045,-4.509,66.481,436.377,-262.219,231.195,138.850,48.630,-255.930
409,39080.669000,237.037,-0.501,59.535,443.356,-249.750,234.505,206.850,-41.370,-245.930
410,39080.684000,244.023,-16.532,47.628,442.409,-248.687,239.451,166.850,35.630,-258.930
411,39080.725000,230.051,-15.530,52.589,441.508,-244.734,246.444,182.850,253.630,-202.930
412,39080.767000,226.058,-23.546,55.566,443.613,-234.146,252.644,200.850,136.630,-135.930
413,39080.807000,250.012,-1.503,72.434,434.892,-233.298,253.637,199.850,42.630,-46.930
414,39080.847000,264.982,-10.521,57.550,444.652,-230.166,259.642,267.850,125.630,2.070
415,39080.894000,245.021,-3.507,74.419,440.758,-231.901,267.456,83.850,327.630,-62.930
416,39080.929000,225.060,-3.507,73.426,439.965,-220.409,273.676,295.850,213.630,-66.930
417,39080.948000,251.010,2.505,91.287,439.822,-230.706,277.324,145.850,119.630,-65.930
418,39080.989000,231.049,2.505,91.287,435.230,-213.569,284.678,129.850,243.630,-91.930
419,39081.24000,176.156,-1.503,81.364,434.183,-219.178,287.471,140.850,179.630,-33.930
420,39081.69000,181.146,-4.509,71.442,436.325,-205.806,291.781,226.850,67.630,-57.930
421,39081.108000,164.179,-4.509,57.550,432.416,-207.726,292.704,155.850,100.630,-66.930
422,39081.148000,163.181,-2.505,60.527,436.425,-199.134,293.934,149.850,-81.370,69.070
423,39081.184000,174.160,-3.507,46.636,434.407,-204.756,296.725,208.850,-91.370,147.070
424,39081.245000,312.889,-28.556,58.543,442.292,-195.427,288.145,273.850,-699.370,93.070
425,39081.253000,376.764,-21.542,0.992,446.117,-198.419,280.199,317.850,-202.370,-10.930
426,39081.287000,409.700,-2.505,25.798,450.000,-198.364,280.208,-269.150,-158.370,-128.930
427,39081.323000,391.735,-37.573,50.605,450.066,-192.901,272.491,-239.150,-7.370,-158.930
428,39081.368000,301.910,9.519,90.295,449.037,-197.512,277.279,-10.150,175.630,61.070
429,39081.408000,242.027,40.579,80.372,442.158,-204.069,282.987,-27.150,244.630,188.070
430,39081.448000,219.072,9.519,63.504,439.266,-203.086,285.960,-159.150,189.630,170.070
431,39081.488000,212.086,3.507,63.504,439.112,-213.514,284.686,-311.150,119.630,102.070
432,39081.528000,207.096,-1.503,63.504,432.184,-223.014,286.377,-335.150,102.630,24.070
433,39081.545000,185.138,-11.523,78.388,433.218,-218.351,283.558,-376.150,11.630,-114.930
434,39081.584000,179.150,-1.503,75.411,435.960,-228.949,274.415,-509.150,-221.370,-169.930
435,39081.625000,214.082,-10.521,61.519,442.841,-221.603,262.828,-423.150,-277.370,-198.930
436,39081.667000,247.018,1.503,62.512,441.850,-222.642,259.846,-214.150,-111.370,-71.930
437,39081.707000,230.051,2.505,50.605,444.727,-224.597,255.862,-162.150,-71.370,34.070
438,39081.744000,212.086,-7.515,43.659,442.677,-231.402,249.768,-250.150,-268.370,-47.930
439,39081.788000,246.020,-2.505,40.682,451.332,-236.164,243.748,-155.150,-221.370,69.070
440,39081.828000,250.012,6.513,51.597,451.298,-237.373,233.879,-171.150,-256.370,220.070
441,39081.847000,218.074,-3.507,49.612,450.215,-244.217,225.818,-232.150,-423.370,265.070
442,39081.885000,236.039,-20.540,53.581,451.899,-260.581,213.562,-178.150,-487.370,233.070
443,39081.925000,267.977,-13.526,34.729,447.098,-256.132,205.809,-86.150,-309.370,278.070
444,39081.967000,274.963,-14.528,43.659,446.962,-264.801,199.666,-171.150,-151.370,244.070
445,39082.8000,264.982,-26.552,58.543,446.970,-264.696,203.603,-40.150,-0.370,197.070
446,39082.54000,260.990,-30.560,64.496,442.954,-273.393,198.436,-147.150,10.630,125.070
447,39082.88000,268.975,-23.546,47.628,441.969,-274.352,198.408,-146.150,84.630,99.070
448,39082.128000,245.021,-22.544,53.581,438.945,-281.985,197.207,-228.150,234.630,112.070
449,39082.148000,230.051,-57.613,46.636,433.084,-284.852,199.085,-258.150,258.630,84.070
450,39082.187000,274.963,-77.652,41.674,430.192,-283.868,202.058,71.850,39.630,172.070
451,39082.227000,263.984,-48.595,50.605,422.350,-289.573,204.837,-114.150,221.630,278.070
452,39082.270000,214.082,-50.599,39.690,418.279,-302.814,206.429,-170.150,152.630,254.070
453,39082.305000,220.070,-37.573,24.806,413.308,-310.554,202.271,-225.150,98.630,163.070
454,39082.345000,241.029,-56.611,47.628,414.253,-312.405,203.205,-149.150,237.630,125.070
455,39082.384000,258.994,-49.597,66.481,406.580,-306.709,208.268,-196.150,344.630,12.070
456,39082.430000,254.004,-51.601,71.442,402.617,-312.412,209.087,-313.150,387.630,-12.930
457,39082.445000,214.082,-67.632,62.512,395.840,-311.510,211.068,-352.150,414.630,-31.930
458,39082.487000,225.060,-66.630,79.380,395.772,-316.238,210.936,-349.150,198.630,-2.930
459,39082.529000,251.010,-78.654,82.357,392.704,-326.734,208.672,-409.150,302.630,-10.930
460,39082.568000,214.082,-94.685,100.217,391.828,-320.916,214.734,-114.150,380.630,-44.930
461,39082.609000,188.133,-71.640,100.217,384.979,-324.795,214.614,-166.150,306.630,-18.930
462,39082.649000,169.170,-70.638,87.318,384.036,-323.678,221.529,-132.150,259.630,48.070
463,39082.685000,146.214,-56.611,84.341,381.057,-328.421,222.376,-92.150,286.630,52.070
464,39082.705000,193.123,-65.628,60.527,384.052,-322.706,222.540,-32.150,19.630,-38.930
465,39082.749000,228.055,-25.550,43.659,385.950,-325.542,221.480,23.850,-117.370,2.070
466,39082.789000,389.739,-23.546,29.767,386.952,-322.823,216.640,-125.150,-227.370,118.070
467,39082.830000,437.645,-41.581,7.938,385.912,-326.804,209.642,-65.150,-155.370,-48.930
468,39082.865000,387.743,-43.585,3.969,384.116,-318.031,220.702,474.850,308.630,116.070
469,39082.910000,338.838,-59.616,56.558,379.225,-322.433,235.326,422.850,259.630,129.070
470,39082.945000,231.049,-42.583,76.403,374.444,-318.482,244.280,284.850,38.630,29.070
471,39082.985000,136.234,-39.577,85.333,379.327,-316.496,245.327,189.850,-144.370,-6.930
472,39083.5000,140.226,-62.622,103.194,379.360,-313.764,241.469,157.850,-267.370,55.070
473,39083.45000,196.117,-82.661,97.240,380.272,-317.586,239.397,264.850,-295.370,97.070
474,39083.87000,208.094,-64.626,86.326,385.171,-314.627,241.455,379.850,-353.370,113.070
475,39083.128000,242.027,-49.597,74.419,385.222,-310.898,239.591,399.850,-484.370,145.070
476,39083.168000,255.002,-46.591,74.419,386.204,-309.964,238.635,371.850,-274.370,96.070
477,39083.219000,225.060,-56.611,73.426,385.257,-308.901,243.581,381.850,-217.370,129.070
478,39083.249000,256.998,-34.568,85.333,387.295,-302.254,243.770,140.850,-127.370,211.070
479,39083.297000,254.004,-12.524,89.302,385.141,-316.545,240.418,-78.150,-72.370,182.070
480,39083.305000,198.113,-65.628,68.465,382.194,-318.583,236.422,-51.150,-365.370,97.070
481,39083.347000,236.039,-92.681,61.519,386.180,-311.042,233.687,26.850,-166.370,32.070
482,39083.388000,210.090,-73.644,46.636,389.004,-316.753,230.582,-10.150,-168.370,-106.930
483,39083.428000,201.107,-96.689,44.651,398.810,-309.182,225.891,122.850,-255.370,-284.930
484,39083.468000,211.088,-87.671,46.636,407.631,-303.358,227.052,295.850,-250.370,-373.930
485,39083.508000,266.979,-68.634,12.899,415.621,-287.278,223.578,25.850,-166.370,-507.930
486,39083.545000,234.043,-32.564,64.496,422.542,-278.645,224.813,-202.150,406.630,-788.930
487,39083.589000,339.836,0.501,109.147,432.417,-266.346,220.254,-195.150,-92.370,-296.930
488,39083.619000,256.000,-46.591,58.543,431.421,-268.224,221.184,-115.150,173.630,3.070
489,39083.647000,183.142,-49.597,91.287,425.550,-271.984,225.004,26.850,155.630,82.070
490,39083.688000,242.027,-60.618,62.512,431.211,-282.462,218.820,-34.150,-163.370,30.070
491,39083.729000,280.951,-60.618,66.481,434.333,-268.944,228.054,-27.150,272.630,-190.930
492,39083.769000,263.984,12.524,81.364,430.602,-259.359,235.200,446.850,212.630,-227.930
493,39083.809000,246.020,-30.560,34.729,434.516,-257.360,237.229,67.850,51.630,-121.930
494,39083.848000,249.014,-30.560,52.589,433.648,-251.437,247.228,485.850,297.630,-217.930
495,39083.889000,249.014,29.558,34.729,431.853,-242.664,258.289,281.850,185.630,-185.930
496,39083.909000,209.092,5.511,50.605,431.926,-238.644,267.253,390.850,177.630,-110.930
497,39083.949000,222.066,-13.526,64.496,435.954,-229.028,271.462,256.850,50.630,-47.930
498,39083.989000,263.984,-5.511,78.388,431.058,-232.721,277.253,330.850,243.630,22.070
499,39084.29000,238.035,24.548,97.240,428.339,-220.285,284.479,419.850,255.630,-35.930
500,39084.68000,237.037,13.526,93.271,427.357,-221.979,292.299,282.850,88.630,-21.930
501,39084.108000,231.049,-5.511,96.248,428.432,-215.241,296.423,203.850,128.630,30.070
502,39084.149000,200.109,7.515,100.217,425.567,-212.366,299.449,416.850,82.630,28.070
503,39084.167000,199.111,17.534,103.194,420.826,-205.605,307.498,150.850,-19.370,42.070
504,39084.208000,186.136,20.540,93.271,425.587,-211.341,302.428,96.850,-111.370,-49.930
505,39084.248000,170.168,23.546,64.496,427.630,-203.854,298.706,-199.150,-123.370,-104.930
506,39084.288000,113.279,-4.509,48.620,437.360,-201.117,289.946,-10.150,-322.370,-111.930
507,39084.327000,238.035,-3.507,35.721,441.248,-199.460,279.179,-27.150,-774.370,35.070
508,39084.368000,437.645,-40.579,-11.907,455.791,-198.703,264.470,-62.150,-578.370,-162.930
509,39084.415000,350.815,-71.640,60.527,452.828,-201.713,259.463,-28.150,38.630,103.070
510,39084.449000,391.735,-42.583,18.853,451.875,-200.728,261.456,69.850,45.630,48.070
511,39084.469000,319.875,2.505,23.814,451.810,-205.404,263.293,-227.150,286.630,-12.930
512,39084.517000,235.041,4.509,58.543,448.895,-206.259,268.183,-328.150,279.630,46.070
513,39084.550000,197.115,-11.523,78.388,440.959,-218.557,271.762,-235.150,187.630,97.070
514,39084.587000,200.109,16.532,79.380,435.123,-219.559,272.708,-227.150,184.630,174.070
515,39084.627000,198.113,15.530,82.357,434.038,-227.190,270.526,-355.150,104.630,186.070
516,39084.667000,222.066,-17.534,80.372,432.934,-235.846,265.366,-326.150,-59.370,121.070
517,39084.707000,250.012,-31.562,65.488,429.894,-244.451,263.154,-204.150,-12.370,-17.930
518,39084.752000,232.047,-24.548,57.550,434.820,-239.601,265.264,-71.150,63.630,-75.930
519,39084.767000,216.078,-21.542,54.574,433.861,-238.696,264.304,-6.150,16.630,-189.930
520,39084.810000,215.080,8.517,81.364,438.779,-233.952,262.477,2.850,-160.370,-164.930
521,39084.849000,253.006,9.519,50.605,441.640,-236.118,250.619,-213.150,-438.370,-32.930
522,39084.892000,260.990,-17.534,57.550,444.569,-233.555,238.892,-119.150,-228.370,37.070
523,39084.928000,230.051,-10.521,62.512,442.480,-243.932,240.567,-113.150,-77.370,160.070
524,39084.968000,218.074,-11.523,52.589,440.523,-244.932,239.552,-114.150,-50.370,260.070
525,39085.8000,226.058,0.501,46.636,437.405,-258.396,232.287,-58.150,-247.370,277.070
526,39085.48000,230.051,7.515,33.736,441.269,-258.578,223.436,-133.150,-331.370,270.070
527,39085.69000,262.986,-15.530,49.612,439.162,-269.192,216.252,-351.150,-284.370,307.070
528,39085.109000,265.980,-22.544,31.752,435.175,-275.971,212.122,-43.150,-75.370,265.070
529,39085.150000,256.000,-30.560,78.388,433.205,-277.917,211.081,-11.150,-128.370,138.070
530,39085.190000,255.002,-19.538,64.496,431.230,-279.914,208.071,-84.150,13.630,60.070
531,39085.232000,256.000,-21.542,46.636,429.332,-277.079,209.131,-16.150,-30.370,89.070
532,39085.272000,271.969,-45.589,67.473,425.396,-280.890,210.002,-20.150,79.630,204.070
533,39085.310000,249.014,-56.611,34.729,423.380,-285.724,206.913,-161.150,23.630,221.070
534,39085.349000,239.033,-100.697,48.620,418.478,-289.497,209.751,-22.150,32.630,106.070
535,39085.369000,259.992,-59.616,31.752,413.461,-300.887,210.409,-29.150,175.630,121.070
536,39085.409000,229.053,-73.644,23.814,411.457,-305.563,213.226,10.850,194.630,277.070
537,39085.449000,212.086,-74.646,50.605,405.691,-302.598,221.168,119.850,329.630,249.070
538,39085.489000,225.060,-65.628,64.496,395.928,-308.067,233.786,261.850,443.630,223.070
539,39085.529000,242.027,-48.595,62.512,386.291,-304.999,247.626,53.850,606.630,279.070
540,39085.570000,210.090,-60.618,95.256,373.525,-316.289,256.143,72.850,495.630,170.070
541,39085.612000,218.074,-77.652,79.380,371.722,-307.621,263.266,102.850,446.630,5.070
542,39085.652000,198.113,-64.626,99.225,365.879,-310.251,274.003,201.850,358.630,13.070
543,39085.672000,195.119,-66.630,102.202,362.069,-306.287,282.959,194.850,314.630,-9.930
544,39085.712000,157.193,-58.614,84.341,359.211,-303.333,288.938,344.850,250.630,-83.930
545,39085.763000,169.170,7.515,114.109,358.319,-298.487,293.990,-245.150,339.630,-113.930
546,39085.805000,155.197,-79.656,113.116,355.401,-299.369,297.895,-58.150,233.630,-167.930
547,39085.832000,225.060,-48.595,47.628,363.150,-299.469,290.036,-323.150,-285.370,-148.930
548,39085.868000,467.587,-60.618,15.876,369.933,-298.770,277.280,-168.150,-493.370,-159.930
549,39085.908000,391.735,-81.659,28.775,369.054,-292.216,275.494,177.850,117.630,62.070
550,39085.929000,377.762,-73.644,55.566,368.111,-291.100,282.408,172.850,-70.370,44.070
551,39085.969000,285.942,-30.560,65.488,371.894,-297.717,280.263,142.850,-180.370,24.070
552,39086.10000,178.152,-30.560,85.333,375.784,-296.796,277.345,-23.150,-364.370,-8.930
553,39086.52000,153.201,-42.583,100.217,378.735,-293.183,269.581,-53.150,-407.370,-23.930
554,39086.90000,173.162,-47.593,102.202,384.551,-293.205,265.656,3.850,-341.370,93.070
555,39086.132000,244.023,-63.624,75.411,387.433,-294.320,257.761,-106.150,-455.370,40.070
556,39086.172000,250.012,-45.589,85.333,393.223,-296.208,254.767,-36.150,-148.370,-42.930
557,39086.212000,245.021,-48.595,76.403,388.352,-296.514,245.898,-186.150,-134.370,-57.930
558,39086.233000,232.047,-68.634,61.519,390.285,-296.592,241.965,-257.150,-111.370,-114.930
559,39086.277000,195.119,-88.673,52.589,393.960,-310.747,240.594,-146.150,-194.370,-3.930
560,39086.310000,200.109,-77.652,51.597,396.999,-301.382,235.941,29.850,-162.370,-2.930
561,39086.350000,222.066,-52.603,46.636,400.850,-303.270,233.928,100.850,-230.370,-116.930
562,39086.390000,229.053,-61.620,39.690,406.853,-290.895,234.282,157.850,-175.370,-126.930
563,39086.430000,237.037,-65.628,29.767,409.723,-293.690,234.210,170.850,-169.370,-262.930
564,39086.470000,240.031,-41.581,61.519,419.691,-275.586,234.730,116.850,82.630,-517.930
565,39086.510000,255.002,-35.569,80.372,420.727,-271.658,239.759,239.850,104.630,-369.930
566,39086.530000,261.988,-6.513,81.364,426.661,-264.010,239.982,-65.150,-47.370,-53.930
567,39086.572000,275.961,-20.540,70.450,426.570,-269.790,235.886,-272.150,-48.370,-19.930
568,39086.612000,246.020,-46.591,67.473,425.651,-266.835,240.885,98.850,151.630,-145.930
569,39086.653000,240.031,-29.558,46.636,428.528,-269.551,243.765,30.850,114.630,-59.930
570,39086.692000,235.041,-21.542,70.450,428.650,-261.067,243.018,81.850,97.630,-49.930
571,39086.732000,256.998,-18.536,67.473,427.600,-266.702,244.826,95.850,-66.370,-86.930
572,39086.772000,247.018,-9.519,59.535,426.762,-258.100,248.999,225.850,66.630,-195.930
573,39086.812000,263.984,-2.505,63.504,435.574,-253.142,253.086,143.850,37.630,-250.930
574,39086.832000,257.996,-11.523,51.597,438.712,-237.892,256.466,226.850,103.630,-234.930
575,39086.872000,222.066,-9.519,52.589,436.818,-235.004,259.494,20.850,256.630,-178.930
576,39086.912000,224.062,-4.509,76.403,430.034,-234.968,264.402,66.850,164.630,-116.930
577,39086.953000,244.023,-9.519,86.326,433.981,-230.999,269.437,69.850,159.630,-80.930
578,39086.994000,227.057,-3.507,80.372,431.140,-226.286,270.547,89.850,114.630,-124.930
579,39087.30000,246.020,-3.507,82.357,430.133,-229.845,279.298,144.850,213.630,-121.930
580,39087.73000,245.021,8.517,102.202,431.219,-222.187,282.464,212.850,253.630,-118.930
581,39087.110000,198.113,17.534,98.233,428.429,-214.506,288.575,12.850,245.630,-175.930
582,39087.132000,179.150,-10.521,94.264,428.528,-208.621,296.607,64.850,233.630,-183.930
583,39087.173000,181.146,2.505,65.488,432.418,-207.700,293.689,70.850,-64.370,-87.930
584,39087.213000,197.115,-2.505,73.426,428.542,-207.676,296.634,395.850,-98.370,19.070
585,39087.253000,211.088,-8.517,67.473,434.531,-196.246,296.962,329.850,-176.370,141.070
586,39087.293000,193.123,-5.511,57.550,431.576,-199.150,295.892,265.850,-119.370,144.070
587,39087.334000,211.088,3.507,50.605,438.360,-198.424,284.121,311.850,-541.370,247.070
588,39087.374000,396.725,-33.566,21.829,446.184,-193.718,279.347,71.850,-562.370,-222.930
589,39087.394000,404.710,-20.540,36.713,451.123,-187.161,274.619,29.850,-29.370,-76.930
590,39087.434000,370.776,-28.556,57.550,443.293,-191.947,276.440,-60.150,168.630,90.070
591,39087.474000,274.963,10.521,67.473,443.252,-195.545,283.225,-128.150,232.630,161.070
592,39087.510000,235.041,15.530,69.457,438.189,-209.851,280.852,-221.150,144.630,128.070
593,39087.554000,219.072,9.519,65.488,437.246,-208.735,287.767,-219.150,185.630,164.070
594,39087.594000,200.109,3.507,68.465,431.255,-220.191,286.454,-360.150,135.630,156.070
595,39087.635000,197.115,-9.519,70.450,432.178,-223.093,283.424,-320.150,26.630,93.070
596,39087.672000,218.074,-9.519,65.488,430.135,-229.819,280.283,-304.150,-103.370,41.070
597,39087.689000,230.051,-6.513,62.512,429.144,-230.857,277.301,-288.150,-66.370,52.070
598,39087.733000,240.031,-4.509,69.457,431.930,-238.592,269.222,-255.150,-85.370,-27.930
599,39087.773000,246.020,4.509,78.388,431.977,-234.915,265.390,-215.150,-30.370,-46.930
600,39087.813000,219.072,-2.505,68.465,433.783,-243.556,259.251,-291.150,-77.370,-2.930
601,39087.850000,223.064,-29.558,33.736,430.910,-240.786,258.340,-205.150,-197.370,0.070
602,39087.889000,231.049,-17.534,55.566,437.635,-244.657,251.358,-143.150,-112.370,69.070
603,39087.934000,239.033,-0.501,52.589,434.650,-248.718,242.388,-271.150,-300.370,172.070
604,39087.974000,238.035,-9.519,48.620,438.379,-258.330,234.258,-212.150,-389.370,130.070
605,39087.994000,221.068,-3.507,65.488,437.345,-261.470,223.349,-198.150,-296.370,204.070
606,39088.33000,256.998,-15.530,54.574,438.213,-267.393,213.350,-273.150,-329.370,233.070
607,39088.73000,273.965,-33.566,50.605,437.177,-271.321,208.320,-210.150,-171.370,155.070
608,39088.114000,266.979,-28.556,62.512,440.056,-273.250,205.321,-268.150,-73.370,-8.930
609,39088.154000,266.979,-40.579,34.729,431.161,-283.881,201.076,-259.150,72.630,58.070
610,39088.190000,255.002,-45.589,57.550,430.231,-281.058,201.153,-177.150,176.630,120.070
611,39088.230000,262.986,-41.581,82.357,426.213,-290.543,201.866,-240.150,188.630,189.070
612,39088.270000,243.025,-61.620,47.628,421.307,-294.368,202.735,-225.150,240.630,185.070
613,39088.290000,242.027,-72.642,36.713,415.422,-299.073,206.528,-25.150,200.630,180.070
614,39088.339000,223.064,-53.605,41.674,414.473,-298.036,210.490,-56.150,191.630,252.070
615,39088.379000,214.082,-63.624,53.581,407.545,-307.536,212.181,-77.150,68.630,176.070
616,39088.413000,238.035,-35.569,57.550,402.662,-309.522,211.134,-90.150,24.630,86.070
617,39088.453000,258.994,-65.628,66.481,402.633,-311.440,210.097,-203.150,105.630,54.070
618,39088.490000,259.992,-75.648,64.496,399.792,-306.727,211.207,-44.150,222.630,29.070
619,39088.532000,232.047,-69.636,80.372,396.729,-317.931,217.776,-64.150,388.630,111.070
620,39088.572000,210.090,-64.626,87.318,391.931,-314.979,224.735,14.850,375.630,117.070
621,39088.590000,191.127,-53.605,100.217,385.025,-323.428,230.390,-21.150,298.630,113.070
622,39088.630000,203.103,-51.601,94.264,382.158,-320.579,232.432,-192.150,354.630,70.070
623,39088.672000,217.076,-64.626,96.248,376.232,-328.122,236.146,-145.150,384.630,-12.930
624,39088.714000,196.117,-62.622,76.403,373.393,-323.382,238.241,-267.150,315.630,-17.930
625,39088.775000,199.111,-63.624,85.333,374.252,-330.960,237.048,-342.150,152.630,-59.930
626,39088.793000,178.152,-98.693,76.403,372.406,-324.368,237.228,-13.150,217.630,-49.930
627,39088.835000,123.259,-26.552,29.767,368.522,-324.449,236.235,182.850,17.630,53.070
628,39088.853000,231.049,-48.595,48.620,373.401,-322.515,235.314,11.850,-436.370,-3.930
629,39088.895000,430.659,-13.526,24.806,383.075,-323.560,226.449,58.850,-452.370,23.070
630,39088.934000,402.713,-75.648,49.612,378.212,-323.761,221.517,-3.150,-209.370,107.070
631,39088.974000,407.704,-35.569,40.682,383.091,-322.589,227.459,210.850,-76.370,-56.930
632,39089.17000,373.770,-45.589,36.713,383.009,-328.262,227.301,79.850,46.630,-63.930
633,39089.53000,227.057,-69.636,60.527,384.148,-316.848,229.588,111.850,-21.370,-87.930
634,39089.90000,153.201,-46.591,76.403,383.150,-318.753,229.533,174.850,-122.370,-62.930
635,39089.132000,157.193,-46.591,95.256,385.089,-318.752,228.553,85.850,-141.370,70.070
636,39089.153000,179.150,-79.656,80.372,383.040,-326.318,229.323,76.850,-111.370,69.070
637,39089.193000,214.082,-62.622,75.411,387.133,-312.026,231.694,312.850,-242.370,-178.930
638,39089.233000,237.037,-45.589,74.419,388.043,-315.874,228.638,190.850,-341.370,-29.930
639,39089.273000,239.033,-76.650,71.442,392.067,-306.310,230.878,272.850,-149.370,95.070
640,39089.313000,231.049,-67.632,76.403,393.928,-311.930,231.708,263.850,-168.370,46.070
641,39089.353000,215.080,-65.628,78.388,395.018,-303.458,229.979,280.850,-212.370,108.070
642,39089.397000,232.047,-56.611,69.457,391.014,-311.998,230.718,230.850,-232.370,94.070
643,39089.437000,223.064,-55.609,60.527,398.930,-301.486,231.024,155.850,-208.370,3.070
644,39089.458000,219.072,-55.609,59.535,399.824,-306.305,226.957,138.850,-191.370,-91.930
645,39089.493000,231.049,-51.601,45.643,404.687,-305.344,225.024,115.850,-269.370,-104.930
646,39089.533000,249.014,-65.628,46.636,407.679,-299.655,224.204,119.850,-143.370,-180.930
647,39089.574000,244.023,-59.616,33.736,412.716,-287.240,226.525,128.850,37.630,-286.930
648,39089.618000,220.070,-35.569,38.698,416.696,-280.540,227.702,30.850,39.630,-316.930
649,39089.657000,233.045,-42.583,75.411,422.595,-275.650,230.799,-32.150,-118.370,-398.930
650,39089.697000,298.916,-41.581,60.527,428.488,-270.078,224.078,-53.150,-129.370,-354.930
651,39089.733000,246.020,-31.562,74.419,434.453,-260.486,226.322,126.850,71.630,-165.930
652,39089.752000,233.045,-40.579,59.535,434.416,-263.271,228.212,119.850,-82.370,0.070
653,39089.792000,282.947,-19.538,53.581,432.514,-260.488,227.303,136.850,-22.370,-101.930
654,39089.832000,258.994,-7.515,86.326,438.397,-256.570,229.389,28.850,146.630,-148.930
655,39089.874000,207.096,-13.526,60.527,431.600,-257.454,235.254,-18.150,218.630,-106.930
656,39089.914000,216.078,-5.511,55.566,435.591,-249.860,234.489,57.850,14.630,-131.930
657,39089.952000,258.994,-6.513,52.589,439.427,-253.482,238.329,-7.150,30.630,-130.930
658,39089.995000,273.965,-12.524,38.698,440.517,-245.011,236.599,24.850,98.630,-92.930
659,39090.44000,252.008,-12.524,63.504,439.482,-250.461,245.298,152.850,248.630,-30.930
660,39090.52000,250.012,-6.513,62.512,439.602,-242.764,250.430,147.850,208.630,-101.930
661,39090.93000,239.033,-4.509,56.558,435.795,-238.774,260.371,214.850,287.630,-100.930
662,39090.133000,226.058,6.513,76.403,430.091,-231.159,265.491,106.850,285.630,-121.930
663,39090.174000,224.062,-0.501,79.380,430.075,-232.893,271.345,60.850,272.630,-154.930
664,39090.214000,220.070,-10.521,94.264,431.168,-225.156,277.463,212.850,265.630,-146.930
665,39090.257000,233.045,-1.503,101.209,427.323,-223.188,282.430,196.850,150.630,-132.930
666,39090.297000,227.057,3.507,98.233,429.410,-213.599,286.634,151.850,199.630,-137.930
667,39090.343000,210.090,-3.507,101.209,430.517,-205.678,299.644,331.850,229.630,-269.930
668,39090.357000,206.097,4.509,85.333,429.703,-195.211,302.884,360.850,150.630,-205.930
669,39090.398000,188.133,3.507,84.341,428.715,-196.984,307.751,351.850,-8.370,26.070
670,39090.437000,192.125,30.560,74.419,428.857,-187.475,309.983,217.850,40.630,77.070
671,39090.473000,142.222,33.566,40.682,431.732,-190.218,311.879,124.850,-27.370,65.070
672,39090.513000,208.094,22.544,61.519,432.739,-186.659,303.127,-160.150,-364.370,296.070
673,39090.553000,306.901,-84.665,39.690,431.550,-201.015,296.824,-11.150,-175.370,191.070
674,39090.593000,329.856,-47.593,46.636,436.492,-194.432,293.081,188.850,-312.370,246.070
675,39090.633000,437.645,-44.587,18.853,437.440,-195.469,289.119,-68.150,-299.370,-8.930
676,39090.653000,380.756,-20.540,39.690,440.272,-200.314,283.088,-336.150,-44.370,-46.930
677,39090.694000,288.936,-18.536,66.481,439.254,-204.005,286.918,-103.150,32.630,119.070
678,39090.735000,228.055,16.532,79.380,428.494,-209.830,286.738,-42.150,157.630,218.070
679,39090.775000,172.164,5.511,78.388,432.300,-215.370,289.541,-26.150,114.630,198.070
680,39090.815000,177.154,-3.507,74.419,425.443,-220.115,292.348,-113.150,-87.370,88.070
681,39090.854000,206.097,-8.517,71.442,430.217,-224.145,280.441,-244.150,-279.370,79.070
682,39090.897000,253.006,-22.544,65.488,430.123,-229.977,274.377,-73.150,-231.370,131.070
683,39090.913000,225.060,2.505,70.450,431.082,-230.882,275.337,-90.150,-48.370,124.070
684,39090.953000,225.060,4.509,77.395,432.836,-243.254,271.061,-169.150,-177.370,-31.930
685,39090.993000,238.035,12.524,61.519,435.858,-234.886,264.414,-334.150,-102.370,-93.930
686,39091.33000,206.097,15.530,56.558,436.718,-241.676,257.341,-384.150,-31.370,-143.930
687,39091.78000,211.088,-24.548,42.667,442.567,-238.967,249.557,-449.150,-175.370,-94.930
688,39091.114000,237.037,-1.503,37.705,440.527,-244.879,241.521,-274.150,-242.370,47.070
689,39091.155000,218.074,7.515,37.705,442.399,-248.818,234.529,-413.150,-384.370,214.070
690,39091.197000,223.064,-26.552,67.473,442.157,-263.477,216.416,-395.150,-421.370,269.070
691,39091.217000,298.916,-58.614,73.426,444.074,-263.765,204.608,-249.150,-352.370,270.070
692,39091.264000,309.895,-38.575,59.535,441.930,-277.163,199.314,-210.150,-111.370,28.070
693,39091.298000,289.934,-22.544,66.481,442.042,-269.572,200.508,-73.150,29.630,-78.930
694,39091.338000,253.006,-1.503,53.581,439.016,-277.231,198.323,-336.150,200.630,12.070
695,39091.378000,219.072,-24.548,42.667,440.957,-277.203,198.327,-451.150,208.630,-14.930
696,39091.422000,233.045,-48.595,63.504,435.994,-284.837,198.106,-276.150,93.630,-3.930
697,39091.455000,271.969,-17.534,88.310,431.139,-284.932,197.112,-331.150,286.630,171.070
698,39091.498000,255.002,-30.560,52.589,426.189,-291.620,196.918,-552.150,395.630,159.070
699,39091.514000,207.096,-49.597,43.659,417.328,-300.281,195.678,-619.150,283.630,165.070
700,39091.555000,243.025,-60.618,40.682,417.119,-313.730,187.435,-588.150,155.630,146.070
701,39091.597000,261.988,-71.640,47.628,411.279,-314.785,186.412,-364.150,210.630,138.070
702,39091.644000,253.006,-70.638,33.736,408.312,-318.609,186.301,-163.150,297.630,195.070
703,39091.674000,235.041,-70.638,29.767,393.627,-328.113,191.913,-132.150,404.630,217.070
704,39091.714000,203.103,-68.634,81.364,392.645,-329.046,192.869,-109.150,277.630,118.070
705,39091.759000,217.076,-58.614,84.341,392.545,-336.480,197.581,-184.150,273.630,52.070
706,39091.798000,224.062,-66.630,87.318,386.707,-337.508,197.542,-196.150,293.630,-21.930
707,39091.818000,229.053,-88.673,102.202,387.645,-340.226,201.402,-190.150,323.630,-35.930
708,39091.859000,199.111,-74.646,81.364,384.719,-341.213,201.370,-264.150,320.630,10.070
709,39091.895000,175.158,-91.679,80.372,376.975,-340.272,205.318,131.850,200.630,13.070
710,39091.934000,200.109,-71.640,104.186,385.827,-332.504,208.499,-126.150,168.630,-91.930
711,39091.979000,195.119,-84.665,86.326,382.864,-336.275,210.357,22.850,181.630,-165.930
712,39092.17000,129.248,-58.614,63.504,384.022,-323.863,214.638,225.850,-46.370,3.070
713,39092.59000,289.934,-40.579,44.651,390.726,-328.784,203.693,203.850,-616.370,39.070
714,39092.89000,398.721,6.513,-49.612,392.765,-321.350,198.002,93.850,-621.370,37.070
715,39092.117000,365.786,12.524,-19.845,397.563,-325.063,197.906,337.850,124.630,-33.930
716,39092.155000,390.737,-18.536,31.752,395.646,-324.775,209.715,312.850,103.630,6.070
717,39092.194000,320.873,-31.562,41.674,390.875,-319.931,216.727,313.850,231.630,124.070
718,39092.234000,227.057,-37.573,59.535,387.983,-318.948,219.700,207.850,109.630,43.070
719,39092.275000,182.144,-26.552,86.326,392.880,-316.777,227.637,171.850,-137.370,94.070
720,39092.317000,171.166,-70.638,98.233,386.093,-316.007,224.697,157.850,-198.370,180.070
721,39092.357000,189.131,-87.671,113.116,388.930,-320.773,221.618,213.850,-229.370,177.070
722,39092.379000,227.057,-63.624,93.271,386.977,-321.720,222.572,288.850,-360.370,53.070
723,39092.414000,248.016,-51.601,90.295,392.913,-314.046,223.779,184.850,-289.370,-84.930
724,39092.458000,244.023,-70.638,56.558,390.913,-317.908,221.701,188.850,-170.370,-9.930
725,39092.499000,224.062,-72.642,61.519,395.835,-313.111,221.843,235.850,-198.370,42.070
726,39092.539000,225.060,-65.628,59.535,393.919,-311.274,220.907,382.850,-256.370,89.070
727,39092.575000,234.043,-50.599,48.620,393.941,-310.223,224.871,279.850,-227.370,28.070
728,39092.619000,235.041,-47.593,63.504,395.812,-314.950,223.759,214.850,-122.370,-28.930
729,39092.659000,196.117,-68.634,90.295,399.899,-301.498,230.041,165.850,-85.370,-40.930
730,39092.684000,195.119,-45.589,83.349,403.736,-303.571,221.138,134.850,-303.370,-120.930
731,39092.718000,228.055,-24.548,62.512,409.670,-295.924,221.360,-135.150,-50.370,-345.930
732,39092.758000,222.066,-72.642,22.822,412.635,-292.126,220.487,87.850,60.630,-476.930
733,39092.799000,265.980,-48.595,61.519,425.518,-273.167,216.118,-37.150,-471.370,-466.930
734,39092.838000,350.815,-18.536,60.527,438.040,-278.846,209.096,-118.150,-286.370,-163.930
735,39092.879000,253.006,-63.624,51.597,430.412,-269.500,209.343,38.850,306.630,25.070
736,39092.919000,190.129,-44.587,56.558,430.366,-273.938,220.040,71.850,267.630,7.070
737,39092.955000,222.066,-14.528,72.434,424.619,-269.187,224.096,242.850,50.630,-5.930
738,39092.975000,252.008,-7.515,72.434,433.280,-273.871,221.030,11.850,-105.370,7.070
739,39093.15000,249.014,-22.544,70.450,433.370,-267.330,218.261,-96.150,-140.370,-55.930
740,39093.57000,243.025,-34.568,65.488,433.364,-267.409,215.308,53.850,-132.370,-138.930
741,39093.97000,259.992,-13.526,64.496,432.466,-262.642,217.406,242.850,-164.370,-103.930
742,39093.137000,284.943,-15.530,60.527,440.267,-260.536,221.413,433.850,28.630,-75.930
743,39093.177000,255.002,-6.513,52.589,440.436,-249.897,230.561,372.850,230.630,-232.930
744,39093.217000,244.023,-1.503,40.682,440.560,-242.147,237.662,218.850,179.630,-214.930
745,39093.237000,220.070,-16.532,42.667,439.602,-242.003,243.566,256.850,252.630,-171.930
746,39093.277000,222.066,-12.524,66.481,443.644,-231.441,247.801,152.850,171.630,-30.930
747,39093.319000,238.035,-1.503,83.349,436.840,-233.191,256.594,188.850,213.630,10.070
748,39093.359000,251.010,-3.507,82.357,433.981,-230.238,262.573,290.850,195.630,-55.930
749,39093.400000,255.002,-3.507,87.318,435.011,-227.150,271.513,337.850,227.630,-76.930
750,39093.459000,234.043,-2.505,83.349,429.341,-217.566,279.639,333.850,285.630,-32.930
751,39093.477000,183.142,-1.503,87.318,429.314,-220.980,293.314,323.850,216.630,104.070
752,39093.515000,164.179,2.505,81.364,427.453,-215.360,292.484,334.850,-6.370,19.070
753,39093.535000,172.164,17.534,76.403,431.387,-211.575,290.628,309.850,-135.370,75.070
754,39093.575000,190.129,35.569,66.481,429.424,-213.415,293.525,134.850,-116.370,194.070
755,39093.620000,171.166,-5.511,55.566,428.443,-213.560,288.601,-52.150,-141.370,143.070
756,39093.655000,324.866,-57.613,28.775,438.177,-210.009,274.946,62.850,-647.370,-56.930
757,39093.695000,453.614,-50.599,-17.860,445.926,-210.109,267.087,-63.150,-495.370,-230.930
758,39093.749000,408.702,-19.538,-3.969,446.998,-202.636,263.362,-233.150,72.630,-44.930
759,39093.777000,332.850,-25.550,45.643,445.853,-214.890,264.987,-381.150,291.630,-16.930
760,39093.818000,258.994,-16.532,66.481,442.057,-209.219,267.105,-264.150,235.630,-10.930
761,39093.839000,227.057,-8.517,71.442,440.990,-216.613,273.783,-123.150,390.630,64.070
762,39093.879000,191.127,17.534,88.310,431.184,-224.184,278.474,-112.150,326.630,76.070
763,39093.919000,202.105,-1.503,81.364,427.319,-223.241,280.461,-135.150,126.630,43.070
764,39093.959000,223.064,-15.530,72.434,423.317,-231.754,282.185,-119.150,76.630,18.070
765,39093.999000,221.068,-7.515,63.504,429.150,-230.778,280.254,-215.150,78.630,-15.930
766,39094.39000,217.076,-18.536,77.395,424.254,-233.710,279.181,-159.150,31.630,-50.930
767,39094.80000,206.097,-7.515,76.403,421.326,-234.723,278.164,-129.150,8.630,11.070
768,39094.117000,226.058,15.530,69.457,426.185,-233.814,274.263,-295.150,-241.370,-205.930
769,39094.137000,246.020,11.523,70.450,435.942,-229.186,265.556,-269.150,-113.370,-205.930
770,39094.184000,217.076,-1.503,65.488,430.967,-237.739,266.293,-173.150,-46.370,26.070
771,39094.219000,207.096,-10.521,54.574,433.761,-244.607,255.287,-256.150,-198.370,94.070
772,39094.265000,192.125,13.526,50.605,441.429,-250.355,248.255,-177.150,-331.370,160.070
773,39094.302000,204.101,17.534,55.566,437.415,-258.264,237.209,-366.150,-450.370,431.070
774,39094.340000,256.000,-48.595,43.659,434.449,-260.539,224.354,-280.150,-601.370,390.070
775,39094.378000,295.922,-31.562,54.574,441.135,-266.459,211.413,-193.150,-382.370,35.070
776,39094.405000,318.877,-17.534,78.388,443.046,-267.588,203.516,-175.150,-212.370,-64.930
777,39094.442000,280.951,-19.538,60.527,442.080,-267.549,205.483,-150.150,152.630,18.070
778,39094.477000,220.070,-35.569,66.481,437.116,-275.183,205.262,-185.150,137.630,74.070
779,39094.517000,211.088,-23.546,67.473,434.226,-273.411,202.356,-220.150,54.630,99.070
780,39094.557000,234.043,-47.593,76.403,433.120,-282.855,203.075,-65.150,137.630,124.070
781,39094.597000,243.025,-37.573,80.372,433.179,-279.020,205.149,68.850,-119.370,106.070
782,39094.640000,280.951,-15.530,71.442,429.129,-290.449,203.840,-75.150,14.630,230.070
783,39094.677000,277.957,-44.587,19.845,421.383,-288.773,199.940,-279.150,188.630,244.070
784,39094.697000,236.039,-80.658,45.643,417.314,-301.988,202.516,-315.150,236.630,159.070
785,39094.742000,236.039,-72.642,39.690,412.492,-300.113,204.527,-142.150,183.630,115.070
786,39094.777000,233.045,-67.632,19.845,410.502,-303.844,207.371,122.850,226.630,178.070
787,39094.819000,213.084,-69.636,55.566,402.694,-307.578,213.156,102.850,193.630,178.070
788,39094.860000,224.062,-53.605,80.372,402.734,-305.529,219.114,178.850,139.630,127.070
789,39094.899000,250.012,-45.589,83.349,394.963,-306.479,223.009,-14.150,164.630,157.070
790,39094.937000,243.025,-73.644,85.333,392.963,-311.103,227.795,-16.150,296.630,76.070
791,39094.980000,217.076,-67.632,87.318,388.133,-310.095,232.733,-49.150,368.630,78.070
792,39094.998000,187.135,-56.611,91.287,387.053,-317.674,232.521,-39.150,308.630,129.070
793,39095.40000,188.133,-77.652,96.248,383.129,-321.327,239.298,-11.150,242.630,52.070
794,39095.80000,205.099,-59.616,69.457,377.374,-317.443,246.281,-243.150,602.630,57.070
795,39095.119000,146.214,-33.566,44.651,369.539,-323.069,252.013,20.850,350.630,269.070
796,39095.159000,103.298,-30.560,45.643,360.803,-323.192,251.995,-45.150,151.630,85.070
797,39095.199000,179.150,-43.585,41.674,372.432,-323.264,243.160,-144.150,-473.370,-368.930
798,39095.240000,397.723,-39.577,27.783,381.307,-312.896,237.562,296.850,-610.370,167.070
799,39095.287000,458.604,-40.579,24.806,377.303,-321.436,238.301,182.850,-330.370,219.070
800,39095.300000,416.686,-68.634,43.659,382.172,-320.395,239.322,443.850,-101.370,-60.930
801,39095.338000,298.916,-52.603,62.512,383.243,-313.709,241.477,291.850,-159.370,-75.930
802,39095.378000,176.156,-45.589,78.388,390.197,-303.106,245.718,350.850,-213.370,-40.930
803,39095.418000,127.251,-43.585,96.248,392.107,-305.022,243.701,229.850,-363.370,-21.930
804,39095.465000,199.111,-51.601,90.295,391.211,-299.467,239.919,177.850,-241.370,0.070
805,39095.499000,258.994,-63.624,65.488,394.036,-305.153,237.799,218.850,-257.370,-71.930
806,39095.539000,202.105,-46.591,46.636,400.972,-295.547,240.045,217.850,-240.370,19.070
807,39095.579000,232.047,-34.568,63.504,400.876,-302.167,239.860,-10.150,-231.370,-24.930
808,39095.599000,236.039,-62.622,56.558,404.892,-292.708,238.163,77.850,-108.370,-6.930
809,39095.647000,232.047,-67.632,66.481,402.927,-293.813,233.211,-32.150,-82.370,33.070
810,39095.687000,216.078,-58.614,68.465,403.836,-297.661,230.155,-83.150,-130.370,12.070
811,39095.719000,214.082,-59.616,52.589,405.701,-302.467,226.090,-62.150,-196.370,-53.930
812,39095.760000,234.043,-70.638,42.667,410.587,-299.666,222.241,-46.150,-209.370,-124.930
813,39095.802000,233.045,-56.611,41.674,414.574,-292.125,219.507,47.850,-194.370,-153.930
814,39095.842000,227.057,-55.609,50.605,419.447,-290.271,215.632,14.850,-49.370,-227.930
815,39095.889000,267.977,-37.573,56.558,420.547,-281.667,218.824,-7.150,21.630,-292.930
816,39095.898000,281.949,-35.569,75.411,417.673,-279.686,223.793,-92.150,246.630,-191.930
817,39095.938000,244.023,-30.560,54.574,417.689,-278.714,224.803,-232.150,266.630,12.070
818,39095.978000,221.068,-36.571,72.434,418.533,-287.237,223.584,-106.150,184.630,-52.930
819,39096.23000,243.025,-38.575,64.496,419.579,-282.416,226.671,-120.150,54.630,8.070
820,39096.58000,246.020,-41.581,55.566,418.561,-286.107,230.501,-77.150,81.630,42.070
821,39096.99000,241.029,-40.579,54.574,418.563,-285.319,224.621,-108.150,16.630,-8.930
822,39096.140000,231.049,-46.591,63.504,419.583,-281.602,221.775,7.850,-103.370,-82.930
823,39096.160000,238.035,-35.569,70.450,423.479,-280.601,221.810,91.850,-109.370,-85.930
824,39096.202000,265.980,-31.562,78.388,425.407,-281.519,221.788,122.850,-145.370,-124.930
825,39096.243000,276.959,-50.599,88.310,431.457,-266.228,225.174,348.850,-8.370,-364.930
826,39096.278000,250.012,-9.519,67.473,436.283,-268.812,231.995,364.850,292.630,-358.930
827,39096.323000,259.992,1.503,64.496,434.634,-249.690,241.377,268.850,199.630,-235.930
828,39096.363000,242.027,-11.523,32.744,436.643,-245.722,247.392,54.850,288.630,-331.930
829,39096.403000,219.072,-7.515,40.682,439.736,-234.122,255.589,65.850,258.630,-325.930
830,39096.443000,237.037,-16.532,52.589,441.608,-238.823,255.461,64.850,173.630,-134.930
831,39096.463000,227.057,-7.515,67.473,434.883,-234.952,262.443,130.850,142.630,-38.930
832,39096.503000,218.074,-5.511,76.403,437.875,-229.264,261.623,60.850,-171.370,59.070
833,39096.543000,240.031,-3.507,94.264,437.781,-235.857,262.423,274.850,-126.370,33.070
834,39096.584000,252.008,14.528,89.302,443.782,-223.507,261.793,233.850,-71.370,-94.930
835,39096.620000,220.070,-2.505,83.349,443.774,-224.374,264.719,331.850,15.630,-81.930
836,39096.662000,212.086,8.517,83.349,441.914,-219.515,270.753,292.850,30.630,-74.930
837,39096.703000,190.129,12.524,74.419,442.033,-211.057,269.021,120.850,16.630,-8.930
838,39096.742000,159.189,16.532,70.450,445.843,-215.783,266.929,139.850,-135.370,12.070
839,39096.762000,168.172,18.536,27.783,445.759,-221.483,265.787,-2.150,-330.370,121.070
840,39096.803000,253.006,-42.583,15.876,453.588,-215.175,250.238,34.850,-693.370,223.070
841,39096.843000,435.649,-95.687,-36.713,461.419,-208.840,235.673,60.850,-842.370,28.070
842,39096.879000,407.704,-24.548,-4.961,465.235,-212.726,229.670,7.850,-22.370,-20.930
843,39096.919000,374.768,-19.538,8.930,459.409,-212.835,228.673,-227.150,212.630,-30.930
844,39096.964000,312.889,-3.507,31.752,459.454,-210.707,237.585,-187.150,393.630,20.070
845,39097.2000,223.064,-0.501,49.612,455.352,-226.653,244.020,-87.150,415.630,113.070
846,39097.43000,177.154,2.505,62.512,446.729,-219.947,252.061,-59.150,358.630,138.070
847,39097.63000,194.121,-1.503,69.457,440.795,-227.594,251.838,-239.150,2.630,51.070
848,39097.99000,251.010,-11.523,62.512,450.480,-228.508,247.894,-295.150,-163.370,0.070
849,39097.139000,256.998,-3.507,46.636,446.491,-235.314,242.780,-183.150,76.630,-115.930
850,39097.179000,222.066,-13.526,67.473,445.632,-228.497,250.837,-117.150,206.630,-82.930
851,39097.219000,208.094,-17.534,63.504,445.672,-225.687,249.932,-50.150,0.630,-49.930
852,39097.259000,233.045,5.511,60.527,448.516,-229.586,243.927,-104.150,-205.370,-29.930
853,39097.307000,237.037,-5.511,57.550,451.346,-234.457,236.911,-95.150,-198.370,22.070
854,39097.342000,241.029,-1.503,51.597,451.355,-233.564,234.968,-96.150,-232.370,84.070
855,39097.360000,252.008,-1.503,37.705,450.282,-239.515,224.965,-158.150,-164.370,104.070
856,39097.402000,243.025,-5.511,39.690,449.280,-241.473,222.942,-141.150,-38.370,218.070
857,39097.442000,234.043,-13.526,37.705,450.056,-254.724,221.591,-81.150,-174.370,235.070
858,39097.484000,247.018,-1.503,53.581,447.148,-253.952,216.689,-139.150,-235.370,279.070
859,39097.520000,270.971,-21.542,59.535,443.029,-269.347,208.385,-218.150,-92.370,279.070
860,39097.563000,263.984,-24.548,59.535,440.160,-266.525,209.442,-85.150,36.630,156.070
861,39097.605000,244.023,-6.513,61.519,441.131,-266.512,209.445,-91.150,63.630,47.070
862,39097.643000,229.053,-25.550,50.605,435.275,-268.538,207.411,-223.150,-6.370,54.070
863,39097.664000,253.006,-43.585,58.543,435.228,-271.454,204.379,-144.150,-71.370,47.070
864,39097.704000,260.990,-43.585,64.496,432.243,-276.276,202.273,-70.150,33.630,134.070
865,39097.744000,258.994,-41.581,47.628,431.151,-284.774,203.018,-92.150,122.630,127.070
866,39097.782000,250.012,-56.611,45.643,427.261,-285.696,205.937,-135.150,107.630,183.070
867,39097.822000,267.977,-65.628,23.814,425.310,-286.616,207.875,-164.150,299.630,241.070
868,39097.862000,251.010,-59.616,15.876,408.699,-295.176,214.494,-7.150,469.630,353.070
869,39097.902000,223.064,-54.607,67.473,405.732,-299.761,221.247,-34.150,336.630,255.070
870,39097.922000,234.043,-38.575,59.535,399.773,-310.035,228.820,-84.150,353.630,151.070
871,39097.962000,225.060,-50.599,68.465,390.134,-306.232,234.811,-16.150,439.630,36.070
872,39098.3000,218.074,-65.628,90.295,388.079,-314.639,239.492,-118.150,328.630,7.070
873,39098.50000,239.033,-56.611,96.248,385.243,-309.847,243.555,-123.150,349.630,22.070
874,39098.83000,207.096,-59.616,102.202,381.322,-312.712,244.452,-141.150,377.630,77.070
875,39098.120000,164.179,-60.618,97.240,374.553,-311.705,250.371,-77.150,308.630,30.070
876,39098.163000,158.191,-61.620,96.248,372.474,-321.189,250.103,-112.150,185.630,-100.930
877,39098.203000,189.131,-75.648,93.271,373.618,-309.722,254.359,37.850,247.630,-220.930
878,39098.223000,126.253,-32.564,66.481,376.545,-308.709,255.375,-183.150,253.630,-104.930
879,39098.263000,96.312,-40.579,69.457,377.416,-315.367,253.224,-11.150,16.630,7.070
880,39098.303000,254.004,-59.616,66.481,383.338,-307.878,247.541,-209.150,-494.370,-185.930
881,39098.344000,487.548,-27.554,-16.868,381.286,-314.709,240.462,-106.150,-43.370,235.070
882,39098.384000,440.639,-68.634,41.674,379.419,-309.929,243.543,188.850,-18.370,1.070
883,39098.425000,452.616,-42.583,25.798,381.400,-307.091,242.642,227.850,24.630,37.070
884,39098.464000,265.980,-67.632,85.333,373.561,-313.531,253.269,21.850,192.630,53.070
885,39098.500000,124.257,-59.616,71.442,375.547,-309.852,248.457,37.850,-77.370,-10.930
886,39098.520000,93.318,-34.568,97.240,384.297,-308.783,248.501,169.850,-388.370,48.070
887,39098.578000,169.170,-64.626,92.279,382.269,-314.537,246.370,111.850,-392.370,140.070
888,39098.603000,236.039,-63.624,79.380,388.118,-311.828,238.587,78.850,-529.370,32.070
889,39098.645000,264.982,-57.613,62.512,389.090,-311.027,232.709,285.850,-443.370,34.070
890,39098.680000,249.014,-54.607,64.496,390.075,-310.067,232.737,77.850,-189.370,133.070
891,39098.733000,218.074,-39.577,59.535,388.117,-311.067,231.723,5.850,10.630,25.070
892,39098.762000,187.135,-71.640,81.364,390.090,-309.095,233.748,177.850,-153.370,15.070
893,39098.808000,199.111,-48.595,79.380,391.953,-313.928,228.699,27.850,-239.370,11.070
894,39098.823000,210.090,-54.607,63.504,395.888,-310.117,227.828,10.850,-127.370,-155.930
895,39098.863000,234.043,-57.613,54.574,401.748,-307.276,224.966,-49.150,-146.370,-314.930
896,39098.903000,240.031,-55.609,32.744,411.540,-300.651,220.248,1.850,-343.370,-298.930
897,39098.940000,218.074,-62.622,42.667,417.411,-296.891,216.428,19.850,-143.370,-320.930
898,39098.982000,229.053,-50.599,58.543,425.416,-279.865,212.981,213.850,-213.370,-432.930
899,39099.29000,297.918,-14.528,68.465,432.242,-277.064,208.152,-5.150,-326.370,-185.930
900,39099.63000,290.932,-43.585,29.767,435.199,-274.133,210.206,18.850,-120.370,36.070
901,39099.84000,243.025,-52.603,44.651,429.235,-283.698,208.946,74.850,17.630,65.070
902,39099.132000,267.977,-26.552,57.550,432.189,-280.820,209.031,60.850,-25.370,-63.930
903,39099.165000,260.990,-25.550,64.496,432.165,-282.658,210.948,184.850,144.630,-47.930
904,39099.205000,230.051,-19.538,79.380,433.338,-269.274,216.240,17.850,-90.370,-52.930
905,39099.244000,249.014,-6.513,56.558,437.158,-273.107,212.205,-1.150,-68.370,-90.930
906,39099.285000,246.020,-37.573,50.605,438.324,-260.589,220.424,226.850,237.630,-257.930
907,39099.327000,253.006,-17.534,76.403,438.349,-259.486,226.357,350.850,206.630,-210.930
908,39099.362000,252.008,-20.540,51.597,438.432,-254.573,233.379,266.850,201.630,-129.930
909,39099.382000,254.004,-26.552,50.605,439.519,-247.677,243.408,323.850,169.630,-130.930
910,39099.423000,245.021,-0.501,49.612,437.574,-248.518,248.300,198.850,262.630,-35.930
911,39099.464000,225.060,5.511,53.581,430.906,-240.839,256.371,82.850,331.630,28.070
912,39099.504000,218.074,-9.519,83.349,426.108,-237.887,263.330,132.850,296.630,66.070
913,39099.547000,245.021,3.507,83.349,429.961,-240.510,269.165,24.850,175.630,41.070
914,39099.582000,245.021,-7.515,72.434,423.092,-246.175,272.931,108.850,179.630,7.070
915,39099.623000,241.029,-10.521,80.372,423.214,-238.452,279.047,153.850,90.630,-65.930
916,39099.663000,217.076,-5.511,89.302,421.334,-234.618,282.102,171.850,35.630,-92.930
917,39099.683000,211.088,-6.513,84.341,422.415,-227.039,282.314,281.850,41.630,-78.930
918,39099.723000,214.082,-4.509,84.341,424.362,-226.933,285.271,323.850,13.630,-113.930
919,39099.762000,201.107,11.523,70.450,426.522,-212.563,291.576,167.850,258.630,-228.930
920,39099.802000,178.152,-16.532,77.395,428.459,-213.349,296.476,292.850,34.630,-97.930
921,39099.859000,271.969,-9.519,52.589,429.540,-205.009,289.824,-8.150,-346.370,110.070
922,39099.882000,327.860,-54.607,35.721,435.303,-208.788,286.778,25.850,-180.370,-68.930
923,39099.923000,323.867,-24.548,42.667,438.291,-203.152,283.989,21.850,-15.370,-58.930
924,39099.964000,298.916,-5.511,44.651,434.281,-211.771,281.775,-253.150,4.630,62.070
925,39099.992000,286.940,-21.542,39.690,434.249,-213.715,279.754,-448.150,99.630,16.070
926,39100.27000,270.971,-26.552,47.628,434.094,-224.169,277.496,-442.150,90.630,-22.930
927,39100.62000,251.010,-9.519,62.512,428.215,-228.034,277.378,-497.150,101.630,11.070
928,39100.107000,210.090,-6.513,91.287,431.032,-233.825,271.320,-240.150,168.630,-10.930
929,39100.142000,186.136,-2.505,92.279,427.154,-233.827,273.281,-168.150,126.630,56.070
930,39100.185000,200.109,-2.505,78.388,428.079,-236.703,271.235,-265.150,-193.370,55.070
931,39100.227000,265.980,-19.538,80.372,429.951,-240.642,264.244,-278.150,-234.370,-64.930
932,39100.267000,267.977,-15.530,60.527,432.879,-238.868,258.396,-136.150,-101.370,-112.930
933,39100.287000,226.058,-18.536,74.419,430.022,-235.126,258.496,64.850,-9.370,-53.930
934,39100.327000,223.064,-7.515,73.426,434.779,-241.677,258.321,62.850,-86.370,-3.930
935,39100.367000,232.047,-0.501,61.519,432.853,-240.733,259.328,21.850,-202.370,16.070
936,39100.407000,235.041,-0.501,48.620,439.628,-240.900,249.499,-83.150,-242.370,48.070
937,39100.447000,211.088,6.513,46.636,436.635,-245.827,243.455,-59.150,-206.370,148.070
938,39100.487000,205.099,14.528,44.651,439.440,-251.775,231.491,-154.150,-564.370,364.070
939,39100.527000,219.072,-3.507,28.775,438.328,-260.537,222.393,-202.150,-664.370,451.070
940,39100.565000,288.936,-32.564,54.574,442.111,-265.605,207.504,-217.150,-500.370,384.070
941,39100.587000,309.895,-44.587,25.798,434.132,-280.005,203.156,-173.150,-51.370,216.070
942,39100.627000,240.031,-43.585,69.457,436.100,-278.086,203.212,-25.150,38.630,89.070
943,39100.667000,252.008,-26.552,66.481,435.067,-281.987,199.168,49.850,-96.370,26.070
944,39100.703000,266.979,-20.540,40.682,438.065,-276.220,201.300,-25.150,30.630,-30.930
945,39100.744000,237.037,-27.554,57.550,433.104,-283.827,202.064,-224.150,230.630,-59.930
946,39100.784000,227.057,-40.579,74.419,434.159,-278.875,210.072,-65.150,195.630,-106.930
947,39100.833000,240.031,-23.546,78.388,432.257,-276.092,209.163,-21.150,63.630,-35.930
948,39100.867000,251.010,-24.548,68.465,432.269,-275.172,208.205,-129.150,55.630,35.070
949,39100.887000,238.035,-36.571,54.574,431.163,-283.855,202.060,-239.150,105.630,55.070
950,39100.922000,232.047,-44.587,40.682,431.192,-281.937,203.097,-232.150,83.630,32.070
951,39100.963000,254.004,-33.566,65.488,426.223,-289.650,199.923,-249.150,48.630,29.070
952,39101.3000,279.953,-36.571,61.519,423.240,-294.446,198.801,-387.150,167.630,250.070
953,39101.43000,259.992,-65.628,8.930,415.312,-305.877,199.454,-413.150,431.630,291.070
954,39101.83000,195.119,-74.646,47.628,408.535,-304.975,201.435,-132.150,117.630,193.070
955,39101.137000,248.016,-49.597,46.636,408.378,-315.456,198.192,-190.150,-0.370,171.070
956,39101.145000,242.027,-68.634,49.612,404.479,-316.483,197.173,-137.150,241.630,111.070
957,39101.185000,215.080,-67.632,76.403,400.613,-316.327,205.040,-37.150,304.630,63.070
958,39101.224000,227.057,-60.618,85.333,395.748,-317.315,205.988,-76.150,302.630,42.070
959,39101.265000,216.078,-65.628,87.318,394.764,-319.036,212.824,-120.150,398.630,29.070
960,39101.303000,166.175,-79.656,84.341,385.007,-323.665,221.531,92.850,510.630,65.070
961,39101.348000,119.267,-47.593,48.620,382.136,-321.630,228.468,44.850,355.630,185.070
962,39101.387000,130.246,-39.577,57.550,380.063,-330.274,224.290,-303.150,-95.370,99.070
963,39101.427000,225.060,-66.630,80.372,388.791,-329.494,213.506,-315.150,-280.370,-242.930
964,39101.447000,221.068,-46.591,89.302,388.893,-322.796,216.644,7.850,187.630,-202.930
965,39101.487000,256.998,24.548,89.302,390.765,-325.974,202.788,-766.150,-440.370,-246.930
966,39101.534000,462.596,-32.564,-24.806,403.327,-325.771,168.388,-977.150,-1070.370,-224.930
967,39101.568000,482.557,-38.575,-37.705,407.270,-321.854,171.455,35.850,634.630,-8.930
968,39101.607000,361.793,-85.667,24.806,397.452,-331.106,183.968,57.850,617.630,9.070
969,39101.648000,238.035,-68.634,70.450,394.712,-320.482,194.095,296.850,480.630,-76.930
970,39101.689000,147.212,-55.609,87.318,393.702,-324.067,201.862,182.850,40.630,-67.930
971,39101.723000,136.234,-59.616,84.341,395.675,-322.096,203.888,242.850,-143.370,-14.930
972,39101.744000,185.138,-63.624,83.349,400.544,-321.055,204.908,240.850,-284.370,81.070
973,39101.785000,227.057,-63.624,69.457,396.620,-323.947,204.821,235.850,-294.370,54.070
974,39101.833000,218.074,-65.628,71.442,400.532,-321.975,205.866,318.850,-101.370,15.070
975,39101.867000,218.074,-43.585,70.450,398.760,-310.602,208.147,264.850,-109.370,13.070
976,39101.907000,234.043,-43.585,59.535,404.515,-315.248,208.027,180.850,-177.370,-19.930
977,39101.947000,228.055,-57.613,69.457,405.616,-306.644,211.219,197.850,-41.370,2.070
978,39101.987000,201.107,-67.632,71.442,403.678,-306.619,213.184,251.850,-140.370,97.070
979,39102.25000,221.068,-63.624,63.504,406.565,-307.681,207.258,318.850,-321.370,23.070
980,39102.47000,242.027,-52.603,47.628,408.604,-301.008,208.430,289.850,-350.370,-75.930
981,39102.88000,249.014,-54.607,39.690,415.458,-297.077,210.518,362.850,-235.370,-104.930
982,39102.128000,255.002,-63.624,24.806,414.538,-293.361,208.653,319.850,-168.370,-100.930
983,39102.168000,245.021,-43.585,39.690,418.476,-290.284,215.630,145.850,115.630,-178.930
984,39102.209000,240.031,-27.554,59.535,419.579,-281.655,219.807,231.850,160.630,-169.930
985,39102.248000,256.000,-34.568,80.372,419.563,-283.388,225.660,280.850,-15.370,-64.930
986,39102.288000,260.990,-43.585,55.566,419.601,-281.365,230.635,231.850,167.630,65.070
987,39102.328000,227.057,-42.583,71.442,416.701,-281.248,236.535,358.850,112.630,9.070
988,39102.348000,215.080,-32.564,65.488,416.827,-273.473,244.620,430.850,-30.370,-29.930
989,39102.388000,251.010,-25.550,72.434,415.876,-272.462,247.597,400.850,-98.370,69.070
990,39102.434000,243.025,-26.552,71.442,419.939,-260.087,248.932,397.850,-34.370,6.070
991,39102.464000,230.051,-21.542,80.372,421.842,-263.632,256.705,418.850,-93.370,-11.930
992,39102.510000,255.002,-16.532,73.426,425.874,-253.201,256.019,279.850,-135.370,46.070
993,39102.547000,249.014,-16.532,69.457,425.870,-254.015,260.914,264.850,-5.370,-30.930
994,39102.585000,238.035,-14.528,64.496,430.869,-244.385,265.125,210.850,-126.370,-103.930
995,39102.608000,239.033,-20.540,59.535,427.063,-238.845,262.322,289.850,-102.370,-99.930
996,39102.644000,242.027,-12.524,57.550,430.963,-237.791,264.325,212.850,-97.370,-23.930
997,39102.688000,247.018,-16.532,53.581,430.981,-236.032,259.456,23.850,-142.370,27.070
998,39102.724000,252.008,-17.534,58.543,431.882,-240.746,259.326,-15.150,-110.370,-0.930
999,39102.764000,244.023,-18.536,61.519,437.759,-236.908,258.459,130.850,-119.370,-10.930
1000,39102.809000,247.018,-14.528,41.674,439.708,-236.013,255.536,112.850,-117.370,-0.930
1001,39102.850000,252.008,-8.517,42.667,441.713,-232.098,259.583,198.850,-89.370,-7.930
1002,39102.886000,250.012,-0.501,46.636,436.824,-234.163,255.583,139.850,-63.370,-5.930
1003,39102.907000,250.012,-3.507,47.628,440.781,-229.301,258.676,104.850,-45.370,12.070
1004,39102.947000,247.018,-6.513,47.628,438.793,-232.245,255.640,87.850,-28.370,17.070
1005,39102.987000,243.025,-4.509,56.558,437.836,-232.074,262.528,127.850,-42.370,41.070
1006,39103.27000,242.027,-2.505,54.574,439.730,-234.962,259.500,105.850,-45.370,60.070
1007,39103.65000,253.006,-3.507,56.558,439.716,-235.908,259.474,59.850,-43.370,86.070
1008,39103.105000,236.039,-2.505,58.543,438.793,-233.006,262.504,83.850,-1.370,77.070
1009,39103.145000,238.035,-2.505,62.512,438.828,-230.248,259.630,3.850,-70.370,89.070
1010,39103.187000,248.016,-6.513,55.566,437.781,-235.095,255.559,24.850,-77.370,101.070
1011,39103.207000,251.010,-6.513,52.589,436.849,-232.298,254.651,50.850,-18.370,128.070
1012,39103.247000,235.041,-2.505,58.543,434.839,-237.054,254.516,18.850,-61.370,157.070
1013,39103.288000,247.018,-6.513,59.535,434.841,-237.028,255.500,20.850,-58.370,195.070
1014,39103.328000,254.004,-25.550,73.426,433.768,-243.740,252.361,123.850,-50.370,126.070
1015,39103.369000,246.020,-21.542,69.457,431.002,-234.220,256.555,184.850,-68.370,52.070
1016,39103.409000,237.037,-37.573,58.543,432.916,-236.083,256.507,136.850,-54.370,70.070
1017,39103.450000,229.053,-39.577,49.612,426.078,-239.043,255.429,255.850,-32.370,76.070
1018,39103.493000,238.035,-38.575,54.574,430.043,-234.075,262.459,263.850,-87.370,106.070
1019,39103.507000,269.973,-47.593,56.558,428.129,-231.450,255.644,146.850,-126.370,26.070
1020,39103.547000,277.957,-45.589,50.605,434.934,-231.222,260.580,89.850,-5.370,-114.930
1021,39103.588000,248.016,-33.566,38.698,433.961,-231.262,259.593,-95.150,48.630,35.070
1022,39103.627000,239.033,-49.597,32.744,432.998,-230.410,256.665,-144.150,-120.370,160.070
1023,39103.707000,259.992,-61.620,19.845,429.880,-243.874,249.400,-168.150,-127.370,174.070
1024,39103.732000,249.014,-60.618,22.822,427.964,-242.036,248.464,-157.150,4.630,211.070
1025,39103.748000,237.037,-67.632,31.752,426.868,-250.587,247.241,-129.150,12.630,234.070
1026,39103.766000,234.043,-56.611,30.760,423.942,-251.574,247.208,-151.150,24.630,198.070
1027,39103.807000,244.023,-51.601,28.775,418.910,-263.936,246.856,-244.150,43.630,106.070
1028,39103.847000,248.016,-57.613,28.775,414.980,-266.907,243.816,-343.150,102.630,41.070
1029,39103.887000,244.023,-58.614,38.698,417.854,-268.889,238.847,-303.150,188.630,9.070
1030,39103.927000,244.023,-55.609,33.736,412.967,-270.928,235.832,-347.150,194.630,-13.930
1031,39103.968000,246.020,-51.601,42.667,412.883,-276.628,234.689,-444.150,171.630,-66.930
1032,39104.8000,248.016,-52.603,45.643,414.857,-273.869,230.835,-507.150,228.630,-88.930
