Sample, Time, ACCX, ACCY, ACCZ, MAGX, MAGY, MAGZ, GYRX, GYRY, GYRZ
0,38992.20000,223.570,59.231,101.376,361.682,-41.642,417.154,-134.780,5.400,48.940
1,38992.60000,224.553,54.212,99.328,362.710,-36.055,421.253,-172.780,-11.600,43.940
2,38992.75000,218.656,57.224,99.328,359.796,-41.589,421.131,-159.780,-21.600,41.940
3,38992.115000,221.605,55.216,98.304,362.690,-37.049,417.253,-95.780,-22.600,25.940
4,38992.155000,222.587,64.251,102.400,364.542,-39.812,415.208,-21.780,-21.600,9.940
5,38992.195000,224.553,60.235,102.400,363.537,-44.366,417.098,-1.780,-14.600,11.940
6,38992.241000,225.536,61.239,101.376,365.501,-38.883,415.229,7.220,-21.600,6.940
7,38992.276000,223.570,62.243,97.280,365.499,-38.902,414.234,21.220,-38.600,20.940
8,38992.296000,215.708,61.239,104.448,365.403,-46.192,416.068,66.220,-4.600,59.940
9,38992.335000,220.622,68.267,104.448,368.254,-45.239,416.092,74.220,-11.600,36.940
10,38992.386000,222.587,68.267,100.352,363.574,-41.617,417.157,64.220,-4.600,35.940
11,38992.417000,222.587,69.271,100.352,366.452,-38.812,418.216,29.220,3.400,34.940
12,38992.457000,219.639,71.278,103.424,365.503,-38.863,416.224,-18.780,-2.600,11.940
13,38992.500000,216.691,65.255,106.496,364.492,-43.476,415.130,-36.780,-6.600,5.940
14,38992.535000,216.691,63.247,109.568,365.487,-39.819,414.214,11.220,-1.600,3.940
15,38992.561000,218.656,56.220,106.496,365.503,-38.863,416.224,31.220,-28.600,-0.060
16,38992.596000,218.656,59.231,103.424,364.515,-41.663,414.174,81.220,-59.600,5.940
17,38992.640000,217.674,61.239,101.376,364.589,-36.186,413.296,129.220,-72.600,-0.060
18,38992.675000,223.570,63.247,101.376,369.335,-35.188,414.318,61.220,-50.600,-4.060
19,38992.715000,227.501,61.239,95.232,366.428,-39.865,411.231,55.220,-61.600,11.940
20,38992.765000,227.501,55.216,93.184,371.221,-35.241,410.342,-35.780,-38.600,16.940
21,38992.775000,223.570,50.196,98.304,366.391,-42.613,411.172,-63.780,-21.600,23.940
22,38992.815000,231.432,50.196,103.424,371.974,-49.029,407.065,-93.780,-45.600,-11.060
23,38992.860000,230.449,45.176,101.376,365.489,-39.020,408.263,-128.780,-54.600,-0.060
24,38992.900000,240.276,39.153,105.472,371.075,-45.416,405.152,-119.780,-48.600,34.940
25,38992.941000,232.415,38.149,99.328,373.005,-42.643,405.214,-71.780,-90.600,25.940
26,38992.981000,226.518,41.161,98.304,376.632,-53.684,400.011,-64.780,-87.600,27.940
27,38992.996000,212.760,33.129,90.112,377.594,-52.716,402.022,-36.780,-101.600,19.940
28,38993.36000,219.639,29.114,96.256,375.725,-50.928,401.063,-38.780,-10.600,19.940
29,38993.84000,219.639,22.086,104.448,375.712,-51.845,401.043,44.220,59.400,22.940
30,38993.118000,248.138,26.102,116.736,371.928,-51.875,402.031,225.220,172.400,-50.060
31,38993.156000,236.345,44.173,101.376,367.460,-33.459,410.374,476.220,117.400,-147.060
32,38993.200000,222.587,67.263,97.280,368.612,-18.730,413.673,571.220,165.400,-252.060
33,38993.241000,215.708,75.294,90.112,364.961,-9.501,419.832,654.220,111.400,-207.060
34,38993.256000,213.743,84.329,99.328,370.814,3.400,420.115,378.220,-12.600,-219.060
35,38993.300000,216.691,89.349,98.304,369.093,16.162,418.395,232.220,-111.600,-173.060
36,38993.336000,215.708,82.322,97.280,374.774,17.036,412.454,217.220,-169.600,-112.060
37,38993.382000,213.743,90.353,95.232,373.862,19.732,410.521,186.220,-174.600,-103.060
38,38993.419000,213.743,97.380,81.920,380.559,25.297,409.655,245.220,-211.600,-100.060
39,38993.457000,214.726,97.380,77.824,388.310,39.061,405.980,310.220,-211.600,-67.060
40,38993.478000,219.639,104.408,67.584,390.154,36.201,398.960,212.220,-204.600,-30.060
41,38993.519000,220.622,105.412,65.536,393.014,38.032,397.014,97.220,-164.600,37.940
42,38993.560000,222.587,106.416,62.464,398.661,36.197,393.004,-39.780,-166.600,71.940
43,38993.611000,226.518,107.420,65.536,398.707,39.822,391.092,-63.780,-139.600,132.940
44,38993.637000,229.466,90.353,57.344,402.452,37.085,389.050,-79.780,-149.600,165.940
45,38993.678000,223.570,97.380,64.512,404.303,34.322,387.005,-92.780,-88.600,181.940
46,38993.698000,228.484,96.376,60.416,406.059,24.270,386.794,-21.780,-57.600,211.940
47,38993.737000,226.518,93.365,60.416,408.850,21.442,380.770,-37.780,-87.600,204.940
48,38993.777000,227.501,92.361,60.416,408.788,16.861,380.672,-141.780,-92.600,203.940
49,38993.816000,233.397,79.310,55.296,408.587,2.203,380.360,-105.780,-123.600,249.940
50,38993.867000,230.449,76.298,53.248,414.273,3.136,377.404,-204.780,-146.600,172.940
51,38993.900000,227.501,79.310,57.344,413.170,-7.949,373.188,-187.780,-115.600,163.940
52,38993.938000,230.449,74.290,64.512,413.107,-12.529,373.091,-178.780,-85.600,168.940
53,38993.958000,229.466,78.306,66.560,414.952,-15.370,367.065,-237.780,-38.600,116.940
54,38993.998000,234.380,73.286,62.464,411.995,-24.490,370.845,-219.780,-53.600,119.940
55,38994.39000,240.276,62.243,53.248,416.623,-31.796,368.707,-247.780,-94.600,106.940
56,38994.78000,240.276,62.243,57.344,414.535,-45.661,363.436,-422.780,-75.600,44.940
57,38994.117000,228.484,62.243,73.728,408.824,-47.666,358.412,-346.780,-79.600,70.940
58,38994.158000,216.691,49.192,78.848,414.436,-52.210,356.334,-288.780,-9.600,108.940
59,38994.178000,230.449,42.165,80.896,414.346,-59.422,362.148,-217.780,27.400,155.940
60,38994.218000,243.225,34.133,83.968,409.508,-66.892,358.003,-168.780,62.400,165.940
61,38994.258000,262.879,18.071,87.040,406.609,-71.471,359.891,-131.780,21.400,197.940
62,38994.301000,253.052,8.031,79.872,405.571,-77.955,356.768,-143.780,-84.600,261.940
63,38994.341000,248.138,11.043,72.704,405.339,-94.523,352.436,-145.780,-152.600,272.940
64,38994.381000,232.415,10.039,65.536,410.006,-99.061,351.352,-193.780,-187.600,232.940
65,38994.401000,231.432,9.035,69.632,408.027,-104.719,344.266,-162.780,-95.600,248.940
66,38994.441000,239.294,3.012,73.728,407.960,-110.119,349.124,-76.780,100.400,315.940
67,38994.481000,248.138,3.012,73.728,402.164,-119.277,352.899,157.220,179.400,353.940
68,38994.521000,243.225,4.016,74.752,399.410,-113.701,358.982,198.220,186.400,233.940
69,38994.573000,239.294,17.067,69.632,391.841,-113.781,359.963,264.220,172.400,128.940
70,38994.601000,242.242,12.047,69.632,390.916,-112.780,364.956,150.220,131.400,40.940
71,38994.641000,245.190,13.051,73.728,385.296,-109.093,370.000,80.220,122.400,-45.060
72,38994.661000,236.345,24.094,79.872,383.390,-110.053,368.982,21.220,81.400,-91.060
73,38994.701000,237.328,36.141,83.968,384.341,-109.982,371.969,-72.780,30.400,-90.060
74,38994.741000,235.363,38.149,80.896,383.404,-109.118,369.996,-72.780,6.400,-116.060
75,38994.781000,242.242,26.102,78.848,388.146,-108.159,369.029,-35.780,-41.600,-142.060
76,38994.820000,237.328,19.075,83.968,387.211,-107.275,368.052,18.220,-17.600,-187.060
77,38994.860000,241.259,26.102,83.968,392.053,-98.986,367.241,-22.780,-3.600,-215.060
78,38994.880000,242.242,23.090,86.016,391.062,-102.605,370.146,14.220,20.400,-98.060
79,38994.921000,238.311,22.086,78.848,392.044,-99.863,369.212,-45.780,2.400,-51.060
80,38994.962000,237.328,30.118,74.752,391.176,-94.340,371.317,-0.780,-34.600,31.940
81,38995.1000,233.397,37.145,81.920,388.194,-104.514,368.112,-99.780,1.400,57.940
82,38995.41000,238.311,42.165,78.848,390.060,-106.340,367.082,-51.780,-2.600,35.940
83,38995.81000,240.276,35.137,79.872,387.246,-104.546,367.116,-70.780,-19.600,-9.060
84,38995.101000,237.328,33.129,80.896,390.110,-102.676,367.160,-63.780,23.400,-42.060
85,38995.153000,237.328,33.129,79.872,385.316,-107.319,367.054,-75.780,58.400,-61.060
86,38995.181000,237.328,29.114,79.872,386.293,-105.416,370.080,-109.780,94.400,-32.060
87,38995.221000,236.345,30.118,78.848,388.174,-106.287,371.058,-49.780,53.400,-27.060
88,38995.261000,237.328,28.110,80.896,386.330,-102.667,370.138,-67.780,37.400,-4.060
89,38995.301000,236.345,28.110,82.944,388.198,-104.475,370.102,-73.780,13.400,5.940
90,38995.337000,235.363,26.102,86.016,386.221,-110.873,371.953,-13.780,-2.600,18.940
91,38995.357000,237.328,26.102,87.040,384.423,-103.628,369.120,13.220,-9.600,20.940
92,38995.397000,233.397,30.118,84.992,384.377,-107.253,371.032,18.220,-22.600,-9.060
93,38995.440000,236.345,32.125,83.968,386.299,-105.338,374.060,29.220,-30.600,-15.060
94,38995.480000,237.328,30.118,82.944,391.010,-106.289,369.073,-9.780,-22.600,-14.060
95,38995.520000,239.294,27.106,81.920,386.252,-108.203,368.031,-13.780,-27.600,-43.060
96,38995.561000,240.276,27.106,80.896,388.190,-105.332,373.068,-67.780,-24.600,-53.060
97,38995.581000,232.415,26.102,78.848,390.039,-108.134,369.033,-72.780,3.400,-58.060
98,38995.627000,236.345,30.118,80.896,386.302,-104.539,368.109,-90.780,43.400,-85.060
99,38995.662000,232.415,27.106,77.824,391.983,-104.425,370.109,-67.780,9.400,-45.060
100,38995.702000,239.294,34.133,84.992,391.087,-100.773,370.185,-43.780,-7.600,-57.060
101,38995.742000,235.363,35.137,82.944,388.159,-107.243,369.049,-69.780,-33.600,-58.060
102,38995.782000,236.345,32.125,80.896,391.016,-105.451,365.113,-5.780,-44.600,-55.060
103,38995.802000,236.345,32.125,80.896,391.937,-107.271,365.075,6.220,-61.600,-67.060
104,38995.841000,238.311,31.122,81.920,392.971,-100.845,365.214,24.220,-55.600,-59.060
105,38995.881000,237.328,34.133,82.944,390.093,-103.651,364.155,43.220,-28.600,-62.060
106,38995.921000,236.345,37.145,78.848,395.746,-105.408,364.126,-36.780,-10.600,-54.060
107,38995.961000,235.363,36.141,78.848,394.898,-98.111,363.285,-28.780,3.400,-49.060
108,38996.1000,235.363,37.145,79.872,395.758,-104.492,364.145,-10.780,28.400,-42.060
109,38996.42000,235.363,37.145,79.872,392.012,-101.774,365.192,11.220,22.400,-28.060
110,38996.62000,235.363,41.161,80.896,390.085,-104.508,367.121,39.220,21.400,-27.060
111,38996.107000,235.363,40.157,80.896,393.997,-95.277,368.317,48.220,-0.600,-9.060
112,38996.142000,234.380,37.145,80.896,389.291,-93.508,368.348,61.220,19.400,12.940
113,38996.181000,239.294,40.157,81.920,393.062,-94.393,367.340,38.220,22.400,-8.060
114,38996.223000,232.415,41.161,81.920,392.962,-101.722,367.184,51.220,21.400,8.940
115,38996.260000,236.345,40.157,81.920,393.985,-96.193,368.298,34.220,28.400,12.940
116,38996.280000,234.380,41.161,83.968,394.984,-92.477,370.368,13.220,28.400,18.940
117,38996.320000,235.363,37.145,81.920,390.162,-98.992,368.233,19.220,30.400,30.940
118,38996.358000,235.363,37.145,80.896,393.067,-94.335,370.325,12.220,10.400,20.940
119,38996.400000,236.345,37.145,82.944,390.153,-99.869,370.203,-4.780,14.400,19.940
120,38996.440000,237.328,35.137,80.896,391.098,-99.876,369.210,8.220,-6.600,22.940
121,38996.480000,236.345,36.141,82.944,390.255,-92.520,371.354,19.220,3.400,12.940
122,38996.500000,236.345,37.145,81.920,390.115,-102.617,370.145,23.220,8.400,13.940
123,38996.540000,235.363,38.149,83.968,388.390,-90.674,373.380,29.220,15.400,9.940
124,38996.580000,235.363,37.145,83.968,388.321,-95.333,369.302,19.220,31.400,2.940
125,38996.620000,239.294,32.125,79.872,388.335,-94.397,370.317,35.220,24.400,1.940
126,38996.658000,234.380,37.145,89.088,384.544,-95.285,374.271,35.220,47.400,11.940
127,38996.698000,235.363,38.149,82.944,388.394,-90.635,375.370,68.220,7.400,-2.060
128,38996.742000,234.380,35.137,82.944,388.364,-92.526,372.346,59.220,-2.600,5.940
129,38996.763000,233.397,35.137,84.992,384.528,-96.240,372.261,67.220,9.400,8.940
130,38996.803000,237.328,40.157,83.968,383.621,-93.485,373.313,59.220,19.400,-4.060
131,38996.843000,233.397,39.153,83.968,386.440,-95.221,376.265,61.220,19.400,4.940
132,38996.885000,233.397,41.161,83.968,385.646,-84.221,377.492,56.220,6.400,4.940
133,38996.925000,235.363,38.149,81.920,387.465,-89.673,378.373,45.220,16.400,11.940
134,38996.960000,236.345,40.157,82.944,387.529,-85.073,379.466,34.220,22.400,9.940
135,38996.980000,234.380,39.153,83.968,383.681,-89.703,379.362,13.220,18.400,13.940
136,38997.20000,234.380,38.149,81.920,381.849,-85.167,378.461,-7.780,9.400,12.940
137,38997.60000,234.380,37.145,82.944,379.848,-93.398,380.272,-14.780,15.400,13.940
138,38997.105000,233.397,38.149,81.920,386.519,-89.685,378.372,-19.780,27.400,-3.060
139,38997.147000,232.415,38.149,86.016,381.770,-91.483,383.300,-42.780,43.400,5.940
140,38997.182000,234.380,37.145,86.016,386.511,-90.543,381.337,-26.780,25.400,9.940
141,38997.202000,233.397,37.145,86.016,383.717,-86.974,378.425,-30.780,28.400,4.940
142,38997.242000,232.415,35.137,86.016,381.724,-94.328,378.266,-32.780,34.400,-4.060
143,38997.283000,233.397,35.137,88.064,382.643,-96.947,384.179,-22.780,39.400,-12.060
144,38997.323000,233.397,34.133,89.088,381.701,-96.141,379.222,-14.780,34.400,-14.060
145,38997.363000,231.432,36.141,83.968,376.053,-94.325,382.236,3.220,22.400,-22.060
146,38997.403000,232.415,36.141,88.064,381.822,-87.798,384.373,23.220,16.400,-18.060
147,38997.423000,228.484,39.153,88.064,379.853,-93.340,383.257,63.220,-23.600,-9.060
148,38997.463000,233.397,40.157,87.040,380.883,-86.953,381.405,50.220,-47.600,-16.060
149,38997.503000,233.397,41.161,86.016,383.636,-93.309,382.269,35.220,-41.600,-16.060
150,38997.542000,231.432,38.149,88.064,381.872,-84.134,384.451,37.220,-24.600,-20.060
151,38997.582000,234.380,40.157,89.088,381.880,-83.276,381.485,14.220,-18.600,-21.060
152,38997.621000,235.363,37.145,87.040,382.842,-82.309,383.496,7.220,17.400,-11.060
153,38997.662000,234.380,41.161,87.040,380.937,-83.250,383.474,3.220,30.400,-22.060
154,38997.682000,235.363,38.149,86.016,379.974,-84.217,381.462,4.220,41.400,-15.060
155,38997.722000,233.397,39.153,89.088,378.054,-86.874,387.371,2.220,53.400,-18.060
156,38997.762000,233.397,37.145,89.088,377.087,-87.900,382.374,23.220,39.400,-21.060
157,38997.801000,232.415,41.161,90.112,376.219,-82.377,384.480,30.220,27.400,-24.060
158,38997.841000,232.415,38.149,86.016,377.153,-83.280,384.462,35.220,12.400,-25.060
159,38997.881000,231.432,40.157,87.040,380.069,-77.726,385.579,29.220,8.400,-29.060
160,38997.901000,235.363,43.169,88.064,374.292,-85.111,386.408,23.220,8.400,-34.060
161,38997.941000,231.432,43.169,86.016,381.913,-81.346,386.499,25.220,5.400,-26.060
162,38997.981000,233.397,41.161,89.088,377.285,-74.041,388.637,9.220,11.400,-27.060
163,38998.21000,231.432,41.161,88.064,379.136,-76.803,386.592,-6.780,6.400,-33.060
164,38998.61000,233.397,42.165,89.088,378.206,-75.861,388.600,-4.780,2.400,-43.060
165,38998.101000,236.345,41.161,91.136,382.027,-73.082,387.670,9.220,16.400,-41.060
166,38998.121000,230.449,42.165,93.184,379.152,-75.848,388.602,8.220,36.400,-43.060
167,38998.162000,229.466,46.180,84.992,378.188,-77.615,392.541,94.220,-8.600,-45.060
168,38998.202000,228.484,45.176,82.944,383.027,-69.366,389.740,71.220,-23.600,-58.060
169,38998.242000,230.449,47.184,93.184,378.292,-69.467,387.742,11.220,-5.600,-80.060
170,38998.281000,245.190,43.169,92.160,380.189,-69.384,390.730,72.220,37.400,-64.060
171,38998.321000,235.363,42.165,75.776,381.180,-66.545,394.771,165.220,24.400,-39.060
172,38998.361000,230.449,51.200,72.704,378.388,-62.957,392.853,226.220,39.400,-71.060
173,38998.381000,227.501,63.247,80.896,376.580,-57.368,398.938,337.220,83.400,-51.060
174,38998.421000,224.553,73.286,80.896,378.598,-48.182,399.136,361.220,96.400,-51.060
175,38998.461000,230.449,90.353,76.800,375.903,-38.063,403.326,241.220,54.400,-85.060
176,38998.502000,227.501,91.357,65.536,375.962,-33.522,401.433,76.220,30.400,-85.060
177,38998.541000,236.345,74.290,71.680,376.882,-35.361,400.401,-85.780,5.400,-37.060
178,38998.581000,225.536,80.314,66.560,372.107,-39.010,404.295,-85.780,1.400,-10.060
179,38998.606000,233.397,87.341,33.792,373.084,-36.327,400.375,-89.780,-74.600,-29.060
180,38998.642000,229.466,86.337,43.008,370.143,-43.713,399.219,-142.780,-1.600,-36.060
181,38998.682000,209.812,78.306,71.680,365.470,-40.014,404.264,38.220,174.400,41.940
182,38998.740000,212.760,75.294,73.728,363.581,-40.000,406.250,71.220,192.400,184.940
183,38998.770000,179.347,69.271,80.896,356.888,-45.506,410.102,337.220,176.400,201.940
184,38998.805000,238.311,132.518,89.088,351.286,-40.084,410.209,343.220,199.400,37.940
185,38998.825000,240.276,130.510,86.016,346.595,-37.359,412.249,-5.780,-59.600,-63.060
186,38998.865000,229.466,124.486,90.112,349.440,-36.484,408.294,-170.780,-170.600,-51.060
187,38998.905000,265.827,91.357,82.944,348.388,-43.884,405.151,-545.780,-225.600,51.940
188,38998.945000,266.810,18.071,118.784,352.861,-62.242,399.793,-504.780,-101.600,263.940
189,38998.985000,238.311,26.102,148.480,347.134,-65.981,399.705,-290.780,40.400,243.940
190,38999.21000,250.104,8.031,120.832,341.326,-75.276,396.515,-172.780,-65.600,131.940
191,38999.68000,224.553,2.008,107.520,342.208,-79.864,395.424,-171.780,-87.600,78.940
192,38999.81000,224.553,-8.031,102.400,339.297,-85.359,397.292,-173.780,-36.600,116.940
193,38999.122000,222.587,-3.012,94.208,342.103,-87.251,392.283,-202.780,-86.600,54.940
194,38999.163000,222.587,-10.039,93.184,341.080,-92.780,391.169,-208.780,-18.600,85.940
195,38999.203000,224.553,-25.098,83.968,339.011,-105.650,389.897,-197.780,-53.600,119.940
196,38999.247000,224.553,-25.098,88.064,336.111,-110.249,390.790,-172.780,26.400,111.940
197,38999.286000,216.691,-21.082,106.496,335.122,-113.069,387.744,-119.780,94.400,97.940
198,38999.301000,215.708,-15.059,103.424,333.274,-110.267,391.780,-35.780,34.400,-8.060
199,38999.346000,212.760,-8.031,121.856,330.354,-116.639,395.618,-80.780,117.400,-39.060
200,38999.386000,211.777,-29.114,124.928,329.462,-112.169,390.739,-134.780,37.400,-54.060
201,38999.431000,225.536,-30.118,125.952,333.170,-117.635,389.634,-120.780,-31.600,-44.060
202,38999.465000,247.155,-22.086,129.024,334.145,-115.751,391.664,-109.780,-62.600,-50.060
203,38999.503000,252.069,-9.035,123.904,332.299,-112.151,389.749,22.220,-86.600,-120.060
204,38999.522000,244.207,9.035,122.880,339.921,-108.367,390.836,108.220,-76.600,-169.060
205,38999.566000,210.795,39.153,102.400,339.007,-105.690,387.907,137.220,-39.600,-253.060
206,38999.602000,237.328,45.176,75.776,345.766,-95.564,386.143,49.220,-63.600,-212.060
207,38999.643000,246.173,51.200,97.280,346.719,-95.473,390.125,-191.780,70.400,-249.060
208,38999.683000,235.363,49.192,112.640,341.901,-101.929,390.975,-82.780,62.400,-181.060
209,38999.723000,232.415,48.188,95.232,344.860,-92.789,388.190,-122.780,27.400,-198.060
210,38999.743000,224.553,49.192,91.136,348.561,-99.113,390.051,-165.780,-8.600,-211.060
211,38999.786000,219.639,53.208,87.040,351.508,-90.888,387.246,-217.780,-52.600,-277.060
212,38999.822000,203.916,53.208,87.040,352.482,-89.005,389.277,-275.780,-104.600,-273.060
213,38999.862000,211.777,71.278,82.944,359.882,-100.912,384.061,-323.780,-105.600,-264.060
214,38999.903000,220.622,43.169,75.776,361.844,-95.449,381.197,-449.780,-162.600,-116.060
215,38999.942000,216.691,41.161,75.776,365.506,-103.780,374.062,-461.780,-105.600,-70.060
216,38999.985000,224.553,50.196,72.704,368.149,-117.582,368.799,-514.780,-78.600,4.940
217,39000.21000,221.605,36.141,74.752,365.291,-118.614,364.794,-414.780,-87.600,103.940
218,39000.43000,247.155,26.102,74.752,364.055,-139.717,363.349,-595.780,21.400,118.940
219,39000.87000,266.810,22.086,82.944,362.977,-148.969,359.172,-541.780,25.400,160.940
220,39000.130000,264.845,27.106,98.304,363.759,-160.886,357.925,-296.780,40.400,168.940
221,39000.163000,244.207,30.118,115.712,358.987,-163.736,355.868,-366.780,35.400,134.940
222,39000.203000,225.536,27.106,121.856,358.818,-175.724,351.634,-307.780,-72.600,153.940
223,39000.225000,231.432,13.051,118.784,360.746,-172.970,350.701,-317.780,-94.600,52.940
224,39000.263000,250.104,40.157,166.912,365.399,-178.443,348.602,-333.780,37.400,-155.060
225,39000.303000,214.726,27.106,164.864,364.426,-180.307,347.566,-260.780,19.400,-166.060
226,39000.343000,245.190,58.227,113.664,367.284,-178.516,343.630,-146.780,-187.600,-302.060
227,39000.383000,217.674,50.196,114.688,375.810,-176.747,334.728,-186.780,-207.600,-217.060
228,39000.425000,210.795,33.129,109.568,377.701,-176.741,333.737,-137.780,-118.600,-57.060
229,39000.443000,228.484,15.059,89.088,375.744,-181.366,332.641,-174.780,-59.600,37.940
230,39000.483000,213.743,11.043,88.064,375.674,-186.804,335.509,92.220,44.400,123.940
231,39000.523000,211.777,16.063,88.064,378.592,-181.231,337.621,261.220,67.400,162.940
232,39000.565000,215.708,12.047,83.968,372.890,-183.898,345.513,284.220,9.400,141.940
233,39000.603000,222.587,7.027,100.352,373.839,-183.847,347.504,252.220,89.400,112.940
234,39000.645000,215.708,1.004,103.424,371.170,-171.897,351.733,385.220,74.400,150.940
235,39000.686000,210.795,-7.027,95.232,370.210,-173.605,358.658,566.220,82.400,193.940
236,39000.706000,199.985,-7.027,94.208,365.683,-159.730,368.893,703.220,167.400,201.940
237,39000.746000,130.211,-11.043,45.056,360.229,-144.094,376.180,1194.220,20.400,206.940
238,39000.786000,253.052,81.318,91.136,354.754,-130.252,385.418,1425.220,195.400,80.940
239,39000.828000,272.706,176.690,114.688,356.211,-94.237,400.112,1721.220,0.400,9.940
240,39000.863000,272.706,188.737,125.952,360.248,-75.844,401.504,848.220,-77.600,-81.060
241,39000.906000,321.843,197.773,128.000,359.437,-65.799,400.722,544.220,-103.600,39.940
242,39000.926000,255.017,139.545,76.800,363.321,-58.439,399.890,393.220,-250.600,283.940
243,39000.966000,207.846,121.475,64.512,365.115,-65.724,400.732,249.220,-103.600,406.940
244,39001.6000,175.417,108.424,52.224,363.188,-68.458,402.660,140.220,-47.600,399.940
245,39001.46000,173.451,82.322,65.536,363.146,-71.265,399.617,34.220,52.400,327.940
246,39001.86000,197.036,63.247,65.536,356.461,-75.914,400.502,356.220,-10.600,347.940
247,39001.126000,249.121,14.055,96.256,355.549,-73.977,406.510,202.220,53.400,335.940
248,39001.146000,268.775,29.114,133.120,349.783,-80.485,405.368,95.220,261.400,207.940
249,39001.186000,286.464,-8.031,84.992,346.029,-78.624,409.381,64.220,30.400,271.940
250,39001.231000,246.173,-2.008,80.896,340.217,-88.738,411.146,-170.780,111.400,173.940
251,39001.263000,201.950,-13.051,61.440,341.181,-87.751,414.153,-9.780,100.400,202.940
252,39001.306000,193.106,-10.039,58.368,332.608,-92.366,418.020,98.220,115.400,180.940
253,39001.346000,200.967,8.031,63.488,330.820,-85.003,421.158,441.220,182.400,145.940
254,39001.396000,218.656,3.012,63.488,326.201,-76.820,421.326,556.220,210.400,187.940
255,39001.405000,222.587,24.094,113.664,314.853,-77.652,433.227,474.220,362.400,146.940
256,39001.446000,254.035,31.122,92.160,310.371,-60.172,440.555,741.220,252.400,150.940
257,39001.483000,233.397,30.118,77.824,305.793,-49.202,442.771,723.220,201.400,144.940
258,39001.528000,231.432,27.106,67.584,298.432,-34.526,449.040,654.220,169.400,129.940
259,39001.568000,237.328,32.125,52.224,295.704,-26.338,448.216,671.220,90.400,86.940
260,39001.608000,221.605,44.173,66.560,292.052,-17.129,453.379,693.220,169.400,102.940
261,39001.628000,268.775,45.176,72.704,278.966,-5.395,453.610,434.220,140.400,-17.060
262,39001.667000,253.052,37.145,99.328,280.041,3.818,455.797,259.220,67.400,-15.060
263,39001.705000,263.862,59.231,125.952,276.418,15.678,456.044,376.220,101.400,-166.060
264,39001.745000,242.242,42.165,136.192,278.345,18.412,454.116,202.220,-89.600,-82.060
265,39001.783000,218.656,9.035,165.888,279.348,22.167,458.175,1.220,61.400,-59.060
266,39001.825000,220.622,51.200,161.792,270.866,24.764,456.229,322.220,85.400,-141.060
267,39001.845000,217.674,85.333,160.768,267.234,35.747,458.447,391.220,189.400,-66.060
268,39001.885000,241.259,55.216,146.432,265.394,39.426,460.511,251.220,125.400,85.940
269,39001.925000,208.829,38.149,113.664,265.399,39.484,463.497,-16.780,-70.600,133.940
270,39001.965000,203.916,39.153,88.064,267.301,40.386,461.529,57.220,-96.600,138.940
271,39002.5000,216.691,42.165,92.160,268.196,36.715,460.458,156.220,-2.600,107.940
272,39002.45000,193.106,40.157,108.544,264.519,44.091,465.583,262.220,121.400,67.940
273,39002.86000,212.760,48.188,116.736,262.648,45.860,463.628,264.220,152.400,40.940
274,39002.107000,205.881,64.251,101.376,261.802,53.176,463.783,85.220,81.400,-71.060
275,39002.147000,211.777,69.271,94.208,258.889,47.661,464.656,-94.780,5.400,-160.060
276,39002.187000,205.881,64.251,90.112,258.872,46.687,461.651,-216.780,-118.600,-203.060
277,39002.227000,217.674,65.255,96.256,256.913,42.042,459.560,-343.780,-89.600,-187.060
278,39002.267000,206.864,66.259,92.160,264.462,40.349,461.524,-413.780,-158.600,-206.060
279,39002.310000,203.916,76.298,83.968,267.232,35.727,457.452,-508.780,-175.600,-285.060
280,39002.325000,188.192,76.298,83.968,271.769,21.970,453.187,-619.780,-207.600,-282.060
281,39002.365000,170.503,45.176,65.536,273.544,13.691,450.029,-865.780,-295.600,-270.060
282,39002.406000,203.916,35.137,75.776,279.796,-12.906,443.505,-1087.780,-77.600,-271.060
283,39002.446000,279.585,-13.051,133.120,282.405,-29.418,440.173,-1052.780,-94.600,-63.060
284,39002.490000,267.793,-30.118,147.456,284.118,-42.277,436.918,-708.780,-66.600,19.940
285,39002.525000,281.551,-28.110,146.432,281.049,-58.864,433.577,-432.780,33.400,-42.060
286,39002.551000,249.121,-21.082,135.168,279.209,-55.185,435.642,-278.780,-0.600,-76.060
287,39002.593000,206.864,-20.078,109.568,285.734,-61.647,428.551,-300.780,-188.600,-129.060
288,39002.627000,203.916,-17.067,113.664,289.447,-66.295,422.490,-353.780,-227.600,-220.060
289,39002.665000,207.846,-26.102,118.784,295.945,-75.388,421.311,-391.780,-233.600,-178.060
290,39002.706000,236.345,-29.114,114.688,301.605,-76.288,418.317,-444.780,-245.600,-164.060
291,39002.746000,254.035,-21.082,112.640,306.176,-87.336,412.121,-405.780,-242.600,-221.060
292,39002.788000,246.173,-10.039,104.448,316.643,-82.676,409.251,-176.780,-204.600,-245.060
293,39002.808000,234.380,28.110,91.136,320.408,-83.640,404.263,-42.780,-123.600,-280.060
294,39002.850000,225.536,39.153,76.800,324.307,-75.325,405.441,96.220,-77.600,-225.060
295,39002.890000,233.397,44.173,77.824,327.198,-71.604,406.519,18.220,-27.600,-289.060
296,39002.930000,241.259,63.247,77.824,329.115,-69.747,406.561,137.220,52.400,-313.060
297,39002.970000,246.173,73.286,82.944,332.134,-56.825,409.824,117.220,69.400,-294.060
298,39003.10000,240.276,86.337,75.776,329.335,-54.094,410.873,44.220,55.400,-316.060
299,39003.28000,228.484,79.310,75.776,327.556,-45.854,412.040,-41.780,65.400,-290.060
300,39003.70000,204.898,60.235,81.920,326.640,-43.976,415.063,-196.780,37.400,-218.060
301,39003.108000,205.881,67.263,81.920,329.480,-43.919,416.063,-284.780,96.400,-256.060
302,39003.153000,201.950,76.298,94.208,328.432,-51.280,414.910,-294.780,58.400,-207.060
303,39003.187000,202.933,70.275,84.992,328.332,-58.609,414.754,-278.780,-77.600,-118.060
304,39003.227000,204.898,65.255,96.256,329.150,-67.797,412.570,-555.780,-47.600,-92.060
305,39003.247000,221.605,66.259,102.400,330.073,-68.837,405.587,-666.780,-92.600,-62.060
306,39003.287000,223.570,53.208,98.304,333.742,-77.072,403.428,-541.780,-159.600,20.940
307,39003.327000,218.656,44.173,90.112,339.158,-95.456,396.082,-625.780,-171.600,91.940
308,39003.367000,242.242,40.157,88.064,337.980,-112.037,391.749,-693.780,-151.600,122.940
309,39003.408000,255.017,35.137,93.184,340.679,-121.336,382.603,-496.780,-240.600,191.940
310,39003.446000,244.207,32.125,93.184,343.331,-134.261,375.370,-633.780,-278.600,183.940
311,39003.490000,234.380,35.137,118.784,344.962,-152.696,368.018,-709.780,-308.600,199.940
312,39003.508000,222.587,24.094,126.976,350.511,-161.061,357.901,-590.780,-329.600,182.940
313,39003.547000,222.587,22.086,147.456,354.084,-175.806,350.630,-443.780,-121.600,108.940
314,39003.586000,219.639,33.129,168.960,355.012,-176.787,346.632,-405.780,59.400,-67.060
315,39003.628000,208.829,19.075,116.736,356.892,-177.678,346.616,-193.780,-98.600,-66.060
316,39003.668000,219.639,7.027,119.808,354.892,-185.111,342.476,-227.780,-46.600,-170.060
317,39003.708000,227.501,8.031,109.568,361.617,-177.694,342.644,-127.780,-34.600,-192.060
318,39003.728000,183.278,-10.039,100.352,362.524,-180.449,341.592,77.220,7.400,-140.060
319,39003.768000,225.536,15.059,101.376,361.723,-170.287,346.781,184.220,178.400,-264.060
320,39003.807000,216.691,14.055,103.424,365.571,-165.656,346.885,308.220,70.400,-157.060
321,39003.853000,221.605,30.118,125.952,366.620,-159.055,355.979,317.220,114.400,-155.060
322,39003.888000,229.466,40.157,117.760,369.667,-144.262,361.271,349.220,88.400,-183.060
323,39003.931000,216.691,44.173,136.192,368.815,-137.783,365.386,434.220,97.400,-97.060
324,39003.950000,206.864,38.149,122.880,368.013,-127.640,369.579,653.220,66.400,66.940
325,39003.986000,208.829,37.145,108.544,369.172,-112.814,377.854,823.220,3.400,190.940
326,39004.26000,225.536,35.137,77.824,365.473,-106.470,376.989,826.220,12.400,265.940
327,39004.72000,246.173,57.224,71.680,363.710,-97.275,380.166,918.220,65.400,282.940
328,39004.106000,265.827,88.345,70.656,365.903,-76.803,395.524,981.220,143.400,180.940
329,39004.146000,257.965,117.459,74.752,363.185,-68.497,400.670,890.220,105.400,53.940
330,39004.187000,241.259,98.384,89.088,360.597,-50.972,408.996,601.220,208.400,35.940
331,39004.207000,224.553,93.365,91.136,357.861,-43.642,411.138,483.220,214.400,121.940
332,39004.248000,208.829,78.306,75.776,355.972,-43.628,413.124,351.220,138.400,163.940
333,39004.290000,191.140,79.310,58.368,355.147,-35.297,418.274,170.220,118.400,121.940
334,39004.330000,233.397,81.318,77.824,349.475,-35.294,422.244,67.220,189.400,160.940
335,39004.366000,234.380,67.263,78.848,349.413,-39.875,422.146,211.220,128.400,234.940
336,39004.410000,219.639,67.263,63.488,345.672,-37.099,426.178,247.220,58.400,271.940
337,39004.430000,213.743,51.200,58.368,345.648,-38.911,427.134,67.220,58.400,358.940
338,39004.468000,231.432,49.192,74.752,341.729,-49.000,428.903,-162.780,140.400,304.940
339,39004.508000,230.449,51.200,98.304,336.952,-52.668,431.802,245.220,208.400,334.940
340,39004.550000,231.432,54.212,80.896,331.294,-51.749,435.792,336.220,151.400,357.940
341,39004.606000,235.363,38.149,108.544,327.442,-57.198,440.643,123.220,193.400,274.940
342,39004.627000,224.553,31.122,113.664,324.581,-59.029,442.589,1.220,94.400,150.940
343,39004.652000,223.570,34.133,114.688,322.665,-60.867,443.542,249.220,-47.600,92.940
344,39004.692000,222.587,30.118,107.520,324.740,-47.158,440.853,237.220,-142.600,-73.060
345,39004.743000,229.466,33.129,97.280,333.277,-45.272,437.922,326.220,-168.600,-19.060
346,39004.772000,229.466,30.118,89.088,334.272,-41.615,437.007,329.220,-156.600,-5.060
347,39004.812000,239.294,38.149,89.088,334.420,-30.640,436.246,244.220,-78.600,14.940
348,39004.852000,248.138,56.220,93.184,333.588,-22.388,437.415,264.220,-51.600,18.940
349,39004.892000,238.311,63.247,94.208,338.402,-15.971,434.574,407.220,-24.600,65.940
350,39004.907000,240.276,64.251,83.968,337.503,-13.118,440.602,341.220,5.400,100.940
351,39004.947000,230.449,49.192,67.584,339.464,-7.675,436.742,199.220,-79.600,124.940
352,39004.987000,221.605,49.192,72.704,339.350,-15.939,435.571,-4.780,-96.600,52.940
353,39005.35000,229.466,58.227,68.608,344.183,-8.528,436.731,7.220,-76.600,22.940
354,39005.77000,232.415,51.200,70.656,342.186,-15.941,433.586,130.220,-74.600,80.940
355,39005.110000,228.484,60.235,69.632,343.229,-8.638,431.754,137.220,-58.600,-0.060
356,39005.142000,219.639,76.298,50.176,342.277,-8.709,428.767,171.220,-55.600,-44.060
357,39005.167000,232.415,76.298,57.344,342.329,-5.025,429.840,111.220,-0.600,-94.060
358,39005.207000,220.622,82.322,65.536,341.508,4.123,430.034,48.220,-7.600,-71.060
359,39005.251000,215.708,93.365,52.224,342.413,1.349,427.987,159.220,-40.600,-45.060
360,39005.287000,229.466,110.431,41.984,336.675,-3.288,428.874,-9.780,-59.600,-119.060
361,39005.327000,238.311,113.443,51.200,339.630,5.814,424.099,-95.780,-26.600,-140.060
362,39005.347000,245.190,133.522,67.584,344.374,6.792,424.127,-31.780,-7.600,-81.060
363,39005.387000,255.017,132.518,77.824,337.568,-6.979,426.808,-378.780,49.400,86.940
364,39005.427000,234.380,92.361,77.824,331.824,-11.673,424.710,-401.780,70.400,235.940
365,39005.468000,244.207,40.157,104.448,326.808,-32.768,426.243,-389.780,123.400,398.940
366,39005.510000,226.518,23.090,123.904,321.029,-40.191,425.082,-209.780,133.400,337.940
367,39005.550000,236.345,8.031,134.144,319.068,-45.635,428.941,-348.780,188.400,307.940
368,39005.590000,260.914,-14.055,147.456,310.401,-56.741,428.692,-248.780,171.400,151.940
369,39005.618000,231.432,-6.024,140.288,304.615,-65.003,431.492,-247.780,185.400,45.940
370,39005.648000,233.397,-38.149,126.976,301.597,-77.925,428.228,-359.780,134.400,86.940
371,39005.688000,211.777,-17.067,113.664,299.715,-77.053,427.249,-247.780,101.400,20.940
372,39005.728000,190.157,-13.051,101.376,295.920,-77.980,429.213,-88.780,67.400,21.940
373,39005.768000,226.518,-22.086,90.112,296.768,-85.277,430.054,-87.780,48.400,50.940
374,39005.815000,237.328,-22.086,94.208,291.135,-81.746,427.137,-115.780,-55.600,80.940
375,39005.828000,221.605,-3.012,102.400,291.962,-90.837,429.928,-291.780,80.400,58.940
376,39005.868000,229.466,-26.102,105.472,288.999,-100.016,430.723,-215.780,24.400,98.940
377,39005.908000,199.002,-20.078,96.256,287.962,-106.481,428.595,-214.780,23.400,76.940
378,39005.951000,224.553,-30.118,117.760,287.014,-106.513,427.598,-163.780,119.400,97.940
379,39005.991000,223.570,-28.110,114.688,282.288,-106.517,430.575,155.220,21.400,76.940
380,39006.31000,224.553,-17.067,105.472,285.119,-107.337,433.546,184.220,65.400,69.940
381,39006.50000,240.276,8.031,115.712,283.286,-102.820,431.650,185.220,-2.600,82.940
382,39006.90000,235.363,-5.020,100.352,285.188,-101.918,429.683,131.220,-106.600,66.940
383,39006.131000,210.795,22.086,88.064,284.348,-94.523,433.817,69.220,-105.600,20.940
384,39006.171000,231.432,24.094,105.472,284.246,-101.872,432.666,-113.780,-68.600,-79.060
385,39006.213000,233.397,19.075,115.712,286.129,-101.964,426.699,-198.780,-5.600,-55.060
386,39006.250000,222.587,-13.051,113.664,285.209,-100.125,427.732,-146.780,115.400,-185.060
387,39006.291000,232.415,2.008,111.616,285.263,-96.421,429.800,60.220,142.400,-261.060
388,39006.310000,230.449,30.118,108.544,281.495,-95.496,432.798,171.220,127.400,-260.060
389,39006.348000,221.605,20.078,97.280,282.546,-88.096,435.941,-8.780,89.400,-325.060
390,39006.413000,240.276,28.110,106.496,278.845,-81.772,434.081,-71.780,77.400,-277.060
391,39006.428000,240.276,23.090,114.688,279.640,-92.773,432.853,-353.780,-76.600,-212.060
392,39006.468000,221.605,2.008,117.760,288.086,-97.339,427.795,-323.780,-130.600,-145.060
393,39006.510000,216.691,9.035,120.832,288.968,-101.926,426.704,-468.780,-133.600,-221.060
394,39006.530000,218.656,-2.008,123.904,296.514,-102.879,419.733,-443.780,-108.600,-305.060
395,39006.570000,222.587,-11.043,117.760,297.473,-101.951,419.754,-282.780,-146.600,-291.060
396,39006.611000,221.605,-6.024,117.760,301.206,-105.585,418.687,-273.780,-124.600,-270.060
397,39006.653000,213.743,-16.063,114.688,309.722,-104.712,410.761,-90.780,-156.600,-244.060
398,39006.688000,217.674,-9.035,115.712,313.545,-101.914,410.827,16.220,-81.600,-273.060
399,39006.728000,242.242,32.125,122.880,311.761,-94.512,415.955,122.220,41.400,-251.060
400,39006.755000,227.501,59.231,93.184,312.720,-93.583,415.976,92.220,64.400,-255.060
401,39006.788000,231.432,78.306,83.968,316.557,-89.849,417.056,-161.780,97.400,-411.060
402,39006.833000,243.225,76.298,97.280,310.923,-87.098,421.084,-719.780,384.400,-546.060
403,39006.873000,246.173,54.212,118.784,308.941,-93.555,419.949,-883.780,488.400,-609.060
404,39006.915000,233.397,39.153,134.144,298.318,-110.047,426.545,-843.780,528.400,-531.060
405,39006.948000,210.795,17.067,120.832,299.327,-105.453,426.644,-514.780,306.400,-697.060
406,39006.992000,199.985,36.141,121.856,297.386,-109.123,427.558,-342.780,263.400,-588.060
407,39007.13000,185.244,52.204,131.072,296.579,-99.039,428.766,-193.780,67.400,-516.060
408,39007.48000,188.192,74.290,128.000,297.465,-103.588,429.665,-228.780,-11.600,-511.060
409,39007.93000,203.916,74.290,125.952,305.103,-98.069,425.815,-330.780,-31.600,-462.060
410,39007.132000,206.864,74.290,124.928,306.971,-99.876,425.780,-483.780,-46.600,-415.060
411,39007.172000,208.829,75.294,118.784,308.814,-102.736,418.759,-658.780,-65.600,-386.060
412,39007.213000,219.639,67.263,114.688,311.484,-114.686,414.530,-728.780,-46.600,-335.060
413,39007.233000,201.950,56.220,100.352,315.127,-124.772,411.337,-728.780,-22.600,-215.060
414,39007.273000,211.777,53.208,116.736,314.031,-134.999,404.155,-902.780,31.400,-118.060
415,39007.316000,219.639,52.204,129.024,312.741,-159.825,399.646,-1122.780,103.400,40.940
416,39007.350000,209.812,51.200,124.928,315.326,-177.389,389.330,-1116.780,21.400,18.940
417,39007.390000,218.656,59.231,166.912,309.336,-199.588,381.886,-860.780,86.400,19.940
418,39007.436000,220.622,25.098,187.392,308.281,-207.027,376.753,-828.780,-11.600,-26.060
419,39007.450000,163.624,29.114,203.776,310.957,-218.140,368.564,-678.780,3.400,10.940
420,39007.490000,158.710,12.047,214.016,309.847,-229.302,360.367,-617.780,-20.600,-47.060
421,39007.531000,187.209,27.106,208.896,317.288,-238.422,357.200,-413.780,-68.600,-207.060
422,39007.571000,206.864,38.149,204.800,319.215,-234.908,348.326,-215.780,-149.600,-270.060
423,39007.612000,192.123,11.043,184.320,327.711,-235.809,343.346,-280.780,-269.600,-128.060
424,39007.652000,212.760,-1.004,154.624,328.649,-235.894,338.373,-242.780,-281.600,-63.060
425,39007.700000,196.054,22.086,141.312,337.160,-235.860,334.408,55.220,-263.600,-107.060
426,39007.710000,195.071,15.059,145.408,338.999,-239.538,332.343,40.220,-119.600,-107.060
427,39007.755000,193.106,17.067,142.336,342.875,-233.036,334.476,-11.780,-5.600,-97.060
428,39007.792000,188.192,15.059,143.360,343.696,-242.185,334.283,19.220,60.400,-21.060
429,39007.835000,195.071,9.035,153.600,340.028,-233.931,337.437,139.220,85.400,49.940
430,39007.871000,192.123,8.031,155.648,338.233,-227.426,343.540,293.220,82.400,120.940
431,39007.911000,189.175,8.031,164.864,340.106,-229.175,346.490,460.220,76.400,164.940
432,39007.931000,186.226,9.035,165.888,336.452,-220.765,357.604,505.220,62.400,221.940
433,39007.971000,195.071,2.008,175.104,331.757,-218.859,364.601,539.220,34.400,284.940
434,39008.11000,189.175,-2.008,167.936,329.992,-209.683,366.783,694.220,-72.600,383.940
435,39008.58000,183.278,-2.008,148.480,328.256,-199.416,377.939,736.220,-144.600,398.940
436,39008.92000,203.916,-2.008,144.384,328.325,-194.757,382.017,835.220,-130.600,404.940
437,39008.132000,210.795,8.031,140.288,325.635,-184.581,389.192,991.220,-97.600,371.940
438,39008.152000,215.708,28.110,134.144,326.773,-171.547,399.418,1104.220,-54.600,322.940
439,39008.192000,211.777,38.149,132.096,323.237,-154.054,406.747,1117.220,-53.600,298.940
440,39008.232000,214.726,26.102,125.952,325.332,-140.112,415.999,1302.220,-130.600,215.940
441,39008.272000,218.656,72.282,111.616,330.575,-103.267,423.753,1478.220,-81.600,140.940
442,39008.312000,217.674,93.365,108.544,328.012,-83.910,432.119,1427.220,-56.600,190.940
443,39008.352000,230.449,98.384,116.736,335.050,-54.350,440.715,1301.220,-13.600,176.940
444,39008.392000,210.795,109.427,110.592,330.573,-36.031,444.082,1105.220,37.400,241.940
445,39008.412000,195.071,120.471,86.016,332.580,-27.741,445.256,853.220,24.400,205.940
446,39008.452000,200.967,112.439,82.944,332.833,-9.380,447.637,647.220,-26.600,207.940
447,39008.492000,203.916,97.380,93.184,333.839,-4.826,445.746,573.220,-36.600,167.940
448,39008.532000,207.846,107.420,89.088,331.102,2.485,446.892,606.220,-21.600,107.940
449,39008.572000,214.726,114.447,88.064,330.327,15.260,445.174,485.220,-18.600,71.940
450,39008.612000,214.726,114.447,101.376,337.067,23.632,447.351,349.220,-2.600,100.940
451,39008.632000,217.674,111.435,105.472,334.252,25.407,446.390,274.220,41.400,129.940
452,39008.672000,213.743,114.447,102.400,336.218,30.909,445.515,215.220,41.400,123.940
453,39008.713000,200.967,110.431,95.232,336.166,27.225,444.442,220.220,32.400,136.940
454,39008.753000,201.950,112.439,86.016,335.267,30.078,450.469,189.220,8.400,125.940
455,39008.793000,199.002,113.443,94.208,338.163,34.638,447.587,96.220,-35.600,134.940
456,39008.833000,203.916,112.439,89.088,335.234,28.148,445.455,55.220,-22.600,138.940
457,39008.853000,202.933,119.467,88.064,341.910,31.920,446.540,-17.780,-52.600,117.940
458,39008.893000,203.916,123.482,91.136,341.726,18.996,441.291,-94.780,-63.600,154.940
459,39008.933000,195.071,107.420,90.112,342.582,12.557,439.166,-100.780,-64.600,176.940
460,39008.981000,207.846,106.416,89.088,343.417,4.344,439.987,-278.780,-52.600,168.940
461,39009.11000,224.553,85.333,98.304,343.417,4.344,439.987,-274.780,-30.600,219.940
462,39009.51000,231.432,65.255,108.544,341.382,-5.817,436.784,-222.780,-0.600,227.940
463,39009.91000,231.432,58.227,103.424,343.175,-13.121,436.631,-117.780,3.400,222.940
464,39009.111000,226.518,46.180,110.592,339.224,-25.120,434.381,-157.780,-6.600,257.940
465,39009.151000,243.225,20.078,101.376,342.804,-39.787,431.090,-169.780,-10.600,267.940
466,39009.191000,258.948,2.008,118.784,341.898,-37.012,433.137,-148.780,31.400,263.940
467,39009.231000,261.896,16.063,125.952,339.879,-46.218,431.944,-94.780,69.400,169.940
468,39009.277000,229.466,18.071,104.448,337.952,-48.952,433.872,-126.780,-8.600,97.940
469,39009.311000,224.553,14.055,86.016,341.622,-57.186,431.713,-231.780,-36.600,59.940
470,39009.331000,222.587,6.024,87.040,340.583,-63.670,428.589,-324.780,-85.600,59.940
471,39009.377000,221.605,-5.020,92.160,342.419,-67.388,424.534,-342.780,-80.600,98.940
472,39009.411000,228.484,-2.008,90.112,343.138,-83.885,423.190,-333.780,-61.600,94.940
473,39009.451000,238.311,-11.043,92.160,343.124,-84.821,422.175,-266.780,-32.600,91.940
474,39009.491000,228.484,-4.016,94.208,343.055,-89.480,418.097,-174.780,-40.600,24.940
475,39009.531000,238.311,3.012,89.088,343.032,-91.292,419.053,-114.780,-36.600,-35.060
476,39009.551000,235.363,1.004,82.944,344.935,-90.371,418.081,-91.780,-50.600,-71.060
477,39009.591000,232.415,-1.004,88.064,346.774,-94.049,416.016,-127.780,-23.600,-128.060
478,39009.631000,231.432,8.031,93.184,348.651,-94.980,414.010,-94.780,11.400,-150.060
479,39009.677000,235.363,13.051,101.376,348.717,-90.360,416.098,-66.780,68.400,-231.060
480,39009.717000,227.501,20.078,102.400,351.656,-82.993,416.259,11.220,-3.600,-252.060
481,39009.757000,230.449,18.071,88.064,353.542,-83.046,412.282,-5.780,-73.600,-186.060
482,39009.792000,229.466,17.067,99.328,356.367,-83.945,411.272,-196.780,-118.600,-179.060
483,39009.812000,232.415,19.075,111.616,360.113,-86.662,410.225,-170.780,-103.600,-182.060
484,39009.860000,228.484,25.098,120.832,363.040,-79.432,403.421,-62.780,-61.600,-269.060
485,39009.893000,230.449,37.145,108.544,364.054,-74.781,406.506,1.220,-56.600,-294.060
486,39009.933000,229.466,45.176,93.184,366.989,-67.453,404.677,67.220,-62.600,-248.060
487,39009.973000,222.587,56.220,89.088,371.778,-62.869,401.797,84.220,-167.600,-224.060
488,39010.13000,220.622,57.224,89.088,376.580,-57.368,398.938,22.220,-131.600,-237.060
489,39010.33000,225.536,63.247,90.112,377.565,-54.587,399.993,139.220,-121.600,-209.060
490,39010.73000,230.449,66.259,97.280,383.276,-51.823,397.076,113.220,-50.600,-201.060
491,39010.113000,234.380,71.278,103.424,382.485,-40.783,400.294,213.220,-52.600,-196.060
492,39010.153000,234.380,68.267,98.304,380.642,-37.143,400.369,265.220,-39.600,-197.060
493,39010.197000,225.536,69.271,86.016,387.511,-18.792,397.785,290.220,-85.600,-198.060
494,39010.237000,222.587,73.286,80.896,386.613,-15.159,396.867,335.220,-177.600,-190.060
495,39010.262000,215.708,78.306,74.752,395.309,-1.402,392.199,321.220,-206.600,-183.060
496,39010.292000,220.622,89.349,71.680,397.211,-0.500,390.232,271.220,-190.600,-219.060
497,39010.333000,222.587,101.396,69.632,402.073,9.562,386.475,169.220,-221.600,-287.060
498,39010.372000,212.760,92.361,63.488,408.877,23.294,381.804,108.220,-210.600,-284.060
499,39010.420000,222.587,100.392,62.464,410.830,27.880,380.910,44.220,-161.600,-244.060
500,39010.453000,221.605,105.412,64.512,411.861,34.266,379.058,39.220,-160.600,-195.060
501,39010.495000,222.587,103.404,60.416,410.844,29.575,373.983,61.220,-131.600,-176.060
502,39010.515000,217.674,105.412,51.200,420.457,40.694,374.234,98.220,-115.600,-169.060
503,39010.553000,218.656,112.439,43.008,414.744,38.670,368.215,96.220,-105.600,-169.060
504,39010.595000,211.777,122.478,40.960,419.652,51.578,369.492,52.220,-76.600,-169.060
505,39010.635000,214.726,133.522,36.864,416.836,53.353,368.531,14.220,-10.600,-195.060
506,39010.675000,213.743,131.514,33.792,416.838,53.372,369.526,68.220,14.400,-108.060
507,39010.715000,211.777,135.529,37.888,415.978,59.753,368.665,18.220,39.400,-77.060
508,39010.735000,212.760,141.553,31.744,415.879,52.444,369.504,-84.780,4.400,-25.060
509,39010.775000,213.743,142.557,29.696,412.119,54.226,369.537,-148.780,22.400,56.940
510,39010.815000,216.691,139.545,31.744,407.205,40.480,372.221,-171.780,78.400,172.940
511,39010.857000,215.708,142.557,33.792,404.382,41.398,374.226,-75.780,164.400,262.940
512,39010.897000,216.691,140.549,29.696,397.679,34.995,379.052,-116.780,192.400,330.940
513,39010.937000,215.708,139.545,31.744,390.922,24.888,381.811,-192.780,224.400,361.940
514,39010.958000,228.484,119.467,50.176,382.165,6.570,387.376,-279.780,246.400,429.940
515,39010.997000,234.380,115.451,75.776,375.237,-16.323,391.852,-546.780,297.400,495.940
516,39011.38000,251.086,80.314,97.280,363.813,-21.892,395.695,-384.780,265.400,454.940
517,39011.78000,275.655,38.149,149.504,354.977,-45.746,399.153,-404.780,310.400,403.940
518,39011.118000,230.449,22.086,149.504,349.219,-52.156,402.987,-208.780,375.400,361.940
519,39011.158000,208.829,27.106,137.216,339.578,-65.905,408.648,-283.780,248.400,256.940
520,39011.198000,201.950,3.012,131.072,328.104,-75.139,412.413,-285.780,278.400,300.940
521,39011.218000,195.071,-7.027,135.168,325.204,-79.737,413.305,-171.780,180.400,291.940
522,39011.260000,211.777,-3.012,131.072,317.489,-90.772,416.043,-194.780,166.400,216.940
523,39011.301000,223.570,2.008,132.096,310.818,-94.485,417.943,-210.780,152.400,117.940
524,39011.335000,210.795,-4.016,136.192,304.056,-104.650,417.717,-318.780,177.400,65.940
525,39011.375000,201.950,-9.035,135.168,296.411,-110.247,417.586,-329.780,177.400,42.940
526,39011.415000,216.691,-5.020,119.808,297.287,-115.673,420.456,-209.780,175.400,6.940
527,39011.436000,205.881,8.031,125.952,295.355,-118.466,419.399,-313.780,145.400,-12.060
528,39011.476000,211.777,-5.020,146.432,286.651,-132.320,419.091,-362.780,157.400,-61.060
529,39011.521000,202.933,-5.020,146.432,288.528,-133.251,417.085,-356.780,117.400,-114.060
530,39011.558000,210.795,-27.106,144.384,285.485,-148.765,421.724,-303.780,99.400,-86.060
531,39011.593000,206.864,-34.133,139.264,282.716,-143.364,418.851,-167.780,50.400,-72.060
532,39011.636000,207.846,-35.137,143.360,285.567,-142.410,418.875,-113.780,17.400,-59.060
533,39011.656000,206.864,-8.031,145.408,287.431,-144.257,416.849,-46.780,-5.600,-187.060
534,39011.697000,201.950,-5.020,141.312,289.349,-142.399,416.892,-123.780,-31.600,-272.060
535,39011.738000,214.726,6.024,139.264,293.142,-141.492,413.933,-171.780,9.400,-339.060
536,39011.778000,207.846,25.098,135.168,294.215,-132.298,415.125,-163.780,84.400,-468.060
537,39011.818000,193.106,32.125,125.952,296.175,-127.634,418.211,-142.780,58.400,-528.060
538,39011.860000,222.587,62.243,140.288,299.969,-126.707,416.247,-226.780,86.400,-522.060
539,39011.875000,219.639,74.290,145.408,303.850,-119.387,413.424,-175.780,87.400,-530.060
540,39011.915000,209.812,73.286,149.504,305.771,-117.490,415.457,-225.780,73.400,-477.060
541,39011.955000,213.743,76.298,137.216,310.491,-118.324,416.441,-208.780,11.400,-420.060
542,39011.995000,200.967,72.282,121.856,310.505,-117.389,417.455,-252.780,-62.600,-353.060
543,39012.37000,197.036,70.275,125.952,319.915,-120.967,415.404,-305.780,-77.600,-303.060
544,39012.73000,187.209,72.282,124.928,319.957,-117.400,410.506,-341.780,-108.600,-279.060
545,39012.113000,199.985,70.275,119.808,329.404,-118.231,408.513,-330.780,-122.600,-263.060
546,39012.133000,204.898,70.275,130.048,331.199,-124.736,402.410,-326.780,-81.600,-224.060
547,39012.178000,199.002,74.290,122.880,332.092,-128.427,400.343,-384.780,-45.600,-194.060
548,39012.217000,199.985,55.216,113.664,330.073,-137.632,399.150,-482.780,-40.600,-122.060
549,39012.260000,201.950,42.165,109.568,336.648,-140.430,392.138,-564.780,-51.600,3.940
550,39012.300000,215.708,42.165,110.592,335.581,-148.785,386.985,-509.780,-64.600,46.940
551,39012.340000,210.795,35.137,104.448,343.044,-156.092,382.862,-356.780,-110.600,76.940
552,39012.360000,223.570,43.169,119.808,343.906,-161.694,376.776,-372.780,-114.600,116.940
553,39012.396000,261.896,46.180,141.312,338.035,-175.569,373.488,-351.780,-43.600,175.940
554,39012.435000,207.846,50.196,138.240,339.834,-182.035,369.375,-332.780,-56.600,187.940
555,39012.476000,203.916,53.208,139.264,335.847,-196.763,368.061,-429.780,-152.600,202.940
556,39012.515000,195.071,32.125,167.936,338.562,-205.107,360.925,-455.780,-97.600,202.940
557,39012.556000,216.691,32.125,204.800,337.566,-208.005,353.899,-346.780,157.400,55.940
558,39012.575000,219.639,19.075,191.488,330.811,-218.092,357.653,-129.780,227.400,47.940
559,39012.615000,203.916,2.008,162.816,324.169,-219.933,361.583,1.220,210.400,116.940
560,39012.658000,211.777,20.078,149.504,322.299,-218.925,367.569,145.220,127.400,92.940
561,39012.703000,208.829,26.102,143.360,322.410,-211.460,374.691,259.220,63.400,17.940
562,39012.738000,194.088,19.075,138.240,319.623,-207.813,375.759,165.220,49.400,-25.060
563,39012.780000,198.019,17.067,137.216,319.678,-204.090,378.822,148.220,93.400,-5.060
564,39012.820000,198.019,15.059,144.384,315.901,-204.042,383.791,118.220,165.400,9.940
565,39012.836000,189.175,11.043,145.408,312.153,-202.123,390.788,179.220,245.400,25.940
566,39012.876000,198.019,9.035,147.456,303.619,-203.971,395.710,181.220,248.400,54.940
567,39012.916000,194.088,7.027,147.456,303.706,-198.337,402.792,248.220,237.400,70.940
568,39012.957000,186.226,7.027,151.552,295.297,-191.023,407.908,377.220,205.400,94.940
569,39012.997000,188.192,9.035,155.648,291.608,-184.563,413.014,409.220,207.400,124.940
570,39013.35000,183.278,16.063,167.936,287.018,-175.269,423.151,416.220,222.400,126.940
571,39013.61000,194.088,3.012,176.128,280.461,-171.496,433.168,485.220,257.400,167.940
572,39013.95000,197.036,10.039,162.816,275.971,-154.873,443.462,631.220,247.400,202.940
573,39013.135000,176.399,25.098,151.552,270.315,-153.915,449.441,900.220,159.400,230.940
574,39013.175000,179.347,100.392,156.672,269.727,-128.958,461.907,986.220,117.400,224.940
575,39013.223000,235.363,119.467,193.536,260.484,-113.411,467.198,735.220,196.400,186.940
576,39013.260000,200.967,148.580,184.320,259.737,-99.545,474.454,476.220,182.400,145.940
577,39013.280000,172.468,123.482,147.456,255.910,-103.162,479.345,328.220,31.400,207.940
578,39013.335000,160.676,102.400,131.072,257.848,-99.531,476.441,314.220,-134.600,317.940
579,39013.356000,161.658,110.431,126.976,258.899,-92.131,479.584,398.220,-153.600,305.940
580,39013.398000,179.347,129.506,123.904,259.872,-90.266,480.620,382.220,-151.600,273.940
581,39013.440000,186.226,122.478,121.856,263.752,-82.946,477.797,287.220,-117.600,264.940
582,39013.480000,192.123,113.443,152.576,258.010,-88.401,483.641,294.220,11.400,378.940
583,39013.526000,181.313,100.392,158.720,255.169,-88.458,482.640,453.220,185.400,525.940
584,39013.541000,167.555,112.439,149.504,247.807,-73.802,487.915,584.220,202.400,528.940
585,39013.581000,167.555,105.412,154.624,241.249,-69.270,489.991,507.220,133.400,576.940
586,39013.621000,182.296,74.290,143.360,231.715,-74.833,492.842,354.220,27.400,546.940
587,39013.661000,219.639,46.180,125.952,235.617,-66.499,495.015,259.220,-58.600,478.940
588,39013.701000,193.106,54.212,168.960,234.617,-70.215,492.945,88.220,30.400,380.940
589,39013.740000,238.311,4.016,171.008,223.177,-76.739,494.778,97.220,214.400,397.940
590,39013.761000,209.812,8.031,159.744,220.418,-71.221,497.876,392.220,225.400,529.940
591,39013.801000,211.777,8.031,150.528,208.069,-75.009,499.766,412.220,91.400,689.940
592,39013.837000,216.691,11.043,141.312,207.264,-64.905,501.969,514.220,7.400,692.940
593,39013.877000,184.261,19.075,124.928,206.285,-67.607,504.894,567.220,-27.600,630.940
594,39013.917000,193.106,23.090,126.976,197.918,-56.726,505.113,559.220,64.400,550.940
595,39013.958000,197.036,20.078,129.024,195.247,-44.796,508.347,568.220,134.400,476.940
596,39013.978000,192.123,24.094,131.072,189.583,-43.935,509.352,507.220,207.400,428.940
597,39014.18000,203.916,25.098,139.264,176.557,-28.419,515.630,512.220,190.400,461.940
598,39014.58000,208.829,29.114,129.024,174.742,-22.927,516.739,568.220,53.400,384.940
599,39014.105000,225.536,36.141,124.928,171.078,-13.855,514.938,543.220,-159.600,260.940
600,39014.141000,237.328,22.086,115.712,176.882,-3.839,508.197,488.220,-246.600,220.940
601,39014.181000,212.760,24.094,137.216,181.724,4.449,507.386,288.220,-269.600,184.940
602,39014.216000,209.812,5.020,132.096,189.241,0.846,505.331,333.220,-342.600,161.940
603,39014.236000,210.795,13.051,147.456,193.131,9.043,500.538,287.220,-323.600,135.940
604,39014.276000,201.950,37.145,178.176,202.740,20.123,498.799,157.220,-361.600,-1.060
605,39014.316000,223.570,50.196,208.896,202.675,15.503,496.711,88.220,-178.600,-0.060
606,39014.356000,208.829,53.208,179.200,202.732,20.025,493.823,121.220,-138.600,-7.060
607,39014.397000,215.708,13.051,149.504,205.539,18.152,489.809,67.220,-173.600,205.940
608,39014.436000,218.656,13.051,126.976,210.207,13.615,488.725,-25.780,-155.600,207.940
609,39014.456000,227.501,20.078,118.784,209.389,22.803,490.909,129.220,-123.600,182.940
610,39014.497000,197.036,26.102,118.784,211.305,24.640,489.956,283.220,-36.600,112.940
611,39014.537000,190.157,43.169,128.000,209.523,32.841,489.133,231.220,2.400,71.940
612,39014.577000,200.967,42.165,125.952,209.562,35.609,490.187,116.220,13.400,-36.060
613,39014.618000,195.071,57.224,136.192,209.548,34.673,489.172,-7.780,-13.600,-113.060
614,39014.658000,200.967,61.239,142.336,205.725,31.875,489.107,-196.780,-10.600,-189.060
615,39014.678000,209.812,65.255,133.120,210.405,28.253,488.042,-488.780,-143.600,-289.060
616,39014.717000,192.123,61.239,115.712,213.018,12.560,479.755,-598.780,-221.600,-350.060
617,39014.756000,193.106,62.243,118.784,221.399,2.615,480.550,-726.780,-236.600,-440.060
618,39014.796000,178.365,39.153,92.160,228.656,-19.428,472.135,-973.780,-339.600,-468.060
619,39014.836000,200.967,21.082,107.520,232.269,-31.405,465.917,-1050.780,-233.600,-461.060
620,39014.877000,228.484,-35.137,130.048,240.591,-45.113,461.659,-1082.780,-168.600,-304.060
621,39014.917000,250.104,-49.192,145.408,243.158,-64.431,455.284,-878.780,-168.600,-355.060
622,39014.937000,274.672,-41.161,158.720,245.912,-70.007,449.202,-617.780,-49.600,-391.060
623,39014.977000,252.069,-46.180,167.936,253.384,-77.217,450.054,-378.780,0.400,-334.060
624,39015.17000,237.328,-35.137,128.000,253.393,-76.340,448.083,-284.780,-114.600,-383.060
625,39015.57000,212.760,-25.098,101.376,260.914,-79.125,441.073,-323.780,-227.600,-402.060
626,39015.97000,231.432,-39.153,105.472,267.399,-89.134,439.875,-475.780,-229.600,-298.060
627,39015.137000,233.397,-35.137,109.568,272.044,-94.705,432.801,-431.780,-231.600,-347.060
628,39015.157000,221.605,-30.118,121.856,278.724,-90.115,428.930,-278.780,-274.600,-336.060
629,39015.197000,232.415,-22.086,128.000,283.377,-95.589,426.831,-377.780,-185.600,-346.060
630,39015.238000,230.449,2.008,128.000,289.022,-97.443,421.826,-271.780,-135.600,-391.060
631,39015.282000,234.380,46.180,126.976,295.824,-84.491,424.101,63.220,-1.600,-410.060
632,39015.322000,227.501,73.286,118.784,298.673,-83.576,422.136,12.220,39.400,-405.060
633,39015.362000,222.587,74.290,112.640,298.778,-76.189,425.277,-19.780,-29.600,-266.060
634,39015.381000,219.639,67.263,103.424,299.713,-77.073,426.254,31.220,36.400,-246.060
635,39015.422000,230.449,76.298,108.544,302.654,-69.687,427.411,-40.780,60.400,-215.060
636,39015.462000,220.622,78.306,97.280,299.893,-64.188,429.513,60.220,23.400,-248.060
637,39015.497000,209.812,88.345,101.376,299.072,-55.040,429.706,131.220,17.400,-228.060
638,39015.537000,203.916,86.337,100.352,302.835,-56.783,431.664,40.220,-7.600,-170.060
639,39015.577000,199.985,85.333,98.304,303.760,-58.564,433.617,-120.780,6.400,-132.060
640,39015.617000,199.985,87.341,110.592,302.880,-53.177,428.757,-218.780,-5.600,-155.060
641,39015.637000,198.019,78.306,109.568,303.678,-64.138,429.519,-297.780,-88.600,-120.060
642,39015.677000,200.967,71.278,95.232,307.484,-62.315,426.580,-334.780,-161.600,-84.060
643,39015.721000,211.777,69.271,90.112,313.937,-74.234,421.363,-385.780,-204.600,-101.060
644,39015.760000,224.553,70.275,91.136,315.749,-79.765,418.264,-553.780,-169.600,-42.060
645,39015.801000,230.449,56.220,94.208,319.467,-84.354,415.188,-559.780,-161.600,-5.060
646,39015.840000,227.501,55.216,82.944,324.833,-106.403,407.764,-718.780,-242.600,16.940
647,39015.861000,229.466,44.173,78.848,323.700,-119.378,400.524,-625.780,-145.600,41.940
648,39015.897000,240.276,27.106,102.400,330.200,-127.672,393.394,-594.780,-162.600,101.940
649,39015.942000,254.035,31.122,114.688,327.164,-141.569,387.126,-509.780,-146.600,103.940
650,39015.978000,245.190,48.188,138.240,328.953,-148.912,384.983,-343.780,-66.600,118.940
651,39016.28000,202.933,34.133,132.096,327.888,-157.248,380.826,-315.780,-124.600,129.940
652,39016.65000,195.071,33.129,143.360,323.999,-164.666,378.673,-293.780,30.400,30.940
653,39016.80000,195.071,42.165,167.936,328.737,-163.765,374.720,-313.780,84.400,-11.060
654,39016.118000,215.708,29.114,177.152,325.688,-179.338,376.374,-375.780,144.400,-50.060
655,39016.162000,226.518,7.027,154.624,325.696,-178.480,373.408,-340.780,70.400,-48.060
656,39016.198000,207.846,6.024,110.592,324.801,-174.809,374.479,-24.780,-68.600,-56.060
657,39016.238000,235.363,37.145,108.544,330.476,-174.773,372.499,-25.780,-57.600,-183.060
658,39016.278000,215.708,27.106,113.664,332.443,-169.251,372.620,60.220,-59.600,-116.060
659,39016.318000,219.639,20.078,115.712,333.370,-171.012,375.568,-52.780,31.400,-138.060
660,39016.338000,210.795,23.090,124.928,334.354,-168.251,375.628,-9.780,75.400,-122.060
661,39016.378000,193.106,14.055,135.168,334.457,-160.883,377.774,110.220,115.400,-77.060
662,39016.418000,197.036,21.082,147.456,328.827,-158.093,383.793,167.220,156.400,-40.060
663,39016.458000,195.071,17.067,140.288,327.862,-159.859,387.732,437.220,116.400,44.940
664,39016.498000,186.226,17.067,136.192,331.884,-143.182,395.056,582.220,58.400,88.940
665,39016.538000,210.795,15.059,131.072,327.286,-133.986,400.218,811.220,71.400,208.940
666,39016.558000,234.380,37.145,115.712,322.716,-122.918,407.409,1002.220,79.400,248.940
667,39016.600000,235.363,65.255,104.448,325.856,-101.654,415.824,1204.220,81.400,261.940
668,39016.655000,257.965,90.353,102.400,323.357,-77.696,425.281,1311.220,29.400,314.940
669,39016.678000,242.242,124.486,94.208,324.588,-57.411,431.683,1142.220,-23.600,196.940
670,39016.725000,229.466,125.490,96.256,327.589,-45.464,431.941,833.220,36.400,164.940
671,39016.758000,220.622,102.400,107.520,325.782,-39.875,438.026,595.220,46.400,212.940
672,39016.778000,201.950,91.357,94.208,326.900,-27.076,436.310,509.220,9.400,214.940
673,39016.818000,193.106,94.369,80.896,326.937,-24.328,436.369,454.220,-14.600,229.940
674,39016.858000,209.812,94.369,91.136,324.218,-16.042,440.520,298.220,30.400,229.940
675,39016.898000,209.812,100.392,92.160,327.086,-14.113,443.549,283.220,-50.600,173.940
676,39016.938000,209.812,101.396,90.112,328.048,-12.386,437.619,215.220,-59.600,142.940
677,39016.978000,207.846,88.345,87.040,333.637,-18.743,436.498,99.220,-98.600,167.940
678,39016.998000,217.674,75.294,82.944,335.572,-15.132,432.599,5.220,-182.600,150.940
679,39017.40000,220.622,75.294,76.800,339.220,-25.159,432.391,-40.780,-140.600,100.940
680,39017.80000,208.829,76.298,79.872,343.069,-19.749,425.549,-56.780,-80.600,71.940
681,39017.122000,231.432,80.314,77.824,349.673,-21.435,428.507,-143.780,-45.600,11.940
682,39017.163000,224.553,85.333,84.992,344.765,-34.343,427.230,-337.780,87.400,-44.060
683,39017.205000,220.622,57.224,97.280,341.879,-38.006,429.137,-68.780,35.400,-47.060
684,39017.238000,235.363,43.169,77.824,343.851,-31.666,424.302,-97.780,29.400,-180.060
685,39017.265000,269.758,38.149,107.520,341.927,-34.361,428.220,-169.780,101.400,-157.060
686,39017.298000,263.862,25.098,142.336,340.038,-34.347,430.207,-149.780,207.400,-16.060
687,39017.340000,234.380,31.122,128.000,333.333,-40.769,434.039,-47.780,213.400,11.940
688,39017.382000,227.501,43.169,121.856,332.434,-37.156,432.125,183.220,7.400,34.940
689,39017.423000,206.864,35.137,102.400,329.640,-34.348,437.154,5.220,37.400,26.940
690,39017.465000,205.881,32.125,98.304,335.290,-36.144,435.135,-113.780,4.400,47.940
691,39017.485000,236.345,22.086,94.208,338.066,-40.687,435.043,-69.780,-43.600,58.940
692,39017.525000,231.432,5.020,82.944,337.090,-42.591,432.017,-30.780,-92.600,87.940
693,39017.561000,231.432,-1.004,81.920,339.881,-46.198,432.939,85.220,-49.600,138.940
694,39017.602000,211.777,5.020,86.016,341.865,-38.942,428.123,213.220,-83.600,82.940
695,39017.645000,204.898,15.059,56.320,343.809,-35.233,429.199,556.220,-186.600,68.940
696,39017.688000,282.534,62.243,64.512,347.743,-24.209,428.445,595.220,-147.600,9.940
697,39017.705000,228.484,122.478,93.184,351.734,-8.662,424.803,611.220,-144.600,-203.060
698,39017.746000,252.069,124.486,81.920,353.734,-0.451,421.997,419.220,-34.600,-121.060
699,39017.781000,244.207,73.286,75.776,355.703,5.091,423.113,135.220,-55.600,35.940
700,39017.827000,238.311,76.298,72.704,351.882,2.312,424.043,304.220,5.400,191.940
701,39017.868000,217.674,74.290,68.608,354.848,11.530,425.238,617.220,29.400,267.940
702,39017.902000,211.777,75.294,59.392,350.234,19.771,428.390,769.220,66.400,269.940
703,39017.951000,203.916,83.325,64.512,351.393,35.358,428.724,943.220,158.400,327.940
704,39017.960000,212.760,67.263,65.536,342.100,47.240,433.936,923.220,297.400,270.940
705,39018.0,228.484,49.192,53.248,335.653,59.998,435.193,966.220,306.400,332.940
706,39018.40000,246.173,2.008,66.560,333.044,76.510,438.524,1137.220,351.400,315.940
707,39018.80000,271.724,53.208,80.896,320.995,94.709,440.883,1130.220,415.400,339.940
708,39018.121000,246.173,68.267,91.136,312.704,111.087,441.219,1021.220,399.400,331.940
709,39018.160000,229.466,74.290,74.752,305.290,122.058,445.420,781.220,371.400,274.940
710,39018.180000,231.432,49.192,80.896,296.950,134.791,446.674,717.220,291.400,294.940
711,39018.220000,221.605,48.188,79.872,297.930,137.513,444.744,653.220,231.400,314.940
712,39018.262000,225.536,49.192,77.824,293.361,149.360,444.989,608.220,167.400,273.940
713,39018.305000,229.466,56.220,77.824,290.580,153.845,442.096,560.220,98.400,262.940
714,39018.345000,224.553,48.188,77.824,291.687,165.748,441.357,414.220,90.400,199.940
715,39018.385000,233.397,43.169,67.584,285.984,163.840,441.308,315.220,21.400,147.940
716,39018.405000,236.345,32.125,65.536,287.967,171.077,435.497,270.220,-40.600,116.940
717,39018.445000,244.207,45.176,58.368,288.040,176.555,434.619,181.220,-120.600,1.940
718,39018.485000,243.225,39.153,54.272,288.953,174.637,429.606,156.220,-153.600,-67.060
719,39018.525000,229.466,40.157,63.488,290.057,186.501,426.876,189.220,-200.600,-140.060
720,39018.566000,289.413,62.243,68.608,291.042,190.041,419.991,425.220,-210.600,-127.060
721,39018.600000,264.845,60.235,99.328,292.176,204.575,413.339,301.220,-251.600,-205.060
722,39018.640000,250.104,86.337,107.520,288.514,213.667,412.533,199.220,-152.600,-324.060
723,39018.666000,220.622,103.404,98.304,289.558,221.749,403.755,163.220,-199.600,-269.060
724,39018.700000,207.846,104.408,112.640,284.900,227.164,402.868,190.220,-63.600,-288.060
725,39018.741000,191.140,124.486,120.832,285.996,238.170,403.104,263.220,7.400,-301.060
726,39018.781000,201.950,135.529,93.184,280.371,242.559,397.221,433.220,-69.600,-84.060
727,39018.822000,209.812,107.420,80.896,284.137,241.614,393.228,79.220,-78.600,71.940
728,39018.865000,204.898,102.400,66.560,287.941,242.659,397.235,-341.780,-146.600,163.940
729,39018.887000,228.484,86.337,72.704,289.625,227.148,398.896,-493.780,-176.600,52.940
730,39018.921000,218.656,77.302,72.704,293.273,217.121,398.688,-247.780,-127.600,-57.060
731,39018.961000,206.864,84.329,70.656,293.298,218.953,398.727,-157.780,-103.600,-131.060
732,39019.1000,235.363,74.290,61.440,291.362,215.342,402.626,-323.780,7.400,-142.060
733,39019.47000,240.276,87.341,76.800,291.349,214.426,402.607,-479.780,-55.600,-156.060
734,39019.83000,222.587,93.365,76.800,292.200,207.168,405.438,-483.780,-88.600,-235.060
735,39019.103000,213.743,81.318,55.296,290.239,201.724,409.297,-519.780,-210.600,-295.060
736,39019.143000,206.864,90.353,61.440,294.851,192.684,412.096,-733.780,-175.600,-356.060
737,39019.183000,210.795,119.467,79.872,292.853,184.491,415.897,-761.780,-134.600,-434.060
738,39019.227000,200.967,104.408,70.656,290.812,173.492,416.654,-714.780,-259.600,-411.060
739,39019.265000,202.933,88.345,56.320,295.398,162.620,419.414,-777.780,-264.600,-401.060
740,39019.305000,202.933,106.416,62.464,296.185,150.762,421.152,-859.780,-240.600,-281.060
741,39019.346000,238.311,91.357,77.824,302.681,141.649,418.978,-798.780,-291.600,-187.060
742,39019.366000,253.052,84.329,93.184,305.286,124.319,420.602,-850.780,-274.600,-107.060
743,39019.406000,258.948,57.224,114.688,312.715,114.302,418.411,-529.780,-186.600,-27.060
744,39019.446000,244.207,73.286,117.760,312.665,110.638,418.333,-301.780,-135.600,-3.060
745,39019.481000,243.225,105.412,100.352,319.215,105.228,418.227,-203.780,-160.600,-2.060
746,39019.521000,213.743,97.380,79.872,321.966,98.853,418.096,-473.780,-198.600,16.940
747,39019.561000,203.916,75.294,55.296,327.383,79.709,418.691,-727.780,-206.600,103.940
748,39019.581000,219.639,63.247,40.960,328.146,66.798,413.444,-892.780,-172.600,285.940
749,39019.628000,247.155,41.161,45.056,332.552,43.041,412.945,-1079.780,-108.600,155.940
750,39019.662000,248.138,62.243,87.040,336.027,20.207,413.459,-1141.780,-20.600,-19.060
751,39019.701000,234.380,63.247,73.728,333.842,-0.948,410.022,-794.780,-121.600,-18.060
752,39019.741000,228.484,43.169,70.656,340.305,-12.750,410.775,-959.780,-153.600,-185.060
753,39019.781000,233.397,35.137,65.536,347.697,-25.515,408.525,-761.780,-196.600,-178.060
754,39019.801000,221.605,43.169,69.632,352.279,-35.667,401.353,-958.780,-223.600,-266.060
755,39019.841000,219.639,54.212,79.872,354.012,-46.752,395.152,-912.780,-147.600,-238.060
756,39019.881000,235.363,63.247,72.704,358.480,-65.169,386.809,-897.780,-153.600,-251.060
757,39019.926000,239.294,53.208,76.800,361.116,-79.828,384.512,-970.780,-106.600,-206.060
758,39019.961000,233.397,39.153,70.656,364.805,-86.289,379.407,-939.780,-103.600,-203.060
759,39020.3000,226.518,34.133,61.440,370.357,-94.615,371.280,-859.780,-149.600,-145.060
760,39020.45000,222.587,34.133,57.344,372.065,-107.533,365.040,-785.780,-165.600,-135.060
761,39020.63000,223.570,36.141,59.392,374.744,-118.606,358.841,-745.780,-127.600,-148.060
762,39020.103000,241.259,37.145,75.776,374.604,-127.943,349.690,-424.780,-136.600,-39.060
763,39020.143000,253.052,40.157,76.800,376.429,-132.557,346.611,-529.780,-71.600,6.940
764,39020.185000,253.052,50.196,87.040,376.244,-145.500,340.367,-536.780,-73.600,96.940
765,39020.223000,218.656,42.165,96.256,378.008,-154.676,338.185,-441.780,-147.600,175.940
766,39020.265000,254.035,39.153,95.232,375.081,-160.366,330.103,-469.780,-101.600,158.940
767,39020.291000,236.345,30.118,126.976,377.770,-171.322,329.873,-158.780,26.400,69.940
768,39020.342000,209.812,58.227,159.744,376.797,-173.187,328.838,-181.780,115.400,-30.060
769,39020.363000,201.950,45.176,143.360,369.256,-171.396,331.849,-267.780,163.400,-21.060
770,39020.402000,229.466,47.184,97.280,376.848,-169.503,329.911,-212.780,32.400,-171.060
771,39020.442000,226.518,47.184,105.472,372.988,-175.049,329.787,-306.780,-13.600,-166.060
772,39020.483000,246.173,34.133,116.736,377.721,-174.967,330.790,-250.780,135.400,-118.060
773,39020.505000,244.207,29.114,114.688,374.857,-176.077,322.805,-257.780,133.400,-92.060
774,39020.545000,229.466,21.082,99.328,371.906,-185.120,330.566,-120.780,149.400,-45.060
775,39020.585000,224.553,22.086,94.208,371.975,-180.461,334.643,-38.780,163.400,-14.060
776,39020.627000,215.708,35.137,96.256,368.963,-193.305,335.360,-25.780,146.400,-17.060
777,39020.668000,227.501,20.078,96.256,361.577,-180.462,341.591,64.220,118.400,14.940
778,39020.703000,214.726,13.051,113.664,369.209,-175.801,340.706,-25.780,172.400,13.940
779,39020.745000,219.639,17.067,119.808,364.364,-184.888,347.468,100.220,178.400,47.940
780,39020.765000,219.639,11.043,123.904,363.551,-175.642,352.637,151.220,195.400,84.940
781,39020.807000,211.777,4.016,131.072,354.034,-180.250,357.498,144.220,201.400,100.940
782,39020.846000,205.881,2.008,140.288,350.366,-171.996,360.652,245.220,176.400,112.940
783,39020.887000,215.708,5.020,139.264,346.608,-170.954,369.621,500.220,151.400,137.940
784,39020.926000,217.674,2.008,125.952,348.647,-160.754,374.814,598.220,109.400,174.940
785,39020.962000,211.777,7.027,122.880,344.926,-156.964,383.841,595.220,86.400,194.940
786,39020.982000,199.985,19.075,126.976,345.175,-139.421,391.177,889.220,18.400,225.940
787,39021.25000,240.276,54.212,112.640,339.572,-134.779,398.230,819.220,51.400,156.940
788,39021.65000,249.121,80.314,126.976,340.696,-121.901,400.495,562.220,52.400,11.940
789,39021.103000,217.674,91.357,111.616,345.613,-108.896,406.747,499.220,35.400,-26.060
790,39021.147000,216.691,72.282,97.280,344.745,-103.372,408.852,475.220,27.400,36.940
791,39021.191000,222.587,65.255,99.328,343.930,-94.145,413.026,375.220,89.400,74.940
792,39021.205000,221.605,71.278,103.424,343.033,-91.273,420.048,453.220,144.400,62.940
793,39021.245000,219.639,84.329,92.160,340.490,-70.142,425.468,646.220,128.400,46.940
794,39021.285000,232.415,80.314,84.992,335.798,-67.436,426.513,450.220,202.400,15.940
795,39021.323000,236.345,71.278,102.400,333.122,-56.324,434.702,434.220,230.400,42.940
796,39021.365000,217.674,94.369,100.352,325.701,-46.210,441.869,576.220,236.400,30.940
797,39021.405000,225.536,109.427,97.280,324.936,-33.319,446.121,545.220,227.400,-38.060
798,39021.445000,221.605,105.412,106.496,319.328,-28.735,450.189,412.220,196.400,-45.060
799,39021.465000,208.829,101.396,114.688,316.633,-18.617,454.379,278.220,184.400,-26.060
800,39021.505000,203.916,107.420,107.520,310.948,-19.550,457.334,202.220,145.400,9.940
801,39021.545000,192.123,97.380,104.448,311.024,-14.033,458.447,139.220,75.400,88.940
802,39021.591000,191.140,91.357,102.400,310.044,-16.755,460.376,-31.780,27.400,91.940
803,39021.625000,194.088,90.353,101.376,313.747,-22.280,456.286,-78.780,-5.600,103.940
804,39021.665000,196.054,84.329,100.352,313.722,-24.112,456.247,68.220,-78.600,102.940
805,39021.685000,195.071,89.349,99.328,314.758,-17.667,457.380,8.220,-74.600,89.940
806,39021.733000,192.123,90.353,105.472,316.613,-20.391,457.325,101.220,-80.600,150.940
807,39021.767000,209.812,115.451,135.168,313.719,-24.151,454.257,-40.780,-90.600,108.940
808,39021.822000,204.898,120.471,144.384,320.311,-25.974,450.249,30.220,-102.600,144.940
809,39021.843000,205.881,124.486,132.096,321.270,-25.045,450.270,33.220,-193.600,201.940
810,39021.883000,197.036,108.424,120.832,325.833,-36.971,446.045,-91.780,-184.600,225.940
811,39021.903000,196.054,100.392,111.616,328.640,-38.844,442.030,-223.780,-122.600,242.940
812,39021.943000,212.760,79.310,114.688,330.262,-58.155,436.649,-333.780,-119.600,307.940
813,39021.983000,233.397,36.141,135.168,330.080,-71.059,432.395,-483.780,-25.600,319.940
814,39022.25000,247.155,5.020,130.048,330.930,-78.336,434.231,-581.780,-57.600,317.940
815,39022.65000,237.328,-2.008,126.976,331.552,-101.364,426.779,-516.780,-88.600,208.940
816,39022.105000,239.294,1.004,134.144,333.364,-106.894,423.680,-304.780,-78.600,93.940
817,39022.145000,246.173,6.024,116.736,335.113,-117.025,419.489,-248.780,-139.600,53.940
818,39022.166000,225.536,-3.012,124.928,334.161,-117.096,416.502,-152.780,-78.600,45.940
819,39022.206000,217.674,-3.012,116.736,336.054,-117.071,416.505,-46.780,-87.600,65.940
820,39022.248000,214.726,-5.020,92.160,342.622,-120.726,412.458,24.220,-170.600,149.940
821,39022.288000,212.760,-7.027,92.160,340.671,-124.513,407.402,28.220,-187.600,197.940
822,39022.327000,219.639,-18.071,88.064,347.256,-127.193,406.360,154.220,-152.600,223.940
823,39022.368000,223.570,-16.063,90.112,348.177,-129.013,406.322,235.220,-176.600,178.940
824,39022.388000,229.466,-9.035,71.680,351.086,-123.537,403.459,409.220,-207.600,110.940
825,39022.427000,239.294,-19.075,75.776,355.978,-111.585,402.726,353.220,-142.600,66.940
826,39022.468000,263.862,9.035,106.496,355.052,-109.823,399.779,342.220,-50.600,-35.060
827,39022.508000,238.311,0.000,91.136,359.978,-95.941,404.060,461.220,-101.600,-60.060
828,39022.555000,217.674,9.035,59.392,366.654,-92.169,405.145,414.220,-51.600,-62.060
829,39022.583000,260.914,42.165,74.752,364.016,-77.529,406.447,482.220,-3.600,-113.060
830,39022.610000,256.000,75.294,114.688,364.085,-72.870,410.525,392.220,160.400,-255.060
831,39022.651000,240.276,92.361,105.472,362.412,-57.243,414.833,264.220,94.400,-290.060
832,39022.685000,239.294,58.227,68.608,357.754,-51.828,413.947,195.220,24.400,-172.060
833,39022.725000,226.518,52.204,66.560,363.448,-50.798,415.967,-249.780,69.400,-171.060
834,39022.766000,220.622,45.176,61.440,357.657,-59.118,415.781,-111.780,0.400,-66.060
835,39022.806000,225.536,61.239,49.152,363.380,-55.437,412.884,27.220,-85.600,-73.060
836,39022.846000,215.708,67.263,47.104,365.351,-49.877,414.995,149.220,-112.600,-53.060
837,39022.866000,233.397,74.290,52.224,367.210,-51.781,409.984,106.220,-73.600,-82.060
838,39022.907000,226.518,87.341,48.128,367.387,-38.936,411.252,209.220,-83.600,-87.060
839,39022.957000,224.553,94.369,47.104,368.316,-39.898,408.249,196.220,-114.600,-96.060
840,39022.986000,228.484,102.400,37.888,368.352,-37.169,407.312,96.220,-128.600,-134.060
841,39023.26000,233.397,108.424,51.200,370.303,-32.603,405.423,50.220,-105.600,-71.060
842,39023.66000,232.415,117.459,51.200,372.141,-36.301,402.363,-79.780,-88.600,-6.060
843,39023.86000,240.276,111.435,52.224,363.623,-36.433,401.353,-273.780,-32.600,139.940
844,39023.126000,253.052,73.286,70.656,367.199,-51.138,396.072,-514.780,-16.600,237.940
845,39023.172000,257.965,41.161,78.848,362.380,-57.614,395.927,-308.780,-16.600,280.940
846,39023.206000,274.672,22.086,108.544,356.540,-69.599,395.664,-70.780,64.400,229.940
847,39023.245000,265.827,17.067,140.288,355.497,-76.901,397.496,-126.780,103.400,218.940
848,39023.293000,235.363,2.008,118.784,344.068,-82.528,398.354,-113.780,139.400,110.940
849,39023.307000,218.656,-19.075,105.472,343.091,-85.211,402.274,-248.780,71.400,47.940
850,39023.355000,218.656,-17.067,111.616,339.241,-89.862,401.175,-282.780,74.400,34.940
851,39023.390000,217.674,-19.075,107.520,338.128,-101.842,397.934,-265.780,13.400,10.940
852,39023.427000,217.674,-14.055,109.568,340.995,-99.934,399.968,-265.780,-3.600,-17.060
853,39023.467000,228.484,-20.078,105.472,335.185,-109.248,395.783,-141.780,-0.600,-20.060
854,39023.507000,207.846,-13.051,106.496,335.189,-109.209,397.773,-110.780,-55.600,-9.060
855,39023.547000,220.622,-25.098,99.328,338.925,-112.044,390.756,-151.780,-101.600,-0.060
856,39023.567000,227.501,-27.106,105.472,341.735,-113.878,388.732,-276.780,-122.600,9.940
857,39023.608000,229.466,-25.098,107.520,342.682,-113.865,388.733,-230.780,-125.600,-39.060
858,39023.645000,225.536,-17.067,104.448,344.413,-124.970,381.537,-226.780,-135.600,-97.060
859,39023.685000,231.432,-22.086,112.640,349.087,-128.650,377.487,-130.780,-166.600,-88.060
860,39023.725000,223.570,-23.090,109.568,352.923,-124.936,377.572,-274.780,-190.600,-177.060
861,39023.765000,231.432,-18.071,103.424,357.619,-126.823,371.571,-111.780,-130.600,-180.060
862,39023.785000,242.242,-4.016,106.496,361.510,-118.606,367.773,-35.780,-157.600,-216.060
863,39023.825000,244.207,15.059,105.472,367.199,-117.634,366.807,-72.780,-161.600,-309.060
864,39023.866000,225.536,50.196,89.088,372.015,-111.198,364.962,86.220,-159.600,-372.060
865,39023.906000,256.000,61.239,72.704,379.734,-100.124,364.215,-34.780,-141.600,-309.060
866,39023.946000,237.328,59.231,100.352,378.837,-96.471,364.291,-37.780,-24.600,-284.060
867,39023.989000,237.328,85.333,84.992,383.648,-90.094,359.461,99.220,-11.600,-245.060
868,39024.9000,224.553,67.263,65.536,382.714,-89.190,359.479,-34.780,-90.600,-140.060
869,39024.48000,223.570,60.235,60.416,390.281,-89.129,357.502,-402.780,-113.600,-138.060
870,39024.90000,233.397,61.239,61.440,391.069,-100.208,352.294,-410.780,-243.600,-95.060
871,39024.130000,227.501,42.165,45.056,395.697,-106.753,342.215,-498.780,-365.600,-60.060
872,39024.167000,221.605,59.231,50.176,405.148,-106.765,335.266,-455.780,-246.600,-150.060
873,39024.208000,237.328,67.263,65.536,409.754,-115.104,327.139,-497.780,-182.600,-85.060
874,39024.248000,231.432,56.220,74.752,409.669,-120.718,321.051,-637.780,-82.600,-66.060
875,39024.268000,235.363,48.188,69.632,409.426,-138.183,317.695,-727.780,-74.600,16.940
876,39024.310000,222.587,25.098,49.152,412.194,-142.823,312.627,-523.780,-177.600,85.940
877,39024.351000,234.380,21.082,43.008,412.103,-148.515,302.560,-716.780,-122.600,68.940
878,39024.386000,235.363,24.094,43.008,416.658,-160.519,294.354,-507.780,-205.600,139.940
879,39024.427000,263.862,22.086,36.864,415.572,-169.868,285.202,-460.780,-250.600,144.940
880,39024.467000,278.603,14.055,39.936,416.341,-181.941,275.994,-269.780,-339.600,290.940
881,39024.487000,269.758,20.078,56.320,416.289,-185.625,274.921,-294.780,-223.600,362.940
882,39024.527000,260.914,41.161,88.064,413.249,-199.561,266.663,-113.780,-290.600,426.940
883,39024.567000,235.363,26.102,83.968,416.850,-212.454,260.426,-35.780,-127.600,391.940
884,39024.607000,246.173,9.035,87.040,411.923,-227.116,263.090,-199.780,3.400,360.940
885,39024.646000,245.190,-2.008,100.352,402.487,-225.389,264.108,-179.780,174.400,221.940
886,39024.695000,244.207,3.012,102.400,406.323,-221.655,265.188,-50.780,209.400,37.940
887,39024.710000,252.069,9.035,86.016,397.753,-226.251,270.050,173.220,134.400,-50.060
888,39024.748000,240.276,16.063,62.464,403.594,-215.026,278.255,451.220,80.400,-46.060
889,39024.790000,244.207,15.059,63.488,401.734,-213.121,283.266,316.220,85.400,-17.060
890,39024.831000,243.225,0.000,75.776,398.879,-214.893,288.197,79.220,87.400,94.940
891,39024.866000,224.553,-7.027,79.872,397.995,-210.325,288.293,49.220,106.400,140.940
892,39024.907000,232.415,-13.051,69.632,394.193,-212.110,293.223,206.220,42.400,140.940
893,39024.927000,233.397,-11.043,72.704,396.052,-214.794,295.158,246.220,25.400,96.940
894,39024.966000,224.553,-11.043,81.920,394.261,-208.231,304.246,332.220,56.400,66.940
895,39025.8000,223.570,-21.082,81.920,393.344,-206.372,306.274,319.220,46.400,64.940
896,39025.48000,228.484,-27.106,80.896,392.429,-204.474,310.291,435.220,91.400,41.940
897,39025.90000,225.536,-21.082,89.088,393.544,-193.253,321.473,550.220,116.400,17.940
898,39025.131000,233.397,-19.075,94.208,389.887,-184.863,331.592,592.220,196.400,14.940
899,39025.167000,236.345,-12.047,100.352,387.239,-171.899,340.816,647.220,248.400,6.940
900,39025.187000,257.965,-6.024,98.304,385.475,-163.483,350.939,1018.220,158.400,98.940
901,39025.227000,252.069,4.016,83.968,382.798,-152.391,358.134,786.220,108.400,109.940
902,39025.267000,233.397,46.180,71.680,382.068,-137.550,368.395,820.220,39.400,45.940
903,39025.312000,264.845,67.263,52.224,387.017,-121.855,371.720,738.220,-15.600,44.940
904,39025.352000,265.827,89.349,76.800,387.185,-109.886,374.959,624.220,41.400,-42.060
905,39025.392000,251.086,94.369,86.016,388.318,-96.911,382.199,699.220,100.400,-7.060
906,39025.412000,231.432,67.263,65.536,382.695,-93.263,385.252,637.220,14.400,104.940
907,39025.452000,217.674,51.200,52.224,384.660,-88.540,391.324,538.220,29.400,51.940
908,39025.492000,226.518,75.294,41.984,385.830,-72.057,390.682,473.220,-33.600,14.940
909,39025.537000,236.345,87.341,29.696,389.698,-66.413,395.781,300.220,-107.600,-96.060
910,39025.567000,245.190,87.341,28.672,393.574,-59.151,389.973,201.220,-80.600,-141.060
911,39025.619000,247.155,92.361,34.816,389.811,-58.168,395.956,257.220,36.400,-86.060
912,39025.638000,239.294,83.325,44.032,389.079,-42.586,397.281,549.220,138.400,-60.060
913,39025.667000,240.276,95.373,52.224,382.645,-29.672,406.498,772.220,246.400,-140.060
914,39025.708000,228.484,91.357,59.392,377.234,-10.450,409.883,880.220,276.400,-22.060
915,39025.748000,225.536,100.392,65.536,371.841,9.747,416.273,932.220,259.400,-99.060
916,39025.788000,211.777,91.357,64.512,364.445,21.693,423.479,834.220,264.400,10.940
917,39025.828000,239.294,68.267,58.368,360.794,31.682,421.697,696.220,135.400,98.940
918,39025.872000,253.052,55.216,60.416,358.989,38.070,421.830,585.220,46.400,139.940
919,39025.892000,229.466,42.165,76.800,356.268,46.336,424.986,435.220,38.400,148.940
920,39025.932000,273.689,44.173,100.352,348.665,43.546,427.899,303.220,253.400,186.940
921,39025.972000,242.242,35.137,89.088,351.621,51.887,431.065,313.220,105.400,256.940
922,39026.12000,235.363,33.129,75.776,348.816,54.559,429.129,493.220,155.400,246.940
923,39026.52000,231.432,27.106,63.488,345.084,58.213,431.190,627.220,92.400,368.940
924,39026.92000,219.639,35.137,60.416,344.283,69.135,428.437,665.220,26.400,417.940
925,39026.112000,225.536,34.133,64.512,345.215,68.212,427.424,643.220,93.400,402.940
926,39026.152000,229.466,37.145,73.728,335.846,74.578,431.525,670.220,133.400,357.940
927,39026.192000,231.432,55.216,73.728,336.980,88.333,431.819,776.220,99.400,324.940
928,39026.231000,248.138,42.165,68.608,336.238,103.797,427.174,772.220,125.400,253.940
929,39026.268000,246.173,41.161,59.392,328.730,108.278,427.258,630.220,40.400,230.940
930,39026.308000,239.294,39.153,49.152,332.671,120.159,423.538,567.220,-43.600,151.940
931,39026.328000,247.155,22.086,33.792,333.647,122.823,418.623,669.220,-115.600,200.940
932,39026.368000,251.086,25.098,30.720,334.660,128.234,413.767,570.220,-223.600,186.940
933,39026.410000,247.155,17.067,41.984,338.633,142.806,407.120,708.220,-289.600,70.940
934,39026.449000,287.447,37.145,31.744,342.511,150.867,395.362,679.220,-319.600,-8.060
935,39026.490000,235.363,54.212,88.064,350.329,170.030,386.830,732.220,-400.600,-50.060
936,39026.530000,249.121,34.133,83.968,352.318,178.105,377.058,808.220,-208.600,-18.060
937,39026.570000,247.155,74.290,97.280,349.584,186.235,373.248,571.220,19.400,-151.060
938,39026.590000,233.397,113.443,112.640,343.269,209.011,371.735,548.220,290.400,-283.060
939,39026.630000,248.138,95.373,71.680,337.709,217.240,374.885,440.220,304.400,-158.060
940,39026.670000,237.328,77.302,72.704,324.343,207.222,386.588,-726.780,504.400,-111.060
941,39026.709000,239.294,60.235,63.488,309.084,196.399,405.233,-977.780,555.400,-104.060
942,39026.750000,233.397,64.251,45.056,303.292,186.520,418.939,-870.780,444.400,-45.060
943,39026.790000,230.449,39.153,49.152,294.451,161.828,426.358,-1031.780,346.400,-134.060
944,39026.810000,207.846,57.224,55.296,289.563,149.154,437.022,-789.780,289.400,-107.060
945,39026.850000,219.639,54.212,79.872,276.095,131.787,447.573,-795.780,328.400,-120.060
946,39026.897000,205.881,60.235,78.848,272.192,122.654,451.352,-707.780,196.400,-199.060
947,39026.933000,203.916,66.259,97.280,270.031,102.552,454.899,-781.780,158.400,-250.060
948,39026.973000,210.795,78.306,99.328,264.284,97.058,458.752,-889.780,24.400,-339.060
949,39027.8000,211.777,82.322,93.184,266.019,85.232,461.487,-852.780,-37.600,-370.060
950,39027.28000,188.192,80.314,101.376,263.780,59.594,462.928,-1006.780,-60.600,-349.060
951,39027.68000,216.691,73.286,110.592,266.455,47.703,461.684,-1048.780,-148.600,-455.060
952,39027.108000,231.432,76.298,113.664,269.878,21.964,454.179,-1099.780,-238.600,-497.060
953,39027.148000,251.086,58.227,119.808,274.510,14.698,454.031,-1252.780,-253.600,-555.060
954,39027.188000,252.069,45.176,119.808,279.965,-0.918,447.739,-1183.780,-396.600,-498.060
955,39027.228000,244.207,18.071,111.616,286.264,-23.890,439.302,-1149.780,-355.600,-375.060
956,39027.248000,240.276,-8.031,117.760,294.506,-43.153,431.942,-1111.780,-212.600,-190.060
957,39027.292000,244.207,-15.059,113.664,294.264,-60.618,428.586,-948.780,-59.600,-164.060
958,39027.333000,233.397,-7.027,120.832,294.142,-69.741,430.381,-745.780,124.400,-137.060
959,39027.373000,230.449,-1.004,114.688,288.272,-83.616,427.093,-588.780,336.400,-155.060
960,39027.413000,227.501,-13.051,115.712,280.597,-91.864,431.879,-484.780,455.400,-150.060
961,39027.451000,218.656,-21.082,129.024,273.818,-103.764,436.589,-402.780,527.400,-154.060
962,39027.490000,226.518,-33.129,119.808,259.709,-98.337,442.651,-126.780,666.400,-183.060
963,39027.510000,224.553,-21.082,105.472,247.374,-101.969,452.502,-81.780,888.400,-308.060
964,39027.548000,208.829,-8.031,113.664,225.694,-97.403,466.492,194.220,1223.400,-308.060
965,39027.588000,204.898,10.039,148.480,199.460,-80.053,481.742,147.220,1151.400,-193.060
966,39027.628000,213.743,19.075,148.480,176.855,-73.726,492.785,304.220,1077.400,-223.060
967,39027.669000,174.434,48.188,155.648,160.925,-63.627,504.912,416.220,743.400,-195.060
968,39027.715000,142.987,70.275,189.440,150.581,-59.145,506.981,313.220,514.400,-71.060
969,39027.728000,155.762,80.314,220.160,140.354,-46.378,511.216,227.220,338.400,-84.060
970,39027.775000,148.883,86.337,225.280,131.829,-47.348,514.167,160.220,229.400,-134.060
971,39027.814000,138.073,83.325,205.824,134.818,-36.317,514.406,150.220,76.400,-156.060
972,39027.855000,140.038,83.325,199.680,134.793,-38.149,514.367,158.220,-115.600,-180.060
973,39027.893000,139.056,88.345,190.464,140.532,-33.513,513.479,165.220,-185.600,-179.060
974,39027.932000,138.073,94.369,190.464,150.159,-21.459,514.745,53.220,-281.600,-191.060
975,39027.971000,140.038,98.384,177.152,157.585,-31.515,510.563,-83.780,-314.600,-205.060
976,39027.991000,138.073,85.333,174.080,167.159,-23.164,509.761,-206.780,-346.600,-172.060
977,39028.31000,143.969,78.306,192.512,181.186,-34.945,506.547,-296.780,-321.600,-80.060
978,39028.71000,139.056,72.282,193.536,187.806,-34.916,503.573,-231.780,-356.600,-72.060
979,39028.111000,121.367,97.380,183.296,200.947,-42.148,499.460,-278.780,-544.600,-67.060
980,39028.152000,137.090,98.384,173.056,219.732,-51.254,489.348,-447.780,-840.600,1.940
981,39028.195000,160.676,106.416,148.480,246.912,-68.591,474.099,-682.780,-961.600,89.940
982,39028.215000,226.518,80.314,138.240,266.536,-85.092,459.852,-955.780,-817.600,132.940
983,39028.255000,224.553,25.098,145.408,282.192,-114.567,440.350,-969.780,-828.600,288.940
984,39028.295000,252.069,10.039,128.000,297.149,-126.530,427.187,-738.780,-755.600,187.940
985,39028.331000,294.326,21.082,137.216,306.511,-132.974,419.107,-340.780,-475.600,190.940
986,39028.369000,274.672,-4.016,122.880,317.780,-138.457,412.044,129.220,-454.600,255.940
987,39028.409000,231.432,41.161,112.640,325.328,-139.391,406.068,22.220,-314.600,165.940
988,39028.430000,211.777,49.192,102.400,331.819,-148.562,400.909,-179.780,-302.600,120.940
989,39028.470000,212.760,28.110,99.328,334.628,-150.415,397.890,-132.780,-283.600,130.940
990,39028.509000,201.950,23.090,106.496,342.028,-161.543,385.728,-211.780,-462.600,182.940
991,39028.551000,230.449,5.020,86.016,349.614,-159.728,379.810,-112.780,-487.600,132.940
992,39028.592000,231.432,12.047,91.136,356.987,-172.708,366.615,-81.780,-497.600,111.940
993,39028.630000,247.155,9.035,83.968,369.367,-166.249,360.803,-124.780,-405.600,61.940
994,39028.671000,244.207,10.039,79.872,373.141,-166.336,353.844,-14.780,-329.600,67.940
995,39028.691000,230.449,12.047,76.800,375.914,-170.918,351.761,-109.780,-179.600,39.940
996,39028.732000,212.760,11.043,68.608,380.596,-173.740,344.746,-143.780,-149.600,64.940
997,39028.780000,232.415,2.008,74.752,381.383,-185.599,346.484,29.220,3.400,158.940
998,39028.815000,244.207,3.012,60.416,382.444,-177.321,347.656,306.220,-74.600,152.940
999,39028.854000,243.225,12.047,98.304,382.415,-179.193,345.627,63.220,-34.600,94.940
1000,39028.899000,238.311,29.114,77.824,386.200,-178.383,337.693,241.220,-323.600,118.940
1001,39028.915000,221.605,19.075,80.896,392.903,-171.980,332.866,57.220,-500.600,-19.060
1002,39028.955000,239.294,22.086,75.776,401.407,-172.023,324.920,142.220,-466.600,-109.060
1003,39028.990000,252.069,21.082,80.896,405.296,-163.826,320.127,263.220,-194.600,-93.060
1004,39029.30000,249.121,3.012,70.656,408.281,-153.613,325.322,612.220,32.400,-128.060
1005,39029.76000,243.225,14.055,57.344,410.207,-151.658,330.340,153.220,106.400,-134.060
1006,39029.116000,241.259,19.075,63.488,403.698,-143.462,332.494,263.220,201.400,-125.060
1007,39029.136000,243.225,26.102,61.440,406.672,-134.146,338.664,374.220,163.400,-122.060
1008,39029.176000,241.259,33.129,64.512,405.797,-129.480,343.736,343.220,123.400,-96.060
1009,39029.216000,238.311,45.176,69.632,403.975,-124.827,348.805,276.220,145.400,-141.060
1010,39029.256000,236.345,51.200,63.488,403.187,-113.748,354.013,264.220,123.400,-98.060
1011,39029.296000,236.345,46.180,65.536,402.246,-113.702,356.996,283.220,112.400,-67.060
1012,39029.343000,233.397,52.204,82.944,399.554,-103.545,363.176,213.220,157.400,-73.060
1013,39029.372000,236.345,39.153,82.944,400.502,-103.513,364.173,333.220,31.400,33.940
1014,39029.392000,232.415,47.184,84.992,397.745,-97.976,368.266,148.220,87.400,32.940
1015,39029.443000,234.380,34.133,65.536,395.879,-96.149,369.296,117.220,-5.600,79.940
1016,39029.476000,236.345,34.133,76.800,400.596,-97.022,368.290,23.220,-57.600,138.940
1017,39029.511000,238.311,36.141,71.680,399.620,-98.925,365.264,128.220,-296.600,152.940
1018,39029.551000,242.242,39.153,84.992,403.330,-103.612,357.213,80.220,-273.600,238.940
1019,39029.591000,244.207,26.102,79.872,402.357,-105.476,356.177,46.220,-150.600,208.940
1020,39029.617000,247.155,23.090,77.824,406.960,-114.614,354.000,-18.780,-82.600,141.940
1021,39029.653000,239.294,21.082,70.656,405.141,-109.162,353.119,-2.780,-12.600,64.940
1022,39029.693000,241.259,27.106,71.680,403.181,-114.586,357.974,38.220,102.400,39.940
1023,39029.732000,241.259,33.129,75.776,400.414,-109.166,356.096,55.220,52.400,42.940
1024,39029.772000,240.276,25.098,71.680,400.361,-113.630,361.968,65.220,60.400,38.940
1025,39029.812000,236.345,26.102,77.824,401.276,-115.527,357.951,36.220,52.400,45.940
1026,39029.832000,238.311,23.090,76.800,397.587,-109.067,363.056,47.220,7.400,39.940
1027,39029.872000,240.276,23.090,78.848,399.390,-115.474,361.928,45.220,28.400,22.940
1028,39029.912000,240.276,25.098,79.872,395.730,-106.363,362.116,87.220,40.400,32.940
1029,39029.952000,240.276,21.082,80.896,397.617,-107.176,366.080,124.220,89.400,-24.060
1030,39029.992000,244.207,13.051,81.920,393.886,-103.503,369.137,216.220,174.400,-56.060
1031,39030.33000,234.380,17.067,86.016,389.292,-94.268,376.289,380.220,244.400,-165.060
1032,39030.73000,234.380,2.008,87.040,387.673,-74.917,383.661,938.220,251.400,-93.060
1033,39030.93000,234.380,18.071,79.872,381.236,-62.042,390.888,1278.220,221.400,-85.060
1034,39030.133000,232.415,50.196,76.800,375.983,-32.508,406.428,1503.220,228.400,34.940
1035,39030.173000,231.432,59.231,74.752,378.207,-8.586,410.919,1479.220,212.400,34.940
1036,39030.216000,229.466,71.278,79.872,372.870,16.114,413.426,1356.220,173.400,54.940
1037,39030.256000,233.397,67.263,77.824,366.589,40.821,416.927,1029.220,103.400,130.940
1038,39030.296000,233.397,65.255,79.872,366.689,48.150,417.083,849.220,93.400,206.940
1039,39030.314000,233.397,62.243,79.872,362.143,61.810,416.372,727.220,59.400,302.940
1040,39030.356000,234.380,60.235,80.896,364.151,70.119,418.541,574.220,44.400,278.940
1041,39030.397000,233.397,60.235,77.824,367.971,72.878,416.616,500.220,29.400,271.940
1042,39030.437000,231.432,55.216,80.896,363.302,77.396,416.706,447.220,36.400,179.940
1043,39030.477000,235.363,54.212,77.824,365.307,85.667,416.885,409.220,-16.600,155.940
1044,39030.517000,237.328,53.208,70.656,367.159,82.904,414.839,354.220,-48.600,138.940
1045,39030.537000,232.415,51.200,75.776,364.365,86.473,411.927,221.220,-5.600,91.940
1046,39030.577000,236.345,60.235,74.752,367.309,93.898,415.074,147.220,-32.600,29.940
1047,39030.617000,237.328,58.227,71.680,367.229,88.342,411.971,49.220,-56.600,2.940
1048,39030.657000,236.345,60.235,69.632,370.129,92.941,411.079,-97.780,-43.600,-78.060
1049,39030.697000,233.397,56.220,74.752,370.102,91.089,410.045,-206.780,-35.600,-77.060
1050,39030.742000,231.432,55.216,73.728,371.996,91.134,411.043,-252.780,-69.600,-108.060
1051,39030.773000,237.328,59.231,71.680,374.712,82.030,411.848,-261.780,-72.600,-153.060
1052,39030.793000,236.345,58.227,68.608,370.986,86.521,409.949,-234.780,-87.600,-139.060
1053,39030.833000,238.311,63.247,70.656,377.428,73.705,405.707,-243.780,-108.600,-138.060
1054,39030.873000,235.363,61.239,68.608,379.444,82.872,404.910,-180.780,-106.600,-127.060
1055,39030.913000,235.363,65.255,65.536,374.605,74.622,407.712,-168.780,-80.600,-113.060
1056,39030.953000,238.311,72.282,63.488,376.438,70.866,401.667,-241.780,-83.600,-58.060
1057,39030.993000,234.380,71.278,68.608,382.030,64.547,402.535,-388.780,-77.600,-24.060
1058,39031.13000,235.363,71.278,54.272,382.887,58.127,401.405,-509.780,-77.600,12.940
1059,39031.53000,243.225,64.251,59.392,389.338,45.409,402.138,-725.780,-71.600,-123.060
1060,39031.93000,235.363,56.220,60.416,389.138,30.750,401.826,-840.780,-127.600,-171.060
1061,39031.133000,232.415,53.208,64.512,390.054,28.872,398.804,-783.780,-138.600,-274.060
1062,39031.173000,235.363,50.196,65.536,392.830,24.329,398.711,-672.780,-142.600,-302.060
1063,39031.213000,237.328,41.161,64.512,396.546,19.720,394.640,-579.780,-148.600,-363.060
1064,39031.233000,241.259,55.216,71.680,393.649,15.921,389.582,-481.780,-77.600,-322.060
1065,39031.273000,235.363,58.227,65.536,399.266,11.434,390.489,-466.780,-94.600,-289.060
1066,39031.313000,230.449,58.227,73.728,403.059,12.342,387.530,-453.780,-67.600,-226.060
1067,39031.368000,233.397,66.259,78.848,399.081,-1.508,384.246,-438.780,-67.600,-196.060
1068,39031.397000,229.466,61.239,75.776,402.954,4.954,384.389,-340.780,-106.600,-187.060
