Sample, Time, ACCX, ACCY, ACCZ, MAGX, MAGY, MAGZ, GYRX, GYRY, GYRZ
0,39167.700000,221.605,50.196,117.760,330.855,-82.294,419.227,-33.780,17.400,19.940
1,39167.737000,224.553,54.212,118.784,328.976,-81.383,420.238,-35.780,22.400,19.940
2,39167.759000,219.639,48.188,119.808,327.076,-82.266,423.200,-72.780,12.400,30.940
3,39167.798000,214.726,45.176,114.688,330.806,-85.939,420.144,-89.780,-11.600,13.940
4,39167.839000,213.743,45.176,114.688,330.803,-85.978,418.154,-113.780,-13.600,7.940
5,39167.876000,217.674,44.173,117.760,329.762,-93.261,420.981,-109.780,-1.600,20.940
6,39167.916000,218.656,46.180,121.856,331.704,-89.571,421.062,-41.780,3.400,6.940
7,39167.956000,221.605,44.173,116.736,331.688,-90.526,419.053,-6.780,-7.600,2.940
8,39167.975000,222.587,45.176,115.712,328.848,-90.583,418.053,8.220,-29.600,-7.060
9,39168.15000,215.708,45.176,116.736,329.785,-91.448,420.025,-12.780,-39.600,0.940
10,39168.55000,221.605,45.176,121.856,330.650,-97.010,415.929,-22.780,-3.600,18.940
11,39168.99000,219.639,47.184,120.832,332.630,-90.572,416.069,-20.780,-17.600,-24.060
12,39168.141000,219.639,46.180,113.664,330.655,-96.952,418.915,-12.780,-16.600,-4.060
13,39168.186000,218.656,48.188,116.736,333.494,-96.914,418.920,2.220,0.400,11.940
14,39168.221000,216.691,45.176,118.784,330.715,-92.391,418.017,11.220,-20.600,2.940
15,39168.239000,221.605,44.173,117.760,330.726,-91.494,417.042,32.220,-18.600,30.940
16,39168.279000,217.674,38.149,118.784,334.438,-96.921,417.926,56.220,-30.600,34.940
17,39168.319000,219.639,39.153,116.736,330.692,-94.203,418.973,109.220,-38.600,38.940
18,39168.361000,221.605,41.161,113.664,331.648,-93.314,417.004,195.220,-34.600,56.940
19,39168.399000,226.518,42.165,111.616,332.651,-88.779,414.118,240.220,-40.600,72.940
20,39168.441000,220.622,49.192,106.496,335.508,-87.767,417.128,287.220,-63.600,76.940
21,39168.461000,221.605,54.212,106.496,333.665,-84.127,417.203,255.220,-46.600,67.940
22,39168.501000,221.605,59.231,101.376,338.588,-70.284,419.494,285.220,-36.600,76.940
23,39168.541000,221.605,54.212,107.520,336.597,-77.618,420.329,244.220,-5.600,108.940
24,39168.581000,224.553,60.235,101.376,336.636,-74.851,421.383,222.220,-21.600,85.940
25,39168.621000,225.536,56.220,98.304,333.954,-63.037,418.647,191.220,-18.600,99.940
26,39168.661000,223.570,51.200,107.520,334.842,-67.566,420.541,122.220,9.400,131.940
27,39168.679000,222.587,53.208,103.424,332.977,-65.720,422.567,138.220,-17.600,142.940
28,39168.720000,225.536,47.184,101.376,331.100,-64.790,424.573,96.220,-5.600,151.940
29,39168.760000,224.553,49.192,110.592,332.993,-64.765,424.576,38.220,-14.600,145.940
30,39168.800000,224.553,40.157,111.616,331.000,-72.119,424.417,111.220,-26.600,163.940
31,39168.840000,226.518,38.149,110.592,329.183,-66.647,424.531,164.220,-10.600,131.940
32,39168.877000,226.518,36.141,111.616,332.025,-66.570,426.526,267.220,16.400,98.940
33,39168.917000,225.536,35.137,111.616,331.989,-69.299,427.462,433.220,57.400,104.940
34,39168.937000,222.587,24.094,118.784,328.464,-50.909,433.816,605.220,134.400,112.940
35,39168.977000,226.518,51.200,101.376,322.940,-39.952,436.030,879.220,182.400,167.940
36,39169.15000,217.674,34.133,112.640,316.541,-24.309,444.311,1001.220,214.400,198.940
37,39169.62000,222.587,52.204,100.352,310.386,9.579,449.002,1295.220,263.400,94.940
38,39169.102000,220.622,56.220,97.280,307.738,23.322,451.280,1309.220,263.400,160.940
39,39169.142000,219.639,56.220,98.304,304.278,47.092,451.780,1364.220,217.400,197.940
40,39169.161000,221.605,72.282,91.136,299.002,76.352,453.390,1275.220,182.400,253.940
41,39169.201000,222.587,76.298,89.088,294.486,91.903,455.703,1216.220,191.400,320.940
42,39169.240000,220.622,80.314,90.112,291.065,118.440,457.258,1061.220,191.400,345.940
43,39169.275000,225.536,83.325,88.064,287.429,130.144,449.544,1006.220,160.400,337.940
44,39169.315000,223.570,82.322,84.992,289.434,138.414,449.723,861.220,135.400,306.940
45,39169.355000,225.536,85.333,88.064,287.753,153.944,449.057,681.220,113.400,227.940
46,39169.375000,228.484,82.322,83.968,285.002,161.099,442.243,674.220,61.400,215.940
47,39169.415000,232.415,81.318,81.920,287.950,169.343,440.433,466.220,53.400,98.940
48,39169.461000,231.432,83.325,81.920,286.192,179.356,438.654,299.220,58.400,100.940
49,39169.501000,230.449,86.337,82.944,286.154,176.608,438.596,198.220,28.400,76.940
50,39169.536000,227.501,88.345,75.776,288.133,183.026,437.741,37.220,-5.600,62.940
51,39169.584000,231.432,84.329,74.752,286.138,175.652,436.586,-95.780,-45.600,109.940
52,39169.615000,225.536,72.282,72.704,289.921,174.903,442.544,-326.780,-46.600,109.940
53,39169.640000,226.518,71.278,76.800,294.473,162.081,439.294,-393.780,-89.600,73.940
54,39169.682000,228.484,73.286,79.872,293.442,155.695,441.145,-403.780,-135.600,15.940
55,39169.726000,236.345,72.282,83.968,291.351,141.031,441.825,-407.780,-169.600,-21.060
56,39169.759000,231.432,66.259,80.896,300.788,139.305,440.807,-420.780,-190.600,-55.060
57,39169.801000,227.501,69.271,79.872,300.627,127.415,441.549,-428.780,-176.600,-61.060
58,39169.841000,226.518,70.275,81.920,303.421,123.846,444.461,-447.780,-149.600,-68.060
59,39169.861000,226.518,70.275,82.944,305.212,116.522,443.313,-593.780,-81.600,-58.060
60,39169.902000,228.484,72.282,90.112,307.743,93.715,445.815,-812.780,7.400,-64.060
61,39169.940000,226.518,70.275,83.968,308.544,82.793,448.568,-946.780,32.400,-135.060
62,39169.980000,225.536,76.298,88.064,300.652,58.912,450.037,-1065.780,60.400,-173.060
63,39170.20000,228.484,65.255,94.208,305.139,40.711,452.640,-1212.780,31.400,-167.060
64,39170.60000,233.397,49.192,87.040,302.055,22.409,455.230,-1291.780,48.400,-182.060
65,39170.81000,221.605,43.169,93.184,303.580,-4.192,451.682,-1175.780,20.400,-150.060
66,39170.121000,228.484,31.122,105.472,301.399,-25.288,451.230,-1177.780,18.400,-139.060
67,39170.160000,221.605,27.106,108.544,304.851,-49.156,445.754,-1102.780,-15.600,-104.060
68,39170.199000,223.570,14.055,121.856,303.537,-75.794,442.201,-998.780,-27.600,-84.060
69,39170.251000,222.587,19.075,113.664,301.513,-85.059,438.023,-899.780,-56.600,-53.060
70,39170.276000,224.553,7.027,115.712,306.085,-96.107,431.827,-804.780,-78.600,-33.060
71,39170.319000,223.570,9.035,110.592,304.896,-113.585,428.469,-547.780,-143.600,-40.060
72,39170.344000,217.674,2.008,109.568,308.566,-121.039,419.364,-486.780,-208.600,-66.060
73,39170.382000,228.484,0.000,113.664,317.894,-130.193,413.215,-382.780,-189.600,-75.060
74,39170.424000,231.432,2.008,106.496,318.784,-133.923,409.158,-309.780,-219.600,-85.060
75,39170.466000,234.380,2.008,105.472,323.580,-128.481,403.314,-260.780,-207.600,-83.060
76,39170.499000,236.345,-1.004,100.352,327.157,-143.186,398.033,-197.780,-215.600,-92.060
77,39170.539000,234.380,-1.004,91.136,334.805,-136.790,392.212,-146.780,-246.600,-80.060
78,39170.560000,232.415,0.000,91.136,339.521,-137.683,390.211,-122.780,-233.600,-69.060
79,39170.601000,238.311,-2.008,98.304,339.478,-140.490,387.167,-140.780,-157.600,-49.060
80,39170.637000,240.276,0.000,95.232,343.171,-146.912,384.052,-89.780,-115.600,-26.060
81,39170.682000,238.311,0.000,92.160,347.050,-139.611,380.235,-28.780,-94.600,-43.060
82,39170.716000,239.294,6.024,89.088,345.107,-143.300,380.153,25.220,-49.600,-49.060
83,39170.760000,236.345,11.043,92.160,347.982,-140.534,379.222,40.220,-30.600,-65.060
84,39170.781000,234.380,14.055,93.184,351.819,-136.800,380.302,56.220,-11.600,-69.060
85,39170.820000,231.432,18.071,94.208,349.917,-137.702,382.269,72.220,-2.600,-77.060
86,39170.856000,230.449,19.075,92.160,346.144,-136.836,382.282,81.220,-6.600,-71.060
87,39170.904000,231.432,22.086,93.184,352.822,-133.045,384.362,99.220,-18.600,-52.060
88,39170.944000,233.397,20.078,92.160,351.983,-124.870,381.550,133.220,-33.600,-39.060
89,39170.984000,236.345,23.090,89.088,351.922,-129.432,382.448,161.220,-52.600,-21.060
90,39171.4000,235.363,27.106,89.088,355.875,-117.413,385.693,180.220,-51.600,-17.060
91,39171.40000,233.397,28.110,88.064,352.097,-116.606,382.721,207.220,-56.600,-8.060
92,39171.81000,234.380,29.114,89.088,358.814,-110.047,385.855,187.220,-67.600,-18.060
93,39171.117000,234.380,30.118,89.088,359.737,-111.847,386.812,172.220,-83.600,-28.060
94,39171.161000,241.259,31.122,88.064,359.744,-110.989,383.847,134.220,-82.600,-0.060
95,39171.197000,233.397,36.141,87.040,362.655,-105.494,381.979,134.220,-111.600,-18.060
96,39171.240000,232.415,32.125,84.992,364.482,-110.089,379.894,109.220,-138.600,2.940
97,39171.264000,235.363,33.129,81.920,367.471,-99.058,380.133,92.220,-149.600,24.940
98,39171.304000,237.328,32.125,76.800,371.171,-104.622,374.053,60.220,-161.600,35.940
99,39171.341000,240.276,32.125,76.800,372.078,-107.377,373.001,60.220,-157.600,57.940
100,39171.381000,238.311,30.118,75.776,375.924,-102.766,372.110,38.220,-161.600,41.940
101,39171.421000,239.294,29.114,72.704,377.748,-107.400,368.035,18.220,-164.600,39.940
102,39171.461000,239.294,29.114,73.728,379.656,-106.419,370.048,1.220,-151.600,33.940
103,39171.481000,241.259,29.114,71.680,383.492,-101.925,363.187,-1.780,-152.600,22.940
104,39171.523000,239.294,26.102,67.584,384.398,-104.700,361.140,7.220,-142.600,17.940
105,39171.562000,241.259,27.106,67.584,387.185,-108.347,360.072,7.220,-122.600,12.940
106,39171.602000,242.242,26.102,69.632,390.056,-105.619,357.150,22.220,-115.600,4.940
107,39171.640000,239.294,28.110,67.584,389.042,-110.271,354.066,19.220,-96.600,-12.060
108,39171.686000,246.173,29.114,66.560,393.911,-100.131,354.289,22.220,-67.600,1.940
109,39171.697000,238.311,30.118,64.512,393.786,-109.292,354.094,-0.780,-52.600,-28.060
110,39171.740000,242.242,29.114,63.488,396.675,-105.590,354.177,13.220,-56.600,-23.060
111,39171.780000,242.242,28.110,63.488,396.749,-100.113,353.299,13.220,-47.600,-23.060
112,39171.825000,244.207,28.110,64.512,396.763,-99.178,354.314,10.220,-51.600,-14.060
113,39171.865000,244.207,28.110,63.488,395.826,-98.313,352.341,14.220,-50.600,-1.060
114,39171.901000,242.242,29.114,63.488,399.554,-102.006,348.290,20.220,-54.600,-1.060
115,39171.937000,244.207,30.118,59.392,401.474,-100.129,349.327,40.220,-49.600,3.940
116,39171.962000,243.225,28.110,62.464,398.646,-99.270,348.347,38.220,-42.600,10.940
117,39172.6000,241.259,30.118,61.440,399.615,-97.444,347.392,32.220,-45.600,2.940
118,39172.37000,243.225,29.114,57.344,400.515,-101.057,349.306,21.220,-54.600,4.940
119,39172.77000,243.225,29.114,58.368,403.395,-98.232,351.360,20.220,-46.600,11.940
120,39172.130000,240.276,28.110,55.296,403.385,-98.350,345.389,13.220,-19.600,-8.060
121,39172.165000,241.259,27.106,56.320,400.521,-100.219,345.345,31.220,8.400,-11.060
122,39172.192000,243.225,30.118,62.464,402.482,-95.536,349.426,27.220,9.400,1.940
123,39172.234000,241.259,28.110,59.392,402.352,-104.755,346.246,14.220,-9.600,-6.060
124,39172.262000,244.207,30.118,56.320,399.551,-102.045,346.300,17.220,-1.600,-3.060
125,39172.301000,243.225,28.110,60.416,400.580,-95.678,343.453,12.220,4.400,-0.060
126,39172.342000,242.242,29.114,61.440,399.628,-96.528,347.412,1.220,-2.600,1.940
127,39172.382000,243.225,29.114,59.392,398.681,-96.541,347.410,3.220,-13.600,13.940
128,39172.402000,244.207,27.106,59.392,400.555,-97.510,343.414,-2.780,-26.600,15.940
129,39172.439000,244.207,28.110,58.368,399.587,-99.316,345.363,8.220,-27.600,14.940
130,39172.486000,243.225,29.114,59.392,396.678,-104.791,348.226,9.220,-25.600,15.940
131,39172.519000,243.225,29.114,61.440,400.532,-99.323,344.370,-2.780,-29.600,18.940
132,39172.559000,240.276,28.110,60.416,400.489,-102.130,341.326,-3.780,-31.600,17.940
133,39172.599000,244.207,28.110,58.368,402.385,-102.066,343.319,-4.780,-42.600,14.940
134,39172.644000,244.207,27.106,58.368,403.237,-108.544,339.204,-10.780,-48.600,15.940
135,39172.664000,245.190,26.102,57.344,403.353,-100.260,341.370,-9.780,-54.600,17.940
136,39172.704000,244.207,26.102,56.320,403.283,-105.698,344.238,-1.780,-58.600,5.940
137,39172.744000,248.138,23.090,52.224,407.995,-106.630,340.247,-0.780,-36.600,15.940
138,39172.784000,245.190,28.110,58.368,408.081,-100.236,339.388,-5.780,-23.600,-8.060
139,39172.821000,243.225,26.102,54.272,407.124,-101.145,340.362,-14.780,-26.600,0.940
140,39172.866000,245.190,25.098,52.224,403.339,-101.196,340.355,-14.780,2.400,-1.060
141,39172.886000,247.155,24.094,53.248,404.244,-103.970,338.308,-7.780,16.400,-1.060
142,39172.926000,246.173,25.098,53.248,404.298,-100.267,340.377,-0.780,10.400,3.940
143,39172.965000,244.207,24.094,54.272,404.249,-103.912,341.294,-11.780,20.400,-5.060
144,39173.5000,244.207,24.094,53.248,406.190,-100.242,340.380,-0.780,33.400,-10.060
145,39173.39000,245.190,23.090,56.320,404.279,-102.021,344.318,-3.780,35.400,-12.060
146,39173.79000,245.190,24.094,57.344,405.224,-102.028,343.324,-4.780,42.400,-19.060
147,39173.107000,245.190,25.098,58.368,398.561,-104.884,342.259,-5.780,48.400,-22.060
148,39173.139000,245.190,24.094,57.344,403.319,-102.969,343.302,-5.780,59.400,-27.060
149,39173.192000,244.207,24.094,59.392,399.585,-99.335,344.368,-10.780,83.400,-38.060
150,39173.219000,242.242,25.098,61.440,400.546,-98.387,345.384,-0.780,89.400,-45.060
151,39173.259000,243.225,28.110,59.392,399.601,-98.380,346.378,-1.780,89.400,-48.060
152,39173.309000,242.242,28.110,61.440,395.832,-97.475,348.381,7.220,108.400,-66.060
153,39173.320000,242.242,30.118,60.416,396.763,-99.178,354.314,2.220,116.400,-78.060
154,39173.360000,241.259,33.129,65.536,392.033,-99.221,355.300,-12.780,121.400,-79.060
155,39173.402000,239.294,32.125,63.488,392.135,-91.872,356.451,-17.780,122.400,-83.060
156,39173.451000,241.259,32.125,66.560,388.356,-91.844,360.425,-27.780,122.400,-86.060
157,39173.486000,240.276,31.122,68.608,390.180,-97.238,364.292,-33.780,118.400,-80.060
158,39173.526000,243.225,30.118,69.632,390.265,-90.864,362.438,-31.780,114.400,-77.060
159,39173.564000,238.311,29.114,73.728,388.316,-95.391,366.317,-64.780,137.400,-53.060
160,39173.584000,238.311,35.137,74.752,381.695,-95.440,368.296,-62.780,112.400,-68.060
161,39173.624000,237.328,33.129,75.776,383.680,-88.943,371.421,-60.780,112.400,-79.060
162,39173.664000,238.311,34.133,76.800,380.826,-89.936,369.406,-67.780,100.400,-74.060
163,39173.702000,238.311,34.133,81.920,381.802,-88.033,372.432,-70.780,94.400,-77.060
164,39173.746000,237.328,34.133,79.872,379.877,-90.748,375.355,-60.780,87.400,-83.060
165,39173.784000,236.345,35.137,81.920,377.954,-92.663,372.328,-60.780,75.400,-87.060
166,39173.806000,236.345,34.133,79.872,378.895,-93.489,376.290,-55.780,55.400,-74.060
167,39173.844000,235.363,35.137,81.920,378.970,-87.992,376.407,-91.780,40.400,-80.060
168,39173.880000,237.328,35.137,84.992,380.800,-92.548,376.313,-123.780,29.400,-89.060
169,39173.920000,233.397,31.122,84.992,378.968,-88.012,375.412,-161.780,13.400,-92.060
170,39173.960000,227.501,32.125,83.968,377.920,-95.373,374.259,-197.780,7.400,-105.060
171,39174.0,219.639,32.125,89.088,376.027,-95.398,374.256,-236.780,52.400,-83.060
172,39174.20000,231.432,27.106,105.472,375.133,-91.726,375.328,-193.780,102.400,-57.060
173,39174.60000,239.294,25.098,96.256,376.979,-95.327,377.243,-57.780,132.400,7.940
174,39174.100000,230.449,35.137,83.968,373.209,-94.421,379.246,80.220,125.400,47.940
175,39174.150000,239.294,40.157,68.608,372.270,-94.356,383.224,161.220,121.400,78.940
176,39174.184000,246.173,43.169,79.872,369.403,-97.025,389.131,233.220,153.400,70.940
177,39174.227000,254.035,51.200,88.064,366.639,-91.565,389.243,288.220,159.400,55.940
178,39174.267000,233.397,50.196,88.064,366.723,-85.971,394.336,168.220,85.400,32.940
179,39174.287000,227.501,53.208,87.040,362.900,-88.769,394.271,129.220,71.400,36.940
180,39174.327000,207.846,44.173,81.920,361.100,-82.323,397.389,19.220,10.400,26.940
181,39174.367000,203.916,57.224,73.728,364.816,-86.932,393.318,-112.780,-62.600,-57.060
182,39174.407000,210.795,50.196,66.560,365.742,-88.693,396.266,-143.780,-50.600,-119.060
183,39174.444000,212.760,44.173,70.656,365.787,-85.087,393.359,30.220,21.400,-37.060
184,39174.492000,256.983,35.137,105.472,364.871,-83.209,396.381,6.220,213.400,63.940
185,39174.507000,288.430,11.043,121.856,355.357,-87.778,403.232,222.220,326.400,200.940
186,39174.549000,266.810,27.106,100.352,353.639,-75.756,410.448,652.220,260.400,267.940
187,39174.580000,220.622,57.224,74.752,346.092,-74.804,417.420,906.220,241.400,307.940
188,39174.627000,218.656,62.243,79.872,338.710,-61.922,425.640,885.220,249.400,310.940
189,39174.665000,210.795,58.227,88.064,331.460,-39.800,438.036,989.220,319.400,386.940
190,39174.712000,204.898,65.255,97.280,320.241,-30.652,445.176,1152.220,384.400,431.940
191,39174.735000,219.639,72.282,88.064,310.182,-5.898,453.645,1226.220,442.400,486.940
192,39174.761000,219.639,76.298,101.376,300.912,7.777,456.906,1297.220,526.400,562.940
193,39174.801000,226.518,63.247,87.040,287.914,25.165,465.214,1252.220,497.400,635.940
194,39174.849000,239.294,57.224,118.784,274.952,44.502,479.532,1191.220,680.400,735.940
195,39174.881000,242.242,61.239,128.000,258.112,58.097,483.775,1172.220,726.400,820.940
196,39174.921000,226.518,34.133,111.616,241.325,75.376,489.091,1228.220,677.400,816.940
197,39174.961000,210.795,37.145,121.856,230.149,88.111,492.329,1333.220,701.400,640.940
198,39174.981000,189.175,50.196,146.432,215.483,122.724,493.044,1558.220,821.400,571.940
199,39175.25000,187.209,66.259,142.336,195.096,153.675,497.651,1405.220,804.400,380.940
200,39175.61000,172.468,60.235,147.456,177.449,178.115,495.161,1139.220,795.400,306.940
201,39175.101000,174.434,66.259,143.360,163.465,193.482,494.473,921.220,706.400,240.940
202,39175.141000,132.177,68.267,126.976,157.003,205.304,494.715,667.220,539.400,197.940
203,39175.185000,105.643,75.294,131.072,143.010,219.794,495.998,499.220,454.400,220.940
204,39175.207000,101.712,59.231,109.568,140.249,226.052,490.159,341.220,276.400,273.940
205,39175.246000,243.225,81.318,175.104,136.404,221.461,492.045,40.220,431.400,328.940
206,39175.286000,250.104,17.067,199.680,134.463,217.791,492.958,-111.780,184.400,347.940
207,39175.326000,269.758,26.102,217.088,133.383,207.740,494.732,-308.780,30.400,250.940
208,39175.374000,337.566,26.102,237.568,134.242,201.339,494.597,-54.780,-86.600,109.940
209,39175.409000,277.620,24.094,229.376,143.762,205.987,491.726,-69.780,-449.600,-102.060
210,39175.429000,256.983,14.055,201.728,158.759,196.031,487.558,-351.780,-622.600,-65.060
211,39175.469000,173.451,19.075,151.552,176.694,192.663,490.497,-363.780,-786.600,-59.060
212,39175.509000,182.296,56.220,119.808,187.907,182.677,487.317,-498.780,-829.600,-188.060
213,39175.541000,200.967,53.208,112.640,207.626,171.907,485.128,-690.780,-776.600,-304.060
214,39175.581000,196.054,60.235,105.472,216.027,163.735,482.977,-791.780,-706.600,-548.060
215,39175.631000,193.106,57.224,100.352,229.981,146.477,480.641,-1109.780,-668.600,-589.060
216,39175.670000,191.140,59.231,82.944,241.043,124.718,484.173,-1278.780,-660.600,-692.060
217,39175.694000,206.864,41.161,79.872,248.445,112.830,479.952,-1313.780,-631.600,-709.060
218,39175.729000,213.743,43.169,98.304,259.388,82.748,479.328,-1507.780,-554.600,-759.060
219,39175.766000,213.743,44.173,97.280,267.600,60.814,475.889,-1449.780,-523.600,-799.060
220,39175.809000,211.777,55.216,94.208,281.607,48.039,468.676,-1300.780,-503.600,-842.060
221,39175.847000,217.674,77.302,97.280,285.038,22.379,465.151,-1234.780,-391.600,-885.060
222,39175.886000,212.760,82.322,111.616,299.111,14.224,460.025,-1136.780,-423.600,-779.060
223,39175.914000,203.916,90.353,111.616,303.758,8.672,453.946,-1227.780,-456.600,-629.060
224,39175.946000,214.726,101.396,109.568,314.769,-15.231,441.518,-1133.780,-525.600,-547.060
225,39175.991000,221.605,100.392,104.448,325.981,-24.457,430.397,-1045.780,-578.600,-410.060
226,39176.36000,232.415,65.255,82.944,338.959,-42.839,418.089,-1152.780,-563.600,-332.060
227,39176.65000,250.104,47.184,79.872,348.062,-67.723,403.648,-1470.780,-402.600,-348.060
228,39176.109000,223.570,13.051,79.872,349.664,-88.028,394.267,-1581.780,-257.600,-388.060
229,39176.129000,247.155,17.067,96.256,357.955,-103.646,385.989,-1294.780,-148.600,-385.060
230,39176.169000,242.242,9.035,96.256,357.693,-122.106,378.634,-925.780,-71.600,-293.060
231,39176.209000,222.587,17.067,97.280,360.383,-132.282,371.459,-691.780,-94.600,-221.060
232,39176.246000,238.311,26.102,80.896,365.025,-137.892,362.394,-671.780,-22.600,-207.060
233,39176.290000,214.726,13.051,84.992,366.791,-147.048,361.208,-650.780,9.400,-108.060
234,39176.321000,214.726,12.047,99.328,365.764,-152.616,358.104,-591.780,70.400,-65.060
235,39176.361000,227.501,11.043,114.688,360.920,-160.923,357.920,-426.780,158.400,-42.060
236,39176.381000,217.674,-1.004,105.472,356.173,-161.941,355.902,-222.780,164.400,16.940
237,39176.421000,217.674,3.012,102.400,351.350,-169.235,360.712,-98.780,256.400,47.940
238,39176.469000,177.382,24.094,123.904,348.596,-163.659,366.795,396.220,134.400,146.940
239,39176.509000,226.518,28.110,119.808,344.820,-163.592,372.759,360.220,143.400,106.940
240,39176.546000,229.466,54.212,150.528,345.845,-158.043,374.867,207.220,89.400,11.940
241,39176.582000,256.983,82.322,159.744,341.110,-158.145,372.869,-61.780,4.400,-208.060
242,39176.602000,257.965,60.235,128.000,351.540,-156.234,369.941,-296.780,-134.600,-293.060
243,39176.642000,246.173,47.184,105.472,351.562,-153.661,361.044,-558.780,-258.600,-315.060
244,39176.682000,218.656,18.071,86.016,358.968,-164.730,351.868,-771.780,-257.600,-291.060
245,39176.722000,192.123,12.047,79.872,368.361,-168.504,339.866,-836.780,-211.600,-334.060
246,39176.762000,204.898,12.047,112.640,371.013,-181.429,332.632,-602.780,-28.600,-349.060
247,39176.802000,200.967,14.055,100.352,373.001,-174.133,329.806,-443.780,-39.600,-362.060
248,39176.829000,234.380,35.137,124.928,373.006,-173.295,325.846,-586.780,79.400,-443.060
249,39176.870000,228.484,39.153,132.096,378.648,-175.189,318.851,-649.780,-5.600,-500.060
250,39176.907000,223.570,44.173,120.832,386.175,-177.136,307.880,-784.780,-108.600,-566.060
251,39176.950000,232.415,38.149,122.880,396.541,-179.045,296.914,-1052.780,-228.600,-588.060
252,39176.986000,232.415,25.098,129.024,404.865,-191.194,278.764,-1269.780,-226.600,-608.060
253,39177.41000,219.639,24.094,113.664,410.535,-190.437,266.853,-1296.780,-281.600,-666.060
254,39177.64000,209.812,39.153,102.400,422.854,-187.000,247.051,-1114.780,-283.600,-720.060
255,39177.84000,211.777,43.169,106.496,434.213,-185.272,234.175,-1213.780,-190.600,-748.060
256,39177.124000,204.898,32.125,98.304,442.823,-177.148,222.425,-966.780,-191.600,-683.060
257,39177.162000,212.760,40.157,119.808,451.298,-179.063,212.450,-1067.780,-2.600,-677.060
258,39177.207000,184.261,22.086,91.136,456.026,-177.500,195.582,-922.780,-16.600,-613.060
259,39177.249000,176.399,24.094,117.760,459.958,-166.495,193.832,-934.780,174.400,-578.060
260,39177.282000,144.952,16.063,100.352,463.801,-161.923,190.951,-609.780,141.400,-506.060
261,39177.310000,150.848,23.090,99.328,464.913,-149.962,193.197,-55.780,113.400,-352.060
262,39177.350000,220.622,73.286,131.072,466.037,-137.085,195.462,362.220,113.400,-334.060
263,39177.390000,291.378,122.478,157.696,465.164,-132.399,201.528,367.220,-19.600,-273.060
264,39177.424000,355.255,166.651,201.728,465.215,-128.715,202.601,408.220,16.400,-48.060
265,39177.464000,302.188,138.541,192.512,468.161,-121.271,206.743,519.220,-20.600,178.940
266,39177.507000,218.656,116.455,129.024,467.046,-134.031,210.448,779.220,-212.600,326.940
267,39177.541000,167.555,97.380,101.376,468.020,-131.387,204.538,625.220,-408.600,539.940
268,39177.572000,146.917,74.290,70.656,469.718,-145.182,200.268,545.220,-446.600,630.940
269,39177.607000,181.313,60.235,77.824,464.854,-154.504,195.089,432.220,-237.600,628.940
270,39177.646000,218.656,35.137,98.304,458.161,-160.010,198.941,546.220,-52.600,714.940
271,39177.690000,227.501,27.106,104.448,451.363,-173.683,206.597,554.220,60.400,740.940
272,39177.729000,228.484,8.031,86.016,442.703,-185.471,218.269,788.220,132.400,822.940
273,39177.764000,230.449,7.027,89.088,435.081,-190.795,232.069,925.220,157.400,822.940
274,39177.784000,223.570,19.075,87.040,427.508,-191.694,238.007,1054.220,166.400,788.940
275,39177.824000,228.484,13.051,90.112,415.138,-198.815,256.735,1114.220,209.400,718.940
276,39177.866000,223.570,17.067,88.064,408.603,-194.009,272.742,1138.220,205.400,636.940
277,39177.919000,227.501,6.024,98.304,394.452,-192.910,291.642,1100.220,265.400,570.940
278,39177.950000,226.518,11.043,102.400,384.070,-192.735,307.545,1088.220,246.400,497.940
279,39177.991000,237.328,9.035,98.304,380.490,-178.829,318.777,1033.220,241.400,438.940
280,39178.11000,220.622,4.016,98.304,374.843,-177.773,329.732,933.220,220.400,397.940
281,39178.50000,223.570,6.024,109.568,363.642,-168.410,347.818,785.220,284.400,352.940
282,39178.91000,222.587,-4.016,116.736,360.928,-160.066,354.954,834.220,202.400,307.940
283,39178.124000,210.795,-4.016,100.352,358.145,-157.140,365.953,835.220,158.400,277.940
284,39178.164000,234.380,8.031,104.448,352.539,-152.518,372.011,764.220,159.400,198.940
285,39178.214000,236.345,19.075,106.496,351.897,-131.264,382.409,943.220,195.400,68.940
286,39178.230000,231.432,49.192,104.448,351.180,-115.507,392.689,826.220,81.400,-9.060
287,39178.269000,224.553,80.314,112.640,345.751,-98.039,400.016,680.220,87.400,-119.060
288,39178.306000,239.294,86.337,130.048,349.693,-86.917,404.237,648.220,90.400,-71.060
289,39178.351000,220.622,90.353,118.784,345.958,-83.303,404.308,489.220,18.400,-57.060
290,39178.390000,209.812,75.294,96.256,345.131,-74.992,408.462,374.220,-46.600,17.940
291,39178.429000,211.777,77.302,91.136,350.910,-67.568,409.624,235.220,-47.600,-2.060
292,39178.471000,213.743,78.306,93.184,348.207,-57.548,408.838,214.220,-60.600,25.940
293,39178.492000,224.553,76.298,105.472,351.983,-58.375,410.815,176.220,-20.600,37.940
294,39178.529000,224.553,74.290,99.328,351.098,-53.826,409.916,187.220,-40.600,52.940
295,39178.564000,221.605,70.275,84.992,352.032,-54.730,409.898,187.220,-60.600,71.940
296,39178.605000,218.656,70.275,83.968,355.905,-48.267,410.042,164.220,-61.600,64.940
297,39178.649000,221.605,75.294,82.944,353.959,-51.995,407.970,136.220,-99.600,6.940
298,39178.689000,227.501,80.314,78.848,359.672,-49.192,407.044,102.220,-70.600,-16.060
299,39178.709000,226.518,77.302,91.136,357.770,-50.094,409.011,37.220,-25.600,-24.060
300,39178.749000,232.415,71.278,98.304,358.715,-50.101,408.018,-12.780,-20.600,-7.060
301,39178.796000,228.484,64.251,97.280,355.027,-42.861,406.177,-37.780,14.400,58.940
302,39178.827000,224.553,58.227,94.208,357.747,-51.906,409.967,2.220,19.400,78.940
303,39178.871000,220.622,58.227,93.184,356.808,-51.061,407.000,31.220,-5.600,85.940
304,39178.904000,219.639,59.231,92.160,358.715,-50.101,408.018,38.220,-7.600,67.940
305,39178.934000,225.536,60.235,94.208,357.758,-51.010,408.991,52.220,13.400,54.940
306,39178.969000,227.501,58.227,95.232,353.039,-50.156,409.003,54.220,18.400,40.940
307,39179.7000,222.587,56.220,95.232,354.944,-49.215,409.025,35.220,9.400,31.940
308,39179.45000,227.501,54.212,94.208,353.940,-53.750,411.911,47.220,4.400,32.940
309,39179.85000,223.570,53.208,93.184,357.822,-46.410,410.084,52.220,20.400,28.940
310,39179.130000,224.553,55.216,95.232,354.024,-47.376,410.058,42.220,7.400,28.940
311,39179.170000,229.466,57.224,94.208,354.924,-50.989,411.972,29.220,21.400,32.940
312,39179.190000,231.432,58.227,102.400,349.301,-47.341,415.025,-21.780,43.400,13.940
313,39179.230000,223.570,53.208,100.352,352.997,-53.723,413.900,-47.780,25.400,11.940
314,39179.270000,220.622,47.184,96.256,349.182,-55.664,410.869,-38.780,14.400,17.940
315,39179.307000,224.553,48.188,98.304,349.250,-51.025,413.952,-42.780,15.400,14.940
316,39179.354000,228.484,47.184,100.352,350.163,-52.942,408.939,-30.780,0.400,2.940
317,39179.389000,229.466,48.188,101.376,347.293,-55.650,412.856,-20.780,11.400,-20.060
318,39179.412000,224.553,47.184,101.376,352.112,-49.174,413.001,-22.780,2.400,-24.060
319,39179.452000,221.605,46.180,99.328,348.194,-59.243,415.765,8.220,4.400,-40.060
320,39179.491000,224.553,48.188,96.256,348.253,-54.702,413.872,19.220,14.400,-61.060
321,39179.532000,224.553,48.188,97.280,353.055,-49.201,411.012,25.220,22.400,-57.060
322,39179.572000,228.484,56.220,100.352,345.511,-47.449,412.033,61.220,17.400,-103.060
323,39179.612000,229.466,58.227,102.400,348.417,-42.773,415.121,88.220,17.400,-92.060
324,39179.625000,219.639,61.239,99.328,350.260,-46.412,415.046,82.220,3.400,-62.060
325,39179.665000,227.501,66.259,100.352,354.083,-43.614,415.111,65.220,1.400,-72.060
326,39179.705000,233.397,67.263,99.328,351.344,-36.322,415.262,92.220,-22.600,-80.060
327,39179.752000,228.484,69.271,97.280,354.184,-36.265,416.262,70.220,-31.600,-65.060
328,39179.792000,230.449,73.286,91.136,352.356,-31.690,417.352,-4.780,-74.600,-70.060
329,39179.832000,222.587,71.278,88.064,357.131,-28.041,413.458,-18.780,-89.600,-38.060
330,39179.852000,223.570,71.278,86.016,358.972,-31.700,412.388,-59.780,-92.600,-32.060
331,39179.890000,228.484,72.282,87.040,360.789,-37.172,412.274,-73.780,-80.600,-32.060
332,39179.934000,229.466,73.286,93.184,361.848,-28.914,412.452,-5.780,-33.600,-14.060
333,39179.966000,225.536,79.310,92.160,358.881,-38.152,410.261,9.220,-34.600,-19.060
334,39180.6000,223.570,85.333,81.920,362.741,-32.605,410.385,7.220,-45.600,-17.060
335,39180.46000,209.812,92.361,72.704,363.702,-31.657,411.401,-99.780,-85.600,-57.060
336,39180.86000,199.985,83.325,67.584,366.437,-38.988,409.260,-252.780,-76.600,-15.060
337,39180.106000,189.175,76.298,72.704,364.479,-43.632,407.169,-348.780,37.400,80.940
338,39180.145000,165.589,52.204,87.040,360.469,-60.173,406.811,-296.780,105.400,212.940
339,39180.185000,167.555,43.169,76.800,353.826,-62.014,410.741,-343.780,213.400,271.940
340,39180.230000,217.674,33.129,106.496,346.176,-68.430,415.566,250.220,316.400,561.940
341,39180.270000,309.067,24.094,148.480,331.954,-71.249,421.453,414.220,485.400,566.940
342,39180.312000,307.102,39.153,158.720,322.517,-70.301,429.416,756.220,350.400,652.940
343,39180.332000,253.052,33.129,113.664,317.027,-57.394,437.640,1013.220,248.400,718.940
344,39180.370000,217.674,38.149,109.568,306.708,-51.859,446.694,1180.220,281.400,702.940
345,39180.410000,214.726,42.165,109.568,297.588,-27.950,458.130,1371.220,332.400,702.940
346,39180.446000,193.106,53.208,104.448,289.302,-11.514,461.452,1602.220,353.400,718.940
347,39180.502000,195.071,58.227,83.968,280.172,12.278,466.918,1730.220,355.400,759.940
348,39180.529000,208.829,79.310,92.160,270.224,45.258,474.568,1688.220,440.400,725.940
349,39180.550000,225.536,58.227,114.688,262.934,65.372,477.969,1557.220,487.400,824.940
350,39180.586000,217.674,26.102,129.024,247.236,93.579,479.541,1409.220,550.400,925.940
351,39180.636000,214.726,14.055,141.312,239.819,104.511,481.752,1359.220,607.400,981.940
352,39180.674000,223.570,12.047,150.528,229.713,126.400,484.192,1493.220,563.400,943.940
353,39180.714000,210.795,41.161,138.240,224.355,150.086,481.704,1443.220,475.400,631.940
354,39180.751000,199.985,62.243,125.952,216.239,180.069,475.368,1303.220,405.400,461.940
355,39180.791000,186.226,59.231,116.736,210.709,190.968,474.597,1031.220,264.400,225.940
356,39180.810000,188.192,70.275,142.336,210.851,201.864,469.856,712.220,386.400,145.940
357,39180.851000,170.503,67.263,132.096,202.604,221.848,467.285,772.220,339.400,179.940
358,39180.889000,127.263,62.243,90.112,199.825,226.352,465.387,430.220,346.400,137.940
359,39180.935000,128.246,59.231,86.016,194.298,237.290,466.607,142.220,404.400,159.940
360,39180.966000,124.315,36.141,90.112,187.453,220.751,468.234,-132.780,342.400,242.940
361,39181.6000,216.691,23.090,176.128,182.636,213.535,477.025,-193.780,355.400,320.940
362,39181.26000,421.098,52.204,200.704,177.864,210.686,474.968,109.220,330.400,205.940
363,39181.74000,360.169,13.051,269.312,173.067,205.243,480.813,-380.780,387.400,297.940
364,39181.111000,382.772,15.059,250.880,169.212,199.755,483.674,-250.780,-119.600,-64.060
365,39181.155000,271.724,-15.059,207.872,189.906,190.869,483.516,-601.780,-673.600,-227.060
366,39181.186000,213.743,-27.106,158.720,205.899,184.590,479.427,-464.780,-1302.600,-254.060
367,39181.234000,257.965,9.035,110.592,230.322,172.791,468.271,-399.780,-1236.600,-376.060
368,39181.251000,188.192,5.020,111.616,251.265,182.987,460.562,-137.780,-908.600,-344.060
369,39181.291000,171.486,18.071,72.704,267.466,193.004,446.874,405.220,-851.600,-310.060
370,39181.334000,162.641,64.251,51.200,281.838,207.577,433.281,303.220,-730.600,-355.060
371,39181.374000,192.123,76.298,63.488,286.636,213.038,428.431,-66.780,-603.600,-284.060
372,39181.410000,205.881,59.231,63.488,296.023,208.426,420.389,-243.780,-625.600,-348.060
373,39181.447000,224.553,76.298,69.632,304.490,204.874,420.326,-596.780,-506.600,-476.060
374,39181.490000,223.570,68.267,70.656,308.202,199.447,421.211,-790.780,-432.600,-507.060
375,39181.512000,222.587,71.278,63.488,307.155,192.106,421.053,-835.780,-399.600,-534.060
376,39181.554000,231.432,72.282,62.464,312.748,185.787,421.922,-1043.780,-330.600,-510.060
377,39181.594000,231.432,77.302,60.416,313.413,164.807,425.455,-1282.780,-301.600,-497.060
378,39181.632000,225.536,89.349,62.464,315.996,145.683,429.030,-1396.780,-312.600,-459.060
379,39181.671000,216.691,87.341,63.488,320.450,124.792,434.560,-1486.780,-288.600,-475.060
380,39181.711000,218.656,92.361,75.776,323.798,92.777,433.883,-1672.780,-204.600,-522.060
381,39181.731000,218.656,92.361,74.752,324.476,72.713,437.436,-1755.780,-195.600,-558.060
382,39181.784000,222.587,97.380,81.920,327.987,52.628,438.008,-1718.780,-151.600,-580.060
383,39181.812000,207.846,95.373,86.016,329.473,23.258,433.407,-1541.780,-261.600,-537.060
384,39181.852000,215.708,75.294,92.160,335.892,8.629,430.121,-1510.780,-252.600,-527.060
385,39181.892000,209.812,71.278,91.136,341.107,-24.433,421.468,-1529.780,-308.600,-482.060
386,39181.932000,230.449,50.196,86.016,347.482,-41.888,414.144,-1499.780,-324.600,-415.060
387,39181.952000,268.775,55.216,90.112,349.160,-56.697,404.879,-1383.780,-269.600,-441.060
388,39181.994000,236.345,36.141,73.728,357.460,-71.438,394.631,-1256.780,-334.600,-424.060
389,39182.35000,259.931,25.098,89.088,366.667,-88.934,383.332,-1265.780,-106.600,-338.060
390,39182.74000,255.017,29.114,94.208,368.398,-100.039,376.135,-833.780,-129.600,-260.060
391,39182.111000,218.656,39.153,89.088,367.306,-110.227,370.944,-645.780,-71.600,-262.060
392,39182.150000,211.777,38.149,81.920,370.035,-117.636,364.822,-514.780,-7.600,-187.060
393,39182.192000,204.898,33.129,88.064,371.936,-116.733,362.855,-494.780,12.400,-138.060
394,39182.212000,202.933,25.098,110.592,367.939,-132.358,362.517,-406.780,116.400,-22.060
395,39182.247000,188.192,13.051,110.592,369.878,-128.707,360.608,-99.780,-13.600,117.940
396,39182.294000,220.622,38.149,108.544,368.842,-135.152,359.474,149.220,-117.600,163.940
397,39182.327000,252.069,67.263,118.784,367.896,-135.165,359.473,156.220,-84.600,88.940
398,39182.374000,273.689,102.400,125.952,367.979,-128.810,356.624,-172.780,-132.600,-111.060
399,39182.409000,278.603,77.302,117.760,374.441,-139.853,349.436,-553.780,-178.600,-207.060
400,39182.427000,262.879,42.165,100.352,374.324,-147.377,339.330,-944.780,-230.600,-225.060
401,39182.469000,220.622,14.055,78.848,382.723,-154.808,328.243,-849.780,-271.600,-194.060
402,39182.509000,226.518,4.016,107.520,388.261,-164.070,319.102,-826.780,-131.600,-197.060
403,39182.549000,186.226,22.086,104.448,390.038,-171.550,309.994,-579.780,-209.600,-283.060
404,39182.591000,216.691,26.102,87.040,396.653,-170.800,297.089,-575.780,-200.600,-373.060
405,39182.632000,231.432,26.102,91.136,404.132,-176.392,287.035,-869.780,-214.600,-388.060
406,39182.652000,206.864,18.071,88.064,412.615,-177.449,274.095,-930.780,-195.600,-397.060
407,39182.692000,216.691,29.114,88.064,414.458,-180.309,267.074,-937.780,-177.600,-454.060
408,39182.737000,229.466,18.071,107.520,420.054,-185.049,255.046,-960.780,12.400,-512.060
409,39182.776000,228.484,16.063,115.712,427.741,-175.886,250.279,-652.780,69.400,-451.060
410,39182.807000,229.466,31.122,97.280,427.642,-182.435,243.177,-720.780,-4.600,-462.060
411,39182.849000,229.466,26.102,96.256,438.099,-177.893,234.338,-698.780,-10.600,-536.060
412,39182.889000,206.864,36.141,88.064,442.859,-175.179,229.429,-619.780,-106.600,-586.060
413,39182.909000,184.261,34.133,76.800,448.683,-163.390,219.742,-648.780,-147.600,-648.060
414,39182.956000,194.088,57.224,104.448,453.564,-151.574,212.044,-534.780,-96.600,-715.060
415,39182.991000,144.952,15.059,53.248,463.179,-139.656,206.344,-277.780,-293.600,-502.060
416,39183.50000,260.914,123.482,102.400,469.895,-132.337,201.537,3.220,-144.600,-697.060
417,39183.75000,280.568,131.514,113.664,475.802,-114.953,196.942,229.220,-287.600,-378.060
418,39183.114000,299.240,143.561,128.000,474.946,-107.754,191.126,250.220,-123.600,-307.060
419,39183.132000,358.203,193.757,134.144,480.508,-115.963,188.970,122.220,-123.600,-9.060
420,39183.171000,298.257,140.549,118.784,477.758,-109.568,190.097,200.220,-79.600,341.940
421,39183.209000,238.311,126.494,97.280,473.801,-122.405,191.807,227.220,-53.600,490.940
422,39183.254000,170.503,96.376,79.872,469.789,-138.965,190.454,115.220,-119.600,537.940
423,39183.291000,169.520,68.267,70.656,474.474,-142.528,192.375,144.220,-154.600,595.940
424,39183.334000,177.382,46.180,71.680,465.677,-162.854,188.945,116.220,-72.600,675.940
425,39183.352000,203.916,17.067,97.280,459.881,-172.012,192.720,216.220,78.400,738.940
426,39183.394000,209.812,-2.008,93.184,451.173,-186.685,197.368,612.220,42.400,779.940
427,39183.431000,228.484,4.016,81.920,439.669,-198.569,206.050,688.220,113.400,799.940
428,39183.481000,224.553,5.020,75.776,430.171,-202.183,214.911,741.220,150.400,839.940
429,39183.509000,233.397,-4.016,71.680,422.502,-211.132,230.623,870.220,216.400,721.940
430,39183.549000,242.242,3.012,71.680,410.161,-215.602,244.435,957.220,261.400,602.940
431,39183.569000,229.466,0.000,68.608,398.900,-210.800,263.418,934.220,342.400,502.940
432,39183.609000,232.415,6.024,87.040,388.474,-214.212,283.223,906.220,396.400,422.940
433,39183.650000,222.587,0.000,94.208,383.801,-211.273,296.209,1247.220,249.400,424.940
434,39183.694000,227.501,2.008,113.664,376.409,-200.047,313.346,756.220,384.400,351.940
435,39183.732000,219.639,-4.016,116.736,370.790,-197.120,326.330,761.220,242.400,320.940
436,39183.774000,214.726,-14.055,117.760,364.335,-185.999,337.498,706.220,169.400,285.940
437,39183.810000,223.570,-16.063,136.192,359.613,-185.945,343.460,669.220,56.400,264.940
438,39183.829000,228.484,-6.024,125.952,357.866,-175.795,348.647,719.220,-38.600,198.940
439,39183.880000,235.363,5.020,104.448,360.867,-164.627,355.851,723.220,-43.600,52.940
440,39183.910000,251.086,58.227,98.304,362.053,-147.948,365.160,931.220,78.400,-27.060
441,39183.954000,238.311,63.247,100.352,363.136,-138.638,372.322,886.220,60.400,17.940
442,39183.990000,236.345,68.267,91.136,360.562,-120.177,381.663,771.220,67.400,124.940
443,39184.34000,243.225,62.243,73.728,360.666,-112.809,383.809,579.220,68.400,134.940
444,39184.52000,241.259,65.255,70.656,355.941,-112.794,387.781,388.220,92.400,108.940
445,39184.89000,229.466,78.306,71.680,355.140,-102.631,392.969,354.220,103.400,49.940
446,39184.134000,219.639,77.302,60.416,348.473,-106.305,396.860,223.220,120.400,54.940
447,39184.170000,205.881,55.216,61.440,345.669,-104.393,402.864,190.220,138.400,178.940
448,39184.220000,195.071,59.231,75.776,343.747,-107.069,407.778,80.220,316.400,257.940
449,39184.252000,199.985,32.125,106.496,333.330,-108.064,410.725,352.220,313.400,413.940
450,39184.270000,230.449,23.090,103.424,326.796,-102.479,419.786,342.220,322.400,365.940
451,39184.314000,242.242,27.106,142.336,315.422,-104.383,423.707,503.220,321.400,415.940
452,39184.352000,262.879,25.098,135.168,307.108,-90.578,432.940,664.220,227.400,434.940
453,39184.395000,251.086,23.090,128.000,304.345,-85.879,440.993,793.220,123.400,408.940
454,39184.435000,235.363,42.165,126.976,301.666,-74.806,447.193,840.220,86.400,344.940
455,39184.472000,224.553,51.200,117.760,295.298,-56.492,451.552,921.220,93.400,344.940
456,39184.514000,212.760,46.180,109.568,291.743,-39.994,454.882,1014.220,148.400,388.940
457,39184.534000,214.726,44.173,97.280,286.266,-26.170,463.125,1159.220,202.400,462.940
458,39184.572000,211.777,45.176,95.232,278.045,-5.114,468.534,1192.220,235.400,502.940
459,39184.614000,217.674,44.173,96.256,274.463,9.533,470.830,1227.220,321.400,562.940
460,39184.652000,214.726,46.180,92.160,265.238,26.054,479.125,1272.220,349.400,598.940
461,39184.695000,221.605,47.184,94.208,256.077,47.936,480.572,1206.220,475.400,635.940
462,39184.735000,225.536,35.137,133.120,241.109,59.763,486.769,1018.220,682.400,617.940
463,39184.754000,201.950,48.188,115.712,222.530,84.365,493.233,1194.220,763.400,566.940
464,39184.790000,208.829,43.169,115.712,207.480,90.617,495.333,985.220,848.400,441.940
465,39184.834000,196.054,43.169,107.520,193.653,117.056,498.859,1187.220,677.400,308.940
466,39184.870000,175.417,66.259,129.024,174.184,146.149,501.439,1152.220,772.400,267.940
467,39184.914000,170.503,71.278,140.288,157.411,165.143,500.824,991.220,782.400,283.940
468,39184.953000,145.935,76.298,141.312,139.706,185.061,501.221,687.220,669.400,330.940
469,39184.971000,133.159,64.251,159.744,133.134,188.657,502.283,541.220,590.400,409.940
470,39185.15000,214.726,54.212,196.608,122.784,193.061,500.372,134.220,491.400,403.940
471,39185.51000,283.516,48.188,228.352,115.102,184.736,501.178,23.220,621.400,484.940
472,39185.91000,230.449,-21.082,266.240,108.477,183.869,508.112,-53.780,389.400,470.940
473,39185.135000,226.518,14.055,194.560,109.350,178.404,508.992,-38.780,-64.600,180.940
474,39185.171000,192.123,19.075,162.816,116.905,177.549,506.995,-93.780,-523.600,-95.060
475,39185.215000,198.019,18.071,158.720,132.014,175.838,503.003,-278.780,-787.600,-318.060
476,39185.230000,220.622,6.024,149.504,152.722,167.888,503.859,-570.780,-888.600,-338.060
477,39185.274000,226.518,18.071,149.504,175.282,157.175,502.670,-630.780,-836.600,-300.060
478,39185.310000,250.104,26.102,178.176,188.243,137.058,495.298,-608.780,-614.600,-351.060
479,39185.355000,190.157,33.129,147.456,194.832,134.417,496.246,-531.780,-645.600,-446.060
480,39185.391000,199.985,68.267,106.496,202.272,125.297,493.079,-669.780,-664.600,-559.060
481,39185.434000,217.674,56.220,104.448,220.120,116.295,488.936,-763.780,-637.600,-605.060
482,39185.454000,213.743,53.208,112.640,228.507,107.188,485.770,-846.780,-603.600,-662.060
483,39185.490000,208.829,51.200,110.592,240.661,96.376,486.553,-938.780,-511.600,-728.060
484,39185.534000,203.916,59.231,99.328,250.005,88.178,482.414,-933.780,-475.600,-717.060
485,39185.571000,205.881,61.239,96.256,254.444,67.111,478.988,-1069.780,-414.600,-741.060
486,39185.626000,205.881,54.212,90.112,262.693,47.926,475.608,-1198.780,-414.600,-727.060
487,39185.655000,210.795,49.192,84.992,269.087,31.465,472.283,-1204.780,-410.600,-731.060
488,39185.675000,214.726,67.263,108.544,279.357,21.505,471.092,-1220.780,-278.600,-783.060
489,39185.715000,210.795,64.251,111.616,282.881,3.096,463.743,-971.780,-236.600,-724.060
490,39185.751000,202.933,74.290,103.424,284.631,-7.015,460.546,-981.780,-257.600,-764.060
491,39185.794000,198.019,96.376,103.424,290.254,-10.663,457.493,-925.780,-238.600,-727.060
492,39185.837000,206.864,95.373,124.928,297.661,-21.713,449.312,-848.780,-238.600,-559.060
493,39185.876000,207.846,96.376,142.336,304.109,-33.691,441.109,-921.780,-296.600,-493.060
494,39185.916000,230.449,120.471,131.072,312.416,-48.354,434.841,-903.780,-370.600,-490.060
495,39185.940000,237.328,118.463,130.048,319.898,-53.907,426.777,-898.780,-432.600,-422.060
496,39185.971000,225.536,94.369,114.688,331.030,-68.688,412.554,-1014.780,-400.600,-277.060
497,39186.11000,204.898,66.259,95.232,340.252,-85.249,402.269,-1225.780,-397.600,-228.060
498,39186.54000,215.708,65.255,67.584,346.503,-111.086,387.803,-1377.780,-385.600,-318.060
499,39186.94000,258.948,33.129,97.280,352.863,-129.478,379.464,-1162.780,-181.600,-183.060
500,39186.132000,244.207,-1.004,99.328,357.482,-136.900,371.356,-1007.780,-159.600,-35.060
501,39186.152000,245.190,10.039,107.520,357.212,-155.457,359.025,-768.780,-87.600,-47.060
502,39186.192000,217.674,5.020,84.992,359.953,-161.950,352.923,-636.780,-179.600,8.940
503,39186.232000,203.916,5.020,80.896,362.552,-178.578,343.621,-692.780,-158.600,-29.060
504,39186.286000,219.639,5.020,89.088,356.797,-183.409,334.558,-669.780,-13.600,-77.060
505,39186.317000,226.518,2.008,111.616,359.507,-192.572,332.378,-377.780,52.400,-44.060
506,39186.356000,211.777,0.000,119.808,358.598,-189.836,332.435,-199.780,119.400,3.940
507,39186.376000,208.829,12.047,115.712,354.763,-193.551,332.350,3.220,93.400,-14.060
508,39186.411000,206.864,26.102,108.544,358.561,-192.585,332.376,-57.780,39.400,-83.060
509,39186.451000,214.726,32.125,129.024,359.490,-193.547,329.373,-43.780,-94.600,-73.060
510,39186.491000,281.551,30.118,141.312,357.560,-196.320,329.311,-166.780,-95.600,-96.060
511,39186.541000,259.931,39.153,119.808,365.095,-198.170,323.315,-205.780,-199.600,-183.060
512,39186.576000,224.553,47.184,99.328,369.826,-197.347,315.383,-504.780,-222.600,-359.060
513,39186.617000,216.691,29.114,84.992,380.253,-194.696,303.519,-623.780,-324.600,-358.060
514,39186.642000,212.760,7.027,99.328,381.927,-209.543,292.264,-855.780,-208.600,-307.060
515,39186.676000,208.829,-1.004,100.352,387.647,-205.122,280.431,-635.780,-224.600,-263.060
516,39186.715000,216.691,6.024,101.376,393.324,-204.287,272.500,-612.780,-131.600,-338.060
517,39186.752000,215.708,16.063,117.760,402.657,-212.622,261.396,-682.780,-70.600,-441.060
518,39186.795000,216.691,20.078,109.568,407.382,-211.858,250.478,-680.780,-108.600,-549.060
519,39186.835000,221.605,14.055,110.592,413.083,-209.210,241.591,-910.780,-49.600,-608.060
520,39186.859000,234.380,48.188,102.400,420.727,-202.853,233.781,-1055.780,-79.600,-690.060
521,39186.900000,216.691,29.114,93.184,423.595,-199.405,220.928,-1453.780,25.400,-677.060
522,39186.941000,230.449,23.090,122.880,435.872,-199.535,206.024,-1661.780,95.400,-795.060
523,39186.985000,204.898,9.035,111.616,440.592,-198.830,192.121,-1256.780,58.400,-755.060
524,39187.15000,185.244,23.090,118.784,449.216,-189.771,181.385,-1203.780,157.400,-795.060
525,39187.55000,193.106,26.102,140.288,455.913,-183.446,172.578,-1066.780,213.400,-768.060
526,39187.72000,145.935,-3.012,103.424,462.621,-176.984,170.736,-729.780,111.400,-726.060
527,39187.117000,171.486,45.176,126.976,468.599,-154.922,171.215,-543.780,223.400,-812.060
528,39187.160000,190.157,59.231,118.784,472.574,-140.331,165.563,67.220,-153.600,-665.060
529,39187.192000,286.464,137.537,163.840,474.720,-121.944,167.947,-113.780,-62.600,-635.060
530,39187.235000,329.704,154.604,191.488,481.350,-121.019,163.998,-18.780,-107.600,-280.060
531,39187.275000,320.860,156.612,203.776,482.312,-120.051,166.009,111.220,-5.600,38.940
532,39187.317000,294.326,143.561,179.200,483.219,-122.807,164.957,304.220,-25.600,279.940
533,39187.336000,213.743,116.455,152.576,480.346,-125.553,166.884,18.220,-112.600,378.940
534,39187.377000,144.952,63.247,104.448,475.435,-138.500,163.617,145.220,-175.600,500.940
535,39187.417000,161.658,43.169,97.280,475.225,-154.036,165.276,259.220,-59.600,588.940
536,39187.460000,179.347,37.145,103.424,471.369,-159.543,167.142,605.220,-26.600,629.940
537,39187.496000,178.365,26.102,101.376,466.474,-172.295,173.826,628.220,24.400,692.940
538,39187.537000,202.933,16.063,108.544,458.740,-185.084,180.505,659.220,114.400,816.940
539,39187.552000,214.726,3.012,103.424,445.276,-202.412,193.046,927.220,91.400,865.940
540,39187.614000,224.553,4.016,103.424,434.866,-204.089,207.915,1048.220,108.400,835.940
541,39187.636000,232.415,14.055,98.304,427.232,-209.549,214.750,1132.220,129.400,791.940
542,39187.676000,231.432,19.075,101.376,414.878,-215.715,235.488,1162.220,148.400,758.940
543,39187.717000,226.518,18.071,100.352,409.277,-211.813,251.477,1164.220,152.400,726.940
544,39187.759000,222.587,22.086,107.520,396.915,-218.057,268.234,1116.220,170.400,655.940
545,39187.773000,214.726,12.047,108.544,389.511,-207.748,285.351,1112.220,145.400,611.940
546,39187.817000,209.812,17.067,130.048,381.955,-207.672,294.294,1012.220,216.400,552.940
547,39187.853000,208.829,-2.008,130.048,369.758,-201.986,312.300,1241.220,113.400,595.940
548,39187.896000,220.622,-1.004,132.096,364.188,-195.414,324.367,1186.220,113.400,591.940
549,39187.936000,219.639,-1.004,126.976,360.574,-184.217,337.531,1182.220,23.400,546.940
550,39187.976000,234.380,6.024,125.952,353.113,-177.650,350.590,1169.220,49.400,521.940
551,39187.999000,260.914,27.106,121.856,350.467,-164.647,361.803,1283.220,182.400,483.940
552,39188.36000,241.259,58.227,102.400,340.205,-155.370,374.916,1330.220,148.400,383.940
553,39188.76000,203.916,66.259,84.992,339.448,-143.160,391.089,1312.220,200.400,372.940
554,39188.114000,229.466,76.298,102.400,330.347,-118.257,406.525,1100.220,284.400,427.940
555,39188.160000,216.691,73.286,100.352,320.051,-110.909,414.623,813.220,229.400,391.940
556,39188.197000,207.846,66.259,106.496,320.163,-103.444,421.745,724.220,239.400,374.940
557,39188.237000,198.019,61.239,97.280,314.670,-90.576,427.978,590.220,140.400,318.940
558,39188.257000,187.209,68.267,106.496,310.843,-94.193,432.869,349.220,128.400,236.940
559,39188.297000,219.639,54.212,118.784,306.206,-87.764,436.977,185.220,62.400,162.940
560,39188.337000,247.155,57.224,116.736,304.291,-89.582,438.925,269.220,135.400,158.940
561,39188.377000,237.328,37.145,115.712,299.616,-85.902,442.975,209.220,125.400,262.940
562,39188.417000,222.587,43.169,113.664,294.003,-81.377,444.058,313.220,145.400,291.940
563,39188.458000,199.985,62.243,97.280,288.303,-83.245,445.999,452.220,110.400,365.940
564,39188.479000,190.157,93.365,99.328,285.576,-75.817,453.115,475.220,173.400,392.940
565,39188.519000,217.674,80.314,141.312,277.094,-73.980,459.110,107.220,381.400,498.940
566,39188.559000,211.777,59.231,122.880,258.065,-82.359,464.871,317.220,318.400,575.940
567,39188.599000,223.570,49.192,132.096,253.348,-81.485,465.877,344.220,308.400,603.940
568,39188.639000,206.864,42.165,120.832,244.929,-75.068,471.969,388.220,276.400,593.940
569,39188.678000,212.760,21.082,126.976,235.374,-82.424,476.772,441.220,311.400,672.940
570,39188.699000,207.846,-2.008,145.408,227.055,-68.678,483.020,527.220,307.400,767.940
571,39188.735000,203.916,-2.008,150.528,210.929,-72.418,489.879,561.220,341.400,714.940
572,39188.775000,195.071,-7.027,139.264,202.489,-67.014,490.976,976.220,205.400,755.940
573,39188.815000,200.967,-16.063,136.192,193.278,-49.557,500.286,788.220,323.400,640.940
574,39188.855000,188.192,6.024,164.864,183.980,-37.753,501.518,762.220,249.400,610.940
575,39188.897000,151.831,5.020,142.336,180.428,-21.215,506.838,728.220,63.400,489.940
576,39188.937000,152.814,16.063,153.600,179.591,-13.021,505.022,526.220,61.400,373.940
577,39188.959000,160.676,12.047,148.480,185.384,-4.662,507.197,451.220,-96.600,253.940
578,39188.994000,258.948,-17.067,183.296,184.383,-8.398,504.132,19.220,-71.600,227.940
579,39189.34000,288.430,-36.141,192.512,188.212,-4.761,500.237,-91.780,-192.600,184.940
580,39189.74000,328.722,-49.192,204.800,191.756,-22.157,497.883,-256.780,-152.600,175.940
581,39189.114000,302.188,-72.282,205.824,200.224,-25.689,498.815,-141.780,-345.600,54.940
582,39189.154000,250.104,-46.180,150.528,211.561,-26.534,494.835,-219.780,-484.600,-237.060
583,39189.174000,194.088,-20.078,117.760,224.773,-28.327,487.854,-11.780,-644.600,-343.060
584,39189.214000,180.330,1.004,102.400,238.186,-15.444,482.180,107.220,-557.600,-382.060
585,39189.254000,179.347,13.051,101.376,253.397,-9.805,479.339,-2.780,-500.600,-422.060
586,39189.295000,198.019,35.137,91.136,264.833,-3.320,475.515,-77.780,-356.600,-493.060
587,39189.336000,223.570,30.118,92.160,263.927,0.214,469.621,-122.780,-343.600,-511.060
588,39189.377000,219.639,36.141,84.992,279.947,-4.212,466.567,-403.780,-341.600,-596.060
589,39189.397000,221.605,55.216,84.992,283.777,-0.556,463.666,-500.780,-294.600,-653.060
590,39189.435000,204.898,29.114,81.920,291.302,-3.302,458.646,-382.780,-341.600,-640.060
591,39189.475000,215.708,20.078,91.136,296.014,-4.234,454.654,-547.780,-204.600,-675.060
592,39189.515000,224.553,48.188,99.328,302.696,0.376,451.778,-366.780,-252.600,-705.060
593,39189.555000,207.846,72.282,77.824,310.294,3.107,445.880,-463.780,-280.600,-736.060
594,39189.595000,215.708,97.380,82.944,314.919,-4.238,441.752,-721.780,-287.600,-758.060
595,39189.635000,210.795,90.353,96.256,323.349,-9.758,434.684,-863.780,-271.600,-666.060
596,39189.657000,210.795,89.349,98.304,330.805,-17.923,433.527,-740.780,-243.600,-527.060
597,39189.699000,223.570,102.400,83.968,335.463,-21.798,419.527,-730.780,-250.600,-511.060
598,39189.739000,228.484,95.373,98.304,343.878,-29.034,418.390,-821.780,-331.600,-418.060
599,39189.780000,225.536,107.420,108.544,345.572,-42.888,411.136,-895.780,-360.600,-357.060
600,39189.815000,228.484,93.365,89.088,354.812,-57.694,396.909,-1008.780,-365.600,-364.060
601,39189.859000,227.501,68.267,72.704,364.045,-73.339,386.643,-1137.780,-373.600,-315.060
602,39189.879000,250.104,54.212,80.896,368.562,-88.110,377.384,-1391.780,-237.600,-347.060
603,39189.920000,264.845,41.161,96.256,372.170,-100.145,368.182,-1341.780,-179.600,-230.060
604,39189.960000,250.104,26.102,86.016,375.696,-117.756,354.882,-938.780,-219.600,-123.060
605,39190.0,223.570,28.110,87.040,379.344,-127.004,347.728,-773.780,-140.600,-129.060
606,39190.40000,203.916,29.114,75.776,379.147,-140.863,341.465,-592.780,-181.600,-34.060
607,39190.78000,194.088,19.075,77.824,378.976,-152.870,336.236,-580.780,-120.600,-0.060
608,39190.100000,206.864,21.082,83.968,383.524,-165.731,330.996,-486.780,-81.600,33.940
609,39190.138000,227.501,12.047,89.088,381.687,-161.253,327.110,-319.780,14.400,45.940
610,39190.176000,225.536,30.118,111.616,382.541,-167.712,323.989,-194.780,10.400,67.940
611,39190.220000,279.585,45.176,118.784,381.640,-164.119,321.081,-156.780,81.400,-34.060
612,39190.255000,280.568,34.133,101.376,380.542,-175.144,319.850,-339.780,-79.600,-128.060
613,39190.302000,236.345,24.094,65.536,388.999,-178.814,313.816,-541.780,-220.600,-207.060
614,39190.339000,216.691,30.118,73.728,389.939,-178.100,302.892,-829.780,-108.600,-309.060
615,39190.359000,204.898,28.110,97.280,395.488,-186.465,292.776,-530.780,-165.600,-241.060
616,39190.399000,214.726,13.051,109.568,398.342,-184.712,286.849,-502.780,-18.600,-228.060
617,39190.440000,227.501,-5.020,124.928,398.290,-188.396,285.776,-553.780,193.400,-210.060
618,39190.487000,231.432,9.035,93.184,396.385,-189.338,285.753,-332.780,26.400,-227.060
619,39190.515000,226.518,29.114,92.160,397.273,-193.087,280.702,-328.780,-19.600,-299.060
620,39190.556000,229.466,41.161,90.112,404.937,-185.736,276.891,-459.780,-35.600,-368.060
621,39190.576000,236.345,50.196,97.280,409.669,-184.894,269.953,-527.780,-11.600,-465.060
622,39190.615000,223.570,22.086,81.920,413.509,-180.361,265.082,-432.780,-39.600,-396.060
623,39190.666000,212.760,10.039,73.728,416.385,-177.575,265.146,-635.780,89.400,-461.060
624,39190.705000,201.950,23.090,129.024,418.230,-180.416,259.120,-626.780,204.400,-571.060
625,39190.742000,188.192,5.020,84.992,422.220,-165.649,262.425,15.220,28.400,-473.060
626,39190.780000,199.002,82.322,134.144,427.950,-161.890,263.508,-170.780,228.400,-656.060
627,39190.796000,179.347,49.192,125.952,432.004,-141.763,259.963,49.220,-85.600,-463.060
628,39190.841000,188.192,58.227,119.808,434.932,-135.293,261.100,47.220,46.400,-495.060
629,39190.879000,184.261,88.345,124.928,436.000,-126.158,259.307,319.220,-94.600,-311.060
630,39190.922000,270.741,128.502,139.264,438.978,-116.024,260.522,285.220,-115.600,-265.060
631,39190.962000,326.756,204.800,147.456,442.955,-101.413,255.865,346.220,-250.600,-326.060
632,39191.1000,279.585,188.737,150.528,448.587,-104.184,250.841,-106.780,-220.600,-1.060
633,39191.38000,274.672,145.569,139.264,452.304,-108.773,247.765,-259.780,-176.600,289.940
634,39191.59000,230.449,120.471,114.688,454.115,-114.323,243.671,-197.780,-234.600,420.940
635,39191.100000,198.019,77.302,101.376,445.379,-130.088,239.344,-212.780,-82.600,509.940
636,39191.139000,199.985,58.227,82.944,444.211,-146.552,240.981,-66.780,-74.600,445.940
637,39191.179000,196.054,53.208,76.800,445.031,-155.720,239.793,355.220,-132.600,463.940
638,39191.220000,206.864,36.141,71.680,443.126,-156.661,239.770,376.220,-94.600,527.940
639,39191.258000,210.795,27.106,69.632,437.367,-163.071,243.604,371.220,-30.600,597.940
640,39191.281000,218.656,8.031,71.680,431.507,-176.830,246.286,391.220,159.400,629.940
641,39191.321000,219.639,10.039,76.800,421.077,-179.521,256.160,492.220,172.400,564.940
642,39191.361000,230.449,12.047,67.584,416.313,-183.033,267.019,668.220,123.400,503.940
643,39191.400000,235.363,17.067,76.800,406.731,-193.021,277.733,687.220,271.400,384.940
644,39191.440000,232.415,16.063,78.848,405.959,-180.987,284.951,837.220,213.400,398.940
645,39191.480000,232.415,17.067,80.896,394.664,-178.115,298.920,718.220,304.400,326.940
646,39191.497000,215.708,18.071,106.496,391.884,-175.151,311.909,783.220,152.400,330.940
647,39191.541000,247.155,9.035,92.160,386.318,-167.760,319.021,651.220,181.400,358.940
648,39191.580000,236.345,2.008,123.904,380.657,-167.640,328.961,505.220,86.400,272.940
649,39191.617000,211.777,1.004,118.784,381.605,-167.608,329.958,518.220,-28.600,210.940
650,39191.657000,234.380,10.039,104.448,378.913,-157.451,336.138,492.220,-47.600,140.940
651,39191.697000,222.587,18.071,100.352,380.850,-154.599,340.180,687.220,-61.600,127.940
652,39191.737000,259.931,61.239,89.088,381.096,-137.095,345.526,784.220,48.400,91.940
653,39191.757000,240.276,70.275,81.920,378.374,-129.608,355.628,731.220,68.400,135.940
654,39191.797000,246.173,69.271,102.400,377.509,-124.046,359.724,570.220,251.400,184.940
655,39191.837000,243.225,62.243,95.232,370.977,-118.442,369.780,504.220,215.400,171.940
656,39191.877000,217.674,60.235,86.016,371.101,-110.060,376.921,385.220,238.400,71.940
657,39191.916000,210.795,70.275,80.896,364.504,-109.056,385.884,430.220,211.400,-4.060
658,39191.957000,204.898,87.341,61.440,368.434,-98.850,390.086,372.220,123.400,-35.060
659,39191.982000,179.347,82.322,54.272,364.738,-92.468,391.211,148.220,54.400,-33.060
660,39192.24000,201.950,70.275,87.040,361.888,-93.402,392.181,-15.780,160.400,49.940
661,39192.57000,241.259,57.224,87.040,359.944,-97.111,391.105,-211.780,155.400,74.940
662,39192.97000,270.741,30.118,124.928,351.337,-104.435,396.904,6.220,251.400,172.940
663,39192.137000,289.413,38.149,128.000,341.985,-97.095,404.009,262.220,294.400,236.940
664,39192.183000,241.259,48.188,108.544,338.248,-94.279,410.031,625.220,197.400,320.940
665,39192.200000,226.518,54.212,91.136,334.508,-91.483,415.058,651.220,194.400,335.940
666,39192.244000,198.019,52.204,101.376,329.020,-78.557,424.277,637.220,201.400,319.940
667,39192.280000,214.726,53.208,103.424,323.431,-72.979,432.344,707.220,246.400,346.940
668,39192.323000,203.916,73.286,102.400,314.156,-60.122,440.561,740.220,233.400,301.940
669,39192.366000,206.864,76.298,104.448,305.776,-50.936,447.707,704.220,321.400,295.940
670,39192.400000,218.656,69.271,115.712,300.176,-45.475,449.804,631.220,272.400,337.940
671,39192.441000,215.708,57.224,97.280,293.601,-42.678,456.816,599.220,213.400,374.940
672,39192.461000,238.311,44.173,128.000,285.263,-29.926,459.065,548.220,359.400,405.940
673,39192.501000,213.743,43.169,108.544,278.708,-25.354,463.131,577.220,235.400,327.940
674,39192.541000,200.967,41.161,92.160,271.288,-15.221,471.293,536.220,238.400,243.940
675,39192.577000,203.916,56.220,93.184,266.673,-6.999,473.450,571.220,274.400,115.940
676,39192.629000,190.157,58.227,100.352,263.042,4.003,476.663,618.220,193.400,27.940
677,39192.662000,173.451,66.259,110.592,254.759,20.479,481.974,473.220,223.400,34.940
678,39192.682000,168.537,68.267,106.496,250.074,24.042,480.054,254.220,149.400,17.940
679,39192.721000,161.658,56.220,124.928,244.366,21.296,483.966,26.220,137.400,171.940
680,39192.762000,214.726,57.224,132.096,246.258,21.321,483.969,-109.780,120.400,197.940
681,39192.802000,247.155,51.200,150.528,243.303,12.999,481.798,-216.780,92.400,301.940
682,39192.837000,321.843,26.102,176.128,242.141,-2.626,479.475,-293.780,64.400,280.940
683,39192.877000,353.290,0.000,215.040,243.041,-6.239,481.388,-202.780,59.400,222.940
684,39192.897000,303.171,9.035,169.984,249.643,-7.945,483.351,10.220,-205.600,52.940
685,39192.939000,226.518,23.090,138.240,253.394,-9.844,477.349,13.220,-401.600,-6.060
686,39192.978000,176.399,31.122,120.832,261.909,-9.751,476.368,33.220,-460.600,-44.060
687,39193.21000,171.486,36.141,102.400,270.490,-4.259,470.530,-48.780,-371.600,-128.060
688,39193.61000,195.071,44.173,100.352,277.108,-4.250,466.562,-13.780,-242.600,-143.060
689,39193.101000,202.933,30.118,92.160,286.604,-1.435,463.652,-72.780,-300.600,-245.060
690,39193.149000,208.829,55.216,90.112,287.520,-3.313,460.629,-283.780,-244.600,-370.060
691,39193.162000,209.812,68.267,81.920,295.020,-7.891,455.570,-381.780,-264.600,-495.060
692,39193.197000,220.622,60.235,87.040,300.666,-9.727,451.560,-465.780,-237.600,-491.060
693,39193.237000,215.708,53.208,86.016,307.162,-18.840,449.387,-555.780,-243.600,-510.060
694,39193.286000,206.864,59.231,80.896,313.858,-12.515,440.580,-561.780,-271.600,-508.060
695,39193.322000,222.587,71.278,82.944,316.594,-19.845,438.438,-675.780,-202.600,-523.060
696,39193.363000,204.898,71.278,91.136,320.251,-28.996,436.260,-515.780,-271.600,-427.060
697,39193.382000,226.518,111.435,117.760,324.961,-29.947,431.273,-515.780,-104.600,-468.060
698,39193.425000,210.795,108.424,109.568,331.497,-35.512,423.207,-579.780,-320.600,-343.060
699,39193.472000,209.812,108.424,104.448,338.060,-39.226,416.176,-659.780,-365.600,-256.060
700,39193.506000,220.622,97.380,88.064,345.488,-49.262,412.989,-730.780,-390.600,-184.060
701,39193.539000,222.587,96.376,79.872,355.740,-59.436,400.852,-827.780,-387.600,-180.060
702,39193.579000,218.656,71.278,74.752,361.165,-76.943,391.536,-896.780,-407.600,-100.060
703,39193.599000,225.536,45.176,93.184,365.625,-95.457,378.218,-1096.780,-284.600,-34.060
704,39193.646000,225.536,17.067,82.944,369.101,-116.732,364.840,-966.780,-326.600,15.940
705,39193.679000,223.570,15.059,96.256,371.778,-127.825,357.645,-804.780,-170.600,32.940
706,39193.734000,238.311,34.133,125.952,373.478,-141.600,354.371,-508.780,14.400,-35.060
707,39193.761000,237.328,22.086,88.064,373.391,-147.234,347.288,-254.780,-180.600,-50.060
708,39193.801000,250.104,10.039,66.560,376.202,-149.067,345.264,-503.780,-132.600,-62.060
709,39193.821000,240.276,10.039,60.416,380.779,-159.277,335.107,-636.780,-163.600,-114.060
710,39193.861000,252.069,25.098,87.040,382.569,-165.841,326.019,-883.780,-5.600,-204.060
711,39193.912000,226.518,29.114,93.184,382.558,-165.978,319.053,-894.780,40.400,-416.060
712,39193.945000,212.760,13.051,86.016,386.185,-177.019,313.850,-715.780,-4.600,-460.060
713,39193.980000,212.760,13.051,71.680,390.007,-173.460,305.975,-829.780,26.400,-496.060
714,39194.27000,199.985,12.047,84.992,391.873,-174.508,297.998,-935.780,60.400,-540.060
715,39194.60000,204.898,6.024,95.232,396.507,-180.975,291.899,-949.780,111.400,-486.060
716,39194.85000,203.916,6.024,112.640,397.444,-181.080,285.931,-844.780,96.400,-420.060
717,39194.126000,186.226,11.043,115.712,398.393,-180.268,279.982,-625.780,177.400,-378.060
718,39194.162000,171.486,29.114,128.000,398.344,-183.913,280.899,-345.780,128.400,-339.060
719,39194.202000,209.812,37.145,114.688,402.225,-176.593,278.076,-433.780,311.400,-332.060
720,39194.245000,257.965,90.353,167.936,398.423,-178.377,283.006,-537.780,375.400,-465.060
721,39194.283000,287.447,88.345,177.152,403.214,-174.533,289.063,-269.780,457.400,-424.060
722,39194.305000,324.791,83.325,203.776,399.485,-170.081,285.173,-806.780,64.400,-521.060
723,39194.347000,311.033,69.271,172.032,406.031,-174.750,276.132,-713.780,-77.600,-459.060
724,39194.378000,241.259,83.325,150.528,408.983,-166.467,276.312,24.220,-28.600,-263.060
725,39194.427000,206.864,65.255,120.832,409.902,-169.086,282.226,185.220,162.400,-70.060
726,39194.458000,190.157,69.271,98.304,407.044,-170.877,286.162,140.220,303.400,164.940
727,39194.502000,175.417,53.208,87.040,397.418,-183.692,292.838,-316.780,587.400,292.940
728,39194.537000,156.745,48.188,100.352,385.022,-191.885,303.586,-453.780,620.400,334.940
729,39194.565000,161.658,17.067,111.616,373.587,-198.350,308.405,-307.780,460.400,162.940
730,39194.611000,185.244,22.086,151.552,368.803,-202.876,314.269,24.220,333.400,192.940
731,39194.643000,192.123,34.133,179.200,363.160,-201.002,320.268,300.220,235.400,267.940
732,39194.680000,190.157,31.122,179.200,354.528,-210.158,326.029,491.220,97.400,413.940
733,39194.720000,199.985,35.137,172.032,348.031,-201.825,335.148,560.220,33.400,488.940
734,39194.762000,196.054,42.165,153.600,345.149,-205.449,339.045,674.220,-12.600,500.940
735,39194.782000,191.140,38.149,158.720,341.466,-198.911,348.131,608.220,35.400,541.940
736,39194.825000,192.123,36.141,151.552,333.906,-198.893,354.088,587.220,-10.600,575.940
737,39194.868000,196.054,19.075,139.264,326.226,-207.200,355.889,536.220,-13.600,606.940
738,39194.909000,199.002,17.067,154.624,319.708,-200.660,366.959,510.220,-2.600,617.940
739,39194.946000,206.864,-9.035,151.552,313.919,-208.960,367.769,500.220,32.400,627.940
740,39194.982000,204.898,-21.082,149.504,301.707,-203.450,376.820,468.220,67.400,581.940
741,39195.1000,204.898,-24.094,150.528,299.835,-202.462,381.811,514.220,18.400,524.940
742,39195.42000,208.829,-6.024,153.600,297.083,-196.866,388.889,639.220,-24.600,283.940
743,39195.85000,196.054,-3.012,165.888,295.297,-189.484,393.022,669.220,-31.600,198.940
744,39195.122000,201.950,13.051,178.176,296.339,-182.961,398.135,510.220,-65.600,182.940
745,39195.163000,196.054,23.090,182.272,295.414,-181.959,403.128,389.220,-129.600,225.940
746,39195.200000,184.261,30.118,139.264,299.238,-179.141,404.189,427.220,-246.600,264.940
747,39195.225000,180.330,42.165,109.568,306.025,-167.144,404.454,502.220,-391.600,256.940
748,39195.261000,221.605,57.224,100.352,312.633,-168.012,402.456,605.220,-312.600,234.940
749,39195.305000,221.605,57.224,103.424,317.572,-153.213,406.757,592.220,-278.600,205.940
750,39195.341000,207.846,47.184,105.472,319.483,-151.434,402.819,404.220,-177.600,235.940
751,39195.381000,204.898,47.184,97.280,320.437,-151.324,407.796,418.220,-140.600,227.940
752,39195.420000,202.933,75.294,112.640,320.637,-136.666,408.108,399.220,-71.600,144.940
753,39195.445000,209.812,76.298,121.856,322.560,-134.750,411.136,340.220,64.400,100.940
754,39195.481000,225.536,51.200,120.832,317.907,-129.277,413.235,226.220,24.400,190.940
755,39195.525000,238.311,43.169,122.880,316.087,-124.604,419.299,408.220,25.400,342.940
756,39195.561000,234.380,36.141,117.760,314.186,-125.486,422.262,637.220,-22.600,506.940
757,39195.605000,228.484,45.176,101.376,307.631,-120.915,426.328,795.220,-24.600,586.940
758,39195.641000,226.518,51.200,108.544,307.815,-107.992,431.576,929.220,-29.600,573.940
759,39195.685000,226.518,47.184,115.712,301.276,-102.465,437.652,915.220,-15.600,545.940
760,39195.703000,220.622,46.180,129.024,299.613,-85.941,440.985,886.220,93.400,509.940
761,39195.745000,220.622,44.173,120.832,298.728,-82.153,448.027,943.220,62.400,387.940
762,39195.781000,221.605,37.145,114.688,292.339,-65.633,454.337,963.220,132.400,369.940
763,39195.820000,216.691,36.141,108.544,289.677,-52.825,455.600,978.220,122.400,347.940
764,39195.861000,226.518,38.149,96.256,284.300,-31.673,463.999,958.220,104.400,309.940
765,39195.905000,225.536,39.153,99.328,281.618,-20.639,468.209,784.220,187.400,292.940
766,39195.923000,217.674,49.192,88.064,276.122,-7.810,472.452,775.220,201.400,200.940
767,39195.961000,198.019,50.196,80.896,269.683,5.825,471.738,818.220,211.400,124.940
768,39196.1000,177.382,61.239,90.112,262.389,25.120,480.095,755.220,276.400,66.940
769,39196.43000,169.520,73.286,98.304,259.776,41.593,481.437,770.220,258.400,58.940
770,39196.86000,143.969,77.302,103.424,250.453,51.565,482.630,511.220,229.400,78.940
771,39196.123000,166.572,74.290,104.448,244.898,60.631,481.820,269.220,192.400,181.940
772,39196.141000,283.516,69.271,140.288,243.947,60.560,478.833,63.220,194.400,283.940
773,39196.184000,310.050,20.078,200.704,240.949,48.652,480.564,-133.780,25.400,387.940
774,39196.226000,348.376,10.039,224.256,238.031,42.299,485.398,-134.780,38.400,331.940
775,39196.263000,271.724,5.020,181.248,244.609,39.541,480.376,48.220,-206.600,227.940
776,39196.310000,211.777,15.059,132.096,255.874,33.239,478.269,-45.780,-397.600,179.940
777,39196.346000,189.175,21.082,111.616,264.450,37.893,476.392,28.220,-588.600,114.940
778,39196.383000,179.347,36.141,86.016,277.588,30.622,470.288,-30.780,-531.600,-1.060
779,39196.401000,198.019,43.169,83.968,283.279,32.393,463.372,-30.780,-388.600,-118.060
780,39196.446000,219.639,41.161,77.824,293.675,32.374,455.430,-367.780,-476.600,-253.060
781,39196.485000,222.587,52.204,72.704,303.038,25.170,455.291,-500.780,-367.600,-307.060
782,39196.526000,225.536,56.220,62.464,305.855,24.174,449.306,-648.780,-312.600,-448.060
783,39196.562000,223.570,58.227,64.512,316.195,19.653,445.246,-753.780,-255.600,-506.060
784,39196.602000,229.466,46.180,73.728,317.856,3.109,440.918,-799.780,-152.600,-546.060
785,39196.621000,232.415,44.173,89.088,322.575,2.256,440.907,-787.780,-92.600,-525.060
786,39196.668000,221.605,64.251,89.088,323.330,-11.513,438.626,-731.780,-120.600,-634.060
787,39196.702000,216.691,79.310,93.184,324.193,-17.095,433.535,-630.780,-141.600,-551.060
788,39196.746000,216.691,71.278,81.920,333.689,-14.280,430.625,-771.780,-213.600,-516.060
789,39196.782000,207.846,88.345,80.896,338.278,-24.353,427.433,-682.780,-266.600,-453.060
790,39196.822000,220.622,123.482,96.256,344.812,-29.938,418.372,-725.780,-318.600,-337.060
791,39196.842000,213.743,91.357,88.064,352.164,-44.711,407.128,-862.780,-428.600,-211.060
792,39196.882000,220.622,85.333,88.064,355.825,-53.043,399.994,-751.780,-397.600,-110.060
793,39196.922000,235.363,82.322,79.872,363.218,-65.028,390.798,-718.780,-285.600,-121.060
794,39196.962000,237.328,76.298,71.680,368.747,-75.167,383.628,-792.780,-219.600,-61.060
795,39197.7000,241.259,49.192,58.368,370.376,-93.621,375.280,-862.780,-245.600,-47.060
796,39197.50000,217.674,43.169,60.416,374.918,-106.560,366.060,-934.780,-180.600,-73.060
797,39197.65000,251.086,30.118,77.824,378.506,-120.369,359.803,-1086.780,-65.600,-69.060
798,39197.101000,257.965,10.039,91.136,375.303,-146.214,351.291,-908.780,-3.600,6.940
799,39197.148000,245.190,5.020,98.304,374.333,-147.280,344.305,-798.780,52.400,-54.060
800,39197.185000,244.207,11.043,91.136,373.180,-162.028,340.011,-548.780,23.400,-37.060
801,39197.222000,224.553,5.020,79.872,369.336,-165.840,334.951,-501.780,-41.600,-26.060
802,39197.266000,226.518,4.016,77.824,373.854,-180.592,326.686,-545.780,-39.600,-60.060
803,39197.306000,221.605,6.024,84.992,371.912,-184.282,326.605,-435.780,-33.600,-66.060
804,39197.326000,209.812,13.051,96.256,373.824,-182.483,323.662,-263.780,-22.600,-68.060
805,39197.367000,240.276,17.067,96.256,375.703,-183.394,322.651,-135.780,29.400,-116.060
806,39197.407000,229.466,24.094,88.064,376.696,-179.756,320.741,-45.780,-47.600,-182.060
807,39197.447000,270.741,33.129,104.448,375.780,-177.098,316.817,-257.780,74.400,-280.060
808,39197.498000,248.138,33.129,80.896,381.453,-177.081,313.842,-262.780,-191.600,-318.060
809,39197.527000,212.760,23.090,94.208,382.336,-180.890,305.805,-465.780,-122.600,-260.060
810,39197.547000,235.363,18.071,101.376,388.910,-183.707,297.798,-575.780,-89.600,-219.060
811,39197.586000,204.898,20.078,107.520,391.653,-190.180,292.691,-543.780,-99.600,-211.060
812,39197.622000,219.639,16.063,106.496,396.427,-186.531,288.797,-435.780,-9.600,-272.060
813,39197.662000,218.656,28.110,102.400,397.353,-187.532,283.804,-502.780,-77.600,-357.060
814,39197.707000,225.536,34.133,109.568,401.053,-193.096,277.723,-504.780,-34.600,-373.060
815,39197.747000,238.311,45.176,105.472,405.834,-188.609,269.869,-680.780,43.400,-338.060
816,39197.774000,225.536,10.039,105.472,410.443,-196.908,263.731,-608.780,-40.600,-324.060
817,39197.808000,228.484,38.149,124.928,410.560,-187.845,258.951,-692.780,65.400,-432.060
818,39197.846000,212.760,26.102,113.664,414.340,-187.853,255.973,-378.780,-51.600,-372.060
819,39197.883000,208.829,22.086,89.088,416.282,-183.404,248.113,-435.780,-27.600,-419.060
820,39197.923000,209.812,34.133,104.448,422.017,-178.807,245.235,-570.780,29.400,-440.060
821,39197.966000,169.520,26.102,79.872,426.776,-176.113,239.332,-259.780,-124.600,-351.060
822,39198.7000,170.503,47.184,111.616,428.676,-175.230,236.370,-393.780,117.400,-410.060
823,39198.23000,189.175,43.169,71.680,435.345,-171.537,233.474,244.220,-199.600,-328.060
824,39198.75000,238.311,57.224,107.520,439.356,-154.996,233.832,243.220,-46.600,-297.060
825,39198.111000,303.171,99.388,118.784,438.474,-150.409,234.923,302.220,-4.600,-251.060
826,39198.148000,330.687,153.600,128.000,439.578,-139.305,240.134,308.220,-64.600,-171.060
827,39198.183000,301.205,135.529,123.904,444.294,-140.198,238.133,73.220,-62.600,1.940
828,39198.228000,257.965,111.435,118.784,445.199,-142.972,236.086,141.220,-40.600,175.940
829,39198.247000,214.726,98.384,90.112,440.444,-144.848,237.034,333.220,-209.600,384.940
830,39198.287000,205.881,88.345,82.944,445.146,-146.676,234.018,231.220,-251.600,482.940
831,39198.323000,188.192,52.204,72.704,441.136,-163.216,233.660,-13.780,-205.600,566.940
832,39198.366000,200.967,30.118,58.368,439.106,-172.539,226.496,80.220,-274.600,526.940
833,39198.412000,213.743,29.114,88.064,435.271,-176.254,226.411,149.220,-116.600,421.940
834,39198.443000,241.259,15.059,92.160,434.205,-185.369,229.200,389.220,39.400,382.940
835,39198.470000,232.415,20.078,96.256,427.552,-188.108,234.105,471.220,89.400,322.940
836,39198.506000,233.397,21.082,83.968,422.785,-191.659,242.974,581.220,73.400,271.940
837,39198.550000,232.415,10.039,72.704,417.142,-189.785,248.973,577.220,58.400,260.940
838,39198.591000,231.432,20.078,62.464,418.158,-185.113,253.053,487.220,125.400,219.940
839,39198.626000,229.466,26.102,68.608,415.357,-183.162,261.047,391.220,229.400,171.940
840,39198.668000,237.328,31.122,100.352,408.753,-183.016,272.976,332.220,272.400,156.940
841,39198.706000,228.484,14.055,100.352,409.773,-178.286,280.041,434.220,163.400,128.940
842,39198.723000,225.536,17.067,90.112,399.386,-177.390,286.012,264.220,194.400,76.940
843,39198.763000,228.484,13.051,112.640,402.295,-172.694,290.095,226.220,141.400,106.940
844,39198.811000,217.674,6.024,119.808,401.367,-171.712,294.093,268.220,23.400,94.940
845,39198.848000,229.466,8.031,104.448,400.351,-177.163,296.959,355.220,20.400,55.940
846,39198.883000,234.380,15.059,89.088,403.423,-160.538,302.291,543.220,-28.600,45.940
847,39198.927000,243.225,50.196,79.872,401.619,-154.910,310.365,809.220,51.400,9.940
848,39198.943000,235.363,66.259,69.632,404.721,-136.393,318.721,922.220,39.400,1.940
849,39198.988000,228.484,80.314,53.248,407.647,-130.722,325.808,773.220,8.400,72.940
850,39199.26000,250.104,78.306,67.584,402.933,-129.810,328.805,428.220,95.400,33.940
851,39199.68000,245.190,70.275,78.848,400.166,-125.150,334.868,377.220,103.400,64.940
852,39199.108000,212.760,63.247,73.728,400.372,-110.433,338.165,491.220,72.400,92.940
853,39199.145000,221.605,65.255,58.368,398.566,-104.825,345.244,485.220,47.400,98.940
854,39199.163000,222.587,76.298,61.440,399.514,-104.793,346.241,379.220,130.400,48.940
855,39199.205000,216.691,85.333,71.680,394.815,-102.926,351.247,449.220,68.400,40.940
856,39199.245000,241.259,76.298,61.440,395.754,-103.771,354.214,333.220,158.400,100.940
857,39199.288000,258.948,46.180,78.848,389.331,-89.960,362.456,385.220,274.400,260.940
858,39199.328000,247.155,44.173,67.584,382.781,-85.330,369.507,634.220,233.400,322.940
859,39199.365000,223.570,56.220,66.560,376.172,-85.242,378.451,755.220,265.400,330.940
860,39199.388000,217.674,56.220,65.536,370.745,-67.755,386.772,930.220,261.400,336.940
861,39199.428000,213.743,65.255,69.632,356.658,-61.295,398.825,913.220,355.400,246.940
862,39199.468000,212.760,79.310,94.208,353.111,-44.698,407.130,1013.220,428.400,289.940
863,39199.506000,220.622,83.325,81.920,343.891,-28.118,418.410,953.220,397.400,282.940
864,39199.545000,215.708,66.259,78.848,336.441,-19.876,423.547,917.220,395.400,353.940
865,39199.587000,226.518,56.220,94.208,326.220,-7.031,431.763,922.220,456.400,321.940
866,39199.625000,228.484,61.239,83.968,317.047,13.174,441.131,1449.220,405.400,469.940
867,39199.643000,236.345,67.263,96.256,304.082,33.252,446.512,1451.220,475.400,441.940
868,39199.698000,235.363,77.302,107.520,293.237,69.864,453.243,1594.220,384.400,340.940
869,39199.725000,215.708,86.337,102.400,287.775,85.403,455.555,1584.220,371.400,390.940
870,39199.767000,194.088,77.302,82.944,281.456,108.140,452.051,1451.220,220.400,386.940
871,39199.810000,199.985,99.388,112.640,278.977,134.632,450.622,1239.220,256.400,321.940
872,39199.845000,176.399,89.349,101.376,282.001,149.152,441.984,1244.220,-87.600,350.940
873,39199.870000,161.658,88.345,81.920,281.268,165.493,435.368,885.220,50.400,234.940
874,39199.907000,165.589,89.349,86.016,280.463,176.376,430.625,745.220,-145.600,200.940
875,39199.950000,247.155,99.388,78.848,288.058,179.069,422.737,343.220,-83.600,159.940
876,39199.987000,353.290,73.286,131.072,286.240,184.541,422.851,105.220,72.400,239.940
877,39200.30000,385.720,48.188,162.816,288.086,180.940,424.766,80.220,250.400,269.940
878,39200.67000,351.324,37.145,175.104,284.323,181.923,430.749,105.220,165.400,160.940
879,39200.90000,270.741,36.141,106.496,286.250,184.658,428.821,238.220,26.400,112.940
880,39200.127000,202.933,50.196,93.184,288.249,192.850,425.020,378.220,-87.600,160.940
881,39200.167000,170.503,48.188,68.608,290.095,190.029,419.989,340.220,-223.600,171.940
882,39200.207000,192.123,53.208,48.128,301.546,197.449,417.180,198.220,-187.600,103.940
883,39200.247000,216.691,52.204,40.960,303.430,197.377,412.208,51.220,-260.600,64.940
884,39200.288000,221.605,59.231,41.984,310.922,191.941,410.114,-329.780,-238.600,-97.060
885,39200.327000,231.432,68.267,55.296,310.906,190.206,415.051,-470.780,-209.600,-162.060
886,39200.348000,232.415,92.361,53.248,316.384,175.623,414.748,-644.780,-148.600,-192.060
887,39200.390000,222.587,67.263,58.368,316.348,172.894,415.685,-779.780,-176.600,-365.060
888,39200.430000,229.466,82.322,64.512,312.360,157.387,421.317,-910.780,-116.600,-522.060
889,39200.471000,226.518,71.278,64.512,309.340,143.686,424.999,-1065.780,-107.600,-666.060
890,39200.505000,222.587,87.341,60.416,308.390,142.855,429.953,-1254.780,-196.600,-704.060
891,39200.550000,217.674,93.365,40.960,314.738,122.008,436.481,-1400.780,-275.600,-626.060
892,39200.568000,213.743,95.373,51.200,316.302,98.174,433.987,-1443.780,-359.600,-571.060
893,39200.605000,209.812,99.388,61.440,323.580,77.145,430.566,-1260.780,-394.600,-519.060
894,39200.645000,218.656,107.420,70.656,331.817,57.044,427.167,-1306.780,-417.600,-503.060
895,39200.685000,219.639,105.412,75.776,336.397,46.093,425.946,-1164.780,-413.600,-433.060
896,39200.725000,223.570,119.467,76.800,343.862,38.805,422.818,-1106.780,-384.600,-378.060
897,39200.765000,231.432,127.498,77.824,354.876,14.941,412.380,-1110.780,-390.600,-270.060
898,39200.793000,221.605,114.447,71.680,363.181,0.259,405.117,-1245.780,-321.600,-271.060
899,39200.826000,230.449,90.353,75.776,363.750,-26.472,395.598,-1244.780,-309.600,-190.060
900,39200.868000,222.587,54.212,82.944,366.395,-40.255,391.330,-1232.780,-224.600,-108.060
901,39200.908000,231.432,53.208,83.968,369.036,-54.077,385.072,-1123.780,-135.600,-152.060
902,39200.958000,240.276,47.184,81.920,371.653,-69.730,378.774,-839.780,-97.600,-126.060
903,39200.996000,249.121,32.125,89.088,367.700,-81.749,375.529,-732.780,-41.600,-77.060
904,39201.28000,239.294,33.129,89.088,374.191,-90.920,370.370,-631.780,-13.600,-86.060
905,39201.48000,229.466,31.122,83.968,370.349,-94.713,366.305,-391.780,-30.600,-91.060
906,39201.92000,223.570,38.149,78.848,373.990,-104.818,362.117,-314.780,-32.600,-110.060
907,39201.132000,201.950,47.184,106.496,374.045,-101.095,365.180,-281.780,15.400,-131.060
908,39201.172000,194.088,45.176,115.712,371.104,-108.481,364.024,-22.780,-5.600,-76.060
909,39201.206000,216.691,47.184,92.160,373.081,-102.082,362.174,-29.780,-0.600,-105.060
910,39201.246000,236.345,59.231,110.592,372.994,-108.495,362.037,-124.780,-76.600,-171.060
911,39201.266000,256.983,78.306,105.472,374.929,-104.884,358.138,-178.780,-38.600,-249.060
912,39201.306000,247.155,91.357,88.064,376.885,-99.499,351.293,-436.780,-170.600,-368.060
913,39201.346000,214.726,65.255,108.544,387.169,-107.762,343.176,-879.780,-170.600,-430.060
914,39201.388000,202.933,58.227,110.592,388.004,-115.216,336.056,-952.780,-211.600,-394.060
915,39201.431000,214.726,46.180,126.976,389.835,-118.992,329.016,-694.780,-72.600,-236.060
916,39201.471000,201.950,55.216,131.072,395.407,-126.304,325.884,-424.780,-31.600,-163.060
917,39201.491000,206.864,53.208,107.520,397.254,-129.125,320.854,-248.780,-83.600,-118.060
918,39201.532000,221.605,60.235,115.712,399.131,-130.055,318.848,-392.780,-72.600,-69.060
919,39201.569000,216.691,54.212,114.688,399.916,-141.173,311.650,-346.780,-115.600,-62.060
920,39201.611000,231.432,54.212,107.520,403.676,-142.955,311.617,-264.780,-121.600,-58.060
921,39201.650000,225.536,56.220,101.376,404.570,-145.867,302.605,-385.780,-125.600,-116.060
922,39201.687000,209.812,57.224,100.352,409.321,-144.031,299.667,-375.780,-90.600,-168.060
923,39201.710000,203.916,49.192,98.304,412.175,-142.278,293.741,-373.780,-66.600,-180.060
924,39201.750000,198.019,27.106,87.040,414.906,-149.667,288.614,-443.780,-20.600,-179.060
925,39201.787000,143.969,22.086,87.040,412.981,-151.603,284.592,-453.780,-2.600,-231.060
926,39201.830000,126.280,20.078,71.680,416.863,-144.263,282.765,-216.780,17.400,-199.060
927,39201.866000,152.814,43.169,84.992,419.722,-142.451,279.823,139.220,-134.600,-243.060
928,39201.913000,296.292,96.376,103.424,422.781,-125.982,277.195,240.220,-274.600,-329.060
929,39201.946000,362.134,134.525,111.616,429.476,-119.677,267.392,33.220,-292.600,-239.060
930,39201.966000,406.357,151.592,112.640,433.219,-122.434,264.355,-71.780,-301.600,-34.060
931,39202.15000,347.393,113.443,125.952,434.109,-126.164,260.299,-131.780,-241.600,191.940
932,39202.50000,300.223,100.392,117.760,437.876,-127.088,257.301,137.220,-227.600,271.940
933,39202.91000,204.898,94.369,68.608,442.332,-146.421,248.939,72.220,-319.600,210.940
934,39202.131000,141.021,76.298,39.936,446.197,-140.055,244.107,-261.780,-405.600,108.940
935,39202.167000,165.589,52.204,34.816,446.910,-155.851,231.836,-350.780,-254.600,149.940
936,39202.186000,205.881,32.125,71.680,444.957,-160.438,232.730,-266.780,-15.600,202.940
937,39202.230000,211.777,27.106,80.896,441.134,-163.236,232.665,-120.780,116.400,324.940
938,39202.270000,231.432,23.090,84.992,432.482,-174.166,241.371,121.220,263.400,409.940
939,39202.311000,239.294,8.031,81.920,427.764,-174.073,249.323,336.220,286.400,364.940
940,39202.350000,227.501,13.051,76.800,421.122,-176.675,261.194,331.220,359.400,299.940
941,39202.390000,226.518,29.114,79.872,413.540,-178.451,269.102,399.220,453.400,259.940
942,39202.411000,205.881,24.094,91.136,408.814,-179.215,280.019,711.220,189.400,239.940
943,39202.450000,217.674,37.145,111.616,400.359,-176.306,293.994,655.220,287.400,288.940
944,39202.487000,212.760,26.102,134.144,399.352,-181.639,302.831,591.220,178.400,312.940
945,39202.527000,216.691,21.082,137.216,391.075,-165.086,312.122,725.220,85.400,346.940
946,39202.571000,205.881,22.086,149.504,392.887,-171.395,315.969,630.220,36.400,356.940
947,39202.618000,237.328,16.063,121.856,389.185,-165.851,321.055,770.220,-93.600,367.940
948,39202.652000,241.259,34.133,79.872,389.344,-154.760,326.264,779.220,-113.600,367.940
949,39202.672000,243.225,62.243,79.872,383.682,-154.640,336.205,923.220,59.400,299.940
950,39202.718000,228.484,60.235,69.632,380.037,-145.353,345.349,923.220,75.400,365.940
951,39202.752000,240.276,57.224,88.064,378.296,-135.144,353.521,735.220,214.400,352.940
952,39202.790000,244.207,60.235,79.872,371.772,-128.663,361.606,647.220,277.400,278.940
953,39202.842000,216.691,49.192,64.512,369.930,-125.783,369.622,496.220,241.400,264.940
954,39202.873000,208.829,55.216,40.960,361.502,-120.243,377.684,322.220,235.400,175.940
955,39202.892000,217.674,53.208,70.656,352.970,-122.070,383.601,189.220,359.400,87.940
956,39202.930000,206.864,56.220,81.920,346.313,-125.627,393.462,508.220,302.400,115.940
957,39202.967000,224.553,49.192,94.208,343.768,-104.516,397.886,336.220,344.400,78.940
958,39203.11000,255.017,61.239,129.024,330.499,-107.244,407.754,477.220,426.400,164.940
959,39203.48000,249.121,60.235,145.408,324.061,-94.369,414.981,418.220,410.400,200.940
960,39203.92000,242.242,58.227,156.672,314.579,-97.028,425.852,416.220,261.400,234.940
961,39203.111000,211.777,51.200,134.144,315.655,-87.795,429.034,552.220,128.400,255.940
962,39203.148000,205.881,59.231,123.904,310.041,-84.050,437.062,478.220,44.400,207.940
963,39203.193000,203.916,59.231,110.592,312.019,-77.631,436.207,387.220,22.400,201.940
964,39203.232000,199.002,65.255,109.568,306.456,-69.442,437.368,305.220,78.400,168.940
965,39203.271000,215.708,48.188,91.136,301.882,-58.413,442.569,610.220,-13.600,267.940
966,39203.311000,215.708,52.204,90.112,305.721,-54.659,444.644,559.220,24.400,238.940
967,39203.347000,222.587,63.247,94.208,301.121,-45.482,448.811,484.220,105.400,210.940
968,39203.372000,227.501,64.251,94.208,297.427,-39.080,450.931,435.220,156.400,243.940
969,39203.412000,213.743,54.212,78.848,289.905,-36.295,457.941,410.220,153.400,255.940
970,39203.448000,207.846,57.224,87.040,286.247,-27.165,459.125,530.220,247.400,258.940
971,39203.487000,197.036,55.216,97.280,279.676,-23.549,461.182,674.220,277.400,321.940
972,39203.541000,175.417,64.251,111.616,276.933,-17.076,466.288,484.220,250.400,303.940
973,39203.572000,173.451,41.161,125.952,268.446,-15.297,469.298,297.220,140.400,263.940
974,39203.587000,173.451,35.137,120.832,271.319,-12.550,467.371,245.220,29.400,63.940
975,39203.635000,230.449,51.200,138.240,267.548,-11.665,468.379,-10.780,-8.600,296.940
976,39203.671000,285.482,21.082,171.008,271.252,-17.190,464.288,-228.780,-61.600,343.940
977,39203.711000,318.894,40.157,152.576,274.987,-20.804,464.217,-228.780,-150.600,253.940
978,39203.755000,319.877,21.082,143.360,272.968,-30.010,463.023,18.220,-173.600,167.940
979,39203.791000,271.724,2.008,139.264,278.666,-28.161,460.087,17.220,-211.600,132.940
980,39203.808000,243.225,-1.004,137.216,281.389,-36.408,457.926,34.220,-283.600,114.940
981,39203.852000,198.019,-4.016,111.616,289.999,-29.044,454.117,162.220,-300.600,52.940
982,39203.892000,171.486,19.075,82.944,295.650,-30.821,453.093,175.220,-281.600,-76.060
983,39203.931000,198.019,28.110,81.920,299.494,-26.230,451.207,179.220,-223.600,-203.060
984,39203.975000,215.708,48.188,80.896,305.344,-13.368,449.501,25.220,-181.600,-297.060
985,39204.12000,227.501,50.196,93.184,310.051,-14.358,442.524,-117.780,-130.600,-336.060
986,39204.51000,221.605,50.196,92.160,310.055,-14.319,444.514,-330.780,-95.600,-402.060
987,39204.68000,217.674,58.227,89.088,314.831,-10.650,441.615,-467.780,-137.600,-409.060
988,39204.112000,225.536,61.239,86.016,313.810,-16.160,441.497,-541.780,-107.600,-472.060
989,39204.151000,220.622,72.282,92.160,320.356,-21.608,439.401,-617.780,-98.600,-534.060
990,39204.193000,219.639,76.298,92.160,326.948,-23.431,435.393,-650.780,-94.600,-507.060
991,39204.231000,218.656,73.286,81.920,326.757,-37.212,433.111,-707.780,-165.600,-461.060
992,39204.268000,219.639,78.306,82.944,331.440,-40.034,426.095,-781.780,-156.600,-452.060
993,39204.293000,221.605,80.314,90.112,339.811,-50.097,420.920,-826.780,-190.600,-417.060
994,39204.330000,215.708,80.314,101.376,343.450,-60.222,415.737,-853.780,-164.600,-354.060
995,39204.373000,217.674,84.329,103.424,347.109,-68.573,407.607,-854.780,-147.600,-312.060
996,39204.410000,210.795,84.329,100.352,351.578,-86.990,399.265,-803.780,-172.600,-269.060
997,39204.455000,224.553,89.349,96.256,355.297,-91.559,397.184,-739.780,-167.600,-271.060
998,39204.492000,218.656,84.329,96.256,360.831,-100.860,386.053,-713.780,-178.600,-243.060
999,39204.510000,224.553,71.278,98.304,363.482,-113.805,377.824,-638.780,-146.600,-143.060
1000,39204.555000,230.449,53.208,95.232,367.191,-118.492,369.773,-649.780,-163.600,-89.060
1001,39204.592000,225.536,38.149,94.208,368.785,-139.674,362.362,-729.780,-117.600,-33.060
1002,39204.632000,226.518,31.122,99.328,368.787,-138.875,356.411,-668.780,-88.600,-5.060
1003,39204.675000,234.380,34.133,97.280,367.738,-146.256,354.263,-567.780,-68.600,8.940
1004,39204.710000,239.294,33.129,98.304,367.576,-157.386,347.064,-541.780,-33.600,28.940
1005,39204.728000,238.311,16.063,99.328,369.293,-169.427,338.853,-550.780,-73.600,38.940
1006,39204.773000,240.276,15.059,98.304,363.433,-182.406,334.589,-611.780,-11.600,86.940
1007,39204.823000,232.415,5.020,97.280,367.146,-187.054,328.528,-439.780,-54.600,78.940
1008,39204.848000,237.328,5.020,103.424,362.283,-196.355,324.345,-322.780,-23.600,99.940
1009,39204.888000,227.501,5.020,110.592,364.161,-197.266,323.333,-272.780,8.400,91.940
1010,39204.932000,229.466,2.008,111.616,364.942,-209.202,321.091,-288.780,3.400,88.940
1011,39204.975000,221.605,1.004,108.544,362.069,-211.170,316.072,-222.780,-7.600,110.940
1012,39204.992000,222.587,-2.008,103.424,359.161,-215.866,311.989,-198.780,-14.600,125.940
1013,39205.32000,230.449,-9.035,107.520,360.929,-225.002,311.797,-157.780,-19.600,121.940
1014,39205.76000,227.501,-13.051,109.568,354.226,-230.626,309.678,-139.780,-26.600,131.940
1015,39205.113000,232.415,-11.043,111.616,359.960,-226.048,305.806,-74.780,-29.600,95.940
1016,39205.153000,232.415,-12.047,107.520,360.869,-228.784,305.749,0.220,-41.600,86.940
1017,39205.196000,225.536,-15.059,109.568,358.910,-233.429,303.658,38.220,-30.600,48.940
1018,39205.213000,222.587,-15.059,107.520,358.008,-230.615,307.695,66.220,-53.600,4.940
1019,39205.253000,233.397,-8.031,109.568,361.779,-231.500,306.687,131.220,-56.600,-26.060
1020,39205.295000,228.484,-8.031,106.496,366.624,-223.193,306.871,169.220,-70.600,-21.060
1021,39205.336000,226.518,-7.027,105.472,365.652,-225.037,306.830,124.220,-52.600,-10.060
1022,39205.372000,226.518,-8.031,104.448,367.650,-217.625,309.975,116.220,-41.600,-25.060
1023,39205.412000,221.605,-4.016,104.448,368.518,-223.148,307.869,144.220,-78.600,-28.060
1024,39205.438000,222.587,-6.024,103.424,369.477,-222.219,307.891,175.220,-51.600,-35.060
1025,39205.476000,238.311,-6.024,108.544,371.551,-209.291,312.147,211.220,33.400,-60.060
1026,39205.512000,228.484,6.024,110.592,374.493,-201.885,314.299,370.220,40.400,-67.060
1027,39205.556000,227.501,26.102,105.472,372.725,-193.528,321.436,391.220,79.400,-96.060
1028,39205.591000,224.553,28.110,104.448,376.574,-188.878,322.536,337.220,65.400,-103.060
1029,39205.630000,222.587,24.094,92.160,373.829,-182.424,326.647,326.220,87.400,-92.060
1030,39205.673000,232.415,29.114,88.064,376.707,-180.399,334.652,322.220,96.400,-83.060
1031,39205.691000,243.225,36.141,96.256,374.992,-167.559,336.912,404.220,114.400,-47.060
1032,39205.731000,243.225,52.204,96.256,376.859,-170.145,343.822,534.220,127.400,-41.060
