Sample, Time, ACCX, ACCY, ACCZ, MAGX, MAGY, MAGZ, GYRX, GYRY, GYRZ
0,39065.330000,224.553,63.247,90.112,367.727,-82.196,399.391,-73.780,-127.600,63.940
1,39065.349000,224.553,59.231,93.184,365.850,-80.506,393.456,-108.780,-107.600,68.940
2,39065.386000,226.518,53.208,104.448,367.641,-87.830,392.308,-217.780,-58.600,92.940
3,39065.426000,228.484,48.188,105.472,370.431,-91.437,393.230,-328.780,-61.600,105.940
4,39065.467000,229.466,37.145,106.496,369.455,-93.341,390.204,-432.780,-37.600,64.940
5,39065.507000,227.501,36.141,101.376,367.361,-108.043,388.894,-329.780,-80.600,-1.060
6,39065.548000,229.466,48.188,101.376,370.221,-106.213,386.948,-198.780,-49.600,-3.060
7,39065.588000,226.518,41.161,103.424,371.180,-105.284,386.969,-167.780,11.400,53.940
8,39065.608000,229.466,44.173,97.280,372.075,-108.956,385.897,-110.780,3.400,33.940
9,39065.649000,225.536,38.149,98.304,369.159,-114.509,384.780,-94.780,-9.600,30.940
10,39065.689000,229.466,33.129,99.328,369.107,-118.193,383.707,-5.780,-15.600,51.940
11,39065.738000,229.466,37.145,100.352,370.897,-125.536,381.564,28.220,-17.600,32.940
12,39065.773000,230.449,35.137,98.304,372.868,-119.976,383.675,82.220,-22.600,43.940
13,39065.807000,227.501,36.141,98.304,370.129,-112.684,383.826,153.220,-24.600,48.940
14,39065.827000,229.466,40.157,98.304,370.091,-115.432,383.767,157.220,-10.600,40.940
15,39065.867000,228.484,38.149,97.280,369.134,-116.342,384.741,119.220,-7.600,42.940
16,39065.907000,228.484,40.157,96.256,369.187,-112.638,386.809,123.220,-21.600,33.940
17,39065.947000,230.449,41.161,99.328,367.396,-105.314,387.957,82.220,-11.600,19.940
18,39065.987000,229.466,41.161,96.256,367.421,-103.482,387.996,79.220,-25.600,15.940
19,39066.26000,229.466,39.153,96.256,372.106,-107.045,389.917,72.220,-17.600,13.940
20,39066.47000,230.449,40.157,96.256,367.381,-106.270,385.948,108.220,-24.600,26.940
21,39066.88000,229.466,38.149,93.184,371.273,-98.033,383.145,133.220,-30.600,31.940
22,39066.128000,229.466,38.149,96.256,371.153,-107.136,385.935,118.220,-34.600,33.940
23,39066.165000,232.415,41.161,94.208,374.010,-106.124,388.944,98.220,-51.600,36.940
24,39066.207000,227.501,43.169,92.160,378.847,-97.894,385.148,119.220,-64.600,48.940
25,39066.247000,228.484,43.169,92.160,374.091,-99.789,385.101,171.220,-83.600,26.940
26,39066.287000,228.484,43.169,90.112,374.117,-97.937,386.135,157.220,-61.600,0.940
27,39066.307000,227.501,43.169,92.160,376.115,-90.524,389.280,119.220,-32.600,-6.060
28,39066.347000,231.432,40.157,90.112,378.033,-88.667,389.322,169.220,-55.600,25.940
29,39066.387000,230.449,43.169,91.136,376.101,-91.460,388.265,145.220,-45.600,56.940
30,39066.431000,231.432,43.169,91.136,379.051,-83.197,387.451,188.220,-76.600,50.940
31,39066.469000,231.432,44.173,91.136,378.026,-88.745,385.342,233.220,-72.600,53.940
32,39066.509000,234.380,50.196,87.040,380.024,-81.332,388.486,217.220,-62.600,61.940
33,39066.529000,229.466,40.157,82.944,381.974,-76.785,385.602,375.220,-85.600,174.940
34,39066.587000,237.328,46.180,81.920,382.041,-72.146,388.685,249.220,-92.600,166.940
35,39066.608000,235.363,42.165,83.968,381.027,-76.798,385.600,208.220,-101.600,133.940
36,39066.649000,237.328,44.173,79.872,379.222,-70.410,385.734,313.220,-16.600,86.940
37,39066.691000,239.294,28.110,84.992,375.540,-63.092,387.873,360.220,114.400,-10.060
38,39066.731000,236.345,39.153,83.968,370.867,-59.392,392.918,709.220,178.400,28.940
39,39066.767000,235.363,40.157,84.992,367.358,-40.047,401.282,753.220,341.400,51.940
40,39066.787000,230.449,60.235,79.872,363.780,-26.121,413.509,888.220,345.400,73.940
41,39066.828000,224.553,58.227,80.896,356.455,-8.717,418.841,995.220,296.400,92.940
42,39066.867000,230.449,63.247,81.920,347.235,8.623,422.181,963.220,287.400,140.940
43,39066.907000,229.466,53.208,87.040,342.576,13.258,428.240,841.220,264.400,185.940
44,39066.947000,228.484,56.220,87.040,343.806,33.523,433.647,851.220,193.400,178.940
45,39066.988000,229.466,56.220,89.088,335.367,38.947,435.739,794.220,187.400,233.940
46,39067.9000,228.484,58.227,91.136,329.955,58.149,438.129,755.220,183.400,217.940
47,39067.49000,230.449,59.231,92.160,331.006,65.550,441.272,768.220,138.400,227.940
48,39067.89000,228.484,60.235,88.064,328.316,76.486,440.506,728.220,135.400,253.940
49,39067.129000,228.484,59.231,87.040,323.768,90.127,438.800,626.220,132.400,165.940
50,39067.171000,229.466,62.243,90.112,323.867,97.436,437.961,523.220,76.400,174.940
51,39067.211000,231.432,63.247,87.040,320.172,103.838,440.081,397.220,39.400,147.940
52,39067.231000,228.484,62.243,86.016,324.009,107.572,441.161,180.220,19.400,63.940
53,39067.268000,231.432,60.235,87.040,320.158,102.902,439.067,34.220,-3.600,39.940
54,39067.314000,228.484,59.231,86.016,322.015,100.199,440.007,-156.780,-29.600,-22.060
55,39067.347000,228.484,61.239,89.088,324.852,100.217,439.016,-322.780,-39.600,-80.060
56,39067.388000,229.466,61.239,86.016,322.810,89.198,438.779,-434.780,-71.600,-108.060
57,39067.428000,231.432,62.243,89.088,325.552,81.945,440.618,-643.780,-114.600,-152.060
58,39067.472000,230.449,65.255,87.040,329.073,62.737,439.220,-754.780,-156.600,-118.060
59,39067.490000,229.466,59.231,87.040,333.703,55.451,438.077,-992.780,-150.600,-194.060
60,39067.536000,231.432,61.239,82.944,336.168,28.024,438.491,-1318.780,-162.600,-276.060
61,39067.569000,228.484,49.192,86.016,337.808,9.687,436.114,-1476.780,-149.600,-354.060
62,39067.608000,228.484,44.173,87.040,341.254,-14.238,427.653,-1425.780,-196.600,-428.060
63,39067.654000,230.449,45.176,92.160,348.579,-31.642,422.320,-1304.780,-211.600,-451.060
64,39067.688000,230.449,39.153,96.256,352.240,-39.974,415.186,-1295.780,-216.600,-527.060
65,39067.712000,230.449,37.145,95.232,359.451,-65.643,408.682,-1165.780,-236.600,-489.060
66,39067.747000,226.518,35.137,97.280,366.967,-68.486,398.687,-1116.780,-228.600,-476.060
67,39067.787000,230.449,44.173,93.184,373.334,-86.040,386.387,-953.780,-231.600,-430.060
68,39067.828000,229.466,42.165,100.352,374.143,-95.325,379.228,-837.780,-233.600,-358.060
69,39067.871000,229.466,51.200,95.232,384.546,-95.266,375.266,-744.780,-220.600,-349.060
70,39067.911000,229.466,48.188,92.160,390.100,-103.572,368.135,-577.780,-197.600,-264.060
71,39067.932000,228.484,51.200,93.184,391.023,-104.593,362.147,-521.780,-169.600,-239.060
72,39067.972000,229.466,52.204,93.184,393.740,-112.918,356.006,-431.780,-130.600,-187.060
73,39068.21000,229.466,53.208,93.184,400.320,-115.657,351.979,-285.780,-97.600,-133.060
74,39068.52000,227.501,54.212,95.232,401.211,-119.368,348.917,-199.780,-67.600,-109.060
75,39068.88000,228.484,54.212,92.160,404.995,-119.337,347.929,-75.780,-23.600,-59.060
76,39068.129000,229.466,56.220,92.160,403.149,-115.737,346.014,25.220,-7.600,-20.060
77,39068.149000,228.484,55.216,90.112,405.018,-117.524,346.973,111.220,1.400,24.940
78,39068.189000,229.466,56.220,89.088,401.279,-114.728,352.000,245.220,23.400,75.940
79,39068.236000,228.484,56.220,90.112,403.185,-113.768,353.018,301.220,40.400,119.940
80,39068.269000,229.466,55.216,89.088,396.718,-102.784,357.221,332.220,66.400,157.940
81,39068.309000,228.484,56.220,84.992,393.866,-103.737,357.196,364.220,78.400,170.940
82,39068.348000,230.449,58.227,88.064,392.096,-95.400,363.339,386.220,93.400,173.940
83,39068.392000,228.484,57.224,91.136,391.158,-95.315,368.312,413.220,93.400,172.940
84,39068.412000,228.484,56.220,87.040,385.473,-96.247,371.268,374.220,86.400,157.940
85,39068.458000,228.484,54.212,89.088,383.684,-88.904,373.411,364.220,83.400,158.940
86,39068.493000,230.449,54.212,90.112,381.821,-87.038,376.432,321.220,77.400,142.940
87,39068.528000,227.501,56.220,89.088,376.152,-87.016,381.397,291.220,76.400,131.940
88,39068.571000,227.501,56.220,91.136,376.217,-82.396,383.485,241.220,76.400,119.940
89,39068.611000,228.484,55.216,92.160,378.153,-78.785,379.586,190.220,71.400,118.940
90,39068.631000,228.484,55.216,92.160,375.242,-85.060,388.400,141.220,68.400,101.940
91,39068.671000,227.501,52.204,91.136,370.626,-76.838,390.557,81.220,55.400,83.940
92,39068.722000,229.466,53.208,93.184,371.535,-79.574,390.500,29.220,54.400,68.940
93,39068.749000,228.484,50.196,93.184,366.755,-83.281,391.409,-31.780,66.400,38.940
94,39068.791000,227.501,49.192,95.232,365.784,-85.126,391.368,-96.780,89.400,27.940
95,39068.830000,229.466,43.169,92.160,363.893,-85.131,392.360,-173.780,107.400,1.940
96,39068.856000,230.449,37.145,91.136,360.011,-92.472,394.187,-236.780,131.400,-30.060
97,39068.891000,224.553,29.114,104.448,357.127,-96.115,397.090,-314.780,160.400,-31.060
98,39068.932000,226.518,29.114,110.592,357.015,-104.360,396.914,-349.780,184.400,-71.060
99,39068.970000,227.501,26.102,119.808,349.346,-111.770,397.740,-387.780,227.400,-106.060
100,39069.11000,229.466,22.086,121.856,350.335,-108.950,400.785,-391.780,307.400,-142.060
101,39069.52000,221.605,21.082,118.784,348.333,-117.181,402.596,-355.780,314.400,-242.060
102,39069.92000,218.656,21.082,119.808,338.887,-116.332,405.584,-326.780,333.400,-259.060
103,39069.118000,222.587,25.098,116.736,335.099,-117.181,411.528,-322.780,442.400,-276.060
104,39069.148000,222.587,19.075,114.688,322.729,-122.762,415.370,-399.780,411.400,-352.060
105,39069.191000,209.812,20.078,135.168,321.793,-122.658,421.338,-378.780,432.400,-330.060
106,39069.233000,211.777,15.059,137.216,314.276,-119.054,423.393,-297.780,471.400,-347.060
107,39069.273000,209.812,19.075,140.288,308.522,-125.405,430.212,-285.780,471.400,-343.060
108,39069.312000,203.916,27.106,146.432,304.787,-121.791,430.283,-257.780,409.400,-324.060
109,39069.342000,194.088,33.129,152.576,300.951,-126.285,437.144,-200.780,351.400,-300.060
110,39069.376000,195.071,37.145,158.720,297.172,-126.257,441.118,-214.780,235.400,-307.060
111,39069.417000,189.175,47.184,163.840,296.227,-126.250,442.111,-221.780,166.400,-247.060
112,39069.451000,187.209,52.204,173.056,297.122,-129.921,441.040,-223.780,41.400,-267.060
113,39069.491000,196.054,56.220,161.792,295.253,-128.134,440.081,-256.780,-45.600,-242.060
114,39069.533000,184.261,68.267,157.696,305.690,-125.365,434.187,-336.780,-171.600,-129.060
115,39069.553000,189.175,74.290,154.624,307.545,-128.088,434.132,-329.780,-203.600,-161.060
116,39069.593000,192.123,67.263,162.816,314.943,-140.015,427.921,-338.780,-205.600,-142.060
117,39069.633000,189.175,70.275,162.816,319.583,-145.644,417.862,-361.780,-159.600,-262.060
118,39069.678000,188.192,81.318,156.672,324.202,-153.827,417.695,-536.780,-165.600,-292.060
119,39069.711000,185.244,71.278,148.480,335.624,-148.278,412.856,-630.780,-150.600,-373.060
120,39069.751000,183.278,67.263,152.576,336.482,-153.918,404.781,-636.780,-186.600,-440.060
121,39069.791000,189.175,68.267,153.600,348.617,-164.944,394.617,-613.780,-219.600,-478.060
122,39069.811000,187.209,64.251,152.576,355.301,-159.536,385.791,-517.780,-243.600,-431.060
123,39069.852000,186.226,59.231,154.624,365.632,-164.174,375.761,-468.780,-263.600,-418.060
124,39069.893000,189.175,60.235,149.504,370.389,-161.500,368.862,-365.780,-311.600,-349.060
125,39069.929000,197.036,54.212,143.360,379.839,-161.531,360.919,-252.780,-356.600,-239.060
126,39069.972000,212.760,59.231,140.288,390.272,-158.801,353.035,-156.780,-332.600,-185.060
127,39070.12000,204.898,55.216,145.408,391.166,-161.713,344.023,-184.780,-243.600,-93.060
128,39070.32000,202.933,51.200,150.528,396.802,-164.445,340.989,-209.780,-116.600,-31.060
129,39070.72000,199.002,53.208,145.408,392.927,-170.927,339.851,-247.780,-0.600,56.940
130,39070.112000,199.002,49.192,143.360,388.132,-175.590,338.750,-271.780,48.400,102.940
131,39070.152000,200.967,43.169,148.480,391.876,-178.327,336.708,-160.780,29.400,100.940
132,39070.189000,202.933,39.153,150.528,390.840,-184.772,335.574,-26.780,8.400,82.940
133,39070.229000,201.950,44.173,147.456,389.023,-179.300,335.688,111.220,-10.600,89.940
134,39070.249000,202.933,34.133,148.480,388.931,-186.532,340.507,164.220,19.400,118.940
135,39070.293000,202.933,37.145,139.264,386.116,-184.757,339.546,276.220,46.400,141.940
136,39070.333000,202.933,29.114,146.432,376.643,-185.759,341.500,426.220,55.400,123.940
137,39070.373000,197.036,22.086,140.288,382.616,-165.295,353.880,706.220,-60.600,137.940
138,39070.418000,203.916,31.122,138.240,378.881,-161.680,353.952,1047.220,-204.600,235.940
139,39070.452000,207.846,37.145,141.312,380.062,-145.060,360.275,1198.220,-253.600,355.940
140,39070.492000,213.743,63.247,117.760,382.099,-134.880,364.473,1246.220,-273.600,375.940
141,39070.512000,208.829,74.290,114.688,383.165,-126.544,368.631,1186.220,-151.600,495.940
142,39070.552000,218.656,73.286,118.784,380.462,-117.283,375.786,948.220,-49.600,536.940
143,39070.593000,214.726,65.255,121.856,376.757,-111.778,378.882,797.220,-37.600,482.940
144,39070.632000,216.691,74.290,120.832,373.010,-109.840,386.875,720.220,-13.600,502.940
145,39070.672000,215.708,67.263,112.640,370.212,-107.090,388.918,616.220,23.400,472.940
146,39070.712000,214.726,60.235,117.760,368.310,-107.992,390.885,560.220,97.400,435.940
147,39070.732000,219.639,53.208,115.712,362.791,-96.976,396.085,453.220,64.400,359.940
148,39070.778000,215.708,55.216,112.640,365.642,-96.022,396.109,420.220,11.400,316.940
149,39070.812000,221.605,47.184,119.808,359.044,-95.037,404.078,342.220,-14.600,301.940
150,39070.858000,217.674,45.176,112.640,359.993,-94.226,398.129,240.220,-48.600,247.940
151,39070.893000,222.587,43.169,112.640,359.050,-94.199,400.117,229.220,-62.600,255.940
152,39070.933000,224.553,40.157,108.544,354.257,-98.823,401.006,181.220,-65.600,200.940
153,39070.953000,222.587,36.141,111.616,356.092,-103.320,403.897,156.220,-41.600,193.940
154,39070.993000,226.518,37.145,112.640,357.071,-100.618,400.972,103.220,-22.600,115.940
155,39071.34000,222.587,34.133,105.472,359.000,-97.864,400.039,117.220,-38.600,86.940
156,39071.73000,227.501,37.145,106.496,355.244,-96.023,403.057,65.220,-12.600,53.940
157,39071.113000,225.536,36.141,108.544,358.046,-98.734,403.003,17.220,-27.600,31.940
158,39071.153000,221.605,38.149,107.520,354.281,-97.010,400.050,7.220,-32.600,24.940
159,39071.193000,224.553,38.149,105.472,359.053,-94.160,402.107,-23.780,-35.600,3.940
160,39071.213000,224.553,40.157,108.544,354.259,-98.803,402.001,-27.780,-40.600,-5.060
161,39071.254000,226.518,40.157,106.496,358.003,-101.541,399.959,-34.780,-40.600,-24.060
162,39071.294000,226.518,43.169,105.472,360.798,-104.330,395.926,-39.780,-73.600,-28.060
163,39071.334000,225.536,42.165,105.472,357.959,-104.367,395.921,-36.780,-71.600,-32.060
164,39071.374000,227.501,40.157,103.424,363.734,-97.002,394.097,-63.780,-55.600,-29.060
165,39071.413000,229.466,40.157,102.400,366.482,-103.417,391.975,-71.780,-44.600,-39.060
166,39071.433000,226.518,38.149,102.400,364.600,-102.545,390.996,-77.780,-30.600,-37.060
167,39071.482000,227.501,37.145,101.376,364.638,-99.797,391.054,-63.780,-7.600,-29.060
168,39071.510000,226.518,37.145,104.448,365.486,-107.094,391.895,-53.780,13.400,-24.060
169,39071.556000,226.518,40.157,104.448,365.609,-97.952,391.095,-27.780,11.400,-40.060
170,39071.590000,226.518,39.153,105.472,366.458,-105.229,392.931,4.220,4.400,-39.060
171,39071.634000,224.553,38.149,103.424,361.708,-106.286,388.923,-9.780,-7.600,-43.060
172,39071.654000,224.553,36.141,103.424,363.707,-98.854,393.062,-6.780,-14.600,-38.060
173,39071.700000,232.415,35.137,100.352,368.448,-97.914,391.100,17.220,-0.600,-29.060
174,39071.734000,228.484,30.118,93.184,364.643,-99.738,394.040,76.220,19.400,-3.060
175,39071.774000,219.639,23.090,113.664,363.653,-103.337,397.940,49.220,114.400,108.940
176,39071.820000,221.605,17.067,118.784,358.914,-104.257,400.897,132.220,164.400,142.940
177,39071.854000,230.449,23.090,113.664,356.128,-100.591,402.961,358.220,187.400,119.940
178,39071.902000,232.415,39.153,109.568,356.263,-91.313,409.126,376.220,138.400,35.940
179,39071.915000,212.760,49.192,93.184,350.687,-84.039,410.267,413.220,105.400,-20.060
180,39071.952000,221.605,38.149,68.608,355.579,-72.866,416.480,431.220,-41.600,-15.060
181,39071.996000,220.622,80.314,161.792,352.856,-64.619,418.641,408.220,201.400,-113.060
182,39072.34000,220.622,45.176,141.312,350.125,-57.230,423.767,421.220,104.400,-95.060
183,39072.74000,207.846,58.227,124.928,350.318,-43.429,427.045,230.220,-35.600,-336.060
184,39072.115000,213.743,108.424,80.896,356.098,-35.226,421.261,51.220,-246.600,-410.060
185,39072.136000,202.933,83.325,72.704,362.823,-27.030,414.482,-134.780,-363.600,-363.060
186,39072.175000,201.950,80.314,75.776,368.442,-30.717,409.439,-227.780,-274.600,-311.060
187,39072.212000,213.743,81.318,78.848,373.191,-28.920,404.511,-149.780,-195.600,-260.060
188,39072.253000,202.933,86.337,94.208,372.246,-28.913,405.505,-208.780,-37.600,-194.060
189,39072.293000,199.985,80.314,81.920,377.933,-27.961,403.544,-206.780,-75.600,-206.060
190,39072.333000,151.831,69.271,65.536,376.905,-33.548,399.445,-334.780,-10.600,-206.060
191,39072.353000,137.090,73.286,93.184,379.695,-36.396,392.426,-352.780,-219.600,-61.060
192,39072.392000,192.123,66.259,79.872,379.606,-42.828,391.294,-469.780,-218.600,-18.060
193,39072.435000,288.430,57.224,123.904,386.079,-52.974,383.131,-347.780,-414.600,158.940
194,39072.476000,374.910,72.282,172.032,389.842,-53.958,377.148,-267.780,-154.600,33.940
195,39072.517000,415.202,102.400,179.200,389.729,-62.203,376.972,-57.780,-34.600,-77.060
196,39072.556000,350.342,100.392,150.528,391.718,-54.888,375.141,101.220,-189.600,61.940
197,39072.596000,243.225,65.255,93.184,393.488,-64.005,375.945,30.220,-31.600,120.940
198,39072.616000,200.967,67.263,66.560,395.468,-57.567,376.085,160.220,12.400,198.940
199,39072.660000,188.192,61.239,73.728,393.623,-54.726,382.110,547.220,5.400,383.940
200,39072.700000,188.192,53.208,74.752,390.750,-57.473,384.037,393.220,47.400,296.940
201,39072.735000,170.503,56.220,81.920,394.577,-54.616,387.087,401.220,-99.600,136.940
202,39072.776000,182.296,75.294,50.176,397.447,-51.908,383.170,470.220,-178.600,83.940
203,39072.816000,191.140,79.310,64.512,398.483,-45.463,384.304,19.220,-76.600,3.940
204,39072.836000,204.898,62.243,78.848,396.460,-54.708,381.120,-80.780,-33.600,49.940
205,39072.876000,218.656,50.196,66.560,400.278,-51.968,378.200,-209.780,-31.600,47.940
206,39072.912000,198.019,35.137,95.232,390.660,-63.906,382.905,-407.780,201.400,-8.060
207,39072.963000,199.002,44.173,88.064,388.823,-60.207,385.965,-148.780,213.400,-136.060
208,39072.993000,199.985,65.255,111.616,387.950,-54.743,385.085,312.220,106.400,-60.060
209,39073.39000,244.207,82.322,74.752,386.186,-45.567,387.267,222.220,17.400,-330.060
210,39073.53000,259.931,120.471,113.664,390.047,-39.241,380.445,-69.780,-266.600,-296.060
211,39073.93000,265.827,127.498,115.712,399.537,-36.485,374.550,-88.780,-419.600,-164.060
212,39073.133000,250.104,118.463,100.352,410.837,-39.298,363.566,-133.780,-476.600,-16.060
213,39073.174000,234.380,102.400,84.992,413.591,-44.874,357.483,-189.780,-490.600,106.940
214,39073.214000,215.708,82.322,52.224,421.047,-52.279,348.385,-454.780,-391.600,65.940
215,39073.254000,217.674,80.314,58.368,424.601,-68.018,337.114,-724.780,-290.600,4.940
216,39073.294000,232.415,49.192,58.368,427.328,-75.446,329.998,-615.780,-258.600,123.940
217,39073.322000,251.086,33.129,88.064,429.875,-96.538,326.569,-631.780,6.400,184.940
218,39073.357000,243.225,32.125,74.752,426.998,-99.324,326.505,-291.780,23.400,287.940
219,39073.397000,229.466,29.114,62.464,424.068,-105.813,324.374,-144.780,22.400,253.940
220,39073.433000,219.639,27.106,61.440,420.105,-118.728,322.104,-153.780,44.400,296.940
221,39073.473000,222.587,21.082,55.296,417.271,-118.707,325.084,-150.780,87.400,292.940
222,39073.519000,228.484,9.035,71.680,415.174,-134.209,329.724,146.220,66.400,325.940
223,39073.533000,238.311,5.020,76.800,412.371,-131.518,328.782,29.220,136.400,247.940
224,39073.574000,236.345,17.067,91.136,405.772,-129.773,328.810,96.220,174.400,124.940
225,39073.622000,233.397,17.067,89.088,406.696,-132.333,337.708,-59.780,203.400,45.940
226,39073.656000,224.553,15.059,90.112,399.094,-135.103,341.617,-128.780,246.400,28.940
227,39073.697000,197.036,13.051,77.824,390.559,-136.970,345.543,-75.780,298.400,-97.060
228,39073.744000,200.967,30.118,94.208,390.632,-132.272,351.611,83.220,280.400,-87.060
229,39073.753000,190.157,32.125,76.800,385.925,-130.503,351.642,359.220,93.400,-57.060
230,39073.794000,254.035,68.267,96.256,387.016,-120.335,355.838,187.220,111.400,-74.060
231,39073.837000,255.017,66.259,86.016,386.048,-122.140,357.788,209.220,-31.600,21.940
232,39073.884000,329.704,79.310,97.280,387.086,-115.656,360.911,101.220,-59.600,96.940
233,39073.913000,343.463,79.310,99.328,388.972,-115.709,356.934,1.220,-24.600,109.940
234,39073.961000,293.344,70.275,108.544,388.803,-127.697,352.700,-41.780,-138.600,205.940
235,39073.995000,233.397,45.176,82.944,387.866,-126.833,350.728,-163.780,-215.600,169.940
236,39074.20000,187.209,26.102,66.560,393.398,-136.933,345.548,-199.780,-282.600,145.940
237,39074.54000,194.088,22.086,74.752,395.218,-141.605,339.483,-265.780,-170.600,100.940
238,39074.94000,200.967,5.020,87.040,393.214,-149.096,332.359,-162.780,-167.600,173.940
239,39074.133000,225.536,-2.008,92.160,392.278,-148.212,331.381,-120.780,-105.600,166.940
240,39074.174000,246.173,2.008,88.064,390.247,-158.334,330.168,18.220,-27.600,109.940
241,39074.219000,240.276,6.024,75.776,395.965,-155.471,332.227,152.220,-69.600,98.940
242,39074.234000,223.570,1.004,63.488,393.978,-162.767,335.053,176.220,-78.600,42.940
243,39074.275000,216.691,-2.008,68.608,394.142,-150.838,336.301,26.220,-0.600,22.940
244,39074.315000,221.605,7.027,76.800,396.010,-152.645,336.266,13.220,-10.600,-14.060
245,39074.362000,229.466,4.016,86.016,397.850,-156.304,335.196,50.220,133.400,-43.060
246,39074.397000,237.328,6.024,106.496,390.297,-155.429,338.187,37.220,175.400,-38.060
247,39074.437000,227.501,4.016,86.016,392.298,-147.978,343.322,297.220,119.400,8.940
248,39074.457000,226.518,1.004,70.656,389.566,-140.608,347.453,375.220,71.400,23.940
249,39074.497000,225.536,4.016,76.800,388.600,-142.394,350.398,290.220,19.400,16.940
250,39074.539000,238.311,9.035,80.896,391.655,-126.744,352.725,466.220,-48.600,7.940
251,39074.574000,240.276,17.067,81.920,390.693,-128.471,358.654,560.220,25.400,56.940
252,39074.624000,267.793,36.141,89.088,392.830,-110.962,363.009,603.220,88.400,57.940
253,39074.658000,252.069,41.161,70.656,391.971,-104.561,363.144,718.220,-136.600,58.940
254,39074.697000,256.000,71.278,87.040,392.912,-105.387,367.106,558.220,21.400,-112.060
255,39074.717000,255.017,70.275,88.064,395.139,-81.425,373.587,461.220,53.400,-113.060
256,39074.763000,230.449,73.286,100.352,396.222,-71.355,372.808,273.220,18.400,-132.060
257,39074.794000,219.639,69.271,74.752,391.422,-76.836,376.663,135.220,9.400,-158.060
258,39074.839000,199.002,74.290,65.536,400.109,-63.956,373.966,35.220,-150.600,-77.060
259,39074.883000,226.518,53.208,58.368,401.002,-67.647,371.900,-242.780,-54.600,-129.060
260,39074.918000,231.432,61.239,65.536,399.098,-68.569,372.872,-317.780,-70.600,-145.060
261,39074.943000,231.432,71.278,67.584,398.103,-71.466,365.846,-68.780,-61.600,-124.060
262,39074.977000,212.760,72.282,62.464,405.712,-68.598,366.913,-46.780,-27.600,-94.060
263,39075.25000,220.622,55.216,62.464,407.618,-66.878,359.990,-184.780,-12.600,-13.060
264,39075.58000,205.881,52.204,52.224,404.733,-70.541,361.897,-225.780,40.400,-81.060
265,39075.99000,185.244,52.204,55.296,402.751,-76.998,360.762,-149.780,8.400,-106.060
266,39075.134000,191.140,38.149,40.960,405.681,-70.509,362.894,-260.780,-55.600,-139.060
267,39075.155000,235.363,49.192,60.416,405.533,-80.703,356.709,-473.780,-32.600,-97.060
268,39075.204000,292.361,22.086,96.256,408.325,-83.531,350.685,-448.780,-62.600,83.940
269,39075.235000,351.324,20.078,110.592,402.639,-84.464,353.641,-130.780,4.400,84.940
270,39075.278000,369.013,28.110,118.784,402.461,-97.329,351.377,17.220,2.400,145.940
271,39075.318000,307.102,28.110,87.040,407.282,-90.834,352.517,105.220,-90.600,86.940
272,39075.358000,216.691,34.133,67.584,410.085,-93.525,353.459,137.220,26.400,40.940
273,39075.398000,199.002,32.125,56.320,404.529,-85.238,359.595,387.220,74.400,21.940
274,39075.417000,207.846,52.204,56.320,403.718,-75.972,365.759,542.220,174.400,-18.060
275,39075.459000,213.743,41.161,59.392,401.915,-69.565,366.887,563.220,175.400,74.940
276,39075.496000,213.743,46.180,64.512,399.100,-68.549,373.867,248.220,208.400,5.940
277,39075.542000,201.950,54.212,47.104,396.430,-56.599,378.096,280.220,33.400,5.940
278,39075.577000,218.656,65.255,57.344,392.561,-63.023,379.943,254.220,79.400,-60.060
279,39075.615000,217.674,74.290,80.896,388.998,-47.382,386.238,65.220,243.400,-202.060
280,39075.635000,213.743,82.322,119.808,389.035,-44.633,386.297,80.220,186.400,-138.060
281,39075.675000,201.950,33.129,69.632,386.169,-47.302,392.204,-16.780,32.400,-94.060
282,39075.715000,203.916,47.184,86.016,385.160,-51.895,392.104,-132.780,142.400,-156.060
283,39075.755000,195.071,53.208,79.872,388.108,-43.651,390.295,-16.780,-112.600,-79.060
284,39075.802000,275.655,151.592,112.640,389.042,-44.555,390.277,-195.780,46.400,-389.060
285,39075.843000,261.896,119.467,113.664,387.226,-39.064,391.386,-333.780,-49.600,-192.060
286,39075.857000,247.155,90.353,124.928,386.195,-44.690,385.297,-400.780,-38.600,-140.060
287,39075.897000,228.484,96.376,63.488,390.829,-51.158,379.198,-385.780,-341.600,-115.060
288,39075.935000,199.985,79.310,38.912,399.277,-54.924,368.189,-692.780,-409.600,-173.060
289,39075.979000,227.501,84.329,46.080,406.604,-71.529,356.906,-904.780,-395.600,-292.060
290,39076.19000,269.758,86.337,78.848,411.213,-79.829,350.768,-864.780,-253.600,-228.060
291,39076.62000,271.724,59.231,71.680,419.639,-85.409,340.716,-767.780,-371.600,-74.060
292,39076.95000,244.207,46.180,75.776,420.363,-100.308,327.469,-842.780,-224.600,-12.060
293,39076.117000,235.363,35.137,72.704,422.072,-113.206,322.224,-837.780,-101.600,77.940
294,39076.155000,210.795,29.114,96.256,417.980,-135.322,317.769,-720.780,34.400,182.940
295,39076.197000,217.674,19.075,96.256,416.939,-142.605,320.596,-382.780,83.400,230.940
296,39076.243000,223.570,6.024,76.800,415.002,-145.456,316.554,-180.780,23.400,246.940
297,39076.279000,246.173,16.063,70.656,412.065,-152.803,317.388,-186.780,135.400,216.940
298,39076.319000,244.207,15.059,77.824,404.359,-162.961,318.155,-177.780,143.400,220.940
299,39076.335000,217.674,13.051,77.824,404.351,-163.819,321.121,-40.780,173.400,164.940
300,39076.377000,182.296,5.020,54.272,402.410,-167.489,322.034,39.220,124.400,117.940
301,39076.415000,181.313,9.035,78.848,393.829,-172.981,327.873,59.220,270.400,118.940
302,39076.455000,129.228,8.031,74.752,390.139,-166.521,332.978,307.220,104.400,131.940
303,39076.495000,199.985,10.039,99.328,387.318,-165.583,335.977,73.220,148.400,121.940
304,39076.535000,198.019,5.020,122.880,384.527,-161.976,335.055,64.220,156.400,51.940
305,39076.555000,357.221,72.282,94.208,380.788,-159.180,340.083,188.220,243.400,40.940
306,39076.597000,407.340,31.122,183.296,376.975,-161.861,345.988,151.220,243.400,110.940
307,39076.639000,373.927,79.310,171.008,370.486,-152.670,352.142,345.220,168.400,-35.060
308,39076.678000,272.706,53.208,101.376,377.196,-146.189,351.295,236.220,-226.600,33.940
309,39076.717000,192.123,16.063,98.304,374.177,-159.111,348.031,-218.780,-173.600,30.940
310,39076.758000,188.192,9.035,95.232,383.628,-159.123,341.083,-345.780,-179.600,5.940
311,39076.798000,178.365,12.047,108.544,384.504,-163.789,336.012,-215.780,-215.600,-35.060
312,39076.824000,205.881,33.129,90.112,386.343,-167.467,333.947,-115.780,-207.600,-80.060
313,39076.859000,207.846,15.059,75.776,391.975,-170.238,328.923,-107.780,-302.600,4.940
314,39076.899000,224.553,-2.008,63.488,395.695,-174.028,319.896,-174.780,-219.600,88.940
315,39076.939000,225.536,1.004,76.800,396.633,-174.113,314.922,-216.780,-186.600,114.940
316,39076.979000,221.605,0.000,76.800,400.317,-181.412,313.778,73.220,-203.600,237.940
317,39077.17000,216.691,6.024,90.112,397.403,-186.946,313.656,178.220,-22.600,302.940
318,39077.37000,233.397,-3.012,95.232,394.592,-185.113,315.680,-66.780,75.400,258.940
319,39077.77000,229.466,-7.027,90.112,392.496,-199.835,313.374,-184.780,-48.600,300.940
320,39077.118000,227.501,-22.086,81.920,389.615,-202.679,310.325,-260.780,-243.600,383.940
321,39077.159000,226.518,-24.094,64.512,392.396,-206.404,305.277,107.220,-186.600,314.940
322,39077.199000,244.207,-30.118,59.392,394.240,-210.024,306.197,309.220,-111.600,122.940
323,39077.243000,215.708,-6.024,62.464,393.450,-198.965,310.410,591.220,-75.600,-30.060
324,39077.257000,267.793,21.082,76.800,395.549,-184.983,321.652,699.220,122.400,-60.060
325,39077.297000,261.896,31.122,79.872,393.768,-177.542,328.770,705.220,75.400,-94.060
326,39077.338000,269.758,48.188,96.256,391.958,-171.973,333.859,524.220,79.400,-106.060
327,39077.380000,259.931,42.165,92.160,394.993,-158.096,339.132,442.220,24.400,-72.060
328,39077.420000,249.121,40.157,87.040,396.899,-157.915,347.096,344.220,-49.600,-41.060
329,39077.460000,230.449,34.133,88.064,398.937,-146.955,344.348,279.220,-78.600,-69.060
330,39077.478000,216.691,47.184,78.848,403.697,-145.021,346.386,261.220,-79.600,-112.060
331,39077.518000,213.743,41.161,69.632,403.768,-139.563,344.513,225.220,-106.600,-68.060
332,39077.559000,215.708,41.161,62.464,408.612,-131.255,344.697,144.220,-137.600,-98.060
333,39077.600000,227.501,49.192,64.512,408.600,-132.171,344.677,172.220,-66.600,-88.060
334,39077.639000,235.363,54.212,67.584,406.816,-123.990,342.859,72.220,-9.600,-82.060
335,39077.679000,246.173,59.231,77.824,412.510,-122.960,344.879,4.220,27.400,-68.060
336,39077.719000,237.328,55.216,64.512,407.799,-121.249,341.925,7.220,55.400,-38.060
337,39077.742000,228.484,43.169,63.488,404.926,-123.996,343.851,-32.780,76.400,18.940
338,39077.780000,207.846,42.165,54.272,408.714,-123.907,345.848,-75.780,119.400,6.940
339,39077.820000,172.468,39.153,58.368,400.218,-123.006,350.828,-55.780,146.400,12.940
340,39077.860000,161.658,32.125,54.272,397.345,-125.752,352.754,-181.780,127.400,-21.060
341,39077.900000,161.658,36.141,72.704,399.220,-126.702,349.753,-239.780,47.400,17.940
342,39077.940000,252.069,8.031,72.704,392.428,-138.758,346.502,-305.780,52.400,-63.060
343,39077.961000,353.290,-22.086,110.592,397.163,-137.896,340.560,-424.780,-101.600,-42.060
344,39078.0,395.547,-5.020,119.808,395.192,-143.457,338.449,-77.780,48.400,-118.060
345,39078.40000,353.290,12.047,137.216,399.124,-133.213,344.641,264.220,44.400,-4.060
346,39078.91000,295.309,15.059,130.048,401.019,-133.168,345.639,419.220,-153.600,56.940
347,39078.120000,203.916,26.102,76.800,402.950,-130.375,346.696,450.220,-204.600,-19.060
348,39078.160000,198.019,48.188,55.296,407.852,-117.545,343.993,243.220,-246.600,-71.060
349,39078.180000,223.570,35.137,73.728,410.711,-115.734,341.052,134.220,-226.600,-1.060
350,39078.222000,224.553,40.157,77.824,408.831,-114.843,341.068,237.220,-120.600,36.940
351,39078.262000,233.397,35.137,35.840,416.396,-114.802,338.096,231.220,-162.600,53.940
352,39078.298000,230.449,36.141,27.648,418.373,-108.403,336.246,97.220,-156.600,28.940
353,39078.338000,216.691,41.161,23.552,418.339,-111.112,338.177,78.220,-63.600,-76.060
354,39078.378000,217.674,61.239,39.936,421.244,-106.455,340.270,20.220,65.400,-138.060
355,39078.424000,211.777,64.251,63.488,415.553,-107.446,340.240,166.220,96.400,-107.060
356,39078.438000,233.397,59.231,69.632,414.731,-99.077,347.380,20.220,268.400,-189.060
357,39078.482000,226.518,68.267,63.488,410.923,-100.939,348.329,-83.780,279.400,-140.060
358,39078.522000,229.466,58.227,61.440,409.939,-103.700,348.269,-328.780,156.400,-111.060
359,39078.565000,231.432,56.220,64.512,407.100,-103.738,348.264,-537.780,97.400,-138.060
360,39078.604000,240.276,64.251,67.584,406.024,-112.970,345.082,-641.780,43.400,-173.060
361,39078.644000,230.449,57.224,78.848,403.136,-116.653,345.994,-574.780,43.400,-95.060
362,39078.662000,252.069,52.204,91.136,403.844,-133.287,337.684,-423.780,-39.600,-0.060
363,39078.700000,244.207,25.098,90.112,404.800,-132.397,335.715,-449.780,-165.600,172.940
364,39078.739000,244.207,21.082,93.184,404.625,-144.443,328.496,-433.780,-100.600,225.940
365,39078.778000,256.000,23.090,111.616,404.511,-152.708,327.325,-198.780,-255.600,196.940
366,39078.823000,254.035,19.075,87.040,406.199,-165.860,309.144,-179.780,-391.600,136.940
367,39078.867000,238.311,22.086,68.608,411.873,-165.824,307.164,-225.780,-387.600,83.940
368,39078.882000,236.345,23.090,67.584,414.662,-168.691,299.150,-341.780,-278.600,12.940
369,39078.919000,239.294,6.024,66.560,414.534,-177.112,290.019,-299.780,-170.600,-6.060
370,39078.962000,233.397,3.012,72.704,414.550,-176.157,292.029,-207.780,3.400,57.940
371,39079.2000,235.363,6.024,93.184,411.586,-185.356,291.828,-11.780,220.400,94.940
372,39079.42000,231.432,-1.004,66.560,407.834,-183.476,296.836,226.220,106.400,198.940
373,39079.80000,237.328,0.000,50.176,405.032,-181.545,303.836,33.220,124.400,123.940
374,39079.120000,244.207,-2.008,69.632,403.112,-183.421,302.798,-106.780,212.400,91.940
375,39079.142000,235.363,1.004,80.896,399.236,-190.703,307.611,-155.780,157.400,77.940
376,39079.182000,241.259,-1.004,84.992,392.629,-189.816,310.604,-74.780,159.400,61.940
377,39079.218000,234.380,-1.004,87.040,391.668,-190.764,309.587,-121.780,202.400,9.940
378,39079.263000,229.466,-1.004,91.136,389.695,-197.124,313.428,-102.780,221.400,-65.060
379,39079.303000,221.605,-5.020,89.088,390.721,-191.556,316.532,-171.780,305.400,-96.060
380,39079.338000,209.812,-8.031,104.448,380.181,-201.693,320.279,-189.780,356.400,-79.060
381,39079.358000,198.019,-11.043,97.280,380.234,-198.769,329.293,-8.780,299.400,-78.060
382,39079.407000,196.054,-4.016,98.304,377.405,-198.689,335.258,68.220,340.400,-128.060
383,39079.440000,152.814,10.039,103.424,374.692,-189.546,336.443,278.220,184.400,-175.060
384,39079.482000,191.140,2.008,75.776,372.092,-172.937,344.750,335.220,168.400,-160.060
385,39079.522000,275.655,54.212,103.424,375.093,-160.990,345.009,546.220,44.400,-177.060
386,39079.578000,341.497,82.322,115.712,373.307,-153.607,349.142,584.220,-0.600,-53.060
387,39079.599000,383.754,94.369,121.856,376.317,-141.563,354.376,481.220,-14.600,8.940
388,39079.619000,361.152,101.396,114.688,380.136,-138.803,352.451,320.220,-207.600,75.940
389,39079.659000,286.464,93.365,74.752,380.031,-146.191,349.310,40.220,-313.600,35.940
390,39079.700000,212.760,67.263,90.112,390.472,-143.383,345.406,-321.780,-346.600,59.940
391,39079.742000,170.503,22.086,67.584,395.978,-154.555,332.246,-414.780,-483.600,71.940
392,39079.789000,186.226,13.051,52.224,400.497,-168.528,317.036,-449.780,-449.600,50.940
393,39079.824000,217.674,-3.012,62.464,403.326,-168.607,311.071,-457.780,-343.600,74.940
394,39079.840000,235.363,-9.035,71.680,408.906,-175.062,304.974,-426.780,-157.600,44.940
395,39079.883000,255.017,-3.012,79.872,407.916,-177.901,300.933,-273.780,-105.600,8.940
396,39079.923000,244.207,8.031,66.560,410.732,-178.897,294.949,96.220,-141.600,22.940
397,39079.959000,234.380,4.016,46.080,410.632,-186.226,294.792,95.220,-118.600,0.940
398,39080.3000,224.553,5.020,52.224,412.525,-186.201,294.796,-33.780,-66.600,3.940
399,39080.43000,226.518,9.035,90.112,413.519,-182.543,293.880,-59.780,69.400,39.940
400,39080.63000,232.415,3.012,95.232,409.662,-188.051,295.747,153.220,13.400,137.940
401,39080.99000,245.190,-8.031,78.848,410.728,-179.715,299.904,254.220,53.400,174.940
402,39080.139000,236.345,-11.043,78.848,406.848,-187.036,302.727,287.220,100.400,139.940
403,39080.182000,240.276,1.004,87.040,405.023,-182.422,305.806,299.220,110.400,65.940
404,39080.222000,230.449,-3.012,66.560,404.141,-178.594,314.838,331.220,95.400,-3.060
405,39080.270000,227.501,-8.031,60.416,400.469,-171.159,322.948,307.220,216.400,1.940
406,39080.284000,231.432,-8.031,57.344,394.911,-162.911,327.094,364.220,269.400,-5.060
407,39080.328000,224.553,11.043,74.752,394.099,-154.424,340.204,538.220,359.400,-55.060
408,39080.360000,232.415,25.098,88.064,394.307,-139.669,345.491,1502.220,-87.600,146.940
409,39080.407000,244.207,48.188,86.016,390.653,-131.259,356.606,692.220,152.400,-54.060
410,39080.442000,263.862,60.235,102.400,393.704,-115.647,356.942,329.220,-49.600,-67.060
411,39080.482000,256.983,43.169,93.184,393.731,-113.795,357.977,177.220,-192.600,-1.060
412,39080.519000,265.827,34.133,93.184,397.559,-110.159,354.081,158.220,-197.600,68.940
413,39080.540000,247.155,27.106,81.920,402.289,-110.116,353.094,206.220,-150.600,70.940
414,39080.579000,237.328,44.173,68.608,401.364,-108.335,351.142,260.220,-96.600,-25.060
415,39080.623000,232.415,50.196,63.488,404.371,-96.329,354.385,564.220,-122.600,-29.060
416,39080.664000,232.415,50.196,65.536,405.371,-92.613,356.455,461.220,-83.600,-84.060
417,39080.702000,224.553,49.192,55.296,405.442,-87.155,354.582,326.220,-97.600,-121.060
418,39080.742000,228.484,49.192,54.272,409.357,-77.125,349.828,61.220,-118.600,-115.060
419,39080.763000,232.415,62.243,62.464,417.930,-73.270,353.902,-102.780,-58.600,-158.060
420,39080.803000,242.242,63.247,70.656,415.011,-78.863,350.794,-156.780,-67.600,-142.060
421,39080.843000,234.380,64.251,55.296,416.958,-74.355,345.920,-201.780,-71.600,-158.060
422,39080.883000,236.345,59.231,60.416,416.799,-86.226,347.656,-286.780,34.400,-158.060
423,39080.925000,235.363,53.208,70.656,417.800,-82.490,350.721,-340.780,102.400,-105.060
424,39080.962000,232.415,43.169,64.512,419.679,-83.401,349.710,-194.780,82.400,-77.060
425,39080.984000,215.708,58.227,68.608,415.907,-82.515,350.718,120.220,106.400,-39.060
426,39081.20000,207.846,45.176,45.056,415.973,-77.895,352.806,42.220,207.400,-119.060
427,39081.64000,167.555,55.216,66.560,413.139,-77.874,355.786,-24.780,167.400,-125.060
428,39081.104000,164.607,52.204,55.296,409.462,-70.498,360.911,35.220,106.400,-162.060
429,39081.153000,145.935,33.129,36.864,410.445,-66.977,353.030,-67.780,-36.600,-106.060
430,39081.181000,178.365,35.137,34.816,410.377,-72.396,356.893,-292.780,18.400,-197.060
431,39081.220000,312.015,67.263,97.280,408.450,-74.370,350.880,-264.780,-116.600,42.940
432,39081.242000,338.549,24.094,103.424,412.242,-73.462,347.921,53.220,15.400,49.940
433,39081.282000,402.426,46.180,113.664,409.369,-76.209,349.848,87.220,-29.600,110.940
434,39081.327000,369.996,57.224,123.904,406.480,-79.911,349.765,31.220,-66.600,110.940
435,39081.364000,295.309,59.231,84.992,410.339,-74.384,348.893,90.220,-176.600,31.940
436,39081.404000,259.931,61.239,72.704,417.867,-77.091,345.863,83.220,-146.600,-66.060
437,39081.444000,221.605,60.235,71.680,417.913,-73.465,343.951,196.220,-98.600,-55.060
438,39081.464000,202.933,54.212,57.344,422.722,-67.887,345.072,350.220,-145.600,-14.060
439,39081.504000,196.054,52.204,44.032,424.675,-63.300,344.177,224.220,-135.600,-9.060
440,39081.549000,189.175,45.176,32.768,424.716,-60.513,346.226,11.220,-117.600,9.940
441,39081.588000,200.967,72.282,36.864,425.627,-62.450,340.218,-300.780,-46.600,-48.060
442,39081.629000,202.933,71.278,38.912,424.595,-68.856,341.075,-245.780,74.400,-22.060
443,39081.662000,222.587,60.235,58.368,425.495,-72.469,342.989,-157.780,107.400,-53.060
444,39081.683000,219.639,65.255,64.512,426.516,-66.960,343.108,-227.780,99.400,-194.060
445,39081.723000,229.466,78.306,69.632,425.453,-76.036,347.886,-235.780,118.400,-273.060
446,39081.762000,223.570,84.329,73.728,417.934,-72.452,348.946,-449.780,277.400,-320.060
447,39081.804000,227.501,71.278,77.824,417.994,-68.670,354.994,-637.780,384.400,-295.060
448,39081.843000,196.054,62.243,77.824,411.259,-76.983,355.802,-153.780,153.400,-129.060
449,39081.882000,220.622,65.255,69.632,412.189,-78.705,360.740,-347.780,150.400,-109.060
450,39081.922000,211.777,70.275,76.800,411.188,-82.441,357.675,-244.780,-27.600,16.940
451,39081.940000,238.311,73.286,83.968,408.370,-80.685,355.719,-179.780,-76.600,-0.060
452,39081.984000,238.311,68.267,91.136,414.858,-89.896,348.570,-238.780,-159.600,-19.060
453,39082.23000,244.207,67.263,81.920,414.890,-87.206,345.643,-162.780,-236.600,-47.060
454,39082.64000,246.173,68.267,79.872,418.598,-91.912,336.597,-234.780,-140.600,-87.060
455,39082.104000,229.466,51.200,78.848,417.668,-90.970,338.605,-206.780,-84.600,-86.060
456,39082.144000,228.484,66.259,61.440,414.774,-94.730,335.537,-158.780,0.400,-77.060
457,39082.164000,266.810,53.208,67.584,416.588,-100.241,333.433,-115.780,-7.600,110.940
458,39082.203000,233.397,27.106,84.992,411.765,-107.535,338.244,-268.780,-32.600,165.940
459,39082.243000,243.225,45.176,90.112,415.481,-112.144,334.173,-361.780,46.400,63.940
460,39082.282000,225.536,50.196,91.136,413.561,-114.020,333.135,-288.780,17.400,145.940
461,39082.322000,209.812,37.145,91.136,408.592,-131.490,332.756,-173.780,141.400,246.940
462,39082.362000,226.518,26.102,87.040,401.959,-132.454,334.715,-0.780,88.400,375.940
463,39082.388000,240.276,15.059,79.872,398.024,-143.498,334.474,-26.780,94.400,406.940
464,39082.425000,230.449,13.051,90.112,390.338,-152.642,340.236,-203.780,183.400,391.940
465,39082.465000,235.363,16.063,103.424,387.399,-160.009,340.075,-280.780,169.400,381.940
466,39082.512000,230.449,10.039,100.352,380.668,-168.283,342.873,-185.780,188.400,309.940
467,39082.545000,225.536,6.024,103.424,372.053,-175.705,343.697,-334.780,204.400,193.940
468,39082.585000,219.639,3.012,86.016,370.992,-183.982,342.524,-233.780,207.400,114.940
469,39082.625000,180.330,-2.008,75.776,366.214,-187.670,344.428,69.220,144.400,69.940
470,39082.645000,165.589,-3.012,88.064,363.367,-188.565,347.389,149.220,198.400,54.940
471,39082.682000,172.468,20.078,105.472,362.570,-178.363,354.567,457.220,-47.600,34.940
472,39082.722000,207.846,-2.008,91.136,362.597,-176.512,355.601,692.220,-165.600,213.940
473,39082.770000,265.827,27.106,120.832,362.750,-165.479,357.825,263.220,55.400,46.940
474,39082.805000,328.722,63.247,100.352,362.791,-162.692,359.874,375.220,-207.600,110.940
475,39082.853000,381.789,66.259,143.360,363.707,-164.570,356.852,174.220,-66.600,84.940
476,39082.862000,356.238,63.247,126.976,365.684,-158.171,355.001,248.220,-225.600,120.940
477,39082.907000,271.724,51.200,104.448,371.301,-162.657,355.909,269.220,-282.600,146.940
478,39082.942000,192.123,28.110,86.016,374.129,-162.756,348.948,40.220,-325.600,164.940
479,39082.982000,185.244,17.067,82.944,377.893,-163.720,343.960,-216.780,-290.600,119.940
480,39083.22000,188.192,10.039,78.848,376.852,-170.224,339.842,-279.780,-303.600,37.940
481,39083.62000,199.985,-2.008,83.968,381.485,-176.711,332.748,-292.780,-161.600,45.940
482,39083.83000,225.536,-10.039,96.256,385.235,-178.610,326.745,-200.780,-115.600,64.940
483,39083.124000,234.380,-5.020,84.992,382.269,-187.828,325.550,-8.780,-97.600,26.940
484,39083.164000,236.345,-7.027,66.560,383.228,-186.900,325.571,142.220,-61.600,32.940
485,39083.203000,233.397,-7.027,68.608,385.257,-176.817,324.794,148.220,9.400,48.940
486,39083.245000,232.415,-5.020,68.608,385.117,-187.693,330.530,180.220,16.400,54.940
487,39083.285000,235.363,-12.047,55.296,386.190,-178.500,331.722,127.220,-59.600,148.940
488,39083.323000,232.415,-1.004,83.968,380.401,-186.801,332.532,-112.780,151.400,47.940
489,39083.343000,232.415,10.039,73.728,378.610,-179.477,333.680,140.220,-2.600,30.940
490,39083.383000,223.570,10.039,86.016,375.717,-183.998,338.552,126.220,78.400,-25.060
491,39083.423000,218.656,26.102,88.064,378.734,-171.095,340.821,308.220,200.400,-63.060
492,39083.464000,221.605,4.016,76.800,372.154,-168.356,344.848,399.220,100.400,108.940
493,39083.504000,217.674,18.071,96.256,372.189,-166.407,350.857,143.220,97.400,124.940
494,39083.549000,253.052,19.075,72.704,367.347,-174.695,351.668,110.220,126.400,256.940
495,39083.563000,268.775,-25.098,110.592,364.435,-180.210,352.541,-115.780,5.400,489.940
496,39083.607000,250.104,-3.012,95.232,360.549,-187.589,352.378,-10.780,48.400,373.940
497,39083.650000,237.328,-7.027,90.112,361.313,-201.260,355.072,93.220,9.400,193.940
498,39083.684000,218.656,-15.059,71.680,359.561,-191.168,357.274,310.220,-52.600,30.940
499,39083.725000,228.484,-3.012,44.032,360.611,-183.788,359.422,551.220,-105.600,-45.060
500,39083.765000,245.190,-12.047,68.608,365.560,-168.092,362.747,594.220,-177.600,162.940
501,39083.785000,246.173,27.106,112.640,364.647,-166.175,367.760,446.220,-54.600,68.940
502,39083.832000,252.069,26.102,108.544,365.659,-161.543,369.849,509.220,-41.600,5.940
503,39083.865000,243.225,16.063,109.568,364.780,-156.916,372.930,310.220,16.400,-26.060
504,39083.905000,224.553,13.051,101.376,365.891,-144.974,374.181,192.220,-62.600,-143.060
505,39083.945000,227.501,15.059,82.944,368.727,-144.976,372.195,111.220,-140.600,-194.060
506,39083.985000,227.501,25.098,71.680,372.555,-141.339,368.300,44.220,-186.600,-224.060
507,39084.25000,242.242,26.102,70.656,382.154,-131.156,367.536,-82.780,-150.600,-248.060
508,39084.44000,246.173,27.106,71.680,384.961,-133.029,363.522,-176.780,-69.600,-252.060
509,39084.84000,235.363,34.133,73.728,388.822,-127.482,363.646,-119.780,53.400,-288.060
510,39084.124000,224.553,40.157,72.704,383.172,-125.686,365.665,47.220,171.400,-287.060
511,39084.170000,207.846,36.141,59.392,382.295,-121.040,369.741,124.220,193.400,-299.060
512,39084.204000,199.985,40.157,61.440,380.606,-106.368,372.040,32.220,219.400,-354.060
513,39084.244000,137.090,44.173,65.536,384.466,-100.821,372.164,-38.780,92.400,-327.060
514,39084.264000,163.624,49.192,62.464,382.641,-96.207,375.243,-292.780,105.400,-370.060
515,39084.308000,197.036,50.196,78.848,382.562,-101.743,373.136,-233.780,82.400,-240.060
516,39084.343000,310.050,34.133,95.232,381.584,-103.665,369.115,-415.780,-66.600,-215.060
517,39084.384000,367.048,28.110,110.592,379.653,-106.458,368.058,-291.780,161.400,-194.060
518,39084.425000,371.962,42.165,108.544,383.472,-103.699,366.133,-182.780,-6.600,-110.060
519,39084.465000,326.756,20.078,101.376,381.617,-100.976,366.189,-17.780,-75.600,8.940
520,39084.485000,261.896,20.078,100.352,386.350,-100.894,367.192,-28.780,-2.600,-13.060
521,39084.527000,234.380,21.082,96.256,384.452,-101.757,371.149,95.220,19.400,-128.060
522,39084.567000,197.036,23.090,82.944,383.570,-97.169,372.240,539.220,44.400,-220.060
523,39084.603000,185.244,45.176,66.560,385.781,-74.163,376.712,888.220,-1.600,-238.060
524,39084.648000,205.881,67.263,69.632,385.966,-61.220,382.955,724.220,64.400,-288.060
525,39084.697000,213.743,64.251,77.824,386.245,-41.026,385.375,581.220,0.400,-196.060
526,39084.737000,211.777,87.341,68.608,390.223,-27.175,388.659,760.220,55.400,-81.060
527,39084.747000,213.743,90.353,68.608,390.337,-18.910,389.830,896.220,6.400,204.940
528,39084.784000,204.898,95.373,59.392,389.658,0.374,393.223,1030.220,-52.600,258.940
529,39084.832000,234.380,94.369,66.560,388.773,4.923,392.324,854.220,-16.600,405.940
530,39084.867000,229.466,97.380,65.536,386.087,15.918,394.544,863.220,44.400,450.940
531,39084.910000,223.570,99.388,48.128,383.350,23.229,395.690,727.220,-62.600,519.940
532,39084.948000,216.691,70.275,38.912,386.119,18.608,391.617,469.220,-163.600,535.940
533,39084.964000,219.639,59.231,38.912,390.788,14.090,391.528,174.220,-176.600,441.940
534,39085.4000,227.501,63.247,66.560,390.663,4.929,391.333,-46.780,-25.600,398.940
535,39085.44000,249.121,52.204,70.656,383.914,-4.320,391.126,-170.780,100.400,242.940
536,39085.90000,244.207,46.180,63.488,382.909,-8.874,393.017,-214.780,190.400,157.940
537,39085.125000,247.155,21.082,53.248,379.075,-12.569,393.927,-159.780,165.400,140.940
538,39085.167000,241.259,32.125,54.272,375.206,-18.993,395.774,-76.780,77.400,86.940
539,39085.187000,254.035,35.137,66.560,373.190,-28.160,396.570,-108.780,141.400,35.940
540,39085.228000,248.138,21.082,65.536,368.545,-22.589,403.644,-66.780,196.400,-84.060
541,39085.268000,255.017,27.106,61.440,366.754,-15.266,404.792,141.220,183.400,-199.060
542,39085.305000,243.225,54.212,78.848,362.137,-7.063,405.955,117.220,184.400,-285.060
543,39085.345000,240.276,60.235,81.920,353.564,-11.679,409.822,104.220,180.400,-76.060
544,39085.385000,233.397,48.188,89.088,352.779,-0.561,417.020,47.220,231.400,0.940
545,39085.425000,221.605,51.200,91.136,345.996,-12.519,418.745,-0.780,220.400,109.940
546,39085.445000,215.708,42.165,96.256,337.564,-7.018,424.817,81.220,172.400,254.940
547,39085.485000,212.760,13.051,90.112,340.339,-11.580,423.730,138.220,49.400,356.940
548,39085.525000,221.605,21.082,78.848,337.513,-10.702,423.744,277.220,0.400,303.940
549,39085.565000,224.553,24.094,94.208,333.707,-12.525,426.684,316.220,-7.600,236.940
550,39085.608000,212.760,6.024,107.520,333.745,-9.777,426.742,246.220,74.400,191.940
551,39085.648000,219.639,2.008,106.496,325.306,-4.354,428.835,354.220,159.400,91.940
552,39085.668000,191.140,14.055,93.184,325.436,4.866,432.015,411.220,61.400,57.940
553,39085.708000,176.399,15.059,95.232,325.471,7.575,430.083,427.220,104.400,-21.060
554,39085.773000,177.382,28.110,87.040,322.699,12.177,433.161,324.220,8.400,-156.060
555,39085.788000,184.261,30.118,76.800,329.567,30.509,429.583,329.220,-112.600,-203.060
556,39085.828000,301.205,89.349,86.016,325.842,35.020,428.679,171.220,-21.600,-410.060
557,39085.872000,360.169,101.396,116.736,326.957,47.781,424.973,-31.780,-59.600,-362.060
558,39085.884000,399.478,123.482,135.168,325.107,50.563,428.014,-107.780,144.400,-314.060
559,39085.925000,371.962,115.451,136.192,324.125,47.821,428.949,-140.780,-106.600,-60.060
560,39085.965000,259.931,63.247,112.640,329.628,35.070,428.685,-190.780,-124.600,173.940
561,39086.14000,186.226,37.145,78.848,332.449,34.133,425.686,-288.780,-139.600,255.940
562,39086.47000,170.503,34.133,62.464,335.972,14.944,425.282,-562.780,-214.600,98.940
563,39086.94000,179.347,33.129,62.464,341.541,7.593,420.161,-740.780,-254.600,5.940
564,39086.128000,215.708,27.106,60.416,348.894,-7.940,416.857,-1009.780,-210.600,-145.060
565,39086.148000,225.536,21.082,68.608,354.151,-38.195,411.248,-1131.780,-84.600,-157.060
566,39086.188000,246.173,3.012,65.536,351.232,-43.788,408.141,-982.780,43.400,-114.060
567,39086.228000,220.622,7.027,68.608,349.070,-63.909,410.693,-918.780,64.400,-240.060
568,39086.265000,211.777,28.110,81.920,352.762,-70.331,407.578,-768.780,-21.600,-266.060
569,39086.307000,203.916,33.129,104.448,351.766,-74.008,407.498,-827.780,24.400,-338.060
570,39086.347000,213.743,37.145,102.400,353.539,-82.306,403.346,-553.780,36.400,-258.060
571,39086.367000,209.812,23.090,101.376,353.463,-87.822,402.234,-625.780,105.400,-272.060
572,39086.407000,225.536,16.063,107.520,354.340,-92.468,398.158,-548.780,36.400,-264.060
573,39086.447000,232.415,13.051,108.544,354.254,-98.862,399.016,-417.780,143.400,-280.060
574,39086.487000,233.397,20.078,95.232,352.327,-101.596,400.944,-211.780,142.400,-292.060
575,39086.534000,242.242,37.145,101.376,354.362,-91.435,404.147,145.220,203.400,-267.060
576,39086.568000,255.017,40.157,108.544,354.430,-86.796,407.230,31.220,105.400,-347.060
577,39086.588000,232.415,60.235,101.376,353.610,-77.628,408.419,31.220,-13.600,-336.060
578,39086.628000,217.674,68.267,92.160,355.501,-77.622,407.427,-94.780,20.400,-359.060
579,39086.669000,219.639,75.294,95.232,361.215,-74.818,406.501,-53.780,31.400,-305.060
580,39086.708000,224.553,76.298,97.280,360.419,-63.837,406.733,-37.780,-24.600,-225.060
581,39086.748000,220.622,86.337,101.376,363.182,-69.296,406.621,-2.780,-66.600,-143.060
582,39086.788000,223.570,80.314,105.472,362.363,-60.128,407.810,100.220,-70.600,-89.060
583,39086.828000,221.605,72.282,120.832,364.240,-61.058,405.803,-113.780,-52.600,-48.060
584,39086.848000,204.898,70.275,118.784,369.900,-61.958,402.809,-41.780,-67.600,-31.060
585,39086.888000,202.933,74.290,95.232,368.032,-60.151,402.844,28.220,-126.600,-10.060
586,39086.928000,208.829,79.310,89.088,371.747,-64.779,397.778,-41.780,-158.600,-30.060
587,39086.969000,212.760,82.322,88.064,375.419,-72.974,397.609,-80.780,-137.600,-76.060
588,39087.7000,218.656,81.318,92.160,375.536,-63.910,392.829,-135.780,-82.600,-76.060
589,39087.62000,221.605,66.259,94.208,376.484,-63.878,393.826,-162.780,-27.600,-48.060
590,39087.69000,206.864,59.231,88.064,380.166,-71.196,391.686,-88.780,4.400,-40.060
591,39087.114000,199.002,70.275,89.088,377.359,-69.324,395.700,-211.780,78.400,-66.060
592,39087.148000,173.451,62.243,87.040,377.265,-75.815,391.584,-110.780,60.400,16.940
593,39087.189000,164.607,58.227,87.040,374.542,-67.568,393.744,2.220,-17.600,-56.060
594,39087.229000,199.002,70.275,111.616,375.470,-68.530,390.741,80.220,37.400,-36.060
595,39087.269000,155.762,59.231,95.232,379.281,-66.648,390.787,234.220,-148.600,70.940
596,39087.297000,223.570,70.275,94.208,374.641,-59.479,385.960,87.220,-46.600,1.940
597,39087.330000,298.257,67.263,109.568,376.466,-64.093,382.880,18.220,-151.600,59.940
598,39087.370000,352.307,56.220,141.312,376.377,-70.525,381.748,-106.780,6.400,144.940
599,39087.410000,384.737,58.227,144.384,379.180,-73.217,382.690,-45.780,-43.600,94.940
600,39087.450000,327.739,57.224,120.832,383.013,-69.522,381.780,39.220,-113.600,48.940
601,39087.490000,263.862,62.243,100.352,383.945,-70.445,380.767,71.220,-142.600,-8.060
602,39087.530000,215.708,64.251,89.088,388.722,-66.777,377.868,74.220,-139.600,-1.060
603,39087.550000,192.123,56.220,75.776,392.486,-68.520,379.826,174.220,-140.600,50.940
604,39087.590000,193.106,65.255,72.704,388.667,-70.500,374.805,173.220,-39.600,55.940
605,39087.630000,198.019,61.239,68.608,392.570,-62.146,377.972,204.220,-30.600,86.940
606,39087.668000,203.916,55.216,67.584,392.511,-66.687,379.865,149.220,10.400,58.940
607,39087.708000,209.812,64.251,68.608,389.798,-57.544,381.050,183.220,22.400,49.940
608,39087.749000,225.536,76.298,74.752,391.708,-56.544,384.058,229.220,45.400,48.940
609,39087.769000,215.708,64.251,66.560,389.811,-56.628,381.069,228.220,-57.600,92.940
610,39087.817000,211.777,79.310,69.632,390.748,-57.493,383.042,68.220,-11.600,43.940
611,39087.847000,211.777,90.353,77.824,391.757,-52.899,383.141,-8.780,-60.600,38.940
612,39087.893000,220.622,81.318,75.776,389.704,-64.035,376.933,-114.780,-201.600,136.940
613,39087.930000,225.536,87.341,77.824,393.502,-63.069,376.959,-263.780,-100.600,83.940
614,39087.970000,215.708,72.282,80.896,396.286,-66.755,373.901,-327.780,-171.600,157.940
615,39087.990000,220.622,50.196,71.680,396.022,-85.233,365.550,-478.780,-208.600,172.940
616,39088.29000,231.432,59.231,79.872,398.789,-89.894,359.487,-446.780,-212.600,151.940
617,39088.69000,244.207,60.235,82.944,399.461,-109.257,352.114,-446.780,-213.600,156.940
618,39088.110000,257.965,44.173,77.824,403.997,-123.034,346.854,-458.780,-199.600,200.940
619,39088.150000,238.311,32.125,80.896,406.708,-131.417,337.728,-493.780,-125.600,180.940
620,39088.187000,258.948,28.110,71.680,400.986,-134.318,333.679,-489.780,-102.600,137.940
621,39088.227000,257.965,15.059,64.512,399.877,-146.241,333.424,-468.780,-116.600,139.940
622,39088.247000,242.242,25.098,79.872,400.715,-153.655,328.294,-451.780,5.400,94.940
623,39088.287000,233.397,17.067,86.016,397.695,-166.596,324.036,-315.780,68.400,113.940
624,39088.334000,220.622,11.043,88.064,394.732,-175.776,324.831,-139.780,147.400,179.940
625,39088.368000,232.415,-1.004,87.040,387.201,-173.108,325.871,-195.780,284.400,167.940
626,39088.409000,227.501,-4.016,98.304,377.595,-184.148,329.600,-238.780,339.400,142.940
627,39088.457000,245.190,6.024,109.568,374.763,-184.868,341.516,-127.780,441.400,118.940
628,39088.470000,256.000,-13.051,88.064,367.113,-191.283,346.342,255.220,215.400,212.940
629,39088.507000,219.639,-8.031,92.160,363.383,-187.610,349.398,-25.780,293.400,76.940
630,39088.552000,215.708,-2.008,87.040,358.598,-192.155,354.268,-157.780,381.400,15.940
631,39088.594000,203.916,1.004,88.064,350.900,-202.216,360.010,-0.780,254.400,46.940
632,39088.634000,208.829,1.004,99.328,343.473,-192.160,364.191,-162.780,204.400,-74.060
633,39088.684000,199.002,-2.008,106.496,347.243,-193.066,362.189,-160.780,139.400,-107.060
634,39088.690000,194.088,1.004,132.096,338.665,-197.739,363.071,-157.780,168.400,-117.060
635,39088.730000,185.244,-4.016,142.336,342.386,-202.289,361.985,-59.780,213.400,-91.060
636,39088.789000,181.313,-13.051,129.024,336.899,-188.583,364.258,68.220,155.400,3.940
637,39088.809000,118.418,-2.008,101.376,335.897,-193.098,368.139,392.220,-29.600,7.940
638,39088.865000,235.363,24.094,98.304,337.970,-180.189,371.401,300.220,23.400,-95.060
639,39088.892000,298.257,30.118,112.640,341.841,-173.746,370.549,589.220,-174.600,11.940
640,39088.938000,387.685,103.404,157.696,341.949,-166.319,375.680,502.220,-2.600,-88.060
641,39088.950000,395.547,83.325,142.336,344.023,-153.390,379.937,279.220,-119.600,-5.060
642,39088.988000,347.393,64.251,138.240,346.895,-150.663,377.015,182.220,-236.600,101.940
643,39089.28000,256.983,31.122,112.640,345.776,-162.702,370.790,-247.780,-263.600,4.940
644,39089.69000,189.175,21.082,86.016,355.226,-162.733,362.846,-337.780,-313.600,-15.060
645,39089.108000,170.503,7.027,73.728,360.881,-163.691,356.866,-129.780,-323.600,4.940
646,39089.148000,186.226,14.055,71.680,368.370,-169.166,352.782,-86.780,-333.600,-56.060
647,39089.169000,196.054,15.059,82.944,372.172,-167.382,347.852,-5.780,-274.600,-66.060
648,39089.209000,223.570,6.024,78.848,374.984,-169.196,346.823,-40.780,-173.600,-22.060
649,39089.249000,226.518,-1.004,91.136,378.763,-169.224,342.850,-27.780,-189.600,-3.060
650,39089.289000,231.432,12.047,80.896,382.593,-165.568,339.949,158.220,-164.600,9.940
651,39089.329000,231.432,5.020,73.728,378.806,-165.637,338.948,276.220,-89.600,63.940
652,39089.368000,227.501,4.016,82.944,386.456,-159.982,342.063,166.220,-91.600,58.940
653,39089.393000,226.518,12.047,94.208,383.521,-167.310,343.892,201.220,-29.600,45.940
654,39089.433000,228.484,7.027,99.328,382.690,-159.038,346.056,73.220,3.400,49.940
655,39089.469000,226.518,4.016,84.992,383.676,-156.257,347.112,102.220,35.400,53.940
656,39089.509000,231.432,0.000,91.136,380.812,-158.127,347.068,107.220,135.400,61.940
657,39089.549000,229.466,-2.008,86.016,375.146,-158.066,354.023,139.220,136.400,42.940
658,39089.590000,222.587,12.047,105.472,376.090,-158.852,359.975,151.220,283.400,-67.060
659,39089.630000,233.397,3.012,103.424,374.338,-148.761,362.177,506.220,-49.600,-0.060
660,39089.652000,265.827,16.063,78.848,372.603,-137.694,367.383,494.220,7.400,10.940
661,39089.693000,235.363,25.098,91.136,375.457,-136.721,368.403,359.220,-44.600,-22.060
662,39089.729000,241.259,31.122,87.040,380.235,-133.033,366.499,209.220,-182.600,-34.060
663,39089.772000,240.276,36.141,76.800,385.113,-122.016,364.751,214.220,-237.600,-42.060
664,39089.808000,250.104,50.196,86.016,386.045,-122.939,363.738,338.220,-158.600,-22.060
665,39089.857000,229.466,40.157,60.416,391.857,-112.826,361.973,312.220,-258.600,23.940
666,39089.870000,227.501,41.161,58.368,391.927,-107.388,359.105,184.220,-130.600,-55.060
667,39089.910000,226.518,46.180,70.656,394.834,-102.711,362.193,387.220,-123.600,51.940
668,39089.957000,254.035,44.173,74.752,394.830,-102.750,360.203,228.220,28.400,5.940
669,39089.990000,240.276,59.231,94.208,393.942,-99.000,365.254,262.220,70.400,-69.060
670,39090.33000,247.155,53.208,67.584,397.743,-97.995,367.270,244.220,2.400,-63.060
671,39090.69000,231.432,36.141,59.392,396.870,-92.530,366.391,152.220,-58.600,-74.060
672,39090.89000,220.622,41.161,60.416,397.931,-84.253,367.563,-101.780,69.400,-164.060
673,39090.129000,224.553,45.176,61.440,398.856,-86.034,369.516,-100.780,50.400,-172.060
674,39090.169000,216.691,61.239,60.416,394.130,-85.258,365.547,-22.780,48.400,-246.060
675,39090.218000,227.501,61.239,66.560,398.952,-78.744,367.682,44.220,87.400,-235.060
676,39090.253000,222.587,61.239,71.680,398.075,-74.098,371.758,63.220,92.400,-222.060
677,39090.293000,216.691,68.267,88.064,397.282,-63.078,373.981,-88.780,111.400,-322.060
678,39090.333000,222.587,76.298,79.872,394.482,-60.347,375.029,-64.780,181.400,-206.060
679,39090.353000,196.054,61.239,86.016,388.841,-58.453,382.024,59.220,299.400,-177.060
680,39090.393000,190.157,76.298,106.496,387.044,-51.968,387.132,227.220,264.400,-193.060
681,39090.440000,155.762,85.333,83.968,384.343,-41.928,387.342,265.220,175.400,-190.060
682,39090.469000,155.762,69.271,75.776,380.536,-43.771,389.286,75.220,26.400,-93.060
683,39090.509000,222.587,63.247,96.256,383.423,-40.088,388.374,-215.780,-10.600,-50.060
684,39090.549000,251.086,63.247,88.064,381.397,-49.372,383.201,-384.780,-134.600,1.940
685,39090.569000,330.687,59.231,108.544,385.048,-58.601,377.042,-361.780,-145.600,91.940
686,39090.609000,390.633,28.110,135.168,383.998,-65.981,374.894,-237.780,-202.600,277.940
687,39090.649000,380.806,51.200,161.792,390.550,-70.592,368.838,-53.780,-66.600,137.940
688,39090.690000,301.205,61.239,102.400,391.533,-67.831,368.898,219.220,-292.600,111.940
689,39090.732000,207.846,61.239,63.488,397.180,-69.666,364.889,244.220,-229.600,81.940
690,39090.772000,194.088,63.247,56.320,398.213,-63.241,365.027,86.220,-207.600,73.940
691,39090.792000,181.313,41.161,48.128,403.866,-64.998,364.998,140.220,-198.600,152.940
692,39090.830000,213.743,44.173,45.056,405.751,-65.070,360.026,175.220,-137.600,233.940
693,39090.892000,217.674,49.192,50.176,404.711,-72.334,363.848,139.220,-34.600,212.940
694,39090.909000,220.622,54.212,43.008,405.716,-67.780,361.958,169.220,-14.600,125.940
695,39090.949000,222.587,51.200,35.840,404.548,-84.244,363.595,99.220,-59.600,94.940
696,39090.989000,221.605,55.216,45.056,406.552,-75.993,362.779,-95.780,5.400,39.940
697,39091.29000,212.760,52.204,57.344,408.474,-74.077,365.806,-166.780,75.400,10.940
698,39091.53000,217.674,50.196,67.584,403.665,-79.676,363.691,-249.780,71.400,-31.060
699,39091.93000,222.587,71.278,83.968,396.986,-84.246,368.557,-291.780,222.400,-199.060
700,39091.130000,196.054,79.310,89.088,395.992,-87.904,369.472,-307.780,268.400,-225.060
701,39091.172000,236.345,72.282,86.016,396.968,-86.000,372.498,-343.780,77.400,-205.060
702,39091.213000,250.104,90.353,89.088,395.088,-85.109,372.514,-434.780,15.400,-223.060
703,39091.253000,256.983,51.200,77.824,398.763,-92.505,366.394,-538.780,-52.600,-121.060
704,39091.280000,275.655,47.184,98.304,396.739,-101.770,362.215,-531.780,-94.600,-25.060
705,39091.314000,232.415,35.137,91.136,402.316,-108.264,354.128,-362.780,-249.600,49.940
706,39091.354000,212.760,56.220,76.800,403.157,-115.639,350.989,-223.780,-209.600,-10.060
707,39091.404000,227.501,61.239,71.680,405.995,-114.841,343.053,-61.780,-272.600,-0.060
708,39091.433000,240.276,51.200,64.512,411.538,-124.045,336.897,-489.780,-194.600,-76.060
709,39091.473000,248.138,55.216,63.488,412.350,-132.531,323.788,-673.780,-342.600,-101.060
710,39091.510000,231.432,38.149,64.512,418.870,-139.052,313.712,-709.780,-291.600,-138.060
711,39091.532000,232.415,29.114,95.232,426.271,-150.180,301.551,-695.780,-334.600,-10.060
712,39091.572000,247.155,9.035,109.568,425.225,-156.742,294.447,-549.780,-43.600,60.940
713,39091.613000,247.155,8.031,88.064,424.270,-157.631,296.416,-236.780,-24.600,132.940
714,39091.654000,226.518,17.067,83.968,422.247,-166.876,293.232,29.220,-39.600,101.940
715,39091.690000,237.328,34.133,74.752,420.449,-160.410,297.346,-28.780,5.400,27.940
716,39091.710000,230.449,22.086,73.728,421.287,-167.824,292.216,-188.780,84.400,24.940
717,39091.754000,232.415,20.078,75.776,417.555,-164.171,294.277,-190.780,117.400,15.940
718,39091.794000,226.518,14.055,63.488,414.658,-168.730,297.160,-166.780,109.400,38.940
719,39091.834000,221.605,17.067,72.704,412.616,-179.749,296.923,-209.780,167.400,67.940
720,39091.890000,207.846,15.059,75.776,410.714,-180.651,298.890,-171.780,146.400,40.940
721,39091.922000,211.777,-1.004,67.584,408.901,-175.121,301.989,31.220,259.400,84.940
722,39091.950000,208.829,11.043,89.088,404.110,-179.725,303.873,68.220,185.400,158.940
723,39091.975000,179.347,6.024,95.232,399.419,-177.779,312.859,268.220,245.400,154.940
724,39092.29000,234.380,26.102,68.608,396.679,-171.267,319.956,829.220,136.400,85.940
725,39092.55000,278.603,71.278,121.856,390.120,-167.515,328.978,531.220,200.400,18.940
726,39092.107000,286.464,75.294,117.760,390.330,-152.740,335.261,732.220,103.400,68.940
727,39092.133000,354.273,87.341,93.184,389.460,-147.236,336.371,437.220,-95.600,143.940
728,39092.175000,335.601,62.243,83.968,391.355,-147.191,337.370,319.220,-231.600,250.940
729,39092.198000,277.620,67.263,84.992,391.367,-146.275,337.389,322.220,-299.600,239.940
730,39092.238000,228.484,43.169,72.704,397.939,-149.112,328.387,90.220,-316.600,206.940
731,39092.279000,207.846,14.055,78.848,395.880,-161.085,326.139,-196.780,-203.600,148.940
732,39092.312000,203.916,10.039,82.944,394.893,-163.885,324.089,-275.780,42.400,24.940
733,39092.360000,200.967,22.086,86.016,400.646,-158.314,324.216,305.220,-198.600,23.940
734,39092.390000,236.345,4.016,38.912,401.578,-159.237,323.203,207.220,-211.600,31.940
735,39092.410000,239.294,0.000,66.560,401.561,-160.211,320.199,-185.780,-81.600,52.940
736,39092.454000,237.328,5.020,78.848,403.320,-169.445,315.032,-261.780,-15.600,34.940
737,39092.495000,236.345,3.012,90.112,403.281,-172.213,313.978,-148.780,25.400,20.940
738,39092.535000,235.363,-2.008,82.944,401.468,-166.683,317.077,6.220,-3.600,32.940
739,39092.572000,224.553,-10.039,73.728,402.365,-170.335,317.001,146.220,0.400,49.940
740,39092.615000,224.553,-9.035,73.728,397.699,-165.778,319.080,154.220,31.400,26.940
741,39092.655000,215.708,-3.012,58.368,401.523,-162.960,320.140,252.220,24.400,-2.060
742,39092.675000,222.587,9.035,72.704,396.866,-158.305,327.195,233.220,164.400,-53.060
743,39092.714000,207.846,21.082,88.064,395.839,-164.652,331.037,359.220,120.400,-38.060
744,39092.754000,206.864,19.075,90.112,394.153,-149.941,335.326,413.220,98.400,-17.060
745,39092.795000,287.447,12.047,95.232,389.520,-143.454,342.420,292.220,137.400,24.940
746,39092.842000,274.672,21.082,98.304,393.314,-143.307,347.401,282.220,47.400,-14.060
747,39092.875000,247.155,38.149,86.016,394.344,-136.920,345.550,254.220,-19.600,-54.060
748,39092.895000,205.881,36.141,63.488,400.110,-130.432,345.696,178.220,-174.600,-74.060
749,39092.944000,234.380,35.137,60.416,400.130,-128.658,342.750,13.220,-139.600,-121.060
750,39092.979000,230.449,28.110,66.560,402.969,-128.621,342.755,27.220,-5.600,-58.060
751,39093.19000,247.155,32.125,83.968,398.376,-118.586,343.957,162.220,45.400,-51.060
752,39093.53000,248.138,42.165,76.800,400.286,-117.587,346.965,301.220,3.400,-14.060
753,39093.93000,254.035,34.133,56.320,403.191,-112.930,349.057,408.220,-38.600,43.940
754,39093.119000,248.138,41.161,55.296,403.200,-112.832,354.032,365.220,47.400,-5.060
755,39093.154000,247.155,60.235,73.728,407.233,-94.479,353.434,328.220,60.400,-91.060
756,39093.193000,236.345,63.247,75.776,403.515,-89.890,356.510,357.220,49.400,-73.060
757,39093.233000,217.674,67.263,78.848,404.547,-84.263,362.600,221.220,63.400,-110.060
758,39093.273000,218.656,68.267,70.656,405.561,-79.612,365.684,127.220,12.400,-88.060
759,39093.314000,221.605,62.243,62.464,405.545,-80.567,363.674,87.220,24.400,-76.060
760,39093.335000,242.242,64.251,67.584,402.781,-75.107,363.786,-55.780,49.400,-115.060
761,39093.375000,233.397,59.231,79.872,401.833,-75.139,362.790,-88.780,44.400,-86.060
762,39093.412000,222.587,48.188,69.632,404.611,-79.663,363.692,-38.780,-47.600,-67.060
763,39093.463000,193.106,59.231,55.296,402.826,-71.501,360.879,-64.780,11.400,-207.060
764,39093.503000,183.278,62.243,64.512,403.797,-69.657,360.920,-8.780,43.400,-135.060
765,39093.532000,176.399,61.239,69.632,402.827,-71.482,361.874,-122.780,44.400,-178.060
766,39093.572000,169.520,70.275,77.824,403.866,-64.238,357.057,-134.780,-76.600,-132.060
767,39093.595000,198.019,49.192,50.176,404.685,-73.406,355.868,-185.780,-48.600,-127.060
768,39093.632000,265.827,52.204,64.512,402.850,-68.909,352.977,-480.780,73.400,-121.060
769,39093.672000,352.307,45.176,89.088,399.775,-86.334,353.597,-419.780,6.400,129.940
770,39093.712000,403.409,37.145,134.144,396.920,-87.326,351.582,-160.780,138.400,145.940
771,39093.753000,357.221,38.149,119.808,395.913,-91.900,352.478,-23.780,-16.600,203.940
772,39093.794000,291.378,38.149,71.680,400.617,-93.709,350.457,-38.780,-159.600,67.940
773,39093.822000,219.639,46.180,65.536,405.339,-94.523,352.436,-66.780,-175.600,-53.060
774,39093.855000,208.829,50.196,73.728,407.250,-92.744,348.498,189.220,-177.600,-37.060
775,39093.895000,201.950,42.165,64.512,412.016,-89.972,346.575,223.220,-142.600,27.940
776,39093.935000,201.950,38.149,68.608,410.021,-97.346,345.420,336.220,-64.600,46.940
777,39093.975000,206.864,57.224,61.440,413.154,-76.159,349.855,447.220,7.400,22.940
778,39094.15000,212.760,63.247,49.152,413.225,-71.481,354.927,424.220,-33.600,23.940
779,39094.35000,208.829,69.271,34.816,416.025,-74.211,353.879,177.220,-52.600,-8.060
780,39094.85000,215.708,70.275,27.648,414.206,-68.759,352.997,16.220,18.400,-69.060
781,39094.113000,220.622,69.271,65.536,416.091,-69.592,355.966,10.220,40.400,34.940
782,39094.153000,229.466,49.192,58.368,412.306,-69.642,355.960,-170.780,42.400,63.940
783,39094.194000,222.587,65.255,76.800,408.467,-73.395,353.885,-280.780,127.400,-30.060
784,39094.235000,203.916,85.333,92.160,405.588,-76.980,359.772,-317.780,205.400,-139.060
785,39094.284000,182.296,64.251,77.824,404.568,-82.470,360.649,-174.780,61.400,-82.060
786,39094.297000,219.639,56.220,73.728,404.585,-80.735,355.712,-352.780,102.400,-279.060
787,39094.337000,226.518,84.329,87.040,400.716,-87.159,357.559,-242.780,-83.600,-65.060
788,39094.374000,279.585,64.251,100.352,404.482,-88.103,353.566,-336.780,-76.600,-37.060
789,39094.422000,270.741,33.129,98.304,408.185,-93.628,349.475,-415.780,-157.600,145.940
790,39094.458000,238.311,35.137,73.728,406.070,-109.345,343.170,-280.780,-136.600,180.940
791,39094.493000,213.743,50.196,51.200,408.899,-109.424,337.205,-247.780,-165.600,128.940
792,39094.513000,212.760,54.212,39.936,412.594,-115.826,335.085,-359.780,-98.600,-57.060
793,39094.553000,223.570,56.220,52.224,408.741,-120.515,331.995,-618.780,116.400,-190.060
794,39094.593000,249.121,48.188,87.040,409.646,-123.290,329.948,-618.780,49.400,-252.060
795,39094.637000,257.965,29.114,74.752,409.524,-131.653,323.802,-656.780,-109.600,-73.060
796,39094.673000,253.052,33.129,88.064,405.489,-149.246,316.459,-673.780,83.400,48.940
797,39094.713000,242.242,31.122,100.352,406.375,-153.794,317.358,-391.780,113.400,153.940
798,39094.738000,234.380,27.106,108.544,402.385,-169.321,321.995,-115.780,98.400,263.940
799,39094.773000,218.656,13.051,101.376,401.452,-168.417,322.013,56.220,75.400,323.940
800,39094.827000,222.587,6.024,81.920,395.713,-173.054,322.901,-71.780,103.400,334.940
801,39094.857000,225.536,2.008,78.848,390.830,-184.129,321.663,-221.780,71.400,283.940
802,39094.895000,242.242,3.012,83.968,385.094,-188.726,324.541,-57.780,108.400,258.940
803,39094.933000,230.449,0.000,86.016,380.375,-187.873,324.552,199.220,71.400,216.940
804,39094.977000,222.587,-2.008,86.016,378.489,-187.820,328.529,154.220,103.400,192.940
805,39095.2000,202.933,-2.008,78.848,372.759,-192.358,334.391,74.220,80.400,113.940
806,39095.37000,196.054,-7.027,75.776,374.701,-188.669,334.473,156.220,83.400,90.940
807,39095.77000,198.019,-2.008,91.136,370.829,-195.132,334.330,-27.780,149.400,79.940
808,39095.115000,129.228,-3.012,82.944,369.984,-187.796,335.479,300.220,-120.600,105.940
809,39095.155000,175.417,9.035,75.776,369.052,-186.872,336.492,413.220,29.400,110.940
810,39095.195000,245.190,-6.024,94.208,370.007,-186.762,341.469,277.220,-19.600,205.940
811,39095.215000,339.532,44.173,112.640,362.504,-182.223,344.538,280.220,173.400,36.940
812,39095.262000,421.098,64.251,154.624,362.569,-177.603,346.626,352.220,99.400,107.940
813,39095.297000,391.616,63.247,153.600,362.707,-167.526,346.841,317.220,-195.600,44.940
814,39095.342000,292.361,28.110,106.496,362.764,-163.783,350.899,259.220,-154.600,20.940
815,39095.374000,186.226,7.027,66.560,369.331,-167.439,346.852,-118.780,-263.600,-31.060
816,39095.414000,172.468,7.027,54.272,376.865,-169.307,339.861,-265.780,-288.600,-93.060
817,39095.434000,191.140,7.027,60.416,382.534,-169.330,334.896,-250.780,-232.600,-164.060
818,39095.475000,202.933,10.039,63.488,385.251,-177.655,328.755,-286.780,-236.600,-181.060
819,39095.515000,221.605,2.008,73.728,386.166,-179.553,324.737,-282.780,-136.600,-146.060
820,39095.555000,227.501,2.008,76.800,392.817,-176.834,318.837,-157.780,-111.600,-49.060
821,39095.595000,220.622,1.004,69.632,396.527,-182.281,318.727,-109.780,-99.600,-19.060
822,39095.635000,222.587,-2.008,69.632,396.502,-184.113,318.688,-50.780,-43.600,-3.060
823,39095.675000,225.536,5.020,67.584,396.512,-183.236,316.717,-63.780,-53.600,-41.060
824,39095.697000,220.622,-1.004,79.872,392.739,-182.370,316.730,-90.780,62.400,-56.060
825,39095.737000,229.466,2.008,95.232,393.624,-186.918,317.629,-43.780,127.400,-58.060
826,39095.777000,237.328,0.000,98.304,392.824,-176.756,322.818,93.220,164.400,-58.060
827,39095.818000,211.777,3.012,92.160,392.776,-180.401,323.735,222.220,76.400,-61.060
828,39095.858000,237.328,3.012,73.728,395.780,-168.414,325.983,373.220,-48.600,1.940
829,39095.894000,238.311,15.059,77.824,393.939,-164.755,327.053,299.220,-51.600,25.940
830,39095.914000,254.035,22.086,78.848,393.021,-162.897,329.081,331.220,-78.600,-29.060
831,39095.954000,232.415,38.149,75.776,394.991,-157.355,330.196,276.220,-69.600,-78.060
832,39095.999000,232.415,52.204,78.848,404.548,-150.739,334.330,649.220,-189.600,16.940
833,39096.34000,239.294,38.149,77.824,403.816,-135.158,335.655,378.220,-210.600,6.940
834,39096.74000,241.259,45.176,80.896,413.222,-138.776,331.613,88.220,-163.600,15.940
835,39096.117000,239.294,37.145,70.656,409.443,-137.988,327.646,-14.780,-125.600,18.940
836,39096.137000,240.276,27.106,62.464,410.388,-137.995,326.652,-27.780,-43.600,20.940
837,39096.178000,255.017,19.075,60.416,408.475,-139.793,329.595,236.220,114.400,86.940
838,39096.218000,259.931,9.035,48.128,411.405,-133.304,331.727,521.220,-113.600,179.940
839,39096.254000,237.328,22.086,63.488,414.359,-124.982,333.898,431.220,-84.600,132.940
840,39096.294000,244.207,33.129,54.272,411.524,-124.981,335.883,508.220,-170.600,90.940
841,39096.339000,244.207,48.188,52.224,416.302,-121.293,333.979,397.220,-106.600,-86.060
842,39096.379000,227.501,69.271,74.752,415.562,-106.569,338.270,156.220,50.400,-175.060
843,39096.399000,227.501,56.220,76.800,414.580,-109.310,339.205,-30.780,112.400,-137.060
844,39096.439000,230.449,52.204,67.584,412.741,-105.632,341.270,-117.780,140.400,-142.060
845,39096.479000,228.484,50.196,60.416,409.002,-102.836,346.297,-41.780,152.400,-126.060
846,39096.519000,229.466,52.204,62.464,413.769,-100.044,345.369,-77.780,221.400,-208.060
847,39096.559000,241.259,64.251,73.728,406.232,-98.214,350.370,-7.780,139.400,-127.060
848,39096.597000,224.553,57.224,61.440,403.448,-94.529,353.428,-15.780,205.400,-173.060
849,39096.617000,220.622,62.243,72.704,402.494,-95.399,356.392,11.220,295.400,-147.060
850,39096.665000,187.209,51.200,63.488,398.769,-91.667,362.433,85.220,159.400,-41.060
851,39096.699000,176.399,50.196,73.728,397.785,-94.428,362.373,-127.780,184.400,-117.060
852,39096.738000,180.330,53.208,64.512,394.026,-92.626,363.401,-224.780,68.400,-54.060
853,39096.779000,170.503,28.110,59.392,397.744,-97.216,360.325,-436.780,44.400,-104.060
854,39096.819000,298.257,41.161,106.496,393.831,-106.466,358.133,-534.780,161.400,-75.060
855,39096.839000,354.273,18.071,125.952,392.833,-110.163,357.058,-152.780,67.400,-61.060
856,39096.875000,402.426,21.082,134.144,389.093,-107.367,362.085,40.220,143.400,-46.060
857,39096.915000,329.704,24.094,101.376,391.995,-102.748,362.188,142.220,-104.600,65.940
858,39096.969000,288.430,27.106,89.088,390.147,-99.167,359.277,147.220,-112.600,33.940
859,39096.998000,202.933,35.137,71.680,396.837,-94.460,361.377,261.220,-97.600,-48.060
860,39097.38000,192.123,49.192,59.392,393.964,-97.207,363.303,413.220,-58.600,-50.060
861,39097.79000,209.812,58.227,64.512,393.137,-88.896,367.457,422.220,105.400,-28.060
862,39097.95000,221.605,59.231,75.776,392.386,-75.069,372.724,382.220,218.400,-22.060
863,39097.135000,226.518,60.235,76.800,387.622,-78.601,382.588,120.220,391.400,-71.060
864,39097.175000,219.639,63.247,70.656,382.059,-71.171,391.689,-83.780,414.400,-115.060
865,39097.215000,214.726,76.298,65.536,374.507,-70.277,395.676,-161.780,402.400,-147.060
866,39097.255000,195.071,70.275,84.992,367.820,-75.725,402.512,5.220,333.400,-63.060
867,39097.302000,219.639,66.259,83.968,356.577,-68.390,410.609,-221.780,546.400,-157.060
868,39097.318000,213.743,66.259,77.824,352.779,-70.135,417.529,-44.780,340.400,-146.060
869,39097.364000,200.967,74.290,113.664,341.419,-71.104,422.465,-188.780,471.400,-190.060
870,39097.398000,210.795,75.294,118.784,335.687,-75.662,427.332,-312.780,437.400,-170.060
871,39097.438000,197.036,90.353,137.216,327.163,-76.632,430.283,-231.780,262.400,-77.060
872,39097.479000,209.812,67.263,125.952,320.403,-86.778,431.052,-345.780,185.400,-47.060
873,39097.515000,210.795,64.251,130.048,318.443,-92.202,435.906,-420.780,87.400,36.940
874,39097.535000,219.639,58.227,129.024,316.317,-108.815,430.577,-465.780,70.400,74.940
875,39097.578000,199.985,36.141,132.096,318.177,-110.720,425.566,-320.780,69.400,157.940
876,39097.617000,202.933,31.122,122.880,313.353,-118.014,430.376,-274.780,72.400,225.940
877,39097.660000,209.812,37.145,132.096,311.247,-133.632,429.046,-350.780,44.400,172.940
878,39097.700000,217.674,31.122,131.072,303.530,-143.908,423.843,-336.780,-17.600,134.940
879,39097.749000,212.760,36.141,139.264,310.096,-147.582,418.801,-406.780,-31.600,78.940
880,39097.778000,223.570,24.094,146.432,306.233,-153.168,416.687,-395.780,-42.600,66.940
881,39097.797000,212.760,18.071,153.600,305.185,-160.529,415.535,-283.780,-23.600,51.940
882,39097.838000,206.864,27.106,172.032,304.107,-169.781,411.357,-277.780,34.400,-9.060
883,39097.878000,202.933,13.051,161.792,302.137,-175.322,410.242,-117.780,-15.600,51.940
884,39097.918000,195.071,5.020,142.336,303.980,-178.962,410.167,-131.780,-92.600,65.940
885,39097.958000,190.157,-1.004,137.216,305.782,-185.389,408.044,-158.780,-138.600,98.940
886,39097.998000,205.881,-4.016,133.120,310.528,-183.611,402.121,-56.780,-206.600,89.940
887,39098.19000,204.898,-11.043,126.976,316.251,-179.930,399.224,36.220,-237.600,57.940
888,39098.60000,204.898,-2.008,123.904,318.064,-185.460,396.125,61.220,-261.600,5.940
889,39098.98000,183.278,3.012,111.616,323.885,-174.470,392.389,325.220,-298.600,-1.060
890,39098.145000,170.503,5.020,102.400,329.641,-168.859,394.506,364.220,-288.600,-3.060
891,39098.179000,183.278,8.031,114.688,332.529,-164.397,386.648,136.220,-392.600,60.940
892,39098.219000,126.280,-2.008,110.592,337.210,-167.239,378.638,23.220,-470.600,85.940
893,39098.239000,166.572,24.094,87.040,346.729,-162.611,374.772,450.220,-417.600,112.940
894,39098.279000,221.605,27.106,80.896,352.403,-161.815,364.850,425.220,-448.600,82.940
895,39098.327000,343.463,52.204,92.160,363.918,-149.795,363.134,366.220,-422.600,18.940
896,39098.360000,436.821,105.412,141.312,363.070,-142.498,362.294,482.220,-117.600,-45.060
897,39098.399000,448.614,69.271,151.552,361.089,-148.936,362.154,190.220,-74.600,162.940
898,39098.442000,326.756,39.153,106.496,368.790,-139.616,365.347,319.220,-203.600,217.940
899,39098.482000,181.313,36.141,73.728,366.791,-147.048,361.208,-137.780,-158.600,95.940
900,39098.497000,146.917,25.098,58.368,371.437,-152.599,355.128,-582.780,-203.600,-65.060
901,39098.538000,166.572,10.039,55.296,376.862,-170.106,345.812,-700.780,-182.600,-114.060
902,39098.583000,188.192,4.016,69.632,377.779,-171.985,342.790,-425.780,-174.600,-115.060
903,39098.620000,222.587,9.035,109.568,380.545,-176.645,336.727,-562.780,57.400,-104.060
904,39098.662000,245.190,-21.082,77.824,381.422,-181.291,332.651,-346.780,-5.600,-3.060
905,39098.697000,210.795,-2.008,68.608,378.493,-187.781,330.519,-154.780,-19.600,18.940
906,39098.722000,209.812,-2.008,64.512,381.346,-186.808,331.538,-92.780,39.400,22.940
907,39098.758000,202.933,-12.047,73.728,382.279,-187.711,331.521,-97.780,-25.600,63.940
908,39098.798000,212.760,-10.039,90.112,378.464,-189.652,328.490,-50.780,29.400,9.940
909,39098.839000,230.449,-7.027,99.328,374.723,-186.876,332.522,130.220,138.400,7.940
910,39098.879000,232.415,-15.059,116.736,375.656,-188.559,339.450,194.220,217.400,31.940
911,39098.919000,204.898,-3.012,120.832,371.981,-181.163,345.570,304.220,250.400,-36.060
912,39098.938000,206.864,3.012,97.280,369.307,-170.031,354.754,786.220,97.400,20.940
913,39098.978000,223.570,5.020,86.016,371.256,-166.263,358.816,556.220,16.400,-14.060
914,39099.24000,265.827,29.114,112.640,369.631,-146.991,362.208,550.220,-93.600,-70.060
915,39099.59000,252.069,50.196,104.448,378.271,-137.737,361.423,438.220,-194.600,-136.060
916,39099.100000,249.121,66.259,88.064,385.898,-133.134,357.553,262.220,-257.600,-206.060
917,39099.142000,233.397,41.161,67.584,387.849,-128.567,355.664,128.220,-286.600,-136.060
918,39099.182000,234.380,34.133,59.392,390.685,-128.569,353.679,-12.780,-95.600,-52.060
919,39099.210000,242.242,26.102,70.656,393.492,-130.442,349.665,-48.780,3.400,-21.060
920,39099.248000,223.570,40.157,74.752,393.599,-123.034,353.801,130.220,-53.600,-11.060
921,39099.282000,236.345,49.192,57.344,395.459,-125.699,356.731,203.220,76.400,-4.060
922,39099.322000,235.363,57.224,83.968,390.806,-120.226,358.830,112.220,89.400,25.940
923,39099.358000,253.052,57.224,82.944,392.770,-114.743,356.960,200.220,-79.600,-11.060
924,39099.398000,241.259,68.267,100.352,395.572,-117.454,356.907,123.220,-139.600,67.940
925,39099.419000,225.536,56.220,97.280,397.495,-114.759,352.988,-37.780,-216.600,54.940
926,39099.460000,219.639,53.208,87.040,405.977,-116.596,346.994,-286.780,-332.600,-12.060
927,39099.500000,221.605,50.196,69.632,411.577,-121.277,337.951,-305.780,-378.600,-50.060
928,39099.542000,239.294,46.180,68.608,414.340,-125.976,329.898,-184.780,-425.600,25.940
929,39099.578000,241.259,44.173,78.848,421.847,-129.697,321.873,-113.780,-316.600,7.940
930,39099.618000,233.397,43.169,69.632,419.898,-133.464,317.811,-75.780,-157.600,3.940
931,39099.639000,222.587,42.165,64.512,425.605,-130.739,312.904,-9.780,-35.600,14.940
932,39099.679000,221.605,46.180,65.536,422.729,-133.525,312.841,-52.780,40.400,-26.060
933,39099.719000,206.864,47.184,65.536,423.625,-137.177,312.764,32.220,41.400,-9.060
934,39099.758000,190.157,42.165,44.032,423.769,-127.021,316.959,-73.780,-12.600,-54.060
935,39099.798000,234.380,35.137,39.936,425.552,-134.442,310.836,-116.780,-2.600,-54.060
936,39099.843000,248.138,34.133,39.936,424.666,-129.894,309.937,-103.780,-22.600,-27.060
937,39099.885000,289.413,32.125,70.656,423.718,-129.926,308.940,-169.780,60.400,-2.060
938,39099.899000,321.843,7.027,64.512,424.590,-135.410,308.825,-300.780,-26.600,63.940
939,39099.939000,317.912,-9.035,65.536,424.505,-141.024,302.737,-370.780,-171.600,150.940
940,39099.980000,288.430,5.020,63.488,428.191,-147.523,295.642,-266.780,-155.600,49.940
941,39100.18000,269.758,8.031,72.704,429.080,-151.253,291.586,-115.780,-101.600,-40.060
942,39100.58000,256.983,4.016,60.416,429.041,-154.021,290.532,87.220,-183.600,-6.060
943,39100.103000,227.501,12.047,52.224,432.909,-147.617,287.690,150.220,-188.600,-17.060
944,39100.118000,207.846,21.082,34.816,433.839,-148.560,285.682,222.220,-184.600,-43.060
945,39100.162000,227.501,37.145,36.864,437.766,-138.393,287.894,278.220,-59.600,-75.060
946,39100.202000,236.345,50.196,53.248,441.573,-137.310,293.890,321.220,77.400,-94.060
947,39100.243000,242.242,49.192,45.056,438.914,-124.463,297.143,182.220,115.400,-94.060
948,39100.283000,233.397,53.208,36.864,441.742,-125.322,298.124,76.220,105.400,-133.060
949,39100.323000,233.397,55.216,37.888,436.082,-124.422,301.119,94.220,82.400,-117.060
950,39100.343000,228.484,50.196,35.840,438.014,-121.630,302.176,144.220,23.400,-46.060
951,39100.383000,228.484,55.216,49.152,436.196,-116.158,302.289,36.220,84.400,-54.060
952,39100.423000,225.536,49.192,64.512,430.473,-119.839,305.186,-94.780,131.400,-52.060
953,39100.463000,217.674,50.196,70.656,433.347,-117.852,311.201,-153.780,142.400,-85.060
954,39100.503000,231.432,62.243,88.064,430.510,-117.870,312.191,-68.780,203.400,-64.060
955,39100.543000,251.086,63.247,83.968,424.726,-126.112,315.986,-162.780,235.400,-108.060
956,39100.583000,254.035,62.243,73.728,424.794,-121.473,319.068,-106.780,66.400,-77.060
957,39100.603000,256.983,58.227,69.632,423.833,-122.421,318.052,-217.780,184.400,-50.060
958,39100.643000,245.190,48.188,59.392,423.749,-128.795,319.905,-313.780,33.400,-11.060
959,39100.692000,235.363,35.137,68.608,421.792,-133.420,318.810,-290.780,38.400,63.940
960,39100.719000,236.345,37.145,73.728,420.759,-139.845,318.671,-171.780,51.400,69.940
961,39100.760000,235.363,38.149,60.416,416.077,-136.243,318.741,-123.780,-66.600,25.940
962,39100.808000,237.328,33.129,48.128,415.049,-141.831,314.642,-172.780,-13.600,-29.060
963,39100.822000,236.345,29.114,65.536,416.942,-141.806,314.645,-195.780,74.400,5.940
964,39100.863000,234.380,30.118,69.632,413.122,-144.565,316.570,-219.780,201.400,-50.060
965,39100.918000,233.397,38.149,81.920,409.280,-149.137,319.451,-225.780,283.400,-105.060
966,39100.944000,237.328,42.165,94.208,406.416,-151.767,327.348,-164.780,369.400,-111.060
967,39100.983000,251.086,26.102,80.896,403.609,-149.894,331.362,-161.780,280.400,-78.060
968,39101.19000,231.432,39.153,108.544,397.930,-149.989,330.357,-300.780,298.400,-101.060
969,39101.39000,232.415,47.184,134.144,391.126,-163.721,335.028,-170.780,282.400,-51.060
970,39101.79000,213.743,28.110,135.168,386.500,-156.396,338.161,-65.780,144.400,128.940
971,39101.132000,216.691,16.063,117.760,387.321,-165.544,337.968,-6.780,29.400,217.940
972,39101.168000,215.708,11.043,96.256,383.553,-164.620,340.966,-14.780,-50.600,238.940
973,39101.202000,216.691,8.031,89.088,382.550,-168.375,336.906,-18.780,-62.600,239.940
974,39101.240000,220.622,17.067,94.208,380.617,-171.187,334.854,-19.780,-21.600,213.940
975,39101.262000,199.985,13.051,93.184,376.749,-177.592,337.696,0.220,-10.600,206.940
976,39101.299000,167.555,-1.004,81.920,375.740,-182.185,337.596,36.220,13.400,168.940
977,39101.344000,147.900,3.012,78.848,371.943,-183.151,337.570,141.220,22.400,138.940
978,39101.383000,205.881,19.075,113.664,370.985,-184.060,338.544,164.220,168.400,138.940
979,39101.422000,190.157,0.000,99.328,372.028,-177.537,343.658,246.220,-12.600,206.940
980,39101.463000,219.639,3.012,81.920,367.248,-181.245,344.566,290.220,62.400,169.940
981,39101.504000,324.791,24.094,62.464,367.360,-172.999,344.742,241.220,-30.600,129.940
982,39101.529000,405.374,55.216,124.928,367.296,-177.600,343.649,9.220,5.400,61.940
983,39101.564000,420.115,55.216,141.312,368.306,-172.987,344.744,61.220,-151.600,-8.060
984,39101.603000,330.687,59.231,131.072,369.246,-173.052,340.765,-13.780,-176.600,-125.060
985,39101.643000,264.845,43.169,108.544,378.654,-176.650,337.718,94.220,-355.600,-41.060
986,39101.684000,182.296,19.075,74.752,381.510,-174.878,332.787,-394.780,-250.600,-113.060
987,39101.727000,179.347,12.047,71.680,385.171,-183.210,325.653,-543.780,-197.600,-99.060
988,39101.740000,175.417,8.031,87.040,385.139,-185.120,321.634,-177.780,-128.600,36.940
989,39101.782000,206.864,11.043,78.848,386.063,-186.141,315.645,-124.780,-136.600,-23.060
990,39101.822000,213.743,-1.004,75.776,388.777,-195.265,315.455,-50.780,-50.600,7.940
991,39101.863000,221.605,-3.012,72.704,385.866,-200.760,317.323,-115.780,104.400,95.940
992,39101.903000,227.501,-3.012,77.824,383.081,-197.094,319.386,-122.780,192.400,135.940
993,39101.943000,221.605,-4.016,75.776,378.320,-199.808,324.295,-41.780,217.400,111.940
994,39101.963000,214.726,-4.016,78.848,378.325,-199.749,327.280,309.220,150.400,96.940
995,39102.3000,227.501,-6.024,87.040,374.700,-188.688,333.478,299.220,201.400,0.940
996,39102.43000,226.518,-25.098,98.304,371.030,-181.234,342.583,673.220,147.400,65.940
997,39102.84000,243.225,4.016,106.496,370.093,-181.129,348.551,450.220,141.400,139.940
998,39102.124000,238.311,13.051,118.784,360.783,-171.001,357.705,542.220,55.400,201.940
999,39102.164000,228.484,14.055,122.880,363.637,-170.008,359.720,384.220,79.400,92.940
1000,39102.204000,225.536,24.094,106.496,360.885,-164.412,366.797,458.220,76.400,52.940
1001,39102.224000,251.086,17.067,106.496,361.019,-155.153,371.967,376.220,52.400,-0.060
1002,39102.264000,231.432,31.122,86.016,359.158,-153.268,375.983,415.220,43.400,-107.060
1003,39102.304000,231.432,32.125,88.064,361.305,-134.862,379.362,460.220,78.400,-143.060
1004,39102.344000,217.674,29.114,76.800,363.245,-131.971,385.394,601.220,37.400,-73.060
1005,39102.384000,228.484,24.094,92.160,365.227,-125.514,386.529,442.220,63.400,-144.060
1006,39102.422000,229.466,36.141,95.232,360.788,-104.447,389.955,427.220,35.400,-109.060
1007,39102.445000,234.380,35.137,83.968,362.819,-95.104,398.114,379.220,7.400,-134.060
1008,39102.485000,240.276,40.157,92.160,362.960,-84.988,400.319,313.220,12.400,-75.060
1009,39102.520000,234.380,46.180,92.160,366.767,-83.145,398.374,400.220,-11.600,-119.060
1010,39102.563000,233.397,47.184,89.088,365.985,-71.228,399.622,325.220,9.400,-110.060
1011,39102.604000,227.501,48.188,90.112,364.115,-69.440,398.662,273.220,23.400,-61.060
1012,39102.640000,229.466,51.200,81.920,368.025,-61.008,405.810,352.220,48.400,-17.060
1013,39102.660000,229.466,66.259,89.088,363.331,-58.322,405.860,398.220,62.400,-23.060
1014,39102.704000,234.380,78.306,84.992,365.345,-49.175,404.069,397.220,62.400,-37.060
1015,39102.745000,226.518,77.302,86.016,364.571,-37.161,410.291,345.220,90.400,-38.060
1016,39102.785000,228.484,79.310,90.112,364.711,-27.064,411.501,248.220,110.400,-54.060
1017,39102.825000,222.587,80.314,91.136,356.225,-25.266,415.505,192.220,125.400,-59.060
1018,39102.862000,224.553,74.290,105.472,354.341,-25.193,420.477,129.220,159.400,18.940
1019,39102.903000,220.622,72.282,97.280,353.431,-22.477,419.539,108.220,98.400,26.940
1020,39102.923000,220.622,80.314,94.208,348.665,-25.249,421.462,122.220,93.400,31.940
1021,39102.963000,218.656,81.318,98.304,349.741,-16.017,424.644,104.220,78.400,49.940
1022,39103.3000,217.674,80.314,93.184,346.815,-22.467,424.502,79.220,26.400,45.940
1023,39103.48000,220.622,84.329,94.208,346.813,-22.486,423.507,2.220,2.400,13.940
1024,39103.82000,214.726,85.333,100.352,344.088,-14.259,424.673,5.220,-11.600,8.940
1025,39103.122000,216.691,87.341,95.232,349.552,-29.778,423.356,-61.780,-40.600,35.940
1026,39103.142000,217.674,87.341,93.184,351.543,-22.443,422.521,-96.780,-48.600,49.940
1027,39103.183000,216.691,84.329,97.280,354.263,-30.729,418.370,-105.780,-37.600,79.940
1028,39103.223000,213.743,83.325,96.256,351.452,-28.895,420.394,-70.780,-43.600,116.940
1029,39103.263000,215.708,81.318,94.208,352.240,-39.974,415.186,-89.780,-25.600,115.940
1030,39103.304000,228.484,74.290,97.280,352.268,-38.103,417.215,-94.780,12.400,120.940
1031,39103.359000,233.397,62.243,91.136,347.515,-39.959,419.158,-187.780,72.400,125.940
1032,39103.365000,220.622,45.176,100.352,347.365,-50.952,418.924,-230.780,100.400,159.940
1033,39103.405000,217.674,43.169,97.280,345.369,-58.345,416.774,-169.780,40.400,134.940
1034,39103.445000,214.726,34.133,97.280,345.337,-61.035,419.701,-70.780,39.400,143.940
1035,39103.483000,232.415,33.129,100.352,340.602,-61.137,417.702,-34.780,41.400,101.940
1036,39103.529000,246.173,33.129,100.352,333.829,-72.198,418.451,-34.780,62.400,71.940
1037,39103.564000,242.242,13.051,108.544,339.509,-72.104,419.457,-139.780,87.400,89.940
1038,39103.584000,239.294,9.035,111.616,335.625,-79.463,420.289,-173.780,85.400,76.940
1039,39103.623000,235.363,11.043,112.640,335.636,-78.567,419.313,-141.780,83.400,67.940
1040,39103.663000,232.415,15.059,114.688,332.783,-79.540,418.294,-104.780,65.400,50.940
1041,39103.702000,226.518,16.063,114.688,329.792,-90.590,417.059,-149.780,25.400,-6.060
1042,39103.744000,219.639,17.067,108.544,332.664,-87.863,414.138,-200.780,-19.600,-27.060
1043,39103.783000,221.605,15.059,108.544,336.396,-91.517,412.076,-269.780,-43.600,-29.060
1044,39103.823000,223.570,11.043,107.520,336.283,-99.762,411.901,-353.780,-71.600,-19.060
1045,39103.843000,224.553,10.039,103.424,333.369,-104.536,403.838,-383.780,-101.600,-32.060
1046,39103.883000,223.570,4.016,108.544,340.873,-109.056,401.763,-362.780,-102.600,-16.060
1047,39103.930000,231.432,5.020,108.544,339.845,-114.643,397.664,-336.780,-111.600,-27.060
1048,39103.964000,230.449,6.024,106.496,344.392,-127.524,391.429,-320.780,-123.600,-38.060
1049,39104.4000,228.484,6.024,100.352,351.004,-127.573,384.475,-340.780,-155.600,-62.060
