Sample, Time, ACCX, ACCY, ACCZ, MAGX, MAGY, MAGZ, GYRX, GYRY, GYRZ
0,43594.847000,251.058,20.621,-17.930,448.794,255.658,-80.063,-0.040,-9.490,-7.020
1,43594.888000,251.058,21.627,-15.938,447.798,252.736,-80.130,-0.040,-23.490,-9.020
2,43594.927000,253.035,20.621,-18.926,451.692,255.643,-82.019,-0.040,-26.490,-10.020
3,43594.961000,253.035,20.621,-19.922,447.815,254.656,-81.068,1.960,-28.490,-17.020
4,43594.982000,253.035,21.627,-20.918,447.850,258.518,-81.963,11.960,-29.490,-27.020
5,43595.24000,252.046,22.633,-20.918,450.753,258.546,-81.956,9.960,-36.490,-29.020
6,43595.64000,251.058,21.627,-20.918,451.739,260.497,-81.911,16.960,-45.490,-26.020
7,43595.106000,250.069,24.644,-22.911,449.797,260.414,-84.859,19.960,-61.490,-28.020
8,43595.147000,251.058,26.656,-24.903,449.722,252.647,-85.032,10.960,-56.490,-19.020
9,43595.190000,253.035,25.650,-27.891,446.886,259.414,-84.887,4.960,-47.490,-35.020
10,43595.228000,251.058,24.644,-25.899,446.891,260.342,-86.828,-8.040,-34.490,-32.020
11,43595.268000,252.046,26.656,-26.895,443.991,260.335,-85.854,-23.040,-22.490,-35.020
12,43595.306000,251.058,24.644,-25.899,440.069,255.400,-87.933,-29.040,-13.490,-40.020
13,43595.326000,251.058,25.650,-21.914,441.983,253.456,-88.952,-20.040,-34.490,-42.020
14,43595.367000,253.035,27.662,-27.891,443.974,259.300,-88.819,-5.040,-49.490,-42.020
15,43595.407000,252.046,31.686,-23.907,442.087,264.135,-88.715,-3.040,-55.490,-40.020
16,43595.446000,250.069,27.662,-23.907,442.070,263.100,-91.680,4.960,-99.490,-45.020
17,43595.486000,251.058,27.662,-28.887,441.059,259.142,-94.712,28.960,-135.490,-49.020
18,43595.528000,257.977,27.662,-24.903,436.259,263.863,-98.540,44.960,-106.490,-48.020
19,43595.568000,248.093,30.680,-30.879,439.115,259.922,-102.544,99.960,-112.490,-62.020
20,43595.608000,249.081,26.656,-36.856,439.160,264.754,-103.418,108.960,-125.490,-51.020
21,43595.628000,250.069,42.750,-43.829,436.289,268.545,-106.281,100.960,-31.490,-30.020
22,43595.668000,247.104,34.703,-41.837,437.216,264.649,-107.347,13.960,9.510,-19.020
23,43595.709000,246.116,34.703,-33.868,436.244,263.712,-105.408,-8.040,34.510,-6.020
24,43595.749000,248.093,33.697,-28.887,436.333,272.493,-103.252,-44.040,47.510,20.980
25,43595.789000,249.081,28.668,-29.883,438.237,269.578,-104.293,-43.040,17.510,22.980
26,43595.829000,252.046,26.656,-33.868,438.251,270.592,-102.309,-26.040,-13.490,10.980
27,43595.869000,250.069,33.697,-34.864,437.284,270.582,-102.312,-37.040,-16.490,7.980
28,43595.909000,251.058,29.674,-27.891,437.251,267.627,-104.339,-10.040,-27.490,5.980
29,43595.928000,250.069,29.674,-31.875,439.203,269.566,-105.272,23.960,-60.490,2.980
30,43595.969000,248.093,30.680,-34.864,436.315,271.436,-107.198,46.960,-78.490,2.980
31,43596.9000,251.058,32.692,-41.837,439.165,266.567,-109.261,45.960,-54.490,6.980
32,43596.49000,250.069,28.668,-39.844,435.303,267.478,-110.230,24.960,-16.490,7.980
33,43596.89000,249.081,31.686,-37.852,439.099,259.771,-109.412,7.960,28.510,4.980
34,43596.129000,250.069,32.692,-36.856,435.293,266.507,-110.251,7.960,41.510,12.980
35,43596.163000,250.069,31.686,-35.860,436.270,266.603,-106.325,-0.040,37.510,25.980
36,43596.203000,251.058,29.674,-33.868,436.239,263.669,-107.370,-5.040,27.510,26.980
37,43596.243000,251.058,28.668,-32.872,440.087,260.859,-104.483,-13.040,25.510,18.980
38,43596.263000,251.058,27.662,-30.879,436.258,264.726,-103.424,-8.040,34.510,12.980
39,43596.303000,249.081,28.668,-31.875,434.283,260.802,-104.496,-2.040,-1.490,3.980
40,43596.349000,249.081,28.668,-30.879,436.215,260.800,-105.473,7.960,-37.490,-1.020
41,43596.389000,249.081,29.674,-33.868,438.188,264.702,-105.382,15.960,-57.490,-5.020
42,43596.429000,250.069,28.668,-35.860,440.065,259.758,-110.391,19.960,-61.490,-8.020
43,43596.479000,250.069,31.686,-40.840,435.246,261.653,-110.359,4.960,-34.490,-9.020
44,43596.511000,250.069,28.668,-36.856,437.235,266.591,-107.304,-8.040,-0.490,-12.020
45,43596.545000,251.058,28.668,-34.864,440.116,264.656,-108.321,-11.040,2.510,-18.020
46,43596.570000,252.046,29.674,-34.864,435.286,265.558,-109.292,-12.040,1.510,-21.020
47,43596.610000,249.081,29.674,-31.875,436.289,269.429,-110.185,-2.040,-10.490,-27.020
48,43596.650000,247.104,32.692,-33.868,436.298,270.400,-110.163,16.960,-26.490,-35.020
49,43596.684000,252.046,33.697,-37.852,433.396,270.372,-110.170,30.960,-31.490,-29.020
50,43596.725000,251.058,39.733,-35.860,433.366,267.438,-111.216,34.960,-22.490,-13.020
51,43596.766000,249.081,37.721,-32.872,437.261,270.367,-112.123,38.960,-54.490,1.980
52,43596.808000,243.151,26.656,-47.813,435.294,267.392,-114.154,35.960,-76.490,4.980
53,43596.848000,249.081,34.703,-44.825,435.263,264.458,-115.200,-13.040,2.510,15.980
54,43596.868000,250.069,29.674,-44.825,435.268,264.501,-113.238,-28.040,55.510,19.980
55,43596.904000,252.046,34.703,-32.872,435.354,272.376,-108.160,-43.040,97.510,18.980
56,43596.944000,249.081,33.697,-34.864,440.161,269.489,-109.194,-29.040,70.510,28.980
57,43596.984000,249.081,27.662,-30.879,439.156,265.596,-109.283,-29.040,45.510,32.980
58,43597.24000,249.081,30.680,-30.879,435.317,268.492,-108.246,-22.040,4.510,20.980
59,43597.66000,249.081,29.674,-32.872,434.279,261.644,-110.362,3.960,-57.490,4.980
60,43597.106000,250.069,28.668,-31.875,438.233,270.419,-110.158,22.960,-90.490,-0.020
61,43597.147000,248.093,31.686,-37.852,438.210,268.434,-112.164,40.960,-89.490,0.980
62,43597.187000,250.069,32.692,-42.833,438.128,260.603,-115.280,31.960,-71.490,2.980
63,43597.205000,251.058,29.674,-41.837,436.188,260.541,-117.247,-6.040,-21.490,3.980
64,43597.249000,249.081,31.686,-38.848,434.258,260.565,-115.289,-25.040,33.510,-0.020
65,43597.289000,249.081,31.686,-38.848,433.318,262.584,-111.323,-42.040,51.510,-4.020
66,43597.328000,247.104,30.680,-33.868,436.268,267.466,-111.209,-27.040,29.510,-3.020
67,43597.378000,250.069,30.680,-32.872,436.270,267.488,-110.228,-6.040,5.510,-4.020
68,43597.405000,247.104,28.668,-36.856,435.251,262.581,-112.300,11.960,-34.490,-9.020
69,43597.448000,248.093,30.680,-34.864,434.340,268.397,-112.173,15.960,-51.490,-9.020
70,43597.487000,248.093,32.692,-36.856,434.333,268.332,-115.116,23.960,-70.490,-7.020
71,43597.506000,248.093,32.692,-39.844,432.368,265.379,-116.167,18.960,-61.490,-3.020
72,43597.546000,250.069,30.680,-42.833,434.317,267.296,-118.081,0.960,-30.490,-2.020
73,43597.590000,250.069,32.692,-42.833,434.275,262.485,-116.227,-12.040,-4.490,-2.020
74,43597.627000,250.069,33.697,-40.840,435.256,264.393,-118.144,-26.040,26.510,3.980
75,43597.670000,247.104,31.686,-39.844,433.340,266.316,-118.105,-26.040,33.510,8.980
76,43597.706000,248.093,32.692,-38.848,431.379,262.522,-113.290,-22.040,28.510,11.980
77,43597.755000,248.093,30.680,-34.864,432.366,265.357,-117.148,-10.040,-0.490,15.980
78,43597.792000,250.069,30.680,-35.860,436.233,264.489,-114.217,2.960,-33.490,11.980
79,43597.832000,248.093,31.686,-37.852,434.291,264.405,-117.165,16.960,-65.490,6.980
80,43597.856000,247.104,30.680,-38.848,427.515,264.296,-119.143,19.960,-83.490,6.980
81,43597.891000,249.081,31.686,-43.829,434.320,269.087,-124.906,25.960,-80.490,8.980
82,43597.926000,250.069,29.674,-43.829,433.308,263.360,-120.132,18.960,-55.490,7.980
83,43597.969000,249.081,31.686,-44.825,430.375,260.398,-121.185,-4.040,-9.490,1.980
84,43598.8000,248.093,33.697,-43.829,434.322,268.224,-120.022,-18.040,26.510,4.980
85,43598.50000,249.081,30.680,-42.833,434.278,264.276,-123.052,-23.040,51.510,9.980
86,43598.90000,249.081,31.686,-40.840,434.315,267.275,-119.062,-21.040,53.510,16.980
87,43598.130000,247.104,29.674,-36.856,436.276,270.185,-119.974,-8.040,18.510,16.980
88,43598.150000,248.093,26.656,-34.864,436.172,259.505,-120.212,8.960,-27.490,8.980
89,43598.190000,248.093,31.686,-38.848,431.410,267.225,-120.050,28.960,-67.490,3.980
90,43598.230000,249.081,31.686,-44.825,435.278,267.241,-121.022,45.960,-82.490,7.980
91,43598.270000,249.081,31.686,-46.817,435.217,261.373,-123.114,37.960,-61.490,6.980
92,43598.309000,249.081,30.680,-46.817,435.227,263.228,-126.996,10.960,-17.490,3.980
93,43598.345000,249.081,31.686,-45.821,433.256,259.347,-126.105,-18.040,26.510,8.980
94,43598.385000,250.069,30.680,-44.825,435.217,261.373,-123.114,-33.040,56.510,16.980
95,43598.428000,248.093,29.674,-41.837,434.303,266.282,-120.065,-28.040,55.510,19.980
96,43598.468000,247.104,27.662,-38.848,435.264,265.342,-119.103,-22.040,39.510,19.980
97,43598.488000,248.093,28.668,-39.844,437.142,259.536,-119.228,-9.040,6.510,13.980
98,43598.525000,245.127,27.662,-38.848,436.177,260.433,-122.152,6.960,-32.490,8.980
99,43598.565000,246.116,27.662,-40.840,433.270,259.477,-120.218,24.960,-58.490,7.980
100,43598.612000,250.069,29.674,-42.833,435.269,266.270,-121.044,18.960,-55.490,9.980
101,43598.655000,249.081,28.668,-44.825,434.257,262.313,-124.076,3.960,-35.490,6.980
102,43598.690000,250.069,30.680,-44.825,434.202,256.509,-123.224,-7.040,-9.490,3.980
103,43598.725000,249.081,29.674,-45.821,432.272,257.418,-125.169,-17.040,23.510,9.980
104,43598.765000,249.081,26.656,-42.833,432.329,263.243,-125.040,-23.040,40.510,10.980
105,43598.805000,249.081,28.668,-41.837,435.236,263.314,-123.071,-18.040,39.510,6.980
106,43598.825000,247.104,27.662,-39.844,435.231,262.387,-121.130,-14.040,27.510,5.980
107,43598.870000,248.093,27.662,-36.856,437.187,264.369,-120.102,3.960,-8.490,-3.020
108,43598.911000,247.104,27.662,-36.856,432.319,261.388,-121.159,15.960,-38.490,-10.020
109,43598.953000,249.081,28.668,-39.844,433.247,257.492,-122.224,24.960,-52.490,-12.020
110,43598.989000,250.069,30.680,-41.837,437.181,265.189,-126.948,18.960,-44.490,-12.020
111,43599.39000,249.081,27.662,-45.821,435.236,263.314,-123.071,2.960,-14.490,-9.020
112,43599.78000,248.093,30.680,-46.817,435.231,263.271,-125.033,-8.040,10.510,-3.020
113,43599.108000,247.104,30.680,-43.829,436.144,257.477,-124.179,-23.040,28.510,7.980
114,43599.126000,248.093,29.674,-43.829,433.313,264.288,-122.073,-25.040,42.510,10.980
115,43599.170000,247.104,29.674,-42.833,440.113,267.267,-121.992,-21.040,38.510,7.980
116,43599.210000,249.081,27.662,-39.844,439.122,264.388,-120.097,-11.040,18.510,2.980
117,43599.250000,246.116,27.662,-40.840,437.135,259.471,-122.172,-0.040,-9.490,-6.020
118,43599.290000,249.081,28.668,-39.844,431.349,261.357,-122.142,10.960,-46.490,-11.020
119,43599.329000,248.093,29.674,-40.840,433.256,259.347,-126.105,22.960,-75.490,-13.020
120,43599.370000,248.093,29.674,-42.833,433.278,261.311,-125.081,32.960,-97.490,-11.020
121,43599.410000,247.104,29.674,-43.829,429.451,266.969,-130.847,26.960,-95.490,-4.020
122,43599.450000,248.093,31.686,-47.813,433.238,258.290,-130.051,15.960,-56.490,4.980
123,43599.470000,248.093,31.686,-48.809,431.329,261.162,-130.972,-7.040,-15.490,13.980
124,43599.510000,249.081,29.674,-46.817,434.297,267.102,-126.912,-23.040,41.510,23.980
125,43599.551000,247.104,30.680,-43.829,434.248,262.226,-128.001,-27.040,59.510,25.980
126,43599.590000,247.104,27.662,-40.840,434.276,265.139,-127.936,-21.040,54.510,19.980
127,43599.630000,247.104,26.656,-41.837,434.250,262.248,-127.019,-8.040,17.510,9.980
128,43599.671000,248.093,28.668,-41.837,432.308,261.280,-126.064,6.960,-16.490,-4.020
129,43599.709000,249.081,29.674,-40.840,431.369,264.183,-126.002,18.960,-44.490,-11.020
130,43599.756000,249.081,28.668,-43.829,432.341,265.120,-127.940,26.960,-61.490,-13.020
131,43599.771000,248.093,30.680,-46.817,433.250,259.283,-129.049,34.960,-61.490,-7.020
132,43599.813000,249.081,30.680,-45.821,432.327,264.106,-129.924,15.960,-35.490,0.980
133,43599.850000,247.104,29.674,-50.802,434.192,257.286,-132.033,-12.040,7.510,5.980
134,43599.889000,248.093,31.686,-47.813,431.306,259.178,-132.978,-19.040,37.510,16.980
135,43599.929000,247.104,30.680,-44.825,434.205,258.300,-130.049,-28.040,64.510,26.980
136,43599.969000,249.081,27.662,-43.829,434.252,262.269,-126.038,-25.040,62.510,23.980
137,43600.9000,248.093,29.674,-39.844,435.173,257.425,-126.144,-16.040,42.510,14.980
138,43600.49000,249.081,27.662,-39.844,437.166,263.290,-125.029,-0.040,2.510,8.980
139,43600.89000,249.081,27.662,-38.848,435.252,265.235,-124.009,14.960,-34.490,1.980
140,43600.109000,249.081,28.668,-40.840,436.145,258.362,-128.082,25.960,-70.490,-4.020
141,43600.149000,248.093,27.662,-44.825,431.308,259.199,-131.997,26.960,-75.490,-4.020
142,43600.189000,247.104,28.668,-49.805,433.266,261.203,-129.987,19.960,-43.490,-4.020
143,43600.229000,249.081,29.674,-49.805,438.026,253.461,-131.129,-9.040,1.510,-3.020
144,43600.269000,250.069,29.674,-46.817,437.087,256.365,-131.067,-32.040,53.510,9.980
145,43600.318000,248.093,28.668,-42.833,433.276,262.174,-129.965,-40.040,72.510,14.980
146,43600.354000,250.069,28.668,-41.837,436.201,263.302,-124.050,-33.040,65.510,11.980
147,43600.394000,246.116,27.662,-40.840,435.269,267.155,-124.947,-18.040,36.510,4.980
148,43600.420000,248.093,27.662,-37.852,434.188,255.495,-125.208,3.960,-23.490,-5.020
149,43600.451000,247.104,27.662,-40.840,428.424,260.228,-128.057,18.960,-59.490,-11.020
150,43600.489000,249.081,28.668,-43.829,433.294,263.231,-126.019,30.960,-84.490,-18.020
151,43600.529000,249.081,30.680,-50.802,433.271,262.131,-131.927,23.960,-69.490,-17.020
152,43600.572000,248.093,31.686,-48.809,432.327,264.106,-129.924,5.960,-27.490,-12.020
153,43600.613000,247.104,33.697,-48.809,431.289,257.257,-132.040,-20.040,33.510,1.980
154,43600.653000,248.093,31.686,-45.821,433.257,260.232,-130.008,-31.040,64.510,14.980
155,43600.693000,250.069,30.680,-42.833,435.225,263.207,-127.977,-38.040,88.510,23.980
156,43600.733000,251.058,26.656,-42.833,433.329,266.208,-123.011,-35.040,88.510,22.980
157,43600.753000,249.081,26.656,-39.844,434.228,258.515,-120.238,-27.040,105.510,15.980
158,43600.793000,246.116,31.686,-42.833,436.210,263.389,-120.125,-26.040,118.510,7.980
159,43600.834000,251.058,28.668,-43.829,435.219,260.510,-118.230,-33.040,149.510,3.980
160,43600.874000,247.104,27.662,-33.868,433.333,264.482,-113.243,-37.040,117.510,-15.020
161,43600.914000,246.116,20.621,-9.961,436.254,267.337,-117.096,20.960,-87.490,-40.020
162,43600.954000,249.081,40.739,-5.977,435.210,260.423,-122.155,114.960,-421.490,-46.020
163,43600.993000,319.259,73.933,5.977,429.357,258.145,-134.966,266.960,-442.490,-81.020
164,43601.31000,333.097,62.868,-6.973,430.364,265.576,-150.490,-74.040,-896.490,-8.020
165,43601.73000,310.363,1.509,-268.949,422.545,263.861,-180.945,282.960,-1242.490,-40.020
166,43601.91000,269.838,-87.010,-289.868,413.708,257.239,-213.472,1438.960,-1711.490,118.980
167,43601.131000,179.892,-4.527,-165.354,396.088,244.535,-253.998,563.960,-1793.490,325.980
168,43601.171000,95.876,4.527,-39.844,382.475,241.102,-271.755,-795.040,-1229.490,225.980
169,43601.214000,5.931,71.921,82.677,375.870,256.721,-264.558,-765.040,-124.490,89.980
170,43601.248000,72.154,101.092,-282.895,384.856,277.970,-228.763,-2398.040,986.510,-276.020
171,43601.288000,319.259,45.768,12.949,387.734,274.244,-222.956,205.960,414.510,-244.020
172,43601.329000,454.672,-0.503,-47.813,385.786,271.464,-216.157,656.960,554.510,-158.020
173,43601.373000,316.293,60.857,3.984,390.644,272.590,-211.219,26.960,278.510,-30.020
174,43601.394000,285.652,99.081,-60.763,393.593,275.703,-203.298,-222.040,337.510,156.980
175,43601.439000,264.896,118.193,-108.576,402.397,282.002,-185.488,-905.040,421.510,204.980
176,43601.474000,185.822,-38.727,-184.280,408.303,287.430,-161.819,-1454.040,241.510,409.980
177,43601.510000,197.683,-170.499,-492.078,409.299,286.835,-145.159,-1570.040,-356.490,461.980
178,43601.555000,186.811,-166.475,-426.335,401.633,294.505,-145.985,-2624.040,-1971.490,945.980
179,43601.641000,157.158,-206.711,-246.039,391.884,290.182,-161.792,-2691.040,-3402.490,1173.980
180,43601.658000,170.008,-161.446,-171.331,380.146,281.785,-185.540,-1701.040,-3287.490,1481.980
181,43601.684000,147.274,-224.817,-27.891,375.066,262.687,-213.433,-409.040,-2114.490,1815.980
182,43601.714000,109.714,-99.081,246.039,396.749,207.263,-228.346,1377.960,-0.490,2062.980
183,43601.740000,271.815,114.169,29.883,431.317,171.658,-185.915,32.960,2567.510,1404.980
184,43601.808000,512.988,281.147,-418.366,452.817,178.338,-112.172,-3075.040,2343.510,504.980
185,43601.823000,368.680,9.556,21.914,453.965,187.128,-65.883,-1110.040,1454.510,-191.020
186,43601.853000,289.606,49.792,0.000,460.684,177.874,-48.422,952.960,1447.510,91.980
187,43601.890000,364.726,48.786,-18.926,460.684,173.472,-27.926,462.960,889.510,193.980
188,43601.934000,294.548,40.739,0.996,462.606,170.729,-21.118,-14.040,204.510,139.980
189,43601.993000,233.266,-61.862,-72.716,467.471,173.689,-21.042,102.960,-65.490,9.980
190,43602.15000,248.093,-12.574,-105.588,465.577,178.460,-23.882,222.960,51.510,-139.020
191,43602.35000,247.104,21.627,-80.685,459.715,171.694,-20.122,10.960,187.510,-171.020
192,43602.75000,239.197,-22.633,-49.805,460.755,178.564,-17.026,-96.040,87.510,-125.020
193,43602.109000,236.232,-12.574,-42.833,460.794,183.332,-20.842,-90.040,-251.490,-170.020
194,43602.153000,256.988,22.633,-21.914,454.995,185.972,-30.603,2.960,-898.490,-83.020
195,43602.193000,363.737,73.933,4.981,455.921,189.110,-64.854,-95.040,-1412.490,17.980
196,43602.238000,512.988,121.210,104.591,449.080,190.145,-103.091,-364.040,-2110.490,-41.020
197,43602.271000,407.228,-118.193,-81.681,431.518,187.667,-163.984,-754.040,-3071.490,-143.020
198,43602.311000,266.873,50.798,-54.786,408.204,190.051,-221.840,2073.960,-1727.490,-614.020
199,43602.352000,120.587,-9.556,64.747,396.625,197.274,-241.317,957.960,-452.490,-1132.020
200,43602.372000,58.317,6.538,98.615,397.648,201.339,-233.379,1107.960,1621.510,-1676.020
201,43602.414000,107.737,-62.868,-1.992,409.612,231.268,-201.309,1219.960,2887.510,-1900.020
202,43602.454000,210.533,-109.139,-97.619,418.527,244.794,-163.724,2405.960,3863.510,-2128.020
203,43602.494000,264.896,-236.888,-240.062,424.574,263.901,-135.829,4226.960,3837.510,-2120.020
204,43602.534000,282.687,-191.623,-326.724,433.317,267.848,-136.704,4828.960,2972.510,-1401.020
205,43602.574000,198.672,-35.709,-492.078,435.101,258.503,-165.347,4296.960,627.510,-830.020
206,43602.614000,248.093,-59.851,91.642,436.868,243.701,-177.439,1304.960,269.510,441.980
207,43602.651000,263.907,16.597,-61.759,442.527,229.151,-179.712,97.960,7.510,507.980
208,43602.691000,295.537,83.992,-43.829,442.440,220.392,-180.887,381.960,29.510,301.980
209,43602.711000,250.069,32.692,-40.840,449.002,199.962,-186.230,563.960,215.510,408.980
210,43602.751000,253.035,18.609,-37.852,457.634,191.395,-182.479,792.960,344.510,363.980
211,43602.791000,260.942,5.532,-26.895,459.453,178.857,-179.812,410.960,237.510,205.980
212,43602.831000,255.012,-1.509,-19.922,458.452,175.892,-181.841,292.960,48.510,158.980
213,43602.879000,255.012,10.562,-25.899,456.456,170.005,-183.937,174.960,-158.490,187.980
214,43602.914000,251.058,-1.509,-32.872,457.391,167.059,-185.962,170.960,-167.490,205.980
215,43602.951000,243.151,0.503,-30.879,462.137,159.188,-192.991,195.960,-81.490,214.980
216,43602.991000,246.116,9.556,-42.833,461.101,152.361,-194.126,324.960,-51.490,211.980
217,43603.11000,248.093,-2.515,-33.868,462.863,135.746,-200.375,496.960,-49.490,180.980
218,43603.51000,258.965,-17.603,-43.829,461.924,139.533,-204.215,486.960,-73.490,127.980
219,43603.94000,256.000,-14.585,-38.848,460.883,131.779,-203.409,374.960,3.510,32.980
220,43603.134000,255.012,-2.515,-34.864,464.735,130.759,-207.346,406.960,37.510,2.980
221,43603.175000,258.965,-44.762,-46.817,464.624,120.015,-210.527,687.960,-31.490,1.980
222,43603.215000,242.162,-0.503,-36.856,465.572,117.198,-206.665,226.960,102.510,41.980
223,43603.255000,255.012,-16.597,-37.852,467.554,122.071,-206.552,191.960,127.510,10.980
224,43603.296000,258.965,-31.686,-31.875,468.521,121.196,-202.647,142.960,185.510,-37.020
225,43603.337000,247.104,-17.603,16.934,469.481,119.372,-197.782,274.960,136.510,-73.020
226,43603.350000,267.861,-17.603,15.938,469.459,119.156,-207.594,361.960,-475.490,-162.020
227,43603.394000,273.792,14.585,-30.879,459.755,119.666,-224.274,447.960,-668.490,-275.020
228,43603.434000,290.595,103.104,-61.759,449.993,114.329,-242.065,2687.960,-282.490,-916.020
229,43603.474000,267.861,-15.591,-62.755,444.049,104.132,-261.917,2936.960,-300.490,-857.020
230,43603.514000,256.000,-4.527,-98.615,441.965,91.233,-273.976,2020.960,-314.490,-561.020
231,43603.550000,187.799,23.639,-85.665,432.351,99.640,-284.597,-987.040,-647.490,-196.020
232,43603.593000,159.135,-28.668,-65.743,425.692,112.109,-288.257,-819.040,-424.490,-31.020
233,43603.633000,198.672,-22.633,-1.992,429.579,114.066,-289.186,-422.040,207.510,492.980
234,43603.653000,234.255,74.939,-211.175,431.437,104.549,-281.548,-442.040,147.510,403.980
235,43603.690000,259.954,19.615,-93.634,443.971,98.976,-275.761,15.960,380.510,501.980
236,43603.733000,357.807,-57.839,-16.934,455.466,84.785,-264.284,163.960,602.510,589.980
237,43603.778000,256.988,-32.692,-30.879,463.046,65.724,-251.942,-138.040,376.510,245.980
238,43603.819000,254.023,-19.615,-35.860,467.066,79.526,-243.782,-162.040,382.510,146.980
239,43603.853000,260.942,-12.574,-27.891,469.977,78.756,-235.948,-177.040,343.510,54.980
240,43603.898000,256.988,-10.562,-33.868,472.921,81.826,-229.989,-208.040,327.510,-6.020
241,43603.930000,255.012,-10.562,-34.864,477.797,84.009,-221.105,-517.040,302.510,-70.020
242,43603.970000,251.058,-13.580,-24.903,479.792,89.012,-215.106,-682.040,258.510,-164.020
243,43603.990000,251.058,-4.527,-20.918,481.912,105.773,-203.942,-836.040,282.510,-207.020
244,43604.30000,253.035,-13.580,-7.969,483.997,118.672,-191.883,-799.040,279.510,-186.020
245,43604.70000,238.208,11.568,-7.969,484.117,130.387,-188.681,-575.040,174.510,-186.020
246,43604.110000,247.104,-5.532,30.879,481.286,135.450,-177.787,-591.040,-89.490,-134.020
247,43604.161000,256.988,16.597,16.934,479.353,138.085,-189.501,-520.040,-431.490,-134.020
248,43604.190000,257.977,44.762,4.981,469.807,153.309,-198.990,-1295.040,-948.490,-117.020
249,43604.236000,315.305,59.851,74.708,464.131,169.455,-212.372,-1847.040,-1249.490,0.980
250,43604.278000,385.483,-78.963,35.860,454.636,189.576,-219.791,-3123.040,-1435.490,437.980
251,43604.298000,237.220,-129.257,-170.335,445.220,213.969,-209.463,-4612.040,-1599.490,981.980
252,43604.338000,156.170,-103.104,-205.198,436.722,233.496,-200.221,-3325.040,-1461.490,882.980
253,43604.376000,31.629,24.644,-47.813,438.645,232.522,-201.220,-1387.040,-654.490,886.980
254,43604.418000,67.212,222.806,46.817,448.339,231.041,-184.561,-989.040,379.510,795.980
255,43604.458000,339.027,231.859,-79.689,452.298,235.459,-161.899,-455.040,572.510,214.980
256,43604.493000,388.448,205.705,-71.720,448.447,236.478,-157.962,132.960,141.510,-354.020
257,43604.533000,285.652,14.585,-198.226,447.418,234.117,-176.649,1193.960,-246.490,-95.020
258,43604.576000,202.625,-220.794,-492.078,432.929,240.362,-195.174,-722.040,-1416.490,93.980
259,43604.618000,122.564,-197.658,-351.626,406.899,255.059,-221.380,-2514.040,-2739.490,606.980
260,43604.636000,43.490,-210.735,-149.416,390.517,264.327,-233.958,-2626.040,-2951.490,949.980
261,43604.717000,65.236,-164.464,-68.732,372.987,256.002,-251.831,-1268.040,-2230.490,1345.980
262,43604.730000,76.108,-171.505,-107.580,365.110,244.039,-262.901,-685.040,-1477.490,1634.980
263,43604.755000,177.915,-141.328,67.735,380.294,213.187,-260.611,436.960,489.510,1978.980
264,43604.800000,250.069,-10.562,78.693,417.709,173.555,-226.108,737.960,2071.510,1720.980
265,43604.834000,395.367,170.499,-304.809,451.557,157.919,-157.738,-2292.040,2647.510,767.980
266,43604.874000,442.811,103.104,-0.996,460.511,169.179,-90.784,-1495.040,2423.510,180.980
267,43604.914000,385.483,-7.544,16.934,464.428,167.901,-62.365,-686.040,1660.510,-146.020
268,43604.936000,335.073,9.556,44.825,467.388,167.605,-32.945,561.960,1351.510,240.980
269,43604.978000,322.224,112.157,-53.790,470.310,166.058,-16.302,626.960,871.510,114.980
270,43605.18000,257.977,-8.550,-45.821,472.239,163.380,-6.551,-301.040,272.510,233.980
271,43605.56000,237.220,-56.833,-75.704,471.247,159.617,-0.753,-248.040,170.510,14.980
272,43605.94000,247.104,-16.597,-75.704,468.377,160.775,9.073,-199.040,252.510,-168.020
273,43605.134000,247.104,-1.509,-43.829,465.490,161.782,12.032,-269.040,174.510,-153.020
274,43605.174000,245.127,-14.585,-27.891,470.415,170.589,13.218,-361.040,-206.490,-138.020
275,43605.211000,255.012,13.580,-15.938,462.702,175.174,4.478,-421.040,-628.490,-159.020
276,43605.270000,308.386,83.992,35.860,467.492,174.768,-16.115,-683.040,-1304.490,-160.020
277,43605.292000,446.764,-10.562,109.572,458.679,172.785,-58.346,-368.040,-1978.490,-25.020
278,43605.314000,389.436,-36.715,-95.626,451.751,169.461,-118.255,426.960,-2618.490,-117.020
279,43605.354000,247.104,-66.892,36.856,433.338,177.783,-173.026,1121.960,-1930.490,-396.020
280,43605.394000,95.876,75.945,151.409,429.534,188.058,-189.477,804.960,-521.490,-1001.020
281,43605.440000,96.865,64.880,117.541,427.798,206.680,-180.242,976.960,1759.510,-1523.020
282,43605.478000,160.124,25.650,-24.903,432.912,226.985,-141.534,1262.960,3060.510,-1797.020
283,43605.518000,198.672,-162.452,-220.140,438.138,258.941,-102.568,3383.960,3790.510,-1789.020
284,43605.558000,249.081,-215.764,-309.790,442.133,271.622,-101.298,5593.960,3295.510,-1784.020
285,43605.578000,354.842,-322.389,-396.451,437.145,261.327,-126.053,5052.960,1876.510,-1055.020
286,43605.618000,293.560,-79.969,222.132,436.941,246.160,-153.849,3883.960,157.510,-8.020
287,43605.654000,310.363,132.275,-34.864,447.518,237.720,-145.188,-1244.040,172.510,649.980
288,43605.694000,285.652,76.951,12.949,451.379,233.270,-128.607,-762.040,219.510,364.980
289,43605.734000,243.151,8.550,-16.934,459.080,228.577,-124.772,798.960,410.510,305.980
290,43605.776000,256.000,31.686,-2.988,462.827,215.109,-121.141,382.960,304.510,418.980
291,43605.815000,255.012,9.556,-6.973,468.462,198.575,-125.419,625.960,220.510,276.980
292,43605.858000,260.942,8.550,-1.992,471.355,197.632,-125.433,265.960,148.510,182.980
293,43605.898000,250.069,-28.668,10.957,469.335,187.991,-121.729,233.960,26.510,133.980
294,43605.918000,259.954,3.521,-20.918,467.342,183.895,-130.650,357.960,-107.490,129.980
295,43605.958000,253.035,-4.527,-16.934,474.126,185.838,-133.535,229.960,-93.490,131.980
296,43605.996000,247.104,-23.639,-4.981,475.047,180.993,-133.640,402.960,-62.490,142.980
297,43606.38000,256.000,8.550,0.996,470.109,172.057,-140.714,480.960,-74.490,77.980
298,43606.77000,263.907,14.585,0.996,470.044,167.915,-152.574,599.960,-315.490,202.980
299,43606.121000,251.058,2.515,-27.891,473.800,158.934,-165.514,591.960,-349.490,177.980
300,43606.161000,256.988,-10.562,-37.852,469.888,155.854,-171.474,516.960,-252.490,86.980
301,43606.195000,256.000,4.527,-40.840,468.865,151.789,-179.412,428.960,-182.490,47.980
302,43606.218000,254.023,-0.503,-31.875,468.741,140.031,-184.577,271.960,-129.490,68.980
303,43606.265000,249.081,-19.615,-44.825,463.904,140.868,-188.491,453.960,-86.490,40.980
304,43606.295000,251.058,-27.662,-35.860,465.790,136.896,-193.478,462.960,-52.490,-1.020
305,43606.335000,256.988,-1.509,-50.802,465.757,133.055,-191.602,242.960,12.510,-55.020
306,43606.375000,253.035,-25.650,-31.875,469.615,132.101,-192.596,263.960,127.510,-124.020
307,43606.413000,249.081,-3.521,-5.977,467.706,134.973,-193.517,364.960,146.510,-136.020
308,43606.459000,248.093,-28.668,39.844,462.819,130.050,-194.617,384.960,-220.490,-178.020
309,43606.499000,282.687,-14.585,0.000,454.143,137.300,-214.088,935.960,-601.490,-434.020
310,43606.544000,320.247,80.974,-43.829,447.300,134.797,-236.713,1368.960,-573.490,-836.020
311,43606.564000,254.023,3.521,-65.743,434.702,137.112,-258.263,2044.960,-499.490,-885.020
312,43606.599000,236.232,-125.234,-111.564,427.631,110.401,-278.484,2970.960,-219.490,-633.020
313,43606.639000,177.915,-2.515,-48.809,430.313,89.826,-288.741,1788.960,-211.490,-86.020
314,43606.673000,190.764,49.792,-92.638,424.473,87.677,-295.666,-497.040,-273.490,58.980
315,43606.720000,174.950,-2.515,-135.471,424.626,102.347,-290.437,-1085.040,24.510,521.980
316,43606.754000,198.672,84.998,-102.599,425.677,109.325,-282.434,-1094.040,-52.490,432.980
317,43606.799000,210.533,153.399,-104.591,430.467,104.518,-282.531,-773.040,70.510,212.980
318,43606.840000,343.969,-144.346,10.957,434.249,94.027,-275.891,247.960,388.510,628.980
319,43606.859000,271.815,43.756,-61.759,443.812,80.724,-267.340,-22.040,271.510,503.980
320,43606.896000,237.220,-61.862,-60.763,447.716,82.854,-260.420,-335.040,286.510,413.980
321,43606.939000,253.035,-46.774,-43.829,455.446,80.189,-252.618,-361.040,447.510,298.980
322,43606.979000,261.931,-43.756,-38.848,461.242,76.643,-239.936,-338.040,472.510,56.980
323,43607.19000,260.942,1.509,-34.864,467.970,70.129,-230.260,-352.040,465.510,-49.020
324,43607.59000,257.977,-4.527,-37.852,470.149,93.621,-221.888,-685.040,340.510,-122.020
325,43607.103000,246.116,-45.768,-36.856,474.117,100.757,-207.992,-745.040,357.510,-203.020
326,43607.141000,250.069,-28.668,-41.837,473.360,119.496,-193.849,-830.040,439.510,-370.020
327,43607.175000,259.954,3.521,-15.938,475.421,130.410,-183.795,-871.040,598.510,-408.020
328,43607.198000,250.069,-3.521,-27.891,479.451,142.551,-162.924,-988.040,588.510,-382.020
329,43607.239000,225.359,-21.627,56.778,476.684,153.504,-148.957,-908.040,294.510,-302.020
330,43607.279000,216.463,-4.527,80.685,475.853,168.014,-150.598,-605.040,-370.490,-106.020
331,43607.320000,270.826,62.868,28.887,469.079,172.328,-172.091,-412.040,-1035.490,-77.020
332,43607.354000,322.224,93.045,37.852,458.446,177.597,-192.590,-1123.040,-1362.490,-90.020
333,43607.394000,379.552,-127.246,18.926,451.871,198.782,-197.037,-3390.040,-1607.490,317.980
334,43607.441000,275.768,-92.039,-216.156,442.379,216.292,-190.785,-4677.040,-1699.490,1042.980
335,43607.476000,239.197,-103.104,-263.969,435.903,244.597,-180.363,-4255.040,-2070.490,882.980
336,43607.516000,134.425,7.544,-4.981,428.169,247.219,-190.128,-1579.040,-1570.490,748.980
337,43607.536000,33.606,164.464,55.782,430.956,234.690,-187.458,-490.040,59.510,634.980
338,43607.576000,298.502,290.200,-406.412,432.994,240.103,-162.817,-1846.040,4.510,160.980
339,43607.616000,309.375,96.063,-70.724,434.140,256.790,-154.599,-212.040,126.510,-382.020
340,43607.656000,376.587,43.756,6.973,436.042,253.853,-156.622,192.960,-5.490,17.980
341,43607.696000,273.792,139.316,-176.311,439.874,250.007,-156.699,-427.040,-202.490,243.980
342,43607.736000,185.822,34.703,-254.008,437.958,251.930,-156.660,-923.040,-582.490,90.980
343,43607.779000,20.757,-204.699,-492.078,428.283,254.468,-169.373,-1097.040,-1405.490,270.980
344,43607.824000,17.792,-156.417,-309.790,411.783,254.674,-196.862,-1462.040,-2551.490,891.980
345,43607.836000,34.595,-154.405,-173.323,396.263,255.020,-218.461,-1917.040,-2583.490,918.980
346,43607.876000,45.467,-126.240,-64.747,388.371,243.790,-240.302,-634.040,-1799.490,1455.980
347,43607.924000,112.680,-181.564,152.405,390.039,216.603,-241.882,222.960,-231.490,1690.980
348,43607.964000,293.560,89.022,-91.642,428.316,167.164,-212.499,1541.960,2636.510,1368.980
349,43608.5000,483.336,79.969,-162.366,446.799,163.913,-147.808,-2117.040,2352.510,492.980
350,43608.38000,316.293,-7.544,209.183,462.466,172.024,-94.639,-807.040,1553.510,-219.020
351,43608.79000,319.259,61.862,6.973,463.472,169.768,-65.268,924.960,1438.510,-106.020
352,43608.116000,335.073,62.868,-39.844,473.102,160.628,-43.876,414.960,980.510,172.980
353,43608.161000,263.907,-11.568,-58.770,469.290,164.668,-34.968,104.960,682.510,117.980
354,43608.183000,257.977,-56.833,-65.743,473.170,163.045,-22.247,-174.040,537.510,-9.020
355,43608.216000,247.104,-31.686,-70.724,471.255,162.335,-9.518,-109.040,478.510,-184.020
356,43608.263000,257.977,1.509,-48.809,466.513,170.249,-0.527,-251.040,331.510,-129.020
357,43608.341000,245.127,-6.538,-10.957,468.497,174.259,4.470,-668.040,-184.490,-114.020
358,43608.359000,260.942,19.615,1.992,466.552,175.902,-8.247,-734.040,-733.490,-154.020
359,43608.385000,354.842,54.821,55.782,465.550,177.317,-31.753,-841.040,-1431.490,-146.020
360,43608.420000,444.788,26.656,71.720,460.640,175.695,-59.258,-315.040,-1949.490,128.980
361,43608.460000,382.517,-48.786,-96.623,457.682,181.298,-112.096,-235.040,-2741.490,-73.020
362,43608.480000,350.888,-6.538,-379.518,437.288,185.631,-170.882,475.960,-2411.490,-473.020
363,43608.519000,85.992,-87.010,48.809,420.747,184.564,-212.128,2224.960,-652.490,-1055.020
364,43608.560000,34.595,63.874,107.580,418.779,182.474,-218.063,1396.960,809.510,-1359.020
365,43608.600000,59.305,7.544,-5.977,424.883,207.407,-190.038,1132.960,2514.510,-1734.020
366,43608.640000,130.471,-111.151,-94.630,435.872,235.493,-153.107,1993.960,3336.510,-2034.020
367,43608.676000,270.826,-220.794,-347.642,440.898,250.556,-132.168,3529.960,3448.510,-2094.020
368,43608.718000,256.000,-199.670,-313.774,439.989,256.393,-131.060,5025.960,2434.510,-1862.020
369,43608.758000,274.780,-288.189,-492.078,437.853,243.883,-169.588,5164.960,824.510,-1084.020
370,43608.801000,201.637,-35.709,137.463,438.622,227.021,-186.632,1148.960,734.510,59.980
371,43608.821000,338.039,73.933,52.794,449.166,214.740,-176.095,99.960,728.510,576.980
372,43608.861000,277.745,53.815,-0.996,451.981,204.240,-169.457,183.960,274.510,245.980
373,43608.901000,253.035,42.750,-33.868,452.910,200.366,-169.541,359.960,311.510,251.980
374,43608.938000,254.023,-10.562,-13.946,462.480,188.012,-161.950,353.960,325.510,323.980
375,43608.989000,248.093,-22.633,-22.911,466.338,186.172,-159.041,146.960,254.510,267.980
376,43609.20000,256.000,-36.715,6.973,472.086,180.404,-159.157,523.960,88.510,162.980
377,43609.61000,249.081,-19.615,-1.992,470.067,173.416,-167.161,854.960,-115.490,123.980
378,43609.101000,248.093,21.627,-3.984,468.957,160.591,-176.274,493.960,-317.490,133.980
379,43609.115000,253.035,-14.585,-19.922,465.030,157.361,-189.103,386.960,-426.490,203.980
380,43609.155000,250.069,8.550,-52.794,461.010,143.558,-197.263,638.960,-384.490,160.980
381,43609.200000,253.035,-19.615,-36.856,460.013,142.384,-206.117,736.960,-213.490,90.980
382,43609.235000,254.023,0.503,-45.821,458.961,135.406,-214.120,455.960,-228.490,3.980
383,43609.278000,250.069,-1.509,-42.833,455.912,122.519,-225.199,426.960,-208.490,17.980
384,43609.315000,254.023,-35.709,-42.833,452.000,118.555,-227.257,637.960,-209.490,21.980
385,43609.355000,246.116,-14.585,-56.778,453.912,117.473,-233.161,688.960,-66.490,-72.020
386,43609.395000,245.127,-7.544,-61.759,456.788,115.495,-236.141,255.960,-30.490,-61.020
387,43609.443000,250.069,-36.715,-13.946,452.928,116.428,-236.128,150.960,-24.490,-63.020
388,43609.463000,260.942,-10.562,-47.813,449.019,113.370,-241.108,373.960,-147.490,-159.020
389,43609.503000,256.000,-13.580,-25.899,446.995,105.455,-247.172,835.960,-268.490,-273.020
390,43609.543000,296.525,12.574,-12.949,435.382,107.952,-260.870,1193.960,-440.490,-559.020
391,43609.578000,350.888,45.768,-26.895,432.402,103.652,-278.623,2688.960,-292.490,-1179.020
392,43609.618000,240.185,-10.562,-67.735,422.522,86.622,-298.635,3449.960,-340.490,-1189.020
393,43609.658000,213.498,-61.862,-131.486,422.365,72.793,-309.730,3000.960,-92.490,-946.020
394,43609.698000,150.239,65.886,-26.895,421.969,32.016,-310.636,2446.960,172.510,-398.020
395,43609.744000,179.892,0.503,-82.677,420.143,43.605,-312.344,-849.040,-185.490,-327.020
396,43609.758000,192.741,-36.715,-94.630,420.386,68.826,-312.764,-991.040,-52.490,70.980
397,43609.804000,221.405,-18.609,-66.739,422.271,63.084,-309.946,-535.040,53.510,567.980
398,43609.841000,201.637,42.750,-158.381,423.233,61.281,-304.100,-1278.040,129.510,775.980
399,43609.879000,269.838,151.387,-94.630,434.839,57.834,-289.442,-497.040,450.510,457.980
400,43609.916000,341.992,-179.552,-3.984,446.362,47.441,-281.803,46.960,719.510,662.980
401,43609.956000,263.907,-4.527,-45.821,456.974,41.093,-266.231,-31.040,718.510,306.980
402,43609.996000,251.058,5.532,-32.872,467.633,39.600,-250.551,-190.040,585.510,140.980
403,43610.36000,257.977,-15.591,-16.934,475.428,42.847,-238.695,-274.040,492.510,61.980
404,43610.83000,256.988,1.509,-14.942,475.418,40.107,-230.910,-264.040,417.510,-26.020
405,43610.103000,257.977,-8.550,-18.926,480.350,48.115,-221.896,-344.040,244.510,-31.020
406,43610.141000,250.069,-20.621,-18.926,486.239,56.025,-217.785,-552.040,178.510,-75.020
407,43610.181000,244.139,-4.527,-7.969,485.333,61.000,-211.793,-578.040,199.510,-182.020
408,43610.221000,252.046,0.503,-13.946,487.406,73.791,-204.640,-647.040,182.510,-180.020
409,43610.261000,250.069,-7.544,10.957,486.499,79.650,-202.551,-421.040,31.510,-151.020
410,43610.299000,251.058,3.521,-4.981,481.750,89.246,-205.290,-535.040,-135.490,-158.020
411,43610.339000,256.000,3.521,-4.981,479.926,101.741,-209.919,-746.040,-285.490,-212.020
412,43610.379000,238.208,47.780,25.899,474.288,120.886,-219.313,-1162.040,-675.490,-245.020
413,43610.415000,281.699,21.627,-10.957,466.523,120.573,-230.124,-1263.040,-1003.490,-54.020
414,43610.436000,330.131,36.715,9.961,455.031,135.670,-244.523,-1506.040,-1121.490,49.980
415,43610.479000,307.398,-82.986,-20.918,446.614,165.661,-244.855,-3897.040,-1118.490,568.980
416,43610.516000,273.792,-136.299,-72.716,438.342,207.603,-231.193,-5547.040,-1309.490,1029.980
417,43610.565000,234.255,-113.163,-257.992,430.965,240.063,-207.933,-4678.040,-1635.490,981.980
418,43610.598000,132.448,4.527,-37.852,423.263,242.986,-203.962,-2128.040,-1266.490,822.980
419,43610.641000,92.911,165.470,11.953,423.264,241.239,-195.175,-1894.040,-713.490,819.980
420,43610.680000,263.907,302.271,-278.910,431.128,247.786,-165.593,-2310.040,375.510,287.980
421,43610.718000,305.421,266.059,-35.860,434.188,259.896,-145.704,-563.040,456.510,100.980
422,43610.739000,263.907,42.750,-118.537,435.166,261.761,-149.584,557.960,-48.490,-116.020
423,43610.780000,247.104,-11.568,-261.977,431.239,259.415,-166.315,675.960,-427.490,-5.020
424,43610.819000,185.822,-197.658,-492.078,417.630,256.025,-182.110,-2248.040,-2276.490,311.980
425,43610.859000,78.085,-245.941,-333.697,393.679,282.693,-194.317,-3192.040,-2962.490,609.980
426,43610.905000,64.247,-211.741,-148.420,372.345,280.242,-208.145,-2236.040,-2850.490,1216.980
427,43610.939000,90.934,-135.293,-114.553,372.327,280.070,-215.995,-1756.040,-2285.490,1589.980
428,43610.983000,169.019,-180.558,19.922,379.742,248.862,-226.478,-257.040,-834.490,2409.980
429,43611.20000,254.023,-119.198,116.545,405.457,204.715,-215.636,79.960,835.510,2289.980
430,43611.43000,250.069,-48.786,-18.926,440.065,172.132,-168.234,101.960,2148.510,1879.980
431,43611.95000,371.645,163.458,-245.043,460.519,171.898,-99.550,-3091.040,2131.510,644.980
432,43611.124000,300.479,-23.639,177.307,468.244,160.387,-52.717,-373.040,1964.510,273.980
433,43611.169000,343.969,42.750,60.763,467.392,165.879,-23.177,759.960,1332.510,-122.020
434,43611.215000,341.992,105.116,-32.872,470.274,161.312,-11.505,186.960,788.510,156.980
435,43611.256000,250.069,-11.568,-66.739,471.195,154.719,-2.823,95.960,325.510,276.980
436,43611.286000,234.255,-69.910,-98.615,478.025,158.863,6.109,41.960,228.510,39.980
437,43611.335000,235.243,-33.697,-100.607,474.223,164.758,11.135,13.960,364.510,-246.020
438,43611.364000,247.104,35.709,-61.759,473.272,164.900,18.001,-172.040,254.510,-219.020
439,43611.399000,250.069,18.609,-24.903,468.479,169.685,17.117,-353.040,-189.490,-133.020
440,43611.435000,276.757,27.662,-4.981,465.521,165.601,9.175,-265.040,-660.490,-147.020
441,43611.469000,357.807,7.544,69.728,466.479,169.041,-11.341,-356.040,-1450.490,-122.020
442,43611.501000,436.880,82.986,68.732,466.477,177.822,-53.315,7.960,-2008.490,-186.020
443,43611.543000,426.008,49.792,57.774,454.766,180.255,-114.086,82.960,-2584.490,-453.020
444,43611.580000,294.548,-31.686,-316.763,433.411,184.644,-169.932,1910.960,-1967.490,-709.020
445,43611.620000,115.645,-13.580,71.720,423.618,180.774,-209.265,2353.960,-700.490,-853.020
446,43611.673000,101.807,9.556,101.603,421.794,193.268,-213.894,2056.960,947.510,-1443.020
447,43611.703000,96.865,12.574,29.883,418.037,202.227,-201.935,1159.960,1997.510,-1726.020
448,43611.723000,129.483,-39.733,-80.685,430.075,238.154,-161.886,1255.960,3267.510,-2102.020
449,43611.758000,282.687,-335.466,-192.249,434.181,253.661,-120.346,3023.960,3792.510,-2011.020
450,43611.798000,279.722,-246.947,-399.440,433.353,268.193,-121.005,6284.960,3105.510,-1929.020
451,43611.839000,341.992,-287.183,-492.078,439.006,260.634,-158.426,5640.960,1481.510,-1236.020
452,43611.884000,287.629,-96.063,129.494,439.641,231.927,-184.559,2132.960,754.510,108.980
453,43611.920000,341.992,17.603,-24.903,447.305,222.467,-176.908,-817.040,391.510,804.980
454,43611.963000,318.270,5.532,2.988,451.164,218.880,-165.212,-458.040,296.510,382.980
455,43612.3000,256.000,41.745,-24.903,453.090,216.180,-156.441,532.960,390.510,213.980
456,43612.23000,255.012,10.562,-21.914,458.765,201.782,-151.846,459.960,390.510,264.980
457,43612.73000,249.081,1.509,9.961,464.527,197.027,-149.978,470.960,270.510,283.980
458,43612.103000,259.954,7.544,-9.961,466.401,191.178,-152.065,605.960,78.510,207.980
459,43612.155000,254.023,-1.509,-10.957,469.106,172.587,-160.317,640.960,-98.490,164.980
460,43612.184000,253.035,16.597,-7.969,469.106,173.471,-164.220,370.960,-213.490,138.980
461,43612.224000,250.069,9.556,-23.907,465.190,170.349,-172.143,93.960,-265.490,221.980
462,43612.264000,247.104,6.538,-26.895,464.146,164.320,-181.105,233.960,-217.490,263.980
463,43612.304000,249.081,-16.597,-34.864,465.947,151.610,-186.287,526.960,-218.490,245.980
464,43612.344000,251.058,-16.597,-37.852,465.748,132.969,-195.527,555.960,-176.490,170.980
465,43612.364000,254.023,-8.550,-26.895,465.798,138.730,-198.341,372.960,-207.490,67.980
466,43612.400000,254.023,3.521,-51.798,465.735,133.724,-205.317,325.960,-133.490,69.980
467,43612.445000,252.046,-26.656,-33.868,465.695,130.704,-210.287,360.960,-143.490,83.980
468,43612.479000,251.058,9.556,-32.872,465.561,117.975,-215.473,753.960,-33.490,-39.020
469,43612.519000,247.104,-7.544,-27.891,462.620,114.926,-220.451,431.960,-85.490,-22.020
470,43612.559000,247.104,-27.662,-37.852,461.681,118.714,-224.291,314.960,-176.490,-106.020
471,43612.599000,258.965,-23.639,-21.914,458.704,112.688,-232.276,456.960,-227.490,-195.020
472,43612.639000,271.815,-38.727,-2.988,450.947,113.324,-244.047,712.960,-433.490,-458.020
473,43612.660000,285.652,68.904,-59.767,436.433,117.563,-265.558,1184.960,-619.490,-644.020
474,43612.704000,329.143,21.627,-50.802,434.395,107.749,-269.702,1616.960,-136.490,-783.020
475,43612.744000,223.382,15.591,-83.673,423.734,109.220,-286.363,1875.960,-284.490,-896.020
476,43612.785000,197.683,-42.750,-118.537,426.632,110.975,-296.125,1457.960,-86.490,-605.020
477,43612.825000,215.475,-66.892,-116.545,422.532,88.478,-302.517,1487.960,-120.490,-207.020
478,43612.865000,169.019,57.839,-87.658,415.798,93.180,-306.349,-752.040,-267.490,-67.020
479,43612.905000,186.811,-26.656,-118.537,416.827,99.942,-308.158,-364.040,-129.490,28.980
480,43612.941000,151.228,58.845,-3.984,420.687,98.124,-304.268,-607.040,200.510,355.980
481,43612.983000,266.873,62.868,-80.685,424.599,101.204,-298.307,-273.040,385.510,409.980
482,43613.5000,284.664,17.603,-92.638,434.206,91.848,-286.727,-116.040,520.510,427.980
483,43613.44000,363.737,-39.733,23.907,445.666,72.048,-265.568,72.960,930.510,425.980
484,43613.85000,264.896,-11.568,-10.957,454.431,75.326,-252.728,-11.040,573.510,184.980
485,43613.126000,253.035,-37.721,-30.879,466.039,72.785,-240.992,146.960,487.510,42.980
486,43613.165000,256.988,-6.538,-8.965,468.973,74.000,-231.152,13.960,457.510,-53.020
487,43613.205000,256.000,-8.550,-16.934,473.843,77.003,-229.114,-173.040,296.510,-93.020
488,43613.239000,250.069,-15.591,-17.930,474.829,77.185,-221.262,-434.040,200.510,-77.020
489,43613.279000,242.162,-17.603,-13.946,474.934,87.001,-216.141,-445.040,211.510,-200.020
490,43613.299000,254.023,7.544,-9.961,477.019,100.785,-207.985,-457.040,150.510,-253.020
491,43613.341000,255.012,19.615,4.981,474.204,109.516,-206.817,-570.040,-62.490,-209.020
492,43613.381000,255.012,12.574,-15.938,473.314,117.295,-205.665,-680.040,-199.490,-199.020
493,43613.420000,255.012,7.544,-9.961,462.857,137.450,-211.124,-905.040,-291.490,-277.020
494,43613.465000,261.931,34.703,24.903,462.921,145.109,-215.857,-1483.040,-681.490,-336.020
495,43613.506000,299.490,38.727,26.895,449.625,172.010,-222.153,-1773.040,-952.490,-221.020
496,43613.546000,362.749,-54.821,30.879,444.095,199.246,-216.657,-3221.040,-752.490,308.980
497,43613.586000,261.931,-88.016,-219.144,438.669,231.875,-186.524,-6706.040,-1448.490,985.980
498,43613.626000,261.931,-141.328,-358.599,433.280,266.618,-148.499,-6884.040,-2477.490,1163.980
499,43613.641000,186.811,-59.851,-72.716,429.446,270.442,-149.403,-2776.040,-2085.490,1060.980
500,43613.681000,107.737,69.910,26.895,434.119,254.826,-155.624,-1135.040,-907.490,1168.980
501,43613.720000,142.332,149.375,170.335,438.043,257.151,-139.873,-2006.040,-43.490,888.980
502,43613.760000,383.506,288.189,-290.864,444.864,255.038,-106.563,-1700.040,236.510,400.980
503,43613.800000,307.398,187.599,-89.650,448.722,249.682,-87.061,-417.040,415.510,28.980
504,43613.848000,284.664,33.697,-156.389,443.895,253.259,-98.759,1184.960,-558.490,-208.020
505,43613.880000,227.336,-82.986,-474.148,432.198,252.305,-137.051,474.960,-1704.490,1.980
506,43613.920000,140.355,-183.576,-292.856,418.666,258.451,-160.479,-2387.040,-2683.490,437.980
507,43613.943000,39.537,-196.652,-123.518,406.142,265.880,-170.147,-2521.040,-2576.490,683.980
508,43613.991000,58.317,-228.841,-37.852,399.219,253.797,-187.101,-574.040,-1676.490,970.980
509,43614.28000,160.124,-140.322,-36.856,407.637,225.575,-194.575,622.960,51.510,1682.980
510,43614.63000,253.035,31.686,0.996,432.460,187.439,-174.775,60.960,1213.510,1778.980
511,43614.108000,375.598,154.405,-49.805,452.704,168.457,-120.236,-1742.040,2183.510,1339.980
512,43614.146000,451.707,258.012,-277.914,467.280,163.053,-63.447,-2718.040,1453.510,484.980
513,43614.186000,347.923,-15.591,-6.973,470.270,163.923,-25.176,491.960,1370.510,180.980
514,43614.226000,373.622,-1.509,21.914,471.172,153.619,-8.731,786.960,1265.510,224.980
515,43614.266000,315.305,73.933,-5.977,477.016,154.927,4.059,194.960,552.510,243.980
516,43614.286000,256.000,-29.674,-53.790,475.010,147.184,5.844,31.960,32.510,265.980
517,43614.326000,244.139,-40.739,-72.716,475.911,140.398,5.695,-204.040,-171.490,49.980
518,43614.360000,238.208,-24.644,-100.607,475.897,139.384,3.711,-143.040,-145.490,-60.020
519,43614.401000,224.371,-11.568,-92.638,476.936,147.117,1.924,-149.040,-10.490,-73.020
520,43614.445000,250.069,-23.639,-60.763,476.952,148.152,4.889,-241.040,-20.490,-114.020
521,43614.491000,246.116,15.591,-47.813,477.941,151.010,2.012,-234.040,-298.490,-59.020
522,43614.531000,294.548,27.662,-27.891,480.800,148.859,-8.817,-217.040,-686.490,52.980
523,43614.566000,416.124,81.980,80.685,475.873,144.432,-31.481,-335.040,-1149.490,14.980
524,43614.603000,486.301,48.786,155.393,470.045,151.194,-74.492,-982.040,-2401.490,-188.020
525,43614.626000,420.077,-182.570,-207.191,455.432,154.483,-139.173,-63.040,-2832.490,-290.020
526,43614.666000,290.595,-41.745,-57.774,444.561,142.492,-194.380,2687.960,-1421.490,-668.020
527,43614.706000,73.143,30.680,81.681,429.136,152.546,-215.763,1170.960,-479.490,-1294.020
528,43614.746000,52.386,87.010,13.946,430.397,180.905,-206.305,-500.040,1133.510,-1766.020
529,43614.783000,89.946,-108.134,-14.942,431.872,225.401,-169.030,342.960,2502.510,-1811.020
530,43614.825000,220.417,-179.552,-50.802,439.932,248.799,-123.383,2340.960,3829.510,-1608.020
531,43614.866000,264.896,-246.947,-109.572,444.963,262.157,-91.695,5128.960,4358.510,-1740.020
532,43614.903000,301.467,-157.422,-256.000,445.000,267.788,-100.396,6892.960,3933.510,-1995.020
533,43614.923000,340.015,-191.623,-254.008,444.031,273.928,-129.682,5862.960,1834.510,-1500.020
534,43614.968000,190.764,-23.639,-492.078,443.798,255.848,-157.542,3340.960,-20.490,-306.020
535,43615.6000,224.371,117.187,-14.942,450.391,238.352,-161.839,-216.040,137.510,749.980
536,43615.46000,326.178,55.827,-41.837,460.856,220.031,-161.243,65.960,80.510,687.980
537,43615.94000,247.104,26.656,-42.833,461.718,209.340,-162.459,157.960,102.510,328.980
538,43615.126000,252.046,-10.562,0.000,467.417,198.695,-163.664,575.960,218.510,442.980
539,43615.168000,251.058,-13.580,-29.883,474.994,182.244,-164.994,1133.960,218.510,287.980
540,43615.208000,267.861,39.733,-16.934,474.904,173.463,-167.150,726.960,120.510,166.980
541,43615.248000,256.000,21.627,-4.981,478.716,168.539,-172.155,428.960,11.510,184.980
542,43615.268000,254.023,1.509,-10.957,476.649,155.813,-176.364,433.960,-37.490,220.980
543,43615.303000,253.035,-17.603,-26.895,476.598,150.915,-178.434,385.960,-41.490,153.980
544,43615.344000,237.220,9.556,-40.840,478.528,150.891,-180.392,267.960,109.510,40.980
545,43615.384000,256.988,-10.562,-5.977,479.392,141.105,-184.530,674.960,-38.490,240.980
546,43615.424000,253.035,-16.597,-9.961,480.259,131.341,-187.687,512.960,-70.490,72.980
547,43615.464000,256.988,11.568,-34.864,480.207,127.328,-193.660,343.960,-84.490,27.980
548,43615.506000,256.000,-5.532,-35.860,479.190,121.559,-190.849,243.960,38.510,69.980
549,43615.543000,250.069,-3.521,-31.875,482.153,127.455,-188.750,396.960,117.510,55.980
550,43615.564000,252.046,-2.515,-10.957,482.078,119.688,-188.923,416.960,174.510,99.980
551,43615.604000,248.093,-29.674,-11.953,484.886,109.123,-185.229,229.960,36.510,35.980
552,43615.641000,251.058,-13.580,-12.949,482.008,112.849,-191.036,335.960,-18.490,-69.020
553,43615.681000,247.104,-11.568,6.973,479.094,112.713,-195.948,567.960,-126.490,-158.020
554,43615.725000,255.012,-11.568,33.868,477.106,108.660,-202.907,582.960,-593.490,-231.020
555,43615.769000,310.363,16.597,-13.946,469.371,113.913,-225.362,842.960,-756.490,-349.020
556,43615.801000,332.108,39.733,-16.934,459.682,116.322,-243.962,1669.960,-523.490,-803.020
557,43615.844000,222.394,-13.580,-78.693,447.915,104.127,-263.870,1620.960,-503.490,-742.020
558,43615.886000,224.371,-22.633,-91.642,441.152,108.549,-280.458,1221.960,-376.490,-465.020
559,43615.906000,225.359,-54.821,-65.743,439.045,91.917,-285.735,1351.960,-111.490,9.980
560,43615.944000,177.915,42.750,-79.689,440.940,87.146,-282.894,7.960,78.510,186.980
561,43615.993000,139.367,27.662,-149.416,442.952,94.954,-281.736,-835.040,53.510,363.980
562,43616.26000,216.463,34.703,-34.864,444.827,87.357,-275.036,-1165.040,165.510,450.980
563,43616.65000,249.081,113.163,-94.630,451.681,94.370,-268.002,-570.040,283.510,230.980
564,43616.108000,307.398,-69.910,-45.821,458.509,97.607,-256.147,-274.040,330.510,194.980
565,43616.146000,304.432,-106.122,0.000,467.082,81.446,-244.720,179.960,669.510,468.980
566,43616.185000,271.815,-17.603,-31.875,482.465,67.465,-225.385,51.960,898.510,308.980
567,43616.205000,270.826,4.527,-9.961,485.457,72.758,-206.628,-89.040,585.510,15.980
568,43616.246000,260.942,2.515,6.973,487.356,68.030,-201.826,-150.040,449.510,0.980
569,43616.285000,256.000,-17.603,-8.965,490.319,72.158,-191.922,-158.040,326.510,-62.020
570,43616.326000,255.012,-4.527,-7.969,493.319,80.168,-181.931,-348.040,254.510,-128.020
571,43616.366000,251.058,-6.538,0.996,493.347,82.196,-177.963,-667.040,180.510,-166.020
572,43616.408000,252.046,-14.585,5.977,494.447,94.050,-168.872,-639.040,190.510,-200.020
573,43616.448000,251.058,-0.503,13.946,494.567,105.766,-165.669,-471.040,170.510,-188.020
574,43616.486000,249.081,1.509,14.942,496.514,106.777,-164.662,-414.040,12.510,-169.020
575,43616.528000,248.093,-2.515,25.899,490.808,116.472,-162.498,-613.040,-164.490,-182.020
576,43616.548000,244.139,-0.503,30.879,492.831,127.019,-169.124,-541.040,-453.490,-188.020
577,43616.588000,239.197,32.692,21.914,480.279,132.420,-182.760,-662.040,-807.490,-161.020
578,43616.628000,298.502,59.851,-8.965,470.692,145.486,-202.103,-1076.040,-1135.490,-18.020
579,43616.668000,327.166,64.880,18.926,463.067,160.600,-217.474,-1597.040,-1201.490,18.980
580,43616.708000,352.865,-32.692,32.872,455.624,190.664,-214.861,-4738.040,-1502.490,733.980
581,43616.748000,280.710,-117.187,-199.222,450.050,213.067,-208.492,-4716.040,-1708.490,940.980
582,43616.785000,204.602,-133.281,-114.553,439.587,230.525,-204.204,-3769.040,-1845.490,844.980
583,43616.825000,42.502,41.745,-14.942,432.800,231.193,-214.991,-822.040,-876.490,895.980
584,43616.845000,121.575,150.381,-69.728,440.567,229.779,-194.412,-1743.040,40.510,782.980
585,43616.885000,301.467,264.047,-267.953,446.473,235.208,-170.743,-1172.040,367.510,334.980
586,43616.925000,330.131,243.929,-56.778,441.694,240.123,-165.741,-176.040,27.510,-293.020
587,43616.965000,295.537,13.580,-96.623,442.607,236.961,-177.577,1031.960,-191.490,-1.020
588,43617.9000,215.475,-41.745,-434.303,444.462,230.939,-187.513,-571.040,-856.490,39.980
589,43617.49000,98.842,-279.136,-492.078,425.287,251.786,-201.801,-2195.040,-2317.490,449.980
590,43617.121000,28.664,-240.912,-240.062,397.173,250.067,-223.473,-2818.040,-2955.490,1080.980
591,43617.136000,43.490,-196.652,-135.471,381.623,248.363,-250.021,-1578.040,-2699.490,1531.980
592,43617.171000,59.305,-118.193,-128.498,370.773,230.417,-267.114,-1036.040,-1964.490,1797.980
593,43617.185000,120.587,-86.004,182.288,388.826,193.984,-255.136,60.960,-247.490,2100.980
594,43617.225000,221.405,-57.839,81.681,412.889,176.312,-230.961,348.960,2484.510,1718.980
595,43617.269000,483.336,203.694,-243.051,444.857,166.461,-163.446,-1755.040,2595.510,935.980
596,43617.305000,352.865,-83.992,179.300,458.553,170.692,-109.387,135.960,2136.510,138.980
597,43617.365000,337.050,-20.621,16.934,459.561,167.573,-75.131,250.960,1362.510,126.980
598,43617.393000,307.398,98.075,-56.778,465.360,164.048,-61.468,738.960,847.510,130.980
599,43617.433000,306.409,39.733,-44.825,470.212,163.362,-50.686,211.960,515.510,117.980
600,43617.468000,272.803,-17.603,-54.786,474.961,152.880,-44.044,-207.040,114.510,140.980
601,43617.489000,260.942,-28.668,-84.669,470.160,156.695,-44.950,-194.040,95.510,22.980
602,43617.525000,256.000,-30.680,-95.626,471.114,153.943,-38.144,-105.040,161.510,-166.020
603,43617.565000,236.232,-21.627,-82.677,465.418,163.724,-32.055,-440.040,181.510,-262.020
604,43617.614000,253.035,6.538,-44.825,467.453,172.632,-24.988,-756.040,70.510,-323.020
605,43617.645000,255.012,60.857,16.934,464.645,182.312,-24.780,-580.040,-318.490,-257.020
606,43617.684000,320.247,47.780,49.805,462.661,181.819,-46.369,-369.040,-1079.490,-115.020
607,43617.734000,391.413,17.603,48.809,453.869,182.684,-91.479,75.960,-2001.490,24.980
608,43617.766000,373.622,1.509,-201.214,446.059,184.572,-134.603,436.960,-2659.490,-155.020
609,43617.811000,246.116,-35.709,24.903,430.486,185.284,-183.653,1334.960,-1478.490,-568.020
610,43617.828000,145.297,1.509,76.700,422.768,192.458,-207.046,798.960,-331.490,-860.020
611,43617.869000,103.784,25.650,50.802,420.979,206.161,-200.861,571.960,1412.510,-1156.020
612,43617.910000,121.575,10.562,-0.996,430.979,231.389,-161.054,645.960,2670.510,-1362.020
613,43617.950000,186.811,-77.957,-92.638,442.760,240.197,-118.665,2704.960,3698.510,-1638.020
614,43617.990000,273.792,-193.635,-234.086,448.719,254.061,-108.538,5173.960,3654.510,-1860.020
615,43618.26000,327.166,-191.623,-277.914,449.729,261.514,-123.080,6933.960,2556.510,-1815.020
616,43618.73000,220.417,-124.228,-492.078,449.488,245.117,-162.671,5228.960,743.510,-872.020
617,43618.109000,231.290,29.674,96.623,456.066,224.838,-161.146,-707.040,913.510,654.980
618,43618.129000,317.282,-18.609,31.875,462.891,227.170,-146.370,-1131.040,248.510,626.980
619,43618.170000,282.687,-48.786,-14.942,463.788,219.455,-144.578,441.960,239.510,261.980
620,43618.210000,251.058,32.692,-9.961,470.383,201.981,-147.894,1006.960,319.510,294.980
621,43618.254000,266.873,45.768,-19.922,473.233,196.227,-146.055,1079.960,276.510,316.980
622,43618.289000,257.977,10.562,-11.953,480.823,181.654,-150.285,309.960,142.510,273.980
623,43618.329000,258.965,-2.515,2.988,478.859,178.722,-150.354,329.960,21.510,170.980
624,43618.370000,256.988,8.550,-17.930,483.619,171.865,-155.399,427.960,-58.490,209.980
625,43618.409000,258.965,18.609,-11.953,484.505,164.043,-158.513,512.960,4.510,180.980
626,43618.450000,232.278,1.509,-15.938,483.441,154.303,-159.712,354.960,12.510,155.980
627,43618.470000,253.035,-9.556,-5.977,484.314,144.604,-159.926,746.960,-110.490,211.980
628,43618.504000,254.023,-8.550,-7.969,478.435,138.550,-167.918,562.960,-177.490,129.980
629,43618.550000,254.023,13.580,-32.872,481.305,136.507,-173.841,371.960,-234.490,94.980
630,43618.591000,254.023,-14.585,-21.914,480.289,133.391,-182.738,186.960,-206.490,107.980
631,43618.631000,256.988,-1.509,-24.903,481.127,120.714,-185.960,559.960,-69.490,53.980
632,43618.671000,254.023,-13.580,-32.872,478.166,114.839,-187.077,334.960,-51.490,63.980
633,43618.711000,250.069,-13.580,-25.899,479.129,115.690,-192.940,383.960,48.510,-83.020
634,43618.751000,253.035,2.515,-13.946,480.151,121.503,-193.790,287.960,8.510,-106.020
635,43618.771000,248.093,-50.798,46.817,476.279,122.329,-198.683,620.960,-357.490,-296.020
636,43618.809000,284.664,-19.615,42.833,465.525,115.860,-223.366,1036.960,-996.490,-549.020
637,43618.848000,459.614,123.222,3.984,446.212,126.589,-256.511,1604.960,-1036.490,-1190.020
638,43618.885000,295.537,-33.697,-70.724,427.883,136.593,-278.882,1984.960,-705.490,-1410.020
639,43618.928000,200.649,-25.650,-156.389,412.242,126.087,-308.568,2997.960,-468.490,-1152.020
640,43618.974000,115.645,-8.550,-71.720,405.356,117.002,-321.533,2021.960,-106.490,-744.020
641,43619.9000,82.039,14.585,-104.591,411.933,98.471,-328.795,1722.960,210.510,-115.020
642,43619.49000,152.216,32.692,-178.303,412.836,90.821,-324.060,-22.040,66.510,-26.020
643,43619.68000,214.486,48.786,-85.665,414.813,93.882,-318.104,-352.040,189.510,166.980
644,43619.110000,241.174,61.862,-64.747,419.706,97.985,-310.157,-936.040,202.510,525.980
645,43619.159000,295.537,27.662,-48.809,429.358,94.347,-303.353,-1173.040,223.510,717.980
646,43619.198000,307.398,-4.527,-51.798,439.911,81.269,-284.988,-474.040,433.510,688.980
647,43619.230000,258.965,-6.538,-68.732,449.495,70.813,-279.316,-210.040,622.510,650.980
648,43619.270000,319.259,-69.910,3.984,463.004,62.682,-257.894,196.960,1124.510,229.980
649,43619.310000,250.069,-3.521,-38.848,473.717,66.108,-239.163,369.960,803.510,-83.020
650,43619.345000,253.035,29.674,9.961,484.312,56.956,-218.750,345.960,694.510,5.980
651,43619.408000,255.012,-19.615,20.918,489.131,52.429,-206.091,290.960,521.510,90.980
652,43619.415000,244.139,-13.580,18.926,493.048,56.436,-202.071,22.960,206.510,-90.020
653,43619.453000,249.081,-10.562,3.984,491.200,66.061,-204.804,-282.040,-136.490,-131.020
654,43619.485000,247.104,2.515,-3.984,485.429,69.845,-206.693,-283.040,-204.490,-140.020
655,43619.531000,252.046,19.615,-20.918,484.523,76.589,-208.507,-261.040,-180.490,-202.020
656,43619.570000,255.012,22.633,-12.949,479.729,82.237,-214.275,-481.040,-225.490,-134.020
657,43619.615000,257.977,-3.521,-2.988,475.923,89.859,-219.018,-786.040,-346.490,-181.020
658,43619.648000,251.058,42.750,34.864,467.430,114.714,-232.213,-1161.040,-691.490,-267.020
659,43619.691000,263.907,55.827,56.778,452.169,139.547,-243.462,-2212.040,-1433.490,-8.020
660,43619.708000,399.320,-56.833,32.872,448.442,156.726,-254.856,-3844.040,-1216.490,735.980
661,43619.748000,266.873,-55.827,-91.642,438.246,198.758,-236.293,-5870.040,-1460.490,1143.980
662,43619.788000,234.255,-72.927,-213.167,429.904,232.114,-215.957,-5052.040,-1534.490,1188.980
663,43619.828000,83.027,61.862,-22.911,430.068,246.008,-201.919,-2651.040,-877.490,966.980
664,43619.868000,123.552,142.334,72.716,427.267,252.236,-182.173,-2664.040,-264.490,726.980
665,43619.908000,346.934,277.124,-57.774,436.082,257.758,-155.554,-1594.040,287.510,187.980
666,43619.953000,257.977,215.764,-11.953,434.140,256.790,-154.599,-179.040,30.510,-321.020
667,43619.988000,320.247,18.609,2.988,437.974,252.965,-153.695,674.960,52.510,185.980
668,43620.28000,261.931,73.933,-278.910,433.059,248.647,-171.454,-304.040,-838.490,83.980
669,43620.48000,189.776,-258.012,-492.078,421.538,260.831,-185.917,-1812.040,-1971.490,371.980
670,43620.88000,81.050,-171.505,-312.778,401.372,279.684,-202.213,-3453.040,-3156.490,810.980
671,43620.130000,63.259,-156.417,-148.420,372.363,284.816,-220.792,-2700.040,-3163.490,860.980
672,43620.185000,82.039,-224.817,-50.802,356.742,274.504,-241.648,-640.040,-2181.490,1515.980
673,43620.213000,131.459,-205.705,66.739,365.162,246.304,-248.140,433.960,-720.490,2208.980
674,43620.254000,192.741,-71.921,11.953,393.852,209.931,-238.100,12.960,1268.510,2086.980
675,43620.295000,238.208,109.139,-41.837,427.517,180.207,-192.598,-1258.040,2114.510,1441.980
676,43620.335000,359.784,176.534,-361.588,453.822,183.115,-115.986,-2675.040,2610.510,666.980
677,43620.353000,351.876,-17.603,76.700,460.772,189.287,-58.956,-433.040,2028.510,-39.020
678,43620.393000,337.050,45.768,0.000,461.813,189.123,-22.673,1013.960,1994.510,-56.020
679,43620.431000,362.749,216.770,-35.860,464.776,188.849,7.728,682.960,1516.510,-46.020
680,43620.466000,245.127,44.762,40.840,465.746,185.364,25.304,80.960,1133.510,379.980
681,43620.506000,215.475,-83.992,8.965,463.751,177.729,31.995,94.960,302.510,188.980
682,43620.546000,250.069,-40.739,-41.837,466.627,173.981,36.821,82.960,77.510,-91.020
683,43620.593000,255.012,5.532,-37.852,461.844,179.738,35.958,-0.040,-50.490,-99.020
684,43620.629000,234.255,-21.627,-21.914,462.819,181.581,31.098,-62.040,-215.490,-122.020
685,43620.650000,239.197,-5.532,-5.977,462.863,189.046,17.535,-167.040,-813.490,-239.020
686,43620.701000,253.035,-4.527,6.973,462.454,199.672,236.457,-156.040,-1390.490,-253.020
687,43620.731000,429.961,67.898,49.805,457.903,188.697,-40.343,-35.040,-1941.490,-185.020
688,43620.771000,512.988,105.116,68.732,445.276,195.134,-95.143,269.960,-2430.490,-325.020
689,43620.811000,403.274,-102.098,-87.658,423.025,209.890,-164.490,917.960,-2857.490,-847.020
690,43620.850000,178.903,116.181,-94.630,407.301,197.701,-226.575,3144.960,-1236.490,-696.020
691,43620.893000,104.772,-36.715,73.712,393.612,190.018,-261.098,1890.960,-554.490,-1339.020
692,43620.933000,34.595,1.509,25.899,392.781,203.644,-258.836,1589.960,1266.510,-1865.020
693,43620.966000,28.664,-20.621,-20.918,401.663,217.731,-239.872,1093.960,2329.510,-2103.020
694,43620.986000,75.120,-110.145,-75.704,409.769,248.615,-206.807,1792.960,3157.510,-2241.020
695,43621.26000,217.452,-204.699,-262.973,428.319,260.099,-178.074,3403.960,3411.510,-2018.020
696,43621.73000,295.537,-206.711,-268.949,436.915,248.555,-177.331,5456.960,2639.510,-1793.020
697,43621.113000,326.178,-26.656,-492.078,432.729,223.469,-213.201,5350.960,744.510,-1219.020
698,43621.151000,251.058,-38.727,-41.837,442.213,205.894,-222.397,677.960,924.510,343.980
699,43621.189000,317.282,14.585,8.965,451.761,189.807,-208.024,-130.040,629.510,666.980
700,43621.229000,310.363,58.845,12.949,458.518,187.090,-202.186,-146.040,395.510,338.980
701,43621.269000,256.000,55.827,-16.934,464.235,177.502,-199.445,837.960,395.510,303.980
702,43621.289000,261.931,31.686,-18.926,469.863,158.249,-194.957,536.960,266.510,376.980
703,43621.329000,249.081,-6.538,6.973,476.583,153.418,-197.012,108.960,66.510,328.980
704,43621.371000,256.988,-3.521,-13.946,475.552,146.634,-196.184,163.960,-86.490,223.980
705,43621.411000,256.000,24.644,-32.872,472.551,137.738,-202.271,240.960,-130.490,203.980
706,43621.451000,254.023,2.515,-29.883,472.511,132.949,-199.436,217.960,-18.490,205.980
707,43621.491000,248.093,6.538,-33.868,479.173,122.271,-202.601,226.960,108.510,161.980
708,43621.536000,245.127,-11.568,-17.930,473.292,114.447,-202.787,353.960,47.510,174.980
709,43621.571000,249.081,-35.709,-0.996,479.093,114.461,-204.736,532.960,-105.490,99.980
710,43621.608000,258.965,3.521,-33.868,476.040,99.783,-208.990,642.960,-119.490,23.980
711,43621.628000,250.069,3.521,-28.887,472.109,94.762,-214.994,438.960,-47.490,39.980
712,43621.668000,259.954,-44.762,-28.887,474.979,91.834,-217.014,470.960,197.510,-40.020
713,43621.713000,253.035,8.550,-23.907,475.941,90.031,-211.168,504.960,183.510,14.980
714,43621.763000,253.035,-17.603,-18.926,475.938,89.125,-208.247,228.960,133.510,-2.020
715,43621.793000,252.046,-20.621,-18.926,480.776,89.172,-208.235,80.960,20.510,30.980
716,43621.833000,256.988,-20.621,-11.953,479.749,83.316,-209.348,448.960,-44.490,-80.020
717,43621.870000,248.093,-23.639,26.895,470.982,78.247,-215.363,612.960,-163.490,-213.020
718,43621.914000,282.687,-7.544,33.868,467.147,85.588,-232.860,752.960,-822.490,-453.020
719,43621.940000,427.985,-17.603,49.805,454.542,87.839,-257.353,827.960,-864.490,-554.020
720,43621.968000,382.517,-7.544,29.883,444.949,98.209,-266.950,601.960,-744.490,-793.020
721,43622.13000,256.000,24.644,-117.541,430.466,106.266,-291.318,1431.960,-834.490,-855.020
722,43622.56000,124.541,14.585,-121.525,420.624,93.119,-311.244,1647.960,-330.490,-498.020
723,43622.91000,70.178,-55.827,-116.545,417.457,65.022,-307.952,1834.960,373.510,116.980
724,43622.128000,100.819,98.075,-108.576,432.086,75.972,-301.794,-569.040,488.510,241.980
725,43622.173000,161.112,-9.556,-199.222,434.166,87.943,-287.794,-1327.040,137.510,170.980
726,43622.213000,226.347,5.532,-20.918,443.875,91.015,-284.764,-691.040,511.510,365.980
727,43622.251000,308.386,70.916,-103.595,450.655,88.513,-269.114,-969.040,481.510,429.980
728,43622.273000,329.143,39.733,-11.953,461.265,82.145,-254.523,-451.040,561.510,578.980
729,43622.308000,313.328,-59.851,22.911,471.751,62.270,-236.310,66.960,725.510,677.980
730,43622.350000,247.104,-94.051,-23.907,479.520,62.626,-223.537,-456.040,541.510,416.980
731,43622.393000,261.931,-5.532,12.949,487.244,58.149,-209.891,-142.040,608.510,-39.020
732,43622.433000,259.954,40.739,3.984,492.112,58.498,-196.144,61.960,405.510,-8.020
733,43622.478000,260.942,0.503,-20.918,494.037,56.661,-192.258,-112.040,274.510,91.980
734,43622.509000,256.988,-34.703,-11.953,494.133,64.622,-183.255,-257.040,263.510,-101.020
735,43622.554000,253.035,-25.650,-22.911,497.105,70.605,-177.232,-772.040,269.510,-299.020
736,43622.575000,252.046,-6.538,14.942,503.119,90.273,-167.957,-778.040,358.510,-313.020
737,43622.615000,253.035,9.556,16.934,500.310,97.300,-156.039,-582.040,419.510,-280.020
738,43622.655000,244.139,1.509,38.848,505.238,104.380,-145.084,-436.040,254.510,-228.020
739,43622.690000,236.232,-11.568,61.759,502.425,113.133,-142.934,-444.040,-15.490,-207.020
740,43622.730000,243.151,-6.538,65.743,498.654,124.616,-148.571,-522.040,-496.490,-264.020
741,43622.770000,240.185,6.538,48.809,492.842,127.127,-164.218,-714.040,-868.490,-266.020
742,43622.810000,259.954,34.703,16.934,481.299,138.212,-184.590,-999.040,-1208.490,-140.020
743,43622.853000,302.456,19.615,5.977,467.802,147.335,-205.010,-1130.040,-1276.490,49.980
744,43622.893000,337.050,-27.662,28.887,460.371,180.161,-209.201,-4035.040,-1145.490,566.980
745,43622.913000,267.861,-61.862,-171.331,453.984,215.478,-188.817,-6004.040,-1530.490,925.980
746,43622.951000,215.475,-61.862,-95.626,447.481,240.892,-177.479,-4727.040,-1881.490,730.980
747,43622.991000,81.050,48.786,-69.728,437.838,244.616,-180.359,-1336.040,-1308.490,582.980
748,43623.31000,123.552,194.640,137.463,434.839,234.858,-181.563,-466.040,-166.490,344.980
749,43623.71000,426.996,228.841,-110.568,438.884,249.782,-166.513,341.960,521.510,-178.020
750,43623.113000,391.413,18.609,-28.887,436.928,247.800,-167.542,-220.040,-160.490,-220.020
751,43623.159000,320.247,94.051,-79.689,437.832,241.919,-170.612,-321.040,-422.490,370.980
752,43623.190000,173.961,-37.721,-429.323,434.938,243.725,-175.482,-1066.040,-745.490,298.980
753,43623.211000,181.869,-276.118,-492.078,433.095,254.278,-180.155,-1876.040,-1996.490,459.980
754,43623.251000,75.120,-182.570,-378.521,409.881,259.380,-202.645,-2376.040,-2824.490,824.980
755,43623.301000,66.224,-184.582,-128.498,387.628,264.428,-228.077,-1671.040,-2909.490,1210.980
756,43623.335000,29.653,-136.299,-105.588,375.875,254.132,-249.905,-1343.040,-2341.490,1526.980
757,43623.381000,92.911,-107.128,80.685,380.376,220.134,-253.592,-11.040,-217.490,1951.980
758,43623.414000,168.031,-20.621,-19.922,411.148,193.122,-215.881,246.960,1758.510,1675.980
759,43623.458000,460.602,202.688,-172.327,442.251,192.172,-140.326,-2495.040,2882.510,608.980
760,43623.496000,512.988,103.104,-226.117,453.018,196.115,-98.047,-19.040,2976.510,324.980
761,43623.529000,407.228,-63.874,-18.926,460.839,194.335,-50.018,258.960,1918.510,24.980
762,43623.551000,327.166,117.187,-12.949,463.736,188.150,-23.671,416.960,1460.510,44.980
763,43623.591000,280.710,43.756,-33.868,460.892,188.682,1.832,536.960,1222.510,171.980
764,43623.631000,242.162,-49.792,-24.903,464.808,190.036,17.561,-5.040,566.510,139.980
765,43623.669000,228.324,-31.686,-33.868,465.807,191.232,27.396,-324.040,237.510,-109.020
766,43623.713000,245.127,14.585,-33.868,462.915,193.059,23.508,60.960,-46.490,-157.020
767,43623.756000,239.197,2.515,-27.891,460.914,187.129,19.449,-165.040,-406.490,-126.020
768,43623.795000,245.127,2.515,3.984,456.100,193.468,0.947,-152.040,-1109.490,-125.020
769,43623.844000,375.598,67.898,10.957,456.087,198.624,-29.339,-53.040,-1630.490,-40.020
770,43623.866000,488.278,84.998,73.712,454.054,198.541,-76.417,29.960,-2071.490,12.980
771,43623.904000,438.857,-14.585,62.755,443.329,202.041,-133.240,-386.040,-2608.490,-182.020
772,43623.934000,308.386,-3.521,-190.257,419.949,198.514,-195.149,1602.960,-2641.490,-476.020
773,43623.974000,112.680,-35.709,8.965,415.028,195.015,-219.754,1298.960,-719.490,-875.020
774,43624.16000,12.849,-1.509,85.665,413.105,197.758,-226.562,1865.960,875.510,-1238.020
775,43624.55000,29.653,-19.615,4.981,418.172,217.610,-208.458,1430.960,2237.510,-1581.020
776,43624.95000,69.189,-67.898,-75.704,435.820,234.996,-175.673,2209.960,3056.510,-1849.020
777,43624.141000,207.568,-135.293,-196.233,442.756,245.440,-145.027,3497.960,3472.510,-2189.020
778,43624.181000,313.328,-212.747,-274.926,445.741,254.184,-145.807,5394.960,3087.510,-2235.020
779,43624.203000,345.946,-339.489,-461.198,444.664,249.601,-177.292,5944.960,1679.510,-1462.020
780,43624.233000,287.629,53.815,-441.276,443.426,227.629,-205.241,4019.960,450.510,-201.020
781,43624.275000,311.351,169.493,-27.891,453.925,209.631,-189.928,-597.040,470.510,717.980
782,43624.321000,317.282,87.010,-15.938,458.740,205.061,-179.232,-428.040,202.510,347.980
783,43624.356000,233.266,-16.597,-30.879,461.498,189.620,-176.627,536.960,255.510,327.980
784,43624.396000,256.000,7.544,-5.977,469.188,184.820,-177.698,736.960,289.510,286.980
785,43624.439000,257.977,43.756,3.984,471.902,165.431,-178.122,711.960,211.510,246.980
786,43624.473000,257.977,1.509,9.961,474.821,167.379,-179.053,415.960,11.510,256.980
787,43624.493000,256.000,-13.580,-7.969,478.581,157.557,-186.128,509.960,-202.490,208.980
788,43624.533000,258.965,14.585,-30.879,473.619,145.752,-191.304,252.960,-184.490,115.980
789,43624.573000,251.058,17.603,-37.852,474.611,149.516,-197.102,157.960,-48.490,136.980
790,43624.626000,250.069,7.544,-17.930,475.448,135.954,-196.421,286.960,17.510,218.980
791,43624.655000,247.104,-7.544,-12.949,476.348,130.031,-201.454,588.960,-39.490,187.980
792,43624.693000,254.023,-18.609,-19.922,481.122,124.188,-204.515,654.960,-129.490,119.980
793,43624.734000,261.931,11.568,-44.825,476.215,118.186,-210.543,536.960,-119.490,47.980
794,43624.776000,260.942,8.550,-49.805,479.015,107.557,-209.792,300.960,41.510,38.980
795,43624.813000,250.069,-4.527,-29.883,478.081,110.503,-207.768,374.960,175.510,27.980
796,43624.839000,108.726,198.664,25.899,481.770,92.957,-213.052,1282.960,134.510,122.980
797,43624.875000,241.174,-7.544,5.977,480.779,90.963,-215.060,-55.040,-65.490,57.980
798,43624.924000,242.162,-3.521,15.938,476.803,80.224,-216.288,182.960,-113.490,-86.020
799,43624.953000,256.988,-28.668,4.981,471.983,83.866,-225.043,179.960,-366.490,-150.020
800,43624.995000,274.780,-23.639,23.907,465.250,90.338,-236.681,414.960,-612.490,-308.020
801,43625.33000,298.502,38.727,0.000,454.615,95.584,-258.162,778.960,-986.490,-606.020
802,43625.73000,361.761,37.721,6.973,441.125,105.657,-279.541,646.960,-818.490,-682.020
803,43625.116000,250.069,-21.627,-70.724,424.644,106.921,-303.084,1024.960,-785.490,-863.020
804,43625.156000,161.112,30.680,-149.416,408.204,111.227,-320.675,1095.960,-647.490,-663.020
805,43625.176000,104.772,-37.721,-125.510,408.134,106.157,-330.594,961.960,-248.490,-179.020
806,43625.216000,105.761,-7.544,-123.518,402.200,93.414,-333.831,1040.960,142.510,105.980
807,43625.253000,139.367,61.862,-91.642,406.921,80.021,-327.254,-592.040,316.510,278.980
808,43625.295000,244.139,41.745,-170.335,420.514,83.259,-318.328,-638.040,320.510,420.980
809,43625.335000,272.803,69.910,-75.704,427.263,77.824,-303.724,-624.040,370.510,418.980
810,43625.380000,299.490,-17.603,-44.825,438.838,71.443,-290.112,-4.040,719.510,599.980
811,43625.415000,337.050,-23.639,-17.930,458.086,56.572,-268.827,130.960,1011.510,607.980
812,43625.456000,251.058,-49.792,-32.872,470.615,47.439,-248.409,-99.040,893.510,286.980
813,43625.476000,255.012,-36.715,-17.930,478.401,49.715,-236.575,-160.040,719.510,82.980
814,43625.518000,256.988,-31.686,-5.977,485.209,51.010,-224.764,-97.040,563.510,-134.020
815,43625.558000,254.023,11.568,-8.965,488.209,58.137,-210.870,-166.040,394.510,-160.020
816,43625.598000,258.965,10.562,0.000,488.331,68.989,-202.783,-538.040,170.510,-88.020
817,43625.638000,251.058,-18.609,-13.946,492.285,77.764,-202.580,-696.040,118.510,-114.020
818,43625.678000,254.023,-5.532,-15.938,491.378,81.854,-192.685,-655.040,203.510,-243.020
819,43625.718000,255.012,2.515,-4.981,487.670,97.458,-187.443,-605.040,224.510,-247.020
820,43625.758000,249.081,0.503,14.942,495.421,97.641,-182.519,-523.040,110.510,-253.020
821,43625.794000,245.127,-0.503,21.914,488.776,110.240,-180.292,-551.040,-85.490,-278.020
822,43625.818000,241.174,6.538,55.782,484.142,132.393,-185.694,-852.040,-458.490,-345.020
823,43625.858000,255.012,58.845,25.899,477.485,147.516,-201.063,-1358.040,-1002.490,-303.020
824,43625.896000,313.328,46.774,46.817,460.184,162.513,-217.438,-1787.040,-1273.490,-62.020
825,43625.931000,348.911,-75.945,5.977,453.785,198.607,-205.863,-4674.040,-1236.490,767.980
826,43625.974000,273.792,-62.868,-245.043,453.057,220.258,-191.655,-6177.040,-1688.490,1044.980
827,43626.15000,190.764,-65.886,-43.829,438.840,247.603,-177.349,-3936.040,-1881.490,941.980
828,43626.56000,115.645,14.585,-28.887,436.934,251.381,-181.191,-1675.040,-1260.490,893.980
829,43626.96000,142.332,103.104,142.444,439.783,242.974,-167.643,-1683.040,357.510,945.980
830,43626.118000,345.946,323.395,-281.899,447.602,244.689,-137.188,-1847.040,134.510,457.980
831,43626.158000,341.992,250.971,-56.778,450.565,249.701,-131.186,-241.040,207.510,-173.020
832,43626.191000,266.873,-12.574,-102.599,452.479,248.641,-136.109,585.960,-116.490,-94.020
833,43626.236000,227.336,-46.774,-479.128,447.596,246.393,-147.937,-41.040,-862.490,116.980
834,43626.275000,171.985,-201.682,-486.101,435.977,248.826,-164.579,-2229.040,-1956.490,519.980
835,43626.324000,90.934,-185.587,-241.058,420.478,249.365,-177.348,-2893.040,-2582.490,816.980
836,43626.359000,74.131,-185.587,-154.397,407.936,255.737,-190.962,-2066.040,-2328.490,1185.980
837,43626.429000,88.958,-180.558,-109.572,400.986,240.763,-207.000,-960.040,-1730.490,1305.980
838,43626.444000,135.413,-141.328,-28.887,414.182,206.742,-215.573,56.960,-363.490,1729.980
839,43626.476000,178.903,-58.845,91.642,428.515,183.151,-191.550,-18.040,820.510,1535.980
840,43626.498000,322.224,137.305,58.770,445.894,171.541,-153.525,-1106.040,2718.510,1005.980
841,43626.534000,512.988,315.348,-492.078,463.447,172.163,-88.750,-1319.040,1718.510,283.980
842,43626.581000,400.309,-56.833,-32.872,466.377,165.417,-43.783,386.960,1641.510,68.980
843,43626.616000,289.606,127.246,-20.918,469.359,167.969,-17.243,762.960,1402.510,21.980
844,43626.661000,290.595,25.650,10.957,473.252,165.590,5.268,33.960,797.510,195.980
845,43626.704000,260.942,-20.621,-24.903,467.435,163.657,8.155,-236.040,178.510,157.980
846,43626.739000,253.035,-29.674,-65.743,471.229,155.928,7.991,-207.040,-121.490,-40.020
847,43626.773000,245.127,-13.580,-79.689,470.370,166.641,10.188,-22.040,-43.490,-106.020
848,43626.798000,249.081,-16.597,-74.708,468.469,170.462,8.308,-221.040,25.510,-166.020
849,43626.835000,236.232,-20.621,-34.864,469.478,174.398,10.359,-291.040,-135.490,-189.020
850,43626.915000,241.174,-1.509,-2.988,466.525,171.242,0.476,-244.040,-520.490,-145.020
851,43626.933000,352.865,68.904,18.926,466.549,179.397,-25.821,-383.040,-1265.490,-92.020
852,43626.956000,470.486,115.175,123.518,465.487,177.597,-63.128,-285.040,-1774.490,-28.020
853,43626.999000,411.181,-121.210,-85.665,458.682,182.494,-102.260,-559.040,-2877.490,-266.020
854,43627.44000,285.652,2.515,-122.521,441.192,186.876,-160.059,1500.960,-2085.490,-482.020
855,43627.78000,92.911,-25.650,2.988,430.380,178.100,-201.464,1352.960,-635.490,-962.020
856,43627.99000,38.548,-11.568,86.661,428.580,193.464,-207.992,1490.960,788.510,-1243.020
857,43627.139000,52.386,-15.591,-1.992,429.773,211.488,-183.073,707.960,2115.510,-1525.020
858,43627.176000,121.575,-49.792,-20.918,444.648,240.647,-143.168,1680.960,3065.510,-1732.020
859,43627.214000,284.664,-181.564,-111.564,446.703,247.980,-119.465,3114.960,3734.510,-1945.020
860,43627.255000,315.305,-172.511,-260.981,449.837,268.720,-104.288,5984.960,3549.510,-2091.020
861,43627.298000,342.981,-206.711,-302.817,450.748,267.306,-124.911,6610.960,2447.510,-1617.020
862,43627.340000,259.954,-219.788,-492.078,444.717,253.636,-170.338,4240.960,162.510,-581.020
863,43627.383000,252.046,-17.603,191.253,456.105,231.376,-172.769,263.960,522.510,636.980
864,43627.395000,324.201,2.515,30.879,462.740,215.153,-163.309,-550.040,161.510,584.980
865,43627.438000,243.151,50.798,-19.922,465.602,211.276,-164.369,606.960,227.510,180.980
866,43627.478000,258.965,37.721,-22.911,467.480,205.470,-164.494,784.960,385.510,358.980
867,43627.518000,256.988,14.585,-7.969,475.069,189.127,-160.918,652.960,394.510,341.980
868,43627.558000,252.046,-1.509,-5.977,481.774,181.512,-157.151,385.960,319.510,262.980
869,43627.599000,255.012,5.532,11.953,484.660,179.620,-156.206,398.960,99.510,151.980
870,43627.644000,250.069,9.556,3.984,484.481,162.058,-160.519,244.960,-184.490,196.980
871,43627.680000,244.139,10.562,-2.988,480.624,164.782,-167.331,218.960,-273.490,288.980
872,43627.719000,247.104,9.556,-18.926,484.377,154.896,-177.349,336.960,-283.490,308.980
873,43627.740000,255.012,-10.562,-22.911,483.288,144.034,-185.438,644.960,-295.490,274.980
874,43627.776000,258.965,-17.603,-32.872,485.132,137.020,-196.377,707.960,-311.490,200.980
875,43627.815000,259.954,-9.556,-46.817,483.026,120.388,-201.654,592.960,-203.490,86.980
876,43627.860000,256.000,-2.515,-40.840,482.015,118.200,-212.492,355.960,-98.490,56.980
877,43627.895000,251.058,2.515,-37.852,482.963,116.267,-212.533,249.960,-26.490,20.980
878,43627.940000,249.081,-13.580,-27.891,482.966,116.289,-211.551,425.960,-35.490,-16.020
879,43627.986000,253.035,-0.503,-31.875,480.970,110.402,-213.648,418.960,-7.490,-38.020
880,43628.15000,255.012,-24.644,-26.895,480.932,107.403,-217.637,210.960,-45.490,-36.020
881,43628.35000,267.861,-13.580,3.984,477.063,108.250,-221.549,356.960,-169.490,-175.020
882,43628.74000,283.676,-37.721,21.914,470.325,113.793,-231.247,610.960,-457.490,-432.020
883,43628.116000,338.039,88.016,-2.988,461.622,118.153,-249.801,1211.960,-463.490,-749.020
884,43628.158000,283.676,4.527,-31.875,453.800,113.763,-269.528,1618.960,-631.490,-661.020
885,43628.201000,214.486,-31.686,-110.568,437.174,99.557,-290.472,1507.960,-696.490,-419.020
886,43628.236000,175.938,-104.110,-113.556,433.160,86.683,-300.573,1576.960,-471.490,98.980
887,43628.280000,138.378,-37.721,-89.650,432.014,69.996,-308.791,779.960,-94.490,365.980
888,43628.320000,142.332,-38.727,-101.603,432.993,70.998,-307.786,-927.040,-7.490,485.980
889,43628.358000,167.042,-52.809,-103.595,434.890,66.249,-303.965,-1064.040,-43.490,623.980
890,43628.374000,278.734,134.287,-112.560,441.675,65.559,-294.159,-796.040,321.510,259.980
891,43628.415000,257.977,41.745,-56.778,445.576,65.899,-280.414,-262.040,429.510,107.980
892,43628.459000,315.305,-10.562,-24.903,450.377,59.431,-267.799,283.960,752.510,333.980
893,43628.500000,268.849,-21.627,-28.887,460.974,52.069,-254.211,-40.040,488.510,259.980
894,43628.534000,231.290,-53.815,-42.833,468.708,49.448,-244.446,-73.040,400.510,143.980
895,43628.580000,259.954,-77.957,-15.938,475.461,45.803,-236.668,49.960,395.510,-32.020
896,43628.614000,273.792,2.515,-0.996,480.339,48.008,-226.802,125.960,410.510,-168.020
897,43628.654000,252.046,-14.585,-15.938,481.299,46.183,-221.937,-161.040,94.510,-30.020
898,43628.674000,248.093,-30.680,-17.930,481.374,53.950,-221.764,-306.040,21.510,-74.020
899,43628.714000,254.023,-22.633,-45.821,482.424,62.676,-222.549,-488.040,-34.490,-213.020
900,43628.768000,246.116,-17.603,-34.864,478.691,76.273,-220.294,-375.040,200.510,-278.020
901,43628.796000,261.931,16.597,-36.856,483.570,78.478,-210.428,-398.040,265.510,-296.020
902,43628.836000,256.000,16.597,-33.868,479.855,93.132,-204.227,-601.040,217.510,-249.020
903,43628.874000,252.046,5.532,-9.961,482.966,113.657,-198.861,-819.040,116.510,-248.020
904,43628.918000,258.965,-10.562,16.934,481.175,127.338,-193.658,-964.040,-12.490,-319.020
905,43628.959000,253.035,25.650,27.891,478.424,143.728,-197.223,-1408.040,-426.490,-457.020
906,43629.1000,245.127,64.880,50.802,469.896,162.090,-196.833,-2172.040,-926.490,-334.020
907,43629.26000,349.900,-80.974,0.000,459.561,194.866,-202.011,-4682.040,-1449.490,453.980
908,43629.61000,318.270,-82.986,-142.444,450.352,236.217,-170.712,-7470.040,-2081.490,844.980
909,43629.101000,318.270,-104.110,-155.393,437.198,272.395,-152.285,-6293.040,-2524.490,726.980
910,43629.141000,158.147,-82.986,-31.875,433.316,272.249,-157.200,-1204.040,-1577.490,825.980
911,43629.178000,186.811,106.122,252.016,437.072,257.983,-145.741,-1039.040,97.510,1080.980
912,43629.218000,319.259,249.965,-165.354,444.833,256.505,-128.105,-1732.040,-26.490,684.980
913,43629.260000,242.162,148.369,-145.432,450.714,261.696,-115.229,-663.040,-102.490,90.980
914,43629.299000,214.486,-90.028,-427.331,447.778,260.460,-126.050,1125.960,-750.490,27.980
915,43629.353000,184.834,-78.963,-441.276,438.889,249.825,-164.551,435.960,-1671.490,327.980
916,43629.366000,124.541,-126.240,-305.805,418.513,248.182,-186.205,-2601.040,-2680.490,762.980
917,43629.395000,79.073,-116.181,-131.486,400.136,252.447,-204.781,-2184.040,-2676.490,978.980
918,43629.445000,85.004,-125.234,-91.642,388.496,252.032,-218.544,-1059.040,-1668.490,1136.980
919,43629.603000,119.598,-128.251,49.805,395.063,231.645,-221.925,484.960,-195.490,1610.980
920,43629.671000,202.625,21.627,74.708,423.723,189.706,-200.240,1043.960,1568.510,1606.980
921,43629.724000,375.598,50.798,-273.930,450.765,171.911,-138.796,-1517.040,2918.510,907.980
922,43629.778000,512.988,181.564,-226.117,457.643,170.359,-79.977,173.960,2860.510,61.980
923,43629.787000,402.286,-92.039,-20.918,462.635,178.928,-45.453,-12.040,1554.510,-19.020
924,43629.787000,281.699,111.151,-15.938,463.677,180.534,-16.976,583.960,1359.510,28.980
925,43629.805000,288.618,99.081,-49.805,467.553,176.235,6.473,203.960,950.510,182.980
926,43629.821000,256.988,-47.780,-33.868,466.580,173.529,16.217,119.960,718.510,119.980
927,43629.828000,241.174,-32.692,-51.798,468.480,167.053,29.807,-86.040,465.510,-151.020
928,43629.835000,241.174,0.503,-17.930,460.860,177.808,36.894,82.960,304.510,-168.020
929,43629.864000,233.266,-12.574,-8.965,465.773,185.622,37.078,-156.040,-230.490,-137.020
930,43629.916000,236.232,-13.580,-19.922,465.763,187.284,24.366,-364.040,-651.490,-176.020
931,43629.939000,257.977,11.568,-16.934,463.736,181.979,4.631,-381.040,-1117.490,-118.020
932,43629.965000,328.154,64.880,-14.942,465.687,187.435,-12.896,-189.040,-1453.490,-82.020
933,43629.999000,448.741,83.992,59.767,459.795,187.422,-55.077,-51.040,-1821.490,-2.020
934,43630.40000,474.440,47.780,80.685,451.912,183.334,-105.198,-413.040,-2570.490,-26.020
935,43630.83000,354.842,-97.069,-207.191,438.358,195.435,-166.740,11.960,-2644.490,-498.020
936,43630.115000,246.116,31.686,-59.767,424.651,187.579,-209.111,1808.960,-1029.490,-600.020
937,43630.158000,138.378,-5.532,18.926,414.916,186.018,-231.722,1840.960,88.510,-1080.020
938,43630.198000,60.293,27.662,14.942,420.011,209.668,-217.457,837.960,1485.510,-1448.020
939,43630.238000,71.166,-22.633,-53.790,426.946,221.859,-195.597,674.960,2532.510,-1738.020
940,43630.278000,167.042,-142.334,-143.440,438.007,255.921,-151.669,1954.960,3342.510,-2053.020
941,43630.304000,284.664,-218.782,-262.973,445.003,273.980,-127.717,4181.960,3508.510,-2060.020
942,43630.340000,290.595,-196.652,-295.844,442.993,267.964,-135.700,5504.960,2447.510,-1510.020
943,43630.385000,296.525,-167.481,-492.078,439.935,260.277,-175.104,4787.960,705.510,-1016.020
944,43630.420000,237.220,-97.069,160.374,446.569,247.570,-182.236,1435.960,472.510,461.980
945,43630.460000,293.560,45.768,-14.942,452.312,239.989,-176.509,-185.040,318.510,596.980
946,43630.503000,277.745,52.809,-36.856,455.090,225.627,-168.976,71.960,278.510,240.980
947,43630.541000,260.942,41.745,-27.891,461.818,220.861,-168.087,550.960,359.510,251.980
948,43630.586000,261.931,35.709,-24.903,463.613,206.338,-167.425,693.960,376.510,296.980
949,43630.601000,252.046,2.515,-15.938,471.256,195.799,-164.701,594.960,355.510,347.980
950,43630.641000,262.919,12.574,-22.911,476.999,189.102,-162.876,592.960,287.510,245.980
951,43630.688000,257.977,9.556,-21.914,480.722,173.649,-161.250,388.960,168.510,173.980
952,43630.734000,258.965,5.532,-19.922,483.644,175.619,-161.200,300.960,173.510,161.980
953,43630.763000,249.081,-11.568,-3.984,483.570,166.989,-156.488,43.960,112.510,114.980
954,43630.803000,249.081,24.644,-7.969,484.521,165.079,-155.548,131.960,82.510,158.980
955,43630.843000,244.139,5.532,-3.984,489.316,161.199,-157.585,265.960,-48.490,250.980
956,43630.879000,247.104,-2.515,-6.973,487.264,150.371,-163.714,341.960,-171.490,223.980
957,43630.921000,252.046,-16.597,-13.946,483.258,137.583,-169.890,444.960,-252.490,178.980
958,43630.944000,255.012,-8.550,-25.899,485.168,137.365,-180.678,476.960,-303.490,93.980
959,43630.983000,256.000,-7.544,-31.875,484.081,126.525,-187.786,378.960,-287.490,93.980
960,43631.19000,256.988,-32.692,-31.875,481.230,134.026,-198.413,365.960,-244.490,72.980
961,43631.64000,258.965,-19.615,-39.844,482.082,123.248,-203.554,687.960,-167.490,16.980
962,43631.101000,248.093,-1.509,-24.903,478.180,121.139,-209.493,182.960,-194.490,-55.020
963,43631.139000,253.035,-28.668,-33.868,474.306,121.943,-215.367,196.960,-136.490,-170.020
964,43631.179000,255.012,-29.674,-5.977,469.500,126.599,-222.138,573.960,-241.490,-316.020
965,43631.219000,270.826,1.509,-1.992,467.531,125.372,-232.957,703.960,-566.490,-343.020
966,43631.241000,370.656,6.538,17.930,459.730,122.061,-247.757,595.960,-665.490,-481.020
967,43631.281000,363.737,36.715,9.961,445.298,133.246,-262.249,650.960,-496.490,-648.020
968,43631.319000,228.324,70.916,-162.366,430.807,140.354,-285.657,1680.960,-719.490,-996.020
969,43631.359000,169.019,82.986,-202.210,420.024,130.089,-306.502,2098.960,-346.490,-797.020
970,43631.399000,87.969,-81.980,-106.584,425.685,116.445,-311.696,1996.960,239.510,-340.020
971,43631.441000,94.888,97.069,-125.510,431.491,114.754,-302.895,304.960,460.510,-252.020
972,43631.481000,147.274,-51.804,-176.311,435.446,122.645,-298.789,-696.040,103.510,-189.020
973,43631.519000,184.834,34.703,18.926,441.177,114.956,-297.967,-41.040,466.510,238.980
974,43631.561000,362.749,-8.550,-31.875,448.009,118.237,-284.151,-971.040,36.510,381.980
975,43631.581000,333.097,6.538,-57.774,455.669,107.870,-273.577,-157.040,349.510,643.980
976,43631.619000,308.386,-35.709,-5.977,469.045,87.894,-261.244,161.960,588.510,703.980
977,43631.659000,284.664,-62.868,-11.953,484.445,76.718,-246.750,69.960,651.510,360.980
978,43631.705000,272.803,-46.774,-12.949,483.478,74.077,-234.062,46.960,531.510,-18.020
979,43631.741000,278.734,49.792,4.981,489.245,69.365,-230.232,34.960,360.510,-76.020
980,43631.784000,257.977,10.562,-24.903,494.114,71.484,-224.290,-93.040,177.510,55.980
981,43631.824000,258.965,-21.627,-39.844,496.112,76.508,-217.310,-145.040,195.510,4.980
982,43631.859000,244.139,-13.580,-20.918,498.142,84.488,-208.303,-473.040,258.510,-110.020
983,43631.879000,244.139,-20.621,-19.922,499.180,90.452,-202.284,-680.040,235.510,-210.020
984,43631.919000,254.023,1.509,-6.973,496.350,96.400,-195.293,-519.040,180.510,-170.020
985,43631.961000,250.069,0.503,5.977,497.421,107.088,-195.054,-525.040,12.510,-163.020
986,43632.0,247.104,7.544,17.930,496.557,117.759,-194.819,-638.040,-276.490,-147.020
987,43632.40000,254.023,-2.515,11.953,490.825,127.195,-204.428,-646.040,-555.490,-130.020
988,43632.80000,253.035,7.544,4.981,481.222,137.478,-217.949,-883.040,-914.490,-41.020
989,43632.120000,270.826,-20.621,-4.981,468.650,141.800,-236.513,-1141.040,-1041.490,142.980
990,43632.160000,282.687,-33.697,-23.907,459.127,159.009,-243.996,-1954.040,-914.490,334.980
991,43632.200000,240.185,2.515,-72.716,455.430,177.353,-246.539,-2315.040,-824.490,362.980
992,43632.223000,205.591,37.721,-106.584,449.816,195.851,-241.236,-2280.040,-586.490,284.980
993,43632.258000,210.533,42.750,-97.619,445.166,213.452,-233.010,-1980.040,-349.490,265.980
994,43632.298000,237.220,62.868,-82.677,447.163,217.591,-222.127,-1406.040,-136.490,137.980
995,43632.341000,247.104,64.880,-75.704,442.429,225.570,-210.192,-565.040,68.510,-25.020
996,43632.383000,244.139,55.827,-77.696,442.461,228.525,-208.165,-177.040,150.510,-81.020
997,43632.423000,246.116,13.580,-61.759,442.546,236.379,-204.068,-138.040,174.510,-43.020
998,43632.463000,241.174,19.615,-60.763,445.419,232.610,-200.223,-166.040,144.510,-1.020
999,43632.501000,244.139,30.680,-64.747,448.350,235.551,-200.151,-62.040,121.510,-21.020
1000,43632.524000,245.127,8.550,-56.778,447.332,228.896,-193.436,-23.040,107.510,-44.020
1001,43632.564000,249.081,22.633,-60.763,444.510,236.678,-191.308,-57.040,90.510,-73.020
1002,43632.600000,244.139,30.680,-59.767,443.604,242.537,-189.219,-67.040,90.510,-85.020
1003,43632.640000,242.162,33.697,-57.774,445.557,243.613,-185.268,-74.040,95.510,-51.020
1004,43632.680000,245.127,33.697,-56.778,444.547,239.677,-187.319,-61.040,80.510,-24.020
1005,43632.720000,247.104,31.686,-50.802,446.503,240.774,-182.387,-53.040,52.510,-14.020
1006,43632.764000,247.104,27.662,-51.798,443.648,245.600,-182.286,-43.040,33.510,-18.020
1007,43632.804000,246.116,25.650,-54.786,444.587,242.697,-182.349,-17.040,9.510,-28.020
1008,43632.845000,246.116,35.709,-55.782,444.655,249.515,-181.217,22.960,7.510,-35.020
