Sample, Time, ACCX, ACCY, ACCZ, MAGX, MAGY, MAGZ, GYRX, GYRY, GYRZ
0,43594.886000,247.018,-17.534,45.643,451.300,-289.088,101.620,76.850,11.630,16.070
1,43594.905000,245.021,-18.536,47.628,450.382,-285.346,100.739,83.850,8.630,8.070
2,43594.948000,244.023,-17.534,46.636,451.396,-282.469,101.805,82.850,3.630,8.070
3,43594.988000,246.020,-17.534,44.651,450.361,-287.158,103.640,85.850,-23.370,13.070
4,43595.22000,247.018,-17.534,45.643,447.502,-283.443,102.755,70.850,-33.370,23.070
5,43595.62000,249.014,-16.532,45.643,452.318,-286.159,104.654,55.850,-32.370,27.070
6,43595.104000,249.014,-17.534,43.659,445.604,-280.607,103.814,36.850,-21.370,21.070
7,43595.144000,247.018,-16.532,44.651,451.310,-288.957,106.542,5.850,-17.370,17.070
8,43595.196000,249.014,-18.536,47.628,446.486,-286.346,100.705,-14.150,-26.370,9.070
9,43595.205000,249.014,-16.532,44.651,448.447,-285.294,103.688,-33.150,-24.370,8.070
10,43595.245000,250.012,-19.538,44.651,448.460,-284.349,103.715,-44.150,-18.370,7.070
11,43595.285000,249.014,-20.540,44.651,451.368,-284.360,101.752,-59.150,-25.370,11.070
12,43595.324000,247.018,-20.540,44.651,448.425,-286.345,99.725,-68.150,-16.370,10.070
13,43595.364000,245.021,-23.546,44.651,449.417,-284.519,96.826,-73.150,-12.370,1.070
14,43595.404000,245.021,-21.542,44.651,450.307,-290.153,97.655,-49.150,-26.370,1.070
15,43595.444000,245.021,-22.544,45.643,448.466,-283.508,99.804,-57.150,-25.370,-3.930
16,43595.484000,244.023,-24.548,45.643,447.479,-283.733,91.927,-54.150,-42.370,-13.930
17,43595.505000,246.020,-25.550,45.643,445.458,-289.408,92.749,-50.150,-35.370,-28.930
18,43595.545000,247.018,-29.558,41.674,446.408,-290.418,89.772,-88.150,-37.370,-41.930
19,43595.585000,250.012,-25.550,41.674,446.475,-285.717,88.919,-55.150,-19.370,-43.930
20,43595.625000,257.996,-30.560,38.698,449.493,-278.163,87.167,3.850,-30.370,-9.930
21,43595.673000,256.000,-29.558,36.713,453.254,-286.592,87.923,11.850,-12.370,19.070
22,43595.707000,248.016,-24.548,37.705,446.503,-283.825,88.972,7.850,12.630,48.070
23,43595.747000,250.012,-21.542,38.698,451.344,-284.676,89.940,-5.150,13.630,36.070
24,43595.787000,251.010,-23.546,40.682,450.289,-290.390,88.796,-0.150,30.630,-5.930
25,43595.807000,246.020,-25.550,47.628,448.469,-281.933,88.044,-15.150,24.630,-8.930
26,43595.853000,245.021,-24.548,44.651,444.453,-291.392,89.741,-43.150,0.630,1.070
27,43595.887000,245.021,-28.556,44.651,445.499,-286.571,92.828,16.850,-14.370,-1.930
28,43595.925000,247.018,-28.556,43.659,449.348,-288.486,89.830,36.850,-15.370,-2.930
29,43595.966000,250.012,-20.540,42.667,449.425,-283.652,93.900,47.850,0.630,-8.930
30,43596.7000,253.006,-23.546,37.705,452.232,-290.336,89.784,77.850,13.630,-8.930
31,43596.46000,253.006,-19.538,41.674,448.413,-286.503,93.819,80.850,38.630,3.070
32,43596.87000,249.014,-20.540,44.651,452.272,-288.287,95.743,86.850,26.630,7.070
33,43596.107000,250.012,-18.536,43.659,450.378,-285.398,98.771,67.850,38.630,17.070
34,43596.154000,246.020,-20.540,46.636,447.468,-285.413,99.749,54.850,58.630,18.070
35,43596.189000,246.020,-20.540,45.643,445.568,-282.604,99.824,23.850,43.630,11.070
36,43596.229000,249.014,-19.538,44.651,448.384,-289.182,99.646,22.850,51.630,4.070
37,43596.269000,250.012,-21.542,45.643,446.507,-285.295,104.669,-2.150,38.630,-3.930
38,43596.309000,247.018,-20.540,47.628,448.392,-289.077,103.583,-9.150,36.630,-4.930
39,43596.346000,241.029,-21.542,52.589,448.368,-290.915,105.499,-17.150,29.630,-16.930
40,43596.387000,243.025,-19.538,49.612,450.390,-285.240,104.677,-19.150,20.630,-26.930
41,43596.407000,249.014,-21.542,45.643,452.382,-281.483,102.817,-14.150,31.630,-21.930
42,43596.458000,255.002,-21.542,41.674,450.327,-289.890,107.498,-0.150,28.630,-22.930
43,43596.494000,253.006,-17.534,44.651,445.551,-284.364,104.693,7.850,34.630,-7.930
44,43596.523000,245.021,-20.540,49.612,445.566,-283.392,105.704,15.850,29.630,17.070
45,43596.568000,245.021,-20.540,50.605,443.672,-280.503,108.732,35.850,12.630,25.070
46,43596.608000,242.027,-18.536,49.612,444.641,-280.516,107.749,56.850,11.630,27.070
47,43596.648000,244.023,-21.542,54.574,442.658,-283.380,107.666,51.850,0.630,19.070
48,43596.690000,241.029,-21.542,55.566,445.565,-284.179,111.583,27.850,-27.370,7.070
49,43596.715000,246.020,-23.546,51.597,446.529,-284.245,108.632,3.850,-52.370,-2.930
50,43596.743000,249.014,-28.556,50.605,449.480,-281.393,107.733,18.850,-32.370,-9.930
51,43596.785000,250.012,-26.552,45.643,448.488,-283.219,110.631,-10.150,-15.370,-12.930
52,43596.825000,256.998,-23.546,42.667,447.415,-289.931,107.492,23.850,-14.370,-8.930
53,43596.865000,255.002,-24.548,43.659,443.551,-288.988,109.479,48.850,25.630,12.070
54,43596.910000,247.018,-19.538,46.636,446.602,-279.464,110.733,30.850,45.630,19.070
55,43596.949000,237.037,-13.526,51.597,448.449,-286.029,111.537,-18.150,42.630,33.070
56,43596.970000,240.031,-19.538,52.589,442.580,-289.001,109.477,-58.150,9.630,31.070
57,43597.10000,245.021,-24.548,50.605,442.572,-289.868,112.404,-70.150,-18.370,-4.930
58,43597.50000,242.027,-20.540,49.612,447.488,-285.150,109.592,-54.150,-30.370,-31.930
59,43597.84000,242.027,-18.536,52.589,443.544,-289.067,106.526,-36.150,-47.370,-20.930
60,43597.124000,244.023,-22.544,51.597,448.506,-281.459,105.762,-35.150,-54.370,-19.930
61,43597.164000,254.004,-24.548,42.667,449.396,-287.093,106.591,-5.150,-36.370,-22.930
62,43597.212000,257.996,-18.536,39.690,450.465,-280.433,107.761,22.850,-6.370,-6.930
63,43597.246000,256.000,-20.540,42.667,449.478,-281.419,106.749,35.850,43.630,22.070
64,43597.266000,247.018,-23.546,44.651,446.513,-285.216,107.622,1.850,45.630,29.070
65,43597.307000,242.027,-21.542,48.620,444.676,-278.519,111.739,11.850,45.630,17.070
66,43597.348000,240.031,-22.544,51.597,443.513,-291.772,111.369,49.850,21.630,13.070
67,43597.411000,243.025,-21.542,50.605,448.475,-284.164,110.605,47.850,-20.370,14.070
68,43597.430000,248.016,-18.536,50.605,443.578,-287.096,109.532,42.850,-43.370,7.070
69,43597.466000,245.021,-21.542,47.628,448.376,-290.810,109.436,41.850,-45.370,2.070
70,43597.504000,247.018,-19.538,46.636,445.586,-282.367,108.683,30.850,-56.370,-3.930
71,43597.544000,252.008,-20.540,44.651,445.511,-287.174,105.598,-1.150,-28.370,-3.930
72,43597.567000,251.010,-22.544,44.651,445.519,-287.069,109.536,-13.150,17.630,-4.930
73,43597.610000,251.010,-21.542,43.659,449.329,-291.795,107.443,-29.150,30.630,-0.930
74,43597.644000,249.014,-20.540,46.636,442.674,-282.408,108.677,-44.150,22.630,1.070
75,43597.688000,246.020,-21.542,52.589,444.503,-289.972,107.486,-51.150,21.630,2.070
76,43597.727000,241.029,-21.542,52.589,448.500,-282.299,109.673,-43.150,4.630,0.070
77,43597.769000,242.027,-21.542,49.612,444.604,-283.300,109.639,-44.150,-18.370,-9.930
78,43597.809000,243.025,-22.544,49.612,448.467,-284.270,106.668,-45.150,-51.370,-19.930
79,43597.849000,246.020,-22.544,49.612,451.390,-283.309,105.716,-29.150,-59.370,-25.930
80,43597.869000,249.014,-22.544,46.636,446.431,-290.129,100.600,-25.150,-64.370,-19.930
81,43597.909000,253.006,-21.542,44.651,450.410,-283.454,100.792,-7.150,-46.370,-14.930
82,43597.946000,255.002,-22.544,39.690,447.441,-287.305,99.696,-5.150,-14.370,-11.930
83,43597.987000,256.000,-20.540,37.705,447.513,-282.524,101.797,-14.150,30.630,-2.930
84,43598.27000,254.004,-20.540,42.667,449.415,-285.307,102.706,-8.150,47.630,7.070
85,43598.68000,245.021,-22.544,46.636,448.513,-280.592,102.836,-1.150,42.630,13.070
86,43598.108000,241.029,-21.542,48.620,449.461,-282.417,104.754,-0.150,25.630,9.070
87,43598.148000,242.027,-21.542,48.620,450.445,-281.458,104.782,10.850,17.630,1.070
88,43598.168000,241.029,-21.542,49.612,446.437,-290.050,103.553,17.850,-8.370,-13.930
89,43598.208000,245.021,-21.542,47.628,452.369,-282.429,102.791,27.850,-30.370,-18.930
90,43598.248000,250.012,-20.540,44.651,453.312,-284.306,102.740,30.850,-35.370,-20.930
91,43598.288000,256.000,-18.536,41.674,450.473,-279.567,104.835,24.850,-20.370,-10.930
92,43598.336000,256.000,-17.534,41.674,447.559,-279.634,103.844,-0.150,15.630,0.070
93,43598.371000,251.010,-19.538,43.659,448.527,-279.647,102.862,-29.150,44.630,4.070
94,43598.411000,249.014,-19.538,45.643,446.505,-285.322,103.684,-36.150,52.630,3.070
95,43598.445000,244.023,-19.538,49.612,446.464,-288.159,103.605,-45.150,38.630,6.070
96,43598.465000,242.027,-20.540,50.605,449.417,-285.280,103.690,-49.150,10.630,6.070
97,43598.511000,241.029,-21.542,47.628,449.472,-281.498,103.796,-26.150,-20.370,-6.930
98,43598.557000,244.023,-17.534,48.620,450.390,-285.240,104.677,-15.150,-44.370,-17.930
99,43598.589000,248.016,-17.534,47.628,451.410,-281.523,101.831,-14.150,-54.370,-21.930
100,43598.638000,250.012,-17.534,44.651,451.366,-284.386,100.768,-25.150,-46.370,-12.930
101,43598.668000,254.004,-19.538,40.682,454.278,-284.345,100.774,-26.150,-23.370,-9.930
102,43598.705000,255.002,-19.538,40.682,451.345,-285.437,96.804,-38.150,11.630,-7.930
103,43598.732000,252.008,-18.536,43.659,453.408,-277.687,102.925,-35.150,36.630,1.070
104,43598.771000,246.020,-22.544,47.628,447.553,-279.713,100.891,-33.150,41.630,4.070
105,43598.812000,245.021,-23.546,47.628,450.478,-278.726,100.924,-8.150,30.630,6.070
106,43598.854000,245.021,-23.546,49.612,451.327,-287.197,101.673,20.850,21.630,7.070
107,43598.888000,241.029,-21.542,49.612,451.412,-281.497,102.815,59.850,-7.370,9.070
108,43598.929000,244.023,-20.540,47.628,453.371,-280.471,104.814,68.850,-24.370,3.070
109,43598.965000,249.014,-19.538,46.636,450.467,-279.646,101.882,75.850,-39.370,-2.930
110,43599.30000,252.008,-19.538,44.651,450.418,-283.349,104.729,68.850,-35.370,3.070
111,43599.36000,253.006,-18.536,43.659,449.500,-279.607,103.848,42.850,-10.370,4.070
112,43599.75000,253.006,-17.534,43.659,453.308,-285.120,107.636,9.850,28.630,10.070
113,43599.105000,250.012,-17.534,45.643,448.531,-279.594,104.831,1.850,34.630,11.070
114,43599.148000,244.023,-19.538,45.643,450.455,-280.565,102.840,-5.150,37.630,15.070
115,43599.188000,246.020,-20.540,46.636,446.578,-280.541,105.785,7.850,28.630,14.070
116,43599.228000,242.027,-19.538,48.620,447.555,-280.448,108.740,12.850,10.630,13.070
117,43599.268000,242.027,-18.536,49.612,451.257,-292.713,107.421,26.850,-23.370,1.070
118,43599.308000,244.023,-18.536,47.628,448.524,-280.461,107.757,20.850,-42.370,-9.930
119,43599.326000,245.021,-17.534,47.628,450.398,-285.135,108.614,-8.150,-49.370,-22.930
120,43599.368000,248.016,-16.532,45.643,452.412,-279.565,103.854,-26.150,-47.370,-32.930
121,43599.408000,249.014,-18.536,43.659,450.496,-277.728,102.919,-39.150,-39.370,-40.930
122,43599.448000,256.998,-17.534,40.682,451.412,-281.497,102.815,-66.150,3.630,-35.930
123,43599.488000,255.002,-18.536,42.667,450.374,-286.212,103.666,-67.150,31.630,-17.930
124,43599.529000,252.008,-21.542,45.643,453.447,-274.876,102.019,-45.150,47.630,11.070
125,43599.566000,247.018,-22.544,48.620,452.367,-282.455,101.807,-30.150,52.630,17.070
126,43599.608000,243.025,-20.540,48.620,450.502,-277.649,105.872,-5.150,39.630,18.070
127,43599.628000,242.027,-19.538,50.605,448.486,-282.484,102.783,28.850,10.630,13.070
128,43599.669000,243.025,-16.532,51.597,453.424,-276.715,103.935,40.850,-6.370,3.070
129,43599.707000,244.023,-15.530,50.605,453.316,-284.254,104.709,50.850,-36.370,-2.930
130,43599.747000,247.018,-17.534,48.620,451.500,-275.744,105.926,48.850,-40.370,-8.930
131,43599.789000,250.012,-16.532,42.667,451.459,-278.581,105.847,19.850,-30.370,-14.930
132,43599.838000,256.000,-18.536,43.659,452.459,-276.650,106.886,-18.150,1.630,-16.930
133,43599.874000,255.002,-18.536,42.667,447.547,-280.554,104.802,-34.150,32.630,-9.930
134,43599.906000,253.006,-21.542,44.651,450.516,-276.703,105.898,-46.150,59.630,-0.930
135,43599.926000,248.016,-21.542,46.636,453.353,-282.231,109.683,-38.150,58.630,9.070
136,43599.967000,244.023,-20.540,48.620,453.398,-278.580,104.867,-3.150,38.630,20.070
137,43600.6000,242.027,-18.536,51.597,455.261,-284.173,106.682,15.850,5.630,24.070
138,43600.46000,243.025,-16.532,50.605,453.391,-279.446,107.794,23.850,-23.370,23.070
139,43600.87000,241.029,-16.532,49.612,449.547,-276.691,106.880,38.850,-46.370,11.070
140,43600.127000,247.018,-15.530,47.628,450.483,-279.435,109.756,32.850,-47.370,-7.930
141,43600.166000,250.012,-16.532,45.643,452.318,-286.159,104.654,12.850,-38.370,-13.930
142,43600.206000,255.002,-16.532,41.674,448.512,-281.380,108.715,-5.150,-4.370,-14.930
143,43600.226000,257.996,-17.534,41.674,450.518,-276.677,106.882,-29.150,24.630,-9.930
144,43600.275000,252.008,-18.536,43.659,450.367,-287.079,106.593,-43.150,50.630,11.070
145,43600.324000,247.018,-20.540,48.620,451.477,-277.583,107.842,-36.150,45.630,21.070
146,43600.351000,241.029,-21.542,52.589,451.442,-280.341,110.716,-9.150,24.630,28.070
147,43600.391000,240.031,-19.538,51.597,450.502,-277.649,105.872,5.850,-9.370,31.070
148,43600.426000,240.031,-19.538,50.605,449.518,-278.608,105.843,25.850,-34.370,22.070
149,43600.469000,242.027,-18.536,49.612,449.526,-278.503,109.781,41.850,-51.370,4.070
150,43600.506000,250.012,-19.538,47.628,451.473,-277.635,105.874,38.850,-48.370,-9.930
151,43600.526000,256.000,-18.536,39.690,449.520,-278.582,106.828,27.850,-17.370,-9.930
152,43600.569000,256.000,-18.536,39.690,447.466,-286.201,105.629,17.850,28.630,-3.930
153,43600.610000,256.000,-19.538,41.674,447.565,-279.555,106.797,-14.150,63.630,5.070
154,43600.650000,249.014,-19.538,46.636,451.334,-287.879,111.490,-37.150,63.630,20.070
155,43600.690000,246.020,-19.538,48.620,449.475,-282.233,111.644,-17.150,55.630,28.070
156,43600.730000,243.025,-21.542,49.612,445.606,-281.342,111.662,25.850,30.630,36.070
157,43600.770000,246.020,-17.534,50.605,450.463,-281.221,113.641,33.850,6.630,52.070
158,43600.818000,247.018,-14.528,50.605,446.480,-287.948,111.480,40.850,-29.370,66.070
159,43600.831000,242.027,-10.521,50.605,447.541,-281.394,108.713,37.850,-64.370,58.070
160,43600.872000,235.041,-4.509,56.558,443.523,-290.879,109.426,24.850,-119.370,42.070
161,43600.911000,223.064,-8.517,69.457,443.564,-288.042,109.505,-44.150,-151.370,25.070
162,43600.952000,222.066,-11.523,68.465,444.440,-293.860,103.443,-132.150,-149.370,-45.930
163,43600.990000,237.037,-12.524,66.481,447.489,-283.601,96.849,-320.150,-3.370,-146.930
164,43601.36000,250.012,-11.523,51.597,451.297,-288.353,93.772,-323.150,11.630,-241.930
165,43601.70000,258.994,-6.513,29.767,455.252,-282.756,89.016,-449.150,40.630,-259.930
166,43601.96000,265.980,-41.581,30.760,456.315,-275.414,80.370,-347.150,-97.370,-259.930
167,43601.129000,276.959,-41.581,16.868,462.193,-270.788,73.623,-186.150,-176.370,-110.930
168,43601.182000,298.916,-18.536,2.977,460.221,-272.759,71.598,-18.150,-117.370,205.070
169,43601.211000,259.992,-20.540,16.868,457.211,-280.208,77.287,7.850,185.630,275.070
170,43601.254000,208.094,-23.546,48.620,451.314,-285.832,82.039,87.850,246.630,82.070
171,43601.294000,201.107,-10.521,79.380,450.405,-281.984,85.095,95.850,78.630,-78.930
172,43601.335000,251.010,26.552,89.302,452.340,-282.036,82.146,8.850,-116.370,-112.930
173,43601.370000,281.949,52.603,61.519,451.397,-279.397,75.333,-511.150,-67.370,87.070
174,43601.392000,257.996,17.534,55.566,450.247,-290.943,68.124,-825.150,141.630,123.070
175,43601.437000,262.986,3.507,34.729,450.250,-289.367,56.365,-1052.150,312.630,-26.930
176,43601.472000,268.975,0.501,27.783,448.185,-297.144,49.260,-1060.150,422.630,-129.930
177,43601.515000,236.039,-21.542,34.729,450.200,-291.548,45.484,-1101.150,464.630,-181.930
178,43601.553000,201.107,-29.558,45.643,451.243,-285.231,33.859,-1163.150,247.630,-291.930
179,43601.596000,233.045,-27.554,29.767,453.270,-277.954,22.261,-1218.150,140.630,-382.930
180,43601.629000,274.963,-30.560,16.868,459.152,-271.753,3.755,-1309.150,178.630,-504.930
181,43601.671000,283.945,-45.589,31.752,464.192,-257.763,-5.684,-1260.150,351.630,-501.930
182,43601.698000,253.006,-54.607,63.504,471.980,-255.053,-14.448,-1077.150,336.630,-385.930
183,43601.733000,208.094,-56.611,89.302,477.969,-242.861,-20.984,-891.150,423.630,-303.930
184,43601.773000,204.101,-31.562,133.953,480.973,-237.014,-15.898,-833.150,373.630,-300.930
185,43601.813000,195.119,61.620,109.147,482.042,-230.355,-14.727,-886.150,589.630,-74.930
186,43601.850000,195.119,27.554,69.457,480.973,-237.014,-15.898,-985.150,557.630,217.070
187,43601.888000,177.154,-76.650,53.581,476.060,-240.157,-24.846,-1013.150,-528.370,-60.930
188,43601.931000,333.848,-107.710,0.992,473.182,-235.156,-48.318,-610.150,-456.370,26.070
189,43601.972000,311.891,-47.593,11.907,467.304,-239.021,-48.436,54.850,94.630,185.070
190,43601.998000,258.994,-62.622,-3.969,472.200,-236.089,-47.362,26.850,-56.370,-150.930
191,43602.33000,284.943,-22.544,-9.922,472.159,-238.926,-47.441,116.850,45.630,-286.930
192,43602.73000,263.984,-14.528,3.969,480.066,-229.307,-45.193,361.850,129.630,-13.930
193,43602.121000,224.062,-49.597,25.798,480.025,-233.667,-31.544,351.850,145.630,16.070
194,43602.150000,189.131,-62.622,65.488,481.018,-232.602,-27.578,580.850,67.630,-45.930
195,43602.190000,226.058,-38.575,88.310,482.049,-228.727,-24.518,656.850,-441.370,-145.930
196,43602.231000,293.926,5.511,118.078,481.128,-225.037,-27.368,545.850,-527.370,-158.930
197,43602.269000,256.998,-14.528,65.488,479.125,-228.926,-30.430,433.850,-183.370,-74.930
198,43602.289000,223.064,-26.552,63.504,482.138,-222.974,-21.407,513.850,9.630,-32.930
199,43602.329000,254.004,-29.558,70.450,483.991,-229.461,-17.650,759.850,-145.370,62.070
200,43602.369000,309.895,-71.640,32.744,485.925,-230.300,-14.719,929.850,-90.370,297.070
201,43602.411000,280.951,-56.611,49.612,478.999,-241.296,1.685,938.850,41.630,445.070
202,43602.452000,254.004,-4.509,25.798,477.933,-249.452,15.226,976.850,12.630,493.070
203,43602.491000,208.094,-4.509,30.760,467.103,-261.554,27.659,1003.850,19.630,556.070
204,43602.531000,173.162,-52.603,43.659,468.982,-266.937,37.348,1034.850,-292.370,361.070
205,43602.572000,192.125,-60.618,54.574,465.082,-268.752,42.209,1220.850,-508.370,191.070
206,43602.591000,243.025,-5.511,41.674,468.032,-266.688,47.189,1393.850,-601.370,42.070
207,43602.629000,274.963,33.566,67.473,472.935,-264.438,58.080,1134.850,-403.370,136.070
208,43602.669000,274.963,-7.515,89.302,470.023,-266.002,71.802,1056.850,-86.370,240.070
209,43602.709000,264.982,-28.556,96.248,466.108,-270.312,89.381,1426.850,380.630,289.070
210,43602.749000,199.111,-16.532,58.543,459.439,-264.943,117.060,1501.850,303.630,377.070
211,43602.789000,179.150,9.519,59.535,458.371,-273.886,136.481,1237.850,134.630,319.070
212,43602.829000,234.043,17.534,55.566,454.605,-267.058,146.501,943.850,-440.370,338.070
213,43602.876000,300.912,-16.532,11.907,455.582,-266.966,149.456,1016.850,-341.370,353.070
214,43602.891000,255.002,-44.587,25.798,452.694,-266.691,161.262,1246.850,-103.370,355.070
215,43602.929000,225.060,-51.601,64.496,447.822,-270.068,178.865,1379.850,-48.370,454.070
216,43602.969000,256.000,-115.726,94.264,439.293,-259.053,206.698,1924.850,88.630,546.070
217,43603.9000,256.000,-100.697,47.628,433.703,-246.893,240.470,2452.850,37.630,460.070
218,43603.49000,209.092,27.554,2.977,428.289,-221.704,266.735,2818.850,169.630,453.070
219,43603.91000,236.039,57.613,4.961,426.610,-206.810,294.687,2465.850,-85.370,665.070
220,43603.131000,277.957,26.552,19.845,419.040,-195.178,309.752,1812.850,-225.370,806.070
221,43603.173000,286.940,-11.523,30.760,416.410,-177.750,326.954,1830.850,-27.370,683.070
222,43603.193000,258.994,10.521,42.667,412.681,-168.899,341.948,1698.850,105.630,605.070
223,43603.233000,252.008,18.536,42.667,406.225,-147.718,360.231,1532.850,77.630,521.070
224,43603.273000,252.008,38.575,78.388,396.669,-139.002,373.245,1179.850,150.630,385.070
225,43603.314000,247.018,33.566,83.349,394.906,-127.498,380.447,890.850,68.630,335.070
226,43603.358000,215.080,57.613,83.349,388.158,-125.466,389.345,180.850,312.630,165.070
227,43603.391000,191.127,-23.546,105.178,381.375,-125.404,395.236,-222.150,451.630,-157.930
228,43603.431000,209.092,-85.667,90.295,374.667,-120.535,404.213,184.850,485.630,-472.930
229,43603.452000,266.979,12.524,37.705,380.741,-103.405,405.683,437.850,15.630,-299.930
230,43603.492000,350.815,10.521,-15.876,380.725,-103.616,397.809,-52.150,-329.370,-75.930
231,43603.532000,290.932,-21.542,6.946,388.366,-112.017,397.588,-648.150,-8.370,11.070
232,43603.576000,248.016,-39.577,34.729,385.265,-124.483,392.318,-574.150,71.630,-24.930
233,43603.610000,238.035,-38.575,31.752,386.134,-131.167,389.183,-605.150,-90.370,-117.930
234,43603.650000,247.018,-34.568,30.760,391.745,-144.587,378.983,-728.150,-229.370,-284.930
235,43603.695000,237.037,-6.513,57.550,397.468,-150.415,369.978,-857.150,-267.370,-298.930
236,43603.730000,231.049,-15.530,95.256,398.270,-161.040,360.831,-748.150,-146.370,-186.930
237,43603.760000,231.049,-13.526,111.132,401.067,-167.855,351.794,-725.150,-85.370,-5.930
238,43603.790000,201.107,7.515,94.264,401.818,-182.211,344.510,-813.150,25.630,69.070
239,43603.838000,240.031,5.511,95.256,400.636,-195.700,335.281,-1006.150,82.630,-43.930
240,43603.870000,321.871,0.501,57.550,398.437,-212.881,329.881,-1138.150,-18.370,-222.930
241,43603.916000,293.926,-0.501,41.674,401.316,-214.048,320.017,-999.150,330.630,-534.930
242,43603.956000,253.006,-24.548,42.667,405.017,-225.551,311.835,-1128.150,230.630,-616.930
243,43603.996000,239.033,-18.536,35.721,413.764,-223.747,304.031,-1192.150,163.630,-670.930
244,43604.36000,204.101,4.509,44.651,414.650,-228.672,296.026,-1179.150,169.630,-571.930
245,43604.56000,189.131,19.538,42.667,414.480,-238.550,280.014,-1327.150,17.630,-366.930
246,43604.96000,187.135,22.544,37.705,418.973,-260.810,257.763,-1602.150,-57.370,-204.930
247,43604.149000,214.082,-20.540,79.380,417.726,-276.691,229.778,-1795.150,-182.370,-62.930
248,43604.176000,275.961,-65.628,85.333,422.429,-284.713,209.890,-1492.150,-271.370,-72.930
249,43604.215000,264.982,-70.638,85.333,424.250,-290.860,191.034,-1187.150,44.630,-193.930
250,43604.255000,252.008,-39.577,90.295,427.074,-295.022,175.185,-1210.150,133.630,-531.930
251,43604.295000,224.062,5.511,61.519,435.868,-288.780,156.685,-1361.150,232.630,-658.930
252,43604.335000,186.136,-53.605,67.473,437.807,-287.256,141.977,-1102.150,148.630,-546.930
253,43604.355000,283.945,-79.656,43.659,440.614,-293.178,130.997,-902.150,-363.370,-140.930
254,43604.395000,287.938,-79.656,2.977,446.376,-295.434,114.222,-570.150,-208.370,-27.930
255,43604.435000,199.111,-26.552,92.279,442.458,-297.486,110.224,-569.150,296.630,-153.930
256,43604.478000,233.045,53.605,107.163,448.396,-289.024,105.552,-660.150,144.630,-255.930
257,43604.510000,240.031,37.573,66.481,446.352,-294.989,95.546,-923.150,137.630,-294.930
258,43604.550000,226.058,0.501,59.535,449.322,-288.828,77.034,-1528.150,180.630,-403.930
259,43604.595000,222.066,-39.577,37.705,455.223,-280.841,54.643,-1530.150,10.630,-487.930
260,43604.634000,294.924,-61.620,9.922,461.050,-278.421,36.032,-1114.150,-32.370,-485.930
261,43604.655000,292.928,-39.577,16.868,470.000,-262.485,26.654,-1197.150,219.630,-461.930
262,43604.694000,257.996,-16.532,42.667,474.846,-261.734,16.847,-1329.150,427.630,-451.930
263,43604.737000,244.023,-40.579,70.450,476.984,-247.654,12.324,-1208.150,364.630,-431.930
264,43604.773000,226.058,-49.597,73.426,480.923,-242.267,-0.306,-1184.150,208.630,-378.930
265,43604.813000,209.092,-38.575,83.349,479.928,-242.597,-12.121,-1091.150,95.630,-212.930
266,43604.851000,208.094,-53.605,95.256,482.004,-232.378,-19.702,-851.150,136.630,-94.930
267,43604.891000,227.057,15.530,98.233,479.110,-231.421,-17.713,-839.150,473.630,-49.930
268,43604.934000,233.045,37.573,100.217,483.946,-232.350,-19.698,-840.150,480.630,19.070
269,43604.954000,260.990,-101.699,25.798,480.110,-227.967,-30.402,-919.150,70.630,-27.930
270,43604.995000,291.930,-109.714,-20.837,483.952,-229.200,-43.217,-711.150,-373.370,-111.930
271,43605.40000,302.908,-36.571,-2.977,479.138,-226.458,-44.132,-116.150,82.630,102.070
272,43605.79000,276.959,-14.528,-15.876,483.042,-224.591,-47.024,-31.150,100.630,-73.930
273,43605.111000,294.924,-4.509,3.969,487.972,-219.688,-42.945,-112.150,143.630,-229.930
274,43605.151000,257.996,-11.523,13.891,490.879,-220.487,-39.028,-27.150,192.630,-248.930
275,43605.198000,224.062,-30.560,49.612,489.044,-213.764,-33.926,-48.150,189.630,-250.930
276,43605.238000,248.016,-41.581,86.326,494.052,-202.479,-38.522,184.850,-103.370,-295.930
277,43605.257000,241.029,-44.587,93.271,496.041,-199.536,-35.486,468.850,-116.370,-404.930
278,43605.298000,198.113,-8.517,100.217,498.098,-191.864,-32.318,183.850,86.630,-243.930
279,43605.331000,173.162,-6.513,103.194,502.008,-189.918,-32.257,25.850,58.630,-82.930
280,43605.379000,248.016,-57.613,104.186,508.885,-184.148,-32.085,323.850,-238.370,-105.930
281,43605.419000,350.815,-76.650,76.403,503.890,-193.726,-34.327,545.850,-456.370,47.070
282,43605.461000,310.893,-44.587,27.783,503.832,-199.084,-22.673,913.850,302.630,563.070
283,43605.495000,220.070,-0.501,53.581,495.839,-215.952,-13.320,889.850,58.630,701.070
284,43605.515000,195.119,-31.562,59.535,489.859,-228.038,-2.846,1102.850,-315.370,763.070
285,43605.555000,185.138,-86.669,47.628,485.594,-255.306,4.257,1201.850,-409.370,609.070
286,43605.595000,186.136,-88.673,40.682,477.935,-248.665,9.347,1518.850,-616.370,321.070
287,43605.644000,270.971,18.536,52.589,478.828,-255.795,24.888,1963.850,-558.370,144.070
288,43605.671000,300.912,53.605,55.566,476.902,-255.611,32.758,1433.850,-364.370,412.070
289,43605.712000,247.018,31.562,79.380,477.740,-266.524,48.194,940.850,110.630,312.070
290,43605.753000,260.990,-11.523,96.248,472.013,-261.510,62.094,938.850,145.630,95.070
291,43605.800000,227.057,-23.546,54.574,477.736,-270.410,79.561,1075.850,66.630,188.070
292,43605.820000,212.086,10.521,44.651,473.060,-259.734,92.637,1061.850,37.630,150.070
293,43605.855000,255.002,25.550,40.682,472.021,-265.238,99.368,1001.850,-209.370,175.070
294,43605.895000,287.938,2.505,18.853,470.216,-257.358,112.371,920.850,-97.370,174.070
295,43605.935000,261.988,-6.513,26.791,468.226,-261.850,122.079,888.850,-39.370,55.070
296,43605.975000,242.027,6.513,32.744,471.345,-249.147,136.208,989.850,0.630,-11.930
297,43606.15000,224.062,-5.511,46.636,470.393,-248.924,145.065,1158.850,8.630,136.070
298,43606.59000,226.058,-11.523,88.310,468.593,-240.965,161.021,1122.850,39.630,390.070
299,43606.94000,244.023,-69.636,77.395,460.749,-249.007,182.423,1603.850,27.630,632.070
300,43606.119000,237.037,-70.638,41.674,450.275,-238.071,208.284,1995.850,-13.370,643.070
301,43606.153000,227.057,-12.524,20.837,448.439,-232.897,226.130,2325.850,-103.370,644.070
302,43606.201000,256.000,4.509,17.860,441.759,-227.660,248.887,2073.850,-263.370,723.070
303,43606.235000,296.920,12.524,23.814,438.086,-215.788,270.850,1893.850,-195.370,722.070
304,43606.279000,266.979,7.515,40.682,429.571,-203.065,291.846,1885.850,104.630,687.070
305,43606.313000,248.016,-9.519,51.597,423.862,-197.053,307.741,1811.850,81.630,651.070
306,43606.360000,242.027,7.515,66.481,416.390,-178.775,323.975,1535.850,-28.370,528.070
307,43606.393000,260.990,31.562,70.450,410.832,-162.360,340.160,1457.850,63.630,558.070
308,43606.419000,248.016,35.569,72.434,404.137,-157.333,355.042,1125.850,38.630,531.070
309,43606.456000,236.039,33.566,107.163,398.370,-154.368,362.984,601.850,319.630,304.070
310,43606.496000,203.103,-51.601,96.248,392.594,-152.296,372.868,563.850,477.630,-119.930
311,43606.536000,190.129,-49.597,70.450,387.118,-130.208,389.211,804.850,419.630,-252.930
312,43606.577000,264.982,36.571,3.969,390.183,-119.738,390.491,423.850,-69.370,-153.930
313,43606.616000,363.789,-5.511,-15.876,399.092,-107.400,387.898,-140.150,-177.370,-375.930
314,43606.659000,263.984,-10.521,34.729,395.066,-116.991,384.674,-467.150,225.630,-293.930
315,43606.730000,233.045,-24.548,46.636,391.187,-116.993,386.634,-457.150,155.630,-86.930
316,43606.739000,247.018,-17.534,48.620,390.073,-126.542,383.416,-336.150,-108.370,12.070
317,43606.760000,249.014,-0.501,34.729,399.706,-130.424,374.472,-592.150,-286.370,-74.930
318,43606.796000,269.973,19.538,42.667,404.434,-138.131,366.397,-736.150,-269.370,-174.930
319,43606.838000,250.012,-3.507,95.256,408.170,-146.876,355.340,-789.150,-183.370,-136.930
320,43606.875000,223.064,18.536,99.225,406.828,-171.661,347.763,-989.150,-167.370,74.070
321,43606.916000,196.117,22.544,80.372,408.569,-184.216,336.597,-1109.150,56.630,196.070
322,43606.956000,215.080,-14.528,81.364,403.261,-213.968,321.990,-1338.150,-13.370,30.070
323,43606.996000,325.864,-26.552,50.605,406.131,-215.241,308.189,-1405.150,-157.370,-228.930
324,43607.16000,293.926,-12.524,53.581,411.571,-240.087,294.720,-1315.150,191.630,-414.930
325,43607.56000,262.986,-32.564,34.729,412.514,-240.442,280.941,-1354.150,121.630,-469.930
326,43607.96000,249.014,-49.597,21.829,416.201,-252.130,265.868,-1261.150,67.630,-448.930
327,43607.133000,222.066,-31.562,27.783,418.124,-252.339,257.013,-1097.150,132.630,-447.930
328,43607.173000,218.074,-9.519,24.806,426.724,-260.123,244.024,-1010.150,24.630,-407.930
329,43607.216000,193.123,11.523,33.736,426.660,-262.488,226.253,-1231.150,-76.370,-298.930
330,43607.256000,198.113,-11.523,61.519,431.265,-277.156,205.197,-1424.150,-145.370,-188.930
331,43607.298000,228.055,-41.581,80.372,430.244,-278.590,187.451,-1574.150,-126.370,-63.930
332,43607.318000,306.901,-56.611,86.326,435.851,-290.539,161.554,-1575.150,-90.370,-178.930
333,43607.360000,304.904,-68.634,53.581,436.626,-301.507,139.611,-1579.150,264.630,-380.930
334,43607.400000,239.033,-19.538,48.620,440.598,-294.150,129.986,-1491.150,568.630,-565.930
335,43607.439000,141.224,-25.550,75.411,447.414,-291.480,120.236,-1175.150,417.630,-761.930
336,43607.474000,202.105,-36.571,65.488,451.408,-282.311,107.711,-1168.150,7.630,-504.930
337,43607.514000,312.889,-63.624,16.868,455.211,-285.593,88.937,-1010.150,-208.370,-190.930
338,43607.554000,256.000,-47.593,23.814,454.306,-279.382,74.354,-919.150,11.630,-250.930
339,43607.594000,210.090,-14.528,67.473,461.087,-278.709,60.614,-894.150,37.630,-314.930
340,43607.614000,217.076,-2.505,83.349,463.945,-281.662,54.635,-713.150,133.630,-329.930
341,43607.654000,241.029,22.544,108.155,467.043,-267.700,45.192,-895.150,145.630,-301.930
342,43607.694000,241.029,3.507,75.411,469.990,-264.139,35.460,-1174.150,317.630,-250.930
343,43607.734000,201.107,-35.569,63.504,472.860,-265.412,21.659,-1193.150,54.630,-330.930
344,43607.776000,263.984,-51.601,1.984,471.928,-261.093,7.024,-917.150,-357.370,-330.930
345,43607.816000,296.920,-49.597,2.977,474.910,-254.774,-5.582,-498.150,65.630,-295.930
346,43607.854000,279.953,-20.540,39.690,478.967,-242.479,-7.201,-649.150,289.630,-305.930
347,43607.874000,252.008,-18.536,46.636,480.944,-239.693,-10.071,-753.150,324.630,-349.930
348,43607.914000,222.066,-19.538,74.419,487.895,-228.355,-13.678,-688.150,296.630,-267.930
349,43607.956000,207.096,-32.564,81.364,488.811,-232.124,-13.781,-620.150,209.630,-62.930
350,43607.998000,205.099,-28.556,127.008,484.979,-228.449,-15.653,-570.150,265.630,145.070
351,43608.43000,263.984,46.591,89.302,484.875,-235.174,-19.775,-805.150,297.630,198.070
352,43608.76000,264.982,33.566,78.388,480.995,-235.202,-18.798,-870.150,475.630,191.070
353,43608.114000,235.041,-100.697,38.698,478.006,-240.077,-22.873,-590.150,-245.370,-162.930
354,43608.159000,269.973,-70.638,-13.891,479.137,-228.007,-31.388,-77.150,-328.370,-111.930
355,43608.174000,298.916,22.544,-5.953,476.046,-240.341,-31.736,147.850,17.630,316.070
356,43608.214000,321.871,4.509,-10.915,473.187,-236.626,-32.622,-368.150,122.630,162.070
357,43608.254000,319.875,-39.577,-7.938,479.007,-236.597,-34.578,-577.150,310.630,-307.930
358,43608.299000,236.039,-39.577,56.558,484.035,-225.049,-29.330,-260.150,489.630,-388.930
359,43608.346000,197.115,-35.569,91.287,489.916,-221.157,-28.229,-175.150,176.630,-458.930
360,43608.383000,211.088,-12.524,79.380,497.907,-205.077,-31.702,-45.150,-272.370,-528.930
361,43608.418000,217.076,-7.515,69.457,501.860,-199.506,-37.442,3.850,-198.370,-413.930
362,43608.458000,214.082,-21.542,92.279,497.101,-192.982,-38.253,-104.150,-15.370,-77.930
363,43608.478000,199.111,-52.603,100.217,501.976,-191.101,-41.143,18.850,26.630,-80.930
364,43608.516000,244.023,-106.708,103.194,501.065,-187.279,-39.071,367.850,-256.370,-94.930
365,43608.558000,327.860,-77.652,21.829,498.976,-197.656,-37.396,924.850,-242.370,297.070
366,43608.598000,265.980,-33.566,27.783,497.835,-210.619,-26.939,1079.850,-102.370,652.070
367,43608.638000,252.008,-23.546,41.674,491.823,-224.649,-18.487,1029.850,-118.370,749.070
368,43608.683000,212.086,-64.626,37.705,481.903,-240.599,-9.111,1179.850,-266.370,653.070
369,43608.715000,195.119,-92.681,28.775,482.741,-251.512,6.325,1663.850,-310.370,443.070
370,43608.755000,209.092,-65.628,36.713,474.931,-256.795,24.853,1983.850,-372.370,267.070
371,43608.778000,271.969,44.587,67.473,472.054,-256.389,41.581,2179.850,-240.370,184.070
372,43608.819000,296.920,32.564,87.318,470.053,-263.323,65.975,1874.850,-107.370,584.070
373,43608.859000,270.971,-10.521,89.302,470.111,-262.560,94.521,1718.850,305.630,362.070
374,43608.906000,225.060,0.501,55.566,466.397,-255.048,130.134,1906.850,350.630,-21.930
375,43608.935000,191.127,31.562,40.682,466.438,-254.521,149.820,1639.850,318.630,225.070
376,43608.980000,185.138,62.622,49.612,461.660,-251.305,166.623,1010.850,11.630,457.070
377,43609.18000,259.992,19.538,46.636,459.756,-249.310,171.594,867.850,-283.370,458.070
378,43609.59000,293.926,-64.626,20.837,456.831,-251.820,185.289,1091.850,-197.370,374.070
379,43609.79000,266.979,-31.562,56.558,450.114,-247.844,196.208,1418.850,96.630,308.070
380,43609.121000,227.057,-67.632,83.349,445.525,-232.965,225.139,2050.850,259.630,492.070
381,43609.161000,209.092,-115.726,70.450,438.007,-219.886,258.933,2524.850,7.630,623.070
382,43609.198000,211.088,-9.519,15.876,434.448,-201.158,289.940,2880.850,-136.370,641.070
383,43609.241000,233.045,61.620,-8.930,432.061,-167.523,312.511,2890.850,-281.370,791.070
384,43609.275000,282.947,24.548,8.930,427.311,-161.655,322.502,2345.850,-266.370,1048.070
385,43609.321000,288.936,4.509,37.705,422.755,-143.282,340.710,2181.850,-149.370,943.070
386,43609.361000,256.998,6.513,39.690,414.275,-127.802,358.832,2108.850,79.630,853.070
387,43609.381000,255.002,11.523,43.659,411.649,-109.561,371.138,1847.850,-6.370,792.070
388,43609.420000,268.975,51.601,66.481,408.885,-100.775,383.181,1734.850,120.630,665.070
389,43609.460000,259.992,46.591,88.310,403.476,-73.224,391.807,1672.850,55.630,496.070
390,43609.500000,202.105,57.613,74.419,394.913,-62.656,402.906,1185.850,193.630,419.070
391,43609.540000,180.148,44.587,127.008,387.345,-50.236,412.092,439.850,430.630,172.070
392,43609.575000,210.090,-60.618,130.977,382.492,-51.066,418.945,431.850,304.630,-100.930
393,43609.615000,292.928,-29.558,42.667,381.769,-34.058,419.417,591.850,-54.370,29.070
394,43609.635000,322.869,18.536,-6.946,385.706,-30.221,419.531,427.850,-142.370,94.070
395,43609.675000,280.951,19.538,-8.930,391.585,-26.356,419.648,-184.150,-159.370,-57.930
396,43609.716000,244.023,3.507,15.876,390.437,-37.875,413.424,-514.150,-12.370,-185.930
397,43609.755000,273.965,-22.544,25.798,390.420,-38.873,411.429,-723.150,53.630,-197.930
398,43609.801000,277.957,-31.562,33.736,391.121,-57.693,413.858,-877.150,109.630,-262.930
399,43609.839000,253.006,-7.515,56.558,388.160,-60.677,409.835,-852.150,-88.370,-278.930
400,43609.876000,245.021,-3.507,61.519,398.499,-82.564,398.424,-774.150,-231.370,-226.930
401,43609.923000,247.018,-18.536,87.318,397.477,-85.547,393.421,-992.150,-176.370,-56.930
402,43609.943000,228.055,-6.513,96.248,400.108,-104.497,389.948,-913.150,-30.370,105.070
403,43609.981000,190.129,1.503,83.349,393.910,-129.377,381.377,-928.150,103.630,125.070
404,43610.23000,205.099,4.509,97.240,392.657,-148.408,376.911,-1126.150,110.630,-131.930
405,43610.66000,326.862,1.503,60.527,398.327,-157.993,368.785,-1365.150,-204.370,-357.930
406,43610.100000,282.947,11.523,45.643,403.985,-167.735,354.753,-1181.150,136.630,-494.930
407,43610.139000,240.031,-15.530,42.667,401.912,-175.617,343.710,-1232.150,139.630,-598.930
408,43610.179000,243.025,-4.509,31.752,410.468,-186.264,329.658,-1431.150,94.630,-641.930
409,43610.219000,234.043,16.532,41.674,410.273,-198.768,321.441,-1487.150,142.630,-562.930
410,43610.239000,230.051,19.538,32.744,414.906,-212.307,307.302,-1604.150,52.630,-498.930
411,43610.283000,209.092,20.540,25.798,418.536,-227.042,284.275,-1954.150,-78.370,-392.930
412,43610.316000,231.049,-6.513,36.713,423.058,-246.623,256.197,-2084.150,-145.370,-283.930
413,43610.356000,270.971,-81.659,61.519,424.678,-265.352,226.170,-1855.150,-139.370,-168.930
414,43610.396000,257.996,-86.669,75.411,426.534,-269.502,211.304,-1349.150,-22.370,-338.930
415,43610.443000,243.025,-42.583,81.364,430.254,-278.458,192.373,-1287.150,108.630,-485.930
416,43610.476000,255.002,0.501,72.434,434.195,-273.045,180.726,-1388.150,284.630,-487.930
417,43610.523000,204.101,-19.538,55.566,435.079,-277.235,164.874,-1217.150,310.630,-533.930
418,43610.554000,212.086,-48.595,47.628,444.810,-273.710,150.234,-1258.150,84.630,-508.930
419,43610.584000,284.943,-36.571,27.783,444.678,-281.565,139.196,-1226.150,-134.370,-358.930
420,43610.616000,288.936,-37.573,11.907,453.456,-276.294,119.685,-1152.150,42.630,-216.930
421,43610.659000,255.002,-44.587,45.643,449.423,-285.202,106.643,-1080.150,283.630,-243.930
422,43610.699000,210.090,-13.526,87.318,453.449,-274.089,96.140,-1056.150,122.630,-294.930
423,43610.736000,213.084,26.552,96.248,451.352,-283.809,87.013,-1236.150,61.630,-201.930
424,43610.778000,226.058,-1.503,55.566,457.096,-287.064,68.244,-1488.150,200.630,-265.930
425,43610.816000,234.043,-40.579,35.721,458.119,-281.010,46.774,-1492.150,66.630,-504.930
426,43610.836000,277.957,-48.595,14.884,467.105,-261.528,28.643,-1333.150,-63.370,-518.930
427,43610.876000,306.901,-4.509,2.977,470.960,-261.842,14.870,-1398.150,122.630,-522.930
428,43610.917000,261.988,-15.530,39.690,476.964,-247.917,2.481,-1699.150,369.630,-496.930
429,43610.956000,240.031,-31.562,52.589,488.626,-244.496,-17.077,-1707.150,267.630,-552.930
430,43611.1000,241.029,-43.585,72.434,485.959,-226.019,-31.321,-1488.150,196.630,-444.930
431,43611.40000,221.068,-54.607,69.457,490.874,-219.779,-47.861,-1521.150,163.630,-244.930
432,43611.76000,199.111,-69.636,77.395,490.000,-212.412,-54.543,-1319.150,179.630,-130.930
433,43611.121000,209.092,-73.644,119.070,491.031,-208.536,-51.482,-701.150,472.630,-56.930
434,43611.141000,233.045,-16.532,121.054,489.169,-203.704,-46.433,-776.150,606.630,55.070
435,43611.181000,256.000,-10.521,88.310,492.063,-204.661,-48.422,-371.150,-27.370,-71.930
436,43611.228000,279.953,-78.654,-3.969,493.015,-204.884,-57.279,-115.150,-393.370,-31.930
437,43611.270000,293.926,-26.552,-4.961,491.043,-206.856,-59.304,294.850,-53.370,143.070
438,43611.304000,275.961,-3.507,-13.891,490.066,-207.710,-55.395,200.850,71.630,48.070
439,43611.341000,284.943,-5.511,17.860,493.989,-205.606,-49.429,95.850,176.630,-133.930
440,43611.386000,244.023,-9.519,44.651,490.116,-205.529,-44.515,394.850,167.630,-176.930
441,43611.405000,216.078,-13.526,69.457,494.997,-204.330,-37.588,277.850,59.630,-17.930
442,43611.441000,224.062,-11.523,90.295,493.162,-196.845,-39.350,25.850,-205.370,-29.930
443,43611.481000,230.051,-7.515,104.186,496.995,-199.733,-43.359,-31.150,-268.370,-132.930
444,43611.519000,219.072,-37.573,85.333,497.969,-198.905,-48.252,71.850,-175.370,-52.930
445,43611.558000,207.096,-52.603,74.419,500.927,-195.974,-46.198,348.850,-41.370,-9.930
446,43611.600000,223.064,-71.640,67.473,497.070,-194.164,-47.138,522.850,-244.370,32.070
447,43611.638000,336.842,-71.640,51.597,497.895,-204.473,-44.473,855.850,-221.370,168.070
448,43611.680000,286.940,-64.626,34.729,493.956,-209.860,-31.842,1024.850,72.630,398.070
449,43611.700000,245.021,-15.530,36.713,488.001,-220.081,-22.300,1099.850,12.630,562.070
450,43611.741000,231.049,-12.524,29.767,478.079,-236.819,-7.045,1228.850,-29.370,721.070
451,43611.784000,188.133,-64.626,36.713,473.003,-253.593,4.283,1175.850,-181.370,640.070
452,43611.836000,179.150,-76.650,34.729,470.985,-259.977,13.938,1383.850,-459.370,288.070
453,43611.868000,223.064,-12.524,55.566,478.786,-258.632,24.809,1685.850,-405.370,33.070
454,43611.901000,310.893,67.632,79.380,473.000,-257.452,36.635,1691.850,-324.370,144.070
455,43611.938000,276.959,39.577,83.349,472.962,-262.547,58.133,1218.850,-21.370,503.070
456,43611.980000,247.018,8.517,91.287,466.100,-269.656,78.579,1034.850,251.630,451.070
457,43612.0,247.018,-52.603,99.225,468.085,-268.287,93.375,1138.850,72.630,169.070
458,43612.40000,228.055,-26.552,66.481,461.405,-262.289,109.268,1229.850,121.630,106.070
459,43612.80000,206.097,28.556,50.605,462.446,-259.831,129.994,1204.850,-43.370,109.070
460,43612.120000,238.035,16.532,44.651,461.391,-266.306,135.714,1110.850,-304.370,205.070
461,43612.161000,261.988,-25.550,23.814,458.637,-256.628,145.814,1112.850,-385.370,311.070
462,43612.201000,240.031,-7.515,34.729,460.569,-258.255,154.625,1208.850,-192.370,401.070
463,43612.241000,245.021,-14.528,76.403,456.712,-257.967,167.413,1274.850,-149.370,493.070
464,43612.281000,279.953,-106.708,88.310,450.944,-256.551,188.099,1903.850,47.630,549.070
465,43612.301000,234.043,-88.673,49.612,445.391,-242.368,226.845,2498.850,54.630,568.070
466,43612.341000,185.138,26.552,21.829,434.918,-232.194,259.569,2899.850,56.630,699.070
467,43612.381000,240.031,37.573,5.953,432.311,-212.928,274.855,2410.850,-261.370,868.070
468,43612.424000,271.969,25.550,-2.977,426.614,-205.996,289.792,1862.850,-424.370,948.070
469,43612.465000,307.899,-14.528,11.907,423.913,-193.323,305.878,1791.850,-243.370,771.070
470,43612.505000,275.961,-27.554,28.775,419.275,-180.625,323.928,1889.850,-109.370,648.070
471,43612.545000,245.021,8.517,39.690,411.665,-171.041,333.034,1736.850,42.630,600.070
472,43612.585000,255.002,43.585,67.473,408.103,-150.817,349.329,1562.850,-7.370,473.070
473,43612.605000,269.973,36.571,73.426,406.414,-135.293,365.495,1424.850,23.630,375.070
474,43612.658000,237.037,42.583,94.264,396.814,-129.441,377.445,717.850,450.630,156.070
475,43612.681000,225.060,-46.591,114.109,395.082,-116.019,385.685,585.850,582.630,-201.930
476,43612.721000,228.055,-34.568,71.442,385.637,-99.712,399.893,759.850,438.630,-262.930
477,43612.769000,291.930,34.568,-5.953,385.877,-83.557,403.293,358.850,-140.370,-205.930
478,43612.803000,297.918,20.540,-3.969,388.730,-87.351,401.225,-177.150,-49.370,-399.930
479,43612.843000,224.062,10.521,29.767,387.802,-84.502,402.287,-560.150,218.630,-318.930
480,43612.883000,223.064,-3.507,33.736,386.678,-94.944,401.011,-655.150,82.630,-87.930
481,43612.903000,261.988,-41.581,38.698,390.470,-100.668,396.923,-687.150,-105.370,17.070
482,43612.948000,255.002,-10.521,42.667,390.138,-122.628,388.443,-824.150,-330.370,-26.930
483,43612.980000,267.977,-3.507,43.659,401.657,-129.504,372.534,-804.150,-381.370,-67.930
484,43613.21000,256.998,-47.593,82.357,401.427,-144.765,367.191,-600.150,-232.370,96.070
485,43613.63000,236.039,-25.550,117.085,400.398,-148.614,365.115,-461.150,71.630,301.070
486,43613.114000,177.154,20.540,98.233,394.204,-173.441,358.512,-721.150,151.630,324.070
487,43613.149000,209.092,16.532,110.140,389.133,-187.852,352.201,-1022.150,16.630,59.070
488,43613.163000,325.864,11.523,28.775,391.906,-195.745,338.216,-1279.150,-268.370,-391.930
489,43613.203000,277.957,23.546,31.752,396.555,-208.312,325.087,-1177.150,204.630,-538.930
490,43613.245000,253.006,-0.501,26.791,404.082,-223.569,315.823,-1398.150,180.630,-600.930
491,43613.285000,244.023,-11.523,23.814,403.900,-233.604,293.904,-1732.150,207.630,-674.930
492,43613.331000,226.058,-1.503,41.674,410.484,-246.222,277.826,-1860.150,174.630,-603.930
493,43613.359000,226.058,20.540,19.845,415.226,-252.196,263.898,-2091.150,1.630,-503.930
494,43613.399000,236.039,20.540,13.891,420.660,-274.837,226.883,-2420.150,-36.370,-417.930
495,43613.443000,274.963,-68.634,27.783,423.359,-285.226,190.206,-2545.150,-0.370,-380.930
496,43613.463000,292.928,-120.736,51.597,429.856,-302.048,158.273,-1982.150,227.630,-614.930
497,43613.504000,237.037,-70.638,88.310,435.707,-298.552,144.610,-1600.150,216.630,-688.930
498,43613.544000,220.070,-49.597,101.209,438.655,-294.204,128.998,-1573.150,400.630,-468.930
499,43613.584000,201.107,-49.597,56.558,439.657,-290.723,117.293,-1126.150,351.630,-493.930
500,43613.624000,215.080,-47.593,32.744,447.390,-291.034,101.560,-935.150,144.630,-433.930
501,43613.659000,291.930,-17.534,17.860,448.444,-283.798,88.976,-1283.150,-37.370,-243.930
502,43613.699000,289.934,-46.591,18.853,454.222,-285.082,73.212,-1288.150,183.630,-208.930
503,43613.746000,236.039,-58.614,50.605,449.268,-291.062,64.185,-1130.150,391.630,-382.930
504,43613.766000,186.136,-28.556,93.271,458.114,-282.612,57.550,-1132.150,240.630,-469.930
505,43613.806000,223.064,48.595,94.264,463.072,-272.746,35.209,-1402.150,49.630,-411.930
506,43613.845000,237.037,-6.513,50.605,465.028,-269.463,15.632,-1609.150,52.630,-383.930
507,43613.886000,229.053,-72.642,26.791,466.133,-257.735,-5.680,-1620.150,53.630,-480.930
508,43613.926000,295.922,-71.640,17.860,474.070,-243.888,-22.002,-1194.150,13.630,-503.930
509,43613.965000,307.899,-52.603,19.845,480.055,-231.749,-30.507,-954.150,307.630,-432.930
510,43614.4000,236.039,-58.614,62.512,476.160,-232.724,-29.557,-1011.150,394.630,-344.930
511,43614.46000,212.086,-50.599,80.372,483.143,-218.680,-38.007,-917.150,322.630,-327.930
512,43614.60000,203.103,-42.583,95.256,490.052,-210.966,-35.814,-607.150,330.630,-255.930
513,43614.105000,196.117,-22.544,100.217,488.038,-215.774,-37.918,-522.150,182.630,-193.930
514,43614.144000,209.092,-13.526,114.109,493.101,-201.468,-35.545,-515.150,453.630,-100.930
515,43614.184000,191.127,18.536,109.147,492.033,-208.889,-29.851,-715.150,556.630,196.070
516,43614.224000,244.023,31.562,82.357,486.187,-210.023,-33.827,-941.150,190.630,198.070
517,43614.264000,301.910,-66.630,29.767,487.072,-213.425,-55.559,-1014.150,-640.370,115.070
518,43614.304000,344.827,-106.708,-12.899,484.049,-219.509,-69.504,-410.150,-230.370,272.070
519,43614.345000,290.932,-49.597,-2.977,477.343,-213.852,-66.407,90.850,-1.370,-12.930
520,43614.378000,276.959,-7.515,12.899,481.294,-209.069,-66.268,-55.150,197.630,-229.930
521,43614.409000,243.025,-20.540,15.876,485.152,-210.879,-65.328,-211.150,165.630,-197.930
522,43614.443000,228.055,-37.573,35.721,491.143,-199.422,-64.016,-83.150,66.630,-139.930
523,43614.484000,222.066,-17.534,57.550,494.027,-201.272,-64.062,-184.150,44.630,-128.930
524,43614.523000,237.037,-42.583,67.473,494.143,-192.867,-67.763,-235.150,-258.370,-197.930
525,43614.564000,280.951,-54.607,103.194,493.187,-190.386,-80.482,21.850,-327.370,-311.930
526,43614.610000,270.971,-56.611,115.101,499.158,-179.954,-82.149,146.850,-159.370,-311.930
527,43614.644000,201.107,-30.560,95.256,501.119,-178.902,-79.166,243.850,183.630,-256.930
528,43614.664000,148.211,-39.577,87.318,500.190,-176.840,-72.225,483.850,-128.370,-184.930
529,43614.704000,294.924,-74.646,64.496,503.149,-173.122,-76.051,763.850,-525.370,37.070
530,43614.744000,318.877,-100.697,1.984,496.101,-191.080,-72.628,1279.850,-153.370,453.070
531,43614.789000,256.000,-47.593,29.767,488.129,-206.923,-60.295,1506.850,-187.370,633.070
532,43614.823000,258.994,-21.542,12.899,488.921,-220.726,-46.907,1781.850,-53.370,849.070
533,43614.864000,219.072,-54.607,27.783,481.765,-248.533,-23.102,1842.850,-101.370,779.070
534,43614.900000,193.123,-66.630,15.876,477.771,-258.463,-3.713,1819.850,-390.370,531.070
535,43614.920000,194.121,-44.587,12.899,474.740,-268.485,11.741,2029.850,-544.370,243.070
536,43614.965000,249.014,34.568,36.713,471.003,-259.740,22.798,2155.850,-373.370,119.070
537,43615.4000,290.932,33.566,61.519,471.867,-269.549,44.166,1918.850,-313.370,126.070
538,43615.44000,300.912,44.587,65.488,471.086,-258.660,63.156,1513.850,-72.370,333.070
539,43615.86000,263.984,7.515,80.372,463.151,-274.004,94.191,1745.850,181.630,506.070
540,43615.124000,230.051,-20.540,88.310,457.364,-273.612,111.897,1597.850,146.630,546.070
541,43615.165000,207.096,-18.536,54.574,457.473,-269.119,138.580,1293.850,33.630,394.070
542,43615.205000,242.027,9.519,42.667,458.527,-264.954,152.468,1445.850,-272.370,130.070
543,43615.225000,288.936,-13.526,7.938,457.653,-259.871,166.378,1631.850,-359.370,287.070
544,43615.265000,264.982,-16.532,20.837,452.809,-261.357,184.034,1589.850,-123.370,416.070
545,43615.309000,240.031,-1.503,35.721,450.043,-253.360,201.956,1548.850,122.630,418.070
546,43615.341000,231.049,-7.515,76.403,441.475,-244.393,223.831,1619.850,133.630,486.070
547,43615.381000,240.031,-76.650,77.395,433.939,-231.552,248.766,2073.850,-15.370,547.070
548,43615.421000,238.035,-36.571,37.705,436.129,-217.549,276.700,2276.850,-106.370,479.070
549,43615.461000,231.049,10.521,16.868,434.468,-200.133,292.919,2208.850,-90.370,563.070
550,43615.504000,247.018,40.579,6.946,431.826,-183.625,311.079,2014.850,-222.370,708.070
551,43615.524000,275.961,-3.507,17.860,427.203,-169.955,330.140,1775.850,-224.370,729.070
552,43615.561000,266.979,7.515,45.643,417.703,-156.669,337.379,1694.850,-95.370,678.070
553,43615.601000,250.012,10.521,47.628,418.883,-143.967,352.488,1561.850,-64.370,634.070
554,43615.648000,241.029,15.530,62.512,412.159,-140.070,360.454,1203.850,-63.370,541.070
555,43615.688000,249.014,43.585,83.349,411.397,-126.635,368.695,1010.850,9.630,473.070
556,43615.723000,255.002,46.591,94.264,405.642,-122.750,375.679,634.850,165.630,326.070
557,43615.766000,231.049,-42.583,87.318,398.913,-119.694,387.556,160.850,500.630,-122.930
558,43615.808000,187.135,-61.620,82.357,389.321,-112.975,396.579,459.850,644.630,-437.930
559,43615.828000,253.006,26.552,23.814,388.649,-92.999,402.052,194.850,116.630,-434.930
560,43615.864000,358.799,1.503,-30.760,396.444,-90.210,396.241,-164.150,-318.370,-647.930
561,43615.904000,282.947,22.544,17.860,393.616,-85.312,404.241,-686.150,516.630,-433.930
562,43615.950000,214.082,-25.550,66.481,388.582,-97.700,402.904,-687.150,182.630,-113.930
563,43615.984000,277.957,-60.618,30.760,393.371,-101.546,397.888,-440.150,-203.370,-55.930
564,43616.24000,264.982,8.517,20.837,394.100,-117.713,393.505,-754.150,-143.370,-181.930
565,43616.63000,270.971,17.534,41.674,399.819,-123.594,382.531,-952.150,-127.370,-223.930
566,43616.105000,248.016,-23.546,66.481,400.471,-144.595,374.079,-850.150,-110.370,-98.930
567,43616.124000,211.088,-29.558,109.147,400.365,-151.346,368.973,-793.150,-104.370,-88.930
568,43616.164000,211.088,-11.523,91.287,401.207,-159.134,359.905,-703.150,-149.370,83.070
569,43616.203000,205.099,9.519,88.310,400.016,-173.517,352.618,-608.150,107.630,229.070
570,43616.244000,259.992,23.546,108.155,395.784,-197.292,348.999,-877.150,124.630,107.070
571,43616.290000,299.914,-3.507,52.589,399.577,-202.228,339.032,-1385.150,17.630,-258.930
572,43616.324000,263.984,-18.536,31.752,402.216,-219.550,325.767,-1266.150,76.630,-538.930
573,43616.364000,254.004,-28.556,29.767,407.053,-218.931,311.039,-1042.150,90.630,-606.930
574,43616.405000,257.996,-30.560,31.752,410.766,-229.515,301.898,-1092.150,188.630,-597.930
575,43616.425000,234.043,4.509,51.597,413.620,-232.521,293.950,-1190.150,237.630,-492.930
576,43616.465000,197.115,22.544,48.620,413.439,-244.079,285.760,-1425.150,80.630,-392.930
577,43616.505000,193.123,0.501,39.690,411.296,-255.167,260.858,-1643.150,-204.370,-284.930
578,43616.545000,231.049,-42.583,74.419,423.603,-272.852,228.911,-1863.150,-384.370,-193.930
579,43616.585000,257.996,-83.663,72.434,428.252,-283.108,196.174,-1548.150,-399.370,-262.930
580,43616.625000,254.004,-50.599,82.357,433.950,-290.040,181.237,-1087.150,-190.370,-358.930
581,43616.665000,282.947,-27.554,79.380,435.823,-292.430,161.501,-1123.150,6.630,-315.930
582,43616.705000,262.986,-14.528,58.543,445.547,-289.772,149.788,-1225.150,324.630,-439.930
583,43616.725000,180.148,-50.599,72.434,445.676,-280.421,146.114,-1125.150,370.630,-604.930
584,43616.765000,242.027,-47.593,48.620,447.652,-276.113,129.516,-1024.150,-40.370,-442.930
585,43616.803000,281.949,-53.605,28.775,448.530,-281.143,117.574,-679.150,-224.370,-198.930
586,43616.843000,274.963,-72.642,6.946,452.453,-277.490,110.797,-539.150,42.630,-175.930
587,43616.883000,216.078,-33.566,55.566,453.453,-274.797,104.972,-523.150,181.630,-243.930
588,43616.923000,219.072,40.579,109.147,456.394,-272.077,99.151,-657.150,196.630,-251.930
589,43616.963000,252.008,72.642,89.302,461.183,-275.922,94.134,-1072.150,281.630,-253.930
590,43617.6000,199.111,-25.550,69.457,461.225,-271.537,81.469,-1522.150,321.630,-421.930
591,43617.26000,224.062,-50.599,34.729,468.077,-264.560,56.101,-1527.150,-173.370,-512.930
592,43617.66000,328.858,-41.581,-17.860,477.857,-256.570,31.750,-1143.150,-327.370,-480.930
593,43617.105000,308.897,-18.536,11.907,473.984,-254.970,22.935,-1076.150,229.630,-405.930
594,43617.143000,241.029,-5.511,63.504,479.008,-242.714,19.350,-1343.150,406.630,-408.930
595,43617.183000,219.072,-12.524,72.434,486.867,-234.488,4.838,-1437.150,323.630,-473.930
596,43617.223000,221.068,-14.528,68.465,492.830,-223.400,-7.630,-1312.150,197.630,-340.930
597,43617.266000,212.086,-44.587,79.380,489.772,-233.003,-11.837,-1127.150,116.630,-130.930
598,43617.286000,181.146,-64.626,124.031,490.903,-220.933,-20.352,-1036.150,219.630,76.070
599,43617.325000,241.029,40.579,107.163,484.924,-230.709,-29.486,-1229.150,408.630,314.070
600,43617.363000,216.078,-2.505,60.527,483.926,-232.614,-29.541,-1298.150,257.630,205.070
601,43617.405000,289.934,-127.750,0.000,482.969,-228.610,-55.989,-865.150,-596.370,-186.930
602,43617.445000,351.813,-42.583,-15.876,482.069,-223.108,-61.739,-353.150,-232.370,-178.930
603,43617.486000,323.867,-1.503,-31.752,483.067,-221.203,-61.684,-186.150,221.630,-44.930
604,43617.531000,294.924,-35.569,-5.953,486.060,-215.514,-62.505,-362.150,157.630,-221.930
605,43617.563000,265.980,-35.569,6.946,488.986,-215.289,-55.608,61.850,316.630,-243.930
606,43617.585000,229.053,-35.569,28.775,488.055,-213.253,-49.651,415.850,280.630,-169.930
607,43617.626000,218.074,-14.528,74.419,497.937,-202.398,-37.529,431.850,271.630,-312.930
608,43617.665000,209.092,-1.503,96.248,502.918,-193.766,-35.314,115.850,-15.370,-424.930
609,43617.705000,216.078,7.515,136.930,504.016,-185.189,-33.106,-158.150,88.630,-377.930
610,43617.746000,180.148,-18.536,123.039,513.852,-176.462,-29.896,-142.150,226.630,-295.930
611,43617.784000,175.158,-46.591,109.147,514.798,-178.313,-28.962,92.850,136.630,-207.930
612,43617.840000,292.928,-77.652,101.209,516.859,-170.589,-23.826,434.850,-135.370,31.070
613,43617.866000,315.883,-60.618,51.597,509.886,-183.739,-17.318,775.850,152.630,383.070
614,43617.888000,231.049,-24.548,71.442,508.739,-197.543,-2.950,847.850,100.630,526.070
615,43617.928000,230.051,-11.523,72.434,501.859,-204.127,1.773,920.850,-47.370,631.070
616,43617.968000,200.109,-43.585,56.558,494.921,-215.281,12.271,1047.850,-117.370,628.070
617,43618.10000,184.140,-79.656,62.512,491.764,-233.079,19.640,1243.850,-275.370,519.070
618,43618.44000,208.094,-51.601,47.628,489.790,-236.599,30.358,1597.850,-550.370,359.070
619,43618.91000,264.982,26.552,59.535,491.747,-236.361,38.237,2009.850,-501.370,340.070
620,43618.126000,278.955,40.579,73.426,483.906,-243.588,54.744,1751.850,-483.370,548.070
621,43618.168000,276.959,5.511,73.426,481.848,-253.570,71.184,1507.850,-148.370,648.070
622,43618.194000,262.986,-40.579,70.450,476.015,-256.830,93.707,1679.850,79.630,481.070
623,43618.243000,222.066,-43.585,64.496,472.072,-264.579,123.976,1910.850,109.630,454.070
624,43618.266000,198.113,18.536,56.558,463.458,-257.742,136.939,1684.850,-137.370,406.070
625,43618.306000,247.018,17.534,39.690,463.480,-257.452,147.767,1553.850,-438.370,533.070
626,43618.346000,288.936,-36.571,-4.961,458.698,-254.289,162.601,1710.850,-544.370,671.070
627,43618.388000,274.963,-37.573,14.884,452.921,-253.766,185.229,1947.850,-144.370,620.070
628,43618.428000,247.018,-20.540,58.543,446.133,-255.306,201.896,2015.850,67.630,605.070
629,43618.468000,224.062,-36.571,68.465,437.672,-240.350,235.740,2444.850,13.630,723.070
630,43618.490000,222.066,-20.540,35.721,431.093,-229.202,267.515,2565.850,-128.370,777.070
631,43618.529000,231.049,10.521,24.806,426.563,-209.726,291.655,2335.850,-185.370,817.070
632,43618.573000,254.004,29.558,-0.992,422.683,-210.516,299.496,1895.850,-353.370,882.070
633,43618.609000,295.922,-18.536,6.946,422.011,-191.301,311.832,1712.850,-286.370,730.070
634,43618.649000,292.928,-17.534,26.791,414.392,-183.372,329.745,1707.850,-6.370,602.070
635,43618.689000,246.020,13.526,53.581,406.844,-170.689,348.774,1646.850,30.630,629.070
636,43618.729000,234.043,8.517,73.426,401.298,-153.355,364.001,1534.850,-45.370,608.070
637,43618.769000,232.047,33.566,84.341,402.386,-145.671,368.151,1299.850,-206.370,527.070
638,43618.789000,268.975,59.616,86.326,402.620,-130.357,375.462,1056.850,-21.370,307.070
639,43618.826000,228.055,-21.542,74.419,393.192,-113.078,390.681,682.850,704.630,-179.930
640,43618.868000,191.127,-100.697,102.202,374.113,-92.889,413.834,1057.850,1014.630,-429.930
641,43618.906000,269.973,-7.515,63.504,365.771,-67.191,425.354,1088.850,298.630,-353.930
642,43618.946000,332.850,34.568,-58.543,377.688,-48.192,422.952,350.850,-539.370,-766.930
643,43618.986000,273.965,105.706,-43.659,373.958,-37.819,424.218,-354.150,281.630,-575.930
644,43619.26000,185.138,26.552,85.333,365.030,-51.943,430.695,-710.150,427.630,-131.930
645,43619.65000,245.021,-77.652,89.302,364.906,-59.692,423.594,-633.150,-96.370,2.070
646,43619.93000,264.982,-16.532,67.473,374.424,-71.980,418.350,-674.150,-450.370,-171.930
647,43619.128000,272.967,58.614,38.698,380.153,-77.729,412.298,-1150.150,-254.370,-250.930
648,43619.178000,278.955,-11.523,81.364,386.454,-110.126,398.621,-1204.150,-245.370,-232.930
649,43619.214000,250.012,-33.566,83.349,392.093,-121.655,388.474,-1107.150,-129.370,9.070
650,43619.248000,195.119,-37.573,102.202,392.802,-138.847,381.111,-1110.150,-172.370,220.070
651,43619.285000,193.123,-31.562,92.279,387.514,-167.574,369.484,-906.150,-45.370,234.070
652,43619.329000,234.043,-8.517,80.372,383.376,-184.756,365.064,-658.150,171.630,280.070
653,43619.371000,254.004,7.515,101.209,376.499,-190.526,364.892,-722.150,62.630,210.070
654,43619.385000,318.877,-18.536,37.705,375.357,-201.205,354.757,-930.150,57.630,-96.930
655,43619.428000,268.975,-28.556,41.674,377.127,-212.604,351.492,-832.150,267.630,-361.930
656,43619.471000,239.033,-16.532,54.574,382.876,-216.567,341.556,-722.150,-3.370,-677.930
657,43619.520000,244.023,6.513,52.589,388.725,-213.858,333.772,-978.150,25.630,-728.930
658,43619.545000,226.058,56.611,40.682,393.405,-223.720,315.801,-1263.150,-35.370,-581.930
659,43619.595000,202.105,55.609,43.659,397.153,-231.546,303.786,-1497.150,-175.370,-388.930
660,43619.628000,248.016,-39.577,65.488,408.471,-250.243,269.842,-2057.150,-486.370,-214.930
661,43619.665000,293.926,-142.779,101.209,413.003,-268.931,239.822,-1895.150,57.630,-647.930
662,43619.689000,218.074,-87.671,96.248,424.670,-266.219,229.097,-1427.150,336.630,-947.930
663,43619.725000,208.094,8.517,73.426,425.629,-266.363,223.193,-975.150,334.630,-720.930
664,43619.765000,232.047,3.507,54.574,430.585,-258.047,213.597,-1083.150,254.630,-471.930
665,43619.805000,262.986,-62.622,56.558,430.309,-274.675,192.478,-1420.150,121.630,-264.930
666,43619.845000,257.996,-64.626,23.814,431.234,-276.029,176.704,-1299.150,-76.370,-370.930
667,43619.885000,233.045,-52.603,32.744,439.961,-274.487,159.057,-1002.150,-97.370,-410.930
668,43619.925000,218.074,-15.530,74.419,444.842,-271.766,152.255,-1003.150,16.630,-398.930
669,43619.965000,230.051,25.550,111.132,444.721,-278.701,140.259,-968.150,219.630,-353.930
670,43619.985000,221.068,28.556,80.372,450.515,-279.014,125.506,-1453.150,224.630,-351.930
671,43620.25000,201.107,-11.523,46.636,453.435,-275.796,102.977,-1611.150,184.630,-525.930
672,43620.65000,282.947,-34.568,8.930,461.314,-265.784,84.580,-1583.150,-260.370,-677.930
673,43620.114000,332.850,-25.550,-10.915,464.313,-256.944,60.241,-1341.150,-54.370,-569.930
674,43620.148000,275.961,-6.513,34.729,473.168,-246.840,44.799,-1568.150,259.630,-554.930
675,43620.191000,236.039,-13.526,59.535,474.138,-245.303,31.073,-1781.150,322.630,-505.930
676,43620.231000,229.053,-42.583,73.426,484.920,-236.117,15.609,-1695.150,206.630,-497.930
677,43620.248000,221.068,-65.628,97.240,489.859,-228.799,4.018,-1503.150,156.630,-420.930
678,43620.293000,218.074,-70.638,98.233,490.849,-225.477,-13.593,-1289.150,103.630,-124.930
679,43620.329000,205.099,-82.661,97.240,493.694,-229.376,-19.598,-946.150,331.630,110.070
680,43620.376000,196.117,-35.569,116.093,488.904,-226.318,-8.702,-753.150,769.630,323.070
681,43620.415000,195.119,7.515,105.178,481.989,-234.873,-6.984,-778.150,468.630,351.070
682,43620.450000,285.942,-53.605,66.481,475.134,-238.830,-10.057,-598.150,93.630,410.070
683,43620.493000,342.830,-89.675,18.853,470.984,-256.931,-13.518,-106.150,143.630,572.070
684,43620.533000,224.062,-86.669,35.721,468.115,-254.871,-5.597,158.850,396.630,108.070
685,43620.552000,253.006,-36.571,75.411,468.161,-252.742,3.315,372.850,110.630,-285.930
686,43620.590000,260.990,-2.505,12.899,469.236,-246.004,7.439,615.850,-254.370,-0.930
687,43620.626000,254.004,-34.568,52.589,471.033,-257.061,16.970,787.850,0.630,173.070
688,43620.669000,238.035,-54.607,80.372,466.180,-257.891,23.824,889.850,-79.370,-22.930
689,43620.709000,235.041,-32.564,122.047,475.083,-247.155,32.007,881.850,-147.370,-370.930
690,43620.749000,254.004,-22.544,126.016,481.076,-235.672,34.304,763.850,-419.370,-701.930
691,43620.801000,235.041,17.534,119.070,491.048,-217.515,36.793,696.850,-39.370,-435.930
692,43620.831000,199.111,4.509,73.426,489.069,-221.088,45.542,478.850,162.630,3.070
693,43620.855000,161.185,-6.513,91.287,488.138,-219.052,51.499,336.850,21.630,62.070
694,43620.890000,305.903,-67.632,63.504,486.211,-218.134,51.521,435.850,-389.370,186.070
695,43620.930000,310.893,-80.658,56.558,483.242,-221.984,50.426,625.850,-191.370,398.070
696,43620.973000,262.986,-10.521,36.713,479.157,-236.932,58.856,806.850,-191.370,629.070
697,43621.13000,204.101,-17.534,45.643,472.188,-250.031,67.332,1075.850,-176.370,820.070
698,43621.53000,187.135,-79.656,53.581,465.217,-263.155,74.824,1272.850,-348.370,783.070
699,43621.90000,192.125,-97.691,44.651,460.341,-265.824,83.594,1498.850,-601.370,571.070
700,43621.130000,254.004,-30.560,62.512,463.210,-270.169,96.265,1859.850,-558.370,277.070
701,43621.149000,302.908,67.632,67.473,461.357,-266.754,118.980,1931.850,-397.370,317.070
702,43621.186000,266.979,50.599,79.380,453.570,-269.437,128.728,1394.850,37.630,572.070
703,43621.226000,237.037,-3.507,107.163,451.738,-264.971,155.407,1424.850,202.630,361.070
704,43621.266000,247.018,-30.560,89.302,446.002,-261.611,178.114,1816.850,189.630,181.070
705,43621.306000,223.064,4.509,62.512,442.300,-252.419,205.904,1610.850,141.630,417.070
706,43621.346000,216.078,36.571,52.589,435.708,-240.667,224.908,1277.850,0.630,475.070
707,43621.389000,270.971,0.501,39.690,437.636,-242.347,231.750,1259.850,-253.370,445.070
708,43621.429000,261.988,-19.538,32.744,437.717,-238.222,244.652,1479.850,-200.370,423.070
709,43621.449000,253.006,-19.538,59.535,434.993,-227.387,262.654,1494.850,-51.370,461.070
710,43621.489000,236.039,1.503,89.302,425.496,-215.598,284.605,1629.850,136.630,513.070
711,43621.529000,211.088,-40.579,80.372,419.883,-202.966,300.685,1975.850,98.630,663.070
712,43621.569000,217.076,-16.532,45.643,415.278,-188.297,321.741,2030.850,-91.370,673.070
713,43621.614000,239.033,14.528,40.682,410.748,-168.060,339.017,1827.850,-163.370,701.070
714,43621.651000,286.940,11.523,8.930,406.968,-162.178,349.011,1833.850,-219.370,724.070
715,43621.694000,286.940,-30.560,27.783,410.216,-140.124,359.466,1770.850,-169.370,709.070
716,43621.731000,254.004,-12.524,44.651,406.485,-131.300,373.475,1708.850,-37.370,706.070
717,43621.751000,240.031,14.528,56.558,393.130,-116.939,387.623,1673.850,50.630,746.070
718,43621.790000,247.018,15.530,75.411,393.536,-90.198,398.203,1607.850,45.630,716.070
719,43621.830000,266.979,23.546,84.341,387.026,-72.012,410.502,1534.850,150.630,613.070
720,43621.876000,251.010,45.589,91.287,379.409,-62.534,415.671,1296.850,290.630,489.070
721,43621.911000,210.090,40.579,129.984,364.166,-44.444,428.935,695.850,579.630,-3.930
722,43621.948000,155.197,-40.579,145.860,354.625,-34.757,442.959,596.850,727.630,-458.930
723,43621.988000,178.152,24.548,82.357,345.262,-12.015,450.461,427.850,528.630,-366.930
724,43622.10000,300.912,63.624,4.961,348.237,-8.086,454.510,-37.150,-181.370,-480.930
725,43622.73000,319.875,42.583,32.744,341.205,-24.310,452.079,-973.150,341.630,-289.930
726,43622.89000,273.965,-58.614,85.333,340.975,-40.334,453.600,-982.150,-28.370,-169.930
727,43622.133000,272.967,-34.568,8.930,349.550,-50.743,448.407,-611.150,-182.370,-240.930
728,43622.170000,236.039,34.568,28.775,350.353,-61.342,440.245,-1150.150,-87.370,-327.930
729,43622.210000,239.033,6.513,67.473,351.803,-94.544,434.406,-1610.150,-173.370,-453.930
730,43622.249000,272.967,-42.583,74.419,360.269,-111.731,423.122,-1402.150,-275.370,-461.930
731,43622.290000,248.016,-59.616,90.295,370.645,-130.073,402.957,-1417.150,-280.370,-358.930
732,43622.315000,193.123,-38.575,126.016,378.084,-151.083,390.582,-1379.150,-130.370,-340.930
733,43622.348000,196.117,-22.544,94.264,372.987,-167.359,385.203,-1194.150,16.630,-148.930
734,43622.390000,195.119,-4.509,113.116,372.790,-179.889,376.002,-923.150,196.630,-170.930
735,43622.430000,297.918,17.534,115.101,373.491,-197.186,364.702,-1085.150,-64.370,-175.930
736,43622.470000,327.860,28.556,79.380,378.082,-213.562,350.484,-1317.150,73.630,-186.930
737,43622.519000,278.955,-21.542,46.636,376.936,-225.055,345.244,-1172.150,233.630,-499.930
738,43622.548000,246.020,-59.616,41.674,383.693,-226.220,333.420,-1018.150,46.630,-635.930
739,43622.593000,237.037,-34.568,58.543,387.402,-236.857,322.310,-955.150,113.630,-660.930
740,43622.613000,221.068,21.542,63.504,395.161,-236.065,312.509,-1044.150,109.630,-599.930
741,43622.653000,197.115,35.569,51.597,395.917,-249.579,301.315,-1288.150,-33.370,-412.930
742,43622.688000,204.101,-3.507,69.457,402.620,-252.978,276.642,-1593.150,-325.370,-279.930
743,43622.728000,260.990,-75.648,83.349,410.005,-275.460,244.553,-1664.150,-415.370,-257.930
744,43622.768000,258.994,-106.708,89.302,419.641,-277.005,216.985,-1090.150,-353.370,-447.930
745,43622.808000,234.043,-44.587,82.357,425.447,-276.398,201.274,-847.150,-129.370,-493.930
746,43622.850000,254.004,3.507,77.395,430.131,-286.969,192.136,-992.150,50.630,-377.930
747,43622.890000,224.062,1.503,64.496,436.974,-282.408,182.438,-1082.150,166.630,-508.930
748,43622.910000,208.094,-26.552,73.426,435.061,-278.995,169.743,-1196.150,277.630,-432.930
749,43622.949000,248.016,-56.611,55.566,440.761,-285.900,155.790,-1103.150,209.630,-379.930
750,43622.989000,266.979,-40.579,45.643,442.832,-276.522,152.120,-891.150,14.630,-358.930
751,43623.29000,224.062,-31.562,44.651,446.603,-282.509,138.189,-726.150,60.630,-352.930
752,43623.69000,206.097,-19.538,89.302,448.656,-273.367,125.660,-745.150,-59.370,-392.930
753,43623.110000,260.990,37.573,98.233,458.285,-277.302,114.747,-826.150,114.630,-290.930
754,43623.151000,257.996,8.517,72.434,453.503,-271.855,108.989,-1166.150,259.630,-230.930
755,43623.196000,179.150,-37.573,67.473,459.349,-268.411,93.357,-1515.150,345.630,-556.930
756,43623.209000,240.031,-16.532,35.721,467.194,-260.370,71.954,-1212.150,-260.370,-578.930
757,43623.249000,316.881,-21.542,-11.907,475.915,-258.908,51.354,-938.150,-298.370,-491.930
758,43623.293000,301.910,-14.528,25.798,478.032,-244.329,30.123,-1363.150,66.630,-551.930
759,43623.333000,229.053,-12.524,65.488,479.020,-242.556,25.256,-1400.150,208.630,-490.930
760,43623.373000,217.076,-24.548,77.395,485.022,-228.657,11.882,-1124.150,112.630,-379.930
761,43623.411000,212.086,-62.622,83.349,488.982,-221.458,-3.648,-1055.150,-66.370,-228.930
762,43623.451000,233.045,-42.583,105.178,486.044,-221.842,-16.451,-1014.150,-69.370,7.070
763,43623.494000,250.012,-4.509,112.124,483.963,-231.352,-17.703,-711.150,286.630,268.070
764,43623.515000,271.969,16.532,85.333,483.930,-233.322,-20.708,-954.150,538.630,337.070
765,43623.549000,195.119,-49.597,90.295,480.030,-235.137,-15.847,-907.150,575.630,168.070
766,43623.589000,271.969,-109.714,5.953,477.071,-238.094,-18.885,-89.150,-301.370,1.070
767,43623.629000,324.866,-13.526,0.992,477.104,-235.363,-22.744,158.850,-57.370,159.070
768,43623.675000,251.010,-21.542,-8.930,472.103,-245.781,-21.075,-180.150,219.630,9.070
769,43623.719000,250.012,-25.550,39.690,477.086,-237.122,-17.875,-73.150,166.630,-254.930
770,43623.754000,250.012,-3.507,55.566,479.075,-234.179,-14.839,239.850,-16.370,-287.930
771,43623.774000,241.029,-4.509,60.527,484.995,-227.477,-14.642,157.850,-93.370,-190.930
772,43623.816000,220.070,-26.552,68.465,485.015,-225.691,-18.527,-190.150,-234.370,-346.930
773,43623.851000,275.961,-7.515,120.062,491.970,-213.538,-27.030,-231.150,-253.370,-461.930
774,43623.891000,283.945,-49.597,97.240,495.892,-210.673,-27.927,18.850,98.630,-330.930
775,43623.931000,166.175,-64.626,68.465,503.848,-198.873,-14.799,426.850,470.630,-162.930
776,43623.971000,169.170,-47.593,90.295,501.809,-207.069,-2.243,545.850,120.630,7.070
777,43624.14000,328.858,-53.605,18.853,498.801,-212.968,-9.297,760.850,-482.370,397.070
778,43624.53000,294.924,-60.618,38.698,491.960,-217.503,1.385,847.850,15.630,513.070
779,43624.73000,240.031,-16.532,29.767,484.057,-228.592,14.833,893.850,-1.370,625.070
780,43624.111000,203.103,-45.589,43.659,475.981,-251.922,29.909,1298.850,-21.370,738.070
781,43624.160000,194.121,-87.671,43.659,471.065,-257.401,39.584,1539.850,-301.370,626.070
782,43624.194000,211.088,-69.636,23.814,472.852,-269.351,51.058,1820.850,-597.370,364.070
783,43624.239000,245.021,-37.573,31.752,468.180,-259.384,72.967,2105.850,-474.370,255.070
784,43624.273000,299.914,46.591,65.488,468.181,-261.668,93.559,2128.850,-262.370,394.070
785,43624.313000,260.990,61.620,90.295,464.290,-264.139,109.221,1713.850,109.630,650.070
786,43624.354000,213.084,14.528,106.171,457.444,-271.037,137.543,1623.850,166.630,573.070
787,43624.374000,224.062,-38.575,86.326,448.823,-265.827,160.296,1390.850,120.630,419.070
788,43624.414000,234.043,-12.524,39.690,444.974,-265.434,177.022,1317.850,-80.370,351.070
789,43624.450000,258.994,33.566,34.729,443.173,-257.502,191.994,1169.850,-143.370,219.070
790,43624.490000,266.979,10.521,35.721,443.258,-252.563,200.000,1120.850,-288.370,252.070
791,43624.530000,249.014,-24.548,34.729,445.288,-247.544,209.979,1195.850,-218.370,302.070
792,43624.570000,218.074,-21.542,50.605,442.448,-244.353,224.817,1283.850,-192.370,511.070
793,43624.629000,244.023,-43.585,102.202,431.842,-241.273,239.639,1403.850,-22.370,667.070
794,43624.653000,280.951,-109.714,91.287,430.049,-233.235,258.548,2047.850,1.630,705.070
795,43624.673000,257.996,-99.695,58.543,422.596,-215.481,290.505,2615.850,38.630,625.070
796,43624.713000,206.097,4.509,28.775,411.443,-185.436,324.765,2869.850,84.630,678.070
797,43624.754000,247.018,43.585,0.000,407.838,-168.837,346.860,2372.850,-43.370,836.070
798,43624.795000,275.961,20.540,19.845,402.266,-152.606,356.154,1916.850,-225.370,1028.070
799,43624.830000,274.963,-28.556,31.752,393.666,-144.823,369.143,2045.850,-60.370,1033.070
800,43624.873000,256.000,-14.528,55.566,387.291,-117.994,386.600,1972.850,10.630,921.070
801,43624.914000,262.986,31.562,55.566,385.594,-102.575,398.829,1782.850,-5.370,727.070
802,43624.950000,255.002,72.642,95.256,380.965,-88.222,408.073,1322.850,54.630,454.070
803,43624.970000,255.002,59.616,95.256,376.229,-80.621,412.211,1034.850,61.630,272.070
804,43625.14000,220.070,24.548,104.186,371.708,-58.729,420.681,319.850,405.630,-244.930
805,43625.50000,175.158,-41.581,119.070,358.303,-48.099,436.692,247.850,725.630,-740.930
806,43625.90000,158.191,-29.558,83.349,349.874,-28.127,446.086,141.850,642.630,-816.930
807,43625.134000,235.041,38.575,29.767,350.895,-24.384,444.225,-209.150,-129.370,-706.930
808,43625.174000,315.883,43.585,16.868,352.734,-31.054,441.091,-876.150,-3.370,-627.930
809,43625.214000,238.035,-45.589,106.171,347.738,-41.420,444.729,-919.150,211.630,-504.930
810,43625.250000,281.949,-55.609,37.705,360.321,-42.476,433.901,-479.150,-368.370,-453.930
811,43625.270000,284.943,57.613,18.853,366.968,-51.968,428.730,-1019.150,-233.370,-466.930
812,43625.313000,265.980,65.628,93.271,372.551,-67.279,418.478,-1321.150,-274.370,-265.930
813,43625.353000,259.992,-27.554,107.163,376.972,-95.843,407.855,-1437.150,-266.370,25.070
814,43625.393000,217.076,-67.632,90.295,380.422,-124.420,397.229,-1259.150,-240.370,193.070
815,43625.434000,186.136,-13.526,105.178,378.115,-148.378,385.740,-1074.150,-43.370,253.070
816,43625.474000,199.111,10.521,103.194,377.887,-163.613,381.381,-891.150,80.630,234.070
817,43625.515000,237.037,10.521,106.171,376.543,-188.424,372.820,-1037.150,24.630,147.070
818,43625.555000,271.969,19.538,80.372,377.259,-203.988,355.667,-1260.150,-78.370,-245.930
819,43625.575000,304.904,7.515,47.628,383.776,-221.308,340.442,-1227.150,-21.370,-505.930
820,43625.615000,270.971,-9.519,30.760,384.799,-216.777,332.701,-1144.150,24.630,-588.930
821,43625.655000,246.020,-13.526,38.698,391.316,-234.097,317.476,-1379.150,158.630,-624.930
822,43625.695000,222.066,10.521,53.581,396.075,-239.098,304.558,-1498.150,130.630,-583.930
823,43625.735000,214.082,36.571,46.636,404.511,-256.680,278.509,-1677.150,-84.370,-421.930
824,43625.791000,220.070,5.511,49.612,404.319,-267.609,258.532,-1957.150,-175.370,-302.930
825,43625.815000,258.994,-82.661,63.504,409.859,-283.499,226.624,-2142.150,-217.370,-338.930
826,43625.855000,256.998,-105.706,87.318,417.481,-289.853,196.952,-1528.150,-82.370,-630.930
827,43625.875000,241.029,-82.661,83.349,429.063,-292.079,178.221,-1279.150,59.630,-630.930
828,43625.914000,241.029,-31.562,78.388,429.984,-294.246,167.343,-1309.150,399.630,-649.930
829,43625.964000,196.117,-15.530,64.496,435.000,-282.095,159.820,-1074.150,374.630,-775.930
830,43625.994000,196.117,-23.546,63.504,441.792,-280.502,145.122,-1022.150,161.630,-528.930
831,43626.40000,271.969,-39.577,56.558,448.578,-278.989,127.470,-1046.150,-186.370,-321.930
832,43626.74000,279.953,-40.579,13.891,449.530,-278.450,111.749,-1122.150,-73.370,-337.930
833,43626.115000,219.072,-27.554,58.543,457.298,-276.765,100.006,-1032.150,109.630,-350.930
834,43626.155000,231.049,0.501,90.295,455.341,-277.003,92.127,-917.150,155.630,-302.930
835,43626.183000,258.994,17.534,93.271,458.289,-272.655,76.515,-1323.150,186.630,-261.930
836,43626.216000,198.113,-22.544,71.442,458.249,-273.182,56.828,-1582.150,198.630,-328.930
837,43626.251000,223.064,-51.601,50.605,467.966,-269.841,35.298,-1485.150,82.630,-339.930
838,43626.295000,311.891,-68.634,-9.922,464.167,-262.673,22.704,-1000.150,-182.370,-251.930
839,43626.336000,297.918,-43.585,21.829,467.083,-261.056,10.951,-969.150,117.630,-225.930
840,43626.380000,244.023,-22.544,50.605,470.938,-262.131,4.042,-1144.150,315.630,-342.930
841,43626.415000,215.080,-43.585,62.512,475.920,-251.950,-6.486,-1138.150,362.630,-471.930
842,43626.456000,213.084,-47.593,75.411,482.928,-236.803,-9.003,-1102.150,267.630,-533.930
843,43626.474000,215.080,-51.601,90.295,485.962,-227.516,-16.609,-898.150,154.630,-356.930
844,43626.515000,188.133,-55.609,99.225,487.789,-234.345,-25.648,-694.150,116.630,-70.930
845,43626.554000,207.096,5.511,108.155,484.036,-225.810,-22.466,-678.150,362.630,291.070
846,43626.594000,207.096,39.577,103.194,478.047,-237.240,-22.794,-843.150,495.630,461.070
847,43626.645000,231.049,-74.646,66.481,475.109,-238.385,-28.733,-914.150,248.630,248.070
848,43626.674000,382.752,-109.714,-13.891,471.094,-245.533,-46.643,-429.150,-472.370,73.070
849,43626.716000,316.881,-43.585,18.853,472.141,-240.686,-42.572,-5.150,215.630,145.070
850,43626.736000,256.000,-42.583,18.853,470.145,-244.496,-42.682,-99.150,74.630,-239.930
851,43626.779000,244.023,-23.546,35.721,471.116,-244.482,-42.680,-117.150,147.630,-237.930
852,43626.820000,242.027,-9.519,41.674,477.013,-239.619,-40.567,98.850,18.630,-75.930
853,43626.861000,227.057,-38.575,80.372,482.023,-229.069,-37.315,102.850,150.630,-59.930
854,43626.895000,220.070,-55.609,104.186,485.922,-228.042,-36.296,21.850,47.630,-274.930
855,43626.939000,244.023,-66.630,128.992,487.069,-215.762,-36.936,77.850,-292.370,-624.930
856,43626.974000,266.979,-19.538,110.140,492.026,-208.207,-39.668,168.850,-23.370,-532.930
857,43627.16000,207.096,-10.521,69.457,499.860,-204.130,-32.656,302.850,371.630,-162.930
858,43627.36000,142.222,-43.585,81.364,497.994,-200.112,-22.712,281.850,81.630,-18.930
859,43627.83000,275.961,-86.669,74.419,496.992,-202.069,-24.735,549.850,-360.370,281.070
860,43627.116000,282.947,-108.712,38.698,492.909,-216.230,-22.185,1091.850,-231.370,579.070
861,43627.156000,238.035,-36.571,42.667,485.915,-231.193,-12.777,1142.850,-281.370,601.070
862,43627.211000,235.041,-12.524,38.698,479.795,-252.762,-3.551,1254.850,-220.370,650.070
863,43627.233000,217.076,-60.618,45.643,475.898,-256.073,16.023,1486.850,-130.370,578.070
864,43627.275000,199.111,-79.656,57.550,471.939,-262.484,25.674,1582.850,-322.370,321.070
865,43627.315000,194.121,-73.644,45.643,469.035,-263.181,36.469,1767.850,-637.370,166.070
866,43627.338000,244.023,-9.519,48.620,473.970,-259.749,56.245,2057.850,-391.370,116.070
867,43627.380000,266.979,38.575,64.496,467.132,-265.780,81.640,1932.850,-279.370,316.070
868,43627.415000,284.943,43.585,86.326,468.111,-266.423,92.443,1550.850,7.630,552.070
869,43627.455000,254.004,-11.523,82.357,459.351,-271.457,120.813,1711.850,182.630,580.070
870,43627.494000,226.058,-38.575,86.326,452.660,-267.900,151.392,1632.850,158.630,561.070
871,43627.541000,210.090,7.515,56.558,444.931,-267.536,169.094,1316.850,-24.370,475.070
872,43627.583000,253.006,26.552,47.628,445.918,-267.312,176.971,1090.850,-340.370,370.070
873,43627.616000,274.963,-15.530,21.829,442.961,-271.004,181.782,1128.850,-425.370,406.070
874,43627.635000,236.039,-24.548,36.713,445.062,-261.230,192.877,1201.850,-150.370,381.070
875,43627.678000,211.088,-20.540,70.450,437.336,-260.052,205.683,1188.850,-144.370,411.070
876,43627.716000,240.031,-78.654,100.217,434.549,-253.867,226.507,1419.850,-92.370,500.070
877,43627.761000,257.996,-115.726,69.457,429.710,-254.513,240.251,2232.850,-270.370,674.070
878,43627.795000,222.066,-35.569,9.922,425.254,-231.018,273.356,2626.850,-28.370,736.070
879,43627.833000,257.996,46.591,18.853,415.731,-221.093,296.239,2165.850,-275.370,773.070
880,43627.878000,307.899,40.579,5.953,411.187,-201.802,313.489,1677.850,-152.370,712.070
881,43627.918000,283.945,-8.517,43.659,412.221,-198.662,324.398,1423.850,-19.370,497.070
882,43627.938000,258.994,-5.511,55.566,406.661,-182.273,339.599,1333.850,16.630,316.070
883,43627.978000,249.014,49.597,66.481,404.761,-180.987,353.402,1071.850,122.630,227.070
884,43628.13000,252.008,52.603,87.318,400.311,-154.341,362.988,709.850,137.630,109.070
885,43628.58000,237.037,44.587,86.326,395.488,-153.253,370.879,288.850,254.630,-48.930
886,43628.94000,186.136,-3.507,96.248,387.792,-149.396,377.859,-275.150,775.630,-485.930
887,43628.134000,150.207,-61.620,99.225,377.237,-142.586,390.817,15.850,935.630,-762.930
888,43628.176000,198.113,-19.538,70.450,373.551,-130.111,400.010,192.850,507.630,-517.930
889,43628.220000,336.842,35.569,7.938,369.747,-124.545,398.192,-302.150,-17.370,-476.930
890,43628.234000,292.928,-25.550,97.240,374.524,-130.071,400.997,-507.150,605.630,-432.930
891,43628.278000,233.045,-41.581,76.403,370.763,-122.403,407.105,207.850,-87.370,-192.930
892,43628.331000,260.990,49.597,2.977,381.485,-118.601,402.311,-374.150,-266.370,-273.930
893,43628.363000,263.984,36.571,51.597,381.192,-137.750,392.926,-940.150,-89.370,-280.930
894,43628.396000,256.998,-11.523,88.310,380.095,-145.540,384.838,-757.150,-218.370,-83.930
895,43628.434000,231.049,-30.560,91.287,388.640,-157.106,371.744,-591.150,-417.370,194.070
896,43628.485000,210.090,-40.579,118.078,392.318,-169.686,358.613,-549.150,-549.370,324.070
897,43628.498000,188.133,-20.540,91.287,398.805,-188.924,342.351,-406.150,-544.370,571.070
898,43628.540000,165.177,-20.540,78.388,396.758,-195.702,337.241,-69.150,-395.370,638.070
899,43628.578000,196.117,-4.509,103.194,400.434,-209.071,329.990,-123.150,-411.370,538.070
900,43628.620000,274.963,9.519,112.124,398.325,-219.711,321.822,-269.150,-428.370,482.070
901,43628.660000,385.747,50.599,31.752,400.063,-232.292,309.672,-552.150,-81.370,86.070
902,43628.700000,266.979,-23.546,38.698,399.040,-235.301,303.685,-735.150,244.630,-386.930
903,43628.740000,246.020,-32.564,53.581,400.951,-237.191,302.652,-906.150,344.630,-669.930
904,43628.774000,257.996,8.517,53.581,401.863,-240.251,293.716,-1103.150,244.630,-660.930
905,43628.794000,242.027,47.593,24.806,406.644,-243.414,278.882,-1382.150,232.630,-556.930
906,43628.834000,223.064,31.562,9.922,408.355,-257.126,259.814,-1771.150,214.630,-415.930
907,43628.881000,223.064,-30.560,32.744,410.093,-268.946,240.800,-1998.150,-37.370,-362.930
908,43628.915000,257.996,-72.642,50.605,414.611,-288.580,210.753,-2043.150,-84.370,-487.930
909,43628.956000,265.980,-89.675,85.333,427.124,-292.842,186.066,-1695.150,74.630,-531.930
910,43628.999000,242.027,-70.638,71.442,424.079,-299.215,161.293,-1739.150,172.630,-456.930
911,43629.39000,185.138,-46.591,74.419,435.767,-293.929,140.804,-1643.150,472.630,-733.930
912,43629.79000,155.197,-27.554,73.426,439.644,-293.953,137.859,-1183.150,364.630,-846.930
913,43629.99000,219.072,-21.542,74.419,446.614,-280.067,123.503,-1014.150,2.630,-358.930
914,43629.139000,320.873,-56.611,28.775,448.408,-288.105,104.594,-1045.150,-94.370,-149.930
915,43629.184000,262.986,-50.599,45.643,450.419,-281.800,91.985,-1030.150,127.630,-342.930
916,43629.224000,220.070,-5.511,76.403,455.221,-284.700,86.995,-1080.150,302.630,-350.930
917,43629.258000,233.045,15.530,80.372,456.289,-276.518,74.437,-1092.150,263.630,-324.930
918,43629.296000,221.068,-31.562,58.543,459.167,-276.924,57.710,-1317.150,245.630,-424.930
919,43629.336000,238.035,-54.607,47.628,464.180,-264.038,42.339,-1272.150,71.630,-546.930
920,43629.381000,268.975,-37.573,28.775,472.012,-257.703,27.774,-1093.150,-49.370,-563.930
921,43629.400000,275.961,-6.513,40.682,474.964,-253.302,14.131,-1134.150,11.630,-462.930
922,43629.438000,245.021,-25.550,61.519,482.902,-240.217,4.672,-1167.150,226.630,-372.930
923,43629.475000,230.051,-44.587,72.434,485.929,-231.009,-5.886,-1056.150,132.630,-378.930
924,43629.516000,230.051,-48.595,77.395,486.852,-233.149,-15.781,-923.150,54.630,-326.930
925,43629.575000,208.094,-48.595,95.256,488.042,-217.244,-22.221,-584.150,54.630,-126.930
926,43629.596000,195.119,-46.591,132.961,486.942,-225.848,-25.413,-543.150,234.630,93.070
927,43629.640000,222.066,49.597,109.147,482.061,-228.569,-18.612,-752.150,526.630,509.070
928,43629.679000,202.105,-7.515,84.341,477.071,-238.094,-18.885,-744.150,366.630,362.070
929,43629.703000,297.918,-82.661,-19.845,475.015,-244.217,-34.797,-702.150,-767.370,118.070
930,43629.749000,378.760,-56.611,-15.876,473.016,-246.530,-49.619,-81.150,150.630,191.070
931,43629.784000,273.965,-41.581,-3.969,469.133,-247.347,-42.763,11.850,139.630,-0.930
932,43629.819000,258.994,-6.513,29.767,476.981,-241.563,-42.589,-205.150,223.630,-349.930
933,43629.861000,234.043,10.521,49.612,482.035,-228.150,-38.273,-290.150,256.630,-342.930
934,43629.904000,221.068,-29.558,42.667,482.098,-223.501,-41.094,-404.150,48.630,-227.930
935,43629.936000,225.060,-49.597,56.558,481.229,-216.055,-44.823,-151.150,-104.370,-278.930
936,43629.978000,256.998,-72.642,69.457,488.011,-216.116,-50.715,66.850,-293.370,-459.930
937,43629.996000,268.975,-61.620,104.186,491.233,-194.405,-53.056,152.850,-165.370,-515.930
938,43630.38000,235.041,-16.532,104.186,499.068,-189.566,-52.908,233.850,109.630,-353.930
939,43630.80000,172.164,-9.519,83.349,501.070,-185.677,-49.846,193.850,118.630,-245.930
940,43630.121000,199.111,-40.579,85.333,503.047,-183.653,-45.852,527.850,-96.370,-76.930
941,43630.155000,317.879,-106.708,44.651,499.021,-194.005,-42.212,780.850,-358.370,308.070
942,43630.195000,281.949,-55.609,22.822,499.742,-211.800,-36.804,1104.850,-219.370,606.070
943,43630.235000,259.992,5.511,23.814,489.908,-221.263,-32.166,1135.850,-165.370,627.070
944,43630.275000,227.057,-21.542,34.729,484.893,-234.175,-17.780,1201.850,-137.370,622.070
945,43630.301000,205.099,-68.634,32.744,479.889,-246.169,-4.351,1258.850,-231.370,491.070
946,43630.338000,218.074,-65.628,23.814,476.917,-251.594,6.313,1414.850,-353.370,347.070
947,43630.378000,235.041,-48.595,29.767,475.793,-262.798,11.901,1603.850,-419.370,290.070
948,43630.418000,281.949,35.569,42.667,474.900,-259.501,29.696,1656.850,-209.370,271.070
949,43630.466000,259.992,30.560,72.434,470.889,-270.429,47.090,1196.850,1.630,379.070
950,43630.500000,230.051,-1.503,97.240,467.090,-267.094,67.832,1139.850,144.630,260.070
951,43630.539000,243.025,-27.554,89.302,464.145,-271.390,85.413,1349.850,150.630,224.070
952,43630.579000,253.006,-38.575,77.395,461.352,-266.045,110.147,1501.850,190.630,335.070
953,43630.599000,220.070,0.501,44.651,454.553,-269.266,134.636,1396.850,231.630,368.070
954,43630.639000,237.037,30.560,42.667,452.699,-265.089,150.487,1166.850,-75.370,377.070
955,43630.685000,266.979,10.521,27.783,446.776,-273.367,162.050,1064.850,-258.370,356.070
956,43630.720000,256.000,-10.521,39.690,446.931,-263.673,171.173,1047.850,-70.370,398.070
957,43630.760000,254.004,-18.536,45.643,441.000,-272.817,185.662,1016.850,-18.370,356.070
958,43630.800000,235.041,-11.523,73.426,439.240,-262.048,200.713,1029.850,32.630,348.070
959,43630.848000,243.025,-33.566,95.256,431.490,-263.496,221.315,1347.850,115.630,464.070
960,43630.876000,243.025,-82.661,91.287,427.702,-259.242,241.100,1773.850,65.630,561.070
961,43630.905000,204.101,-52.603,53.581,427.061,-239.632,268.201,2244.850,-43.370,520.070
962,43630.941000,216.078,4.509,24.806,418.611,-222.996,294.224,2226.850,-96.370,610.070
963,43630.980000,252.008,17.534,33.736,414.889,-214.066,312.171,1951.850,-300.370,700.070
964,43631.16000,274.963,6.513,43.659,411.348,-192.030,325.565,1851.850,-245.370,806.070
965,43631.69000,265.980,-14.528,49.612,409.484,-187.985,336.494,1835.850,-196.370,761.070
966,43631.99000,270.971,-2.505,48.620,407.911,-164.056,348.960,1665.850,-130.370,560.070
967,43631.136000,260.990,36.571,72.434,399.433,-148.549,368.066,1552.850,-2.370,440.070
968,43631.176000,247.018,65.628,105.178,397.791,-129.348,380.400,1371.850,192.630,403.070
969,43631.196000,228.055,70.638,97.240,390.034,-130.114,391.186,808.850,426.630,259.070
970,43631.239000,180.148,-9.519,129.984,378.628,-114.859,402.410,240.850,659.630,35.070
971,43631.279000,195.119,-38.575,130.977,365.956,-120.343,416.007,-1.150,527.630,-78.930
972,43631.316000,230.051,-37.573,82.357,361.265,-109.091,415.329,157.850,281.630,-261.930
973,43631.356000,303.906,1.503,0.000,366.148,-107.104,416.376,-369.150,-164.370,-291.930
974,43631.396000,301.910,-19.538,30.760,364.114,-112.937,411.292,-599.150,169.630,-76.930
975,43631.439000,244.023,-38.575,43.659,365.831,-128.093,408.906,-382.150,-78.370,69.070
976,43631.459000,228.055,-22.544,20.837,373.484,-134.813,400.863,-657.150,-310.370,50.070
977,43631.499000,255.002,-29.558,34.729,376.046,-157.730,390.394,-801.150,-220.370,-190.930
978,43631.536000,268.975,-53.605,50.605,380.838,-160.761,380.482,-515.150,-344.370,-383.930
979,43631.579000,258.994,-44.587,80.372,395.488,-153.253,370.879,-377.150,-477.370,-260.930
980,43631.616000,220.070,-4.509,114.109,400.270,-157.178,362.909,-462.150,-206.370,-96.930
981,43631.656000,191.127,8.517,88.310,401.899,-178.086,357.412,-535.150,-98.370,156.070
982,43631.696000,180.148,4.509,86.326,397.979,-180.164,352.430,-567.150,62.630,91.070
983,43631.748000,206.097,21.542,106.171,392.962,-190.792,346.224,-826.150,-22.370,-121.930
984,43631.761000,347.821,33.566,76.403,403.479,-199.626,328.291,-1056.150,-309.370,-267.930
985,43631.801000,316.881,16.532,28.775,407.204,-209.290,318.192,-1119.150,146.630,-380.930
986,43631.844000,252.008,-22.544,31.752,407.004,-222.634,313.886,-1209.150,217.630,-570.930
987,43631.876000,241.029,-34.568,35.721,411.840,-222.015,299.158,-1201.150,198.630,-604.930
988,43631.916000,219.072,1.503,59.535,413.636,-231.549,294.961,-1210.150,233.630,-511.930
989,43631.959000,199.111,34.568,46.636,419.339,-237.641,276.113,-1281.150,64.630,-397.930
990,43631.998000,195.119,-0.501,38.698,418.028,-258.197,249.965,-1575.150,-287.370,-237.930
991,43632.38000,256.998,-84.665,52.589,421.787,-264.342,230.128,-1693.150,-450.370,-188.930
992,43632.58000,280.951,-99.695,75.411,433.140,-281.831,206.054,-1303.150,-281.370,-294.930
993,43632.98000,238.035,-63.624,76.403,439.067,-272.739,189.596,-840.150,-166.370,-437.930
994,43632.138000,236.039,-61.620,71.442,442.905,-274.025,174.812,-582.150,3.630,-314.930
995,43632.178000,248.016,-19.538,71.442,444.951,-266.511,172.074,-384.150,5.630,-358.930
996,43632.229000,211.088,-2.505,57.550,443.937,-269.388,171.008,-373.150,19.630,-214.930
997,43632.264000,221.068,-25.550,50.605,448.709,-273.444,158.117,-558.150,-44.370,-60.930
998,43632.315000,275.961,-53.605,55.566,446.775,-272.605,155.186,-360.150,-3.370,-152.930
999,43632.339000,272.967,-29.558,54.574,451.709,-266.889,154.370,-246.150,173.630,-131.930
1000,43632.359000,244.023,-6.513,56.558,453.611,-269.672,155.279,-343.150,173.630,8.070
1001,43632.400000,234.043,-26.552,52.589,447.734,-272.749,149.282,-479.150,43.630,82.070
1002,43632.440000,238.035,-53.605,58.543,445.602,-285.228,143.030,-409.150,-5.370,87.070
1003,43632.480000,240.031,-48.595,52.589,443.796,-275.826,142.305,-210.150,14.630,19.070
1004,43632.521000,246.020,-22.544,48.620,444.664,-282.510,139.169,-157.150,10.630,9.070
1005,43632.561000,247.018,-19.538,48.620,441.746,-282.630,136.210,-222.150,-24.370,30.070
1006,43632.598000,250.012,-26.552,51.597,443.575,-290.194,135.019,-225.150,-30.370,3.070
1007,43632.638000,247.018,-28.556,48.620,444.646,-282.747,130.310,-173.150,-36.370,-16.930
1008,43632.658000,244.023,-22.544,46.636,445.487,-291.323,127.122,-199.150,-24.370,-16.930
1009,43632.698000,244.023,-27.554,50.605,445.506,-289.537,123.237,-181.150,-48.370,-12.930
1010,43632.738000,245.021,-40.579,53.581,446.459,-290.522,121.244,-13.150,-22.370,-4.930
1011,43632.781000,251.010,-49.597,47.628,441.704,-283.945,122.403,76.850,-8.370,6.070
1012,43632.821000,247.018,-29.558,40.682,444.593,-285.742,124.325,89.850,9.630,44.070
