Sample, Time, ACCX, ACCY, ACCZ, MAGX, MAGY, MAGZ, GYRX, GYRY, GYRZ
0,43049.429000,245.190,4.016,62.464,454.416,-223.768,171.718,-101.780,221.400,-0.060
1,43049.455000,242.242,3.012,64.512,450.611,-225.592,174.657,-40.780,208.400,8.940
2,43049.490000,241.259,3.012,63.488,454.351,-229.148,177.571,-11.780,197.400,13.940
3,43049.532000,242.242,4.016,66.560,447.732,-229.177,180.545,35.220,185.400,19.940
4,43049.574000,242.242,2.008,66.560,448.744,-224.545,182.634,90.220,167.400,38.940
5,43049.611000,242.242,2.008,68.608,446.742,-232.776,184.445,136.220,116.400,47.940
6,43049.649000,240.276,1.004,67.584,445.914,-224.484,187.604,152.220,59.400,75.940
7,43049.672000,242.242,1.004,64.512,445.819,-231.755,190.433,203.220,0.400,71.940
8,43049.713000,243.225,1.004,63.488,449.675,-227.027,195.513,260.220,-42.600,62.940
9,43049.759000,242.242,5.020,60.416,447.754,-228.923,193.480,256.220,-58.600,22.940
10,43049.795000,242.242,10.039,60.416,444.941,-227.109,194.509,179.220,-43.600,-0.060
11,43049.836000,245.190,9.035,62.464,445.061,-218.785,198.665,137.220,-49.600,3.940
12,43049.869000,246.173,8.031,59.392,448.832,-219.671,197.657,95.220,-21.600,5.940
13,43049.920000,244.207,7.027,58.368,445.045,-219.741,196.656,82.220,-8.600,15.940
14,43049.931000,245.190,7.027,60.416,447.869,-221.418,202.592,72.220,2.400,19.940
15,43049.974000,243.225,6.024,58.368,446.034,-216.921,199.701,75.220,-11.600,15.940
16,43050.11000,245.190,9.035,59.392,444.064,-222.463,198.586,57.220,-14.600,10.940
17,43050.51000,244.207,6.024,59.392,446.024,-217.798,201.672,53.220,-17.600,10.940
18,43050.95000,245.190,7.027,57.344,445.001,-223.327,200.558,36.220,-19.600,9.940
19,43050.135000,244.207,6.024,58.368,445.096,-216.057,197.729,31.220,-34.600,12.940
20,43050.153000,248.138,3.012,58.368,445.075,-217.850,199.680,20.220,-35.600,-0.060
21,43050.190000,243.225,6.024,54.272,447.900,-218.748,198.670,22.220,-42.600,-18.060
22,43050.245000,244.207,5.020,56.320,446.034,-216.921,199.701,10.220,-39.600,-32.060
23,43050.270000,245.190,7.027,55.296,447.948,-215.103,197.753,-1.780,-59.600,-46.060
24,43050.316000,246.173,6.024,58.368,448.761,-224.349,192.585,-15.780,-51.600,-45.060
25,43050.354000,248.138,9.035,58.368,450.757,-216.956,194.734,-12.780,-35.600,-60.060
26,43050.374000,248.138,10.039,58.368,453.657,-212.358,193.842,-15.780,-29.600,-58.060
27,43050.411000,245.190,11.043,56.320,452.696,-213.306,192.825,-32.780,-5.600,-60.060
28,43050.448000,245.190,12.047,54.272,456.570,-206.823,193.964,-55.780,26.400,-53.060
29,43050.488000,244.207,11.043,57.344,451.771,-211.525,190.873,-98.780,45.400,-50.060
30,43050.531000,243.225,12.047,56.320,451.736,-214.254,191.809,-124.780,33.400,-64.060
31,43050.575000,244.207,12.047,58.368,455.574,-210.500,193.884,-131.780,20.400,-63.060
32,43050.611000,244.207,9.035,63.488,456.500,-211.502,188.891,-98.780,-10.600,-56.060
33,43050.635000,245.190,12.047,67.584,456.501,-211.482,189.886,-63.780,-37.600,-46.060
34,43050.668000,244.207,11.043,63.488,457.448,-211.470,189.888,-35.780,-62.600,-39.060
35,43050.715000,245.190,13.051,60.416,459.359,-209.690,185.950,-17.780,-71.600,-33.060
36,43050.749000,244.207,11.043,53.248,459.343,-210.646,183.940,-7.780,-68.600,-34.060
37,43050.794000,245.190,11.043,50.176,461.171,-215.221,182.851,-4.780,-35.600,-36.060
38,43050.831000,247.155,12.047,49.152,457.466,-209.715,185.946,7.220,-3.600,-30.060
39,43050.848000,247.155,11.043,51.200,455.608,-207.031,184.011,-10.780,60.400,-36.060
40,43050.888000,245.190,10.039,54.272,458.459,-206.077,184.036,-20.780,68.400,-30.060
41,43050.928000,244.207,13.051,52.224,456.498,-211.521,187.896,29.220,80.400,-39.060
42,43050.975000,242.242,14.055,56.320,457.583,-201.412,189.107,32.220,31.400,-52.060
43,43051.11000,243.225,15.059,57.344,456.562,-206.921,188.988,66.220,-3.600,-58.060
44,43051.54000,245.190,18.071,61.440,460.512,-194.942,190.244,100.220,-52.600,-56.060
45,43051.73000,245.190,20.078,61.440,461.430,-196.800,188.216,107.220,-64.600,-57.060
46,43051.111000,247.155,23.090,60.416,462.424,-193.143,187.301,119.220,-71.600,-59.060
47,43051.157000,245.190,24.094,59.392,462.415,-194.020,189.272,102.220,-50.600,-38.060
48,43051.205000,247.155,25.098,60.416,465.301,-190.357,187.365,83.220,-27.600,-38.060
49,43051.235000,245.190,23.090,55.296,461.469,-194.033,189.270,39.220,38.400,-17.060
50,43051.272000,243.225,23.090,55.296,462.333,-200.374,192.120,19.220,83.400,-11.060
51,43051.319000,245.190,22.086,53.248,465.316,-190.181,196.320,-6.780,101.400,-8.060
52,43051.333000,243.225,21.082,51.200,464.373,-190.155,198.309,-39.780,84.400,-15.060
53,43051.372000,241.259,20.078,54.272,461.445,-196.625,197.172,-61.780,68.400,-25.060
54,43051.416000,244.207,23.090,61.440,466.203,-194.711,198.214,-58.780,24.400,-16.060
55,43051.451000,244.207,23.090,61.440,460.461,-199.386,197.112,-44.780,-21.600,-15.060
56,43051.497000,246.173,22.086,67.584,463.405,-191.181,193.312,-54.780,-45.600,-6.060
57,43051.532000,243.225,22.086,65.536,466.252,-190.286,190.351,-27.780,-62.600,-0.060
58,43051.556000,244.207,21.082,60.416,465.234,-195.756,192.223,-16.780,-64.600,-10.060
59,43051.596000,244.207,22.086,58.368,466.216,-193.015,191.288,-16.780,-37.600,-13.060
60,43051.630000,244.207,23.090,53.248,465.234,-195.756,192.223,-19.780,13.400,-9.060
61,43051.670000,243.225,20.078,55.296,460.513,-194.922,191.239,-5.780,22.400,-5.060
62,43051.711000,241.259,22.086,53.248,467.203,-190.215,193.338,-16.780,36.400,-10.060
63,43051.751000,244.207,23.090,53.248,466.154,-197.596,191.190,-33.780,11.400,-9.060
64,43051.771000,245.190,23.090,61.440,461.442,-195.884,188.236,-21.780,-1.600,2.940
65,43051.811000,246.173,24.094,64.512,469.052,-193.016,189.303,-14.780,-36.600,13.940
66,43051.852000,245.190,22.086,64.512,465.288,-191.273,187.345,-2.780,-59.600,17.940
67,43051.892000,244.207,23.090,59.392,462.374,-196.807,187.223,15.220,-77.600,16.940
68,43051.935000,244.207,21.082,54.272,468.140,-190.320,187.370,17.220,-79.600,19.940
69,43051.972000,243.225,20.078,51.200,465.219,-195.932,183.267,10.220,-56.600,18.940
70,43051.995000,245.190,21.082,53.248,464.299,-194.093,184.300,5.220,-30.600,20.940
71,43052.32000,247.155,20.078,53.248,465.235,-194.977,185.277,-17.780,-2.600,15.940
72,43052.75000,245.190,19.075,52.224,465.208,-196.828,184.243,-25.780,16.400,21.940
73,43052.110000,245.190,18.071,51.200,462.407,-194.118,184.296,-47.780,-0.600,23.940
74,43052.155000,245.190,18.071,57.344,464.199,-201.422,184.144,-25.780,-8.600,23.940
75,43052.195000,246.173,20.078,59.392,463.366,-193.189,184.318,-12.780,-37.600,16.940
76,43052.236000,247.155,20.078,58.368,463.266,-200.518,184.161,12.220,-69.600,9.940
77,43052.260000,244.207,20.078,55.296,466.149,-196.875,181.259,18.220,-76.600,12.940
78,43052.296000,246.173,19.075,53.248,462.298,-201.544,179.165,12.220,-73.600,18.940
79,43052.336000,246.173,17.067,49.152,468.007,-198.799,175.253,23.220,-62.600,19.940
80,43052.376000,247.155,16.063,49.152,466.044,-204.262,178.118,25.220,-34.600,10.940
81,43052.414000,248.138,16.063,48.128,466.978,-205.166,178.100,23.220,7.400,3.940
82,43052.454000,246.173,17.067,49.152,468.960,-198.708,179.235,7.220,51.400,-6.060
83,43052.480000,246.173,18.071,49.152,467.955,-203.262,181.126,-18.780,77.400,-10.060
84,43052.516000,246.173,17.067,49.152,467.037,-201.404,183.154,-25.780,71.400,-16.060
85,43052.556000,246.173,17.067,56.320,467.022,-202.339,182.139,-19.780,59.400,-14.060
86,43052.591000,245.190,19.075,59.392,462.378,-195.989,182.267,-6.780,12.400,-14.060
87,43052.636000,244.207,20.078,58.368,464.262,-196.841,184.241,6.220,-36.600,-6.060
88,43052.679000,245.190,19.075,56.320,469.908,-198.676,180.232,10.220,-60.600,-2.060
89,43052.694000,246.173,20.078,53.248,465.239,-194.158,180.321,11.220,-65.600,5.940
90,43052.744000,244.207,20.078,48.128,467.066,-198.753,178.237,19.220,-53.600,2.940
91,43052.771000,248.138,17.067,50.176,465.162,-199.674,179.209,1.220,-28.600,17.940
92,43052.819000,247.155,18.071,52.224,463.216,-203.403,177.138,-3.780,15.400,14.940
93,43052.852000,246.173,20.078,51.200,467.078,-197.837,178.256,-11.780,35.400,2.940
94,43052.894000,243.225,18.071,53.248,463.229,-202.487,177.157,-39.780,29.400,-1.060
95,43052.936000,245.190,20.078,52.224,462.302,-201.505,181.155,-43.780,19.400,-4.060
96,43052.956000,246.173,20.078,56.320,464.163,-203.391,177.139,-44.780,-2.600,-2.060
97,43052.996000,247.155,21.082,57.344,463.154,-207.984,177.040,-31.780,-52.600,-4.060
98,43053.34000,246.173,17.067,54.272,466.105,-199.701,177.221,-37.780,-68.600,11.940
99,43053.77000,246.173,18.071,50.176,467.993,-199.735,174.239,-24.780,-73.600,10.940
100,43053.111000,245.190,18.071,52.224,464.206,-199.804,173.237,-12.780,-53.600,8.940
101,43053.152000,247.155,17.067,50.176,467.038,-199.845,169.262,-1.780,-41.600,1.940
102,43053.172000,248.138,17.067,47.104,467.999,-198.896,170.278,-3.780,1.400,0.940
103,43053.213000,249.121,15.059,48.128,466.086,-200.695,173.221,-14.780,33.400,-3.060
104,43053.253000,246.173,15.059,47.104,466.100,-199.760,174.235,-29.780,53.400,-17.060
105,43053.296000,247.155,17.067,48.128,466.957,-206.180,173.105,-42.780,67.400,-22.060
106,43053.333000,247.155,17.067,53.248,462.201,-208.074,173.058,-30.780,45.400,-11.060
107,43053.377000,246.173,19.075,54.272,467.998,-199.676,177.224,-11.780,0.400,-10.060
108,43053.391000,245.190,18.071,54.272,470.832,-199.697,174.244,14.220,-39.600,-13.060
109,43053.431000,246.173,16.063,52.224,464.220,-198.868,174.252,16.220,-67.600,-5.060
110,43053.471000,245.190,20.078,51.200,470.823,-199.795,169.268,25.220,-74.600,-15.060
111,43053.517000,246.173,18.071,47.104,470.752,-205.252,171.141,25.220,-61.600,-17.060
112,43053.556000,246.173,18.071,48.128,466.990,-203.490,170.179,26.220,-29.600,-12.060
113,43053.592000,246.173,18.071,49.152,469.904,-197.955,170.301,36.220,13.400,-18.060
114,43053.632000,246.173,17.067,49.152,467.027,-200.741,170.237,20.220,30.400,-23.060
115,43053.652000,245.190,19.075,48.128,471.703,-205.181,174.128,13.220,33.400,-25.060
116,43053.695000,247.155,19.075,52.224,469.862,-201.522,175.198,-5.780,31.400,-9.060
117,43053.757000,246.173,21.082,52.224,465.201,-196.147,172.322,-1.780,-4.600,-6.060
118,43053.777000,247.155,20.078,54.272,465.191,-197.024,174.292,-8.780,-31.600,-0.060
119,43053.813000,244.207,20.078,53.248,468.025,-197.045,171.312,-0.780,-54.600,0.940
120,43053.853000,246.173,19.075,51.200,467.074,-197.116,168.325,17.220,-63.600,0.940
121,43053.875000,245.190,20.078,48.128,469.963,-193.414,168.408,24.220,-54.600,0.940
122,43053.915000,248.138,20.078,46.080,470.811,-200.711,169.249,18.220,-40.600,5.940
123,43053.952000,248.138,19.075,46.080,467.947,-202.581,169.205,13.220,-5.600,2.940
124,43053.993000,247.155,18.071,48.128,467.077,-197.077,170.315,-19.780,45.400,3.940
125,43054.33000,247.155,18.071,48.128,468.883,-203.465,170.182,-41.780,74.400,-14.060
126,43054.75000,246.173,19.075,48.128,468.085,-192.503,169.420,-33.780,89.400,-10.060
127,43054.95000,245.190,21.082,46.080,469.009,-194.284,171.372,-21.780,51.400,-17.060
128,43054.137000,244.207,19.075,50.176,470.819,-200.613,174.224,-14.780,9.400,3.940
129,43054.177000,246.173,19.075,57.344,466.064,-202.488,175.172,12.220,-7.600,11.940
130,43054.215000,246.173,19.075,58.368,468.980,-196.935,176.289,25.220,-20.600,6.940
131,43054.259000,247.155,20.078,60.416,465.163,-198.895,172.263,57.220,-26.600,-3.060
132,43054.293000,246.173,21.082,53.248,467.961,-201.645,170.219,59.220,-41.600,-11.060
133,43054.334000,246.173,20.078,48.128,468.950,-198.825,173.265,40.220,-23.600,1.940
134,43054.353000,244.207,20.078,46.080,469.809,-205.226,173.130,29.220,-7.600,12.940
135,43054.393000,245.190,18.071,47.104,470.880,-196.052,173.327,-6.780,11.400,17.940
136,43054.435000,245.190,18.071,48.128,468.925,-200.658,173.226,-77.780,13.400,1.940
137,43054.479000,247.155,19.075,47.104,470.877,-196.091,171.337,-90.780,-1.600,-14.060
138,43054.520000,247.155,20.078,50.176,468.959,-197.948,171.294,-105.780,-8.600,-16.060
139,43054.555000,247.155,20.078,56.320,468.959,-197.948,171.294,-78.780,-10.600,-16.060
140,43054.577000,245.190,19.075,53.248,469.893,-198.852,171.276,-49.780,-35.600,-17.060
141,43054.617000,243.225,18.071,48.128,468.940,-198.943,167.295,-45.780,-30.600,-23.060
142,43054.657000,245.190,20.078,47.104,469.846,-201.717,165.248,-44.780,-24.600,-23.060
143,43054.697000,245.190,18.071,46.080,467.962,-200.865,163.274,-64.780,-7.600,-17.060
144,43054.735000,246.173,19.075,49.152,471.791,-197.989,167.319,-65.780,19.400,-10.060
145,43054.773000,247.155,19.075,47.104,472.679,-201.739,162.267,-69.780,15.400,-5.060
146,43054.795000,247.155,21.082,48.128,470.801,-200.828,163.279,-64.780,-3.600,-0.060
147,43054.837000,250.104,19.075,51.200,470.723,-206.364,161.171,-59.780,-4.600,21.940
148,43054.879000,249.121,19.075,52.224,468.882,-202.705,162.241,-7.780,-18.600,26.940
149,43054.917000,247.155,17.067,53.248,468.875,-202.783,158.261,32.220,-14.600,8.940
150,43054.955000,246.173,18.071,50.176,467.030,-199.942,164.287,80.220,-21.600,-17.060
151,43054.998000,245.190,19.075,48.128,467.948,-201.801,162.259,87.220,-9.600,-20.060
152,43055.39000,244.207,19.075,45.056,472.670,-202.616,164.238,77.220,-6.600,-12.060
153,43055.53000,245.190,22.086,46.080,473.695,-197.067,166.347,51.220,4.400,-2.060
154,43055.93000,247.155,22.086,47.104,470.765,-203.557,164.215,4.220,28.400,12.940
155,43055.135000,247.155,20.078,51.200,472.754,-197.021,169.330,-48.780,12.400,10.940
156,43055.176000,248.138,23.090,50.176,471.760,-199.899,163.300,-42.780,-2.600,7.940
157,43055.218000,248.138,20.078,54.272,470.792,-201.705,165.249,-28.780,-9.600,11.940
158,43055.258000,247.155,20.078,52.224,473.693,-197.087,165.352,0.220,-37.600,-4.060
159,43055.279000,246.173,21.082,50.176,472.647,-204.428,165.194,7.220,-52.600,-12.060
160,43055.314000,246.173,22.086,45.056,467.926,-203.594,164.210,6.220,-63.600,-23.060
161,43055.360000,247.155,23.090,45.056,474.558,-202.649,161.256,4.220,-51.600,-24.060
162,43055.393000,248.138,22.086,45.056,472.751,-196.281,160.394,2.220,-38.600,-22.060
163,43055.436000,248.138,22.086,44.032,470.789,-200.964,156.313,-4.780,-8.600,-17.060
164,43055.476000,246.173,22.086,41.984,474.651,-195.398,157.432,-18.780,35.400,-19.060
165,43055.496000,245.190,19.075,37.888,467.925,-203.614,163.215,-14.780,93.400,-23.060
166,43055.536000,245.190,14.055,35.840,471.802,-197.092,166.343,-13.780,176.400,-52.060
167,43055.576000,248.138,7.027,35.840,470.828,-199.736,172.254,40.220,169.400,-66.060
168,43055.616000,230.449,8.031,29.696,468.884,-203.445,171.177,200.220,44.400,-27.060
169,43055.655000,224.553,17.067,46.080,468.148,-188.682,177.458,337.220,66.400,40.940
170,43055.694000,229.466,24.094,65.536,468.108,-192.230,183.350,321.220,-16.600,142.940
171,43055.736000,251.086,65.255,71.680,467.256,-185.751,187.466,460.220,107.400,-23.060
172,43055.758000,276.637,78.306,83.968,465.414,-182.872,195.481,269.220,240.400,-139.060
173,43055.798000,273.689,77.302,81.920,465.458,-180.045,199.520,210.220,146.400,-151.060
174,43055.836000,260.914,61.239,58.368,462.694,-174.586,199.632,27.220,-38.600,-120.060
175,43055.875000,238.311,49.192,48.128,465.571,-171.800,199.696,-83.780,-129.600,-54.060
176,43055.915000,225.536,38.149,40.960,465.498,-176.498,193.628,-144.780,-141.600,-47.060
177,43055.955000,230.449,34.133,38.912,469.330,-172.822,191.722,-231.780,-138.600,-107.060
178,43055.975000,224.553,28.110,35.840,467.335,-179.436,182.627,-255.780,-170.600,-161.060
179,43056.27000,209.812,30.118,43.008,472.186,-170.271,179.845,-376.780,-128.600,-318.060
180,43056.55000,213.743,23.090,51.200,475.015,-170.350,173.880,-445.780,-114.600,-367.060
181,43056.95000,223.570,-3.012,62.464,480.739,-165.890,164.037,-480.780,-89.600,-307.060
182,43056.133000,284.499,-16.063,70.656,482.732,-158.536,164.196,-332.780,62.400,-238.060
183,43056.180000,323.808,-1.004,95.232,482.648,-164.910,166.050,-288.780,126.400,-98.060
184,43056.200000,274.672,-17.067,75.776,479.813,-164.129,161.089,-197.780,-70.600,132.940
185,43056.241000,261.896,-5.020,62.464,480.715,-166.943,157.052,-94.780,-163.600,208.940
186,43056.275000,230.449,-6.024,32.768,481.575,-172.563,149.971,8.220,-253.600,266.940
187,43056.322000,223.570,1.004,19.456,477.736,-176.317,147.896,101.220,-210.600,295.940
188,43056.382000,265.827,12.047,29.696,477.638,-183.627,148.735,183.220,60.400,343.940
189,43056.397000,212.760,37.145,40.960,471.830,-192.921,145.545,216.220,-184.600,373.940
190,43056.437000,245.190,43.169,43.008,470.801,-199.288,148.392,201.220,115.400,297.940
191,43056.457000,270.741,43.169,56.320,469.891,-197.332,155.395,193.220,245.400,165.940
192,43056.500000,284.499,51.200,59.392,466.998,-201.853,160.267,361.220,196.400,158.940
193,43056.537000,275.655,46.180,39.936,466.113,-198.843,174.255,478.220,61.400,198.940
194,43056.580000,268.775,46.180,36.864,463.327,-195.177,176.318,481.220,100.400,152.940
195,43056.615000,248.138,47.184,41.984,461.330,-203.350,181.114,388.220,-35.600,154.940
196,43056.656000,227.501,40.157,36.864,456.670,-198.734,186.179,257.220,-41.600,121.940
197,43056.681000,221.605,37.145,33.792,459.475,-200.627,181.170,129.220,-98.600,50.940
198,43056.715000,209.812,37.145,33.792,455.674,-201.632,179.153,-27.780,-69.600,-25.060
199,43056.755000,226.518,29.114,36.864,457.608,-198.819,181.205,-138.780,-21.600,-70.060
200,43056.796000,257.965,32.125,34.816,464.239,-197.874,178.251,-207.780,-32.600,-85.060
201,43056.844000,242.242,19.075,31.744,463.171,-206.249,172.104,-221.780,-123.600,-37.060
202,43056.877000,252.069,24.094,39.936,464.113,-206.276,170.115,-250.780,-78.600,-108.060
203,43056.897000,230.449,17.067,55.296,460.323,-206.384,167.123,-458.780,71.400,-60.060
204,43056.936000,232.415,0.000,74.752,461.257,-207.288,167.106,-459.780,203.400,-75.060
205,43056.983000,254.035,3.012,65.536,464.107,-206.354,166.135,-313.780,183.400,-110.060
206,43057.17000,250.104,5.020,59.392,463.071,-212.799,165.002,-293.780,174.400,-100.060
207,43057.60000,252.069,3.012,50.176,463.171,-206.249,172.104,-151.780,163.400,-90.060
208,43057.96000,234.380,10.039,48.128,463.089,-211.824,168.006,-20.780,67.400,-87.060
209,43057.126000,225.536,16.063,46.080,459.337,-209.944,173.014,17.220,12.400,-81.060
210,43057.155000,213.743,6.024,39.936,465.113,-202.559,172.185,47.220,-15.600,-37.060
211,43057.201000,268.775,5.020,52.224,467.068,-197.954,172.286,-111.780,98.400,-154.060
212,43057.236000,255.017,27.106,63.488,464.182,-200.857,166.252,-197.780,-152.600,-153.060
213,43057.275000,272.706,24.094,82.944,468.962,-197.149,165.343,-329.780,66.400,-139.060
214,43057.317000,269.758,22.086,91.136,466.054,-202.606,169.202,-254.780,194.400,-107.060
215,43057.357000,245.190,17.067,79.872,464.268,-194.463,165.394,-155.780,16.400,-17.060
216,43057.376000,234.380,7.027,50.176,464.194,-199.941,166.272,-71.780,-22.600,53.940
217,43057.426000,214.726,11.043,51.200,463.191,-203.696,162.212,-13.780,-113.600,101.940
218,43057.455000,235.363,1.004,41.984,466.986,-202.769,160.248,54.220,-132.600,121.940
219,43057.500000,261.896,5.020,43.008,466.914,-208.226,162.121,216.220,-18.600,136.940
220,43057.543000,236.345,18.071,58.368,463.088,-211.064,160.065,199.220,-69.600,190.940
221,43057.578000,231.432,17.067,50.176,465.056,-205.542,160.186,263.220,-81.600,125.940
222,43057.605000,246.173,27.106,62.464,458.429,-206.429,166.125,246.220,44.400,8.940
223,43057.641000,234.380,33.129,50.176,461.323,-202.668,169.193,177.220,-11.600,-28.060
224,43057.676000,248.138,49.192,51.200,463.258,-199.836,172.240,40.220,127.400,-130.060
225,43057.716000,248.138,60.235,67.584,466.095,-199.818,171.250,-168.780,155.400,-146.060
226,43057.756000,253.052,49.192,58.368,462.265,-203.474,174.151,-172.780,117.400,-122.060
227,43057.796000,248.138,38.149,55.296,461.355,-200.758,173.213,-213.780,87.400,-88.060
228,43057.836000,222.587,33.129,44.032,463.242,-200.791,170.231,-190.780,-52.600,-66.060
229,43057.856000,203.916,29.114,40.960,464.230,-197.212,165.335,-262.780,-75.600,-88.060
230,43057.922000,250.104,9.035,75.776,464.219,-198.108,166.311,-425.780,253.400,-125.060
231,43057.937000,273.689,35.137,83.968,466.064,-201.728,167.231,-281.780,126.400,-221.060
232,43057.977000,244.207,26.102,64.512,469.048,-190.756,164.485,-202.780,-75.600,-133.060
233,43058.17000,251.086,13.051,79.872,471.881,-190.777,161.505,-232.780,34.400,-131.060
234,43058.63000,264.845,10.039,79.872,469.009,-192.744,156.486,-197.780,-76.600,-58.060
235,43058.77000,264.845,11.043,66.560,471.754,-199.198,152.374,-51.780,-174.600,44.940
236,43058.117000,263.862,6.024,62.464,470.817,-198.333,150.401,55.220,-223.600,135.940
237,43058.156000,245.190,-2.008,52.224,470.674,-208.469,147.202,161.220,-310.600,183.940
238,43058.201000,245.190,1.004,49.152,472.705,-197.587,140.474,142.220,-291.600,116.940
239,43058.237000,210.795,10.039,55.296,476.341,-207.751,133.300,135.220,-272.600,83.940
240,43058.281000,207.846,1.004,49.152,475.281,-216.028,132.128,140.220,-235.600,245.940
241,43058.298000,206.864,-16.063,51.200,474.403,-210.622,128.263,178.220,-87.600,355.940
242,43058.351000,256.983,3.012,49.152,470.488,-220.652,133.017,184.220,-9.600,316.940
243,43058.379000,261.896,3.012,34.816,467.623,-222.541,131.978,258.220,-155.600,269.940
244,43058.418000,250.104,30.118,30.720,465.655,-228.063,131.858,280.220,-215.600,125.940
245,43058.457000,263.862,34.133,54.272,466.573,-229.922,129.830,123.220,11.400,-61.060
246,43058.498000,257.965,32.125,51.200,465.780,-218.902,132.053,101.220,-92.600,-129.060
247,43058.519000,226.518,31.122,30.720,469.562,-218.891,130.069,-8.780,-67.600,-127.060
248,43058.557000,249.121,19.075,25.600,469.626,-214.291,131.162,-60.780,15.400,-172.060
249,43058.599000,251.086,22.086,22.528,476.306,-209.701,127.291,-46.780,-34.600,-186.060
250,43058.639000,243.225,17.067,13.312,474.439,-207.893,127.327,-93.780,-67.600,-183.060
251,43058.677000,251.086,16.063,19.456,478.296,-202.386,125.460,-110.780,107.400,-180.060
252,43058.718000,244.207,16.063,28.672,481.191,-198.605,129.524,-1.780,262.400,-84.060
253,43058.756000,244.207,13.051,36.864,472.679,-199.439,139.440,44.220,329.400,26.940
254,43058.785000,222.587,12.047,40.960,471.757,-198.399,146.423,238.220,274.400,77.940
255,43058.821000,250.104,14.055,52.224,469.768,-206.474,156.194,324.220,220.400,121.940
256,43058.876000,255.017,32.125,58.368,470.790,-201.724,164.254,471.220,234.400,27.940
257,43058.902000,278.603,45.176,86.016,468.125,-190.495,178.414,449.220,348.400,-88.060
258,43058.942000,266.810,44.173,78.848,462.501,-187.627,188.413,454.220,255.400,-112.060
259,43058.982000,238.311,38.149,70.656,464.503,-180.155,194.543,319.220,127.400,-57.060
260,43059.2000,220.622,35.137,50.176,467.396,-176.414,196.616,238.220,47.400,-112.060
261,43059.42000,224.553,54.212,39.936,469.331,-173.582,199.663,170.220,-29.600,-213.060
262,43059.77000,223.570,67.263,40.960,469.376,-169.976,196.756,-12.780,-82.600,-237.060
263,43059.117000,236.345,59.231,45.056,476.957,-168.980,195.794,-102.780,-125.600,-265.060
264,43059.162000,235.363,56.220,45.056,478.940,-161.743,189.983,-346.780,-84.600,-307.060
265,43059.197000,241.259,38.149,53.248,479.939,-157.267,184.112,-546.780,-19.600,-295.060
266,43059.218000,252.069,28.110,46.080,480.902,-155.520,179.177,-557.780,-119.600,-224.060
267,43059.260000,215.708,11.043,45.056,484.638,-158.355,172.160,-599.780,-160.600,-225.060
268,43059.300000,227.501,14.055,55.296,488.530,-149.358,161.416,-617.780,-249.600,-334.060
269,43059.342000,281.551,11.043,81.920,494.155,-152.207,152.412,-328.780,-89.600,-288.060
270,43059.377000,316.929,22.086,100.352,488.525,-148.637,151.485,-323.780,149.400,-199.060
271,43059.420000,274.672,8.031,102.400,490.484,-143.992,153.576,-123.780,27.400,47.940
272,43059.460000,193.106,13.051,70.656,489.484,-147.708,151.507,225.220,-79.600,225.940
273,43059.478000,246.173,17.067,43.008,489.413,-153.166,153.380,331.220,-22.600,278.940
274,43059.520000,243.225,32.125,38.912,485.588,-155.984,152.319,371.220,-161.600,372.940
275,43059.562000,260.914,53.208,41.984,484.469,-168.803,153.039,575.220,-168.600,460.940
276,43059.602000,266.810,65.255,59.392,484.452,-170.538,157.976,587.220,-58.600,393.940
277,43059.638000,277.620,61.239,57.344,480.687,-169.574,162.964,721.220,57.400,287.940
278,43059.679000,278.603,65.255,58.368,477.804,-173.977,173.807,591.220,207.400,156.940
279,43059.698000,254.035,64.251,46.080,475.914,-174.743,182.739,537.220,154.400,79.940
280,43059.738000,231.432,53.208,47.104,475.976,-170.942,189.783,391.220,84.400,72.940
281,43059.783000,203.916,44.173,33.792,475.011,-172.708,193.722,338.220,33.400,66.940
282,43059.818000,198.019,45.176,33.792,476.054,-165.406,191.890,220.220,-24.600,46.940
283,43059.858000,207.846,55.216,30.720,473.245,-163.553,194.909,88.220,-13.600,-50.060
284,43059.900000,221.605,57.224,36.864,474.179,-164.456,194.891,-82.780,-34.600,-76.060
285,43059.920000,240.276,71.278,38.912,478.025,-159.845,194.001,-213.780,101.400,-236.060
286,43059.960000,255.017,61.239,53.248,478.045,-158.071,191.055,-480.780,47.400,-184.060
287,43060.0,256.000,40.157,58.368,474.172,-164.534,190.911,-581.780,119.400,-128.060
288,43060.42000,252.069,35.137,41.984,482.699,-162.765,182.010,-559.780,-164.600,18.940
289,43060.85000,256.983,13.051,45.056,475.887,-175.835,173.764,-576.780,52.400,76.940
290,43060.117000,267.793,4.016,80.896,475.854,-178.524,176.691,-549.780,116.400,155.940
291,43060.161000,251.086,11.043,71.680,473.796,-190.498,174.444,-302.780,-2.600,189.940
292,43060.177000,225.536,9.035,77.824,469.954,-194.291,170.379,-272.780,134.400,179.940
293,43060.221000,216.691,11.043,61.440,466.159,-195.218,172.343,-156.780,42.400,123.940
294,43060.265000,215.708,17.067,48.128,467.042,-199.806,171.252,-55.780,12.400,116.940
295,43060.298000,254.035,11.043,28.672,463.258,-199.836,172.240,-115.780,-3.600,129.940
296,43060.338000,256.983,7.027,33.792,466.944,-206.336,165.145,-276.780,-76.600,86.940
297,43060.380000,240.276,-12.047,56.320,464.053,-210.057,164.067,-466.780,-10.600,52.940
298,43060.406000,246.173,-7.027,84.992,458.236,-219.469,154.906,-470.780,82.400,140.940
299,43060.438000,262.879,-23.090,78.848,462.894,-224.884,155.792,-330.780,139.400,200.940
300,43060.483000,251.086,-21.082,68.608,454.286,-231.448,153.651,-184.780,18.400,207.940
301,43060.523000,245.190,-12.047,63.488,458.036,-234.127,154.594,-67.780,-79.600,173.940
302,43060.563000,228.484,-13.051,62.464,452.315,-237.009,151.540,8.220,-108.600,203.940
303,43060.603000,221.605,-21.082,57.344,451.317,-240.706,150.465,171.220,-157.600,269.940
304,43060.623000,224.553,-27.106,50.176,451.274,-244.292,154.368,335.220,-96.600,364.940
305,43060.661000,217.674,-22.086,47.104,449.285,-250.828,149.252,483.220,-136.600,412.940
306,43060.704000,265.827,5.020,60.416,439.830,-251.635,161.157,662.220,44.400,411.940
307,43060.743000,281.551,7.027,67.584,439.729,-259.743,167.947,640.220,10.400,472.940
308,43060.783000,266.810,10.039,40.960,434.998,-260.566,175.879,790.220,-90.600,491.940
309,43060.830000,279.585,27.106,80.896,428.308,-266.813,188.667,656.220,297.400,235.940
310,43060.838000,266.810,55.216,83.968,423.733,-257.343,207.759,608.220,308.400,10.940
311,43060.879000,245.190,30.118,62.464,424.647,-260.020,210.688,403.220,104.400,-75.060
312,43060.926000,221.605,33.129,31.744,429.510,-250.718,214.872,333.220,-53.600,-273.060
313,43060.960000,233.397,37.145,25.600,434.433,-236.875,217.163,241.220,-125.600,-422.060
314,43061.0,262.879,52.204,29.696,441.114,-232.265,214.287,-105.780,-257.600,-426.060
315,43061.40000,285.482,15.059,53.248,445.061,-219.545,206.606,-306.780,-116.600,-471.060
316,43061.81000,276.637,-2.008,54.272,453.626,-215.028,197.763,-394.780,-197.600,-416.060
317,43061.101000,230.449,6.024,53.248,456.503,-211.463,190.881,-482.780,-239.600,-396.060
318,43061.143000,241.259,-8.031,78.848,457.456,-209.832,179.976,-556.780,21.400,-344.060
319,43061.183000,244.207,-4.016,87.040,462.152,-212.499,180.921,-493.780,131.400,-323.060
320,43061.218000,243.225,12.047,72.704,461.249,-208.925,177.017,-399.780,72.400,-274.060
321,43061.258000,226.518,-5.020,63.488,465.140,-200.708,173.219,-385.780,9.400,-169.060
322,43061.298000,222.587,-12.047,73.728,465.086,-204.411,171.151,-311.780,16.400,-61.060
323,43061.325000,214.726,-12.047,59.392,466.982,-203.587,165.203,-167.780,-111.600,8.940
324,43061.358000,225.536,-22.086,46.080,463.132,-208.237,164.104,11.220,-134.600,84.940
325,43061.398000,251.086,-24.094,46.080,465.000,-210.045,164.068,367.220,-62.600,194.940
326,43061.440000,271.724,-5.020,63.488,464.078,-209.004,171.052,442.220,-19.600,226.940
327,43061.485000,242.242,4.016,72.704,462.162,-210.842,172.004,421.220,-111.600,232.940
328,43061.527000,227.501,19.075,37.888,464.098,-207.991,176.047,620.220,-124.600,65.940
329,43061.542000,263.862,20.078,45.056,462.225,-207.022,180.043,653.220,-10.600,20.940
330,43061.590000,273.689,44.173,55.296,463.333,-195.879,187.244,598.220,5.400,-93.060
331,43061.623000,271.724,52.204,55.296,461.454,-195.748,195.201,452.220,5.400,-135.060
332,43061.665000,252.069,42.165,54.272,467.208,-190.156,196.323,296.220,20.400,-144.060
333,43061.705000,232.415,29.114,59.392,468.261,-182.737,200.461,146.220,58.400,-144.060
334,43061.745000,218.656,17.067,38.912,468.249,-183.653,200.442,69.220,-32.600,-131.060
335,43061.785000,216.691,20.078,32.768,473.057,-178.074,201.562,143.220,-64.600,-196.060
336,43061.805000,232.415,30.118,35.840,473.132,-172.577,201.680,77.220,-23.600,-241.060
337,43061.852000,242.242,34.133,30.720,476.164,-157.960,198.017,119.220,-78.600,-257.060
338,43061.880000,259.931,45.176,25.600,479.105,-150.574,199.173,221.220,-86.600,-226.060
339,43061.920000,247.155,60.235,35.840,481.062,-145.948,200.269,217.220,-31.600,-257.060
340,43061.962000,257.965,77.302,57.344,481.145,-140.354,205.361,131.220,139.400,-294.060
341,43062.2000,245.190,86.337,56.320,482.273,-127.438,209.616,-28.780,123.400,-330.060
342,43062.30000,236.345,70.275,50.176,482.298,-125.605,209.655,-104.780,127.400,-298.060
343,43062.65000,228.484,72.282,48.128,480.404,-125.650,208.657,-218.780,96.400,-359.060
344,43062.100000,206.864,65.255,40.960,485.334,-110.949,207.982,-262.780,-11.600,-338.060
345,43062.141000,180.330,61.239,28.672,489.073,-113.745,202.955,-368.780,-166.600,-348.060
346,43062.181000,203.916,71.278,38.912,490.136,-104.668,198.177,-542.780,-67.600,-460.060
347,43062.221000,275.655,79.310,84.992,492.079,-100.979,198.258,-708.780,106.400,-573.060
348,43062.241000,265.827,46.180,68.608,490.246,-95.683,189.416,-665.780,-73.600,-365.060
349,43062.282000,249.121,32.125,77.824,494.065,-92.923,187.492,-583.780,40.400,-192.060
350,43062.327000,264.845,60.235,100.352,492.157,-93.904,185.479,-528.780,80.400,-267.060
351,43062.365000,288.430,42.165,90.112,489.252,-98.561,183.386,-453.780,-30.600,38.940
352,43062.402000,251.086,23.090,68.608,491.049,-105.046,178.277,-264.780,-132.600,264.940
353,43062.446000,256.000,11.043,58.368,489.944,-116.150,173.066,-203.780,-116.600,479.940
354,43062.490000,261.896,18.071,60.416,486.829,-136.362,171.637,-73.780,-192.600,675.940
355,43062.502000,263.862,25.098,63.488,483.846,-146.555,167.437,-51.780,-109.600,758.940
356,43062.546000,250.104,17.067,67.584,476.929,-167.772,163.991,198.220,-155.600,780.940
357,43062.581000,223.570,30.118,51.200,474.905,-177.796,167.753,387.220,-175.600,694.940
358,43062.622000,238.311,22.086,62.464,472.884,-187.022,165.565,420.220,29.400,597.940
359,43062.661000,250.104,38.149,63.488,467.061,-198.811,175.252,539.220,55.400,482.940
360,43062.700000,256.983,32.125,58.368,458.581,-196.955,182.241,517.220,110.400,421.940
361,43062.721000,252.069,34.133,59.392,457.560,-203.224,190.063,538.220,69.400,303.940
362,43062.762000,260.914,48.188,55.296,453.849,-198.557,197.120,421.220,-0.600,142.940
363,43062.802000,220.622,43.169,47.104,456.622,-203.139,195.037,309.220,-130.600,111.940
364,43062.842000,218.656,48.188,29.696,461.441,-196.664,195.182,163.220,-138.600,6.940
365,43062.883000,215.708,33.129,26.624,459.451,-203.219,189.072,-34.780,-181.600,13.940
366,43062.926000,238.311,36.141,25.600,462.310,-201.408,186.130,-142.780,-122.600,-64.060
367,43062.946000,261.896,43.169,30.720,463.189,-206.034,183.049,-399.780,-71.600,-148.060
368,43062.986000,276.637,42.165,37.888,465.120,-202.481,176.165,-508.780,-47.600,-144.060
369,43063.26000,268.775,20.078,36.864,467.938,-203.458,171.176,-574.780,-82.600,-108.060
370,43063.66000,204.898,-2.008,45.056,466.887,-210.078,161.087,-630.780,-89.600,-108.060
371,43063.106000,242.242,12.047,59.392,465.970,-207.440,156.168,-587.780,128.400,-172.060
372,43063.142000,260.914,2.008,49.152,467.769,-213.906,152.055,-445.780,28.400,-160.060
373,43063.183000,267.793,4.016,52.224,468.798,-207.539,149.208,-303.780,151.400,-57.060
374,43063.212000,260.914,7.027,59.392,464.082,-206.646,151.209,-222.780,129.400,15.940
375,43063.256000,245.190,17.067,63.488,467.819,-210.241,152.133,-136.780,109.400,52.940
376,43063.283000,226.518,22.086,58.368,461.162,-213.019,155.048,-123.780,93.400,79.940
377,43063.323000,213.743,12.047,48.128,461.112,-216.683,154.970,-82.780,110.400,146.940
378,43063.363000,256.000,2.008,35.840,459.078,-227.604,159.707,-39.780,167.400,167.940
379,43063.406000,268.775,-3.012,45.056,455.219,-233.132,160.579,-95.780,169.400,136.940
380,43063.426000,239.294,-4.016,51.200,449.602,-228.645,159.671,-270.780,106.400,107.940
381,43063.461000,248.138,-21.082,82.944,450.389,-240.504,161.409,-423.780,338.400,74.940
382,43063.502000,234.380,-20.078,90.112,446.659,-236.831,164.466,-337.780,311.400,71.940
383,43063.543000,247.155,-27.106,80.896,445.655,-241.365,167.352,-217.780,175.400,121.940
384,43063.583000,244.207,-20.078,76.800,443.652,-249.616,168.168,-70.780,147.400,135.940
385,43063.626000,225.536,-14.055,80.896,438.013,-246.923,169.212,33.220,64.400,150.940
386,43063.646000,217.674,-14.055,74.752,438.924,-249.639,170.150,210.220,-63.600,189.940
387,43063.686000,211.777,-20.078,73.728,435.059,-256.005,174.982,291.220,-71.600,246.940
388,43063.726000,217.674,-21.082,73.728,435.112,-252.301,177.050,481.220,-69.600,358.940
389,43063.766000,256.000,-11.043,69.632,433.189,-254.996,180.968,646.220,3.400,389.940
390,43063.815000,236.345,5.020,94.208,426.451,-264.888,194.673,717.220,23.400,461.940
391,43063.842000,251.086,5.020,74.752,421.786,-261.091,204.693,702.220,-11.600,480.940
392,43063.882000,253.052,5.020,72.704,413.173,-269.254,214.453,719.220,42.400,369.940
393,43063.902000,260.914,22.086,79.872,412.370,-259.890,225.592,710.220,81.400,178.940
394,43063.943000,266.810,45.176,78.848,411.523,-253.353,232.692,651.220,38.400,-40.060
395,43063.996000,242.242,42.165,60.416,415.342,-251.373,237.713,470.220,-93.600,-211.060
396,43064.28000,251.086,42.165,47.104,414.645,-233.063,238.102,161.220,-156.600,-384.060
397,43064.62000,253.052,16.063,55.296,426.032,-230.243,234.200,-49.780,-211.600,-439.060
398,43064.107000,262.879,8.031,62.464,431.875,-217.459,228.513,-78.780,-214.600,-451.060
399,43064.127000,267.793,1.004,56.320,433.857,-210.222,222.702,-184.780,-195.600,-422.060
400,43064.167000,276.637,0.000,72.704,444.321,-205.601,217.843,-288.780,-170.600,-401.060
401,43064.207000,262.879,-2.008,65.536,447.143,-205.759,207.897,-362.780,-241.600,-354.060
402,43064.245000,252.069,-4.016,77.824,453.817,-201.247,200.046,-492.780,-128.600,-324.060
403,43064.283000,235.363,2.008,75.776,455.685,-202.275,193.065,-511.780,-114.600,-287.060
404,43064.323000,228.484,3.012,66.560,457.618,-198.702,187.176,-522.780,-130.600,-265.060
405,43064.345000,215.708,10.039,59.392,465.201,-196.907,180.263,-516.780,-122.600,-220.060
406,43064.382000,209.812,-3.012,70.656,467.013,-201.677,169.223,-514.780,-123.600,-174.060
407,43064.425000,203.916,-9.035,68.608,469.864,-199.963,161.306,-394.780,-169.600,-81.060
408,43064.465000,225.536,-13.051,63.488,469.754,-207.409,155.180,-210.780,-126.600,-22.060
409,43064.503000,266.810,-2.008,67.584,473.559,-205.586,152.240,3.220,-64.600,38.940
410,43064.543000,270.741,0.000,72.704,468.773,-210.131,157.110,137.220,5.400,99.940
411,43064.563000,252.069,11.043,69.632,471.636,-208.281,156.159,210.220,-32.600,33.940
412,43064.605000,216.691,23.090,55.296,468.897,-200.989,156.310,322.220,-104.600,-14.060
413,43064.647000,243.225,20.078,28.672,470.849,-197.183,162.362,503.220,-104.600,-13.060
414,43064.687000,271.724,38.149,55.296,471.861,-192.551,164.451,473.220,-25.600,-15.060
415,43064.727000,273.689,57.224,61.440,474.705,-192.455,167.441,277.220,-28.600,-68.060
416,43064.767000,258.948,50.196,65.536,479.539,-185.044,168.601,189.220,-20.600,-112.060
417,43064.807000,241.259,41.161,56.320,477.684,-182.320,168.656,160.220,-29.600,-147.060
418,43064.827000,224.553,23.090,39.936,481.490,-180.477,166.711,132.220,-116.600,-132.060
419,43064.862000,219.639,13.051,27.648,482.508,-175.007,164.840,191.220,-114.600,-103.060
420,43064.905000,230.449,23.090,21.504,481.619,-171.277,168.897,347.220,-153.600,-162.060
421,43064.947000,257.965,42.165,16.384,488.327,-164.815,167.055,462.220,-124.600,-111.060
422,43064.997000,256.000,46.180,6.144,487.443,-160.247,167.151,566.220,-222.600,-56.060
423,43065.28000,260.914,52.204,11.264,489.427,-153.770,169.281,609.220,-66.600,-147.060
424,43065.42000,252.069,68.267,35.840,493.440,-137.970,178.575,549.220,58.400,-224.060
425,43065.83000,251.086,76.298,43.008,488.854,-127.858,183.756,353.220,143.400,-337.060
426,43065.123000,230.449,71.278,27.648,492.742,-120.439,185.909,180.220,135.400,-356.060
427,43065.167000,218.656,64.251,26.624,493.797,-113.000,191.042,0.220,195.400,-388.060
428,43065.203000,210.795,61.239,28.672,494.847,-105.620,193.190,-88.780,113.400,-375.060
429,43065.243000,200.967,57.224,32.768,494.040,-95.535,194.398,-123.780,21.400,-301.060
430,43065.263000,169.520,59.231,44.032,494.038,-95.555,193.403,-173.780,-62.600,-295.060
431,43065.310000,207.846,85.333,50.176,495.977,-91.904,191.495,-245.780,-11.600,-412.060
432,43065.343000,268.775,61.239,51.200,497.115,-77.331,186.833,-405.780,-32.600,-296.060
433,43065.383000,299.240,58.227,66.560,496.064,-84.731,183.690,-335.780,-15.600,-74.060
434,43065.426000,312.015,67.263,80.896,491.350,-83.819,186.687,-379.780,145.400,77.940
435,43065.465000,350.342,79.310,82.944,493.147,-91.065,189.519,-354.780,122.400,154.940
436,43065.503000,300.223,59.231,58.368,491.078,-103.935,188.247,-151.780,136.400,342.940
437,43065.525000,247.155,58.227,50.176,486.253,-111.248,192.063,-88.780,103.400,484.940
438,43065.566000,188.192,38.149,46.080,487.014,-124.958,192.767,-108.780,45.400,560.940
439,43065.603000,194.088,22.086,51.200,478.227,-145.167,195.308,9.220,109.400,626.940
440,43065.646000,209.812,35.137,70.656,472.509,-148.790,201.190,-11.780,292.400,422.940
441,43065.686000,209.812,42.165,74.752,468.641,-155.194,204.032,-1.780,133.400,419.940
442,43065.726000,228.484,29.114,54.272,464.680,-168.850,210.698,163.220,95.400,352.940
443,43065.746000,246.173,31.122,59.392,464.627,-172.553,208.630,85.220,25.400,309.940
444,43065.788000,246.173,36.141,66.560,460.781,-177.164,209.521,223.220,-71.600,268.940
445,43065.835000,268.775,48.188,46.080,460.740,-179.952,207.472,297.220,-130.600,189.940
446,43065.863000,268.775,50.196,46.080,458.824,-181.789,208.425,195.220,-78.600,116.940
447,43065.905000,248.138,37.145,64.512,458.781,-185.376,212.327,105.220,-121.600,150.940
448,43065.950000,252.069,45.176,52.224,457.874,-181.841,206.433,-3.780,-147.600,79.940
449,43065.971000,226.518,22.086,41.984,460.674,-184.571,205.384,-123.780,-187.600,123.940
450,43066.3000,229.466,30.118,46.080,459.700,-185.676,196.408,-242.780,-92.600,46.940
451,43066.43000,247.155,38.149,50.176,456.758,-193.081,194.256,-362.780,-48.600,-26.060
452,43066.83000,258.948,24.094,43.008,459.579,-194.018,191.257,-393.780,-64.600,-49.060
453,43066.123000,248.138,20.078,47.104,459.452,-202.439,182.126,-442.780,-97.600,-65.060
454,43066.165000,219.639,12.047,51.200,462.304,-200.706,175.204,-422.780,-54.600,-36.060
455,43066.210000,228.484,6.024,70.656,457.563,-201.646,177.167,-471.780,173.400,-44.060
456,43066.226000,235.363,8.031,77.824,458.436,-207.111,178.046,-461.780,262.400,-51.060
457,43066.268000,250.104,6.024,67.584,461.338,-202.492,178.149,-315.780,206.400,-18.060
458,43066.315000,256.000,3.012,58.368,457.449,-209.911,175.996,-201.780,128.400,-43.060
459,43066.343000,256.983,14.055,59.392,454.610,-209.948,175.991,-148.780,4.400,-135.060
460,43066.397000,244.207,2.008,63.488,459.401,-205.344,174.107,-145.780,-88.600,-73.060
461,43066.426000,247.155,15.059,74.752,460.383,-202.602,173.172,-76.780,-42.600,-69.060
462,43066.460000,254.035,29.114,82.944,463.208,-203.501,172.162,-72.780,77.400,-5.060
463,43066.483000,235.363,27.106,60.416,462.249,-204.429,172.141,13.220,11.400,-3.060
464,43066.523000,251.086,39.153,39.936,458.387,-209.996,171.022,11.220,-17.600,11.940
465,43066.575000,244.207,37.145,26.624,463.198,-203.618,166.192,-163.780,-171.600,-69.060
466,43066.606000,232.415,35.137,20.480,464.111,-205.535,161.179,-243.780,-282.600,10.940
467,43066.647000,242.242,-3.012,52.224,465.874,-213.950,151.056,-375.780,-78.600,142.940
468,43066.667000,260.914,-18.071,77.824,460.086,-222.251,151.866,-341.780,97.400,391.940
469,43066.710000,244.207,-20.078,68.608,454.181,-238.836,150.509,-133.780,-16.600,410.940
470,43066.750000,238.311,-10.039,61.440,450.412,-237.931,152.512,16.220,-14.600,329.940
471,43066.789000,227.501,-16.063,55.296,446.543,-243.575,147.413,79.220,-163.600,316.940
472,43066.830000,213.743,-39.153,44.032,443.637,-248.252,144.326,250.220,-192.600,391.940
473,43066.880000,226.518,-40.157,38.912,439.683,-261.050,148.026,546.220,-157.600,509.940
474,43066.907000,244.207,-30.118,68.608,433.904,-269.233,154.806,520.220,-15.600,536.940
475,43066.927000,245.190,-12.047,64.512,426.249,-276.487,163.592,641.220,-12.600,468.940
476,43066.967000,250.104,-24.094,56.320,419.626,-277.334,171.521,659.220,85.400,384.940
477,43067.7000,256.000,-5.020,46.080,413.106,-270.814,181.597,671.220,44.400,294.940
478,43067.47000,286.464,3.012,57.344,414.045,-272.419,192.505,643.220,214.400,145.940
479,43067.87000,289.413,35.137,71.680,415.157,-261.997,209.637,552.220,142.400,-127.060
480,43067.131000,254.035,32.125,54.272,416.150,-258.359,207.727,330.220,28.400,-334.060
481,43067.145000,238.311,27.106,27.648,424.847,-245.362,211.000,47.220,-88.600,-503.060
482,43067.185000,273.689,16.063,33.792,430.573,-241.642,210.093,-223.780,-80.600,-527.060
483,43067.226000,290.395,1.004,44.032,438.306,-228.872,202.419,-300.780,-78.600,-510.060
484,43067.273000,260.914,3.012,49.152,444.990,-223.464,193.592,-242.780,-306.600,-481.060
485,43067.310000,209.812,14.055,61.440,453.593,-216.178,185.803,-395.780,-224.600,-492.060
486,43067.347000,237.328,6.024,67.584,460.306,-208.898,179.006,-494.780,-61.600,-456.060
487,43067.370000,251.086,17.067,59.392,461.249,-208.925,177.017,-442.780,-26.600,-346.060
488,43067.410000,230.449,6.024,37.888,467.955,-201.723,166.239,-425.780,-154.600,-237.060
489,43067.445000,232.415,5.020,46.080,467.862,-208.194,163.117,-329.780,-91.600,-127.060
490,43067.486000,226.518,0.000,58.368,466.917,-207.427,156.170,-269.780,-160.600,-67.060
491,43067.530000,222.587,-3.012,51.200,470.642,-211.159,150.128,-182.780,-195.600,27.940
492,43067.567000,228.484,-14.055,43.008,468.741,-211.282,145.150,-18.780,-169.600,125.940
493,43067.611000,254.035,-15.059,50.176,467.807,-210.378,145.167,123.220,-67.600,178.940
494,43067.625000,276.637,-1.004,56.320,464.959,-211.293,147.133,264.220,-30.600,124.940
495,43067.677000,275.655,1.004,54.272,467.778,-213.029,150.084,265.220,-36.600,69.940
496,43067.706000,244.207,5.020,46.080,463.005,-215.879,148.027,245.220,-131.600,43.940
497,43067.746000,221.605,3.012,27.648,469.641,-214.895,147.063,359.220,-71.600,35.940
498,43067.785000,259.931,14.055,33.792,467.797,-212.035,154.084,418.220,12.400,-21.060
499,43067.825000,266.810,38.149,49.152,467.954,-200.963,158.298,378.220,86.400,-84.060
500,43067.845000,266.810,37.145,50.176,469.847,-201.698,166.243,250.220,98.400,-185.060
501,43067.887000,259.931,39.153,56.320,471.889,-191.459,173.426,142.220,94.400,-219.060
502,43067.927000,238.311,13.051,47.104,471.945,-186.956,169.543,171.220,38.400,-227.060
503,43067.967000,211.777,12.047,34.816,472.944,-183.240,171.613,211.220,-40.600,-214.060
504,43068.7000,218.656,21.082,13.312,479.738,-171.165,175.859,254.220,-79.600,-210.060
505,43068.55000,258.948,47.184,17.408,476.938,-168.434,176.907,275.220,30.400,-233.060
506,43068.68000,250.104,54.212,17.408,479.939,-156.487,177.166,371.220,-81.600,-179.060
507,43068.108000,244.207,57.224,16.384,480.900,-155.539,178.182,420.220,-90.600,-167.060
508,43068.148000,251.086,81.318,55.296,484.884,-141.610,185.447,294.220,138.400,-263.060
509,43068.188000,256.000,91.357,55.296,481.165,-137.041,187.528,113.220,141.400,-326.060
510,43068.228000,242.242,74.290,38.912,486.967,-128.584,194.679,-120.780,174.400,-276.060
511,43068.266000,218.656,68.267,36.864,482.209,-130.498,193.637,-198.780,97.400,-280.060
512,43068.306000,205.881,61.239,33.792,484.150,-126.828,192.723,-287.780,29.400,-283.060
513,43068.327000,192.123,61.239,34.816,487.151,-114.881,192.982,-411.780,-47.600,-315.060
514,43068.368000,205.881,65.255,30.720,492.769,-118.588,186.943,-469.780,-89.600,-442.060
515,43068.407000,245.190,73.286,39.936,493.913,-103.177,178.321,-512.780,-46.600,-514.060
516,43068.451000,268.775,57.224,54.272,493.905,-103.274,173.346,-699.780,-71.600,-395.060
517,43068.491000,262.879,54.212,60.416,497.762,-97.766,171.480,-639.780,-102.600,-363.060
518,43068.531000,261.896,62.243,73.728,497.787,-95.155,164.573,-522.780,-19.600,-284.060
519,43068.552000,278.603,49.192,88.064,496.855,-94.231,165.586,-580.780,156.400,-139.060
520,43068.586000,269.758,47.184,86.016,494.888,-99.753,165.465,-479.780,111.400,59.940
521,43068.628000,256.983,33.129,57.344,495.743,-106.193,163.340,-234.780,-70.600,313.940
522,43068.668000,254.035,27.106,37.888,495.629,-114.457,162.170,-93.780,-111.600,529.940
523,43068.716000,268.775,18.071,63.488,485.845,-137.583,156.690,-17.780,-35.600,675.940
524,43068.757000,264.845,33.129,60.416,485.686,-149.454,158.426,178.220,-107.600,715.940
525,43068.771000,219.639,15.059,52.224,479.745,-168.768,158.006,326.220,-149.600,756.940
526,43068.816000,199.985,16.063,53.248,473.012,-177.061,159.809,414.220,-140.600,742.940
527,43068.851000,215.708,15.059,55.296,468.098,-190.807,162.493,452.220,60.400,640.940
528,43068.888000,260.914,32.125,69.632,463.283,-198.004,172.279,467.220,133.400,551.940
529,43068.940000,257.965,30.118,54.272,453.737,-204.483,175.111,496.220,-7.600,476.940
530,43068.971000,257.965,37.145,64.512,453.724,-206.179,182.038,437.220,64.400,295.940
531,43068.992000,247.155,36.141,61.440,451.796,-208.933,182.971,282.220,-17.600,128.940
532,43069.28000,236.345,30.118,52.224,456.482,-212.476,185.886,199.220,-110.600,104.940
533,43069.67000,212.760,31.122,43.008,453.690,-208.888,183.969,136.220,-143.600,-0.060
534,43069.118000,207.846,45.176,33.792,452.710,-210.831,178.953,-102.780,-176.600,-154.060
535,43069.148000,232.415,52.204,37.888,460.363,-204.376,176.118,-259.780,-84.600,-193.060
536,43069.188000,258.948,38.149,24.576,463.153,-207.224,169.099,-349.780,-107.600,-132.060
537,43069.227000,302.188,27.106,24.576,465.018,-208.290,160.127,-480.780,-100.600,-122.060
538,43069.263000,277.620,23.090,29.696,468.820,-206.506,155.198,-526.780,-213.600,-62.060
539,43069.292000,220.622,9.035,36.864,472.494,-213.142,141.137,-566.780,-228.600,-34.060
540,43069.340000,237.328,4.016,41.984,472.447,-216.007,135.108,-583.780,-8.600,-116.060
541,43069.368000,263.862,-1.004,49.152,467.755,-212.523,129.208,-522.780,58.400,-49.060
542,43069.408000,263.862,-2.008,34.816,470.563,-214.395,125.193,-240.780,-12.600,59.940
543,43069.448000,255.017,5.020,46.080,468.570,-221.749,125.034,-173.780,28.400,65.940
544,43069.468000,248.138,15.059,55.296,466.702,-219.942,125.070,-152.780,57.400,38.940
545,43069.512000,225.536,12.047,44.032,468.495,-227.246,124.917,-98.780,-38.600,73.940
546,43069.560000,223.570,2.008,31.744,469.470,-224.583,120.002,-75.780,-5.600,126.940
547,43069.592000,256.983,-8.031,23.552,465.631,-229.116,124.873,23.220,65.400,159.940
548,43069.632000,262.879,-12.047,27.648,460.798,-236.527,123.713,1.220,-4.600,162.940
549,43069.672000,243.225,-19.075,40.960,458.975,-231.114,120.842,-149.780,-15.600,153.940
550,43069.692000,252.069,-28.110,49.152,458.854,-240.236,122.637,-209.780,104.400,161.940
551,43069.733000,246.173,-27.106,66.560,454.081,-243.086,120.580,-232.780,176.400,157.940
552,43069.767000,249.121,-31.122,62.464,452.122,-248.510,125.435,-127.780,177.400,174.940
553,43069.807000,249.121,-29.114,60.416,450.208,-250.329,127.382,-45.780,195.400,153.940
554,43069.847000,231.432,-20.078,68.608,447.322,-253.992,129.289,39.220,107.400,119.940
555,43069.888000,202.933,-35.137,65.536,446.256,-263.107,132.078,221.220,47.400,173.940
556,43069.930000,211.777,-29.114,54.272,442.545,-258.440,139.134,445.220,110.400,159.940
557,43069.958000,250.104,-18.071,61.440,441.665,-254.592,149.161,564.220,104.400,189.940
558,43069.987000,237.328,4.016,56.320,441.641,-257.185,157.063,777.220,79.400,262.940
559,43070.27000,273.689,2.008,48.128,437.852,-258.813,169.953,799.220,113.400,266.940
560,43070.67000,271.724,30.118,45.056,434.174,-252.216,182.023,811.220,14.400,241.940
561,43070.107000,269.758,37.145,54.272,432.228,-257.484,194.839,669.220,72.400,53.940
562,43070.153000,269.758,42.165,51.200,434.320,-243.581,202.100,563.220,15.400,15.940
563,43070.167000,256.000,26.102,50.176,433.438,-238.993,203.191,412.220,-14.600,-3.060
564,43070.214000,244.207,26.102,44.032,434.425,-236.193,205.242,324.220,-143.600,-112.060
565,43070.248000,252.069,44.173,28.672,440.191,-229.705,205.388,193.220,-250.600,-223.060
566,43070.288000,277.620,39.153,24.576,450.679,-223.252,200.568,-24.780,-295.600,-323.060
567,43070.329000,285.482,25.098,32.768,452.664,-215.216,188.806,-122.780,-300.600,-351.060
568,43070.376000,282.534,10.039,39.936,457.341,-218.877,185.751,-187.780,-290.600,-274.060
569,43070.402000,242.242,3.012,45.056,465.927,-212.566,174.957,-222.780,-388.600,-267.060
570,43070.428000,195.071,12.047,45.056,465.896,-213.697,163.992,-290.780,-289.600,-320.060
571,43070.470000,209.812,5.020,43.008,472.689,-200.861,160.297,-341.780,-99.600,-350.060
572,43070.511000,252.069,7.027,57.344,477.426,-199.961,156.344,-394.780,60.400,-332.060
573,43070.553000,251.086,10.039,40.960,474.591,-199.180,151.384,-331.780,-60.600,-247.060
574,43070.593000,253.052,12.047,38.912,480.364,-191.834,148.565,-366.780,-2.600,-201.060
575,43070.632000,252.069,7.027,59.392,481.290,-192.835,143.571,-398.780,35.400,-138.060
576,43070.653000,222.587,5.020,58.368,481.315,-191.003,143.611,-204.780,84.400,-14.060
577,43070.693000,221.605,-6.024,47.104,481.329,-190.068,144.625,-7.780,98.400,83.940
578,43070.728000,245.190,-2.008,37.888,478.380,-199.091,153.380,192.220,95.400,141.940
579,43070.768000,265.827,0.000,39.936,473.647,-199.173,152.377,421.220,112.400,168.940
580,43070.811000,260.914,9.035,38.912,473.624,-201.746,161.274,551.220,-98.600,182.940
581,43070.851000,244.207,15.059,22.528,470.803,-200.808,164.274,639.220,-67.600,154.940
582,43070.871000,259.931,34.133,47.104,472.863,-188.815,167.516,448.220,18.400,-5.060
583,43070.911000,269.758,45.176,51.200,473.817,-188.705,172.493,345.220,61.400,-124.060
584,43070.951000,272.706,45.176,44.032,475.731,-187.666,177.491,141.220,80.400,-170.060
585,43070.993000,241.259,33.129,44.032,474.938,-176.646,179.714,101.220,23.400,-158.060
586,43071.28000,234.380,29.114,32.768,477.749,-178.480,177.689,49.220,-49.600,-192.060
587,43071.68000,219.639,28.110,24.576,476.045,-164.743,178.974,60.220,-77.600,-212.060
588,43071.90000,219.639,33.129,19.456,479.866,-161.965,178.044,78.220,-58.600,-192.060
589,43071.133000,259.931,39.153,15.360,482.778,-156.450,177.171,131.220,-8.600,-208.060
590,43071.171000,255.017,38.149,10.240,484.657,-157.360,176.160,270.220,-180.600,-87.060
591,43071.216000,245.190,57.224,18.432,487.603,-149.136,173.355,344.220,-151.600,-81.060
592,43071.250000,245.190,70.275,43.008,486.704,-146.283,179.383,144.220,125.400,-249.060
593,43071.310000,252.069,82.322,51.200,489.725,-133.342,183.641,8.220,141.400,-317.060
594,43071.331000,251.086,75.294,37.888,485.879,-137.953,184.532,-195.780,153.400,-255.060
595,43071.351000,244.207,58.227,38.912,488.809,-131.464,186.664,-309.780,192.400,-247.060
596,43071.390000,213.743,53.208,36.864,489.850,-124.180,183.836,-372.780,64.400,-245.060
597,43071.435000,198.019,57.224,36.864,489.773,-129.697,182.724,-426.780,-31.600,-268.060
598,43071.470000,203.916,52.204,43.008,492.695,-123.305,179.880,-513.780,0.400,-349.060
599,43071.510000,242.242,62.243,44.032,489.056,-112.400,178.118,-558.780,25.400,-518.060
600,43071.553000,256.000,57.224,47.104,494.783,-107.901,170.265,-453.780,-72.600,-308.060
601,43071.571000,237.328,30.118,65.536,494.798,-106.965,171.280,-414.780,3.400,-256.060
602,43071.615000,259.931,61.239,72.704,494.872,-100.708,163.456,-448.780,-41.600,-340.060
603,43071.675000,314.964,52.204,77.824,494.839,-103.398,166.382,-469.780,150.400,-194.060
604,43071.713000,262.879,43.169,62.464,495.736,-107.050,166.306,-364.780,2.400,43.940
605,43071.731000,255.017,37.145,54.272,494.784,-107.121,163.319,-234.780,-27.600,210.940
606,43071.771000,244.207,23.090,52.224,490.781,-122.804,159.996,-161.780,-108.600,434.940
607,43071.801000,255.017,22.086,51.200,488.787,-130.178,158.841,-13.780,-90.600,529.940
608,43071.830000,278.603,31.122,58.368,485.747,-144.893,157.529,129.220,-30.600,634.940
609,43071.872000,266.810,23.090,43.008,481.713,-163.246,158.127,259.220,-131.600,695.940
610,43071.915000,213.743,27.106,59.392,478.707,-175.252,154.883,382.220,-117.600,701.940
611,43071.956000,206.864,26.102,64.512,474.835,-182.475,162.681,449.220,-26.600,647.940
612,43071.997000,219.639,20.078,62.464,468.099,-191.567,170.434,562.220,103.400,539.940
613,43072.18000,238.311,28.110,54.272,462.361,-196.964,179.263,518.220,118.400,474.940
614,43072.52000,240.276,24.094,45.056,456.552,-207.038,183.018,561.220,20.400,381.940
615,43072.95000,241.259,30.118,49.152,459.310,-213.335,186.867,534.220,-99.600,276.940
616,43072.131000,252.069,35.137,46.080,459.449,-203.238,188.076,444.220,-193.600,115.940
617,43072.170000,251.086,35.137,35.840,459.449,-203.238,188.076,320.220,-283.600,30.940
618,43072.216000,232.415,40.157,23.552,461.357,-201.498,182.148,79.220,-266.600,-38.060
619,43072.250000,229.466,58.227,33.792,469.019,-194.167,177.343,-234.780,-165.600,-239.060
620,43072.272000,257.965,62.243,40.960,473.714,-196.073,170.347,-466.780,-36.600,-341.060
621,43072.312000,272.706,31.122,29.696,470.929,-191.628,165.464,-572.780,-24.600,-245.060
622,43072.351000,252.069,26.102,19.456,475.618,-193.612,154.488,-618.780,-91.600,-217.060
623,43072.392000,220.622,19.075,17.408,469.859,-198.482,143.434,-528.780,-267.600,-130.060
624,43072.434000,234.380,22.086,24.576,480.333,-192.965,137.599,-602.780,4.400,-124.060
625,43072.470000,273.689,-3.012,64.512,474.629,-194.892,136.555,-655.780,134.400,-14.060
626,43072.496000,270.741,0.000,40.960,474.510,-203.215,132.400,-321.780,-0.600,82.940
627,43072.530000,252.069,4.016,45.056,474.508,-203.235,131.404,-154.780,89.400,114.940
628,43072.571000,228.484,18.071,39.936,473.472,-209.680,130.271,-41.780,14.400,75.940
629,43072.636000,217.674,18.071,29.696,469.648,-212.498,129.211,-20.780,-56.600,76.940
630,43072.651000,225.536,13.051,17.408,470.671,-206.969,130.325,-23.780,44.400,54.940
631,43072.691000,257.965,7.027,22.528,469.575,-217.975,130.089,-74.780,48.400,76.940
632,43072.721000,252.069,-3.012,34.816,465.789,-218.025,130.082,-214.780,-16.600,228.940
633,43072.750000,257.965,-11.043,58.368,468.553,-223.484,129.970,-301.780,167.400,247.940
634,43072.791000,250.104,-20.078,68.608,460.911,-229.042,131.830,-300.780,190.400,243.940
635,43072.831000,262.879,-25.098,64.512,457.997,-234.576,131.708,-238.780,256.400,182.940
636,43072.872000,247.155,-18.071,55.296,456.070,-237.311,133.636,-162.780,204.400,184.940
637,43072.915000,235.363,-15.059,56.320,454.074,-245.483,138.432,-16.780,113.400,195.940
638,43072.960000,223.570,-22.086,51.200,449.306,-248.275,139.360,157.220,58.400,212.940
639,43072.976000,211.777,-23.090,57.344,444.447,-258.297,145.108,341.220,41.400,243.940
640,43073.11000,211.777,-30.118,57.344,444.495,-255.432,151.137,542.220,93.400,284.940
641,43073.51000,239.294,-21.082,47.104,445.523,-250.605,163.176,685.220,162.400,286.940
642,43073.91000,261.896,9.035,48.128,435.900,-263.380,171.842,811.220,51.400,367.940
643,43073.132000,275.655,6.024,41.984,431.281,-256.737,186.896,717.220,114.400,445.940
644,43073.173000,285.482,6.024,63.488,425.638,-255.642,199.841,750.220,214.400,394.940
645,43073.193000,251.086,38.149,70.656,422.831,-254.529,211.797,558.220,245.400,87.940
646,43073.233000,249.121,35.137,66.560,420.066,-249.849,218.855,390.220,237.400,-5.060
647,43073.281000,247.155,28.110,58.368,417.233,-250.588,229.776,346.220,120.400,-44.060
648,43073.316000,238.311,26.102,46.080,419.190,-245.963,230.872,154.220,-38.600,-220.060
649,43073.356000,257.965,34.133,33.792,427.875,-233.103,227.180,9.220,-103.600,-384.060
650,43073.396000,283.516,33.129,41.984,427.963,-226.690,227.316,-176.780,-130.600,-482.060
651,43073.416000,301.205,13.051,77.824,436.482,-225.778,221.380,-333.780,-67.600,-468.060
652,43073.456000,272.706,4.016,57.344,443.174,-219.512,209.588,-342.780,-185.600,-380.060
653,43073.491000,246.173,0.000,56.320,448.929,-213.141,203.764,-515.780,-197.600,-397.060
654,43073.537000,191.140,8.031,64.512,451.737,-214.234,192.804,-565.780,-120.600,-434.060
655,43073.572000,210.795,7.027,77.824,452.791,-206.035,189.996,-554.780,33.400,-447.060
656,43073.612000,235.363,7.027,72.704,463.258,-201.376,187.127,-536.780,23.400,-402.060
657,43073.632000,245.190,8.031,65.536,462.302,-201.505,181.155,-524.780,41.400,-354.060
658,43073.681000,232.415,10.039,79.872,464.214,-199.707,178.212,-508.780,-15.600,-257.060
659,43073.717000,230.449,1.004,84.992,466.056,-202.586,170.197,-424.780,16.400,-153.060
660,43073.753000,214.726,-1.004,72.704,466.039,-203.561,167.192,-211.780,-105.600,-56.060
661,43073.797000,242.242,-12.047,58.368,469.863,-200.743,168.252,58.220,-39.600,75.940
662,43073.837000,255.017,-4.016,57.344,467.885,-207.161,169.107,250.220,-60.600,114.940
663,43073.872000,262.879,8.031,64.512,466.054,-202.606,169.202,309.220,-43.600,110.940
664,43073.896000,238.311,20.078,57.344,468.868,-204.400,169.168,348.220,-179.600,73.940
665,43073.931000,232.415,16.063,57.344,470.764,-204.336,171.161,334.220,-103.600,116.940
666,43073.971000,253.052,7.027,55.296,466.122,-197.966,172.284,362.220,-109.600,124.940
667,43074.11000,250.104,22.086,53.248,468.950,-198.825,173.265,366.220,21.400,70.940
668,43074.51000,256.000,37.145,72.704,468.089,-193.224,179.351,319.220,40.400,-49.060
669,43074.91000,242.242,40.157,61.440,471.977,-185.806,181.504,247.220,-60.600,-147.060
670,43074.122000,226.518,29.114,48.128,471.986,-184.929,179.533,218.220,-55.600,-176.060
671,43074.151000,228.484,30.118,45.056,472.949,-183.961,181.544,194.220,-90.600,-184.060
672,43074.193000,218.656,28.110,28.672,475.934,-172.969,179.793,189.220,-164.600,-124.060
673,43074.243000,236.345,39.153,20.480,478.743,-174.822,176.774,118.220,-171.600,-132.060
674,43074.277000,271.724,58.227,25.600,481.636,-170.302,171.901,142.220,-157.600,-189.060
675,43074.322000,254.035,61.239,23.552,485.498,-164.736,173.020,139.220,-231.600,-166.060
676,43074.337000,256.000,68.267,48.128,486.541,-157.433,171.188,117.220,-28.600,-186.060
677,43074.375000,246.173,66.259,60.416,486.674,-148.174,176.358,-25.780,111.400,-286.060
678,43074.414000,245.190,68.267,48.128,485.825,-140.897,174.523,-78.780,34.400,-298.060
679,43074.452000,222.587,57.224,28.672,489.646,-138.118,173.593,-63.780,34.400,-314.060
680,43074.493000,210.795,68.267,38.912,488.766,-133.510,175.679,-202.780,10.400,-330.060
681,43074.542000,204.898,62.243,35.840,489.780,-128.079,171.817,-353.780,-86.600,-308.060
682,43074.575000,217.674,75.294,44.032,491.684,-126.378,163.899,-530.780,-75.600,-378.060
683,43074.603000,235.363,81.318,51.200,496.508,-119.084,159.089,-700.780,40.400,-464.060
684,43074.633000,254.035,75.294,60.416,494.646,-116.439,155.164,-766.780,29.400,-395.060
685,43074.673000,236.345,41.161,58.368,497.527,-112.834,150.271,-769.780,63.400,-215.060
686,43074.713000,264.845,50.196,68.608,498.495,-111.029,148.322,-710.780,16.400,-238.060
687,43074.755000,299.240,40.157,66.560,499.311,-120.236,145.143,-638.780,39.400,-102.060
688,43074.797000,282.534,15.059,78.848,498.359,-120.307,142.156,-519.780,61.400,201.940
689,43074.817000,259.931,21.082,70.656,496.323,-130.488,137.958,-320.780,-70.600,313.940
690,43074.857000,248.138,13.051,59.392,491.395,-144.390,132.682,-127.780,-113.600,482.940
691,43074.898000,252.069,4.016,49.152,489.279,-160.885,133.322,47.220,-103.600,575.940
692,43074.932000,257.965,12.047,50.176,486.364,-166.439,132.205,307.220,-76.600,649.940
693,43074.973000,256.000,8.031,55.296,475.666,-188.427,138.684,488.220,-76.600,749.940
694,43075.13000,200.967,17.067,44.032,473.705,-193.871,142.544,588.220,-124.600,758.940
695,43075.32000,199.985,3.012,53.248,466.837,-212.203,146.122,625.220,30.400,683.940
696,43075.77000,224.553,28.110,65.536,459.262,-213.901,158.010,709.220,259.400,459.940
697,43075.112000,262.879,37.145,69.632,450.683,-220.134,172.784,622.220,240.400,413.940
698,43075.159000,268.775,21.082,46.080,448.792,-220.900,181.717,610.220,68.400,392.940
699,43075.197000,264.845,34.133,53.248,445.031,-219.897,188.695,495.220,54.400,233.940
700,43075.232000,257.965,35.137,47.104,445.031,-219.897,188.695,404.220,-83.600,156.940
701,43075.252000,249.121,39.153,48.128,443.130,-220.799,190.662,142.220,-98.600,95.940
702,43075.293000,216.691,32.125,40.960,442.002,-233.715,186.407,-40.780,-185.600,71.940
703,43075.338000,231.432,29.114,49.152,446.866,-223.634,183.645,-202.780,-31.600,-38.060
704,43075.377000,253.052,30.118,55.296,445.849,-228.325,178.571,-422.780,-48.600,-63.060
705,43075.413000,269.758,-5.020,53.248,446.785,-228.429,172.602,-541.780,28.400,1.940
706,43075.462000,231.432,-16.063,53.248,447.639,-234.888,169.482,-592.780,-66.600,1.940
707,43075.497000,231.432,-8.031,46.080,443.724,-243.379,159.349,-563.780,-22.600,-73.060
708,43075.521000,223.570,-3.012,64.512,446.600,-239.833,151.472,-568.780,-25.600,-67.060
709,43075.557000,254.035,-12.047,64.512,444.577,-249.078,148.288,-443.780,91.400,-77.060
710,43075.593000,260.914,-6.024,61.440,442.781,-241.813,146.451,-337.780,58.400,-57.060
711,43075.632000,245.190,-6.024,59.392,446.513,-245.466,144.389,-247.780,26.400,-10.060
712,43075.673000,235.363,-6.024,60.416,448.387,-246.435,140.393,-210.780,10.400,15.940
713,43075.713000,230.449,-6.024,55.296,443.575,-252.053,137.282,-162.780,-4.600,40.940
714,43075.733000,221.605,-8.031,39.936,447.423,-247.422,137.386,-79.780,46.400,38.940
715,43075.773000,264.845,-18.071,40.960,441.609,-257.555,138.157,-187.780,88.400,5.940
716,43075.813000,241.259,-12.047,54.272,445.414,-255.732,135.217,-274.780,38.400,-12.060
717,43075.854000,238.311,-33.129,71.680,447.307,-255.707,135.221,-431.780,161.400,17.940
718,43075.896000,244.207,-28.110,75.776,444.388,-261.300,132.113,-417.780,175.400,50.940
719,43075.936000,256.000,-36.141,69.632,443.428,-262.248,131.097,-267.780,201.400,160.940
720,43075.970000,239.294,-32.125,66.560,442.408,-267.737,131.973,-169.780,70.400,150.940
721,43075.998000,244.207,-24.094,75.776,437.700,-265.987,131.009,-78.780,35.400,127.940
722,43076.38000,207.846,-34.133,69.632,432.929,-268.818,129.947,160.220,-40.600,171.940
723,43076.78000,204.898,-36.141,74.752,437.639,-270.548,131.907,376.220,-41.600,159.940
724,43076.118000,234.380,-29.114,64.512,431.862,-278.712,139.681,581.220,-63.600,157.940
725,43076.160000,230.449,-1.004,75.776,432.008,-269.297,152.812,799.220,-23.600,181.940
726,43076.195000,233.397,8.031,71.680,430.173,-266.340,164.808,882.220,-40.600,200.940
727,43076.215000,271.724,16.063,62.464,426.384,-267.208,169.757,869.220,-31.600,178.940
728,43076.255000,289.413,26.102,53.248,427.445,-259.691,178.871,754.220,-76.600,178.940
729,43076.298000,301.205,35.137,57.344,427.412,-263.161,188.743,653.220,-42.600,91.940
730,43076.338000,273.689,28.110,52.224,426.542,-257.657,189.854,455.220,-139.600,19.940
731,43076.378000,244.207,14.055,37.888,429.485,-250.251,192.005,227.220,-224.600,-32.060
732,43076.418000,238.311,13.051,31.744,431.410,-247.536,189.081,112.220,-252.600,-192.060
733,43076.438000,269.758,21.082,31.744,437.176,-240.269,182.282,-37.780,-245.600,-384.060
734,43076.478000,282.534,8.031,57.344,445.769,-233.880,175.468,-80.780,-216.600,-404.060
735,43076.518000,276.637,5.020,50.176,447.750,-226.663,168.663,-163.780,-304.600,-382.060
736,43076.558000,230.449,0.000,48.128,459.099,-226.591,164.702,-246.780,-318.600,-346.060
737,43076.596000,201.950,6.024,52.224,462.010,-220.316,155.888,-280.780,-235.600,-356.060
738,43076.639000,210.795,13.051,53.248,466.766,-217.661,147.995,-362.780,-58.600,-371.060
739,43076.653000,232.415,12.047,53.248,468.727,-212.217,144.135,-409.780,-43.600,-339.060
740,43076.693000,232.415,10.039,39.936,475.361,-210.473,135.230,-449.780,-101.600,-279.060
741,43076.740000,240.276,11.043,47.104,476.322,-208.745,129.301,-592.780,-58.600,-229.060
742,43076.791000,233.397,9.035,61.440,483.024,-202.362,123.479,-595.780,-73.600,-184.060
743,43076.816000,230.449,0.000,53.248,484.892,-203.390,116.497,-395.780,-4.600,-83.060
744,43076.861000,246.173,-6.024,45.056,483.952,-202.564,112.535,-133.780,15.400,38.940
745,43076.904000,260.914,0.000,34.816,482.027,-205.279,115.458,83.220,-31.600,116.940
746,43076.919000,251.086,5.020,58.368,481.021,-209.833,117.349,76.220,-8.600,139.940
747,43076.954000,255.017,18.071,54.272,479.111,-210.833,114.341,211.220,-64.600,-0.060
748,43076.994000,251.086,11.043,40.960,481.034,-208.917,117.368,231.220,-32.600,8.940
749,43077.40000,227.501,10.039,21.504,480.036,-212.614,116.293,291.220,-124.600,93.940
750,43077.77000,258.948,6.024,18.432,477.280,-207.057,121.381,346.220,-18.600,128.940
751,43077.116000,254.035,18.071,36.864,481.027,-210.535,128.275,331.220,37.400,98.940
752,43077.141000,262.879,29.114,51.200,476.271,-212.430,128.227,269.220,44.400,-35.060
753,43077.180000,249.121,37.145,49.152,479.268,-201.301,133.442,227.220,31.400,-154.060
754,43077.221000,229.466,31.122,33.792,480.225,-200.392,132.468,214.220,48.400,-218.060
755,43077.265000,227.501,23.090,21.504,480.383,-189.301,137.678,225.220,31.400,-207.060
756,43077.305000,231.432,27.106,18.432,484.281,-181.005,137.860,244.220,-12.600,-172.060
757,43077.336000,256.000,36.141,20.480,488.085,-179.961,141.866,264.220,78.400,-169.060
758,43077.354000,253.052,50.196,20.480,486.270,-174.470,142.975,239.220,-39.600,-193.060
759,43077.401000,249.121,61.239,34.816,486.364,-167.979,147.092,167.220,85.400,-261.060
760,43077.441000,248.138,69.271,54.272,490.114,-171.418,155.976,155.220,133.400,-265.060
761,43077.480000,244.207,64.251,51.200,491.337,-151.231,157.402,35.220,153.400,-304.060
762,43077.517000,231.432,59.231,37.888,494.301,-142.032,157.602,-51.780,96.400,-316.060
763,43077.555000,228.484,52.204,38.912,494.303,-142.012,158.597,-79.780,140.400,-372.060
764,43077.574000,205.881,53.208,46.080,496.372,-129.142,159.869,-58.780,40.400,-294.060
765,43077.619000,204.898,68.267,38.912,498.249,-130.072,157.863,-128.780,-76.600,-330.060
766,43077.656000,212.760,76.298,53.248,498.433,-116.369,156.165,-243.780,-19.600,-405.060
767,43077.695000,233.397,78.306,36.864,499.493,-108.092,157.338,-244.780,-100.600,-344.060
768,43077.736000,224.553,64.251,40.960,500.456,-106.345,152.403,-395.780,-5.600,-245.060
769,43077.777000,259.931,54.212,72.704,499.527,-105.383,155.406,-466.780,167.400,-157.060
770,43077.817000,300.223,57.224,60.416,502.372,-104.507,151.450,-344.780,-87.600,-161.060
771,43077.845000,312.015,56.220,58.368,500.359,-112.875,146.296,-342.780,40.400,-10.060
772,43077.877000,267.793,49.192,64.512,498.439,-114.752,145.259,-83.780,-2.600,230.940
773,43077.921000,229.466,40.157,37.888,498.386,-118.455,143.191,2.220,-94.600,367.940
774,43077.961000,221.605,32.125,34.816,497.186,-136.829,140.808,-46.780,-40.600,522.940
775,43077.995000,254.035,7.027,60.416,491.417,-144.136,145.618,8.220,105.400,621.940
776,43078.37000,270.741,18.071,70.656,483.505,-169.790,150.033,117.220,161.400,691.940
777,43078.77000,264.845,12.047,67.584,475.883,-174.334,156.888,267.220,196.400,690.940
778,43078.102000,220.622,24.094,56.320,470.085,-184.291,166.613,461.220,125.400,667.940
779,43078.137000,202.933,10.039,61.440,465.121,-201.702,169.219,422.220,121.400,672.940
780,43078.186000,217.674,7.027,61.440,456.547,-207.097,180.033,552.220,126.400,630.940
781,43078.214000,251.086,27.106,50.176,449.840,-214.318,189.816,610.220,99.400,629.940
782,43078.261000,257.965,19.075,46.080,444.392,10.100,198.562,452.220,14.400,595.940
783,43078.275000,257.965,19.075,57.344,435.438,-230.781,200.385,411.220,31.400,380.940
784,43078.315000,249.121,32.125,70.656,433.581,-228.857,206.391,275.220,52.400,194.940
785,43078.361000,219.639,36.141,51.200,434.452,-234.341,206.276,91.220,-63.600,137.940
786,43078.401000,212.760,23.090,44.032,432.548,-234.503,199.307,-161.780,-78.600,-15.060
787,43078.436000,228.484,13.051,19.456,435.353,-236.395,194.298,-196.780,-61.600,-122.060
788,43078.476000,281.551,15.059,44.032,438.178,-237.293,193.288,-418.780,51.400,-178.060
789,43078.516000,272.706,4.016,46.080,439.159,-234.571,191.358,-482.780,61.400,-119.060
790,43078.543000,247.155,-5.020,66.560,441.005,-237.392,186.328,-652.780,176.400,-92.060
791,43078.578000,211.777,-9.035,65.536,438.083,-243.024,181.230,-707.780,182.400,-101.060
792,43078.626000,212.760,-3.012,64.512,437.078,-246.799,176.175,-650.780,147.400,-161.060
793,43078.662000,208.829,-3.012,56.320,441.808,-246.756,175.189,-531.780,143.400,-164.060
794,43078.702000,261.896,-17.067,77.824,437.033,-249.645,171.141,-469.780,325.400,-180.060
795,43078.737000,259.931,-14.055,89.088,438.041,-245.052,171.241,-305.780,304.400,-60.060
796,43078.766000,227.501,-3.012,94.208,436.007,-255.973,175.978,-288.780,260.400,-4.060
797,43078.801000,208.829,-8.031,87.040,434.194,-250.442,179.077,-250.780,224.400,-8.060
798,43078.837000,220.622,-8.031,72.704,434.187,-251.300,182.043,-197.780,241.400,-93.060
799,43078.878000,240.276,-14.055,73.728,430.355,-254.975,183.948,-175.780,226.400,-102.060
800,43078.918000,256.000,-14.055,78.848,430.408,-251.272,186.017,-173.780,226.400,-115.060
801,43078.958000,224.553,0.000,74.752,433.306,-246.693,184.129,-213.780,147.400,-149.060
802,43079.6000,228.484,-32.125,96.256,428.555,-248.529,187.067,-384.780,239.400,-99.060
803,43079.22000,248.138,-19.075,108.544,430.424,-250.317,188.026,-247.780,268.400,-55.060
804,43079.57000,249.121,-11.043,109.568,431.413,-247.497,191.072,-18.780,179.400,34.940
805,43079.97000,240.276,-18.071,109.568,425.638,-254.862,192.896,137.220,125.400,71.940
806,43079.137000,224.553,-5.020,105.472,427.652,-246.495,198.050,362.220,-16.600,73.940
807,43079.177000,199.002,-7.027,88.064,426.666,-250.054,203.940,588.220,-150.600,93.940
808,43079.197000,199.985,-12.047,84.992,425.763,-247.240,207.978,724.220,-156.600,168.940
809,43079.237000,226.518,-4.016,88.064,424.941,-238.871,215.117,828.220,-154.600,269.940
810,43079.277000,264.845,-1.004,101.376,422.103,-239.669,223.053,838.220,-53.600,428.940
811,43079.317000,226.518,19.075,102.400,415.547,-235.877,234.065,842.220,-156.600,515.940
812,43079.361000,239.294,13.051,84.992,411.671,-243.158,238.877,604.220,-45.600,574.940
813,43079.396000,232.415,18.071,79.872,409.790,-243.047,245.839,600.220,-68.600,421.940
814,43079.436000,276.637,34.133,87.040,406.916,-245.794,247.766,389.220,-8.600,179.940
815,43079.456000,266.810,39.153,78.848,407.955,-239.310,250.889,273.220,-152.600,-67.060
816,43079.496000,257.965,37.145,71.680,413.676,-235.648,246.997,37.220,-267.600,-281.060
817,43079.536000,284.499,38.149,63.488,419.398,-231.207,236.159,-190.780,-294.600,-540.060
818,43079.576000,302.188,20.078,77.824,427.102,-221.088,233.402,-304.780,-227.600,-569.060
819,43079.622000,270.741,4.016,69.632,440.432,-213.799,222.636,-272.780,-331.600,-520.060
820,43079.657000,212.760,4.016,68.608,448.087,-206.546,213.850,-229.780,-385.600,-443.060
821,43079.677000,207.846,-1.004,76.800,454.720,-204.821,203.950,-296.780,-332.600,-346.060
822,43079.717000,215.708,-2.008,84.992,461.466,-194.832,195.221,-299.780,-226.600,-335.060
823,43079.763000,225.536,16.063,72.704,462.431,-193.065,191.281,-244.780,-297.600,-304.060
824,43079.803000,235.363,14.055,57.344,467.217,-187.740,179.466,-222.780,-288.600,-240.060
825,43079.838000,230.449,13.051,65.536,471.047,-183.324,168.625,-231.780,-260.600,-165.060
826,43079.878000,216.691,8.031,72.704,475.729,-186.146,161.609,-213.780,-229.600,-67.060
827,43079.907000,221.605,0.000,55.296,475.633,-192.657,156.497,-25.780,-226.600,89.940
828,43079.942000,237.328,-11.043,54.272,474.653,-195.379,158.427,199.220,2.400,281.940
829,43079.982000,265.827,-2.008,55.296,471.842,-193.545,160.451,337.220,-23.600,279.940
830,43080.21000,268.775,18.071,60.416,467.898,-205.466,162.181,328.220,-49.600,232.940
831,43080.59000,240.276,15.059,53.248,468.935,-199.001,164.309,397.220,-130.600,167.940
832,43080.99000,228.484,17.067,33.792,468.808,-208.182,163.119,449.220,-230.600,130.940
833,43080.139000,256.000,24.094,37.888,469.906,-197.156,164.350,396.220,-133.600,61.940
834,43080.167000,256.983,29.114,47.104,471.821,-195.338,162.402,327.220,-101.600,-0.060
835,43080.202000,248.138,39.153,46.080,473.765,-191.629,163.479,236.220,-126.600,-103.060
836,43080.237000,241.259,44.173,36.864,475.658,-191.604,163.482,187.220,-138.600,-246.060
837,43080.277000,242.242,42.165,23.552,483.386,-179.653,160.764,165.220,-160.600,-251.060
838,43080.317000,223.570,42.165,18.432,486.305,-173.280,156.925,54.220,-186.600,-226.060
839,43080.357000,235.363,48.188,16.384,490.164,-167.753,156.054,-29.780,-112.600,-217.060
840,43080.384000,254.035,56.220,17.408,487.370,-164.185,153.142,-64.780,-41.600,-177.060
841,43080.418000,254.035,53.208,10.240,491.104,-167.819,152.076,-59.780,-104.600,-27.060
842,43080.467000,268.775,48.188,19.456,491.139,-165.090,151.139,-15.780,36.400,29.940
843,43080.499000,255.017,53.208,39.936,491.054,-171.483,151.997,-64.780,101.400,-24.060
844,43080.542000,258.948,60.235,37.888,491.129,-165.986,152.115,-71.780,147.400,-103.060
845,43080.582000,238.311,48.188,34.816,487.352,-165.939,157.083,-96.780,185.400,-141.060
846,43080.603000,236.345,47.184,35.840,490.247,-162.159,161.146,-161.780,144.400,-223.060
847,43080.638000,213.743,50.196,30.720,490.386,-152.062,162.356,-228.780,79.400,-272.060
848,43080.682000,209.812,42.165,33.792,491.365,-149.359,159.431,-344.780,36.400,-311.060
849,43080.718000,200.967,44.173,29.696,493.319,-144.773,158.537,-353.780,-49.600,-349.060
850,43080.758000,225.536,52.204,30.720,495.311,-136.659,150.756,-402.780,-32.600,-431.060
851,43080.799000,249.121,63.247,43.008,498.244,-129.351,147.932,-489.780,-23.600,-500.060
852,43080.839000,229.466,42.165,36.864,498.247,-128.552,141.981,-422.780,-106.600,-292.060
853,43080.859000,263.862,29.114,62.464,500.270,-119.307,145.164,-541.780,146.400,-275.060
854,43080.903000,322.825,40.157,76.800,497.422,-119.442,140.184,-548.780,136.400,-219.060
855,43080.938000,304.154,30.118,67.584,497.326,-126.732,142.018,-438.780,121.400,-23.060
856,43080.978000,261.896,30.118,64.512,495.458,-124.925,142.054,-281.780,138.400,77.940
857,43081.19000,236.345,22.086,49.152,497.191,-136.771,143.794,-167.780,23.400,278.940
858,43081.64000,241.259,20.078,41.984,492.438,-138.627,145.736,-51.780,15.400,410.940
859,43081.83000,255.017,14.055,52.224,491.367,-147.800,145.539,84.220,93.400,514.940
860,43081.123000,272.706,25.098,61.440,481.689,-164.299,151.142,266.220,70.400,626.940
861,43081.163000,243.225,21.082,51.200,473.895,-180.870,151.772,481.220,-47.600,689.940
862,43081.213000,208.829,30.118,52.224,474.787,-185.340,156.652,620.220,-35.600,618.940
863,43081.248000,234.380,38.149,62.464,468.978,-196.194,167.353,619.220,75.400,516.940
864,43081.278000,256.000,38.149,75.776,464.193,-200.720,173.217,638.220,201.400,444.940
865,43081.311000,252.069,37.145,61.440,459.423,-205.090,187.042,689.220,94.400,380.940
866,43081.341000,243.225,30.118,60.416,456.570,-206.823,193.964,624.220,106.400,273.940
867,43081.381000,234.380,45.176,59.392,455.712,-201.183,202.040,497.220,61.400,120.940
868,43081.428000,220.622,46.180,56.320,454.768,-201.176,203.033,328.220,-35.600,49.940
869,43081.458000,212.760,54.212,39.936,454.785,-200.201,206.038,76.220,-54.600,-30.060
870,43081.499000,239.294,54.212,38.912,457.578,-203.010,201.009,-274.780,-31.600,-115.060
871,43081.543000,264.845,53.208,39.936,457.622,-199.423,197.107,-445.780,-4.600,-204.060
872,43081.561000,277.620,55.216,41.984,455.769,-195.901,191.211,-603.780,-17.600,-192.060
873,43081.601000,256.000,19.075,53.248,459.474,-200.646,180.175,-785.780,-84.600,-52.060
874,43081.638000,184.261,-3.012,36.864,458.345,-212.803,167.979,-756.780,-173.600,-1.060
875,43081.679000,265.827,-6.024,79.872,457.331,-217.454,164.894,-833.780,175.400,-20.060
876,43081.719000,272.706,-22.086,88.064,457.304,-219.306,163.860,-674.780,257.400,75.940
877,43081.759000,262.879,-21.082,73.728,448.620,-231.387,160.606,-306.780,51.400,95.940
878,43081.779000,256.983,0.000,57.344,452.466,-226.776,159.715,-206.780,13.400,71.940
879,43081.821000,221.605,6.024,72.704,451.426,-233.279,155.597,-133.780,-15.600,78.940
880,43081.858000,218.656,-2.008,69.632,451.354,-238.737,157.470,-112.780,-59.600,106.940
881,43081.914000,235.363,-9.035,53.248,451.411,-234.215,154.582,25.220,29.400,159.940
882,43081.953000,267.793,-11.043,47.104,447.508,-243.348,158.361,123.220,99.400,180.940
883,43081.984000,268.775,-2.008,46.080,442.789,-242.494,158.372,-39.780,-47.600,101.940
884,43082.4000,216.691,-4.016,51.200,449.380,-244.337,153.369,-270.780,-91.600,4.940
885,43082.38000,232.415,-16.063,73.728,444.632,-245.354,151.351,-376.780,96.400,-11.060
886,43082.84000,250.104,-25.098,81.920,444.557,-250.851,151.234,-275.780,168.400,67.940
887,43082.124000,252.069,-40.157,75.776,442.652,-251.792,151.211,-41.780,134.400,146.940
888,43082.164000,243.225,-15.059,70.656,439.609,-267.307,155.850,167.220,77.400,108.940
889,43082.198000,234.380,-13.051,67.584,437.836,-259.008,160.002,368.220,-63.600,92.940
890,43082.232000,207.846,-16.063,65.536,441.752,-249.719,164.184,548.220,-90.600,98.940
891,43082.259000,197.036,-17.067,58.368,440.766,-253.279,170.075,798.220,-138.600,185.940
892,43082.309000,245.190,-8.031,58.368,439.901,-248.496,181.117,993.220,-53.600,332.940
893,43082.342000,263.862,16.063,74.752,430.409,-252.032,193.957,1021.220,15.400,487.940
894,43082.385000,266.810,-4.016,66.560,422.830,-253.769,203.856,843.220,-17.600,690.940
895,43082.420000,249.121,-7.027,63.488,419.023,-256.392,212.746,781.220,-11.600,619.940
896,43082.459000,267.793,19.075,63.488,412.387,-258.155,220.656,520.220,143.400,307.940
897,43082.479000,264.845,39.153,63.488,410.511,-257.985,230.603,370.220,75.400,4.940
898,43082.521000,244.207,35.137,40.960,416.337,-246.936,229.852,177.220,-99.600,-250.060
899,43082.561000,270.741,37.145,27.648,420.175,-242.423,223.986,-177.780,-196.600,-503.060
900,43082.601000,292.361,3.012,64.512,423.032,-240.631,220.050,-329.780,-161.600,-509.060
901,43082.641000,312.015,-10.039,89.088,433.644,-225.036,214.430,-354.780,-11.600,-556.060
902,43082.682000,269.758,16.063,61.440,442.219,-219.622,204.611,-308.780,-283.600,-526.060
903,43082.702000,239.294,-9.035,61.440,447.061,-210.574,195.859,-486.780,-181.600,-464.060
904,43082.742000,218.656,-9.035,60.416,454.579,-213.398,186.858,-380.780,-156.600,-386.060
905,43082.784000,232.415,6.024,61.440,458.407,-209.761,182.963,-409.780,-84.600,-311.060
906,43082.824000,224.553,3.012,50.176,459.397,-206.162,179.062,-382.780,-161.600,-270.060
907,43082.864000,224.553,8.031,50.176,467.020,-201.599,173.203,-346.780,-194.600,-274.060
908,43082.904000,233.397,18.071,55.296,468.935,-199.001,164.309,-359.780,-196.600,-261.060
909,43082.924000,234.380,9.035,56.320,474.616,-197.348,151.423,-259.780,-172.600,-171.060
910,43082.971000,222.587,1.004,54.272,476.514,-197.264,154.411,-61.780,-50.600,11.940
911,43082.999000,251.086,-6.024,63.488,471.709,-202.804,155.281,65.220,83.400,133.940
912,43083.39000,257.965,-6.024,67.584,471.776,-198.165,158.364,161.220,126.400,166.940
913,43083.81000,263.862,-1.004,58.368,467.900,-205.446,163.176,301.220,60.400,109.940
914,43083.124000,239.294,24.094,44.032,467.978,-199.910,165.283,312.220,-87.600,86.940
915,43083.144000,239.294,22.086,37.888,471.770,-199.782,169.270,251.220,-49.600,59.940
916,43083.196000,251.086,22.086,58.368,470.736,-206.208,169.132,260.220,29.400,68.940
917,43083.221000,261.896,21.082,57.344,466.986,-204.308,175.135,218.220,134.400,46.940
918,43083.261000,253.052,20.078,56.320,468.023,-197.844,177.263,68.220,191.400,-43.060
919,43083.301000,251.086,29.114,61.440,464.276,-195.905,185.256,-53.780,196.400,-142.060
920,43083.341000,235.363,15.059,60.416,461.435,-195.962,184.256,-190.780,155.400,-143.060
921,43083.384000,234.380,23.090,60.416,467.187,-190.410,183.388,-249.780,187.400,-192.060
922,43083.404000,225.536,17.067,61.440,465.263,-193.105,187.306,-389.780,212.400,-215.060
923,43083.439000,219.639,37.145,62.464,471.049,-185.604,192.447,-323.780,314.400,-121.060
924,43083.486000,259.931,66.259,57.344,464.418,-186.549,195.401,-167.780,293.400,-145.060
925,43083.526000,276.637,67.263,39.936,464.389,-188.420,193.372,38.220,119.400,-16.060
926,43083.566000,244.207,43.169,40.960,465.431,-181.897,198.486,254.220,90.400,-21.060
927,43083.601000,249.121,49.192,78.848,461.624,-184.520,207.376,298.220,254.400,-76.060
928,43083.621000,251.086,59.231,83.968,461.773,-174.306,214.556,181.220,146.400,-86.060
929,43083.662000,227.501,50.196,65.536,460.855,-172.447,216.584,104.220,71.400,-87.060
930,43083.703000,222.587,48.188,69.632,460.015,-165.052,220.718,69.220,43.400,-180.060
931,43083.743000,210.795,53.208,68.608,461.915,-164.170,217.756,-0.780,-95.600,-293.060
932,43083.783000,206.864,57.224,63.488,463.887,-157.829,212.921,-130.780,-198.600,-309.060
933,43083.828000,203.916,36.141,50.176,469.630,-152.375,207.077,-72.780,-294.600,-322.060
934,43083.847000,220.622,59.231,53.248,475.471,-139.611,200.395,59.220,-280.600,-477.060
935,43083.881000,259.931,53.208,44.032,479.347,-132.349,194.588,40.220,-283.600,-517.060
936,43083.927000,229.466,31.122,52.224,485.152,-122.313,188.842,15.220,-391.600,-447.060
937,43083.962000,242.242,51.200,62.464,490.949,-112.375,178.121,65.220,-308.600,-360.060
938,43084.3000,292.361,38.149,92.160,493.799,-111.441,177.151,21.220,-145.600,-309.060
939,43084.43000,303.171,29.114,90.112,492.915,-106.873,177.247,-56.780,-43.600,-3.060
940,43084.86000,272.706,47.184,84.992,490.992,-108.789,174.219,-1.780,15.400,130.940
941,43084.106000,227.501,48.188,62.464,490.960,-111.479,177.146,64.220,-53.600,268.940
942,43084.144000,225.536,37.145,49.152,493.585,-127.035,175.824,20.220,-31.600,432.940
943,43084.181000,242.242,35.137,58.368,485.905,-135.341,177.625,-18.780,109.400,603.940
944,43084.228000,269.758,31.122,74.752,477.120,-155.531,181.161,166.220,138.400,777.940
945,43084.263000,251.086,24.094,57.344,473.184,-167.354,187.866,230.220,42.400,751.940
946,43084.303000,214.726,18.071,58.368,464.544,-176.608,188.651,441.220,25.400,738.940
947,43084.323000,217.674,35.137,69.632,461.397,-199.490,191.143,463.220,96.400,618.940
948,43084.366000,238.311,27.106,81.920,453.897,-195.692,203.148,368.220,185.400,534.940
949,43084.403000,241.259,22.086,60.416,447.122,-207.552,209.848,554.220,52.400,468.940
950,43084.442000,259.931,23.090,44.032,442.436,-204.769,214.874,510.220,-7.600,416.940
951,43084.488000,252.069,29.114,46.080,441.468,-206.574,216.823,461.220,-136.600,323.940
952,43084.522000,249.121,28.110,37.888,439.489,-212.993,217.678,318.220,-283.600,240.940
953,43084.542000,225.536,34.133,31.744,440.452,-211.246,212.744,105.220,-248.600,96.940
954,43084.583000,238.311,45.176,34.816,445.213,-208.532,207.835,-153.780,-141.600,-87.060
955,43084.627000,251.086,51.200,38.912,443.271,-211.442,200.808,-580.780,-18.600,-196.060
956,43084.663000,265.827,29.114,45.056,446.038,-216.103,194.745,-659.780,-0.600,-160.060
957,43084.702000,273.689,0.000,40.960,448.862,-216.241,185.795,-817.780,-52.600,-86.060
958,43084.749000,232.415,-12.047,41.984,448.667,-229.301,173.581,-713.780,-132.600,-47.060
959,43084.763000,216.691,-3.012,32.768,452.448,-228.530,163.657,-701.780,-209.600,-53.060
960,43084.803000,259.931,-8.031,57.344,454.235,-235.132,152.578,-613.780,-21.600,-85.060
961,43084.844000,261.896,-9.035,72.704,455.152,-236.991,150.550,-499.780,49.400,12.940
962,43084.884000,255.017,-19.075,54.272,453.257,-237.055,148.557,-357.780,-11.600,92.940
963,43084.927000,243.225,-6.024,55.296,451.232,-246.320,144.378,-232.780,132.400,16.940
964,43084.968000,225.536,2.008,57.344,447.424,-248.182,145.327,-205.780,137.400,10.940
965,43085.2000,229.466,-2.008,40.960,450.302,-245.377,146.386,-100.780,94.400,22.940
966,43085.22000,265.827,-5.020,31.744,452.169,-247.184,146.350,-114.780,162.400,17.940
967,43085.62000,270.741,-7.027,35.840,442.686,-249.083,149.280,-214.780,147.400,-2.060
968,43085.103000,232.415,-5.020,46.080,446.438,-250.963,144.272,-317.780,-12.600,-23.060
969,43085.143000,239.294,-5.020,62.464,450.108,-259.197,142.113,-418.780,124.400,-48.060
970,43085.183000,242.242,-19.075,71.680,444.487,-254.750,139.215,-348.780,113.400,40.940
971,43085.232000,260.914,-36.141,70.656,442.534,-259.336,140.110,-159.780,174.400,134.940
972,43085.248000,249.121,-22.086,72.704,440.564,-264.878,138.994,24.220,118.400,157.940
973,43085.292000,234.380,-23.090,69.632,440.624,-261.096,145.042,137.220,7.400,179.940
974,43085.322000,211.777,-25.098,59.392,436.758,-267.481,148.879,270.220,-38.600,231.940
975,43085.362000,214.726,-30.118,53.248,432.059,-265.633,152.890,419.220,-89.600,296.940
976,43085.402000,218.656,-37.145,51.200,432.015,-269.219,156.792,569.220,-114.600,417.940
977,43085.442000,256.983,-35.137,56.320,423.446,-273.795,162.650,731.220,11.400,451.940
978,43085.463000,269.758,-14.055,82.944,414.874,-279.171,174.459,763.220,109.400,464.940
979,43085.503000,269.758,-13.051,73.728,409.137,-285.327,191.228,790.220,26.400,454.940
980,43085.543000,254.035,-6.024,55.296,403.524,-281.562,200.252,736.220,79.400,393.940
981,43085.583000,253.052,3.012,61.440,399.841,-275.802,216.283,608.220,192.400,94.940
982,43085.623000,253.052,26.102,61.440,399.924,-270.208,221.375,459.220,126.400,-140.060
983,43085.663000,238.311,24.094,47.104,401.848,-268.273,225.398,317.220,42.400,-296.060
984,43085.703000,252.069,15.059,38.912,409.613,-254.353,229.684,43.220,-89.600,-460.060
985,43085.723000,286.464,26.102,35.840,419.230,-242.416,224.979,-104.780,-123.600,-598.060
986,43085.764000,297.274,14.055,63.488,424.084,-232.451,216.247,-348.780,-160.600,-658.060
987,43085.804000,281.551,8.031,65.536,433.600,-227.863,210.391,-499.780,-342.600,-641.060
988,43085.844000,240.276,-14.055,57.344,446.902,-221.665,190.650,-689.780,-388.600,-529.060
989,43085.884000,226.518,-12.047,63.488,452.544,-222.779,176.709,-601.780,-214.600,-518.060
990,43085.933000,243.225,0.000,69.632,459.307,-211.835,169.990,-556.780,-112.600,-461.060
991,43085.948000,234.380,8.031,64.512,462.123,-212.831,164.005,-416.780,-155.600,-409.060
992,43085.982000,225.536,12.047,54.272,470.705,-207.338,158.167,-442.780,-173.600,-395.060
993,43086.22000,217.674,9.035,65.536,475.556,-197.413,147.444,-452.780,-161.600,-340.060
994,43086.66000,225.536,8.031,60.416,481.210,-198.391,140.469,-323.780,-154.600,-216.060
995,43086.108000,231.432,2.008,56.320,477.391,-200.371,135.448,-43.780,-110.600,-58.060
996,43086.146000,242.242,-14.055,57.344,477.459,-195.731,138.531,140.220,-41.600,84.940
997,43086.168000,263.862,-3.012,61.440,477.498,-192.964,139.585,326.220,88.400,107.940
998,43086.212000,267.793,20.078,59.392,480.272,-198.306,145.443,394.220,12.400,57.940
999,43086.248000,250.104,22.086,44.032,474.672,-192.845,147.540,292.220,-55.600,22.940
1000,43086.286000,241.259,23.090,32.768,475.613,-193.671,151.502,265.220,-47.600,-8.060
1001,43086.328000,220.622,15.059,39.936,474.645,-195.476,153.452,333.220,-16.600,80.940
1002,43086.377000,241.259,13.051,37.888,474.757,-187.231,153.627,396.220,-24.600,147.940
1003,43086.384000,250.104,23.090,46.080,471.944,-186.196,161.602,432.220,163.400,115.940
1004,43086.423000,258.948,33.129,64.512,474.818,-184.209,167.617,389.220,216.400,34.940
1005,43086.471000,257.965,48.188,63.488,472.937,-184.098,174.579,306.220,130.400,-108.060
1006,43086.504000,251.086,45.176,50.176,469.260,-176.721,179.704,247.220,96.400,-137.060
1007,43086.544000,232.415,34.133,41.984,471.231,-171.160,181.814,225.220,52.400,-102.060
1008,43086.588000,220.622,35.137,33.792,476.937,-169.214,183.853,166.220,10.400,-63.060
1009,43086.623000,236.345,39.153,31.744,474.153,-165.528,186.911,132.220,0.400,-63.060
1010,43086.643000,263.862,44.173,30.720,477.003,-164.594,185.941,81.220,-73.600,-41.060
1011,43086.689000,267.793,31.122,28.672,475.043,-169.259,182.855,83.220,-51.600,-20.060
1012,43086.728000,247.155,37.145,43.008,475.070,-167.407,183.889,115.220,10.400,10.940
1013,43086.764000,231.432,29.114,65.536,477.958,-164.484,190.918,135.220,158.400,86.940
1014,43086.803000,236.345,37.145,60.416,476.022,-168.096,194.817,126.220,184.400,81.940
1015,43086.844000,241.259,36.141,51.200,472.311,-163.428,201.873,124.220,189.400,97.940
1016,43086.864000,255.017,37.145,50.176,469.327,-174.401,204.619,144.220,268.400,71.940
1017,43086.904000,248.138,42.165,56.320,466.654,-163.250,214.799,133.220,266.400,96.940
1018,43086.944000,235.363,38.149,67.584,460.835,-174.221,219.530,223.220,271.400,138.940
1019,43086.986000,234.380,40.157,74.752,456.179,-169.546,227.580,223.220,269.400,142.940
1020,43087.38000,237.328,37.145,71.680,454.300,-169.415,235.537,234.220,225.400,154.940
1021,43087.69000,238.311,38.149,69.632,453.354,-170.188,243.476,203.220,137.400,181.940
1022,43087.89000,243.225,13.051,70.656,444.843,-170.242,246.446,214.220,183.400,199.940
1023,43087.128000,244.207,10.039,68.608,442.003,-171.059,253.387,346.220,161.400,228.940
1024,43087.166000,244.207,9.035,63.488,439.199,-169.147,259.391,568.220,133.400,216.940
1025,43087.206000,241.259,36.141,65.536,434.417,-173.654,266.251,580.220,120.400,188.940
1026,43087.246000,243.225,30.118,72.704,429.792,-166.309,270.379,336.220,102.400,176.940
1027,43087.288000,243.225,23.090,78.848,430.784,-163.450,275.414,106.220,107.400,141.940
1028,43087.323000,240.276,27.106,76.800,427.850,-170.758,278.238,-16.780,54.400,133.940
1029,43087.346000,237.328,16.063,77.824,423.101,-171.796,275.225,-202.780,48.400,124.940
1030,43087.387000,235.363,11.043,80.896,424.933,-176.332,276.126,-280.780,23.400,81.940
1031,43087.431000,236.345,10.039,74.752,421.998,-182.880,271.009,-263.780,7.400,45.940
1032,43087.467000,236.345,14.055,76.800,422.842,-190.216,269.860,-282.780,-20.600,0.940
1033,43087.518000,239.294,13.051,75.776,426.585,-192.973,266.823,-292.780,-61.600,-30.060
1034,43087.546000,240.276,8.031,78.848,425.552,-198.619,259.739,-290.780,-63.600,-66.060
1035,43087.567000,241.259,13.051,71.680,426.558,-194.065,257.848,-275.780,-90.600,-95.060
