Sample, Time, ACCX, ACCY, ACCZ, MAGX, MAGY, MAGZ, GYRX, GYRY, GYRZ
0,43488.763000,245.190,9.035,57.344,436.158,-452.904,171.787,-0.780,8.400,-4.060
1,43488.801000,246.173,11.043,58.368,437.434,-220.309,172.761,3.220,3.400,-6.060
2,43488.842000,245.190,10.039,57.344,436.395,-226.793,169.638,0.220,-0.600,-5.060
3,43488.882000,247.155,9.035,60.416,437.409,-222.141,172.722,0.220,-4.600,-8.060
4,43488.925000,245.190,11.043,58.368,440.277,-220.233,174.756,18.220,-9.600,-10.060
5,43488.967000,246.173,11.043,56.320,439.343,-219.329,174.774,25.220,-16.600,2.940
6,43488.982000,245.190,10.039,57.344,438.379,-220.316,171.768,37.220,-18.600,-2.060
7,43489.20000,246.173,11.043,58.368,441.210,-220.376,166.797,31.220,-8.600,-9.060
8,43489.60000,243.225,11.043,56.320,443.105,-221.092,175.737,31.220,-11.600,-13.060
9,43489.100000,244.207,8.031,56.320,439.288,-223.052,171.711,-3.780,-13.600,-6.060
10,43489.146000,244.207,10.039,59.392,441.180,-223.027,171.714,-10.780,-3.600,1.940
11,43489.186000,242.242,10.039,58.368,438.318,-224.877,172.665,-17.780,-4.600,-0.060
12,43489.206000,244.207,11.043,59.392,439.274,-223.988,170.696,-18.780,-4.600,5.940
13,43489.242000,246.173,8.031,57.344,441.205,-221.195,171.753,-3.780,-14.600,15.940
14,43489.298000,247.155,8.031,55.296,439.250,-225.800,171.652,4.220,-8.600,19.940
15,43489.320000,247.155,8.031,55.296,442.152,-221.182,171.755,1.220,-25.600,19.940
16,43489.361000,245.190,10.039,54.272,442.052,-228.511,171.599,1.220,-44.600,8.940
17,43489.402000,246.173,10.039,52.224,438.374,-220.375,168.782,3.220,-49.600,-4.060
18,43489.445000,246.173,10.039,52.224,437.340,-226.800,168.644,2.220,-41.600,-1.060
19,43489.462000,247.155,9.035,54.272,440.212,-224.073,165.723,-16.780,-28.600,0.940
20,43489.506000,245.190,7.027,56.320,439.295,-222.194,168.745,-35.780,10.400,11.940
21,43489.542000,244.207,6.024,54.272,438.319,-224.098,165.719,-68.780,10.400,11.940
22,43489.586000,242.242,6.024,54.272,437.388,-223.155,167.727,-70.780,19.400,5.940
23,43489.636000,245.190,4.016,51.200,434.459,-229.645,165.595,-64.780,-44.600,2.940
24,43489.662000,243.225,1.004,56.320,438.303,-225.053,163.710,-32.780,-75.600,20.940
25,43489.682000,247.155,4.016,55.296,438.221,-230.628,159.612,20.220,-125.600,18.940
26,43489.722000,247.155,4.016,56.320,440.200,-224.209,158.757,33.220,-132.600,15.940
27,43489.763000,245.190,4.016,53.248,441.068,-229.733,156.652,60.220,-138.600,1.940
28,43489.805000,247.155,8.031,47.104,440.106,-230.700,154.640,86.220,-116.600,-21.060
29,43489.847000,247.155,7.027,46.080,445.873,-224.193,155.782,83.220,-90.600,-16.060
30,43489.887000,247.155,4.016,43.008,438.246,-228.035,151.710,11.220,-37.600,-25.060
31,43489.907000,249.121,8.031,40.960,445.891,-222.439,151.841,-17.780,-27.600,-37.060
32,43489.947000,250.104,7.027,49.152,443.936,-227.044,151.740,-3.780,6.400,-17.060
33,43489.987000,249.121,8.031,52.224,444.898,-226.077,153.751,58.220,-12.600,-5.060
34,43490.26000,249.121,7.027,51.200,446.878,-219.639,153.891,70.220,-16.600,-2.060
35,43490.61000,247.155,9.035,52.224,444.912,-225.141,154.766,68.220,-11.600,-10.060
36,43490.102000,248.138,9.035,46.080,445.957,-217.819,153.928,48.220,-3.600,-10.060
37,43490.142000,244.207,13.051,41.984,445.834,-226.961,154.728,45.220,27.400,-23.060
38,43490.162000,248.138,6.024,41.984,445.923,-220.528,155.860,20.220,76.400,-3.060
39,43490.203000,244.207,8.031,43.008,449.640,-225.897,159.730,-42.780,111.400,-14.060
40,43490.245000,246.173,9.035,48.128,446.874,-220.457,158.847,-55.780,113.400,-6.060
41,43490.287000,247.155,9.035,49.152,441.190,-221.370,162.798,-81.780,90.400,-8.060
42,43490.327000,248.138,9.035,55.296,444.054,-219.501,162.842,-72.780,41.400,-18.060
43,43490.373000,251.086,10.039,59.392,446.213,8.506,162.724,-10.780,-41.600,-15.060
44,43490.381000,250.104,10.039,57.344,443.055,-223.217,160.772,12.220,-76.600,-14.060
45,43490.422000,246.173,9.035,54.272,444.992,-219.586,157.868,42.220,-85.600,-3.060
46,43490.466000,245.190,11.043,49.152,445.876,-224.154,157.772,58.220,-56.600,-5.060
47,43490.507000,244.207,11.043,47.104,447.856,-217.716,157.912,60.220,-29.600,-2.060
48,43490.541000,246.173,12.047,44.032,445.936,-220.372,163.820,40.220,18.400,11.940
49,43490.581000,246.173,10.039,44.032,444.001,-223.204,160.773,-13.780,59.400,17.940
50,43490.607000,245.190,9.035,43.008,444.065,-218.604,161.866,-71.780,72.400,6.940
51,43490.647000,250.104,8.031,49.152,444.901,-226.817,162.687,-101.780,70.400,2.940
52,43490.686000,254.035,9.035,56.320,445.004,-219.449,164.833,-82.780,47.400,-5.060
53,43490.728000,249.121,7.027,59.392,443.998,-223.243,158.783,-31.780,1.400,14.940
54,43490.762000,247.155,8.031,58.368,442.060,-226.874,161.687,56.220,-48.600,-7.060
55,43490.802000,244.207,10.039,54.272,443.064,-222.340,158.801,94.220,-62.600,-11.060
56,43490.843000,243.225,12.047,50.176,445.011,-218.591,161.868,113.220,-47.600,-25.060
57,43490.863000,245.190,13.051,49.152,438.400,-217.763,161.876,95.220,-18.600,-22.060
58,43490.903000,244.207,13.051,46.080,443.150,-216.706,165.884,93.220,11.400,-8.060
59,43490.943000,243.225,14.055,45.056,442.162,-219.526,162.838,38.220,57.400,13.940
60,43490.983000,245.190,9.035,46.080,443.100,-220.371,165.806,-29.780,70.400,15.940
61,43491.23000,244.207,9.035,51.200,444.086,-217.590,166.861,-48.780,62.400,4.940
62,43491.63000,249.121,10.039,52.224,443.075,-222.203,165.767,-47.780,24.400,1.940
63,43491.83000,249.121,10.039,56.320,444.084,-217.610,165.866,-11.780,-11.600,1.940
64,43491.125000,249.121,9.035,57.344,442.206,-216.699,166.877,24.220,-46.600,-5.060
65,43491.168000,249.121,9.035,55.296,445.861,-225.869,163.703,52.220,-56.600,-16.060
66,43491.208000,247.155,10.039,55.296,446.948,-215.740,165.910,84.220,-49.600,-22.060
67,43491.248000,245.190,13.051,47.104,445.979,-217.565,166.864,103.220,-17.600,-36.060
68,43491.282000,245.190,13.051,51.200,445.068,-214.849,165.926,72.220,15.400,-30.060
69,43491.302000,244.207,14.055,51.200,446.055,-212.049,167.976,3.220,47.400,-24.060
70,43491.343000,244.207,14.055,49.152,449.805,-214.728,168.920,-34.780,55.400,-19.060
71,43491.383000,247.155,12.047,48.128,446.969,-214.726,170.905,-63.780,53.400,-12.060
72,43491.423000,245.190,12.047,54.272,445.957,-219.358,168.815,-54.780,20.400,-12.060
73,43491.465000,247.155,11.043,56.320,443.120,-219.376,169.805,-34.780,-1.600,-4.060
74,43491.515000,247.155,14.055,52.224,447.910,-214.772,167.921,-22.780,-57.600,-9.060
75,43491.548000,247.155,14.055,54.272,447.945,-212.063,165.990,-13.780,-58.600,-10.060
76,43491.568000,245.190,12.047,56.320,444.131,-213.984,163.954,-8.780,-48.600,-7.060
77,43491.615000,245.190,13.051,55.296,445.056,-215.765,165.907,6.220,-48.600,-7.060
78,43491.642000,245.190,13.051,50.176,447.875,-216.722,161.912,15.220,-23.600,-1.060
79,43491.682000,246.173,13.051,51.200,446.061,-211.211,164.016,6.220,9.400,5.940
80,43491.723000,248.138,12.047,52.224,444.140,-213.107,161.983,-9.780,44.400,9.940
81,43491.763000,243.225,11.043,51.200,442.160,-219.545,161.843,-51.780,42.400,4.940
82,43491.783000,245.190,10.039,51.200,444.123,-214.842,166.919,-85.780,55.400,4.940
83,43491.823000,244.207,11.043,50.176,445.029,-217.617,164.872,-96.780,32.400,-11.060
84,43491.865000,247.155,5.020,53.248,442.179,-218.551,165.843,-57.780,0.400,20.940
85,43491.908000,247.155,8.031,55.296,446.932,-216.695,163.900,10.220,-37.600,-6.060
86,43491.942000,248.138,11.043,58.368,444.960,-222.276,160.795,35.220,-64.600,-12.060
87,43491.982000,248.138,11.043,55.296,442.232,-214.087,159.970,56.220,-73.600,-14.060
88,43492.3000,246.173,14.055,54.272,444.038,-220.456,160.832,69.220,-60.600,-11.060
89,43492.52000,245.190,14.055,48.128,445.992,-215.870,159.938,81.220,-45.600,-3.060
90,43492.95000,245.190,12.047,46.080,446.034,-213.063,162.982,57.220,3.400,9.940
91,43492.122000,242.242,13.051,50.176,446.931,-216.715,162.905,31.220,16.400,2.940
92,43492.163000,246.173,14.055,49.152,446.011,-214.875,163.938,-12.780,37.400,-1.060
93,43492.203000,245.190,13.051,49.152,447.877,-216.702,162.907,-56.780,27.400,-2.060
94,43492.243000,247.155,13.051,50.176,445.961,-218.540,163.860,-67.780,3.400,15.940
95,43492.263000,247.155,10.039,52.224,447.865,-217.618,162.887,-35.780,-46.600,18.940
96,43492.304000,248.138,10.039,53.248,443.119,-218.616,161.864,-16.780,-43.600,15.940
97,43492.345000,247.155,12.047,53.248,446.771,-227.825,156.701,12.220,-56.600,7.940
98,43492.385000,247.155,11.043,54.272,446.937,-215.877,158.944,32.220,-38.600,1.940
99,43492.424000,246.173,10.039,50.176,445.901,-222.322,157.811,27.220,-19.600,-3.060
100,43492.465000,244.207,9.035,51.200,445.889,-223.238,157.792,15.220,3.400,3.940
101,43492.493000,245.190,12.047,47.104,448.832,-215.813,160.938,-3.780,-5.600,-6.060
102,43492.530000,246.173,10.039,45.056,445.937,-219.593,156.875,-48.780,-6.600,-12.060
103,43492.570000,247.155,12.047,46.080,448.827,-215.871,157.953,-62.780,-17.600,-14.060
104,43492.603000,249.121,11.043,50.176,445.903,-222.302,158.806,-54.780,-27.600,-3.060
105,43492.643000,249.121,10.039,49.152,448.724,-223.239,155.807,-26.780,-31.600,-2.060
106,43492.685000,248.138,9.035,50.176,446.877,-219.658,152.896,4.220,-24.600,6.940
107,43492.712000,248.138,9.035,53.248,445.973,-216.864,155.938,29.220,-28.600,4.940
108,43492.752000,246.173,12.047,49.152,445.025,-216.896,154.941,32.220,2.400,-1.060
109,43492.798000,246.173,11.043,49.152,447.853,-217.755,155.922,33.220,3.400,5.940
110,43492.830000,247.155,9.035,47.104,441.230,-217.823,156.905,39.220,-5.600,24.940
111,43492.870000,246.173,10.039,48.128,441.232,-217.803,157.900,41.220,-4.600,35.940
112,43492.906000,247.155,10.039,48.128,444.975,-220.560,154.863,17.220,-9.600,38.940
113,43492.926000,246.173,13.051,46.080,442.073,-225.179,154.761,-20.780,-32.600,32.940
114,43492.966000,247.155,10.039,43.008,445.919,-220.567,153.870,-54.780,-40.600,17.940
115,43493.6000,250.104,7.027,45.056,442.054,-226.173,150.761,-50.780,-40.600,28.940
116,43493.46000,250.104,7.027,47.104,442.932,-231.579,154.626,-43.780,-22.600,42.940
117,43493.88000,252.069,6.024,50.176,443.041,-223.373,152.811,-32.780,-8.600,36.940
118,43493.130000,251.086,6.024,50.176,445.761,-231.659,148.660,-3.780,0.400,29.940
119,43493.170000,246.173,6.024,48.128,442.093,-223.405,151.815,16.220,19.400,8.940
120,43493.190000,246.173,7.027,46.080,445.782,-230.645,153.655,24.220,36.400,5.940
121,43493.226000,247.155,7.027,44.032,446.780,-226.948,154.730,35.220,58.400,4.940
122,43493.270000,248.138,4.016,46.080,443.966,-225.154,154.764,38.220,79.400,10.940
123,43493.310000,245.190,5.020,48.128,440.175,-226.042,158.718,-6.780,109.400,5.940
124,43493.349000,245.190,5.020,47.104,440.091,-232.415,160.572,-78.780,127.400,-19.060
125,43493.388000,246.173,7.027,48.128,440.192,-225.067,161.723,-76.780,99.400,-22.060
126,43493.410000,247.155,5.020,55.296,439.251,-225.021,164.706,-70.780,75.400,-18.060
127,43493.448000,247.155,6.024,58.368,440.158,-227.776,163.654,-38.780,27.400,-15.060
128,43493.490000,247.155,8.031,60.416,441.117,-226.848,163.676,-23.780,-6.600,-14.060
129,43493.523000,247.155,6.024,60.416,442.013,-230.500,163.599,16.220,-29.600,-26.060
130,43493.565000,245.190,7.027,56.320,444.976,-221.320,162.804,29.220,-40.600,-39.060
131,43493.605000,247.155,11.043,52.224,440.202,-224.190,159.752,-6.780,-42.600,-31.060
132,43493.625000,244.207,12.047,51.200,443.033,-225.010,162.723,-6.780,-21.600,-16.060
133,43493.673000,243.225,10.039,50.176,442.108,-223.229,160.770,-67.780,-14.600,-11.060
134,43493.710000,244.207,11.043,48.128,443.888,-231.449,160.598,-94.780,36.400,-0.060
135,43493.747000,246.173,9.035,53.248,443.053,-223.236,159.777,-99.780,41.400,-15.060
136,43493.787000,250.104,8.031,57.344,438.306,-224.254,157.759,-66.780,36.400,-16.060
137,43493.827000,249.121,8.031,60.416,442.092,-224.184,158.761,-20.780,3.400,-14.060
138,43493.867000,247.155,8.031,59.392,437.372,-223.350,157.777,5.220,-9.600,-8.060
139,43493.887000,245.190,8.031,57.344,444.038,-220.456,160.832,24.220,-20.600,-12.060
140,43493.927000,244.207,8.031,52.224,440.178,-226.003,160.708,30.220,-15.600,-16.060
141,43493.967000,244.207,10.039,51.200,445.831,-227.760,160.679,21.220,-1.600,-13.060
142,43494.7000,244.207,9.035,52.224,444.981,-220.482,158.844,-15.780,30.400,0.940
143,43494.61000,246.173,9.035,50.176,443.983,-224.179,157.769,-66.780,35.400,-0.060
144,43494.87000,245.190,9.035,50.176,443.998,-223.243,158.783,-81.780,34.400,-5.060
145,43494.107000,245.190,9.035,56.320,443.921,-228.759,157.671,-91.780,22.400,-3.060
146,43494.147000,248.138,6.024,57.344,442.925,-232.437,157.591,-72.780,-13.600,5.940
147,43494.187000,251.086,7.027,59.392,446.796,-225.993,156.740,-45.780,-43.600,1.940
148,43494.227000,249.121,4.016,57.344,444.825,-231.554,154.629,-18.780,-54.600,11.940
149,43494.277000,246.173,6.024,56.320,443.966,-225.154,154.764,21.220,-59.600,-5.060
150,43494.313000,243.225,9.035,51.200,445.819,-227.896,153.714,43.220,-35.600,-21.060
151,43494.336000,243.225,8.031,51.200,448.086,7.537,158.728,2.220,-17.600,-22.060
152,43494.371000,244.207,8.031,53.248,445.866,-224.271,151.802,-21.780,-1.600,-13.060
153,43494.407000,242.242,8.031,50.176,447.771,-223.330,151.825,-27.780,-23.600,-12.060
154,43494.447000,246.173,8.031,52.224,446.716,-231.548,153.637,-40.780,-26.600,1.940
155,43494.487000,249.121,8.031,54.272,446.812,-224.258,151.803,-29.780,-36.600,16.940
156,43494.527000,248.138,7.027,53.248,442.922,-231.696,148.656,-25.780,-47.600,16.940
157,43494.573000,246.173,8.031,54.272,444.813,-231.691,147.664,-20.780,-45.600,4.940
158,43494.587000,249.121,12.047,51.200,445.806,-228.053,145.753,-6.780,-49.600,3.940
159,43494.627000,246.173,11.043,50.176,445.717,-234.485,144.622,7.220,-59.600,2.940
160,43494.667000,248.138,12.047,48.128,449.625,-225.293,143.828,16.220,-53.600,0.940
161,43494.711000,250.104,13.051,49.152,444.786,-233.542,146.630,14.220,-36.600,17.940
162,43494.757000,247.155,11.043,48.128,442.900,-232.729,142.666,52.220,-15.600,44.940
163,43494.795000,237.328,11.043,37.888,443.961,-225.212,151.779,163.220,16.400,70.940
164,43494.807000,229.466,3.012,37.888,443.859,-232.561,150.628,249.220,102.400,127.940
165,43494.847000,220.622,1.004,44.032,437.256,-231.634,155.611,178.220,165.400,112.940
166,43494.887000,211.777,0.000,50.176,436.320,-232.290,169.520,149.220,260.400,38.940
167,43494.927000,232.415,1.004,78.848,437.279,-231.361,169.542,-17.780,287.400,-36.060
168,43494.972000,260.914,8.031,68.608,433.533,-228.643,170.589,65.220,186.400,-160.060
169,43495.6000,309.067,-1.004,73.728,434.580,-222.062,178.687,37.220,225.400,-115.060
170,43495.26000,303.171,-2.008,72.704,427.936,-223.923,181.622,134.220,103.400,-69.060
171,43495.66000,271.724,6.024,68.608,431.841,-215.550,185.784,230.220,10.400,-96.060
172,43495.106000,234.380,18.071,60.416,435.684,-211.738,190.844,278.220,-18.600,-97.060
173,43495.146000,213.743,16.063,53.248,437.491,-218.106,191.706,310.220,-30.600,-83.060
174,43495.192000,202.933,23.090,52.224,439.590,-203.345,196.002,269.220,-36.600,-53.060
175,43495.232000,199.002,11.043,58.368,438.556,-209.770,195.864,145.220,-30.600,26.940
176,43495.266000,213.743,28.110,61.440,438.622,-205.151,197.951,114.220,5.400,77.940
177,43495.287000,238.311,30.118,61.440,436.653,-210.692,196.836,130.220,41.400,84.940
178,43495.327000,301.205,22.086,52.224,437.551,-214.324,197.754,55.220,15.400,108.940
179,43495.376000,297.274,33.129,37.888,429.979,-214.444,196.746,-6.780,-103.600,61.940
180,43495.408000,258.948,18.071,47.104,432.808,-214.523,190.781,-262.780,-139.600,44.940
181,43495.448000,259.931,-19.075,89.088,432.717,-220.975,188.654,-556.780,112.400,71.940
182,43495.488000,249.121,-10.039,88.064,435.837,7.999,190.548,-334.780,51.400,88.940
183,43495.508000,233.397,-10.039,82.944,430.753,-225.679,183.578,-253.780,12.400,49.940
184,43495.548000,209.812,-13.051,73.728,429.777,-227.582,180.552,-107.780,-36.600,-16.060
185,43495.592000,215.708,-11.043,52.224,432.572,-230.371,176.518,18.220,-189.600,-3.060
186,43495.632000,249.121,-15.059,37.888,433.372,-240.534,171.330,51.220,-163.600,183.940
187,43495.697000,251.086,-1.004,27.648,428.703,-236.015,171.419,30.220,-249.600,214.940
188,43495.734000,242.242,-30.118,34.816,430.493,-242.579,162.330,-345.780,-288.600,316.940
189,43495.742000,226.518,-49.192,45.056,425.620,-251.998,152.176,-626.780,-229.600,305.940
190,43495.768000,249.121,-65.255,49.152,422.505,-270.670,135.860,-840.780,-195.600,269.940
191,43495.808000,254.035,-56.220,51.200,425.284,-273.635,122.871,-630.780,-218.600,150.940
192,43495.848000,242.242,-42.165,44.032,427.050,-281.251,106.797,-739.780,-44.600,150.940
193,43495.888000,267.793,-65.255,59.392,422.267,-284.998,105.716,-673.780,109.400,191.940
194,43495.928000,216.691,-71.278,40.960,415.437,-299.042,94.466,-443.780,71.400,301.940
195,43495.968000,223.570,-51.200,53.248,416.285,-306.339,95.306,-424.780,233.400,234.940
196,43495.988000,313.981,2.008,104.448,415.391,-303.428,104.319,-216.780,583.400,-63.060
197,43496.28000,265.827,-30.118,77.824,416.405,-298.776,107.403,-117.780,115.400,-78.060
198,43496.72000,238.311,-23.090,64.512,418.307,-297.874,105.436,-45.780,131.400,-120.060
199,43496.106000,194.088,9.035,88.064,426.877,-294.058,107.519,-24.780,121.400,-349.060
200,43496.146000,220.622,35.137,82.944,430.808,-283.833,112.716,-60.780,143.400,-580.060
201,43496.186000,211.777,31.122,60.416,445.143,-272.769,107.005,-78.780,-205.600,-485.060
202,43496.213000,238.311,25.098,44.032,449.045,-263.655,102.231,-183.780,-96.600,-409.060
203,43496.251000,282.534,26.102,70.656,457.516,-266.388,97.212,-184.780,-138.600,-317.060
204,43496.292000,271.724,-1.004,54.272,454.859,-252.742,94.515,7.220,-185.600,-70.060
205,43496.328000,257.965,14.055,58.368,456.608,-262.873,90.323,80.220,-96.600,19.940
206,43496.373000,229.466,3.012,66.560,460.525,-253.583,94.505,169.220,105.400,94.940
207,43496.413000,212.760,-17.067,66.560,458.570,-258.949,102.345,212.220,307.400,34.940
208,43496.427000,211.777,12.047,64.512,456.763,-254.120,116.370,174.220,383.400,-161.060
209,43496.476000,275.655,9.035,77.824,457.865,-243.056,119.591,325.220,124.400,-144.060
210,43496.508000,249.121,23.090,65.536,459.844,-237.397,126.677,485.220,-97.600,-76.060
211,43496.548000,276.637,2.008,59.392,461.697,-240.920,132.573,470.220,-159.600,-78.060
212,43496.588000,252.069,43.169,105.472,459.009,-229.944,133.797,634.220,11.400,-54.060
213,43496.643000,233.397,37.145,87.040,460.965,-226.098,141.839,568.220,-110.600,-85.060
214,43496.673000,215.708,19.075,59.392,464.799,-222.403,140.929,566.220,-124.600,-72.060
215,43496.693000,184.261,29.114,66.560,465.843,-215.861,147.037,433.220,-116.600,-107.060
216,43496.738000,223.570,22.086,13.312,467.800,-211.236,148.133,581.220,-189.600,-107.060
217,43496.773000,298.257,47.184,-12.288,472.692,-199.283,147.400,718.220,-295.600,-73.060
218,43496.813000,308.084,66.259,46.080,465.105,-201.118,152.323,661.220,-23.600,62.940
219,43496.853000,301.205,61.239,64.512,466.951,-204.718,154.238,131.220,23.400,192.940
220,43496.893000,275.655,66.259,40.960,467.886,-205.602,155.216,136.220,-125.600,200.940
221,43496.913000,251.086,53.208,33.792,461.170,-212.161,152.082,-6.780,27.400,181.940
222,43496.947000,218.656,34.133,37.888,460.241,-211.199,155.085,35.220,10.400,150.940
223,43496.987000,205.881,29.114,28.672,456.309,-222.204,156.834,38.220,-20.600,167.940
224,43497.27000,218.656,30.118,23.552,458.147,-226.662,161.715,59.220,20.400,131.940
225,43497.67000,223.570,23.090,21.504,452.450,-227.731,157.706,15.220,-59.600,23.940
226,43497.108000,231.432,24.094,24.576,453.545,-216.744,156.947,50.220,-42.600,-106.060
227,43497.133000,241.259,6.024,30.720,449.840,-211.239,160.042,170.220,-8.600,-352.060
228,43497.173000,284.499,15.059,32.768,455.653,-201.885,166.218,149.220,112.400,-490.060
229,43497.213000,278.603,-15.059,61.440,459.493,-198.112,169.287,90.220,293.400,-425.060
230,43497.253000,292.361,13.051,64.512,458.713,-186.936,179.471,332.220,329.400,-418.060
231,43497.293000,285.482,32.125,74.752,454.187,-173.042,190.701,133.220,455.400,-391.060
232,43497.333000,264.845,13.051,88.064,453.261,-172.820,202.640,-170.780,401.400,-280.060
233,43497.369000,218.656,35.137,86.016,453.325,-168.220,203.732,-301.780,277.400,-231.060
234,43497.390000,185.244,5.020,78.848,450.522,-165.529,202.791,-347.780,57.400,-70.060
235,43497.433000,220.622,-2.008,101.376,449.413,-177.451,202.535,-475.780,225.400,191.940
236,43497.470000,219.639,-18.071,106.496,442.669,-186.641,205.314,-422.780,253.400,369.940
237,43497.513000,224.553,-20.078,97.280,432.991,-203.140,210.916,-222.780,304.400,489.940
238,43497.548000,231.432,-31.122,69.632,425.345,-209.516,217.732,269.220,325.400,599.940
239,43497.598000,240.276,-18.071,65.536,417.704,-215.054,220.586,233.220,149.400,568.940
240,43497.613000,266.810,0.000,87.040,408.074,-228.687,232.218,380.220,361.400,362.940
241,43497.651000,273.689,29.114,96.256,399.674,-221.275,242.309,123.220,377.400,129.940
242,43497.691000,217.674,23.090,78.848,401.564,-222.049,248.263,-78.780,361.400,-80.060
243,43497.731000,193.106,49.192,78.848,397.865,-216.466,255.339,-339.780,483.400,-322.060
244,43497.768000,223.570,59.231,81.920,393.982,-223.825,256.171,-683.780,516.400,-396.060
245,43497.816000,235.363,38.149,100.352,393.937,-226.652,252.133,-1017.780,376.400,-118.060
246,43497.828000,252.069,-34.133,102.400,385.241,-239.649,248.859,-627.780,491.400,69.940
247,43497.868000,224.553,-25.098,114.688,377.560,-248.734,257.606,-349.780,567.400,50.940
248,43497.930000,193.106,-8.031,123.904,370.008,-248.620,268.539,-54.780,603.400,-40.060
249,43497.951000,192.123,3.012,115.712,368.296,-236.520,279.735,279.220,381.400,-76.060
250,43497.998000,198.019,-11.043,116.736,368.299,-236.481,281.725,72.220,199.400,-201.060
251,43498.31000,187.209,-9.035,128.000,369.280,-233.760,279.795,-102.780,32.400,-259.060
252,43498.71000,267.793,10.039,183.296,369.287,-233.681,283.775,-246.780,277.400,-327.060
253,43498.91000,241.259,28.110,164.864,366.489,-230.932,285.819,-59.780,108.400,-208.060
254,43498.133000,241.259,25.098,162.816,370.356,-224.527,282.977,-147.780,54.400,-199.060
255,43498.170000,220.622,32.125,155.648,371.351,-220.870,282.061,-85.780,-60.600,-187.060
256,43498.210000,199.002,32.125,134.144,377.967,-220.880,277.098,-202.780,-237.600,-177.060
257,43498.251000,186.226,6.024,133.120,383.636,-220.902,272.133,-146.780,-241.600,-89.060
258,43498.297000,166.572,-20.078,144.384,384.521,-224.691,265.091,99.220,-207.600,146.940
259,43498.311000,165.589,9.035,115.712,383.562,-225.620,265.070,406.220,-335.600,210.940
260,43498.351000,255.017,27.106,103.424,385.491,-222.866,264.136,472.220,-367.600,203.940
261,43498.390000,273.689,30.118,94.208,388.376,-219.203,262.229,390.220,-305.600,117.940
262,43498.430000,251.086,32.125,86.016,390.190,-224.714,260.125,226.220,-201.600,23.940
263,43498.468000,237.328,12.047,135.168,393.056,-222.824,261.165,-174.780,-13.600,-10.060
264,43498.508000,261.896,-5.020,153.600,387.364,-223.835,260.140,-29.780,132.400,29.940
265,43498.530000,215.708,-6.024,121.856,385.503,-221.950,264.156,330.220,40.400,106.940
266,43498.570000,201.950,-11.043,108.544,387.518,-213.562,270.305,349.220,63.400,68.940
267,43498.617000,218.656,22.086,110.592,384.636,-217.186,274.202,402.220,-25.600,65.940
268,43498.649000,216.691,22.086,101.376,384.739,-209.818,276.349,471.220,-100.600,104.940
269,43498.706000,194.088,32.125,76.800,382.971,-201.461,283.486,672.220,-193.600,173.940
270,43498.736000,197.036,41.161,107.520,383.955,-198.700,283.547,600.220,-55.600,219.940
271,43498.768000,189.175,41.161,86.016,379.294,-194.085,288.611,468.220,-265.600,425.940
272,43498.788000,199.985,18.071,87.040,381.077,-202.266,290.429,385.220,-125.600,561.940
273,43498.842000,289.413,18.071,144.384,371.482,-212.410,293.183,190.220,178.400,373.940
274,43498.877000,320.860,28.110,145.408,368.744,-205.099,294.329,-92.780,209.400,21.940
275,43498.910000,201.950,2.008,98.304,366.700,-216.137,293.096,-483.780,131.400,-265.060
276,43498.956000,230.449,-10.039,109.568,367.631,-217.079,291.088,-581.780,214.400,-120.060
277,43499.2000,231.432,1.004,148.480,361.915,-219.903,291.020,-367.780,289.400,-76.060
278,43499.9000,202.933,19.075,133.120,362.772,-227.102,296.836,8.220,235.400,-51.060
279,43499.57000,217.674,3.012,125.952,359.168,-214.248,301.082,315.220,151.400,3.940
280,43499.97000,201.950,13.051,116.736,361.121,-210.442,307.134,390.220,20.400,19.940
281,43499.131000,194.088,12.047,122.880,361.151,-208.551,310.158,563.220,-84.600,63.940
282,43499.177000,206.864,20.078,114.688,363.077,-206.596,315.176,454.220,-336.600,96.940
283,43499.216000,219.639,5.020,108.544,368.810,-202.018,311.303,374.220,-360.600,137.940
284,43499.232000,236.345,-4.016,94.208,371.852,-186.524,305.670,462.220,-460.600,-9.060
285,43499.272000,265.827,33.129,80.896,384.190,-182.853,297.809,369.220,-456.600,-135.060
286,43499.321000,274.672,21.082,76.800,388.995,-177.313,296.939,309.220,-384.600,-268.060
287,43499.356000,222.587,61.239,79.872,396.711,-166.278,294.202,208.220,-287.600,-498.060
288,43499.396000,213.743,64.251,94.208,402.560,-153.416,292.495,36.220,-106.600,-519.060
289,43499.432000,223.570,55.216,99.328,404.514,-148.830,291.601,-30.780,9.400,-578.060
290,43499.472000,235.363,63.247,105.472,411.331,-134.163,287.944,-63.780,-33.600,-536.060
291,43499.492000,259.931,56.220,84.992,415.204,-127.700,288.088,-363.780,-98.600,-551.060
292,43499.532000,256.983,62.243,106.496,417.044,-130.599,279.077,-615.780,-209.600,-479.060
293,43499.572000,171.486,102.400,149.504,424.664,-126.074,271.228,-463.780,-348.600,-340.060
294,43499.616000,182.296,115.451,144.384,429.290,-132.639,260.154,-420.780,-352.600,-32.060
295,43499.652000,219.639,68.267,114.688,432.971,-139.197,250.073,-594.780,-290.600,146.940
296,43499.696000,236.345,45.176,84.992,433.756,-149.535,235.929,-960.780,-475.600,245.940
297,43499.716000,280.568,22.086,45.056,437.243,-169.914,221.576,-658.780,-243.600,168.940
298,43499.756000,263.862,-4.016,109.568,432.375,-179.274,214.407,-433.780,-109.600,72.940
299,43499.796000,247.155,6.024,102.400,438.071,-177.445,210.476,-135.780,-110.600,2.940
300,43499.836000,217.674,12.047,78.848,440.002,-173.892,203.592,-313.780,-180.600,-91.060
301,43499.876000,205.881,0.000,66.560,441.908,-172.171,196.669,-495.780,-204.600,-123.060
302,43499.909000,214.726,16.063,57.344,445.621,-176.819,190.608,-378.780,-286.600,-181.060
303,43499.930000,217.674,73.286,107.520,447.532,-174.260,179.724,-660.780,-102.600,-297.060
304,43499.989000,202.933,81.318,86.016,455.081,-174.414,166.801,-828.780,-192.600,-335.060
305,43500.11000,218.656,47.184,28.672,458.902,-170.096,150.985,-891.780,-333.600,-384.060
306,43500.60000,263.862,32.125,13.312,467.389,-170.334,133.089,-835.780,-426.600,-328.060
307,43500.97000,271.724,6.024,52.224,472.143,-167.699,124.200,-781.780,-151.600,-275.060
308,43500.131000,260.914,6.024,82.944,471.119,-172.468,115.145,-678.780,-66.600,-245.060
309,43500.171000,256.983,27.106,58.368,479.711,-165.319,100.391,-906.780,-308.600,-325.060
310,43500.191000,227.501,34.133,71.680,484.432,-164.614,86.488,-1146.780,-62.600,-319.060
311,43500.238000,234.380,78.306,69.632,486.356,-161.139,75.624,-1187.780,-85.600,-329.060
312,43500.271000,261.896,43.169,43.008,487.334,-157.676,64.758,-897.780,-166.600,-107.060
313,43500.311000,256.000,52.204,62.464,489.126,-164.221,56.664,-686.780,-11.600,-124.060
314,43500.351000,246.173,26.102,63.488,490.989,-166.086,53.643,-604.780,-96.600,-10.060
315,43500.391000,241.259,0.000,24.576,491.837,-172.604,47.538,-134.780,-179.600,305.940
316,43500.411000,222.587,26.102,76.800,486.181,-170.886,45.577,38.220,45.400,288.940
317,43500.451000,187.209,28.110,75.776,481.276,-183.755,46.290,256.220,-100.600,248.940
318,43500.497000,197.036,81.318,84.992,486.083,-178.195,46.416,188.220,-42.600,23.940
319,43500.531000,325.773,59.231,56.320,485.090,-181.833,48.326,-81.780,9.400,-69.060
320,43500.578000,295.309,49.192,46.080,486.058,-180.027,46.377,-45.780,7.400,118.940
321,43500.612000,266.810,61.239,80.896,479.228,-195.611,50.013,-297.780,350.400,342.940
322,43500.632000,229.466,23.090,113.664,476.336,-200.112,55.881,-683.780,479.400,429.940
323,43500.672000,210.795,20.078,79.872,472.471,-205.718,52.772,-938.780,310.400,349.940
324,43500.721000,200.967,4.016,102.400,470.277,-227.749,51.306,-846.780,353.400,296.940
325,43500.758000,218.656,6.024,115.712,462.655,-231.533,50.219,-723.780,296.400,179.940
326,43500.791000,211.777,-9.035,134.144,463.673,-226.063,48.348,-410.780,266.400,143.940
327,43500.839000,213.743,-8.031,162.816,464.474,-236.986,51.100,-176.780,266.400,113.940
328,43500.852000,207.846,-17.067,155.648,460.802,-229.550,59.210,97.220,222.400,17.940
329,43500.900000,204.898,-14.055,140.288,461.724,-232.130,67.114,276.220,178.400,-90.060
330,43500.932000,218.656,-4.016,111.616,459.025,-222.831,76.259,499.220,121.400,-185.060
331,43500.979000,229.466,-7.027,93.184,461.022,-216.198,86.350,810.220,138.400,-191.060
332,43501.18000,222.587,6.024,107.520,463.933,-212.242,99.369,1050.220,276.400,-171.060
333,43501.51000,195.071,18.071,113.664,463.096,-206.348,120.380,1217.220,407.400,-84.060
334,43501.91000,258.948,68.267,133.120,460.407,-197.711,142.442,996.220,533.400,-181.060
335,43501.111000,260.914,99.388,135.168,454.871,-189.189,160.519,792.220,350.400,-92.060
336,43501.160000,237.328,54.212,122.880,454.880,-189.092,165.494,469.220,-23.600,209.940
337,43501.192000,211.777,6.024,111.616,451.102,-188.284,162.522,382.220,-180.600,447.940
338,43501.232000,216.691,0.000,115.712,449.016,-202.889,166.186,226.220,-159.600,556.940
339,43501.272000,227.501,10.039,124.928,442.310,-208.551,162.077,47.220,-164.600,519.940
340,43501.312000,223.570,17.067,99.328,440.181,-225.204,154.757,111.220,-310.600,436.940
341,43501.338000,216.691,18.071,81.920,439.217,-226.191,151.751,121.220,-406.600,289.940
342,43501.372000,221.605,27.106,74.752,438.134,-235.501,144.589,93.220,-428.600,146.940
343,43501.412000,261.896,27.106,72.704,440.043,-233.741,139.656,73.220,-371.600,7.940
344,43501.452000,246.173,16.063,71.680,440.057,-232.046,132.730,34.220,-275.600,56.940
345,43501.492000,216.691,-15.059,74.752,437.134,-237.678,127.632,88.220,-120.600,259.940
346,43501.543000,200.967,-43.169,104.448,432.368,-241.229,136.501,262.220,470.400,276.940
347,43501.565000,224.553,-23.090,116.736,424.812,-242.693,160.330,663.220,511.400,169.940
348,43501.592000,256.983,-35.137,119.808,420.147,-238.896,170.351,969.220,321.400,279.940
349,43501.632000,256.000,-18.071,138.240,412.630,-236.832,187.292,939.220,102.400,352.940
350,43501.677000,251.086,-27.106,124.928,412.675,-234.765,199.272,803.220,-62.600,353.940
351,43501.724000,228.484,-15.059,107.520,407.814,-244.808,204.024,782.220,-167.600,349.940
352,43501.764000,219.639,-28.110,93.184,404.119,-239.185,213.090,791.220,-232.600,373.940
353,43501.795000,211.777,-20.078,83.968,402.289,-234.630,213.184,644.220,-159.600,395.940
354,43501.815000,241.259,-17.067,63.488,397.478,-241.007,218.015,522.220,21.400,357.940
355,43501.858000,244.207,9.035,57.344,396.586,-238.076,228.022,495.220,126.400,311.940
356,43501.892000,238.311,3.012,71.680,390.814,-246.182,238.782,344.220,259.400,334.940
357,43501.942000,241.259,13.051,84.992,382.252,-250.680,248.620,186.220,444.400,199.940
358,43501.983000,236.345,25.098,97.280,378.560,-244.239,252.730,188.220,279.400,261.940
359,43502.19000,217.674,19.075,111.616,369.000,-252.433,261.493,226.220,258.400,277.940
360,43502.32000,246.173,33.129,146.432,367.197,-246.786,270.563,245.220,200.400,150.940
361,43502.72000,235.363,41.161,137.216,369.118,-244.890,272.595,175.220,16.400,22.940
362,43502.121000,209.812,54.212,137.216,377.653,-243.023,268.669,-49.780,-134.600,-253.060
363,43502.153000,168.537,66.259,109.568,377.736,-236.669,265.820,-435.780,-230.600,-407.060
364,43502.193000,202.933,50.196,115.712,388.089,-239.494,254.835,-499.780,-150.600,-413.060
365,43502.234000,253.052,23.090,93.184,391.835,-241.452,245.847,-351.780,-305.600,-224.060
366,43502.254000,240.276,-46.180,69.632,398.476,-238.850,233.976,-250.780,-374.600,110.940
367,43502.295000,280.568,-7.027,93.184,394.525,-250.849,231.726,1.220,-185.600,252.940
368,43502.333000,249.121,5.020,79.872,398.297,-250.955,223.772,-3.780,-332.600,241.940
369,43502.373000,239.294,-1.004,81.920,395.452,-251.071,219.787,-18.780,-272.600,86.940
370,43502.413000,233.397,0.000,71.680,398.184,-258.440,215.655,111.220,-186.600,-28.060
371,43502.455000,225.536,10.039,90.112,398.301,-250.137,218.816,171.220,-74.600,-94.060
372,43502.494000,232.415,5.020,98.304,403.990,-249.165,217.851,207.220,-17.600,-49.060
373,43502.515000,235.363,-2.008,82.944,401.210,-244.661,215.953,279.220,-1.600,59.940
374,43502.555000,238.311,-1.004,83.968,397.456,-243.580,226.912,324.220,143.400,135.940
375,43502.595000,215.708,-2.008,92.160,391.716,-248.996,234.745,179.220,314.400,100.940
376,43502.635000,202.933,-5.020,97.280,388.962,-243.419,240.827,71.220,186.400,25.940
377,43502.678000,204.898,-15.059,98.304,390.844,-244.291,241.806,150.220,-95.600,-92.060
378,43502.718000,233.397,16.063,88.064,391.900,-236.072,239.994,97.220,-173.600,-200.060
379,43502.735000,274.672,1.004,96.256,393.820,-233.416,234.085,-125.780,-86.600,-196.060
380,43502.778000,291.378,-6.024,98.304,399.514,-231.606,229.159,-50.780,-215.600,-60.060
381,43502.820000,264.845,2.008,93.184,399.522,-230.749,226.193,-122.780,-136.600,-56.060
382,43502.855000,236.345,7.027,98.304,403.218,-237.131,225.068,-0.780,-107.600,-63.060
383,43502.895000,212.760,27.106,81.920,406.100,-233.507,221.171,162.220,-184.600,-60.060
384,43502.943000,203.916,30.118,92.160,407.057,-232.598,220.197,156.220,-102.600,-63.060
385,43502.965000,200.967,26.102,91.136,410.015,-224.237,224.358,163.220,-127.600,47.940
386,43503.3000,199.002,26.102,79.872,408.027,-230.773,219.243,27.220,-182.600,61.940
387,43503.60000,242.242,24.094,57.344,411.840,-228.092,213.338,-39.780,-214.600,45.940
388,43503.78000,284.499,4.016,47.104,412.694,-233.771,203.272,-226.780,-302.600,59.940
389,43503.116000,284.499,11.043,46.080,416.489,-232.844,201.308,-162.780,-349.600,2.940
390,43503.164000,284.499,9.035,86.016,419.324,-232.086,191.382,-131.780,-150.600,-85.060
391,43503.200000,266.810,11.043,101.376,418.297,-237.653,188.278,-27.780,-53.600,-9.060
392,43503.218000,235.363,8.031,84.992,414.528,-236.748,190.281,95.220,69.400,2.940
393,43503.259000,209.812,-2.008,78.848,415.533,-232.974,195.336,357.220,22.400,-14.060
394,43503.293000,210.795,3.012,50.176,417.513,-227.296,203.417,673.220,-65.600,78.940
395,43503.338000,208.829,-6.024,47.104,414.734,-223.552,209.460,803.220,-136.600,286.940
396,43503.381000,207.846,2.008,45.056,413.837,-220.679,216.482,880.220,-212.600,359.940
397,43503.413000,207.846,7.027,47.104,408.152,-221.612,219.438,662.220,-223.600,335.940
398,43503.447000,250.104,-2.008,66.560,404.403,-218.933,218.495,491.220,-154.600,305.940
399,43503.494000,281.551,4.016,65.536,400.561,-223.485,222.371,259.220,-85.600,368.940
400,43503.526000,334.618,-3.012,75.776,397.574,-234.497,223.127,-169.780,55.400,192.940
401,43503.561000,267.793,-19.075,80.896,396.648,-232.736,220.179,-463.780,45.400,-57.060
402,43503.594000,225.536,-27.106,54.272,400.256,-244.771,210.976,-536.780,-53.600,-167.060
403,43503.634000,220.622,-23.090,57.344,404.161,-235.618,208.193,-328.780,123.400,-256.060
404,43503.655000,257.965,-13.051,76.800,405.062,-239.212,211.102,-235.780,273.400,-286.060
405,43503.695000,233.397,10.039,74.752,405.107,-235.606,208.195,-121.780,70.400,-196.060
406,43503.735000,246.173,-1.004,68.608,403.221,-235.553,212.171,-19.780,144.400,-92.060
407,43503.774000,238.311,-1.004,67.584,406.151,-229.063,214.303,74.220,16.400,-54.060
408,43503.814000,213.743,-5.020,67.584,400.464,-230.015,216.264,360.220,-26.600,-27.060
409,43503.855000,216.691,-4.016,64.512,407.206,-221.624,219.436,527.220,-20.600,-45.060
410,43503.894000,220.622,0.000,53.248,409.212,-214.114,227.556,530.220,-115.600,-69.060
411,43503.916000,245.190,13.051,33.792,408.351,-207.733,226.696,538.220,-170.600,-103.060
412,43503.959000,284.499,11.043,28.672,415.096,-199.303,231.859,454.220,-172.600,-89.060
413,43504.0,275.655,6.024,19.456,419.887,-194.699,229.974,393.220,-333.600,-144.060
414,43504.41000,256.983,25.098,23.552,422.908,-180.218,219.346,229.220,-374.600,-364.060
415,43504.79000,245.190,39.153,35.840,433.390,-174.603,218.486,77.220,-250.600,-633.060
416,43504.114000,226.518,46.180,45.056,435.456,-161.771,217.768,-8.780,30.400,-807.060
417,43504.135000,215.708,48.188,69.632,442.335,-143.303,221.155,-190.780,127.400,-728.060
418,43504.174000,245.190,67.263,62.464,447.264,-129.381,227.427,-268.780,279.400,-692.060
419,43504.214000,255.017,71.278,75.776,445.378,-128.568,223.462,-471.780,127.400,-480.060
420,43504.262000,249.121,99.388,76.800,452.139,-118.403,223.689,-261.780,-65.600,-360.060
421,43504.326000,243.225,102.400,99.328,451.166,-120.267,222.653,-98.780,-9.600,-62.060
422,43504.343000,229.466,66.259,112.640,451.149,-121.242,219.648,-218.780,17.400,107.940
423,43504.356000,250.104,66.259,72.704,450.026,-134.100,218.378,-249.780,-26.600,83.940
424,43504.396000,258.948,45.176,55.296,447.120,-138.777,215.291,-389.780,-39.600,68.940
425,43504.436000,259.931,46.180,57.344,450.000,-135.172,210.398,-219.780,-130.600,43.940
426,43504.477000,236.345,42.165,68.608,449.936,-139.772,209.306,-271.780,-106.600,64.940
427,43504.521000,219.639,40.157,53.248,451.748,-144.543,198.266,-415.780,-252.600,-3.060
428,43504.567000,194.088,42.165,34.816,455.457,-149.230,190.215,-507.780,-302.600,-27.060
429,43504.594000,168.537,39.153,64.512,457.176,-160.471,176.053,-780.780,-235.600,-46.060
430,43504.614000,261.896,64.251,64.512,454.343,-159.671,172.087,-800.780,-9.600,-226.060
431,43504.656000,320.860,33.129,62.464,460.967,-158.823,164.158,-806.780,42.400,-113.060
432,43504.696000,300.223,35.137,17.408,456.940,-175.559,153.850,-434.780,-144.600,3.940
433,43504.737000,274.672,34.133,37.888,456.070,-170.055,154.960,-8.780,16.400,104.940
434,43504.777000,241.259,23.090,78.848,458.809,-177.347,154.809,-44.780,127.400,44.940
435,43504.817000,242.242,27.106,72.704,456.055,-171.770,160.891,78.220,79.400,-26.060
436,43504.840000,220.622,5.020,66.560,459.824,-172.675,158.888,27.220,57.400,10.940
437,43504.881000,237.328,23.090,80.896,456.921,-177.313,157.791,-215.780,-3.600,0.940
438,43504.914000,230.449,61.239,91.136,455.060,-174.668,153.866,-200.780,-123.600,-33.060
439,43504.955000,247.155,80.314,112.640,458.881,-171.889,152.936,-561.780,174.400,-277.060
440,43504.994000,204.898,75.294,89.088,462.724,-166.537,143.109,-938.780,-49.600,-324.060
441,43505.35000,224.553,66.259,26.624,468.362,-168.470,134.125,-943.780,-222.600,-420.060
442,43505.55000,268.775,48.188,24.576,471.281,-161.338,122.345,-673.780,-210.600,-461.060
443,43505.94000,272.706,39.153,19.456,475.059,-160.606,110.431,-582.780,-309.600,-293.060
444,43505.141000,241.259,58.227,55.296,479.845,-155.281,98.615,-109.780,-316.600,-41.060
445,43505.174000,239.294,50.196,76.800,473.985,-169.039,101.298,-378.780,229.400,138.940
446,43505.214000,216.691,25.098,76.800,476.851,-167.150,102.337,-238.780,202.400,93.940
447,43505.254000,193.106,33.129,54.272,477.847,-163.473,102.417,-161.780,6.400,27.940
448,43505.282000,219.639,27.106,38.912,474.911,-170.800,104.246,-44.780,-25.600,85.940
449,43505.324000,245.190,52.204,43.008,478.726,-168.100,99.335,-117.780,-106.600,46.940
450,43505.356000,244.207,72.282,29.696,476.666,-179.313,89.147,-150.780,-234.600,82.940
451,43505.397000,244.207,66.259,20.480,473.824,-179.390,87.152,-375.780,-147.600,269.940
452,43505.437000,311.033,26.102,13.312,471.784,-189.609,80.964,-398.780,-144.600,625.940
453,43505.484000,279.585,20.078,52.224,463.941,-209.065,74.570,-507.780,48.400,777.940
454,43505.523000,243.225,-9.035,86.016,454.195,-230.203,77.090,-442.780,280.400,946.940
455,43505.536000,231.432,-27.106,91.136,442.595,-248.617,79.665,-170.780,215.400,822.940
456,43505.593000,249.121,18.071,65.536,435.813,-260.556,82.385,51.220,301.400,545.940
457,43505.626000,245.190,14.055,83.968,422.469,-268.781,92.136,-23.780,378.400,446.940
458,43505.661000,215.708,-24.094,116.736,420.474,-276.934,97.928,-192.780,353.400,320.940
459,43505.702000,224.553,-55.216,141.312,412.785,-286.117,101.699,-369.780,477.400,95.940
460,43505.736000,198.019,-39.153,135.168,420.439,-280.423,106.805,-246.780,378.400,-187.060
461,43505.756000,205.881,-20.078,97.280,413.829,-279.575,107.808,105.220,96.400,-336.060
462,43505.824000,277.620,-9.035,91.136,421.596,-264.855,106.143,184.220,-152.600,-471.060
463,43505.846000,263.862,-17.067,92.160,434.951,-257.273,110.303,386.220,-275.600,-242.060
464,43505.878000,260.914,-3.012,102.400,437.816,-255.384,111.342,393.220,-104.600,-175.060
465,43505.918000,223.570,25.098,107.520,436.953,-249.802,116.433,432.220,-71.600,-158.060
466,43505.972000,221.605,21.082,82.944,442.717,-243.334,115.584,278.220,-27.600,-99.060
467,43505.979000,216.691,18.071,70.656,445.588,-241.386,119.609,325.220,-66.600,-103.060
468,43506.22000,225.536,42.165,73.728,445.693,-233.998,122.750,402.220,-144.600,-86.060
469,43506.62000,238.311,36.141,73.728,448.535,-233.922,124.745,351.220,-155.600,25.940
470,43506.103000,226.518,37.145,81.920,448.499,-236.651,125.682,509.220,-99.600,194.940
471,43506.146000,211.777,30.118,78.848,443.831,-232.892,133.712,576.220,-5.600,194.940
472,43506.192000,216.691,30.118,76.800,446.671,-233.615,141.658,694.220,38.400,131.940
473,43506.222000,271.724,26.102,59.392,440.092,-231.636,153.626,797.220,-23.600,229.940
474,43506.242000,268.775,16.063,55.296,435.408,-228.833,159.646,892.220,-154.600,261.940
475,43506.282000,288.430,34.133,55.296,436.278,-235.097,166.477,714.220,-104.600,309.940
476,43506.322000,256.983,17.067,58.368,436.317,-232.329,167.530,747.220,-245.600,346.940
477,43506.356000,230.449,5.020,53.248,431.622,-230.422,174.526,758.220,-152.600,298.940
478,43506.396000,219.639,-4.016,57.344,427.672,-243.181,180.217,712.220,-117.600,303.940
479,43506.436000,217.674,10.039,51.200,425.908,-234.006,182.399,626.220,-98.600,198.940
480,43506.456000,212.760,11.043,52.224,424.953,-235.656,192.309,561.220,-106.600,234.940
481,43506.496000,208.829,-1.004,76.800,420.258,-233.749,199.305,602.220,69.400,190.940
482,43506.536000,225.536,25.098,40.960,417.499,-228.231,202.402,762.220,-135.600,208.940
483,43506.583000,298.257,0.000,45.056,415.592,-229.971,208.330,353.220,23.400,217.940
484,43506.617000,310.050,18.071,96.256,410.868,-229.936,213.297,-137.780,149.400,97.940
485,43506.657000,272.706,-1.004,91.136,414.578,-234.623,205.246,-500.780,100.400,-62.060
486,43506.677000,250.104,4.016,75.776,409.765,-240.261,201.140,-729.780,9.400,-88.060
487,43506.723000,246.173,-25.098,67.584,410.693,-241.223,198.137,-533.780,177.400,-90.060
488,43506.762000,239.294,-12.047,82.944,408.758,-244.055,195.090,-354.780,140.400,-64.060
489,43506.802000,224.553,-10.039,62.464,412.429,-252.269,193.926,-146.780,-29.600,-90.060
490,43506.844000,238.311,3.012,59.392,413.424,-248.612,193.011,129.220,-22.600,-50.060
491,43506.891000,226.518,0.000,62.464,411.586,-244.914,196.070,388.220,-103.600,30.940
492,43506.918000,224.553,0.000,67.584,415.382,-244.747,202.047,406.220,-49.600,53.940
493,43506.947000,222.587,-3.012,74.752,408.841,-239.240,207.128,351.220,-40.600,33.940
494,43506.983000,241.259,0.000,48.128,412.696,-233.752,204.267,269.220,-178.600,-28.060
495,43507.34000,258.948,10.039,28.672,418.472,-226.367,203.438,309.220,-263.600,-130.060
496,43507.64000,278.603,4.016,32.768,425.081,-227.235,201.440,373.220,-258.600,-188.060
497,43507.108000,276.637,17.067,50.176,426.134,-219.815,205.578,363.220,-263.600,-276.060
498,43507.143000,243.225,24.094,45.056,434.851,-204.265,198.959,201.220,-416.600,-366.060
499,43507.163000,237.328,39.153,65.536,441.478,-203.378,193.020,-62.780,-27.600,-418.060
500,43507.202000,232.415,49.192,71.680,442.592,-191.398,196.261,-117.780,56.400,-362.060
501,43507.243000,224.553,58.227,56.320,444.573,-184.940,197.396,-259.780,108.400,-301.060
502,43507.289000,191.140,59.231,63.488,440.655,-194.249,192.219,-241.780,128.400,-151.060
503,43507.318000,195.071,-19.075,73.728,442.653,-186.836,195.363,-341.780,167.400,32.940
504,43507.358000,261.896,-14.055,82.944,440.715,-190.467,198.267,-259.780,147.400,37.940
505,43507.378000,271.724,21.082,49.152,442.498,-197.889,192.144,-294.780,-305.600,-14.060
506,43507.418000,329.704,19.075,53.248,440.605,-197.914,192.140,34.220,20.400,-29.060
507,43507.458000,282.534,0.000,81.920,438.701,-198.835,193.113,118.220,1.400,-61.060
508,43507.498000,249.121,-6.024,61.440,442.562,-193.288,193.236,114.220,-139.600,-32.060
509,43507.538000,234.380,14.055,48.128,450.138,-192.350,189.289,-2.780,-66.600,-80.060
510,43507.578000,223.570,19.075,40.960,448.256,-191.479,188.310,-91.780,-212.600,-138.060
511,43507.618000,204.898,39.153,51.200,452.155,-182.404,181.547,-157.780,-122.600,-196.060
512,43507.638000,178.365,44.173,48.128,456.808,-187.877,179.448,-219.780,-80.600,-214.060
513,43507.686000,199.985,35.137,51.200,454.984,-182.484,175.581,-354.780,29.400,-379.060
514,43507.718000,257.965,57.224,30.720,457.045,-169.711,171.878,-350.780,38.400,-530.060
515,43507.758000,328.722,69.271,30.720,464.732,-160.547,167.111,-334.780,3.400,-505.060
516,43507.804000,310.050,45.176,16.384,462.870,-157.902,163.186,-170.780,-166.600,-193.060
517,43507.846000,246.173,33.129,45.056,466.734,-152.316,165.300,211.220,58.400,-67.060
518,43507.858000,258.948,74.290,103.424,465.807,-151.334,169.298,-45.780,350.400,-107.060
519,43507.898000,236.345,73.286,75.776,465.726,-157.669,173.141,-34.780,132.400,-20.060
520,43507.938000,216.691,56.220,62.464,465.795,-153.010,177.219,-91.780,65.400,-59.060
521,43507.978000,222.587,64.251,74.752,462.937,-154.042,173.214,-263.780,82.400,-92.060
522,43508.31000,217.674,49.192,71.680,463.734,-164.244,166.036,-535.780,-59.600,50.940
523,43508.58000,224.553,45.176,56.320,468.485,-162.407,163.098,-949.780,-201.600,36.940
524,43508.86000,189.175,60.235,70.656,469.202,-177.404,144.877,-1139.780,-251.600,-51.060
525,43508.118000,285.482,11.043,20.480,471.009,-182.233,130.852,-1204.780,-410.600,-58.060
526,43508.166000,266.810,21.082,20.480,475.699,-183.419,113.925,-613.780,-386.600,-180.060
527,43508.199000,263.862,4.016,71.680,472.011,-176.178,112.084,-34.780,43.400,209.940
528,43508.238000,256.983,13.051,86.016,472.935,-178.739,120.982,643.220,189.400,272.940
529,43508.289000,231.432,34.133,65.536,472.912,-181.311,129.879,808.220,198.400,184.940
530,43508.321000,230.449,57.224,36.864,467.256,-181.133,142.805,518.220,70.400,42.940
531,43508.341000,213.743,55.216,51.200,469.155,-181.030,146.789,330.220,87.400,-45.060
532,43508.382000,229.466,44.173,74.752,467.313,-178.150,154.804,130.220,280.400,-32.060
533,43508.418000,224.553,64.251,66.560,465.463,-175.368,157.845,-127.780,148.400,-96.060
534,43508.458000,225.536,42.165,63.488,466.434,-173.523,157.885,-428.780,156.400,56.940
535,43508.506000,230.449,28.110,56.320,462.541,-181.000,152.747,-380.780,-18.600,119.940
536,43508.538000,247.155,38.149,54.272,464.341,-187.447,149.629,-293.780,-104.600,84.940
537,43508.559000,269.758,41.161,55.296,462.349,-194.021,142.524,-94.780,-207.600,151.940
538,43508.601000,314.964,41.161,58.368,462.296,-197.725,140.455,12.220,-70.600,278.940
539,43508.641000,264.845,39.153,40.960,453.752,-199.689,139.406,94.220,-201.600,443.940
540,43508.684000,243.225,30.118,29.696,452.628,-212.566,137.141,207.220,-223.600,661.940
541,43508.724000,206.864,-5.020,77.824,444.873,-226.369,138.825,38.220,64.400,560.940
542,43508.764000,258.948,-1.004,78.848,440.078,-231.792,145.665,251.220,147.400,447.940
543,43508.784000,240.276,16.063,76.800,437.129,-240.815,154.421,182.220,249.400,140.940
544,43508.824000,178.365,18.071,96.256,432.364,-243.587,156.344,-18.780,383.400,62.940
545,43508.871000,200.967,17.067,82.944,434.374,-235.258,159.508,-281.780,370.400,-163.060
546,43508.898000,238.311,15.059,46.080,433.299,-244.471,157.321,-167.780,-110.600,-14.060
547,43508.938000,298.257,-1.004,55.296,434.383,-234.381,157.537,-36.780,-86.600,-17.060
548,43508.978000,326.756,-13.051,97.280,430.492,-242.598,161.335,113.220,64.400,131.940
549,43509.27000,278.603,6.024,103.424,434.210,-247.188,158.259,226.220,-36.600,65.940
550,43509.39000,222.587,36.141,78.848,434.345,-237.909,164.425,276.220,79.400,9.940
551,43509.79000,202.933,17.067,56.320,435.238,-242.360,170.299,231.220,53.400,0.940
552,43509.118000,204.898,14.055,54.272,434.406,-234.108,171.468,167.220,-98.600,-18.060
553,43509.166000,205.881,24.094,75.776,432.509,-234.192,168.480,-12.780,-28.600,40.940
554,43509.199000,190.157,6.024,90.112,435.272,-239.651,168.368,-52.780,-135.600,231.940
555,43509.247000,195.071,12.047,61.440,430.452,-246.146,167.228,219.220,-138.600,189.940
556,43509.261000,229.466,24.094,61.440,427.624,-245.287,166.247,195.220,-116.600,239.940
557,43509.299000,298.257,7.027,49.152,426.559,-254.383,170.030,172.220,-88.600,219.940
558,43509.346000,334.618,10.039,41.984,425.683,-248.957,167.161,276.220,-86.600,155.940
559,43509.386000,302.188,19.075,18.432,429.440,-250.778,165.138,196.220,-318.600,51.940
560,43509.437000,267.793,-7.027,96.256,425.562,-257.300,162.010,-59.780,88.400,14.940
561,43509.459000,237.328,-24.094,86.016,424.685,-252.653,166.086,30.220,47.400,-52.060
562,43509.479000,219.639,-7.027,64.512,428.461,-253.480,168.063,72.220,100.400,-102.060
563,43509.519000,217.674,-8.031,65.536,427.639,-245.111,175.203,228.220,194.400,-47.060
564,43509.559000,221.605,5.020,59.392,429.520,-246.762,183.127,515.220,-33.600,-37.060
565,43509.607000,226.518,18.071,41.984,426.743,-242.219,183.220,781.220,-184.600,61.940
566,43509.639000,200.967,12.047,61.440,425.067,-227.391,193.479,793.220,-223.600,173.940
567,43509.679000,249.121,2.008,43.008,425.999,-229.093,199.412,695.220,-93.600,229.940
568,43509.719000,342.480,25.098,54.272,420.367,-226.322,204.436,631.220,15.400,230.940
569,43509.739000,258.948,20.078,50.176,424.070,-231.847,200.346,41.220,-269.600,55.940
570,43509.779000,229.466,19.075,58.368,422.163,-232.808,199.328,-428.780,-102.600,-124.060
571,43509.826000,241.259,-19.075,64.512,423.878,-244.868,190.122,-496.780,20.400,-77.060
572,43509.866000,244.207,-19.075,60.416,420.227,-234.880,188.340,-183.780,-1.600,42.940
573,43509.909000,223.570,-9.035,63.488,421.981,-244.952,187.133,-196.780,66.400,16.940
574,43509.952000,234.380,2.008,54.272,422.980,-241.236,189.203,53.220,118.400,-45.060
575,43509.959000,232.415,17.067,53.248,426.860,-234.695,193.327,299.220,32.400,-56.060
576,43510.6000,227.501,14.055,62.464,422.072,-239.260,197.201,412.220,75.400,-61.060
577,43510.44000,232.415,6.024,60.416,426.926,-230.835,203.355,412.220,4.400,-85.060
578,43510.86000,237.328,4.016,40.960,428.012,-220.726,204.567,376.220,-44.600,-64.060
579,43510.126000,258.948,8.031,23.552,427.151,-215.124,210.652,393.220,-138.600,-130.060
580,43510.166000,274.672,10.039,34.816,432.921,-208.578,213.784,366.220,-119.600,-216.060
581,43510.186000,281.551,29.114,50.176,437.790,-198.438,214.007,363.220,-58.600,-333.060
582,43510.231000,259.931,35.137,58.368,440.738,-190.194,212.198,100.220,-205.600,-493.060
583,43510.266000,248.138,52.204,54.272,446.580,-178.190,213.456,-172.780,-33.600,-586.060
584,43510.306000,253.052,28.110,45.056,454.139,-178.227,206.504,-321.780,-48.600,-399.060
585,43510.346000,235.363,42.165,40.960,454.225,-171.833,205.646,-204.780,-62.600,-299.060
586,43510.386000,217.674,56.220,52.224,458.016,-170.945,201.692,-165.780,42.400,-188.060
587,43510.421000,173.451,61.239,90.112,453.346,-167.206,208.727,-108.780,193.400,-91.060
588,43510.441000,203.916,41.161,69.632,454.392,-159.865,208.885,-219.780,333.400,-70.060
589,43510.483000,257.965,12.047,74.752,452.391,-168.096,210.696,-275.780,95.400,-10.060
590,43510.526000,307.102,42.165,73.728,449.586,-165.424,208.759,-29.780,131.400,-103.060
591,43510.566000,289.413,30.118,87.040,449.582,-166.243,213.715,126.220,83.400,40.940
592,43510.606000,256.000,40.157,67.584,449.626,-163.416,217.754,218.220,-31.600,-82.060
593,43510.643000,231.432,45.176,58.368,448.792,-155.184,217.928,82.220,14.400,-49.060
594,43510.672000,206.864,29.114,56.320,452.566,-156.030,218.910,-70.780,48.400,-27.060
595,43510.717000,197.036,49.192,46.080,450.667,-156.133,214.927,-73.780,-199.600,-67.060
596,43510.747000,186.226,66.259,56.320,453.526,-154.322,211.985,-188.780,-152.600,-134.060
597,43510.787000,200.967,65.255,74.752,457.223,-159.925,203.915,-515.780,-84.600,-291.060
598,43510.827000,259.931,47.184,54.272,462.016,-154.522,196.080,-522.780,-113.600,-394.060
599,43510.866000,283.516,64.251,48.128,467.825,-144.447,192.324,-389.780,-142.600,-422.060
600,43510.888000,311.033,58.227,19.456,470.686,-141.837,183.432,-169.780,-281.600,-144.060
601,43510.921000,243.225,37.145,29.696,471.624,-141.922,178.458,21.220,-254.600,-9.060
602,43510.962000,247.155,69.271,74.752,473.531,-140.961,179.476,-14.780,1.400,-9.060
603,43511.2000,263.862,75.294,70.656,470.587,-148.387,176.330,-120.780,-29.600,-15.060
604,43511.42000,229.466,60.235,57.344,474.353,-149.331,172.337,-290.780,-83.600,-24.060
605,43511.91000,224.553,79.310,70.656,476.244,-149.325,171.345,-456.780,83.400,-138.060
606,43511.123000,208.829,61.239,71.680,477.091,-155.862,164.245,-661.780,-150.600,23.940
607,43511.143000,193.106,47.184,49.152,476.166,-153.322,154.351,-874.780,-246.600,22.940
608,43511.183000,187.209,46.180,59.392,481.662,-164.611,135.221,-1271.780,-267.600,-9.060
609,43511.223000,272.706,49.192,31.744,478.709,-171.374,119.159,-1356.780,-186.600,-135.060
610,43511.269000,295.309,-6.024,-3.072,485.332,-168.987,96.342,-836.780,-569.600,-127.060
611,43511.302000,315.946,9.035,-17.408,485.319,-169.143,88.382,-137.780,-306.600,-110.060
612,43511.342000,279.585,35.137,63.488,484.308,-174.535,94.234,478.220,8.400,130.940
613,43511.362000,222.587,41.161,68.608,484.332,-173.482,101.218,885.220,74.400,254.940
614,43511.407000,235.363,68.267,37.888,480.463,-180.666,111.006,675.220,175.400,160.940
615,43511.443000,224.553,57.224,44.032,479.598,-175.883,122.048,419.220,187.400,51.940
616,43511.483000,211.777,58.227,60.416,478.713,-172.095,129.090,287.220,238.400,115.940
617,43511.523000,212.760,45.176,66.560,475.758,-181.196,133.865,33.220,186.400,114.940
618,43511.563000,227.501,34.133,53.248,470.099,-180.277,137.854,-130.780,193.400,150.940
619,43511.583000,234.380,33.129,44.032,470.909,-190.322,138.636,-96.780,94.400,168.940
620,43511.623000,266.810,51.200,43.008,469.058,-187.560,140.682,18.220,26.400,127.940
621,43511.663000,271.724,49.192,39.936,466.217,-187.617,139.682,-52.780,-43.600,140.940
622,43511.719000,301.205,29.114,28.672,460.436,-195.060,137.525,-29.780,-69.600,274.940
623,43511.748000,282.534,26.102,30.720,457.436,-206.988,138.262,71.220,-66.600,558.940
624,43511.791000,222.587,20.078,44.032,450.593,-222.727,133.938,140.220,-5.600,769.940
625,43511.803000,208.829,6.024,55.296,438.112,-237.294,146.540,293.220,132.400,728.940
626,43511.848000,249.121,26.102,62.464,431.412,-243.658,153.357,440.220,275.400,489.940
627,43511.894000,239.294,-3.012,39.936,423.808,-247.228,163.216,568.220,148.400,501.940
628,43511.932000,235.363,14.055,53.248,415.182,-256.326,171.962,537.220,109.400,376.940
629,43511.964000,208.829,7.027,86.016,414.244,-256.241,176.935,-202.780,195.400,147.940
630,43512.16000,212.760,-12.047,126.976,410.365,-263.542,180.753,-302.780,414.400,13.940
631,43512.42000,249.121,3.012,105.472,409.402,-265.289,185.687,-134.780,197.400,72.940
632,43512.62000,271.724,-26.102,71.680,406.606,-262.519,188.726,41.220,43.400,51.940
633,43512.108000,296.292,-10.039,79.872,407.447,-269.895,185.586,97.220,-6.600,55.940
634,43512.144000,242.242,-12.047,94.208,405.625,-265.241,190.656,189.220,-63.600,104.940
635,43512.188000,228.484,3.012,88.064,404.616,-269.835,190.557,294.220,-5.600,-12.060
636,43512.228000,219.639,1.004,75.776,405.657,-263.331,194.675,283.220,-11.600,-36.060
637,43512.268000,202.933,13.051,72.704,404.801,-256.892,196.800,250.220,-18.600,12.940
638,43512.288000,194.088,2.008,70.656,408.597,-256.724,202.777,224.220,-33.600,72.940
639,43512.328000,208.829,-32.125,76.800,403.865,-256.787,202.769,269.220,46.400,266.940
640,43512.369000,243.225,-6.024,77.824,396.200,-264.917,213.525,350.220,95.400,246.940
641,43512.404000,308.084,-8.031,83.968,397.166,-263.911,217.527,415.220,239.400,80.940
642,43512.448000,290.395,4.016,65.536,394.442,-256.444,226.633,424.220,-17.600,-29.060
643,43512.488000,238.311,7.027,77.824,395.531,-246.295,229.835,206.220,-61.600,-121.060
644,43512.508000,236.345,3.012,78.848,398.273,-253.548,231.674,46.220,42.400,-65.060
645,43512.548000,222.587,4.016,82.944,402.157,-246.188,230.842,58.220,-10.600,2.940
646,43512.588000,231.432,10.039,60.416,402.185,-244.317,232.871,76.220,-44.600,18.940
647,43512.627000,239.294,25.098,59.392,400.236,-248.084,228.809,77.220,-111.600,-19.060
648,43512.662000,250.104,21.082,66.560,402.214,-241.666,227.954,66.220,-188.600,23.940
649,43512.711000,246.173,21.082,76.800,401.141,-250.859,226.762,149.220,-148.600,103.940
650,43512.743000,233.397,21.082,79.872,398.443,-240.780,228.962,242.220,-92.600,184.940
651,43512.763000,234.380,-10.039,89.088,397.434,-245.373,228.863,174.220,-18.600,281.940
652,43512.803000,225.536,-31.122,72.704,393.598,-249.867,235.724,414.220,3.400,329.940
653,43512.843000,222.587,-26.102,53.248,386.956,-251.709,239.653,525.220,-146.600,342.940
654,43512.893000,217.674,-33.129,40.960,387.910,-251.599,244.630,684.220,-234.600,390.940
655,43512.924000,248.138,-27.106,39.936,382.277,-248.848,248.659,875.220,-259.600,399.940
656,43512.964000,298.257,-13.051,45.056,380.495,-242.186,262.723,982.220,-122.600,435.940
657,43512.984000,263.862,-20.078,45.056,378.612,-242.094,268.690,893.220,-202.600,539.940
658,43513.31000,240.276,-27.106,53.248,372.898,-245.678,276.563,688.220,-61.600,374.940
659,43513.64000,214.726,-14.055,84.992,365.326,-246.557,283.495,308.220,299.400,91.940
660,43513.104000,226.518,-16.063,81.920,364.404,-245.517,290.478,18.220,226.400,64.940
661,43513.144000,238.311,-32.125,51.200,358.755,-243.721,292.497,-132.780,314.400,114.940
662,43513.188000,256.983,-33.129,76.800,356.817,-247.352,295.401,-257.780,406.400,172.940
663,43513.208000,250.104,-36.141,73.728,348.160,-258.341,301.122,-159.780,215.400,120.940
664,43513.246000,255.017,-40.157,69.632,346.328,-253.805,300.222,25.220,150.400,68.940
665,43513.296000,248.138,-36.141,75.776,341.634,-251.898,307.218,94.220,178.400,-38.060
666,43513.329000,229.466,-12.047,81.920,336.852,-255.625,307.131,21.220,189.400,-166.060
667,43513.368000,236.345,-40.157,57.344,339.766,-250.091,307.253,-98.780,69.400,-154.060
668,43513.409000,239.294,-57.224,72.704,341.699,-247.279,309.305,-68.780,96.400,-199.060
669,43513.446000,258.948,-49.192,97.280,341.753,-243.575,311.374,202.220,127.400,-247.060
670,43513.466000,230.449,-36.141,88.064,352.385,-227.746,317.694,517.220,-200.600,-353.060
671,43513.507000,217.674,-16.063,76.800,361.980,-217.602,314.940,453.220,-326.600,-543.060
672,43513.549000,225.536,14.055,74.752,367.833,-204.701,315.223,210.220,-464.600,-631.060
673,43513.597000,240.276,15.059,68.608,384.120,-188.291,300.677,-278.780,-553.600,-707.060
674,43513.624000,252.069,18.071,67.584,397.319,-190.241,285.736,-445.780,-594.600,-776.060
675,43513.666000,256.983,32.125,56.320,415.408,-180.258,269.066,-594.780,-669.600,-806.060
676,43513.686000,255.017,37.145,55.296,432.550,-169.527,244.454,-753.780,-682.600,-842.060
677,43513.729000,258.948,55.216,44.032,450.632,-159.622,223.804,-759.780,-646.600,-925.060
678,43513.769000,251.086,53.208,31.744,458.344,-147.866,211.135,-788.780,-524.600,-837.060
679,43513.812000,252.069,55.216,25.600,467.817,-145.305,195.290,-742.780,-490.600,-791.060
680,43513.843000,230.449,58.227,13.312,478.442,-127.255,174.802,-705.780,-513.600,-722.060
681,43513.884000,210.795,76.298,19.456,486.135,-117.253,166.075,-587.780,-295.600,-622.060
682,43513.904000,220.622,88.345,30.720,487.228,-106.286,164.320,-636.780,109.400,-635.060
683,43513.946000,226.518,86.337,28.672,489.191,-100.822,161.456,-604.780,141.400,-474.060
684,43513.986000,233.397,76.298,27.648,493.052,-96.036,169.520,-568.780,387.400,-382.060
685,43514.26000,252.069,77.302,27.648,489.139,-106.046,175.269,-600.780,485.400,-282.060
686,43514.74000,234.380,73.286,64.512,483.667,-92.164,186.498,-429.780,624.400,-242.060
687,43514.109000,227.501,91.357,83.968,476.975,-98.431,198.290,-273.780,572.400,-201.060
688,43514.149000,221.605,88.345,89.088,477.040,-94.590,207.324,-79.780,572.400,-146.060
689,43514.169000,212.760,88.345,108.544,470.549,-86.198,219.428,6.220,593.400,-103.060
690,43514.209000,200.967,118.463,141.312,464.863,-88.671,237.271,142.220,522.400,12.940
691,43514.243000,194.088,107.420,151.552,459.169,-90.480,242.197,133.220,319.400,192.940
692,43514.284000,193.106,78.306,154.624,452.451,-97.819,246.009,169.220,223.400,293.940
693,43514.326000,206.864,93.365,141.312,451.435,-103.270,248.876,249.220,96.400,404.940
694,43514.366000,211.777,94.369,140.288,446.719,-102.377,250.877,253.220,-14.600,431.940
695,43514.394000,216.691,84.329,139.264,446.537,-116.060,253.570,218.220,-61.600,428.940
696,43514.431000,210.795,83.325,130.048,444.639,-116.144,250.581,184.220,-87.600,437.940
697,43514.471000,196.054,77.302,120.832,442.585,-128.059,251.319,34.220,-62.600,425.940
698,43514.513000,191.140,71.278,110.592,443.489,-130.854,248.277,-52.780,-72.600,390.940
699,43514.551000,197.036,76.298,98.304,438.544,-146.510,246.942,-111.780,-71.600,374.940
700,43514.586000,199.985,78.306,94.208,436.605,-149.381,241.905,-132.780,-1.600,335.940
701,43514.604000,207.846,73.286,97.280,436.344,-168.600,242.490,-164.780,48.400,328.940
702,43514.644000,245.190,50.196,82.944,428.756,-169.675,239.472,-251.780,122.400,422.940
703,43514.684000,257.965,22.086,77.824,424.910,-174.286,240.363,-331.780,175.400,476.940
704,43514.724000,264.845,3.012,74.752,418.004,-194.606,235.941,-354.780,116.400,512.940
705,43514.764000,288.430,-14.055,80.896,415.042,-203.786,236.736,-388.780,98.400,452.940
706,43514.811000,311.033,-26.102,98.304,403.461,-220.426,236.365,-161.780,135.400,387.940
707,43514.851000,290.395,-25.098,102.400,405.316,-223.150,236.310,47.220,-82.600,361.940
708,43514.864000,235.363,-16.063,62.464,405.206,-230.596,230.183,148.220,-345.600,193.940
709,43514.904000,215.708,-19.075,46.080,409.022,-227.875,226.268,351.220,-420.600,26.940
710,43514.946000,221.605,3.012,33.792,415.783,-216.950,218.554,495.220,-563.600,-47.060
711,43514.991000,236.345,5.020,21.504,423.331,-217.884,212.577,572.220,-556.600,13.940
712,43515.24000,243.225,6.024,9.216,430.069,-208.771,205.819,557.220,-707.600,193.940
713,43515.66000,251.086,-6.024,15.360,432.838,-212.633,193.805,504.220,-769.600,411.940
714,43515.86000,257.965,-2.008,41.984,435.604,-217.293,187.742,142.220,-557.600,370.940
715,43515.126000,255.017,-1.004,50.176,436.410,-226.617,178.593,-101.780,-280.600,177.940
716,43515.166000,241.259,14.055,45.056,439.238,-226.717,171.633,-293.780,-140.600,49.940
717,43515.207000,234.380,23.090,31.744,436.339,-230.536,165.579,-622.780,76.400,-73.060
718,43515.251000,247.155,20.078,30.720,437.109,-242.589,157.367,-821.780,195.400,-38.060
719,43515.291000,254.035,-2.008,34.816,437.133,-240.776,156.411,-831.780,290.400,36.940
720,43515.316000,243.225,-9.035,30.720,437.905,-252.810,149.193,-748.780,174.400,-14.060
721,43515.351000,238.311,-14.055,22.528,437.003,-249.217,146.285,-406.780,107.400,-5.060
722,43515.391000,251.086,0.000,24.576,437.962,-248.288,146.306,-12.780,-42.600,-145.060
723,43515.431000,248.138,9.035,29.696,439.873,-246.509,142.368,157.220,-201.600,-164.060
724,43515.467000,255.017,11.043,32.768,443.721,-241.878,142.472,327.220,-249.600,-124.060
725,43515.507000,259.931,14.055,38.912,447.555,-238.183,141.562,495.220,-263.600,-78.060
726,43515.527000,252.069,12.047,32.768,449.556,-229.952,139.751,510.220,-323.600,-58.060
727,43515.567000,244.207,12.047,21.504,452.481,-223.521,138.897,451.220,-208.600,-64.060
728,43515.606000,238.311,19.075,20.480,452.536,-219.798,141.960,402.220,-94.600,-100.060
729,43515.654000,245.190,21.082,25.600,452.632,-213.287,147.072,366.220,108.400,-89.060
730,43515.687000,244.207,22.086,38.912,452.681,-210.402,154.096,226.220,270.400,-63.060
731,43515.737000,260.914,21.082,29.696,448.961,-206.612,163.123,181.220,241.400,-76.060
732,43515.772000,254.035,27.106,33.792,451.819,-205.581,167.128,133.220,104.400,-33.060
733,43515.792000,248.138,23.090,40.960,451.783,-208.309,168.064,113.220,-42.600,13.940
734,43515.834000,247.155,20.078,44.032,451.755,-210.181,166.035,87.220,-159.600,40.940
735,43515.872000,245.190,23.090,43.008,448.925,-209.341,164.060,107.220,-228.600,19.940
736,43515.913000,249.121,20.078,40.960,451.757,-209.382,160.084,88.220,-195.600,11.940
737,43515.946000,251.086,10.039,40.960,453.714,-204.756,161.180,116.220,-135.600,-19.060
738,43515.986000,253.052,14.055,33.792,451.804,-205.756,158.172,144.220,-69.600,-62.060
739,43516.6000,251.086,23.090,25.600,458.469,-202.881,160.233,46.220,23.400,-86.060
740,43516.46000,248.138,24.094,38.912,459.456,-200.081,162.283,-91.780,103.400,-79.060
741,43516.87000,252.069,17.067,20.480,456.541,-205.635,161.166,-156.780,67.400,-90.060
742,43516.126000,247.155,18.071,28.672,456.541,-205.635,161.166,-131.780,59.400,-44.060
743,43516.167000,249.121,13.051,38.912,458.494,-201.049,160.272,-6.780,-53.600,-6.060
744,43516.207000,249.121,12.047,37.888,460.405,-199.270,156.334,0.220,-102.600,-18.060
745,43516.227000,248.138,19.075,34.816,457.489,-204.824,155.217,-70.780,-136.600,-34.060
746,43516.267000,254.035,25.098,40.960,461.280,-203.935,151.263,-183.780,-66.600,-59.060
747,43516.308000,250.104,23.090,35.840,461.313,-201.246,148.336,-305.780,-38.600,-18.060
748,43516.348000,244.207,21.082,35.840,464.108,-204.035,144.302,-518.780,100.400,14.940
749,43516.388000,238.311,16.063,28.672,454.529,-212.444,142.120,-532.780,269.400,23.940
750,43516.428000,235.363,14.055,27.648,454.546,-211.469,145.125,-694.780,417.400,-167.060
751,43516.472000,227.501,18.071,34.816,458.341,-210.542,143.161,-752.780,295.400,-37.060
752,43516.492000,229.466,1.004,53.248,452.513,-221.611,142.916,-447.780,201.400,64.940
753,43516.526000,254.035,14.055,73.728,452.559,-218.765,147.950,-163.780,332.400,-6.060
754,43516.566000,281.551,16.063,88.064,451.530,-225.132,150.797,-1.780,93.400,24.940
755,43516.612000,259.931,10.039,66.560,448.739,-221.524,149.875,213.220,-35.600,13.940
756,43516.652000,248.138,21.082,53.248,447.839,-218.691,154.907,352.220,-40.600,1.940
757,43516.692000,232.415,25.098,57.344,449.783,-214.982,155.984,307.220,-84.600,-43.060
758,43516.712000,217.674,20.078,51.200,451.677,-214.937,156.982,134.220,-112.600,-80.060
759,43516.752000,213.743,25.098,38.912,456.493,-208.501,155.137,122.220,-141.600,-152.060
760,43516.792000,226.518,31.122,37.888,457.474,-205.779,153.207,79.220,-115.600,-194.060
761,43516.832000,230.449,24.094,35.840,460.450,-195.664,153.427,106.220,-182.600,-226.060
762,43516.872000,255.017,23.090,28.672,463.332,-192.040,149.530,189.220,-112.600,-223.060
763,43516.907000,302.188,30.118,29.696,464.400,-182.905,147.736,231.220,-107.600,-190.060
764,43516.927000,272.706,53.208,28.672,466.325,-180.190,144.813,294.220,-233.600,-13.060
765,43516.967000,286.464,57.224,40.960,471.057,-180.128,144.821,77.220,35.400,28.940
766,43517.7000,280.568,45.176,53.248,465.322,-184.725,147.699,64.220,-112.600,223.940
767,43517.48000,245.190,35.137,32.768,464.252,-193.879,148.497,31.220,-32.600,337.940
768,43517.111000,227.501,16.063,49.152,460.302,-205.858,147.242,-158.780,154.400,295.940
769,43517.133000,224.553,13.051,53.248,456.480,-208.657,147.177,-235.780,72.400,185.940
770,43517.167000,225.536,11.043,41.984,460.238,-210.458,146.149,-362.780,-14.600,132.940
771,43517.187000,226.518,12.047,39.936,455.420,-216.154,139.058,-427.780,-35.600,-43.060
772,43517.228000,233.397,11.043,44.032,460.068,-221.686,133.974,-449.780,-68.600,-172.060
773,43517.269000,211.777,10.039,55.296,464.847,-217.219,125.125,-506.780,-96.600,-272.060
774,43517.309000,209.812,-4.016,31.744,465.911,-207.363,113.400,-530.780,-303.600,-290.060
775,43517.358000,244.207,2.008,16.384,473.601,-197.400,102.683,-380.780,-325.600,-385.060
776,43517.399000,306.119,26.102,50.176,477.417,-194.680,98.768,-154.780,-20.600,-413.060
777,43517.407000,333.635,30.118,75.776,477.525,-187.253,103.899,-42.780,150.400,-120.060
778,43517.453000,272.706,52.204,39.936,476.526,-190.969,101.829,87.220,-82.600,91.940
779,43517.487000,213.743,47.184,35.840,475.472,-199.168,104.637,-3.780,180.400,148.940
780,43517.527000,233.397,37.145,58.368,476.519,-192.587,112.736,138.220,251.400,-11.060
781,43517.567000,245.190,37.145,59.392,473.742,-188.044,112.829,79.220,103.400,-92.060
782,43517.608000,229.466,55.216,58.368,470.846,-192.603,115.711,272.220,56.400,-117.060
783,43517.628000,227.501,51.200,70.656,476.661,-183.230,122.882,71.220,164.400,-148.060
784,43517.672000,221.605,65.255,72.704,477.555,-186.902,121.810,-208.780,25.400,-303.060
785,43517.714000,248.138,63.247,39.936,480.583,-172.343,115.162,-377.780,-20.600,-239.060
786,43517.756000,250.104,66.259,30.720,480.531,-176.027,114.089,-415.780,-167.600,-216.060
787,43517.793000,259.931,49.192,20.480,483.371,-174.430,100.202,-619.780,-235.600,-60.060
788,43517.833000,283.516,34.133,9.216,482.380,-176.509,88.221,-607.780,-322.600,107.940
789,43517.867000,288.430,28.110,13.312,484.064,-190.480,74.996,-655.780,-261.600,256.940
790,43517.893000,276.637,20.078,13.312,476.386,-197.227,62.905,-667.780,-247.600,431.940
791,43517.933000,258.948,0.000,13.312,473.413,-206.524,57.730,-510.780,-185.600,526.940
792,43517.973000,232.415,-18.071,15.360,463.724,-222.379,49.421,-205.780,-82.600,683.940
793,43518.7000,228.484,-15.059,30.720,461.582,-240.727,49.027,7.220,76.400,613.940
794,43518.47000,222.587,-20.078,45.056,451.073,-248.953,56.794,249.220,212.400,592.940
795,43518.87000,228.484,-26.102,47.104,443.303,-265.251,71.355,387.220,245.400,450.940
796,43518.107000,256.983,25.098,28.672,437.568,-270.608,82.173,684.220,271.400,400.940
797,43518.154000,284.499,18.071,57.344,434.758,-269.534,92.138,809.220,-12.600,411.940
798,43518.199000,266.810,-77.302,67.584,426.099,-281.322,103.810,618.220,-45.600,532.940
799,43518.234000,236.345,-47.184,72.704,419.463,-283.086,111.720,712.220,-109.600,459.940
800,43518.268000,215.708,-23.090,63.488,420.385,-285.666,119.624,501.220,-61.600,37.940
801,43518.308000,234.380,-6.024,65.536,422.313,-283.691,125.636,365.220,92.400,-213.060
802,43518.328000,260.914,-15.059,43.008,423.341,-278.104,129.735,187.220,117.400,-115.060
803,43518.376000,264.845,-8.031,23.552,426.199,-277.072,133.740,77.220,63.400,-25.060
804,43518.409000,258.948,-2.008,47.104,425.264,-276.188,132.763,-112.780,99.400,-8.060
805,43518.451000,229.466,-5.020,56.320,430.966,-274.281,132.812,-133.780,-3.600,30.940
806,43518.499000,235.363,0.000,70.656,426.222,-275.260,132.784,20.220,54.400,20.940
807,43518.534000,233.397,8.031,77.824,426.249,-273.408,133.818,64.220,110.400,15.940
808,43518.574000,192.123,-5.020,68.608,425.274,-276.071,138.733,248.220,-81.600,108.940
809,43518.594000,199.985,-2.008,46.080,423.345,-278.825,139.666,319.220,-29.600,147.940
810,43518.634000,269.758,-29.114,22.528,420.541,-276.913,145.671,360.220,-28.600,254.940
811,43518.681000,303.171,-23.090,14.336,414.821,-279.795,142.617,346.220,-176.600,251.940
812,43518.708000,306.119,-14.055,61.440,412.857,-286.038,152.428,549.220,-99.600,112.940
813,43518.748000,296.292,-27.106,107.520,416.653,-285.871,158.405,431.220,173.400,21.940
814,43518.788000,252.069,-23.090,91.136,412.980,-279.215,173.460,679.220,183.400,-121.060
815,43518.809000,216.691,-8.031,59.392,416.059,-262.512,182.772,463.220,150.400,-235.060
816,43518.851000,213.743,-6.024,53.248,419.923,-257.686,192.827,627.220,63.400,-197.060
817,43518.894000,202.933,3.012,29.696,420.047,-249.304,199.968,1020.220,-200.600,-65.060
818,43518.934000,219.639,3.012,20.480,423.039,-239.013,209.143,1192.220,-333.600,176.940
819,43518.974000,209.812,-13.051,28.672,423.061,-237.980,215.133,1008.220,-267.600,241.940
820,43519.14000,297.274,6.024,30.720,422.330,-223.159,224.399,800.220,30.400,103.940
821,43519.39000,289.413,22.086,22.528,423.297,-222.133,229.396,354.220,-296.600,15.940
822,43519.68000,249.121,31.122,59.392,427.133,-217.638,222.534,-296.780,1.400,-303.060
823,43519.108000,248.138,-5.020,63.488,429.014,-217.750,215.572,-709.780,117.400,-148.060
824,43519.149000,250.104,-25.098,51.200,428.936,-223.286,213.465,-614.780,154.400,-60.060
825,43519.191000,233.397,-9.035,63.488,425.920,-236.169,212.192,-410.780,195.400,-14.060
826,43519.231000,236.345,-3.012,63.488,426.932,-231.537,214.281,-318.780,226.400,-4.060
827,43519.278000,247.155,8.031,50.176,425.970,-232.504,212.270,25.220,19.400,-2.060
828,43519.295000,239.294,-4.016,65.536,425.943,-235.136,218.182,265.220,26.400,-22.060
829,43519.334000,229.466,-5.020,65.536,428.014,-222.246,220.448,397.220,-32.600,-10.060
830,43519.374000,242.242,-7.027,55.296,425.172,-223.082,226.394,381.220,-12.600,77.940
831,43519.416000,236.345,-4.016,40.960,427.072,-222.200,223.432,485.220,-169.600,65.940
832,43519.456000,253.052,-2.008,26.624,427.172,-215.650,230.534,453.220,-191.600,4.940
833,43519.511000,263.862,-14.055,24.576,427.156,-216.605,228.524,438.220,-248.600,-100.060
834,43519.519000,276.637,-4.016,-1.024,436.825,-200.984,224.893,435.220,-374.600,-220.060
835,43519.566000,246.173,16.063,8.192,442.569,-195.510,220.044,199.220,-363.600,-383.060
836,43519.596000,235.363,26.102,12.288,454.129,-179.883,215.421,-262.780,-213.600,-576.060
837,43519.629000,239.294,14.055,43.008,457.069,-171.737,208.636,-512.780,-118.600,-704.060
838,43519.683000,248.138,5.020,32.768,464.687,-167.232,199.792,-712.780,-160.600,-654.060
839,43519.711000,279.585,5.020,44.032,468.566,-159.151,189.028,-725.780,-108.600,-496.060
840,43519.731000,287.447,47.184,50.176,476.145,-157.414,179.130,-348.780,-257.600,-408.060
841,43519.769000,230.449,100.392,67.584,480.088,-145.513,176.405,-225.780,-162.600,-367.060
842,43519.811000,198.019,120.471,84.992,481.139,-138.113,179.548,-49.780,132.400,-339.060
843,43519.851000,225.536,74.290,64.512,483.038,-138.010,183.532,-230.780,340.400,-264.060
844,43519.889000,225.536,52.204,33.792,480.256,-134.305,187.585,-512.780,97.400,-241.060
845,43519.931000,267.793,56.220,39.936,481.228,-132.460,187.626,-423.780,207.400,-287.060
846,43519.951000,241.259,61.239,54.272,481.238,-131.564,186.650,-186.780,96.400,-228.060
847,43519.991000,224.553,59.231,48.128,482.326,-121.435,188.857,7.220,8.400,-202.060
848,43520.31000,228.484,54.212,47.104,484.206,-122.326,188.840,-22.780,15.400,-199.060
849,43520.71000,221.605,59.231,55.296,485.111,-125.101,186.793,-90.780,-88.600,-128.060
850,43520.111000,215.708,67.263,34.816,488.051,-116.954,180.009,-47.780,-144.600,-126.060
851,43520.151000,210.795,77.302,35.840,490.872,-117.892,177.009,-102.780,-160.600,-108.060
852,43520.192000,241.259,74.290,40.960,487.168,-111.607,173.159,-215.780,-108.600,-154.060
853,43520.212000,288.430,72.282,16.384,497.536,-114.257,171.128,-224.780,-177.600,-80.060
854,43520.252000,272.706,74.290,5.120,494.642,-117.257,160.119,-76.780,-290.600,68.940
855,43520.301000,288.430,61.239,10.240,490.780,-122.824,159.000,-140.780,-35.600,74.940
856,43520.336000,268.775,56.220,28.672,494.449,-131.058,156.841,-241.780,-103.600,276.940
857,43520.381000,239.294,37.145,23.552,489.703,-132.056,155.818,-203.780,-87.600,355.940
858,43520.416000,237.328,48.188,45.056,483.892,-141.390,150.638,-373.780,101.400,262.940
859,43520.436000,225.536,34.133,49.152,484.660,-154.242,148.376,-493.780,75.400,289.940
860,43520.474000,214.726,37.145,48.128,478.793,-168.079,147.079,-728.780,36.400,227.940
861,43520.516000,199.985,35.137,61.440,480.635,-170.958,139.063,-878.780,67.400,123.940
862,43520.556000,247.155,51.200,61.440,478.556,-183.946,131.821,-1013.780,109.400,-23.060
863,43520.596000,311.033,-6.024,22.528,477.557,-186.882,122.805,-721.780,-185.600,12.940
864,43520.636000,232.415,22.086,19.456,478.559,-182.367,118.924,-142.780,-112.600,0.940
865,43520.676000,256.000,10.039,73.728,473.691,-193.267,126.642,541.220,280.400,221.940
866,43520.696000,240.276,19.075,72.704,470.999,-183.890,139.768,887.220,153.400,197.940
867,43520.737000,241.259,62.243,40.960,470.045,-186.299,157.619,640.220,372.400,0.940
868,43520.769000,224.553,56.220,49.152,468.210,-182.562,162.669,304.220,147.400,87.940
869,43520.817000,240.276,33.129,78.848,468.315,-175.954,172.756,78.220,351.400,-47.060
870,43520.857000,219.639,37.145,71.680,466.350,-181.437,174.626,62.220,63.400,-45.060
871,43520.897000,219.639,44.173,59.392,465.374,-183.340,171.600,-181.780,19.400,-25.060
872,43520.923000,237.328,48.188,57.344,465.369,-183.399,168.615,-268.780,-27.600,-54.060
873,43520.958000,215.708,49.192,52.224,465.418,-178.974,160.752,-388.780,-228.600,-98.060
874,43520.991000,247.155,44.173,48.128,470.136,-179.068,152.800,-408.780,-248.600,-139.060
875,43521.31000,277.620,48.188,31.744,473.892,-180.129,142.836,-315.780,-342.600,-93.060
876,43521.77000,284.499,45.176,29.696,472.883,-183.962,134.796,-256.780,-324.600,24.940
877,43521.127000,268.775,22.086,10.240,477.521,-189.611,123.742,-88.780,-329.600,282.940
878,43521.137000,269.758,16.063,8.192,468.776,-206.253,121.385,143.220,-211.600,592.940
879,43521.183000,230.449,13.051,13.312,463.991,-210.019,119.309,323.220,-99.600,725.940
880,43521.212000,236.345,29.114,36.864,459.106,-222.654,131.963,190.220,268.400,603.940
881,43521.266000,257.965,45.176,38.912,446.614,-237.357,137.599,268.220,278.400,497.940
882,43521.296000,278.603,36.141,32.768,441.796,-244.593,145.395,210.220,164.400,429.940
883,43521.331000,227.501,-39.153,51.200,434.943,-261.210,143.042,70.220,-154.600,565.940
884,43521.351000,254.035,-52.204,90.112,430.099,-269.518,142.858,-204.780,59.400,443.940
885,43521.392000,238.311,-67.263,133.120,424.462,-266.805,144.897,-36.780,292.400,153.940
886,43521.433000,233.397,-61.239,68.608,424.358,-274.953,149.697,144.220,171.400,-97.060
887,43521.473000,250.104,-31.122,32.768,423.602,-261.964,158.924,320.220,238.400,-126.060
888,43521.513000,263.862,-25.098,41.984,426.490,-259.041,165.953,270.220,143.400,-94.060
889,43521.553000,248.138,17.067,58.368,423.720,-254.420,170.025,190.220,63.400,-148.060
890,43521.593000,220.622,19.075,70.656,428.447,-255.176,174.990,123.220,91.400,-104.060
891,43521.613000,224.553,48.188,78.848,428.504,-251.433,179.048,6.220,186.400,-190.060
892,43521.653000,236.345,30.118,67.584,427.638,-245.891,182.148,-48.780,109.400,-146.060
893,43521.693000,206.864,26.102,79.872,433.330,-244.880,183.173,30.220,47.400,-84.060
894,43521.733000,211.777,18.071,67.584,431.491,-241.201,185.238,23.220,-1.600,86.940
895,43521.773000,228.484,2.008,44.032,425.649,-252.426,177.033,56.220,-124.600,169.940
896,43521.813000,271.724,-10.039,36.864,425.645,-253.245,181.989,133.220,-133.600,201.940
897,43521.833000,285.482,-11.043,26.624,428.496,-251.531,174.073,242.220,-337.600,131.940
898,43521.873000,307.102,10.039,39.936,431.348,-251.337,182.038,477.220,-169.600,65.940
899,43521.913000,266.810,-4.016,62.464,427.570,-250.530,179.066,609.220,-239.600,42.940
900,43521.957000,231.432,11.043,52.224,431.391,-248.530,185.082,620.220,-219.600,-36.060
901,43522.3000,210.795,5.020,46.080,432.511,-236.472,192.302,615.220,-64.600,7.940
902,43522.31000,212.760,10.039,40.960,434.435,-234.536,196.325,541.220,29.400,-38.060
903,43522.78000,208.829,18.071,44.032,432.706,-223.412,204.516,574.220,-82.600,24.940
904,43522.98000,240.276,5.020,30.720,432.750,-220.585,208.555,598.220,-23.600,70.940
905,43522.143000,296.292,5.020,31.744,429.934,-219.589,214.540,358.220,-52.600,26.940
906,43522.178000,267.793,26.102,32.768,433.621,-226.069,208.440,15.220,-160.600,-43.060
907,43522.236000,254.035,4.016,96.256,435.623,-217.838,206.629,-610.780,155.400,-151.060
908,43522.253000,256.983,-1.004,76.800,431.708,-227.108,203.442,-519.780,146.400,-88.060
909,43522.304000,256.983,-16.063,44.032,431.692,-228.063,201.432,-260.780,131.400,45.940
910,43522.312000,237.328,8.031,35.840,429.828,-226.217,203.458,-57.780,155.400,19.940
911,43522.361000,252.069,0.000,53.248,426.015,-228.898,209.363,215.220,155.400,11.940
912,43522.402000,241.259,17.067,57.344,428.007,-222.324,216.468,498.220,98.400,-17.060
913,43522.454000,227.501,22.086,67.584,427.120,-219.334,229.461,611.220,190.400,-30.060
914,43522.478000,230.449,6.024,66.560,422.594,-205.440,240.691,533.220,202.400,4.940
915,43522.518000,227.501,0.000,49.152,421.679,-203.542,244.708,552.220,38.400,2.940
916,43522.538000,234.380,5.020,21.504,423.595,-202.484,250.702,510.220,-91.600,-4.060
917,43522.578000,256.983,-5.020,20.480,422.809,-190.606,249.959,426.220,-220.600,-142.060
918,43522.618000,272.706,9.035,31.744,431.485,-178.623,248.237,277.220,-252.600,-329.060
919,43522.658000,271.724,14.055,43.008,436.307,-171.349,242.431,19.220,-269.600,-503.060
920,43522.703000,249.121,31.122,50.176,438.255,-166.821,238.552,-169.780,-295.600,-648.060
921,43522.738000,259.931,31.122,52.224,449.867,-147.510,235.002,-255.780,-115.600,-674.060
922,43522.758000,262.879,46.180,40.960,457.527,-140.198,229.201,-163.780,-41.600,-551.060
923,43522.798000,237.328,58.227,56.320,458.630,-129.114,233.417,-163.780,176.400,-453.060
924,43522.837000,202.933,75.294,59.392,454.814,-131.834,237.332,27.220,153.400,-313.060
925,43522.874000,215.708,91.357,87.040,458.703,-124.416,239.485,-21.780,308.400,-279.060
926,43522.914000,232.415,87.341,106.496,457.925,-113.220,250.663,-144.780,322.400,-221.060
927,43522.954000,251.086,76.298,59.392,455.947,-118.859,244.572,-319.780,-101.600,-184.060
928,43522.994000,291.378,69.271,49.152,457.902,-114.254,244.673,-401.780,-2.600,-196.060
929,43523.14000,258.948,43.169,66.560,456.840,-122.550,242.506,-317.780,39.400,-17.060
930,43523.54000,219.639,44.173,80.896,459.643,-125.242,243.447,-72.780,19.400,27.940
931,43523.94000,201.950,46.180,82.944,457.835,-118.893,241.590,-49.780,145.400,49.940
932,43523.134000,206.864,42.165,81.920,453.911,-129.800,248.315,-177.780,145.400,8.940
933,43523.178000,206.864,52.204,57.344,453.074,-121.606,246.499,-23.780,-28.600,-4.060
934,43523.218000,206.864,35.137,52.224,456.813,-124.402,241.472,-63.780,-153.600,-7.060
935,43523.238000,211.777,70.275,68.608,458.757,-119.933,234.607,-53.780,-245.600,-250.060
936,43523.278000,282.534,74.290,54.272,461.553,-122.703,231.568,-206.780,-245.600,-384.060
937,43523.318000,263.862,77.302,21.504,469.295,-109.056,221.924,-157.780,-370.600,-181.060
938,43523.358000,253.052,69.271,18.432,473.043,-110.975,214.926,-165.780,-335.600,-172.060
939,43523.398000,258.948,79.310,61.440,474.983,-106.545,206.072,-322.780,-106.600,-141.060
940,43523.438000,247.155,65.255,67.584,475.751,-119.397,203.810,-507.780,-131.600,-48.060
941,43523.459000,224.553,65.255,56.320,479.525,-119.484,196.851,-534.780,-150.600,-75.060
942,43523.500000,222.587,88.345,73.728,479.531,-118.646,192.890,-562.780,3.400,-191.060
943,43523.533000,207.846,77.302,52.224,482.286,-123.442,179.862,-734.780,-206.600,-93.060
944,43523.573000,205.881,74.290,40.960,488.000,-119.859,171.990,-816.780,-346.600,-115.060
945,43523.613000,223.570,85.333,34.816,489.684,-133.830,158.765,-1068.780,-261.600,-77.060
946,43523.653000,315.946,7.027,-11.264,491.451,-141.427,143.686,-864.780,-562.600,134.940
947,43523.693000,254.035,40.157,-10.240,490.384,-148.242,123.647,-184.780,-592.600,120.940
948,43523.714000,217.674,34.133,62.464,490.341,-151.829,127.549,543.220,-18.600,281.940
949,43523.754000,233.397,40.157,76.800,482.794,-150.876,134.520,714.220,203.400,190.940
950,43523.794000,261.896,70.275,49.152,487.632,-144.186,145.611,504.220,113.400,65.940
951,43523.834000,218.656,74.290,22.528,487.662,-142.295,148.635,312.220,139.400,36.940
952,43523.876000,225.536,75.294,45.056,482.956,-141.285,156.607,38.220,269.400,-1.060
953,43523.926000,213.743,63.247,68.608,484.824,-143.093,156.571,-318.780,209.400,10.940
954,43523.933000,217.674,50.196,27.648,477.130,-152.334,157.358,-345.780,72.400,127.940
955,43523.973000,233.397,53.208,20.480,477.948,-161.522,155.174,-219.780,-42.600,202.940
956,43524.14000,250.104,61.239,20.480,478.900,-160.672,151.215,-201.780,3.400,182.940
957,43524.56000,266.810,65.255,31.744,475.049,-165.341,149.121,-80.780,-93.600,201.940
958,43524.96000,317.912,55.216,22.528,473.069,-171.779,148.981,-86.780,-30.600,431.940
959,43524.143000,273.689,32.125,29.696,467.027,-198.442,147.410,12.220,-74.600,670.940
960,43524.156000,200.967,-14.055,51.200,455.517,-210.404,152.111,144.220,70.400,982.940
961,43524.209000,209.812,-20.078,50.176,446.862,-221.373,158.827,338.220,292.400,898.940
962,43524.239000,221.605,10.039,70.656,435.238,-242.360,170.299,430.220,263.400,693.940
963,43524.273000,268.775,32.125,31.744,423.904,-242.257,183.215,639.220,267.400,500.940
964,43524.319000,262.879,-1.004,31.744,418.123,-251.239,195.945,470.220,195.400,295.940
965,43524.353000,212.760,-3.012,97.280,411.468,-253.997,199.855,169.220,62.400,248.940
966,43524.393000,231.432,-36.141,144.384,410.509,-254.926,199.834,-347.780,238.400,19.940
967,43524.421000,245.190,-18.071,131.072,413.357,-254.011,197.869,-178.780,104.400,-187.060
968,43524.454000,247.155,-10.039,60.416,414.367,-248.638,191.022,-63.780,-245.600,-118.060
969,43524.496000,286.464,-3.012,53.248,417.173,-250.531,186.013,-51.780,-77.600,-157.060
970,43524.536000,277.620,-7.027,64.512,419.051,-251.441,185.002,-48.780,-200.600,-165.060
971,43524.576000,244.207,33.129,58.368,422.856,-249.618,182.062,135.220,-154.600,-132.060
972,43524.616000,217.674,27.106,58.368,423.890,-243.192,182.200,-37.780,48.400,-5.060
973,43524.636000,211.777,27.106,50.176,420.978,-248.707,183.073,-137.780,23.400,50.940
974,43524.676000,215.708,39.153,68.608,417.205,-247.841,183.086,-368.780,208.400,11.940
975,43524.716000,217.674,20.078,87.040,416.993,-263.415,182.754,-438.780,218.400,141.940
976,43524.759000,216.691,3.012,69.632,414.172,-261.698,178.808,-239.780,101.400,264.940
977,43524.802000,227.501,-5.020,64.512,411.261,-267.194,180.676,-41.780,-0.600,329.940
978,43524.836000,236.345,-40.157,72.704,404.501,-277.339,181.445,80.220,31.400,456.940
979,43524.857000,264.845,-34.133,59.392,398.730,-284.665,185.259,406.220,-105.600,329.940
980,43524.896000,302.188,-18.071,40.960,397.790,-284.600,189.238,496.220,-168.600,255.940
981,43524.936000,292.361,-16.063,68.608,390.343,-276.337,195.370,499.220,-116.600,219.940
982,43524.976000,268.775,-24.094,75.776,394.161,-274.358,200.391,627.220,-107.600,169.940
983,43525.16000,231.432,2.008,65.536,396.060,-275.034,211.321,757.220,-67.600,-9.060
984,43525.56000,214.726,-4.016,71.680,393.407,-262.109,218.554,610.220,70.400,-84.060
985,43525.96000,213.743,-6.024,68.608,395.406,-255.456,229.640,722.220,45.400,-129.060
986,43525.116000,215.708,-3.012,51.200,394.637,-243.383,238.847,865.220,-36.600,-20.060
987,43525.156000,218.656,1.004,54.272,395.577,-244.989,249.756,936.220,-81.600,123.940
988,43525.196000,225.536,-17.067,36.864,391.043,-231.192,256.010,961.220,-153.600,181.940
989,43525.236000,301.205,-9.035,28.672,389.172,-230.184,261.997,511.220,-187.600,247.940
990,43525.276000,266.810,-8.031,40.960,391.035,-232.050,258.976,90.220,-250.600,121.940
991,43525.317000,250.104,-9.035,78.848,392.794,-241.283,253.809,-450.780,-6.600,5.940
992,43525.337000,258.948,-22.086,102.400,389.076,-235.934,248.944,-732.780,130.400,-84.060
993,43525.377000,248.138,-26.102,54.272,390.744,-251.620,241.650,-677.780,53.400,21.940
994,43525.421000,232.415,-30.118,47.104,391.684,-251.686,237.672,-404.780,202.400,19.940
995,43525.461000,220.622,-14.055,76.800,387.852,-255.361,239.577,-390.780,179.400,27.940
996,43525.502000,213.743,-14.055,63.488,385.842,-263.690,236.413,-103.780,14.400,36.940
997,43525.543000,217.674,-19.075,66.560,384.963,-259.063,239.494,210.220,90.400,33.940
998,43525.556000,242.242,-21.082,89.088,381.163,-260.828,245.419,364.220,112.400,-16.060
999,43525.597000,244.207,-21.082,79.872,383.239,-247.880,250.670,639.220,-15.600,-1.060
1000,43525.637000,245.190,-4.016,48.128,384.309,-239.486,257.813,797.220,-154.600,-20.060
1001,43525.677000,266.810,-7.027,34.816,388.312,-223.803,261.137,802.220,-266.600,-48.060
1002,43525.721000,268.775,-10.039,10.240,394.994,-219.953,266.202,809.220,-446.600,-86.060
1003,43525.757000,274.672,-8.031,0.000,399.807,-213.556,262.366,801.220,-560.600,-182.060
1004,43525.797000,254.035,20.078,-5.120,413.369,-190.458,263.873,749.220,-564.600,-343.060
1005,43525.821000,247.155,30.118,24.576,416.341,-180.402,261.107,475.220,-180.600,-499.060
1006,43525.857000,234.380,39.153,48.128,425.147,-159.198,262.566,275.220,141.400,-565.060
1007,43525.901000,243.225,43.169,40.960,417.679,-152.710,271.645,76.220,419.400,-456.060
1008,43525.941000,255.017,18.071,23.552,417.706,-151.618,280.620,-323.780,448.400,-364.060
1009,43525.982000,249.121,31.122,24.576,415.874,-147.862,286.665,-302.780,439.400,-303.060
1010,43526.22000,240.276,42.165,47.104,410.192,-148.755,291.611,-127.780,441.400,-308.060
1011,43526.41000,240.276,49.192,66.560,403.775,-134.866,303.833,41.220,428.400,-292.060
1012,43526.89000,240.276,46.180,59.392,404.790,-130.975,314.858,178.220,335.400,-239.060
1013,43526.122000,238.311,58.227,59.392,402.950,-127.296,316.923,67.220,316.400,-262.060
1014,43526.166000,239.294,35.137,64.512,395.531,-117.163,325.085,89.220,342.400,-139.060
1015,43526.202000,236.345,21.082,75.776,389.915,-113.436,332.118,357.220,412.400,-154.060
1016,43526.238000,232.415,43.169,99.328,381.684,-94.037,346.444,762.220,342.400,-270.060
1017,43526.258000,233.397,63.247,96.256,379.133,-73.763,354.828,955.220,303.400,-253.060
1018,43526.302000,228.484,90.353,129.024,372.696,-60.888,362.055,1108.220,355.400,-224.060
1019,43526.342000,217.674,105.412,137.216,368.270,-39.665,373.441,1050.220,311.400,-124.060
1020,43526.382000,214.726,114.447,139.264,360.040,-19.486,380.821,964.220,342.400,13.940
1021,43526.416000,207.846,120.471,131.072,353.587,-8.326,393.979,837.220,382.400,170.940
1022,43526.456000,191.140,112.439,125.952,342.406,3.570,401.179,721.220,410.400,239.940
1023,43526.502000,194.088,88.345,101.376,345.296,7.292,402.257,535.220,77.400,491.940
1024,43526.522000,198.019,80.314,113.664,342.304,-3.779,400.027,382.220,-68.600,624.940
1025,43526.562000,222.587,87.341,119.808,348.005,-1.891,399.081,222.220,-113.600,680.940
1026,43526.596000,230.449,81.318,106.496,345.836,-22.090,397.654,-186.780,-98.600,625.940
1027,43526.637000,221.605,74.290,112.640,354.193,-33.088,391.464,-554.780,-169.600,542.940
1028,43526.677000,228.484,66.259,78.848,355.690,-61.561,385.887,-896.780,-254.600,333.940
1029,43526.718000,221.605,58.227,77.824,362.102,-76.268,378.621,-950.780,-398.600,222.940
1030,43526.738000,219.639,45.176,57.344,370.392,-91.126,362.403,-960.780,-509.600,177.940
1031,43526.778000,230.449,28.110,50.176,378.545,-116.062,345.970,-976.780,-388.600,132.940
1032,43526.818000,247.155,23.090,56.320,380.261,-128.102,337.759,-986.780,-187.600,94.940
1033,43526.858000,252.069,24.094,56.320,380.852,-153.040,326.288,-998.780,53.400,123.940
1034,43526.898000,242.242,12.047,52.224,376.896,-165.098,321.053,-1011.780,108.400,168.940
1035,43526.938000,222.587,-14.055,61.440,371.965,-179.039,313.786,-1099.780,181.400,216.940
1036,43526.958000,224.553,-33.129,59.392,371.703,-197.498,306.431,-923.780,116.400,247.940
1037,43527.7000,264.845,-29.114,46.080,369.593,-213.156,303.110,-536.780,124.400,199.940
1038,43527.42000,262.879,-32.125,56.320,366.701,-216.897,301.037,-222.780,143.400,64.940
1039,43527.87000,264.845,-25.098,62.464,365.748,-216.987,297.055,-152.780,207.400,-62.060
1040,43527.122000,264.845,-8.031,94.208,359.945,-226.224,296.850,-316.780,207.400,-175.060
1041,43527.157000,259.931,-23.090,86.016,362.873,-219.754,297.987,-284.780,71.400,-183.060
1042,43527.197000,253.052,-28.110,87.040,362.718,-230.806,294.767,-382.780,-32.600,-126.060
1043,43527.217000,252.069,-33.129,83.968,370.300,-229.030,286.859,-336.780,-176.600,-39.060
1044,43527.264000,243.225,-33.129,83.968,370.195,-235.657,275.777,-282.780,-346.600,97.940
1045,43527.304000,233.397,-41.161,89.088,374.816,-243.041,269.659,-292.780,-361.600,109.940
