Sample, Time, ACCX, ACCY, ACCZ, MAGX, MAGY, MAGZ, GYRX, GYRY, GYRZ
0,82582.709000,256.988,5.532,6.973,488.021,156.756,170.835,67.960,33.510,-240.020
1,82582.749000,256.988,2.515,7.969,485.105,155.713,168.844,70.960,45.510,-261.020
2,82582.789000,253.035,8.550,15.938,486.152,163.533,170.981,58.960,44.510,-275.020
3,82582.829000,250.069,16.597,16.934,481.287,160.573,170.905,-18.040,-0.490,-277.020
4,82582.869000,247.104,23.639,24.903,486.199,168.387,171.089,-105.040,-108.490,-268.020
5,82582.909000,249.081,17.603,38.848,485.204,167.234,163.216,-145.040,-465.490,-189.020
6,82582.949000,264.896,26.656,24.903,487.141,170.792,147.609,-98.040,-666.490,-117.020
7,82582.989000,300.479,30.680,33.868,492.955,175.336,131.050,-274.040,-637.490,-126.020
8,82583.29000,267.861,3.521,-4.981,489.041,172.235,124.109,-338.040,-491.490,-71.020
9,82583.49000,238.208,3.521,-26.895,489.931,165.340,119.054,-280.040,-328.490,-54.020
10,82583.89000,218.440,-2.515,-20.918,494.766,166.250,114.181,117.960,-99.490,-81.020
11,82583.129000,222.394,10.562,-15.938,488.003,166.271,118.090,876.960,194.510,-44.020
12,82583.167000,219.429,22.633,-15.938,486.186,177.945,120.307,1180.960,511.510,-7.020
13,82583.207000,232.278,15.591,-15.938,484.306,181.098,132.141,1133.960,688.510,43.980
14,82583.247000,248.093,15.591,-15.938,484.274,175.510,142.804,876.960,783.510,135.980
15,82583.287000,263.907,-31.686,-114.553,477.555,176.825,161.452,554.960,762.510,251.980
16,82583.327000,256.988,15.591,-97.619,476.542,171.982,162.323,-435.040,291.510,65.980
17,82583.367000,253.035,88.016,34.864,477.549,174.128,171.198,-208.040,217.510,-2.020
18,82583.390000,274.780,20.621,29.883,476.609,175.262,179.067,37.960,62.510,113.980
19,82583.434000,245.127,19.615,18.926,478.478,169.369,175.017,-18.040,8.510,114.980
20,82583.467000,251.058,-1.509,24.903,479.427,167.437,174.976,2.960,-46.490,121.980
21,82583.507000,251.058,18.609,15.938,481.270,158.653,171.843,137.960,-89.490,165.980
22,82583.550000,257.977,-1.509,11.953,480.293,157.673,171.820,68.960,-87.490,164.980
23,82583.590000,257.977,16.597,8.965,483.234,162.469,168.010,65.960,-15.490,178.980
24,82583.630000,256.000,6.538,9.961,486.072,155.723,168.846,96.960,28.510,191.980
25,82583.670000,254.023,2.515,14.942,484.052,146.966,168.648,117.960,61.510,193.980
26,82583.690000,255.012,5.532,17.930,486.025,149.984,172.642,70.960,60.510,187.980
27,82583.731000,253.035,1.509,16.934,486.015,149.013,172.620,40.960,55.510,186.980
28,82583.771000,250.069,-2.515,21.914,485.961,144.094,169.569,46.960,27.510,188.980
29,82583.807000,251.058,-11.568,21.914,484.019,142.241,174.427,127.960,-18.490,187.980
30,82583.850000,255.012,-0.503,16.934,488.769,133.529,173.263,163.960,-49.490,176.980
31,82583.890000,254.023,-3.521,16.934,487.790,132.527,172.258,125.960,-72.490,161.980
32,82583.934000,254.023,-8.550,17.930,488.785,135.449,172.325,61.960,-100.490,125.980
33,82583.967000,256.000,-7.544,14.942,492.634,133.524,171.309,54.960,-110.490,99.980
34,82584.7000,253.035,-5.532,13.946,490.635,126.730,172.135,22.960,-115.490,83.980
35,82584.27000,254.023,-8.550,8.965,491.596,126.675,169.194,1.960,-104.490,68.980
36,82584.67000,255.012,-9.556,9.961,493.522,125.723,169.177,-15.040,-74.490,49.980
37,82584.107000,256.000,-8.550,5.977,492.596,129.640,171.223,-41.040,-57.490,36.980
38,82584.147000,254.023,-5.532,7.969,503.297,135.591,172.359,-102.040,-48.490,22.980
39,82584.187000,256.000,-10.562,8.965,505.230,135.588,171.382,-93.040,-48.490,27.980
40,82584.227000,255.012,-13.580,5.977,509.043,129.801,171.261,-65.040,-41.490,-6.020
41,82584.267000,254.023,-8.550,4.981,506.178,133.656,171.341,-68.040,-16.490,-7.020
42,82584.307000,256.988,-10.562,5.977,511.008,132.754,172.312,-91.040,0.510,-21.020
43,82584.347000,253.035,-5.532,8.965,504.251,134.586,170.377,-157.040,5.510,-52.020
44,82584.367000,254.023,-12.574,8.965,507.157,134.658,172.346,-94.040,2.510,-27.020
45,82584.407000,252.046,-10.562,8.965,509.994,127.890,172.202,-86.040,-0.490,-35.020
46,82584.447000,252.046,-11.568,10.957,507.087,127.818,170.233,-44.040,-15.490,-31.020
47,82584.487000,253.035,-11.568,7.969,509.137,139.509,171.477,-38.040,-38.490,-34.020
48,82584.527000,255.012,-12.574,8.965,510.107,140.425,168.558,-8.040,-46.490,-40.020
49,82584.567000,255.012,-10.562,6.973,505.251,138.436,168.503,-13.040,-55.490,-55.020
50,82584.607000,254.023,-7.544,6.973,502.349,138.408,168.496,-1.040,-56.490,-65.020
51,82584.647000,253.035,-9.556,3.984,502.307,134.481,166.448,-10.040,-55.490,-83.020
52,82584.667000,254.023,-4.527,5.977,508.123,135.530,167.464,-47.040,-69.490,-96.020
53,82584.709000,251.058,-2.515,8.965,502.389,143.197,165.661,-18.040,-105.490,-102.020
54,82584.751000,252.046,-0.503,8.965,504.356,147.919,158.905,-56.040,-182.490,-91.020
55,82584.791000,253.035,0.503,2.988,506.234,142.998,154.877,-52.040,-231.490,-83.020
56,82584.831000,254.023,-3.521,3.984,508.151,142.844,147.033,-40.040,-292.490,-93.020
57,82584.871000,256.000,2.515,-0.996,506.226,144.681,143.147,-52.040,-351.490,-99.020
58,82584.912000,259.954,10.562,0.000,509.170,151.268,132.512,-134.040,-445.490,-102.020
59,82584.952000,276.757,22.633,2.988,510.065,146.185,121.614,-232.040,-526.490,-87.020
60,82584.992000,301.467,40.739,16.934,511.943,143.011,108.798,-362.040,-631.490,-58.020
61,82585.12000,295.537,39.733,19.922,506.098,142.567,91.124,-531.040,-861.490,-12.020
62,82585.52000,302.456,3.521,1.992,512.785,138.296,70.450,-413.040,-829.490,64.980
63,82585.92000,270.826,-31.686,-83.673,505.962,135.102,60.558,-355.040,-710.490,205.980
64,82585.132000,229.313,-42.750,-131.486,500.997,125.907,41.711,-359.040,-895.490,283.980
65,82585.172000,177.915,-28.668,-131.486,500.860,115.789,22.853,-51.040,-853.490,287.980
66,82585.212000,134.425,-0.503,-89.650,497.821,105.642,3.989,563.960,-608.490,256.980
67,82585.254000,125.529,-3.521,-68.732,498.803,109.319,-5.734,771.960,-127.490,143.980
68,82585.292000,161.112,23.639,-62.755,503.595,103.649,-0.946,303.960,256.510,-36.020
69,82585.332000,230.301,-25.650,-198.226,507.483,103.859,6.912,70.960,224.510,-65.020
70,82585.354000,262.919,-53.815,-81.681,508.495,107.817,9.944,128.960,276.510,35.980
71,82585.400000,266.873,-15.591,-43.829,510.354,98.299,17.582,-397.040,226.510,166.980
72,82585.434000,253.035,15.591,-64.747,513.288,100.399,23.519,-259.040,144.510,96.980
73,82585.474000,261.931,-7.544,-50.802,515.251,102.446,27.491,183.960,144.510,32.980
74,82585.511000,272.803,4.527,-37.852,513.248,95.609,26.354,181.960,50.510,-0.020
75,82585.552000,265.884,9.556,-33.868,514.227,95.727,31.262,94.960,-83.490,6.980
76,82585.592000,307.398,63.874,-25.899,511.321,97.424,21.487,108.960,-240.490,77.980
77,82585.632000,293.560,138.310,-20.918,513.155,87.670,18.332,-343.040,-282.490,71.980
78,82585.650000,242.162,26.656,-145.432,509.308,93.134,3.736,570.960,-624.490,-9.020
79,82585.692000,217.452,88.016,-171.331,505.419,96.440,-20.716,463.960,-834.490,-49.020
80,82585.732000,146.286,181.564,-83.673,493.083,125.034,-38.740,-2244.040,-732.490,-796.020
81,82585.772000,117.622,136.299,-8.965,479.899,161.816,-36.970,-1996.040,-1.490,-1283.020
82,82585.812000,146.286,127.246,-19.922,463.926,205.819,-14.453,-1374.040,767.510,-1458.020
83,82585.849000,228.324,48.786,-102.599,458.472,236.420,11.712,-852.040,1363.510,-1313.020
84,82585.890000,276.757,-63.874,-149.416,442.402,268.040,44.742,-605.040,1208.510,-1087.020
85,82585.929000,284.664,-201.682,-253.012,430.950,283.525,48.004,1679.960,699.510,-283.020
86,82585.977000,213.498,-75.945,-3.984,431.824,279.112,23.391,2584.960,622.510,189.980
87,82585.995000,302.456,-119.198,24.903,440.454,269.661,31.045,-897.040,154.510,873.980
88,82586.39000,269.838,93.045,-49.805,450.977,255.417,40.557,-739.040,165.510,737.980
89,82586.74000,262.919,46.774,-31.875,455.665,239.067,45.108,269.960,366.510,713.980
90,82586.114000,306.409,39.733,-9.961,456.626,238.127,46.069,202.960,298.510,554.980
91,82586.150000,252.046,53.815,-36.856,461.302,220.785,49.617,-55.040,188.510,409.980
92,82586.192000,260.942,20.621,-39.844,461.257,215.068,54.393,84.960,191.510,338.980
93,82586.232000,256.988,17.603,-35.860,466.077,212.310,59.246,22.960,210.510,279.980
94,82586.281000,264.896,23.639,-14.942,468.903,202.802,66.886,-100.040,232.510,195.980
95,82586.312000,262.919,19.615,-16.934,467.923,200.916,69.784,-48.040,159.510,112.980
96,82586.334000,270.826,18.609,-11.953,464.974,196.033,69.669,-25.040,20.510,-57.020
97,82586.374000,265.884,3.521,-23.907,463.100,201.883,71.756,201.960,-29.490,-249.020
98,82586.416000,279.722,-40.739,9.961,458.395,216.312,68.144,78.960,-117.490,-531.020
99,82586.452000,336.062,-2.515,89.650,456.553,226.865,63.471,-89.040,-424.490,-597.020
100,82586.492000,454.672,-27.662,175.315,448.825,231.299,47.863,-257.040,-1065.490,-520.020
101,82586.532000,318.270,-191.623,-61.759,444.907,229.039,35.056,-875.040,-1162.490,-224.020
102,82586.572000,244.139,-241.917,-281.899,443.881,224.952,26.137,-1660.040,-1246.490,201.980
103,82586.610000,127.506,-165.470,-86.661,447.480,201.258,6.005,1069.960,-942.490,784.980
104,82586.632000,79.073,-102.098,-61.759,453.029,177.733,-7.254,2393.960,-174.490,1212.980
105,82586.672000,49.421,-20.621,-90.646,465.223,137.209,-2.244,1747.960,632.510,1279.980
106,82586.712000,99.830,70.916,-102.599,474.602,101.014,24.431,1416.960,1078.510,1127.980
107,82586.752000,186.811,66.892,-134.475,479.228,70.856,62.998,1466.960,1552.510,970.980
108,82586.792000,289.606,149.375,-205.198,480.221,64.954,103.076,1308.960,1522.510,764.980
109,82586.832000,279.722,136.299,-154.397,481.141,54.823,127.370,-1780.040,688.510,-0.020
110,82586.872000,304.432,133.281,-96.623,482.065,47.368,140.936,-286.040,520.510,-67.020
111,82586.919000,357.807,201.682,-3.984,484.155,63.848,139.345,885.960,138.510,-418.020
112,82586.954000,332.108,13.580,70.724,479.391,70.662,142.428,609.960,-29.490,-259.020
113,82586.974000,277.745,-3.521,0.996,483.367,82.285,139.752,-271.040,-195.490,-251.020
114,82587.14000,256.988,-33.697,-12.949,482.403,84.067,132.925,-82.040,-186.490,-221.020
115,82587.55000,256.988,-28.668,-28.887,483.385,85.975,131.008,-111.040,-119.490,-238.020
116,82587.94000,273.792,-4.527,-11.953,479.614,95.689,133.177,-133.040,28.510,-264.020
117,82587.130000,252.046,-59.851,-22.911,479.604,94.718,133.156,-232.040,36.510,-224.020
118,82587.175000,266.873,2.515,-9.961,476.758,100.515,133.278,128.960,146.510,-228.020
119,82587.217000,235.243,-53.815,-0.996,474.847,103.365,131.376,-251.040,-6.490,-212.020
120,82587.261000,248.093,-50.798,-1.992,471.881,96.562,132.200,361.960,-15.490,-55.020
121,82587.291000,260.942,-6.538,-27.891,467.966,90.807,136.967,663.960,-7.490,-44.020
122,82587.317000,260.942,35.709,-21.914,472.930,101.750,147.027,-132.040,-192.490,22.980
123,82587.351000,261.931,-0.503,-4.981,479.790,113.229,136.509,7.960,-222.490,124.980
124,82587.394000,262.919,-16.597,-1.992,482.678,112.243,134.532,-399.040,-289.490,155.980
125,82587.434000,257.977,-48.786,-20.918,488.317,97.500,123.429,-873.040,-361.490,184.980
126,82587.471000,269.838,-24.644,-28.887,488.225,88.697,120.291,-1158.040,-341.490,43.980
127,82587.515000,273.792,-5.532,-30.879,486.274,87.643,117.322,-1028.040,-335.490,-164.020
128,82587.551000,303.444,11.568,-25.899,487.254,89.529,114.424,-1452.040,-348.490,-291.020
129,82587.594000,278.734,12.574,-32.872,489.163,87.541,111.442,-2154.040,-321.490,-294.020
130,82587.615000,241.174,-40.739,-73.712,484.253,80.634,108.336,-1130.040,-140.490,-256.020
131,82587.654000,202.625,-92.039,-220.140,486.210,83.500,105.462,-641.040,-302.490,-115.020
132,82587.695000,190.764,-58.845,-252.016,487.153,85.042,86.866,-430.040,-960.490,-150.020
133,82587.735000,170.996,2.515,-177.307,483.290,92.987,52.711,204.960,-1393.490,-271.020
134,82587.775000,163.089,57.839,-135.471,483.329,105.695,12.786,680.960,-1401.490,-477.020
135,82587.816000,146.286,93.045,-94.630,475.679,122.318,-22.165,773.960,-1196.490,-630.020
136,82587.856000,147.274,94.051,-83.673,473.801,134.295,-50.343,554.960,-719.490,-768.020
137,82587.891000,176.927,69.910,-99.611,464.249,150.339,-66.678,598.960,-333.490,-712.020
138,82587.936000,203.614,5.532,-70.724,467.194,156.063,-72.429,273.960,135.510,-306.020
139,82587.954000,231.290,23.639,126.506,468.208,159.157,-64.512,270.960,576.510,41.980
140,82587.995000,346.934,-0.503,-282.895,473.041,154.760,-45.967,-227.040,594.510,380.980
141,82588.35000,347.923,51.804,-48.809,480.642,136.777,-28.699,672.960,849.510,609.980
142,82588.75000,287.629,23.639,-62.755,485.284,112.941,-11.566,474.960,822.510,682.980
143,82588.116000,272.803,-19.615,-52.794,491.126,113.364,5.127,142.960,798.510,723.980
144,82588.156000,271.815,-10.562,-65.743,490.115,105.005,22.591,98.960,727.510,520.980
145,82588.194000,256.000,7.544,-55.782,493.962,101.311,29.382,97.960,679.510,389.980
146,82588.234000,249.081,-17.603,-43.829,493.080,106.522,46.167,-190.040,623.510,469.980
147,82588.274000,238.208,-29.674,-44.825,493.315,132.541,37.919,-233.040,517.510,410.980
148,82588.295000,243.151,-24.644,-45.821,528.479,197.735,-101.775,-227.040,518.510,351.980
149,82588.336000,249.081,-15.591,-36.856,576.899,11.086,-139.158,-378.040,481.510,324.980
150,82588.394000,259.954,-43.756,-17.930,533.378,-25.304,34.500,-423.040,402.510,250.980
151,82588.416000,257.977,-28.668,-15.938,519.651,244.501,87.531,-528.040,256.510,154.980
152,82588.452000,242.162,-25.650,-18.926,507.632,0.050,95.810,-359.040,133.510,130.980
153,82588.492000,236.232,-45.768,0.996,506.744,7.851,97.942,-162.040,-162.490,194.980
154,82588.539000,253.035,-37.721,-11.953,506.648,-1.879,96.745,-44.040,-351.490,250.980
155,82588.576000,251.058,-25.650,-30.879,509.471,-7.892,86.811,9.960,-453.490,283.980
156,82588.616000,278.734,-23.639,-30.879,509.385,-13.998,73.927,-99.040,-443.490,266.980
157,82588.632000,275.768,117.187,-62.755,513.216,-15.211,61.159,-810.040,-518.490,156.980
158,82588.675000,316.293,123.222,-9.961,521.736,-27.488,28.543,-2473.040,-812.490,263.980
159,82588.715000,406.239,-28.668,3.984,528.351,-38.620,4.774,-1843.040,-1416.490,554.980
160,82588.755000,494.208,-91.033,-221.136,520.295,-58.457,-55.504,-900.040,-2596.490,1061.980
161,82588.795000,337.050,70.916,-137.463,492.134,-53.574,-129.985,-932.040,-3364.490,546.980
162,82588.836000,272.803,-22.633,-54.786,452.583,-26.452,-203.016,-1125.040,-2977.490,-690.020
163,82588.875000,26.687,46.774,103.595,426.878,22.182,-230.430,181.960,-1380.490,-1669.020
164,82588.916000,-22.734,95.057,226.117,425.444,70.987,-216.601,-221.040,1074.510,-2293.020
165,82588.936000,6.919,40.739,88.654,437.521,112.566,-184.271,-262.040,2386.510,-2229.020
166,82588.976000,159.135,-45.768,-83.673,449.756,161.826,-111.564,373.960,3406.510,-2039.020
167,82589.14000,328.154,-75.945,-395.455,455.070,193.739,-30.430,1913.960,3576.510,-1773.020
168,82589.56000,337.050,-195.646,-361.588,438.081,228.456,11.492,1939.960,2420.510,-1578.020
169,82589.95000,240.185,-133.281,-446.257,434.494,257.544,12.131,2017.960,664.510,-735.020
170,82589.136000,197.683,-111.151,3.984,437.351,257.141,-7.486,1925.960,366.510,11.980
171,82589.177000,325.189,19.615,-44.825,443.993,241.867,1.015,-470.040,416.510,668.980
172,82589.219000,280.710,57.839,-54.786,448.850,241.224,13.760,-90.040,512.510,573.980
173,82589.252000,256.000,52.809,-53.790,451.677,230.853,26.284,-466.040,598.510,524.980
174,82589.272000,324.201,13.580,1.992,458.394,222.461,38.861,58.960,537.510,457.980
175,82589.312000,240.185,16.597,-67.735,465.089,212.107,50.413,-196.040,259.510,442.980
176,82589.352000,244.139,-9.556,-60.763,467.916,203.484,54.150,-199.040,245.510,283.980
177,82589.396000,261.931,-9.556,-39.844,463.993,195.895,63.780,-25.040,248.510,117.980
178,82589.436000,273.792,44.762,-14.942,464.013,196.089,72.610,-25.040,394.510,110.980
179,82589.476000,281.699,23.639,-2.988,462.019,189.339,75.398,-1.040,222.510,-10.020
180,82589.516000,254.023,8.550,-8.965,463.055,196.166,76.533,-141.040,-18.490,-169.020
181,82589.557000,258.965,-44.762,-13.946,459.225,200.917,73.688,-178.040,-114.490,-359.020
182,82589.597000,327.166,-64.880,77.696,456.333,202.745,69.800,-136.040,-325.490,-599.020
183,82589.617000,427.985,-129.257,130.490,447.766,219.855,57.413,-362.040,-770.490,-679.020
184,82589.657000,359.784,-232.864,28.887,443.924,225.362,44.779,-1241.040,-1109.490,-133.020
185,82589.697000,192.741,-189.611,-133.479,438.938,208.918,49.306,-2949.040,-908.490,121.980
186,82589.732000,221.405,-239.906,-305.805,444.606,196.224,43.153,942.960,-1095.490,1012.980
187,82589.772000,82.039,-49.792,-64.747,454.754,151.970,11.791,3271.960,-320.490,1460.980
188,82589.825000,78.085,69.910,-44.825,463.086,112.357,15.833,2631.960,446.510,1558.980
189,82589.854000,160.124,108.134,-42.833,471.556,82.000,43.616,1342.960,1259.510,1074.980
190,82589.894000,256.000,164.464,-122.521,474.401,65.631,92.292,1056.960,1709.510,740.980
191,82589.914000,268.849,180.558,-121.525,475.320,51.962,132.197,-241.040,1448.510,204.980
192,82589.954000,306.409,20.621,-255.004,465.731,54.457,161.653,-970.040,953.510,60.980
193,82589.994000,310.363,240.912,9.961,466.757,59.428,166.668,623.960,157.510,-385.020
194,82590.39000,421.066,-23.639,182.288,466.972,81.736,166.183,966.960,-128.490,-204.020
195,82590.79000,245.127,-16.597,-53.790,470.829,82.529,156.402,-452.040,-570.490,-338.020
196,82590.119000,213.498,-59.851,-46.817,471.888,93.110,151.736,463.960,-103.490,-322.020
197,82590.157000,299.490,34.703,15.938,466.086,93.075,152.704,-75.040,120.510,-302.020
198,82590.197000,260.942,-11.568,-17.930,463.285,103.705,151.953,-78.040,-190.490,-203.020
199,82590.236000,235.243,-90.028,-34.864,466.252,111.392,147.227,-161.040,-115.490,-230.020
200,82590.256000,269.838,8.550,-19.922,465.322,115.266,147.311,222.960,95.510,-253.020
201,82590.294000,243.151,-43.756,-6.973,459.527,117.065,143.416,-208.040,42.510,-238.020
202,82590.336000,260.942,-31.686,-8.965,458.492,110.238,142.282,364.960,100.510,-136.020
203,82590.379000,255.012,50.798,-16.934,454.658,111.430,154.068,619.960,215.510,-134.020
204,82590.416000,258.965,-0.503,-8.965,455.732,118.624,171.882,-359.040,11.510,10.980
205,82590.456000,248.093,-9.556,5.977,465.522,131.275,169.241,-195.040,-54.490,47.980
206,82590.495000,254.023,-3.521,-3.984,469.353,128.292,164.280,-546.040,-248.490,-16.020
207,82590.536000,261.931,-34.703,15.938,470.267,124.267,157.328,-635.040,-403.490,-65.020
208,82590.576000,262.919,-22.633,-11.953,468.217,114.345,148.277,-1039.040,-511.490,-190.020
209,82590.596000,310.363,82.986,-27.891,469.237,121.022,142.543,-1738.040,-523.490,-441.020
210,82590.637000,360.772,39.733,24.903,471.130,117.998,136.596,-1228.040,-495.490,-395.020
211,82590.677000,281.699,-128.251,-55.782,469.097,109.112,130.511,-1257.040,-405.490,-109.020
212,82590.717000,247.104,-149.375,-209.183,468.925,96.017,108.645,-1336.040,-812.490,271.980
213,82590.757000,184.834,-66.892,-274.926,475.563,86.870,86.882,-938.040,-1670.490,311.980
214,82590.797000,147.274,21.627,-191.253,474.515,87.853,43.752,144.960,-1774.490,168.980
215,82590.836000,116.633,72.927,-132.482,480.210,86.853,-4.310,650.960,-1619.490,-156.020
216,82590.874000,105.761,114.169,-114.553,476.361,97.581,-44.287,695.960,-1375.490,-446.020
217,82590.914000,111.691,101.092,-100.607,468.696,112.307,-77.319,458.960,-875.490,-720.020
218,82590.934000,143.320,56.833,-88.654,462.988,126.382,-96.632,390.960,-423.490,-674.020
219,82590.974000,178.903,-0.503,-54.786,461.072,129.189,-100.496,644.960,105.510,-446.020
220,82591.14000,219.429,19.615,61.759,469.847,135.207,-95.441,1145.960,1087.510,-79.020
221,82591.54000,473.452,-72.927,-222.132,475.602,125.102,-72.117,-252.040,1041.510,258.980
222,82591.101000,353.853,67.898,-50.802,480.333,109.162,-48.925,664.960,1194.510,599.980
223,82591.134000,301.467,5.532,-63.751,485.146,101.938,-26.520,470.960,1052.510,464.980
224,82591.174000,289.606,-30.680,-46.817,489.912,89.860,-4.223,80.960,1005.510,540.980
225,82591.214000,254.023,18.609,-77.696,490.023,97.087,15.551,-95.040,893.510,424.980
226,82591.239000,268.849,-48.786,-34.864,489.944,85.761,30.009,48.960,753.510,325.980
227,82591.280000,252.046,-19.615,-36.856,484.309,102.295,34.287,-381.040,668.510,359.980
228,82591.321000,263.907,-8.550,-43.829,485.544,136.565,3.669,-380.040,546.510,350.980
229,82591.355000,249.081,-26.656,-40.840,522.931,127.484,-117.075,-428.040,478.510,296.980
230,82591.395000,253.035,-47.780,-29.883,545.860,-17.285,-47.671,-489.040,421.510,235.980
231,82591.435000,241.174,-24.644,-33.868,523.887,-11.310,57.346,-521.040,316.510,197.980
232,82591.475000,244.139,-56.833,-17.930,512.400,-4.973,85.901,-425.040,206.510,169.980
233,82591.520000,238.208,-48.786,-10.957,505.716,1.973,95.848,-398.040,7.510,143.980
234,82591.555000,248.093,-33.697,-2.988,506.632,-2.915,93.780,-235.040,-214.490,167.980
235,82591.580000,248.093,15.591,-38.848,507.579,-2.215,81.049,-671.040,-544.490,145.980
236,82591.619000,259.954,-51.804,-42.833,515.221,-10.122,71.083,-462.040,-482.490,187.980
237,82591.655000,265.884,57.839,-55.782,519.895,-23.969,57.056,-719.040,-533.490,102.980
238,82591.695000,319.259,82.986,-14.942,524.655,-26.425,31.515,-1780.040,-750.490,159.980
239,82591.736000,401.297,-52.809,-20.918,525.437,-37.871,-4.041,-1929.040,-1236.490,693.980
240,82591.775000,512.988,-32.692,-195.237,515.485,-52.075,-72.043,-1182.040,-2683.490,1020.980
241,82591.817000,467.521,15.591,-185.276,493.071,-57.383,-127.125,-1009.040,-3526.490,806.980
242,82591.857000,308.386,0.503,-3.984,457.310,-38.034,-202.282,-1112.040,-3096.490,-226.020
243,82591.895000,62.270,42.750,124.514,426.543,-11.842,-233.147,190.960,-1487.490,-1147.020
244,82591.919000,-31.629,90.028,226.117,426.992,32.085,-221.384,499.960,1016.510,-1963.020
245,82591.959000,-4.942,87.010,100.607,448.883,83.014,-165.290,103.960,2478.510,-2320.020
246,82591.997000,159.135,-43.756,-90.646,462.092,130.579,-81.831,1048.960,3748.510,-2177.020
247,82592.39000,328.154,-110.145,-389.479,464.468,163.888,-24.208,1777.960,3771.510,-1961.020
248,82592.76000,385.483,-126.240,-398.444,445.605,200.937,36.395,1499.960,2266.510,-1598.020
249,82592.119000,377.575,-240.912,-492.078,434.334,234.006,44.950,1760.960,534.510,-811.020
250,82592.155000,147.274,-81.980,-41.837,437.243,238.500,27.404,2007.960,254.510,33.980
251,82592.195000,301.467,104.110,-61.759,445.831,223.353,40.815,-722.040,296.510,812.980
252,82592.219000,279.722,-40.739,-42.833,450.481,201.351,53.085,367.960,678.510,595.980
253,82592.260000,339.027,78.963,-11.953,453.417,201.702,67.809,-218.040,546.510,410.980
254,82592.307000,235.243,45.768,-67.735,451.394,192.040,70.533,-197.040,386.510,379.980
255,82592.341000,239.197,-61.862,-50.802,456.234,188.591,88.118,-264.040,461.510,288.980
256,82592.387000,256.000,-64.880,-23.907,455.230,182.951,96.817,-149.040,534.510,91.980
257,82592.419000,257.977,39.733,-26.895,456.149,175.452,108.420,-221.040,428.510,67.980
258,82592.460000,262.919,-9.556,-4.981,455.156,171.667,113.237,-125.040,202.510,84.980
259,82592.500000,257.977,43.756,6.973,457.116,174.577,112.326,-104.040,33.510,87.980
260,82592.540000,286.641,30.680,6.973,456.135,172.669,114.242,-179.040,-34.490,46.980
261,82592.560000,249.081,-8.550,-20.918,458.087,175.493,109.406,-159.040,-165.490,-105.020
262,82592.614000,255.012,-88.016,-14.942,450.385,180.185,105.571,121.960,-148.490,-445.020
263,82592.642000,279.722,-70.916,8.965,450.409,183.939,99.771,-58.040,-193.490,-640.020
264,82592.682000,384.494,-55.827,118.537,442.867,206.884,87.515,-71.040,-556.490,-779.020
265,82592.721000,344.958,-221.800,0.996,435.145,211.383,74.850,-352.040,-834.490,-416.020
266,82592.760000,231.290,-153.399,-256.000,435.002,198.567,65.740,-2203.040,-1117.490,166.980
267,82592.799000,237.220,-211.741,-216.156,439.506,170.762,34.731,153.960,-1481.490,765.980
268,82592.836000,88.958,-44.762,-37.852,448.881,145.096,10.646,2859.960,-720.490,1475.980
269,82592.879000,81.050,92.039,-29.883,456.209,104.244,2.890,2331.960,48.510,1537.980
270,82592.899000,101.807,122.216,-24.903,465.651,76.571,19.947,1157.960,715.510,982.980
271,82592.936000,165.066,45.768,-48.809,470.384,57.136,60.714,1513.960,1531.510,840.980
272,82592.976000,257.977,123.222,-97.619,468.475,49.437,108.591,1140.960,1819.510,517.980
273,82593.16000,273.792,50.798,-275.922,466.540,41.500,145.676,-1789.040,1157.510,-27.020
274,82593.56000,299.490,287.183,56.778,467.566,45.587,154.595,-80.040,197.510,-203.020
275,82593.96000,381.529,100.086,80.685,464.793,59.129,153.909,1388.960,-91.490,-490.020
276,82593.136000,285.652,-61.862,18.926,469.739,71.668,148.314,375.960,-280.490,-270.020
277,82593.176000,239.197,-36.715,-50.802,469.785,77.385,143.537,63.960,-238.490,-276.020
278,82593.196000,263.907,-16.597,-31.875,466.887,77.400,145.493,17.960,-29.490,-225.020
279,82593.240000,276.757,-0.503,-18.926,466.979,87.087,144.728,-263.040,-39.490,-258.020
280,82593.276000,249.081,-39.733,-21.914,466.932,82.233,144.620,-333.040,-22.490,-210.020
281,82593.320000,259.954,-57.839,-25.899,466.068,92.903,144.855,-271.040,77.510,-225.020
282,82593.359000,247.104,-15.591,-9.961,463.189,94.859,146.853,-662.040,0.510,-291.020
283,82593.401000,252.046,-43.756,-20.918,462.182,91.830,141.881,-14.040,-16.490,-164.020
284,82593.436000,267.861,-12.574,-16.934,459.252,89.773,137.906,-261.040,-7.490,-174.020
285,82593.479000,232.278,-81.980,-9.961,456.387,91.859,145.792,804.960,152.510,-60.020
286,82593.517000,234.255,83.992,-3.984,453.603,101.777,156.793,238.960,-50.490,19.980
287,82593.537000,267.861,32.692,-12.949,463.324,105.841,160.827,-297.040,-216.490,150.980
288,82593.577000,289.606,-66.892,43.829,470.109,109.553,150.136,-794.040,-413.490,225.980
289,82593.617000,295.537,-21.627,1.992,470.800,84.018,135.841,-1701.040,-578.490,361.980
290,82593.659000,248.093,5.532,-56.778,470.605,65.421,128.564,-2909.040,-498.490,538.980
291,82593.700000,237.220,0.503,-93.634,475.182,40.074,121.146,-2321.040,-391.490,231.980
292,82593.740000,270.826,11.568,-66.739,477.004,30.212,113.086,-1512.040,-238.490,-161.020
293,82593.777000,254.023,13.580,-81.681,473.093,27.132,107.125,-2000.040,-229.490,-307.020
294,82593.817000,240.185,-64.880,-94.630,475.040,29.028,104.229,-913.040,-95.490,-288.020
295,82593.857000,213.498,-110.145,-221.136,473.084,27.931,99.298,-328.040,-393.490,-169.020
296,82593.877000,174.950,-46.774,-235.082,478.007,42.001,75.104,-254.040,-986.490,-230.020
297,82593.917000,147.274,20.621,-195.237,478.029,51.904,40.020,365.960,-1406.490,-447.020
298,82593.964000,136.402,70.916,-125.510,479.983,61.783,2.978,751.960,-1400.490,-623.020
299,82594.0,148.263,99.081,-104.591,478.191,84.267,-32.811,1184.960,-1042.490,-918.020
300,82594.37000,159.135,74.939,-77.696,472.535,105.009,-57.860,976.960,-647.490,-991.020
301,82594.82000,181.869,71.921,-50.802,474.725,133.010,-65.079,477.960,-100.490,-837.020
302,82594.122000,254.023,5.532,-27.891,472.838,137.846,-64.976,683.960,493.510,-380.020
303,82594.158000,235.243,78.963,-171.331,478.618,133.263,-55.259,1050.960,1083.510,-143.020
304,82594.182000,329.143,34.703,-57.774,480.579,131.772,-35.674,498.960,972.510,416.980
305,82594.222000,265.884,91.033,-110.568,487.196,111.860,-17.470,398.960,952.510,621.980
306,82594.270000,254.023,-37.721,-73.712,486.146,98.733,3.811,250.960,1016.510,597.980
307,82594.310000,285.652,-76.951,-25.899,493.939,100.210,23.474,-203.040,980.510,488.980
308,82594.342000,267.861,13.580,-57.774,493.953,96.823,45.954,3.960,859.510,338.980
309,82594.400000,260.942,0.503,-39.844,492.022,95.078,55.717,75.960,738.510,349.980
310,82594.422000,247.104,-2.515,-36.856,490.293,117.281,51.303,-383.040,558.510,411.980
311,82594.462000,261.931,-16.597,-31.875,507.883,152.597,-27.309,-220.040,440.510,374.980
312,82594.500000,249.081,-32.692,-26.895,554.119,43.243,-78.672,-339.040,363.510,341.980
313,82594.520000,248.093,-40.739,-20.918,531.537,-15.614,34.711,-478.040,230.510,285.980
314,82594.557000,251.058,-25.650,-29.883,512.376,-6.958,83.896,-541.040,140.510,244.980
315,82594.602000,253.035,-26.656,-26.895,505.676,-1.932,94.781,-183.040,46.510,213.980
316,82594.642000,237.220,-34.703,-18.926,503.731,-3.806,98.658,-222.040,-88.490,221.980
317,82594.680000,249.081,-46.774,-17.930,506.594,-7.683,97.597,-189.040,-303.490,267.980
318,82594.721000,251.058,-44.762,-34.864,509.459,-9.769,89.711,-69.040,-358.490,257.980
319,82594.757000,260.942,-6.538,-40.840,506.400,-23.627,78.610,-185.040,-433.490,225.980
320,82594.804000,259.954,66.892,-62.755,511.215,-22.911,64.907,-814.040,-570.490,107.980
321,82594.837000,296.525,173.517,-32.872,518.786,-33.256,32.331,-2809.040,-959.490,161.980
322,82594.859000,349.900,-20.621,-4.981,521.581,-38.664,5.739,-1115.040,-1379.490,392.980
323,82594.899000,486.301,-110.145,-155.393,516.469,-56.316,-44.677,-448.040,-2219.490,723.980
324,82594.955000,392.402,52.809,-132.482,495.974,-59.987,-114.429,-472.040,-3160.490,367.980
325,82594.984000,177.915,12.574,34.864,463.284,-25.788,-177.481,-1299.040,-2715.490,-468.020
326,82595.19000,37.560,104.110,115.549,442.382,18.169,-199.105,-378.040,-848.490,-1655.020
327,82595.59000,9.884,81.980,161.370,444.935,77.820,-179.143,-458.040,919.510,-2111.020
328,82595.99000,14.826,74.939,33.868,452.275,123.840,-119.266,-257.040,2562.510,-2133.020
329,82595.139000,142.332,-29.674,-111.564,449.801,156.972,-67.542,841.960,3298.510,-1737.020
330,82595.159000,297.514,-98.075,-339.673,445.426,190.408,-1.104,2034.960,3022.510,-1534.020
331,82595.199000,315.305,-156.417,-308.794,427.432,223.001,32.924,2281.960,2057.510,-1240.020
332,82595.239000,288.618,-176.534,-478.132,417.946,243.209,29.429,2159.960,973.510,-507.020
333,82595.279000,287.629,-156.417,-93.634,418.927,246.864,18.725,1737.960,358.510,92.980
334,82595.319000,289.606,60.857,-59.767,427.503,231.610,27.231,-410.040,285.510,677.980
335,82595.365000,270.826,97.069,-81.681,437.145,225.231,41.819,43.960,525.510,591.980
336,82595.401000,274.780,29.674,-47.813,439.023,217.656,49.501,-11.040,662.510,565.980
337,82595.442000,338.039,47.780,0.996,444.802,212.189,63.121,107.960,518.510,371.980
338,82595.482000,233.266,26.656,-75.704,447.689,208.550,72.853,80.960,448.510,312.980
339,82595.501000,264.896,-26.656,-37.852,446.661,199.155,87.352,64.960,652.510,49.980
340,82595.542000,263.907,17.603,-18.926,442.844,201.383,102.103,-82.040,561.510,-8.020
341,82595.579000,256.988,7.544,2.988,444.816,203.516,110.000,47.960,426.510,57.980
342,82595.621000,255.012,39.733,2.988,444.787,200.603,109.935,119.960,227.510,46.980
343,82595.661000,271.815,23.639,15.938,443.789,197.660,108.887,7.960,-16.490,-50.020
344,82595.699000,279.722,26.656,-3.984,439.923,199.413,102.053,25.960,-279.490,-179.020
345,82595.739000,273.792,-49.792,2.988,437.019,201.132,93.259,120.960,-294.490,-397.020
346,82595.779000,358.795,-22.633,84.669,430.362,215.370,81.793,-83.040,-487.490,-621.020
347,82595.819000,405.251,-93.045,110.568,427.548,227.640,67.350,-133.040,-807.490,-668.020
348,82595.839000,296.525,-165.470,-73.712,421.702,226.310,53.579,-888.040,-940.490,-350.020
349,82595.879000,214.486,-178.546,-182.288,417.800,223.317,51.543,-2004.040,-951.490,-77.020
350,82595.919000,223.382,-238.900,-272.934,418.520,202.463,29.507,1489.960,-1048.490,757.980
351,82595.959000,72.154,-56.833,-63.751,429.798,174.745,-0.504,2574.960,-498.490,1221.980
352,82595.999000,66.224,40.739,-52.794,443.000,139.905,-2.231,1668.960,384.510,1365.980
353,82596.39000,127.506,61.862,-45.821,454.400,113.351,20.740,730.960,870.510,1176.980
354,82596.79000,224.371,56.833,-71.720,458.959,76.397,59.156,622.960,1372.510,1178.980
355,82596.119000,259.954,156.417,-60.763,459.870,60.894,103.924,490.960,1676.510,985.980
356,82596.139000,294.548,211.741,-101.603,459.810,48.877,131.116,-1168.040,1411.510,361.980
357,82596.179000,420.077,137.305,-87.658,459.812,44.497,152.593,-689.040,298.510,-102.020
358,82596.225000,367.691,232.864,-5.977,463.847,61.083,154.931,1852.960,135.510,-464.020
359,82596.259000,332.108,-61.862,76.700,461.065,73.654,154.223,392.960,-174.490,-226.020
360,82596.300000,245.127,-24.644,-46.817,460.157,80.376,151.429,-293.040,-248.490,-313.020
361,82596.340000,272.803,1.509,-27.891,457.330,88.115,151.595,114.960,-20.490,-252.020
362,82596.379000,258.965,-18.609,-17.930,457.290,84.210,150.527,-281.040,-28.490,-252.020
363,82596.419000,252.046,-40.739,-21.914,459.291,91.025,150.683,-221.040,33.510,-206.020
364,82596.464000,270.826,-12.574,-27.891,455.512,99.789,153.811,67.960,257.510,-289.020
365,82596.484000,229.313,-57.839,-0.996,453.488,90.990,151.650,-698.040,103.510,-294.020
366,82596.522000,257.977,-33.697,-4.981,448.693,94.869,153.688,205.960,70.510,-141.020
367,82596.566000,231.290,-80.974,0.000,445.704,86.081,152.506,273.960,38.510,-77.020
368,82596.600000,245.127,97.069,-10.957,446.811,97.115,168.443,580.960,-79.490,-25.020
369,82596.642000,259.954,11.568,-21.914,454.704,112.746,169.788,-287.040,-233.490,42.980
370,82596.682000,261.931,-11.568,0.000,460.497,113.580,160.992,-413.040,-275.490,102.980
371,82596.724000,260.942,-67.898,5.977,461.350,103.686,151.949,-900.040,-317.490,100.980
372,82596.764000,274.780,-11.568,-19.922,462.245,96.835,148.857,-1595.040,-376.490,43.980
373,82596.804000,253.035,-22.633,-40.840,463.100,86.963,140.794,-1502.040,-370.490,-110.020
374,82596.824000,316.293,28.668,-15.938,467.856,80.063,133.786,-1832.040,-358.490,-284.020
375,82596.864000,288.618,10.562,-32.872,459.003,66.257,127.577,-2622.040,-446.490,-169.020
376,82596.904000,217.452,-51.804,-115.549,466.667,58.565,127.423,-1643.040,-235.490,-24.020
377,82596.940000,216.463,-37.721,-291.860,462.710,52.400,113.548,-903.040,-672.490,114.980
378,82596.986000,187.799,-40.739,-284.887,472.333,52.883,87.101,-153.040,-1239.490,44.980
379,82597.24000,158.147,25.650,-205.198,477.154,60.698,43.155,655.960,-1568.490,-206.020
380,82597.71000,138.378,75.945,-148.420,479.039,64.643,1.078,475.960,-1645.490,-522.020
381,82597.105000,132.448,87.010,-91.642,472.350,82.981,-44.620,627.960,-1314.490,-789.020
382,82597.142000,140.355,53.815,-80.685,471.569,107.653,-69.571,758.960,-831.490,-783.020
383,82597.164000,177.915,5.532,-64.747,469.683,115.142,-81.177,663.960,-138.490,-506.020
384,82597.204000,204.602,3.521,25.899,470.705,121.840,-85.929,833.960,397.510,-140.020
385,82597.244000,196.695,6.538,-21.914,480.394,120.316,-71.233,389.960,1213.510,54.980
386,82597.284000,380.541,59.851,-46.817,483.178,102.480,-45.145,98.960,1094.510,427.980
387,82597.324000,329.143,150.381,-67.735,486.097,99.143,-21.677,787.960,1118.510,491.980
388,82597.364000,272.803,-31.686,-57.774,491.755,79.307,0.450,419.960,1043.510,581.980
389,82597.404000,261.931,-57.839,-54.786,490.795,75.846,19.984,-180.040,1004.510,536.980
390,82597.444000,260.942,-21.627,-50.802,490.732,66.439,33.504,46.960,921.510,324.980
391,82597.464000,256.988,-7.544,-30.879,490.850,74.616,52.319,61.960,799.510,254.980
392,82597.500000,259.954,10.562,-34.864,487.931,72.667,53.250,-428.040,540.510,334.980
393,82597.547000,264.896,-6.538,-30.879,485.276,107.590,9.890,-491.040,378.510,331.980
394,82597.586000,254.023,-33.697,-35.860,523.375,68.767,-95.822,-484.040,295.510,284.980
395,82597.620000,256.000,-31.686,-35.860,528.421,-32.665,10.790,-621.040,281.510,237.980
396,82597.664000,254.023,-12.574,-33.868,511.261,-21.595,80.627,-694.040,228.510,214.980
397,82597.704000,247.104,-44.762,-9.961,500.646,-21.440,92.376,-528.040,70.510,204.980
398,82597.745000,251.058,-53.815,6.973,498.762,-16.561,94.441,-467.040,-204.490,180.980
399,82597.784000,255.012,-34.703,-11.953,506.425,-22.505,85.500,-300.040,-513.490,237.980
400,82597.801000,232.278,-11.568,-69.728,508.255,-30.533,72.577,-269.040,-543.490,179.980
401,82597.845000,251.058,24.644,-79.689,506.200,-39.635,56.680,-624.040,-479.490,72.980
402,82597.885000,296.525,109.139,-21.914,512.854,-47.746,37.881,-1457.040,-609.490,97.980
403,82597.925000,361.761,4.527,18.926,519.532,-51.218,9.379,-1183.040,-1083.490,502.980
404,82597.972000,512.988,-82.986,-177.307,518.288,-72.370,-25.416,-779.040,-2122.490,919.980
405,82598.4000,422.054,-11.568,-166.350,496.812,-77.065,-97.154,-1016.040,-3117.490,690.980
406,82598.41000,357.807,36.715,-83.673,465.808,-65.479,-174.434,-886.040,-3334.490,-160.020
407,82598.84000,128.494,14.585,107.580,435.069,-34.626,-214.021,532.960,-1928.490,-1093.020
408,82598.106000,-5.931,95.057,219.144,432.626,12.896,-213.952,36.960,251.510,-2236.020
409,82598.146000,9.884,114.169,120.529,445.988,83.935,-166.256,-28.040,1885.510,-2658.020
410,82598.184000,116.633,-44.762,-17.930,457.115,123.909,-118.274,-145.040,3303.510,-2359.020
411,82598.226000,275.768,-43.756,-336.685,454.837,170.374,-33.891,1621.960,3733.510,-1967.020
412,82598.267000,360.772,-162.452,-347.642,441.751,205.451,22.758,2408.960,2583.510,-1710.020
413,82598.305000,289.606,-142.334,-490.086,426.690,245.408,37.342,1889.960,1216.510,-1176.020
414,82598.345000,371.645,-250.971,-5.977,425.730,251.634,11.981,2561.960,424.510,-100.020
415,82598.385000,313.328,-3.521,-43.829,433.452,248.020,20.743,-636.040,291.510,573.980
416,82598.425000,286.641,83.992,-57.774,439.116,230.881,33.123,-34.040,496.510,550.980
417,82598.445000,287.629,-41.745,-18.926,448.750,225.301,39.884,-26.040,583.510,524.980
418,82598.486000,297.514,99.081,-38.848,444.881,222.631,52.565,-237.040,577.510,320.980
419,82598.521000,250.069,5.532,-59.767,448.787,223.014,68.273,148.960,535.510,281.980
420,82598.566000,265.884,4.527,-34.864,448.776,219.390,79.960,-126.040,614.510,117.980
421,82598.605000,270.826,37.721,-34.864,450.684,213.864,92.590,-95.040,538.510,80.980
422,82598.641000,258.965,23.639,6.973,444.788,202.372,102.129,-196.040,342.510,233.980
423,82598.686000,258.965,20.621,34.864,450.604,202.537,107.048,-180.040,95.510,103.980
424,82598.726000,282.687,31.686,16.934,448.668,203.381,102.160,-74.040,-168.490,4.980
425,82598.766000,258.965,14.585,-16.934,449.551,195.537,98.065,-298.040,-298.490,-228.020
426,82598.787000,266.873,-33.697,-2.988,442.850,204.964,88.453,-214.040,-355.490,-402.020
427,82598.821000,367.691,-42.750,96.623,440.930,207.729,82.627,-192.040,-440.490,-573.020
428,82598.861000,408.216,-82.986,150.412,430.401,222.792,66.268,-280.040,-871.490,-651.020
429,82598.901000,330.131,-287.183,-52.794,426.531,226.271,49.665,-739.040,-1127.490,-198.020
430,82598.945000,201.637,-124.228,-204.202,428.291,207.887,51.222,-2780.040,-1093.490,148.980
431,82598.987000,224.371,-215.764,-269.946,430.140,200.915,42.246,-340.040,-1259.490,550.980
432,82599.26000,106.749,-41.745,-43.829,436.491,165.254,6.164,3083.960,-579.490,1230.980
433,82599.72000,83.027,57.839,-43.829,446.743,127.278,-4.464,2581.960,165.510,1404.980
434,82599.102000,117.622,102.098,-44.825,459.138,104.531,14.670,927.960,959.510,994.980
435,82599.122000,151.228,66.892,-62.755,462.848,79.261,55.305,755.960,1470.510,864.980
436,82599.162000,254.023,105.116,-89.650,462.758,59.909,101.947,889.960,1767.510,602.980
437,82599.205000,283.676,186.593,-103.595,449.320,61.675,144.126,-82.040,1548.510,138.980
438,82599.245000,388.448,103.104,-252.016,454.092,52.294,156.677,-1412.040,569.510,126.980
439,82599.285000,376.587,216.770,-14.942,454.278,70.805,160.030,839.960,146.510,-269.020
440,82599.325000,334.085,-29.674,66.739,457.258,79.506,157.287,701.960,-182.490,-247.020
441,82599.365000,251.058,-30.680,-30.879,456.362,87.221,155.495,-218.040,-282.490,-243.020
442,82599.405000,244.139,-9.556,-38.848,457.296,84.274,153.471,-23.040,-215.490,-234.020
443,82599.425000,251.058,-22.633,-25.899,453.526,94.873,151.737,-242.040,-112.490,-172.020
444,82599.465000,248.093,-69.910,-12.949,455.411,90.016,150.652,-125.040,18.510,-166.020
445,82599.507000,273.792,-16.597,-11.953,454.543,100.643,148.925,48.960,-63.490,-224.020
446,82599.546000,256.988,-25.650,-10.957,451.639,101.478,144.034,-309.040,-160.490,-204.020
447,82599.587000,252.046,-51.804,-17.930,449.648,96.518,139.997,91.960,-67.490,-122.020
448,82599.626000,215.475,-92.039,-26.895,447.668,91.667,140.866,-81.040,-47.490,-77.020
449,82599.667000,286.641,-22.633,-27.891,443.915,101.553,150.884,1462.960,103.510,-58.020
450,82599.707000,264.896,24.644,-16.934,452.836,121.293,162.128,-301.040,-185.490,51.980
451,82599.746000,265.884,-4.527,-6.973,455.718,121.127,153.305,-276.040,-266.490,195.980
452,82599.766000,285.652,-59.851,16.934,465.264,111.189,138.394,-1158.040,-447.490,269.980
453,82599.806000,271.815,-3.521,-30.879,462.077,82.898,132.856,-1789.040,-501.490,317.980
454,82599.847000,250.069,-0.503,-78.693,462.947,74.924,122.874,-1750.040,-419.490,120.980
455,82599.886000,300.479,32.692,-51.798,465.758,67.035,115.841,-1563.040,-298.490,-151.020
456,82599.926000,282.687,38.727,-52.794,470.529,61.171,111.798,-2106.040,-232.490,-256.020
457,82599.967000,248.093,-1.509,-88.654,465.577,50.336,106.644,-1708.040,-137.490,-209.020
458,82600.7000,209.544,-107.128,-129.494,464.584,48.320,103.655,-1061.040,-70.490,-64.020
459,82600.55000,196.695,-54.821,-265.961,463.611,50.015,92.903,-765.040,-623.490,-74.020
460,82600.86000,168.031,-3.521,-217.152,468.477,58.261,68.580,-560.040,-1146.490,-119.020
461,82600.106000,152.216,44.762,-159.377,474.290,66.322,35.429,-42.040,-1373.490,-397.020
462,82600.146000,145.297,74.939,-111.564,475.268,75.242,-0.656,533.960,-1225.490,-613.020
463,82600.186000,152.216,61.862,-84.669,473.478,96.863,-31.561,806.960,-878.490,-702.020
464,82600.226000,161.112,68.904,-86.661,475.536,113.904,-51.772,789.960,-458.490,-687.020
465,82600.266000,188.788,16.597,-83.673,471.747,123.446,-57.452,464.960,105.510,-463.020
466,82600.306000,232.278,-24.644,-8.965,475.621,123.527,-55.481,483.960,392.510,-144.020
467,82600.346000,234.255,12.574,-207.191,481.483,125.892,-38.745,-446.040,1048.510,247.980
468,82600.386000,349.900,106.122,-60.763,482.358,111.813,-17.481,-367.040,935.510,415.980
469,82600.406000,303.444,10.562,-50.802,488.085,99.679,1.875,503.960,906.510,481.980
470,82600.446000,272.803,-44.762,-47.813,492.880,91.398,20.334,-47.040,866.510,699.980
471,82600.487000,261.931,-35.709,-63.751,493.754,77.298,40.617,-221.040,753.510,536.980
472,82600.527000,254.023,-44.762,-58.770,494.770,80.414,49.514,230.960,773.510,266.980
473,82600.567000,241.174,11.568,-59.767,489.963,79.784,67.142,184.960,763.510,272.980
474,82600.607000,279.722,43.756,-33.868,482.426,99.255,73.442,-203.040,621.510,362.980
475,82600.657000,247.104,-26.656,-32.872,477.968,146.867,34.282,-142.040,480.510,366.980
476,82600.686000,251.058,-39.733,-32.872,525.837,124.902,-103.397,-312.040,467.510,277.980
477,82600.741000,262.919,-25.650,-23.907,544.070,-14.154,7.312,-335.040,457.510,208.980
478,82600.749000,258.965,-15.591,-16.934,524.883,-11.905,74.006,-416.040,340.510,188.980
479,82600.799000,252.046,-14.585,-4.981,505.578,-15.201,109.196,-302.040,159.510,215.980
480,82600.835000,246.116,-25.650,-1.992,502.785,-6.254,120.176,-262.040,-56.490,215.980
481,82600.881000,245.127,-48.786,-0.996,500.806,-10.221,117.142,-155.040,-368.490,225.980
482,82600.907000,256.988,-18.609,-34.864,506.536,-16.162,109.177,-160.040,-464.490,218.980
483,82600.949000,276.757,109.139,-53.790,511.280,-23.170,97.263,-686.040,-561.490,-8.020
484,82600.989000,300.479,113.163,2.988,513.117,-26.732,66.787,-1755.040,-866.490,-30.020
485,82601.27000,308.386,71.921,31.875,523.521,-45.636,40.893,-1983.040,-1440.490,262.980
486,82601.67000,379.552,-21.627,-14.942,524.355,-49.553,-5.284,-1020.040,-1796.490,532.980
487,82601.86000,463.568,-87.010,-184.280,520.331,-53.711,-60.302,270.960,-2656.490,584.980
488,82601.124000,314.317,36.715,-131.486,494.189,-41.840,-126.778,-838.040,-2969.490,-95.020
489,82601.169000,135.413,-32.692,-0.996,461.462,-13.272,-181.130,110.960,-2562.490,-997.020
490,82601.209000,53.375,29.674,115.549,441.490,25.926,-198.935,32.960,-836.490,-1904.020
491,82601.244000,5.931,120.204,156.389,441.093,79.810,-175.184,576.960,725.510,-2287.020
492,82601.285000,30.641,122.216,81.681,445.454,123.299,-140.867,-598.040,2356.510,-2480.020
493,82601.327000,151.228,-60.857,-100.607,448.001,171.451,-70.166,308.960,3364.510,-2029.020
494,82601.364000,323.212,-54.821,-318.755,436.890,207.821,0.245,2207.960,3187.510,-1617.020
495,82601.389000,341.004,-213.752,-395.455,418.876,240.219,25.442,2314.960,2029.510,-1265.020
496,82601.423000,273.792,-183.576,-452.233,414.116,251.477,9.992,2406.960,4.510,-388.020
497,82601.465000,326.178,-78.963,-139.455,418.037,259.045,-0.619,1071.960,192.510,253.980
498,82601.505000,287.629,82.986,-58.770,427.670,253.465,6.142,-268.040,353.510,728.980
499,82601.545000,306.409,96.063,-55.782,427.528,237.133,13.624,241.960,425.510,635.980
500,82601.590000,295.537,-9.556,-38.848,435.196,227.715,23.238,-40.040,420.510,675.980
501,82601.631000,281.699,22.633,-59.767,439.060,225.056,32.994,67.960,332.510,402.980
502,82601.665000,274.780,10.562,-64.747,444.833,220.409,39.767,200.960,384.510,263.980
503,82601.708000,257.977,19.615,-66.739,447.607,205.119,49.240,-144.040,504.510,151.980
504,82601.727000,247.104,39.733,-51.798,443.735,201.543,64.843,-275.040,565.510,93.980
505,82601.765000,276.757,52.809,-18.926,445.667,199.771,71.673,-258.040,431.510,164.980
506,82601.805000,271.815,24.644,-8.965,445.636,195.068,78.433,-257.040,237.510,92.980
507,82601.847000,257.977,0.503,-20.918,446.634,198.012,79.481,-209.040,32.510,-155.020
508,82601.887000,233.266,-35.709,-45.821,442.806,201.901,81.521,-194.040,45.510,-372.020
509,82601.925000,261.931,-35.709,-13.946,438.007,205.737,81.596,-263.040,-17.490,-574.020
510,82601.970000,340.015,-27.662,75.704,430.423,223.008,76.079,-168.040,-233.490,-697.020
511,82602.7000,404.263,-136.299,111.564,422.674,224.594,63.349,-238.040,-661.490,-704.020
512,82602.47000,352.865,-237.894,-33.868,416.816,222.272,48.576,-838.040,-1215.490,59.980
513,82602.75000,265.884,-212.747,-321.743,420.560,212.299,34.633,-2135.040,-1562.490,333.980
514,82602.129000,221.405,-205.705,-173.323,426.057,187.394,2.710,1205.960,-1450.490,944.980
515,82602.149000,83.027,-51.804,-41.837,433.331,145.139,-24.690,2158.960,-709.490,1289.980
516,82602.190000,50.409,63.874,-38.848,440.796,116.175,-21.394,1019.960,267.510,1171.980
517,82602.229000,71.166,73.933,-49.805,449.251,84.782,3.424,1088.960,994.510,1070.980
518,82602.267000,170.008,87.010,-103.595,451.983,57.648,47.938,1164.960,1861.510,985.980
519,82602.311000,280.710,167.481,-107.580,450.115,56.507,85.174,646.960,2131.510,875.980
520,82602.350000,390.425,83.992,-303.813,444.227,38.047,130.842,-2298.040,1161.510,351.980
521,82602.365000,326.178,151.387,-113.556,445.112,24.938,152.128,-1056.040,683.510,-19.020
522,82602.405000,399.320,210.735,10.957,443.461,52.298,161.558,919.960,332.510,-379.020
523,82602.449000,323.212,-31.686,68.732,442.581,60.163,166.634,247.960,35.510,-246.020
524,82602.489000,244.139,-42.750,-27.891,440.648,60.166,167.610,-200.040,-30.490,-257.020
525,82602.525000,279.722,8.550,3.984,438.776,66.037,170.679,-282.040,-107.490,-226.020
526,82602.569000,248.093,-43.756,-52.794,439.759,68.830,164.859,4.960,-141.490,-191.020
527,82602.611000,268.849,-48.786,10.957,437.929,78.627,169.976,-36.040,217.510,-228.020
528,82602.649000,288.618,5.532,3.984,436.020,80.615,172.958,-178.040,207.510,-347.020
529,82602.686000,247.104,-27.662,-0.996,432.188,85.345,169.132,-100.040,8.510,-234.020
530,82602.705000,251.058,-44.762,-34.864,434.156,88.320,171.164,339.960,80.510,-191.020
531,82602.749000,246.116,-44.762,-5.977,429.319,88.273,171.152,363.960,108.510,-109.020
532,82602.785000,249.081,-1.509,-1.992,426.395,86.281,170.121,531.960,113.510,-77.020
533,82602.829000,263.907,32.692,-8.965,426.477,92.343,181.043,-14.040,-113.490,54.980
534,82602.865000,266.873,6.538,-2.988,435.209,94.435,184.050,-442.040,-367.490,283.980
535,82602.905000,267.861,-35.709,17.930,443.783,83.560,171.078,-719.040,-433.490,339.980
536,82602.945000,323.212,-45.768,45.821,448.308,53.316,161.590,-2236.040,-575.490,558.980
537,82602.989000,272.803,18.609,-41.837,449.933,23.950,149.174,-2734.040,-565.490,572.980
538,82603.31000,234.255,23.639,-96.623,451.701,8.284,141.966,-2134.040,-275.490,269.980
539,82603.50000,311.351,55.827,-50.802,456.436,-0.579,133.933,-1946.040,-91.490,-51.020
540,82603.90000,227.336,-10.562,-86.661,455.347,-11.441,125.845,-1718.040,11.510,-272.020
541,82603.136000,193.730,-77.957,-172.327,454.354,-13.457,122.856,-434.040,20.510,-391.020
542,82603.170000,200.649,-40.739,-226.117,454.459,-0.123,111.384,124.960,-373.490,-564.020
543,82603.210000,178.903,-15.591,-214.163,462.356,20.837,90.292,-28.040,-971.490,-686.020
544,82603.246000,166.054,33.697,-170.335,469.259,41.528,57.423,192.960,-1238.490,-872.020
545,82603.290000,156.170,44.762,-130.490,476.216,67.139,27.605,767.960,-1211.490,-1071.020
546,82603.330000,158.147,39.733,-86.661,481.247,92.817,1.708,1269.960,-1005.490,-1071.020
547,82603.349000,170.008,31.686,-62.755,467.831,111.520,-24.383,1264.960,-511.490,-876.020
548,82603.390000,192.741,53.815,25.899,474.701,124.855,-38.782,1189.960,-45.490,-590.020
549,82603.441000,290.595,39.733,-239.066,480.640,137.640,-33.583,1253.960,1075.510,-308.020
550,82603.471000,457.637,10.562,5.977,481.598,133.162,-17.009,694.960,883.510,113.980
551,82603.510000,339.027,145.352,-69.728,489.211,117.056,-2.640,299.960,735.510,610.980
552,82603.550000,253.035,37.721,-90.646,488.153,104.728,10.813,598.960,761.510,700.980
553,82603.586000,253.035,-22.633,-84.669,491.894,88.563,24.191,-64.040,835.510,713.980
554,82603.631000,272.803,-47.780,-56.778,493.822,84.115,41.749,-135.040,857.510,413.980
555,82603.669000,267.861,1.509,-50.802,493.836,80.728,64.229,-157.040,826.510,326.980
556,82603.690000,248.093,-10.562,-44.825,489.962,77.130,78.851,-377.040,707.510,352.980
557,82603.727000,244.139,-4.527,-47.813,484.426,103.417,85.306,-435.040,661.510,394.980
558,82603.769000,247.104,-38.727,-32.872,505.086,157.099,2.205,-371.040,542.510,344.980
559,82603.811000,245.127,-47.780,-24.903,564.363,95.462,-47.091,-430.040,445.510,269.980
560,82603.851000,256.988,-19.615,-23.907,546.086,-12.474,38.734,-461.040,328.510,201.980
561,82603.897000,261.931,-12.574,-12.949,520.074,-15.210,102.362,-429.040,193.510,150.980
562,82603.926000,243.151,-38.727,-3.984,506.551,-16.896,119.948,-444.040,-27.490,157.980
563,82603.970000,256.000,-38.727,-3.984,500.774,-14.924,123.902,-172.040,-260.490,177.980
564,82604.7000,259.954,-20.621,-18.926,505.582,-16.042,115.061,-113.040,-380.490,199.980
565,82604.27000,243.151,37.721,-55.782,510.371,-18.217,102.274,-389.040,-502.490,80.980
566,82604.67000,278.734,63.874,-29.883,510.315,-22.273,94.339,-959.040,-681.490,48.980
567,82604.167000,303.444,92.039,1.992,515.887,-40.296,66.492,-1423.040,-813.490,204.980
568,82604.182000,420.077,-71.921,-19.922,520.528,-52.697,29.942,-1275.040,-1471.490,469.980
569,82604.197000,512.988,-77.957,-185.276,516.392,-66.737,-33.140,-539.040,-2964.490,796.980
570,82604.227000,381.529,-6.538,-117.541,486.310,-57.341,-122.235,-372.040,-3730.490,352.980
571,82604.267000,311.351,-66.892,4.981,449.561,-42.597,-185.729,360.960,-2855.490,-621.020
572,82604.311000,29.653,57.839,144.436,425.634,-11.290,-207.639,300.960,-1284.490,-1495.020
573,82604.330000,-13.838,121.210,198.226,426.988,27.640,-202.850,-806.040,919.510,-2218.020
574,82604.372000,-1.977,69.910,40.840,426.764,96.389,-165.040,-1115.040,2177.510,-2316.020
575,82604.410000,127.506,-48.786,-115.549,440.952,146.725,-88.382,-41.040,3093.510,-2015.020
576,82604.452000,258.965,-41.745,-347.642,436.588,180.270,-17.039,1898.960,3326.510,-1742.020
577,82604.490000,343.969,-150.381,-350.630,416.636,210.859,14.979,1965.960,2408.510,-1669.020
578,82604.532000,284.664,-119.198,-473.152,404.382,243.767,16.665,2199.960,761.510,-878.020
579,82604.570000,292.571,-125.234,40.840,403.391,246.174,-5.839,2658.960,56.510,-224.020
580,82604.612000,297.514,50.798,-63.751,410.137,242.465,-1.004,-254.040,220.510,635.980
581,82604.652000,289.606,106.122,-75.704,419.761,235.029,9.638,-69.040,394.510,660.980
582,82604.671000,280.710,-36.715,-44.825,428.313,216.905,20.041,-187.040,477.510,727.980
583,82604.711000,270.826,-4.527,-62.755,431.146,206.577,34.528,-428.040,418.510,527.980
584,82604.751000,278.734,47.780,-57.774,435.000,202.947,44.262,-26.040,471.510,245.980
585,82604.787000,273.792,5.532,-48.809,430.150,199.254,54.957,222.960,398.510,193.980
586,82604.831000,246.116,4.527,-57.774,434.977,196.561,62.753,168.960,378.510,115.980
587,82604.867000,251.058,39.733,-71.720,434.016,195.732,69.597,26.960,518.510,109.980
588,82604.911000,276.757,24.644,-33.868,434.949,190.132,79.282,-192.040,548.510,168.980
589,82604.947000,269.838,19.615,-33.868,434.972,190.347,89.093,-212.040,415.510,-61.020
590,82604.991000,256.000,-30.680,-9.961,435.023,194.360,95.066,-61.040,345.510,-276.020
591,82605.10000,258.965,-21.627,8.965,431.250,204.053,96.254,-239.040,146.510,-576.020
592,82605.52000,312.340,-8.550,51.798,422.592,208.844,97.323,-166.040,-74.490,-695.020
593,82605.90000,332.108,-11.568,96.623,415.012,227.905,84.981,-197.040,-550.490,-777.020
594,82605.132000,425.019,-161.446,131.486,412.090,228.567,72.241,-187.040,-976.490,-675.020
595,82605.177000,339.027,-167.481,-64.747,404.343,232.829,48.784,-1148.040,-1235.490,-96.020
596,82605.209000,243.151,-268.071,-336.685,407.070,217.970,33.750,-1317.040,-1642.490,328.980
597,82605.249000,108.726,-124.228,-91.642,417.274,181.289,-6.270,2209.960,-1209.490,1041.980
598,82605.292000,55.351,24.644,-39.844,425.636,149.012,-21.678,2298.960,-183.490,1391.980
599,82605.332000,72.154,105.116,-24.903,434.988,112.559,-6.777,1372.960,462.510,1211.980
600,82605.351000,100.819,147.363,-41.837,436.859,97.885,31.147,715.960,1443.510,865.980
601,82605.392000,215.475,58.845,-82.677,440.613,80.080,58.218,833.960,1928.510,938.980
602,82605.432000,293.560,204.699,-147.424,438.628,64.613,105.923,-61.040,1769.510,661.980
603,82605.472000,374.610,59.851,-356.607,434.691,49.840,141.871,-2441.040,947.510,518.980
604,82605.512000,306.409,221.800,-6.973,433.786,53.951,152.748,-98.040,171.510,-168.020
605,82605.552000,336.062,37.721,48.809,433.018,74.352,154.180,1348.960,-58.490,-368.020
606,82605.588000,267.861,-51.804,-1.992,436.855,71.434,152.162,-301.040,-167.490,-232.020
607,82605.632000,240.185,-54.821,-40.840,434.015,79.043,146.441,64.960,-142.490,-269.020
608,82605.651000,264.896,-26.656,-14.942,432.153,85.885,149.531,-3.040,-12.490,-218.020
609,82605.691000,264.896,-14.585,-36.856,428.314,88.781,150.568,-287.040,-81.490,-238.020
610,82605.731000,274.780,-41.745,-12.949,428.410,98.511,151.764,54.960,138.510,-229.020
611,82605.772000,271.815,-7.544,-17.930,428.426,99.547,154.729,-468.040,109.510,-288.020
612,82605.809000,245.127,-60.857,-16.934,427.403,94.597,150.695,-279.040,1.510,-199.020
613,82605.852000,245.127,-56.833,-4.981,422.577,95.542,151.686,-154.040,0.510,-100.020
614,82605.888000,245.127,-119.198,-3.984,421.529,86.838,153.452,1346.960,94.510,34.980
615,82605.932000,250.069,59.851,-4.981,419.791,104.554,165.610,-367.040,-265.490,38.980
616,82605.969000,275.768,21.627,-20.918,432.406,109.444,161.822,-324.040,-308.490,203.980
617,82605.991000,287.629,-27.662,11.953,439.956,91.850,152.622,-1051.040,-283.490,322.980
618,82606.34000,270.826,-34.703,-11.953,438.784,72.272,145.320,-2245.040,-325.490,432.980
619,82606.72000,244.139,-19.615,-60.763,444.363,49.913,140.913,-2863.040,-255.490,400.980
620,82606.114000,278.734,4.527,-63.751,442.199,26.571,139.409,-2771.040,-47.490,183.980
621,82606.155000,305.421,44.762,-41.837,443.995,12.934,136.169,-2785.040,22.510,-18.020
622,82606.194000,259.954,35.709,-53.790,444.820,-0.757,130.963,-2059.040,128.510,-136.020
623,82606.231000,206.579,-42.750,-133.479,446.668,-8.613,125.889,-902.040,27.510,-182.020
624,82606.273000,202.625,-4.527,-252.016,446.721,-1.062,116.250,-614.040,-612.490,-257.020
625,82606.313000,170.996,-11.568,-193.245,458.368,7.336,95.867,-103.040,-983.490,-361.020
626,82606.333000,164.077,40.739,-141.447,469.994,14.656,70.557,315.960,-1182.490,-621.020
627,82606.380000,149.251,61.862,-98.615,471.124,39.109,34.818,513.960,-1113.490,-874.020
628,82606.414000,166.054,88.016,-82.677,477.076,57.310,21.505,1021.960,-847.490,-997.020
629,82606.460000,168.031,77.957,-76.700,478.284,86.921,-0.390,842.960,-468.490,-1047.020
630,82606.489000,197.683,54.821,-44.825,478.478,109.035,-9.706,845.960,-77.490,-861.020
631,82606.533000,238.208,4.527,39.844,478.639,126.424,-13.242,1066.960,448.510,-398.020
632,82606.570000,419.089,-12.574,-262.973,479.631,125.786,1.456,445.960,1007.510,-100.020
633,82606.610000,367.691,23.639,-1.992,481.563,121.382,20.975,186.960,791.510,611.980
634,82606.630000,264.896,101.092,-85.665,484.374,108.207,38.341,24.960,659.510,764.980
635,82606.670000,246.116,-51.804,-72.716,488.083,89.970,45.789,318.960,741.510,846.980
636,82606.712000,252.046,-57.839,-70.724,487.956,72.905,64.043,-188.040,834.510,642.980
637,82606.759000,300.479,-32.692,-38.848,487.893,62.613,81.466,380.960,765.510,340.980
638,82606.790000,232.278,12.574,-71.720,484.995,59.111,100.015,145.960,770.510,325.980
639,82606.830000,257.977,-6.538,-28.887,476.454,72.058,118.917,-105.040,739.510,336.980
640,82606.870000,246.116,-11.568,-22.911,470.130,119.435,114.071,-351.040,526.510,400.980
641,82606.910000,252.046,-25.650,-8.965,479.372,192.443,32.355,-398.040,379.510,360.980
642,82606.950000,253.035,-39.733,-12.949,570.434,39.499,-123.831,-321.040,182.510,327.980
643,82606.970000,259.954,-25.650,-7.969,520.618,-51.834,69.188,-548.040,67.510,276.980
644,82607.10000,259.954,-10.562,-21.914,498.618,-37.316,121.439,-592.040,-57.490,298.980
645,82607.50000,246.116,-34.703,-6.973,495.767,-33.331,127.405,-461.040,-218.490,241.980
646,82607.92000,265.884,-52.809,8.965,491.832,-38.396,119.439,-260.040,-503.490,260.980
647,82607.132000,256.000,41.745,-64.747,495.529,-53.223,105.389,-687.040,-624.490,240.980
648,82607.172000,282.687,107.128,-45.821,495.441,-59.350,91.523,-1350.040,-738.490,44.980
649,82607.212000,317.282,79.969,32.872,505.940,-67.661,61.941,-1531.040,-1078.490,137.980
650,82607.252000,347.923,67.898,49.805,513.493,-78.178,21.517,-1166.040,-1470.490,346.980
651,82607.294000,482.347,-98.075,-132.482,508.414,-91.105,-34.679,-96.040,-2357.490,759.980
652,82607.315000,377.575,15.591,-181.292,491.787,-95.645,-101.500,164.960,-2949.490,415.980
653,82607.355000,231.290,-30.680,-3.984,460.016,-67.175,-160.755,-207.040,-2658.490,-484.020
654,82607.395000,43.490,71.921,114.553,440.934,-33.987,-187.517,465.960,-1460.490,-1531.020
655,82607.435000,60.293,100.086,142.444,438.494,12.672,-182.564,-80.040,662.510,-2547.020
656,82607.476000,55.351,46.774,46.817,447.868,73.749,-144.904,-822.040,1995.510,-2779.020
657,82607.510000,119.598,-31.686,-56.778,445.738,137.474,-69.944,-18.040,3320.510,-2287.020
658,82607.550000,248.093,-49.792,-245.043,433.686,176.725,-0.452,1767.960,3501.510,-1808.020
659,82607.594000,317.282,-64.880,-358.599,416.728,215.260,38.613,2406.960,2628.510,-1482.020
660,82607.616000,267.861,-155.411,-477.136,403.480,245.268,41.213,2289.960,1157.510,-747.020
661,82607.655000,255.012,-110.145,58.770,401.550,249.694,22.674,2239.960,-155.490,-59.020
662,82607.692000,285.652,28.668,-69.728,407.350,248.822,24.628,191.960,240.510,617.980
663,82607.742000,274.780,92.039,-66.739,416.900,233.642,36.080,-71.040,381.510,741.980
664,82607.775000,291.583,-2.515,-35.860,418.817,229.087,48.731,41.960,509.510,665.980
665,82607.810000,294.548,-11.568,-31.875,427.405,213.940,62.142,-290.040,443.510,521.980
666,82607.850000,319.259,26.656,-29.883,428.381,213.151,69.972,108.960,359.510,257.980
667,82607.890000,237.220,15.591,-69.728,426.348,200.748,80.480,-89.040,443.510,165.980
668,82607.936000,265.884,2.515,-38.848,428.367,207.735,88.484,129.960,491.510,1.980
669,82607.955000,264.896,73.933,-24.903,428.293,199.105,93.196,165.960,449.510,112.980
670,82607.991000,275.768,37.721,-4.981,430.268,202.145,98.171,-75.040,329.510,80.980
671,82608.34000,267.861,19.615,-13.946,430.236,197.441,104.931,-73.040,69.510,-57.020
672,82608.74000,255.012,2.515,-25.899,429.234,195.339,98.018,-213.040,-37.490,-242.020
673,82608.110000,258.965,-39.733,-10.957,421.547,201.046,96.167,-245.040,-84.490,-567.020
674,82608.150000,358.795,-45.768,96.623,417.871,222.238,90.745,-316.040,-309.490,-767.020
675,82608.196000,430.950,-130.263,139.455,408.217,227.624,75.154,-499.040,-865.490,-579.020
676,82608.236000,316.293,-196.652,-88.654,409.117,222.585,66.218,-1327.040,-1199.490,62.980
677,82608.275000,242.162,-230.853,-363.580,409.891,206.650,47.234,-1453.040,-1724.490,390.980
678,82608.291000,119.598,-128.251,-95.626,416.246,171.895,8.230,2011.960,-1551.490,928.980
679,82608.334000,75.120,-37.721,-36.856,425.509,136.348,-23.921,2681.960,-485.490,1368.980
680,82608.371000,50.409,68.904,-24.903,429.050,101.542,-19.783,1636.960,304.510,1269.980
681,82608.416000,88.958,79.969,-29.883,436.541,69.298,10.899,1121.960,1044.510,1019.980
682,82608.451000,187.799,88.016,-64.747,437.486,60.289,42.082,1548.960,1998.510,967.980
683,82608.491000,292.571,146.358,-152.405,431.638,43.965,96.624,1573.960,2294.510,663.980
684,82608.531000,453.683,13.580,-485.105,425.998,51.654,139.932,-2901.040,995.510,155.980
685,82608.575000,283.676,234.876,-4.981,425.015,47.092,153.558,-551.040,351.510,-333.020
686,82608.595000,414.147,274.106,-2.988,420.385,67.519,157.924,1055.960,-31.490,-473.020
687,82608.635000,324.201,-48.786,50.802,422.445,81.065,155.287,324.960,-137.490,-297.020
688,82608.675000,242.162,-58.845,-25.899,422.497,87.732,149.551,-6.040,-100.490,-338.020
689,82608.715000,269.838,-12.574,-12.949,419.611,87.855,156.413,-5.040,-6.490,-310.020
690,82608.753000,268.849,-44.762,-27.891,418.747,99.409,152.745,327.960,0.510,-347.020
691,82608.793000,268.849,13.580,-13.946,415.005,112.921,151.075,121.960,41.510,-326.020
692,82608.831000,247.104,-63.874,-7.969,411.074,107.015,148.975,-247.040,-46.490,-260.020
693,82608.871000,248.093,-75.945,5.977,410.100,107.825,142.126,564.960,-6.490,-183.020
694,82608.911000,239.197,-54.821,-11.953,408.243,115.595,143.275,590.960,-24.490,-203.020
695,82608.931000,256.000,87.010,-12.949,410.313,126.595,157.253,151.960,-270.490,-21.020
696,82608.971000,259.954,15.591,-24.903,414.219,130.495,156.367,-314.040,-351.490,178.980
697,82609.18000,285.652,-62.868,20.918,425.757,126.401,141.591,-1082.040,-363.490,359.980
698,82609.55000,297.514,-53.815,8.965,426.425,96.249,137.981,-2355.040,-417.490,490.980
699,82609.95000,244.139,3.521,-64.747,432.001,72.983,136.495,-3057.040,-355.490,497.980
700,82609.135000,276.757,51.804,-80.685,437.570,49.653,132.067,-2688.040,-200.490,289.980
701,82609.171000,307.398,60.857,-64.747,435.441,31.036,124.784,-2420.040,-65.490,83.980
702,82609.212000,257.977,41.745,-71.720,438.159,12.575,122.419,-2083.040,23.510,45.980
703,82609.257000,223.382,2.515,-96.623,440.101,13.543,121.464,-1312.040,71.510,-67.020
704,82609.272000,204.602,-16.597,-237.074,441.999,11.448,113.576,-335.040,-343.490,-189.020
705,82609.312000,170.008,-4.527,-193.245,451.667,14.994,94.062,-361.040,-856.490,-310.020
706,82609.352000,165.066,29.674,-156.389,458.528,29.127,71.835,162.960,-1125.490,-576.020
707,82609.392000,153.205,76.951,-94.630,463.440,43.090,42.735,454.960,-1102.490,-833.020
708,82609.432000,154.193,58.845,-76.700,467.555,72.772,22.809,737.960,-810.490,-996.020
709,82609.472000,174.950,90.028,-86.661,467.750,97.539,1.785,1080.960,-524.490,-1091.020
710,82609.512000,196.695,60.857,-72.716,468.884,116.751,-7.593,1359.960,-25.490,-963.020
711,82609.552000,206.579,-4.527,0.000,471.005,137.050,-12.042,1108.960,245.510,-624.020
712,82609.592000,224.371,-43.756,-291.860,475.837,135.285,-6.187,1281.960,986.510,-135.020
713,82609.612000,364.726,7.544,-18.926,481.642,131.824,10.420,75.960,788.510,427.980
714,82609.652000,278.734,78.963,-92.638,481.565,120.519,25.860,-72.040,742.510,689.980
715,82609.692000,254.023,8.550,-79.689,491.127,105.446,42.216,392.960,825.510,706.980
716,82609.732000,257.977,-25.650,-64.747,491.082,96.212,63.586,-174.040,830.510,651.980
717,82609.772000,299.490,-3.521,-38.848,491.971,86.664,70.241,177.960,734.510,414.980
718,82609.812000,233.266,-0.503,-59.767,489.017,77.337,88.660,-20.040,631.510,412.980
719,82609.852000,246.116,-17.603,-44.825,480.365,79.539,104.381,-222.040,624.510,410.980
720,82609.897000,256.988,-8.550,-27.891,472.880,104.792,108.848,-155.040,527.510,414.980
721,82609.917000,258.965,-23.639,-23.907,467.656,188.662,-2.077,-348.040,341.510,412.980
722,82609.957000,259.954,-31.686,-22.911,553.756,14.226,-118.544,-535.040,246.510,344.980
723,82609.997000,253.035,-20.621,-30.879,538.896,-52.647,24.098,-621.040,200.510,309.980
724,82610.37000,256.988,-12.574,-22.911,507.303,-36.562,107.745,-625.040,90.510,276.980
725,82610.77000,256.000,-31.686,-11.953,499.700,-26.519,126.584,-603.040,-54.490,236.980
726,82610.117000,255.012,-50.798,-5.977,498.710,-28.514,124.577,-501.040,-375.490,254.980
727,82610.170000,224.371,-23.639,-50.802,503.392,-42.274,114.474,-474.040,-503.490,268.980
728,82610.197000,257.977,39.733,-60.763,504.277,-47.464,98.670,-474.040,-497.490,141.980
729,82610.245000,297.514,90.028,-42.833,507.120,-49.766,80.973,-1067.040,-597.490,61.980
730,82610.257000,336.062,126.240,26.895,509.899,-58.842,64.107,-1519.040,-826.490,325.980
731,82610.307000,429.961,-76.951,1.992,517.405,-74.214,23.574,-816.040,-1561.490,565.980
732,82610.332000,512.000,-140.322,-223.128,504.588,-85.447,-40.445,-276.040,-3013.490,808.980
733,82610.372000,349.900,6.538,-114.553,476.400,-81.707,-122.797,-692.040,-3520.490,106.980
734,82610.412000,229.313,8.550,80.685,436.876,-54.327,-184.054,759.960,-2578.490,-846.020
735,82610.452000,55.351,26.656,257.992,414.927,-17.305,-211.718,540.960,-1323.490,-1862.020
736,82610.492000,-30.641,170.499,-222.132,408.673,36.026,-210.548,591.960,-181.490,-2570.020
737,82610.532000,-15.815,1.509,203.206,410.976,69.507,-189.206,-32.040,1898.510,-2229.020
738,82610.572000,76.108,-47.780,-41.837,417.427,123.306,-128.178,-1289.040,2566.510,-2125.020
739,82610.593000,138.378,75.945,-227.113,416.059,166.588,-56.612,-1036.040,3237.510,-1696.020
740,82610.634000,268.849,-78.963,-363.580,407.852,204.755,5.999,1108.960,3091.510,-1267.020
741,82610.673000,307.398,-59.851,-327.720,398.451,228.414,27.099,2819.960,2059.510,-862.020
742,82610.714000,329.143,-201.682,-435.300,388.885,239.042,29.276,1010.960,584.510,-489.020
743,82610.754000,269.838,-1.509,-145.432,393.768,245.692,20.608,1524.960,380.510,331.980
744,82610.794000,323.212,82.986,-43.829,399.558,242.965,26.443,-218.040,234.510,699.980
745,82610.834000,325.189,82.986,-50.802,405.289,233.507,35.071,-186.040,369.510,849.980
746,82610.879000,305.421,-16.597,-32.872,411.967,221.232,47.562,-233.040,363.510,832.980
747,82610.898000,239.197,-40.739,-73.712,411.863,208.783,55.130,-109.040,261.510,490.980
748,82610.938000,297.514,5.532,-35.860,413.747,201.273,65.755,282.960,383.510,90.980
749,82610.978000,254.023,22.633,-61.759,411.795,198.449,70.591,100.960,325.510,105.980
750,82611.18000,256.988,7.544,-46.817,416.645,197.741,80.393,84.960,403.510,14.980
751,82611.58000,256.988,41.745,-37.852,414.696,195.824,82.307,141.960,397.510,50.980
752,82611.98000,266.873,22.633,-31.875,417.615,196.887,85.279,49.960,349.510,-33.020
753,82611.138000,283.676,37.721,-17.930,415.660,194.042,89.134,-56.040,284.510,-191.020
754,82611.177000,260.942,-4.527,-18.926,411.845,198.924,92.177,-132.040,118.510,-427.020
755,82611.217000,274.780,-28.668,4.981,407.120,210.527,92.424,-260.040,-13.490,-649.020
756,82611.237000,366.703,-60.857,87.658,400.505,227.807,86.910,-212.040,-174.490,-849.020
757,82611.276000,409.205,-166.475,112.560,396.657,231.502,80.119,-818.040,-661.490,-636.020
758,82611.316000,318.270,-235.882,1.992,397.516,221.673,74.019,-2238.040,-990.490,-40.020
759,82611.356000,290.595,-222.806,-348.638,402.131,200.210,66.688,-1237.040,-1597.490,392.980
760,82611.396000,214.486,-172.511,-159.377,407.587,174.917,17.105,2498.960,-1640.490,1011.980
761,82611.436000,89.946,24.644,-57.774,417.801,137.459,-14.106,2798.960,-611.490,1371.980
762,82611.477000,74.131,76.951,-35.860,427.138,102.624,-13.879,1386.960,5.510,1107.980
763,82611.517000,101.807,70.916,-53.790,432.686,72.044,5.067,1204.960,942.510,899.980
764,82611.558000,142.332,149.375,-93.634,433.660,66.832,32.412,891.960,1503.510,850.980
765,82611.577000,207.568,163.458,-115.549,429.700,47.441,79.045,564.960,1853.510,530.980
766,82611.617000,295.537,158.428,-127.502,422.133,56.060,121.389,528.960,1705.510,124.980
767,82611.657000,405.251,57.839,-300.825,414.510,62.393,147.991,-417.040,889.510,32.980
768,82611.699000,337.050,142.334,23.907,413.639,70.344,156.992,-166.040,218.510,-295.020
769,82611.737000,314.317,43.756,43.829,412.765,80.043,157.206,594.960,-100.490,-344.020
770,82611.775000,259.954,-62.868,-8.965,409.024,94.439,151.633,217.960,-295.490,-330.020
771,82611.813000,234.255,-74.939,-17.930,407.126,98.304,151.715,187.960,-73.490,-326.020
772,82611.853000,256.988,-83.992,5.977,406.264,108.111,156.834,427.960,277.510,-233.020
773,82611.877000,301.467,66.892,-12.949,401.531,119.628,153.157,132.960,-56.490,-303.020
774,82611.915000,244.139,-51.804,-6.973,398.578,115.587,147.177,-87.040,-173.490,-168.020
775,82611.953000,264.896,-37.721,-9.961,395.632,112.495,140.238,194.960,-85.490,-103.020
776,82611.999000,236.232,-31.686,-15.938,399.522,114.496,141.271,362.960,-59.490,-43.020
777,82612.38000,244.139,91.033,-5.977,400.539,118.497,146.265,1336.960,-87.490,72.980
778,82612.78000,258.965,-8.550,0.996,404.446,121.533,150.264,-782.040,-331.490,199.980
779,82612.118000,271.815,-30.680,7.969,414.102,120.570,146.340,-547.040,-376.490,394.980
780,82612.159000,310.363,-40.739,30.879,420.649,99.989,134.129,-1637.040,-422.490,546.980
781,82612.198000,283.676,-36.715,-8.965,425.147,65.970,129.461,-3096.040,-419.490,841.980
782,82612.218000,241.174,7.544,-80.685,428.640,28.058,124.704,-3630.040,-227.490,884.980
783,82612.258000,245.127,14.585,-102.599,430.279,-1.179,118.174,-2918.040,53.510,482.980
784,82612.295000,327.166,49.792,-40.840,428.226,-12.891,115.949,-2421.040,164.510,101.980
785,82612.337000,205.591,-6.538,-118.537,430.011,-26.637,107.802,-2030.040,138.510,-216.020
786,82612.375000,166.054,-62.868,-177.307,431.949,-25.712,104.885,-638.040,107.510,-342.020
787,82612.417000,172.973,-62.868,-268.949,434.930,-16.126,98.239,-16.040,-311.490,-537.020
788,82612.457000,170.008,-2.515,-230.101,444.722,0.063,79.987,-165.040,-1083.490,-760.020
789,82612.497000,167.042,56.833,-153.401,456.537,27.684,51.205,389.960,-1311.490,-1064.020
790,82612.540000,170.996,95.057,-107.580,458.650,52.299,22.336,1080.960,-1192.490,-1367.020
791,82612.559000,194.718,67.898,-48.809,466.584,76.257,5.232,1370.960,-937.490,-1398.020
792,82612.595000,197.683,57.839,-26.895,463.956,109.670,-18.548,1216.960,-369.490,-1206.020
793,82612.638000,223.382,-12.574,-65.743,466.066,129.861,-27.902,920.960,175.510,-867.020
794,82612.680000,223.382,-25.650,6.973,471.068,145.572,-21.659,1244.960,698.510,-192.020
795,82612.720000,279.722,28.668,-278.910,478.766,138.204,-7.096,-143.040,812.510,22.980
796,82612.760000,353.853,0.503,-14.942,483.592,133.742,8.505,450.960,732.510,463.980
797,82612.800000,262.919,117.187,-98.615,484.508,124.452,26.934,277.960,763.510,617.980
798,82612.845000,258.965,-51.804,-55.782,485.328,107.202,36.359,626.960,843.510,706.980
799,82612.866000,287.629,11.568,-64.747,489.132,96.042,56.713,-3.040,817.510,621.980
800,82612.895000,267.861,12.574,-53.790,492.049,94.452,71.394,458.960,729.510,497.980
801,82612.935000,248.093,-6.538,-52.794,486.141,81.084,83.834,-122.040,649.510,513.980
802,82612.978000,235.243,-3.521,-54.786,485.241,85.238,96.673,-308.040,599.510,458.980
803,82613.18000,253.035,-23.639,-41.837,480.620,110.153,84.467,-322.040,537.510,383.980
804,82613.59000,252.046,-15.591,-28.887,494.145,132.120,-25.831,-627.040,454.510,346.980
805,82613.96000,263.907,-29.674,-22.911,527.053,41.426,-61.118,-533.040,346.510,275.980
806,82613.138000,261.931,-19.615,-15.938,523.687,-35.237,72.505,-795.040,249.510,245.980
807,82613.178000,245.127,-16.597,-21.914,502.610,-24.657,121.728,-730.040,48.510,195.980
808,82613.196000,236.232,-40.739,-6.973,498.766,-23.573,128.609,-604.040,-195.490,207.980
809,82613.238000,263.907,-41.745,6.973,496.846,-20.809,122.782,-504.040,-462.490,256.980
810,82613.278000,244.139,23.639,-70.724,503.405,-39.513,107.671,-572.040,-558.490,217.980
811,82613.318000,255.012,42.750,-64.747,505.332,-36.926,92.042,-497.040,-493.490,36.980
812,82613.359000,265.884,112.157,-24.903,507.148,-45.969,77.135,-1227.040,-745.490,27.980
813,82613.395000,372.633,25.650,36.856,513.773,-54.360,45.582,-1541.040,-1282.490,280.980
814,82613.437000,512.988,-69.910,-145.432,513.569,-63.356,-10.516,-127.040,-2429.490,746.980
815,82613.478000,455.660,-53.815,-162.366,493.962,-74.828,-82.400,-128.040,-3174.490,619.980
816,82613.518000,296.525,19.615,-20.918,461.160,-49.625,-157.421,-1009.040,-2858.490,-484.020
817,82613.538000,122.564,58.845,65.743,439.261,-6.843,-187.899,322.960,-1516.490,-1447.020
818,82613.578000,20.757,89.022,147.424,428.936,26.019,-189.152,-220.040,583.510,-2567.020
819,82613.620000,13.838,39.733,32.872,425.809,95.625,-155.252,-292.040,1904.510,-2654.020
820,82613.667000,87.969,-58.845,-121.525,431.351,154.376,-89.213,-246.040,2851.510,-2349.020
821,82613.701000,245.127,-32.692,-344.654,421.143,185.728,-26.757,1927.960,3300.510,-1707.020
822,82613.746000,297.514,-79.969,-368.560,400.249,218.314,8.246,2340.960,2526.510,-1528.020
823,82613.780000,340.015,-201.682,-492.078,392.710,238.649,9.662,2412.960,844.510,-659.020
824,82613.820000,110.703,-33.697,34.864,395.716,252.873,-6.687,2580.960,505.510,-153.020
825,82613.841000,274.780,8.550,-59.767,399.570,248.359,6.950,-367.040,541.510,555.980
826,82613.881000,319.259,34.703,-19.922,404.384,243.789,17.646,56.960,654.510,506.980
827,82613.916000,283.676,32.692,-35.860,406.271,235.415,33.154,-231.040,551.510,450.980
828,82613.956000,324.201,40.739,-5.977,409.169,231.883,47.792,-138.040,627.510,328.980
829,82613.996000,231.290,20.621,-86.661,410.112,227.254,57.498,277.960,488.510,297.980
830,82614.38000,227.336,8.550,-68.732,408.138,220.698,69.116,26.960,485.510,167.980
831,82614.76000,266.873,4.527,-42.833,412.007,218.967,76.931,157.960,396.510,89.980
832,82614.121000,251.058,62.868,-23.907,414.866,214.184,78.792,290.960,214.510,151.980
833,82614.156000,261.931,38.727,-17.930,413.807,204.487,79.556,51.960,198.510,193.980
834,82614.182000,269.838,52.809,-31.875,416.664,198.798,84.339,-206.040,25.510,30.980
835,82614.220000,275.768,6.538,-20.918,416.716,204.580,82.506,-176.040,14.510,-159.020
836,82614.256000,276.757,-24.644,6.973,412.860,206.441,80.578,-309.040,-103.490,-505.020
837,82614.302000,305.421,-40.739,44.825,407.127,214.993,74.871,-331.040,-323.490,-678.020
838,82614.337000,404.263,-62.868,136.467,401.362,222.358,59.332,-476.040,-841.490,-745.020
839,82614.376000,331.120,-266.059,-7.969,395.608,229.831,48.699,-1156.040,-1093.490,-331.020
840,82614.420000,239.197,-163.458,-170.335,395.547,224.847,42.704,-2175.040,-1054.490,-26.020
841,82614.460000,247.104,-204.699,-302.817,401.102,203.135,23.601,226.960,-1240.490,497.980
842,82614.501000,113.668,-42.750,-83.673,411.316,166.562,-11.512,3085.960,-835.490,1075.980
843,82614.521000,74.131,80.974,-50.802,416.798,134.472,-17.116,2380.960,202.510,1236.980
844,82614.561000,85.004,63.874,-64.747,421.322,98.058,1.698,1140.960,742.510,1113.980
845,82614.600000,93.900,110.145,-110.568,427.953,79.159,21.887,453.960,1388.510,1138.980
846,82614.641000,208.556,128.251,-118.537,427.897,64.532,62.750,333.960,1655.510,966.980
847,82614.677000,276.757,201.682,-150.412,423.048,54.689,102.728,430.960,1487.510,339.980
848,82614.717000,361.761,66.892,-275.922,418.295,57.209,131.213,-663.040,878.510,157.980
849,82614.757000,337.050,200.676,16.934,420.381,70.130,144.253,124.960,266.510,-270.020
850,82614.807000,322.224,44.762,39.844,420.547,87.562,142.679,790.960,-95.490,-270.020
851,82614.820000,294.548,-2.515,7.969,412.784,85.502,140.655,230.960,-236.490,-242.020
852,82614.861000,243.151,-121.210,-12.949,413.848,96.126,137.952,245.960,-62.490,-306.020
853,82614.902000,249.081,-74.939,-17.930,414.843,98.164,141.922,-21.040,64.510,-311.020
854,82614.941000,312.340,87.010,-12.949,406.287,113.613,142.246,-242.040,22.510,-313.020
855,82614.977000,258.965,-5.532,-33.868,401.472,116.413,139.356,47.960,-20.490,-163.020
856,82615.20000,254.023,-33.697,-28.887,402.355,108.570,135.262,-80.040,-8.490,-180.020
857,82615.57000,238.208,-61.862,-14.942,398.428,101.822,139.026,-374.040,30.510,-147.020
858,82615.97000,253.035,-80.974,-24.903,399.482,109.706,144.107,1355.960,184.510,7.980
859,82615.137000,244.139,59.851,-0.996,397.548,107.940,152.889,13.960,-65.490,36.980
860,82615.157000,256.988,21.627,-11.953,410.311,126.574,156.272,-75.040,-242.490,137.980
861,82615.197000,269.838,-28.668,1.992,419.944,124.510,146.440,-609.040,-354.490,310.980
862,82615.242000,303.444,-48.786,20.918,420.627,97.141,137.008,-1528.040,-341.490,400.980
863,82615.281000,258.965,-26.656,-38.848,425.330,83.575,135.736,-2398.040,-372.490,431.980
864,82615.321000,278.734,-8.550,-39.844,426.060,60.176,130.315,-2329.040,-290.490,302.980
865,82615.362000,293.560,-10.562,-37.852,430.665,37.742,122.962,-2210.040,-202.490,62.980
866,82615.414000,299.490,10.562,-32.872,430.625,34.722,117.991,-2296.040,-151.490,-44.020
867,82615.440000,209.544,3.521,-90.646,434.382,23.994,113.839,-1401.040,0.510,-206.020
868,82615.482000,172.973,-37.721,-185.276,434.392,25.849,109.957,-870.040,-82.490,-276.020
869,82615.497000,176.927,-1.509,-281.899,439.283,33.447,100.329,-779.040,-534.490,-418.020
870,82615.542000,161.112,8.550,-208.187,446.062,39.749,74.986,8.960,-1145.490,-521.020
871,82615.582000,146.286,88.016,-153.401,455.855,57.707,48.928,493.960,-1300.490,-671.020
872,82615.618000,162.100,92.039,-126.506,461.749,71.830,26.698,734.960,-1241.490,-988.020
873,82615.663000,175.938,136.299,-89.650,459.076,101.295,-0.112,835.960,-933.490,-1176.020
874,82615.697000,172.973,69.910,-54.786,461.190,124.162,-20.194,782.960,-349.490,-950.020
875,82615.738000,215.475,29.674,3.984,468.173,148.262,-30.431,954.960,111.510,-619.020
876,82615.777000,293.560,-7.544,-322.739,473.981,145.708,-16.746,1242.960,1114.510,-86.020
877,82615.797000,386.471,-32.692,6.973,477.788,135.454,0.686,280.960,942.510,428.980
878,82615.837000,285.652,87.010,-99.611,483.555,127.226,21.109,136.960,876.510,697.980
879,82615.877000,243.151,-12.574,-76.700,487.325,114.858,30.649,359.960,896.510,684.980
880,82615.917000,258.965,-44.762,-60.763,490.147,101.791,52.921,-55.040,952.510,677.980
881,82615.962000,280.710,-14.585,-49.805,488.167,93.422,70.382,27.960,780.510,362.980
882,82616.2000,266.873,12.574,-44.825,488.130,86.022,86.889,-5.040,665.510,356.980
883,82616.42000,252.046,-24.644,-39.844,483.372,92.016,96.819,-441.040,534.510,449.980
884,82616.81000,247.104,-20.621,-46.817,484.501,111.184,85.479,-486.040,516.510,419.980
885,82616.123000,249.081,-32.692,-27.891,498.030,127.022,5.445,-468.040,452.510,324.980
886,82616.143000,259.954,-37.721,-13.946,527.306,60.584,-28.330,-443.040,368.510,311.980
887,82616.178000,256.988,-22.633,-23.907,526.704,-20.904,61.061,-859.040,198.510,293.980
888,82616.218000,243.151,-42.750,-13.946,508.379,-25.830,109.947,-751.040,63.510,286.980
889,82616.261000,248.093,-42.750,-18.926,502.652,-20.730,123.777,-727.040,-102.490,245.980
890,82616.301000,255.012,-41.745,-9.961,498.705,-28.557,122.614,-726.040,-364.490,287.980
891,82616.341000,263.907,7.544,-47.813,501.496,-37.525,110.653,-790.040,-494.490,274.980
892,82616.381000,252.046,63.874,-79.689,504.310,-43.624,96.794,-763.040,-477.490,108.980
893,82616.421000,282.687,68.904,-19.922,505.182,-51.575,87.794,-734.040,-506.490,26.980
894,82616.441000,292.571,111.151,-1.992,508.979,-53.997,64.212,-1806.040,-881.490,217.980
895,82616.478000,402.286,-31.686,-16.934,513.562,-69.591,14.843,-1527.040,-1635.490,510.980
896,82616.523000,495.197,-84.998,-179.300,504.556,-86.634,-50.278,-100.040,-2926.490,693.980
897,82616.563000,358.795,-12.574,-99.611,473.594,-71.121,-125.510,-746.040,-3342.490,148.980
898,82616.602000,158.147,11.568,70.724,439.888,-43.554,-180.867,356.960,-2345.490,-1014.020
899,82616.642000,27.676,109.139,142.444,428.531,-13.959,-197.886,-65.040,-885.490,-1997.020
900,82616.682000,14.826,78.963,113.556,422.416,52.145,-189.567,-416.040,665.510,-2619.020
901,82616.723000,29.653,50.798,56.778,425.029,112.379,-143.114,-298.040,2356.510,-2568.020
902,82616.763000,121.575,-62.868,-106.584,425.609,157.556,-74.444,932.960,3229.510,-2118.020
903,82616.783000,242.162,-76.951,-338.677,416.404,194.548,-20.687,2322.960,3100.510,-1706.020
904,82616.823000,330.131,-163.458,-344.654,401.273,224.149,8.377,2331.960,2238.510,-1436.020
905,82616.863000,278.734,-143.340,-438.288,392.751,244.323,2.923,2132.960,596.510,-636.020
906,82616.903000,175.938,-109.139,-124.514,393.713,246.921,-11.727,1963.960,278.510,-69.020
907,82616.943000,292.571,36.715,-58.770,397.511,238.351,-6.025,-346.040,241.510,624.980
908,82616.983000,298.502,110.145,-66.739,404.230,230.866,3.629,200.960,409.510,619.980
909,82617.23000,272.803,39.733,-64.747,409.064,228.237,14.368,-115.040,495.510,578.980
910,82617.60000,284.664,5.532,-49.805,412.876,219.796,25.957,-96.040,429.510,497.980
911,82617.102000,277.745,4.527,-53.790,416.641,207.385,33.535,89.960,375.510,290.980
912,82617.122000,260.942,24.644,-62.755,412.798,207.606,45.300,3.960,383.510,209.980
913,82617.163000,241.174,8.550,-69.728,417.543,197.082,49.979,-73.040,406.510,107.980
914,82617.203000,264.896,30.680,-40.840,415.661,200.213,60.832,-59.040,460.510,57.980
915,82617.243000,261.931,32.692,-42.833,419.505,196.475,65.661,61.960,386.510,-1.020
916,82617.282000,266.873,30.680,-24.903,418.487,190.705,68.472,157.960,220.510,-139.020
917,82617.323000,269.838,-2.515,-27.891,415.608,192.662,70.471,-33.040,94.510,-265.020
918,82617.362000,259.954,-44.762,-10.957,413.782,204.250,68.763,-173.040,-36.490,-550.020
919,82617.400000,304.432,-39.733,23.907,410.986,215.807,66.072,-207.040,-164.490,-722.020
920,82617.422000,435.892,-45.768,148.420,404.359,232.095,59.555,-264.040,-429.490,-837.020
921,82617.460000,347.923,-265.053,12.949,401.424,230.880,49.715,-1500.040,-975.490,-163.020
922,82617.505000,292.571,-152.393,-82.677,402.166,208.473,45.296,-2519.040,-1061.490,374.980
923,82617.541000,243.151,-198.664,-328.716,402.925,190.641,28.231,-221.040,-1484.490,701.980
924,82617.586000,122.564,-69.910,-98.615,412.140,151.102,-8.912,2800.960,-960.490,1103.980
925,82617.622000,53.375,62.868,-37.852,424.389,119.035,-16.462,1850.960,-33.490,1182.980
926,82617.665000,59.305,37.721,-64.747,426.163,100.780,-9.018,1201.960,584.510,1048.980
927,82617.700000,100.819,116.181,-97.619,428.850,72.330,19.776,823.960,1329.510,873.980
928,82617.743000,224.371,86.004,-135.471,427.871,62.525,59.763,1146.960,1729.510,745.980
929,82617.765000,275.768,114.169,-171.331,424.084,61.516,103.862,1206.960,1815.510,272.980
930,82617.805000,309.375,27.662,-240.062,418.342,62.064,131.321,-1208.040,879.510,102.980
931,82617.843000,280.710,181.564,39.844,413.557,64.282,146.070,-677.040,373.510,-103.020
932,82617.882000,377.575,159.434,36.856,411.752,76.949,149.289,870.960,26.510,-452.020
933,82617.920000,301.467,-46.774,31.875,409.907,86.596,147.538,403.960,-100.490,-286.020
934,82617.965000,198.672,-113.163,-55.782,409.996,95.376,149.695,-262.040,-68.490,-354.020
935,82618.3000,323.212,38.727,31.875,404.250,100.282,154.695,356.960,387.510,-263.020
936,82618.42000,289.606,69.910,1.992,402.393,108.936,151.941,-104.040,-105.490,-312.020
937,82618.60000,250.069,-62.868,-13.946,400.503,114.635,147.160,488.960,-99.490,-187.020
938,82618.105000,272.803,-24.644,4.981,402.425,114.524,141.278,468.960,-20.490,-192.020
939,82618.145000,220.417,-7.544,-27.891,397.724,128.112,143.531,1054.960,43.510,-168.020
940,82618.185000,232.278,126.240,6.973,398.764,134.982,146.628,1117.960,-125.490,-74.020
941,82618.225000,254.023,7.544,-3.984,401.777,144.870,153.718,-576.040,-417.490,174.980
942,82618.265000,284.664,-29.674,8.965,411.318,134.889,136.845,-503.040,-509.490,360.980
943,82618.305000,293.560,-72.927,27.891,415.985,119.209,127.681,-1601.040,-582.490,506.980
944,82618.346000,295.537,-25.650,-5.977,422.439,88.056,120.139,-2530.040,-613.490,590.980
945,82618.380000,211.521,-3.521,-101.603,424.132,64.623,112.757,-2675.040,-374.490,423.980
946,82618.400000,278.734,42.750,-86.661,428.889,56.860,110.634,-2404.040,-160.490,108.980
947,82618.440000,283.676,48.786,-60.763,433.566,40.403,110.278,-2415.040,-86.490,-160.020
948,82618.480000,218.440,-24.644,-97.619,434.338,20.930,106.906,-1262.040,99.510,-219.020
949,82618.520000,183.846,-84.998,-219.144,437.345,32.522,103.247,-688.040,8.510,-239.020
950,82618.565000,205.591,-22.633,-261.977,435.515,45.837,91.771,-484.040,-691.490,-412.020
951,82618.605000,175.938,31.686,-219.144,446.186,54.139,67.461,-445.040,-1150.490,-656.020
952,82618.645000,168.031,104.110,-145.432,451.215,80.680,36.679,325.960,-1316.490,-1055.020
953,82618.683000,160.124,82.986,-101.603,453.249,94.852,18.366,778.960,-1136.490,-1096.020
954,82618.705000,170.996,63.874,-74.708,452.487,122.351,-10.445,735.960,-735.490,-870.020
955,82618.745000,167.042,33.697,-15.938,457.467,140.499,-25.723,616.960,-308.490,-594.020
956,82618.785000,246.116,-38.727,119.533,464.336,151.180,-28.413,749.960,354.510,-138.020
957,82618.825000,180.880,-31.686,-50.802,470.059,139.888,-14.923,865.960,917.510,212.980
958,82618.865000,293.560,96.063,-23.907,479.685,131.590,0.604,798.960,957.510,664.980
959,82618.905000,314.317,96.063,-82.677,489.246,114.748,24.767,310.960,946.510,725.980
960,82618.951000,281.699,-62.868,-43.829,486.260,103.349,37.256,251.960,932.510,641.980
961,82618.983000,258.965,-49.792,-59.767,493.971,96.996,53.803,-134.040,818.510,411.980
962,82619.23000,255.012,16.597,-62.755,493.896,84.827,74.126,145.960,829.510,324.980
963,82619.45000,262.919,8.550,-45.821,490.036,82.244,90.732,20.960,732.510,358.980
964,82619.112000,264.896,-7.544,-32.872,492.050,87.419,104.581,-11.040,616.510,337.980
965,82619.126000,246.116,6.538,-39.844,488.364,106.755,103.041,-342.040,459.510,371.980
966,82619.165000,258.965,-19.615,-32.872,495.326,133.294,71.283,-145.040,386.510,328.980
967,82619.203000,255.012,-20.621,-17.930,547.025,103.944,-50.862,-297.040,246.510,313.980
968,82619.245000,254.023,-9.556,-27.891,546.026,-16.573,28.836,-412.040,110.510,318.980
969,82619.285000,253.035,-20.621,-27.891,516.166,-19.131,102.266,-367.040,13.510,316.980
970,82619.336000,245.127,-48.786,-21.914,503.700,-12.026,122.011,-433.040,-118.490,265.980
971,82619.343000,249.081,-54.821,-15.938,501.716,-17.806,124.821,-536.040,-254.490,294.980
972,82619.383000,261.931,-36.715,-24.903,498.734,-23.875,114.873,-404.040,-412.490,314.980
973,82619.423000,254.023,11.568,-56.778,501.564,-29.823,107.882,-220.040,-478.490,249.980
974,82619.462000,256.000,91.033,-63.751,504.444,-29.126,94.175,-966.040,-667.490,-37.020
975,82619.502000,299.490,98.075,-41.837,513.023,-36.441,66.572,-1817.040,-882.490,-27.020
976,82619.542000,325.189,22.633,-13.946,513.780,-49.894,28.029,-1749.040,-1331.490,291.980
977,82619.582000,445.776,-76.951,-212.171,514.503,-63.670,-25.231,-1184.040,-2090.490,672.980
978,82619.622000,378.564,64.880,-143.440,491.182,-58.718,-98.720,-408.040,-2892.490,457.980
979,82619.668000,316.293,-4.527,-68.732,456.405,-38.324,-170.909,-1307.040,-2874.490,-155.020
980,82619.682000,148.263,80.974,19.922,437.190,-19.613,-194.071,-194.040,-1890.490,-981.020
981,82619.722000,36.571,64.880,95.626,421.174,26.613,-202.885,-72.040,15.510,-1933.020
982,82619.762000,-10.873,71.921,56.778,421.768,82.491,-177.127,4.960,1339.510,-2201.020
983,82619.802000,74.131,-6.538,-50.802,425.225,127.459,-119.243,-431.040,2670.510,-2165.020
984,82619.842000,195.707,-60.857,-239.066,422.928,175.499,-51.497,496.960,3320.510,-1810.020
985,82619.882000,317.282,-79.969,-337.681,411.805,213.509,5.221,1751.960,2960.510,-1323.020
986,82619.922000,308.386,-115.175,-315.767,406.205,230.388,25.197,2090.960,2083.510,-908.020
987,82619.962000,304.432,-145.352,-492.078,398.635,247.788,25.568,2092.960,104.510,-172.020
988,82619.982000,201.637,-39.733,-117.541,402.407,239.843,15.593,846.960,281.510,383.980
989,82620.22000,259.954,71.921,-61.759,409.202,240.125,25.420,-536.040,311.510,720.980
990,82620.62000,275.768,65.886,-64.747,415.878,227.829,36.929,119.960,481.510,594.980
991,82620.102000,286.641,-15.591,-29.883,422.590,218.510,51.446,61.960,548.510,646.980
992,82620.142000,257.977,3.521,-56.778,425.413,207.211,65.911,-183.040,426.510,423.980
993,82620.182000,261.931,42.750,-62.755,424.381,199.542,70.642,151.960,478.510,179.980
994,82620.222000,280.710,17.603,-36.856,423.413,197.764,78.446,105.960,396.510,108.980
995,82620.262000,246.116,16.597,-49.805,423.417,196.038,88.214,29.960,448.510,35.980
996,82620.302000,257.977,38.727,-30.879,423.465,199.145,97.109,45.960,402.510,23.980
