Sample, Time, ACCX, ACCY, ACCZ, MAGX, MAGY, MAGZ, GYRX, GYRY, GYRZ
0,82445.368000,254.023,7.544,0.996,441.929,203.639,116.861,-10.040,-2.490,5.980
1,82445.408000,254.023,8.550,2.988,439.081,209.414,116.003,-6.040,-1.490,5.980
2,82445.423000,254.023,7.544,1.992,439.060,207.451,114.978,-5.040,-2.490,7.980
3,82445.463000,254.023,7.544,0.996,442.934,207.531,116.950,-3.040,-3.490,7.980
4,82445.503000,254.023,6.538,0.996,436.210,213.204,113.139,-1.040,-5.490,5.980
5,82445.543000,253.035,6.538,1.992,439.067,208.400,114.019,-5.040,-7.490,7.980
6,82445.585000,254.023,7.544,0.996,440.001,204.569,115.897,-6.040,-4.490,6.980
7,82445.626000,255.012,6.538,0.996,440.063,210.437,117.989,-8.040,-2.490,5.980
8,82445.666000,254.023,6.538,0.996,438.085,206.492,115.936,-9.040,-1.490,5.980
9,82445.706000,253.035,8.550,1.992,439.083,209.435,116.984,-6.040,-1.490,6.980
10,82445.726000,252.046,8.550,3.984,440.070,211.387,117.029,-5.040,-2.490,5.980
11,82445.773000,255.012,8.550,1.992,441.969,207.544,117.929,-4.040,-4.490,5.980
12,82445.802000,254.023,6.538,1.992,434.166,201.578,114.838,-4.040,-3.490,5.980
13,82445.857000,254.023,5.532,1.992,438.062,204.507,113.930,-6.040,-3.490,6.980
14,82445.889000,253.035,6.538,0.996,438.074,205.499,114.933,-5.040,-2.490,6.980
15,82445.925000,253.035,6.538,2.988,442.955,209.495,117.974,-7.040,-3.490,6.980
16,82445.967000,253.035,7.544,0.996,438.116,209.426,116.982,-8.040,-4.490,5.980
17,82446.3000,254.023,6.538,1.992,440.969,204.578,115.899,-6.040,-5.490,5.980
18,82446.43000,253.035,8.550,1.992,439.076,208.486,117.943,-5.040,-4.490,4.980
19,82446.69000,253.035,7.544,1.992,441.011,208.505,117.948,-6.040,-3.490,4.980
20,82446.104000,253.035,8.550,2.988,439.067,208.400,114.019,-4.040,-3.490,6.980
21,82446.145000,255.012,6.538,0.996,437.139,208.446,116.958,-3.040,-4.490,6.980
22,82446.185000,254.023,6.538,2.988,440.962,203.629,116.859,-4.040,-5.490,5.980
23,82446.225000,254.023,8.550,1.992,438.067,204.550,115.893,-4.040,-6.490,5.980
24,82446.265000,254.023,6.538,1.992,440.967,204.557,114.918,-7.040,-7.490,4.980
25,82446.307000,254.023,6.538,0.996,436.188,210.356,116.018,-5.040,-3.490,3.980
26,82446.342000,254.023,9.556,2.988,440.950,202.637,115.856,-7.040,-4.490,4.980
27,82446.362000,254.023,7.544,2.988,437.140,209.330,113.055,-4.040,-4.490,4.980
28,82446.407000,252.046,8.550,0.996,438.057,203.579,115.871,-5.040,-4.490,4.980
29,82446.453000,253.035,6.538,2.988,438.137,211.389,118.006,-5.040,-4.490,5.980
30,82446.487000,255.012,6.538,0.996,440.030,207.482,115.962,-5.040,-5.490,4.980
31,82446.527000,253.035,7.544,1.992,441.960,206.573,117.907,-6.040,-3.490,3.980
32,82446.567000,253.035,7.544,2.988,436.139,205.481,114.929,-8.040,-4.490,5.980
33,82446.607000,255.012,6.538,1.992,437.163,211.315,115.060,-7.040,-4.490,4.980
34,82446.647000,253.035,5.532,3.984,436.125,203.582,116.848,-7.040,-3.490,4.980
35,82446.687000,254.023,7.544,1.992,439.062,207.472,115.960,-5.040,-5.490,4.980
36,82446.707000,254.023,5.532,0.996,438.093,207.441,114.976,-7.040,-4.490,3.980
37,82446.747000,252.046,8.550,0.996,438.069,204.572,116.874,-5.040,-2.490,5.980
38,82446.787000,253.035,7.544,2.988,438.057,203.579,115.871,-2.040,-6.490,4.980
39,82446.826000,255.012,7.544,0.000,437.078,201.693,118.769,-3.040,-8.490,5.980
40,82446.866000,254.023,5.532,0.000,440.039,208.452,115.983,-6.040,-4.490,4.980
41,82446.906000,254.023,7.544,0.996,441.026,210.404,116.029,-7.040,-3.490,3.980
42,82446.946000,253.035,7.544,1.992,439.992,203.598,115.876,-7.040,-0.490,4.980
43,82446.991000,254.023,6.538,0.996,439.999,204.547,114.916,-8.040,-1.490,4.980
44,82447.6000,255.012,8.550,1.992,441.995,210.435,117.012,-5.040,-2.490,4.980
45,82447.47000,254.023,7.544,2.988,440.009,205.518,114.938,-3.040,-4.490,4.980
46,82447.87000,253.035,6.538,1.992,439.994,203.620,116.857,-3.040,-3.490,5.980
47,82447.124000,254.023,7.544,0.996,439.062,207.472,115.960,-7.040,-5.490,5.980
48,82447.166000,254.023,8.550,2.988,441.896,200.683,114.834,-5.040,-5.490,4.980
49,82447.211000,254.023,5.532,2.988,439.097,210.449,118.968,-5.040,-6.490,5.980
50,82447.246000,253.035,8.550,1.992,441.927,203.617,115.880,-6.040,-6.490,5.980
51,82447.287000,252.046,8.550,1.992,438.078,205.543,116.895,-4.040,-7.490,5.980
52,82447.327000,254.023,6.538,1.992,438.048,202.608,115.850,-4.040,-6.490,4.980
53,82447.347000,252.046,9.556,0.996,437.141,208.467,117.939,-5.040,-4.490,5.980
54,82447.387000,252.046,7.544,0.996,438.048,203.493,111.946,-3.040,-5.490,8.980
55,82447.427000,253.035,6.538,1.992,439.079,209.392,115.022,-1.040,-7.490,7.980
56,82447.467000,254.023,8.550,0.996,441.922,203.574,113.918,-3.040,-7.490,7.980
57,82447.506000,253.035,7.544,1.992,438.031,200.688,116.788,-6.040,-5.490,7.980
58,82447.546000,255.012,7.544,3.984,438.067,204.550,115.893,-7.040,-3.490,6.980
59,82447.586000,252.046,7.544,3.984,442.883,202.634,114.880,-8.040,-1.490,6.980
60,82447.626000,254.023,7.544,1.992,438.071,204.593,117.855,-7.040,-1.490,4.980
61,82447.666000,252.046,7.544,0.996,438.095,207.463,115.957,-4.040,-3.490,5.980
62,82447.686000,253.035,7.544,1.992,436.198,211.327,116.039,-3.040,-3.490,6.980
63,82447.724000,254.023,7.544,1.992,436.162,207.465,116.934,-4.040,-2.490,4.980
64,82447.767000,256.000,7.544,1.992,440.948,202.615,114.875,-6.040,-4.490,4.980
65,82447.806000,253.035,6.538,1.992,437.066,201.585,113.863,-4.040,-2.490,4.980
66,82447.847000,255.012,6.538,2.988,438.102,208.412,114.998,-4.040,-3.490,4.980
67,82447.887000,254.023,7.544,2.988,439.088,210.363,115.043,-5.040,-3.490,3.980
68,82447.928000,256.000,7.544,1.992,439.985,202.649,116.835,-5.040,-2.490,4.980
69,82447.968000,252.046,8.550,2.988,439.973,201.656,115.832,-7.040,-1.490,4.980
70,82447.988000,254.023,7.544,2.988,439.093,210.406,117.005,-4.040,-2.490,5.980
71,82448.28000,253.035,8.550,1.992,439.065,207.494,116.941,-2.040,-3.490,5.980
72,82448.68000,253.035,7.544,0.996,440.950,202.637,115.856,-6.040,-6.490,5.980
73,82448.108000,255.012,6.538,0.996,440.983,205.592,117.883,-5.040,-5.490,5.980
74,82448.148000,251.058,7.544,1.992,439.039,205.487,113.954,-7.040,-2.490,4.980
75,82448.188000,253.035,7.544,1.992,438.125,210.397,117.003,-9.040,-0.490,3.980
76,82448.228000,253.035,6.538,0.996,441.941,204.631,117.864,-7.040,0.510,3.980
77,82448.268000,253.035,6.538,0.996,440.966,203.672,118.821,-5.040,-2.490,4.980
78,82448.308000,255.012,6.538,1.992,437.092,203.591,116.850,-5.040,-4.490,3.980
79,82448.328000,254.023,7.544,1.992,438.050,202.630,116.831,-4.040,-4.490,4.980
80,82448.368000,253.035,7.544,2.988,437.118,206.482,115.934,-4.040,-4.490,3.980
81,82448.407000,254.023,6.538,3.984,439.078,208.508,118.925,-5.040,-8.490,4.980
82,82448.447000,254.023,6.538,1.992,439.088,209.479,118.946,-6.040,-5.490,4.980
83,82448.487000,253.035,6.538,3.984,440.992,206.563,117.905,-5.040,-4.490,3.980
84,82448.527000,255.012,7.544,1.992,440.041,208.474,116.965,-6.040,-5.490,3.980
85,82448.566000,252.046,7.544,0.996,441.016,209.433,116.007,-4.040,-4.490,5.980
86,82448.606000,254.023,7.544,1.992,440.060,210.416,117.008,-2.040,-3.490,6.980
87,82448.626000,254.023,7.544,3.984,438.111,209.383,115.019,-3.040,-7.490,6.980
88,82448.666000,254.023,5.532,1.992,438.118,209.448,117.963,-5.040,-7.490,6.980
89,82448.706000,254.023,8.550,2.988,436.106,202.525,112.902,-7.040,-4.490,6.980
90,82448.744000,254.023,7.544,2.988,436.094,200.648,115.802,-8.040,-2.490,6.980
91,82448.784000,254.023,6.538,0.996,440.039,208.452,115.983,-6.040,-1.490,6.980
92,82448.826000,254.023,7.544,2.988,439.980,201.721,118.776,-6.040,-5.490,7.980
93,82448.866000,253.035,8.550,2.988,438.977,198.734,115.765,-4.040,-6.490,7.980
94,82448.906000,255.012,5.532,2.988,434.169,201.600,115.819,-4.040,-4.490,6.980
95,82448.946000,255.012,6.538,2.988,439.081,209.414,116.003,-5.040,-5.490,7.980
96,82448.966000,253.035,6.538,1.992,440.049,209.423,116.005,-4.040,-6.490,7.980
97,82449.25000,254.023,6.538,2.988,440.960,203.608,115.878,-5.040,-3.490,5.980
98,82449.51000,255.012,6.538,2.988,438.022,199.717,116.766,-6.040,-4.490,6.980
99,82449.87000,253.035,7.544,2.988,438.111,208.498,118.922,-5.040,-6.490,6.980
100,82449.128000,253.035,6.538,1.992,441.960,206.573,117.907,-5.040,-5.490,6.980
101,82449.168000,253.035,6.538,2.988,438.071,204.593,117.855,-2.040,-3.490,6.980
102,82449.208000,253.035,6.538,2.988,437.106,204.605,118.834,-2.040,-5.490,6.980
103,82449.253000,255.012,5.532,1.992,442.894,203.626,115.882,-4.040,-8.490,9.980
104,82449.268000,255.012,8.550,1.992,437.118,206.482,115.934,-5.040,-7.490,7.980
105,82449.307000,253.035,5.532,2.988,441.913,201.718,117.799,-6.040,-5.490,8.980
106,82449.347000,253.035,7.544,1.992,439.091,210.385,116.024,-7.040,-4.490,6.980
107,82449.386000,255.012,5.532,2.988,441.984,209.442,116.009,-5.040,-5.490,7.980
108,82449.426000,254.023,7.544,1.992,436.167,208.393,114.993,-3.040,-5.490,7.980
109,82449.466000,254.023,6.538,1.992,437.083,202.621,116.828,-2.040,-5.490,7.980
110,82449.507000,254.023,8.550,0.000,439.043,205.530,115.916,-4.040,-6.490,6.980
111,82449.547000,253.035,5.532,1.992,441.953,206.508,114.964,-3.040,-5.490,8.980
112,82449.592000,253.035,6.538,0.996,437.111,205.533,116.893,-5.040,-5.490,6.980
113,82449.607000,253.035,8.550,1.992,436.113,202.590,115.845,-4.040,-6.490,6.980
114,82449.647000,255.012,6.538,1.992,439.003,201.625,114.849,-6.040,-7.490,7.980
115,82449.686000,254.023,5.532,1.992,437.111,205.533,116.893,-4.040,-4.490,6.980
116,82449.728000,253.035,7.544,1.992,439.051,206.480,114.957,-3.040,-3.490,7.980
117,82449.768000,253.035,7.544,3.984,439.062,207.472,115.960,-2.040,-3.490,8.980
118,82449.809000,255.012,6.538,2.988,439.983,202.627,115.854,-4.040,-2.490,8.980
119,82449.849000,255.012,6.538,1.992,436.137,205.459,113.947,-4.040,-6.490,9.980
120,82449.889000,254.023,5.532,1.992,437.106,205.490,114.931,-6.040,-4.490,8.980
121,82449.929000,254.023,5.532,0.996,438.041,201.659,116.809,-5.040,-2.490,7.980
122,82449.954000,253.035,5.532,1.992,439.072,208.443,115.981,-4.040,-2.490,8.980
123,82449.989000,253.035,6.538,2.988,440.955,202.680,117.819,-5.040,-4.490,7.980
124,82450.27000,255.012,6.538,1.992,436.087,199.699,116.761,-3.040,-4.490,8.980
125,82450.73000,253.035,7.544,1.992,439.048,206.458,113.976,-3.040,-4.490,7.980
126,82450.108000,254.023,6.538,1.992,441.023,210.382,115.048,-6.040,-3.490,6.980
127,82450.147000,254.023,5.532,2.988,436.153,206.495,116.912,-7.040,-3.490,5.980
128,82450.186000,255.012,4.527,2.988,439.008,201.669,116.811,-6.040,-2.490,5.980
129,82450.229000,255.012,5.532,1.992,438.987,199.705,115.787,-4.040,-3.490,6.980
130,82450.246000,254.023,6.538,0.996,439.997,203.641,117.838,-6.040,-3.490,6.980
131,82450.303000,253.035,6.538,2.988,444.799,200.711,114.841,-3.040,-0.490,7.980
132,82450.331000,255.012,4.527,3.984,442.887,202.677,116.842,-3.040,-1.490,6.980
133,82450.371000,254.023,6.538,2.988,439.012,201.712,118.774,-4.040,-6.490,7.980
134,82450.410000,253.035,5.532,2.988,439.992,203.598,115.876,-4.040,-9.490,7.980
135,82450.449000,254.023,6.538,0.996,438.072,205.478,113.952,-5.040,-11.490,7.980
136,82450.487000,254.023,5.532,0.996,440.049,209.423,116.005,-5.040,-5.490,6.980
137,82450.531000,252.046,7.544,1.992,442.916,206.474,113.004,-4.040,-1.490,5.980
138,82450.568000,254.023,6.538,1.992,441.908,201.675,115.837,-7.040,-2.490,5.980
139,82450.588000,252.046,5.532,1.992,439.074,208.465,116.962,-6.040,-1.490,4.980
140,82450.628000,254.023,6.538,1.992,443.883,206.484,113.006,-4.040,-1.490,4.980
141,82450.668000,255.012,5.532,1.992,440.976,205.528,114.940,-5.040,-4.490,5.980
142,82450.708000,253.035,5.532,2.988,437.120,206.504,116.915,-5.040,-8.490,5.980
143,82450.748000,252.046,7.544,1.992,439.994,203.620,116.857,-4.040,-8.490,6.980
144,82450.788000,253.035,6.538,0.996,439.027,203.610,116.854,-5.040,-7.490,6.980
145,82450.828000,255.012,5.532,1.992,440.046,209.402,115.024,-5.040,-3.490,4.980
146,82450.869000,253.035,6.538,2.988,438.107,208.455,116.960,-5.040,-3.490,6.980
147,82450.891000,253.035,6.538,1.992,439.952,199.693,114.808,-3.040,-5.490,8.980
148,82450.931000,250.069,6.538,1.992,439.053,206.501,115.938,-6.040,-7.490,7.980
149,82450.972000,253.035,6.538,1.992,434.154,199.701,117.738,-5.040,-6.490,6.980
150,82451.8000,253.035,5.532,2.988,441.957,206.551,116.926,-8.040,-5.490,5.980
151,82451.48000,253.035,7.544,0.000,440.030,207.482,115.962,-8.040,-1.490,5.980
152,82451.88000,253.035,6.538,2.988,439.949,198.787,117.730,-7.040,-2.490,4.980
153,82451.128000,254.023,6.538,1.992,438.973,197.807,117.706,-6.040,-4.490,4.980
154,82451.168000,252.046,6.538,2.988,436.080,199.634,113.818,-6.040,-5.490,4.980
155,82451.208000,254.023,5.532,1.992,436.106,201.640,116.805,-6.040,-5.490,4.980
156,82451.228000,253.035,7.544,1.992,440.976,205.528,114.940,-6.040,-3.490,4.980
157,82451.268000,254.023,6.538,1.992,441.002,207.534,117.926,-5.040,-2.490,3.980
158,82451.309000,255.012,5.532,2.988,438.052,202.652,117.812,-4.040,-5.490,3.980
159,82451.349000,254.023,6.538,0.996,438.095,207.463,115.957,-6.040,-5.490,5.980
160,82451.396000,253.035,6.538,2.988,438.107,208.455,116.960,-4.040,-3.490,5.980
161,82451.431000,254.023,5.532,1.992,438.099,207.506,117.920,-4.040,-3.490,6.980
162,82451.471000,254.023,5.532,1.992,440.011,205.540,115.919,-5.040,-7.490,5.980
163,82451.511000,253.035,6.538,0.996,439.952,199.693,114.808,-4.040,-7.490,4.980
164,82451.562000,254.023,7.544,1.992,439.013,202.596,114.871,-7.040,-5.490,4.980
165,82451.583000,254.023,5.532,2.988,438.045,202.587,114.868,-6.040,-3.490,2.980
166,82451.612000,253.035,6.538,0.996,440.049,209.423,116.005,-7.040,-4.490,2.980
167,82451.652000,253.035,6.538,1.992,439.964,200.686,115.811,-6.040,-9.490,2.980
168,82451.692000,253.035,6.538,2.988,439.060,207.451,114.978,-5.040,-11.490,1.980
169,82451.732000,252.046,6.538,2.988,436.111,202.568,114.864,-5.040,-7.490,2.980
170,82451.772000,253.035,7.544,1.992,438.074,205.499,114.933,-5.040,-8.490,1.980
171,82451.811000,253.035,6.538,1.992,440.023,206.532,116.921,-5.040,-11.490,2.980
172,82451.851000,255.012,6.538,0.996,441.930,204.523,112.958,-7.040,-8.490,2.980
173,82451.871000,254.023,6.538,1.992,439.973,201.656,115.832,-6.040,-10.490,2.980
174,82451.911000,254.023,6.538,0.996,440.009,205.518,114.938,-6.040,-8.490,4.980
175,82451.951000,252.046,8.550,3.984,439.008,201.669,116.811,-4.040,-6.490,5.980
176,82451.991000,253.035,6.538,2.988,442.880,202.612,113.898,-2.040,-7.490,6.980
177,82452.31000,253.035,6.538,1.992,438.081,206.449,113.973,-4.040,-10.490,6.980
178,82452.71000,252.046,5.532,2.988,436.101,201.597,114.842,-5.040,-6.490,6.980
179,82452.111000,255.012,6.538,2.988,436.113,202.590,115.845,-9.040,-8.490,6.980
180,82452.149000,253.035,5.532,1.992,439.985,203.533,112.932,-9.040,-8.490,5.980
181,82452.189000,254.023,6.538,0.996,438.987,199.705,115.787,-10.040,-10.490,5.980
182,82452.209000,253.035,5.532,0.996,440.001,204.569,115.897,-6.040,-12.490,6.980
183,82452.251000,253.035,5.532,1.992,439.025,203.589,115.873,-3.040,-9.490,5.980
184,82452.291000,254.023,5.532,0.996,438.928,193.858,114.676,-4.040,-9.490,5.980
185,82452.331000,253.035,6.538,0.000,434.157,200.607,114.816,-4.040,-10.490,4.980
186,82452.376000,253.035,5.532,0.996,439.053,206.501,115.938,-7.040,-8.490,6.980
187,82452.411000,253.035,6.538,1.992,438.987,199.705,115.787,-8.040,-9.490,4.980
188,82452.451000,254.023,5.532,1.992,439.058,207.429,113.997,-6.040,-9.490,8.980
189,82452.491000,253.035,6.538,0.996,441.913,202.603,113.896,-5.040,-7.490,6.980
190,82452.511000,254.023,7.544,1.992,440.004,204.591,116.878,-2.040,-6.490,8.980
191,82452.551000,253.035,5.532,0.996,442.914,206.453,112.022,0.960,-10.490,10.980
192,82452.596000,254.023,7.544,0.000,438.069,205.456,112.971,-2.040,-10.490,9.980
193,82452.631000,253.035,7.544,1.992,440.936,201.623,113.872,-5.040,-7.490,8.980
194,82452.671000,253.035,5.532,0.996,439.022,203.567,114.892,-7.040,-6.490,8.980
195,82452.711000,254.023,6.538,0.996,436.108,202.546,113.883,-10.040,-6.490,8.980
196,82452.751000,253.035,7.544,-1.992,439.060,207.451,114.978,-6.040,-4.490,7.980
197,82452.791000,253.035,5.532,0.000,441.948,206.465,113.001,-4.040,-2.490,7.980
198,82452.829000,255.012,5.532,1.992,439.013,203.481,110.968,-0.040,4.510,6.980
199,82452.862000,254.023,6.538,0.996,438.982,199.662,113.825,-5.040,10.510,4.980
200,82452.892000,252.046,5.532,1.992,438.119,210.332,114.060,-0.040,14.510,5.980
201,82452.938000,253.035,6.538,1.992,438.069,204.572,116.874,2.960,13.510,7.980
202,82452.973000,255.012,6.538,1.992,441.929,203.639,116.861,2.960,7.510,7.980
203,82453.13000,252.046,3.521,2.988,440.971,204.600,116.881,1.960,7.510,9.980
204,82453.53000,253.035,7.544,2.988,439.985,202.649,116.835,-1.040,5.510,9.980
205,82453.89000,252.046,5.532,1.992,437.104,204.584,117.853,6.960,0.510,11.980
206,82453.129000,254.023,5.532,1.992,439.954,199.715,115.789,1.960,-4.490,12.980
207,82453.149000,253.035,4.527,4.981,438.053,203.536,113.909,1.960,-18.490,16.980
208,82453.189000,253.035,5.532,2.988,438.104,208.434,115.979,7.960,-30.490,19.980
209,82453.229000,255.012,4.527,1.992,442.850,199.678,112.853,11.960,-36.490,15.980
210,82453.271000,255.012,3.521,0.000,438.003,198.660,112.820,15.960,-38.490,16.980
211,82453.312000,254.023,3.521,1.992,439.037,205.466,112.973,17.960,-41.490,14.980
212,82453.352000,255.012,5.532,1.992,440.977,206.412,111.037,8.960,-42.490,9.980
213,82453.392000,252.046,2.515,-0.996,441.864,198.612,108.904,4.960,-39.490,12.980
214,82453.432000,253.035,5.532,-1.992,438.018,200.559,110.901,5.960,-36.490,10.980
215,82453.471000,254.023,4.527,-1.992,443.839,202.536,109.976,1.960,-29.490,10.980
216,82453.491000,253.035,4.527,-0.996,442.860,201.534,108.971,-2.040,-22.490,8.980
217,82453.531000,254.023,4.527,-1.992,439.929,198.593,108.900,-4.040,-21.490,7.980
218,82453.571000,252.046,3.521,-1.992,439.016,204.387,108.046,-3.040,-20.490,7.980
219,82453.610000,253.035,5.532,0.000,439.965,202.455,108.005,-6.040,-15.490,2.980
220,82453.650000,255.012,4.527,-1.992,438.974,200.460,105.997,-6.040,-12.490,3.980
221,82453.694000,253.035,4.527,-1.992,441.869,199.539,106.963,-5.040,-13.490,4.980
222,82453.729000,252.046,3.521,-0.996,442.912,207.316,107.138,-4.040,-13.490,3.980
223,82453.771000,254.023,5.532,-1.992,442.895,205.396,108.076,-7.040,-6.490,1.980
224,82453.792000,253.035,3.521,0.000,440.899,199.508,105.980,-9.040,-2.490,2.980
225,82453.832000,254.023,5.532,-1.992,440.885,198.494,103.996,-11.040,4.510,0.980
226,82453.872000,255.012,3.521,0.000,442.879,204.360,105.111,-11.040,5.510,1.980
227,82453.912000,254.023,4.527,-0.996,445.795,205.402,107.102,-4.040,7.510,0.980
228,82453.952000,254.023,3.521,-0.996,440.968,206.326,107.112,-2.040,4.510,-0.020
229,82453.997000,251.058,6.538,0.000,440.973,207.254,105.172,-2.040,-0.490,1.980
230,82454.32000,253.035,5.532,-0.996,439.960,201.527,109.946,-4.040,-3.490,3.980
231,82454.71000,253.035,5.532,-0.996,441.907,203.423,107.050,-4.040,-5.490,2.980
232,82454.123000,254.023,6.538,-0.996,443.891,208.318,108.143,-5.040,-7.490,4.980
233,82454.142000,254.023,5.532,-2.988,442.926,208.330,109.122,-6.040,-6.490,4.980
234,82454.173000,255.012,5.532,-0.996,442.830,199.484,104.022,-10.040,-4.490,4.980
235,82454.213000,255.012,4.527,-0.996,437.999,199.502,106.954,-8.040,-4.490,4.980
236,82454.253000,253.035,5.532,-2.988,439.936,199.542,107.940,-13.040,0.510,4.980
237,82454.293000,254.023,4.527,-1.992,440.958,205.355,107.091,-10.040,2.510,2.980
238,82454.333000,253.035,6.538,-2.988,442.919,207.380,110.082,-19.040,2.510,2.980
239,82454.373000,254.023,5.532,-2.988,441.932,205.429,110.036,-27.040,1.510,1.980
240,82454.414000,255.012,5.532,-0.996,439.941,199.585,109.902,-52.040,-0.490,-1.020
241,82454.454000,255.012,2.515,-1.992,440.908,199.595,109.905,-36.040,6.510,-7.020
242,82454.474000,253.035,4.527,-1.992,439.979,203.469,109.989,-10.040,13.510,-5.020
243,82454.515000,254.023,5.532,-0.996,442.916,207.359,109.101,-5.040,8.510,-1.020
244,82454.553000,253.035,3.521,0.996,441.937,205.472,111.999,-4.040,6.510,-1.020
245,82454.594000,253.035,5.532,0.000,439.955,200.599,111.886,5.960,-2.490,-1.020
246,82454.634000,254.023,7.544,0.000,440.953,203.543,112.934,6.960,-9.490,0.980
247,82454.679000,255.012,6.538,0.000,440.040,209.337,112.080,3.960,-10.490,0.980
248,82454.714000,253.035,7.544,-1.992,440.007,206.381,110.053,-3.040,-4.490,-0.020
249,82454.759000,255.012,6.538,-2.988,441.944,206.422,111.039,-8.040,6.510,-0.020
250,82454.778000,254.023,6.538,0.000,441.925,203.595,114.899,-18.040,19.510,-0.020
251,82454.813000,254.023,6.538,0.996,441.946,206.443,112.020,-17.040,16.510,-1.020
252,82454.853000,255.012,6.538,1.992,440.929,201.558,110.929,-9.040,4.510,0.980
253,82454.894000,254.023,4.527,0.996,440.960,204.492,111.975,-7.040,0.510,0.980
254,82454.934000,253.035,5.532,0.996,441.904,201.632,113.875,-2.040,-7.490,1.980
255,82454.974000,255.012,5.532,-0.996,441.002,208.419,114.023,-1.040,-10.490,2.980
256,82455.14000,253.035,7.544,0.996,441.899,201.589,111.912,-7.040,-11.490,1.980
257,82455.54000,254.023,7.544,-0.996,439.976,202.563,112.911,-9.040,-8.490,1.980
258,82455.94000,255.012,4.527,0.996,437.076,202.556,113.885,-12.040,-6.490,2.980
259,82455.114000,253.035,7.544,-0.996,440.026,208.323,110.097,-11.040,-6.490,1.980
260,82455.154000,254.023,7.544,-0.996,441.927,204.502,111.977,-6.040,-6.490,3.980
261,82455.194000,256.988,5.532,0.996,440.948,203.500,110.972,-6.040,-8.490,4.980
262,82455.234000,254.023,5.532,-0.996,436.094,201.532,111.899,-3.040,-10.490,4.980
263,82455.274000,253.035,6.538,1.992,439.060,207.451,114.978,-5.040,-10.490,4.980
264,82455.314000,253.035,6.538,0.996,440.028,208.345,111.078,-6.040,-16.490,4.980
265,82455.354000,253.035,8.550,-0.996,442.834,198.643,109.888,-5.040,-25.490,8.980
266,82455.394000,253.035,6.538,-0.996,439.953,200.578,110.905,-2.040,-31.490,6.980
267,82455.419000,252.046,6.538,-0.996,441.944,207.306,107.136,-5.040,-35.490,7.980
268,82455.454000,254.023,7.544,-0.996,439.976,203.447,109.008,-2.040,-35.490,8.980
269,82455.493000,256.000,7.544,-3.984,440.989,208.289,108.137,-11.040,-22.490,6.980
270,82455.533000,253.035,6.538,-1.992,441.928,205.386,108.074,-8.040,-14.490,7.980
271,82455.573000,255.012,5.532,0.000,441.887,200.597,110.910,-10.040,-28.490,5.980
272,82455.613000,252.046,6.538,-1.992,436.104,203.388,108.017,-7.040,-49.490,7.980
273,82455.653000,252.046,8.550,-3.984,441.940,207.263,105.174,-3.040,-58.490,10.980
274,82455.694000,255.012,7.544,-6.973,440.003,207.223,104.188,-10.040,-38.490,7.980
275,82455.734000,253.035,7.544,-6.973,442.896,206.280,104.173,-10.040,-11.490,7.980
276,82455.754000,250.069,6.538,-0.996,443.804,200.443,103.065,-14.040,-15.490,6.980
277,82455.794000,255.012,5.532,-2.988,442.790,195.579,102.955,-13.040,-45.490,8.980
278,82455.832000,254.023,5.532,-3.984,438.958,199.425,103.032,-5.040,-55.490,9.980
279,82455.872000,253.035,5.532,-6.973,440.942,205.204,100.223,1.960,-54.490,10.980
280,82455.912000,253.035,9.556,-6.973,442.847,202.289,99.181,11.960,-54.490,12.980
281,82455.952000,252.046,6.538,-5.977,444.831,207.184,100.275,6.960,-60.490,15.980
282,82455.996000,254.023,6.538,-6.973,441.877,202.258,98.198,3.960,-62.490,15.980
283,82456.36000,255.012,6.538,-8.965,439.022,207.084,98.299,3.960,-61.490,17.980
284,82456.56000,253.035,7.544,-7.969,443.810,202.255,97.221,9.960,-68.490,21.980
285,82456.96000,254.023,4.527,-10.957,442.871,206.043,93.381,3.960,-78.490,21.980
286,82456.137000,253.035,3.521,-9.961,443.766,199.192,90.289,3.960,-85.490,24.980
287,82456.172000,253.035,5.532,-9.961,442.854,204.123,94.319,7.960,-85.490,27.980
288,82456.212000,253.035,4.527,-10.957,439.899,200.060,87.358,7.960,-85.490,31.980
289,82456.252000,255.012,5.532,-15.938,443.801,203.053,89.394,-7.040,-78.490,32.980
290,82456.292000,254.023,6.538,-18.926,445.729,203.008,86.455,-24.040,-49.490,29.980
291,82456.332000,254.023,2.515,-14.942,443.703,194.186,83.313,-44.040,-24.490,24.980
292,82456.372000,253.035,5.532,-16.934,445.703,200.117,87.371,-34.040,-0.490,22.980
293,82456.392000,253.035,3.521,-15.938,445.741,203.115,91.360,-20.040,11.510,15.980
294,82456.432000,253.035,5.532,-15.938,448.641,203.122,90.386,-19.040,22.510,6.980
295,82456.478000,252.046,2.515,-13.946,447.671,203.091,89.403,-2.040,30.510,5.980
296,82456.513000,252.046,2.515,-11.953,448.577,196.348,91.216,13.960,19.510,12.980
297,82456.553000,252.046,1.509,-9.961,445.668,196.255,88.266,18.960,-15.490,12.980
298,82456.593000,255.012,2.515,-13.946,447.673,203.113,90.384,9.960,-33.490,7.980
299,82456.633000,254.023,2.515,-16.934,446.666,199.198,89.314,0.960,-26.490,9.980
300,82456.698000,255.012,3.521,-15.938,449.542,197.220,86.334,5.960,-10.490,8.980
301,82456.708000,253.035,3.521,-13.946,445.689,198.218,89.290,-1.040,-1.490,9.980
302,82456.736000,253.035,3.521,-13.946,449.604,203.088,88.426,-4.040,-5.490,8.980
303,82456.776000,253.035,2.515,-14.942,447.584,194.332,88.227,-4.040,-15.490,8.980
304,82456.816000,253.035,2.515,-13.946,447.657,202.077,87.419,3.960,-22.490,8.980
305,82456.853000,254.023,1.509,-13.946,447.631,200.071,84.432,3.960,-26.490,7.980
306,82456.893000,253.035,3.521,-13.946,449.557,199.119,84.415,0.960,-32.490,4.980
307,82456.933000,254.023,2.515,-16.934,448.601,200.102,85.416,-5.040,-30.490,0.980
308,82456.977000,253.035,2.515,-17.930,447.532,189.434,86.157,-3.040,-23.490,-6.020
309,82457.16000,255.012,3.521,-14.942,450.574,204.004,85.506,-4.040,-15.490,-6.020
310,82457.36000,254.023,4.527,-11.953,447.671,203.976,85.500,1.960,-22.490,0.980
311,82457.96000,253.035,2.515,-10.957,451.454,195.254,84.333,-6.040,-57.490,1.980
312,82457.113000,254.023,11.568,-9.961,446.610,195.142,81.379,-33.040,-100.490,8.980
313,82457.153000,260.942,14.585,-11.953,451.436,194.197,80.387,-95.040,-157.490,11.980
314,82457.193000,267.861,33.697,-24.903,450.527,200.919,77.593,-208.040,-145.490,-28.020
315,82457.236000,258.965,16.597,-29.883,454.428,203.891,78.647,-379.040,-64.490,-68.020
316,82457.277000,245.127,9.556,-33.868,451.504,201.015,81.519,-433.040,-10.490,-88.020
317,82457.322000,243.151,10.562,-31.875,451.496,199.181,86.382,-299.040,39.510,-110.020
318,82457.337000,243.151,1.509,-32.872,450.559,202.105,87.426,-289.040,71.510,-104.020
319,82457.374000,238.208,-15.591,-31.875,449.627,205.073,90.431,-172.040,113.510,-103.020
320,82457.416000,254.023,-41.745,-5.977,444.803,205.156,96.307,-95.040,139.510,-92.020
321,82457.456000,258.965,-59.851,11.953,446.738,204.290,100.215,-16.040,140.510,-20.020
322,82457.495000,234.255,-15.591,3.984,448.651,202.345,99.195,475.960,29.510,67.980
323,82457.537000,233.266,36.715,20.918,450.571,203.098,88.428,600.960,-290.490,44.980
324,82457.577000,257.977,87.010,31.875,452.530,210.388,66.039,625.960,-1003.490,-20.020
325,82457.626000,364.726,46.774,75.704,452.479,212.545,31.764,445.960,-1463.490,-125.020
326,82457.653000,458.625,11.568,96.623,447.464,204.624,-17.456,192.960,-1987.490,-371.020
327,82457.682000,390.425,-70.916,-0.996,439.637,205.476,-63.545,467.960,-1744.490,-287.020
328,82457.718000,225.359,-7.544,-62.755,431.759,197.030,-91.207,833.960,-1416.490,-98.020
329,82457.753000,135.413,-16.597,82.677,428.745,191.522,-119.775,1537.960,-552.490,-49.020
330,82457.793000,90.934,51.804,105.588,440.217,178.000,-122.012,1890.960,738.510,-181.020
331,82457.892000,129.483,17.603,55.782,456.737,177.102,-81.790,254.960,2025.510,-293.020
332,82457.932000,160.124,25.650,18.926,474.298,176.042,-5.285,-548.040,2837.510,-216.020
333,82458.117000,278.734,67.898,-102.599,471.653,180.242,98.753,-1530.040,3385.510,-58.020
334,82458.133000,403.274,76.951,-251.019,455.303,170.437,189.702,-1419.040,2894.510,79.980
335,82458.171000,313.328,3.521,-305.805,440.780,162.270,221.852,-791.040,1204.510,29.980
336,82458.171000,248.093,-107.128,-350.630,433.950,152.840,237.319,-716.040,-99.490,164.980
337,82458.171000,196.695,26.656,78.693,442.548,144.835,222.449,117.960,-628.490,238.980
338,82458.171000,264.896,34.703,-7.969,446.377,143.599,208.701,471.960,-467.490,322.980
339,82458.177000,259.954,-37.721,8.965,454.074,139.748,206.670,1.960,-267.490,382.980
340,82458.183000,285.652,-15.591,15.938,452.038,129.071,207.410,-85.040,40.510,353.980
341,82458.229000,287.629,23.639,12.949,452.943,122.328,209.223,146.960,61.510,236.980
342,82458.338000,261.931,3.521,17.930,452.894,116.567,212.037,-227.040,115.510,200.980
343,82458.354000,256.988,-27.662,19.922,450.880,106.991,218.685,-302.040,156.510,107.980
344,82458.387000,250.069,-17.603,19.922,449.030,115.710,218.875,-312.040,198.510,51.980
345,82458.410000,258.965,-5.532,35.860,447.059,110.060,227.571,-402.040,236.510,58.980
346,82458.449000,259.954,-11.568,35.860,447.924,98.527,232.220,-364.040,235.510,14.980
347,82458.477000,256.000,-19.615,36.856,443.967,87.961,238.842,-354.040,283.510,-51.020
348,82458.493000,254.023,-29.674,19.922,443.098,96.818,244.921,-368.040,385.510,-165.020
349,82458.514000,264.896,1.509,47.813,439.321,104.720,252.933,-440.040,418.510,-362.020
350,82458.554000,313.328,88.016,105.588,435.460,103.884,260.752,-794.040,212.510,-506.020
351,82458.594000,286.641,30.680,2.988,435.500,108.674,257.916,-348.040,-216.490,-566.020
352,82458.638000,437.869,-197.658,-492.078,444.193,112.146,235.457,-95.040,-1099.490,-276.020
353,82458.658000,377.575,-78.963,-492.078,465.486,130.045,157.446,249.960,-3376.490,-309.020
354,82458.697000,299.490,52.809,-299.829,479.972,151.072,48.109,1630.960,-3959.490,-380.020
355,82458.734000,187.799,-0.503,-127.502,468.279,158.963,-29.213,1101.960,-4037.490,-411.020
356,82458.774000,122.564,-13.580,-18.926,443.936,162.503,-122.348,911.960,-3305.490,-308.020
357,82458.814000,85.992,18.609,80.685,418.623,159.842,-188.165,898.960,-2334.490,-76.020
358,82458.854000,118.610,33.697,153.401,406.972,161.973,-218.543,355.960,-716.490,212.980
359,82458.894000,191.753,-27.662,121.525,422.503,167.021,-216.437,401.960,629.510,81.980
360,82458.934000,435.892,-111.151,-492.078,444.888,175.566,-190.703,-510.040,1848.510,114.980
361,82458.954000,512.988,90.028,153.401,458.491,177.143,-169.064,436.960,1610.510,60.980
362,82458.994000,364.726,164.464,-84.669,465.322,179.539,-151.345,-109.040,1300.510,173.980
363,82459.34000,293.560,56.833,-59.767,472.136,178.246,-124.881,-2.040,1105.510,-43.020
364,82459.74000,252.046,-70.916,-38.848,470.246,177.774,-101.360,188.960,1166.510,-47.020
365,82459.114000,262.919,-45.768,-44.825,477.147,185.240,-73.721,-259.040,1206.510,9.980
366,82459.154000,270.826,38.727,-40.840,484.022,190.700,-49.069,4.960,1229.510,-42.020
367,82459.196000,266.873,-15.591,-19.922,484.074,191.196,-26.503,124.960,1060.510,47.980
368,82459.242000,257.977,-21.627,-9.961,490.899,194.411,-15.630,-57.040,942.510,87.980
369,82459.278000,252.046,22.633,-27.891,496.071,228.482,-12.901,-204.040,759.510,74.980
370,82459.298000,285.652,-2.515,14.942,465.214,325.581,48.029,142.960,576.510,-34.020
371,82459.338000,247.104,-2.515,-0.996,414.682,185.122,125.219,48.960,359.510,32.980
372,82459.378000,260.942,-7.544,-8.965,446.079,143.384,66.499,-23.040,230.510,-6.020
373,82459.418000,259.954,-2.515,-14.942,459.735,156.914,58.003,-182.040,160.510,-21.020
374,82459.463000,265.884,28.668,-21.914,460.857,170.732,68.118,-225.040,314.510,-92.020
375,82459.498000,259.954,-17.603,-12.949,461.021,185.510,78.253,-432.040,258.510,-69.020
376,82459.538000,248.093,-55.827,21.914,461.039,185.683,86.102,-38.040,266.510,-83.020
377,82459.578000,252.046,-25.650,18.926,456.224,185.851,95.903,-61.040,230.510,-159.020
378,82459.598000,255.012,-6.538,20.918,454.322,188.788,97.925,-89.040,84.510,-197.020
379,82459.641000,262.919,-11.568,35.860,456.365,199.530,100.129,-185.040,-88.490,-281.020
380,82459.676000,295.537,30.680,47.813,459.254,199.429,94.249,-584.040,-434.490,-232.020
381,82459.716000,318.270,-25.650,90.646,462.065,191.539,87.215,-1073.040,-597.490,-23.020
382,82459.763000,281.699,-5.532,43.829,463.993,191.493,84.276,-1182.040,-611.490,213.980
383,82459.801000,198.672,-11.568,-22.911,467.651,171.013,77.945,-1078.040,-509.490,283.980
384,82459.836000,156.170,23.639,43.829,465.704,169.117,80.841,-137.040,81.510,112.980
385,82459.879000,178.903,25.650,31.875,464.863,179.119,94.791,609.960,859.510,-284.020
386,82459.919000,238.208,2.515,-32.872,456.297,189.195,115.590,734.960,1119.510,-454.020
387,82459.939000,274.780,-72.927,-98.615,453.558,203.061,129.622,137.960,764.510,-321.020
388,82459.979000,298.502,55.827,-10.957,452.563,200.139,129.555,321.960,-420.490,29.980
389,82460.19000,216.463,29.674,98.615,457.362,200.704,108.983,1005.960,-371.490,170.980
390,82460.59000,264.896,6.538,-48.809,458.406,211.134,97.449,698.960,-165.490,76.980
391,82460.99000,281.699,-9.556,4.981,463.247,213.857,86.732,1213.960,-25.490,97.980
392,82460.139000,256.988,69.910,-22.911,463.189,208.895,81.719,683.960,31.510,203.980
393,82460.179000,259.954,25.650,-10.957,463.115,201.149,82.527,215.960,41.510,339.980
394,82460.217000,256.988,-30.680,0.000,466.936,196.311,81.447,-235.040,36.510,254.980
395,82460.237000,249.081,3.521,19.922,458.078,180.692,81.082,-68.040,17.510,107.980
396,82460.276000,244.139,15.591,33.868,448.383,175.118,96.629,-221.040,-119.490,200.980
397,82460.319000,252.046,-20.621,18.926,490.803,250.301,143.497,-146.040,-185.490,254.980
398,82460.397000,263.907,-26.656,-12.949,509.602,211.764,59.325,-356.040,-182.490,89.980
399,82460.422000,271.815,-39.733,31.875,487.122,186.455,65.581,-574.040,-222.490,23.980
400,82460.439000,280.710,-29.674,38.848,488.018,178.741,67.373,-1035.040,-402.490,70.980
401,82460.479000,276.757,20.621,5.977,487.007,175.668,60.438,-838.040,-642.490,-62.020
402,82460.519000,262.919,5.532,2.988,488.912,174.522,51.590,-541.040,-798.490,-119.020
403,82460.562000,253.035,54.821,6.973,486.000,177.924,31.066,-563.040,-1176.490,-192.020
404,82460.582000,252.046,71.921,32.872,482.942,169.352,-4.435,-1095.040,-1728.490,-225.020
405,82460.618000,415.135,15.591,133.479,479.077,179.930,-51.280,-7.040,-2348.490,-189.020
406,82460.657000,498.162,-53.815,30.879,469.224,175.478,-117.104,481.960,-2647.490,-207.020
407,82460.697000,403.274,-50.798,0.996,449.636,162.431,-172.352,886.960,-2373.490,-479.020
408,82460.737000,298.502,-109.139,-69.728,427.297,160.488,-206.765,1064.960,-1918.490,-393.020
409,82460.777000,149.251,-36.715,70.724,422.185,134.918,-220.092,1650.960,-927.490,-615.020
410,82460.878000,34.595,14.585,82.677,418.342,134.255,-204.424,1160.960,854.510,-924.020
411,82460.894000,17.792,-12.574,53.790,429.209,147.087,-155.083,225.960,1977.510,-1025.020
412,82460.909000,9.884,2.515,-33.868,438.223,161.562,-74.329,-452.040,3232.510,-811.020
413,82460.917000,91.923,-67.898,-124.514,434.571,163.617,20.833,-529.040,3900.510,-407.020
414,82460.957000,292.571,-2.515,-346.646,413.473,163.430,110.025,-26.040,3851.510,9.980
415,82460.997000,403.274,-9.556,-386.490,397.857,139.957,152.620,-992.040,2783.510,40.980
416,82461.37000,338.039,6.538,-293.852,385.282,132.801,185.777,-1644.040,823.510,341.980
417,82461.77000,327.166,-110.145,-158.381,385.052,106.825,195.987,-1736.040,-442.490,507.980
418,82461.117000,315.305,-35.709,-0.996,389.716,91.122,185.842,-198.040,-522.490,431.980
419,82461.157000,309.375,54.821,45.821,388.705,88.934,175.004,500.960,-381.490,472.980
420,82461.197000,264.896,-10.562,6.973,389.665,88.878,172.063,256.960,-289.490,409.980
421,82461.217000,276.757,-10.562,1.992,386.735,85.938,171.991,311.960,-40.490,262.980
422,82461.257000,267.861,-8.550,3.984,384.776,83.049,173.885,246.960,167.510,124.980
423,82461.301000,291.583,25.650,14.942,381.894,84.100,178.805,-91.040,284.510,141.980
424,82461.341000,252.046,-32.692,18.926,380.877,78.330,181.617,89.960,316.510,61.980
425,82461.381000,244.139,-2.515,3.984,376.117,84.302,190.565,-122.040,443.510,45.980
426,82461.421000,259.954,-0.503,21.914,380.929,78.826,204.183,-234.040,551.510,69.980
427,82461.461000,254.023,1.509,29.883,377.055,75.228,218.805,-563.040,549.510,88.980
428,82461.501000,261.931,-27.662,50.802,370.190,63.706,227.361,-805.040,510.510,15.980
429,82461.541000,252.046,-38.727,31.875,369.248,64.818,234.248,-724.040,520.510,-92.020
430,82461.561000,264.896,4.527,44.825,363.308,48.494,244.661,-578.040,595.510,-321.020
431,82461.601000,293.560,66.892,68.732,359.547,56.547,259.541,-822.040,514.510,-520.020
432,82461.717000,294.548,78.963,57.774,356.707,61.524,266.510,-910.040,342.510,-746.020
433,82461.748000,263.907,-38.727,-36.856,367.378,65.425,262.697,-208.040,-268.490,-613.020
434,82461.779000,440.834,-190.617,-492.078,391.667,84.258,225.901,747.960,-2595.490,-407.020
435,82461.819000,427.985,-99.081,-492.078,421.701,99.934,175.318,2121.960,-4207.490,-318.020
436,82461.837000,263.907,7.544,-271.938,459.428,124.034,63.156,2238.960,-4727.490,-169.020
437,82461.854000,133.436,28.668,-93.634,466.995,133.906,-65.075,536.960,-4521.490,-130.020
438,82461.862000,86.981,57.839,20.918,444.617,143.916,-173.754,659.960,-3754.490,-194.020
439,82461.901000,97.853,72.927,42.833,409.628,142.908,-248.380,536.960,-2121.490,-212.020
440,82461.941000,140.355,-7.544,69.728,390.266,147.876,-278.711,335.960,-721.490,-14.020
441,82461.979000,212.510,-45.768,127.502,405.641,136.463,-275.010,1106.960,1218.510,313.980
442,82462.33000,341.992,32.692,-64.747,423.010,126.514,-249.697,108.960,2372.510,198.980
443,82462.59000,379.552,181.564,168.342,451.364,147.261,-201.124,-1224.040,2313.510,38.980
444,82462.99000,380.541,222.806,47.813,465.077,153.412,-148.003,64.960,2127.510,-46.020
445,82462.139000,338.039,-59.851,63.751,475.797,152.502,-105.832,897.960,1918.510,-38.020
446,82462.179000,262.919,-20.621,4.981,486.566,158.236,-70.378,-318.040,1415.510,127.980
447,82462.204000,262.919,0.503,-25.899,494.336,155.960,-44.915,-161.040,1017.510,139.980
448,82462.244000,258.965,13.580,-40.840,495.292,151.460,-29.322,1.960,728.510,139.980
449,82462.281000,251.058,-12.574,-36.856,498.258,158.263,-30.146,-76.040,610.510,123.980
450,82462.319000,270.826,-30.680,-19.922,505.334,198.221,-69.451,-187.040,470.510,77.980
451,82462.359000,246.116,12.574,-48.809,380.464,352.215,105.320,-196.040,424.510,46.980
452,82462.401000,312.340,-73.933,-45.821,446.148,55.541,42.975,-1095.040,514.510,-26.020
453,82462.439000,231.290,-21.627,-41.837,482.516,117.724,30.703,-950.040,602.510,-102.020
454,82462.478000,256.000,-39.733,-6.973,482.753,136.731,56.622,-605.040,497.510,-71.020
455,82462.519000,259.954,-24.644,0.996,481.923,147.725,71.575,-462.040,295.510,-22.020
456,82462.544000,255.012,-38.727,5.977,479.957,143.887,74.427,-237.040,148.510,9.980
457,82462.579000,256.000,-58.845,-4.981,477.092,145.973,82.313,41.960,199.510,-13.020
458,82462.624000,260.942,-27.662,2.988,480.085,153.919,89.360,303.960,257.510,-67.020
459,82462.662000,256.988,-26.656,10.957,480.048,150.036,89.274,34.960,256.510,-132.020
460,82462.703000,258.965,-8.550,25.899,480.134,157.026,98.255,-99.040,172.510,-207.020
461,82462.738000,291.583,32.692,52.794,478.256,163.717,94.477,-501.040,-340.490,-242.020
462,82462.778000,318.270,19.615,75.704,479.191,161.655,88.549,-423.040,-630.490,-90.020
463,82462.818000,291.583,-40.739,42.833,485.007,165.336,76.875,-399.040,-634.490,185.980
464,82462.838000,222.394,-59.851,-15.938,485.813,151.473,63.821,-232.040,-464.490,301.980
465,82462.882000,155.181,30.680,80.685,488.675,146.712,66.663,6.960,101.510,28.980
466,82462.922000,172.973,55.827,92.638,478.139,152.908,88.353,444.960,1101.510,-411.020
467,82462.962000,256.988,0.503,-5.977,476.512,177.851,120.284,661.960,1593.510,-555.020
468,82463.2000,257.977,-72.927,-117.541,464.130,191.924,148.029,487.960,1274.510,-492.020
469,82463.42000,375.598,-54.821,-185.276,466.128,197.833,151.106,-7.040,172.510,88.980
470,82463.82000,268.849,60.857,42.833,470.905,194.666,137.317,394.960,-667.490,124.980
471,82463.122000,259.954,-0.503,-23.907,472.778,191.448,122.540,806.960,-400.490,269.980
472,82463.159000,283.676,-3.521,-5.977,475.701,196.957,106.977,877.960,-245.490,231.980
473,82463.179000,264.896,30.680,-19.922,482.441,195.836,97.160,444.960,-118.490,174.980
474,82463.219000,252.046,16.597,12.949,484.264,185.089,93.003,129.960,-56.490,235.980
475,82463.259000,256.000,-29.674,14.942,479.379,179.303,96.787,-153.040,-37.490,275.980
476,82463.299000,251.058,-2.515,20.918,482.187,170.507,92.675,-302.040,-72.490,171.980
477,82463.339000,243.151,4.527,30.879,472.419,160.705,92.437,-197.040,-271.490,218.980
478,82463.379000,258.965,-16.597,-8.965,460.909,164.194,123.871,-67.040,-261.490,206.980
479,82463.419000,267.861,-1.509,-23.907,535.937,223.755,107.699,-283.040,-57.490,101.980
480,82463.464000,262.919,-11.568,-0.996,514.079,170.495,78.032,-339.040,28.510,64.980
481,82463.492000,256.000,-32.692,39.844,504.251,153.961,80.586,-405.040,-201.490,4.980
482,82463.521000,293.560,-11.568,19.922,505.269,160.615,73.871,-370.040,-425.490,-37.020
483,82463.559000,266.873,-12.574,14.942,502.389,164.319,67.083,-294.040,-555.490,-80.020
484,82463.604000,265.884,-9.556,17.930,505.262,164.952,50.432,-201.040,-760.490,-150.020
485,82463.641000,256.000,30.680,2.988,503.303,166.465,31.829,-392.040,-978.490,-151.020
486,82463.692000,260.942,-1.509,42.833,503.204,163.747,-3.536,-201.040,-1444.490,-133.020
487,82463.719000,343.969,20.621,132.482,498.310,166.677,-44.669,-124.040,-2049.490,-77.020
488,82463.759000,473.452,7.544,89.650,488.463,162.290,-107.549,140.960,-2679.490,61.980
489,82463.806000,470.486,-54.821,44.825,475.690,150.603,-148.043,701.960,-2733.490,-9.020
490,82463.836000,313.328,-43.756,-110.568,456.068,131.062,-189.706,603.960,-2033.490,39.980
491,82463.927000,205.591,-3.521,16.934,438.474,115.963,-206.749,736.960,-859.490,-231.020
492,82463.956000,37.560,43.756,146.428,435.571,109.764,-178.454,545.960,786.510,-591.020
493,82463.968000,11.861,14.585,42.833,447.435,122.002,-112.453,-70.040,2571.510,-698.020
494,82463.984000,26.687,-9.556,-50.802,452.653,140.668,-15.923,-1112.040,3548.510,-636.020
495,82464.19000,208.556,-7.544,-249.027,432.584,142.842,91.956,-138.040,4515.510,-441.020
496,82464.64000,462.579,-42.750,-434.303,411.304,132.106,142.667,-1063.040,3669.510,-236.020
497,82464.111000,367.691,-31.686,-379.518,389.077,123.324,194.401,-946.040,1767.510,-26.020
498,82464.142000,306.409,-87.010,-369.556,378.378,114.741,205.956,-525.040,287.510,194.980
499,82464.162000,336.062,-31.686,36.856,382.230,115.491,194.212,958.960,-439.490,338.980
500,82464.202000,397.344,15.591,71.720,385.940,99.909,189.952,554.960,-324.490,492.980
501,82464.242000,256.000,24.644,0.000,385.886,95.874,182.997,200.960,-247.490,429.980
502,82464.281000,272.803,3.521,3.984,386.887,99.724,181.124,340.960,-44.490,360.980
503,82464.326000,276.757,-11.568,20.918,387.788,92.053,184.878,105.960,113.510,262.980
504,82464.371000,264.896,-12.574,18.926,384.878,91.075,185.831,135.960,201.510,97.980
505,82464.439000,257.977,-18.609,18.926,383.955,94.129,192.761,0.960,270.510,59.980
506,82464.456000,247.104,3.521,19.922,381.071,94.273,200.604,-125.040,349.510,49.980
507,82464.462000,253.035,-4.527,28.887,380.006,82.765,207.211,-206.040,396.510,35.980
508,82464.501000,249.081,-13.580,33.868,377.134,84.786,212.153,-191.040,401.510,11.980
509,82464.541000,252.046,-24.644,44.825,372.302,83.034,222.891,-152.040,402.510,-61.020
510,82464.581000,255.012,-1.509,40.840,370.374,82.196,229.733,-217.040,405.510,-137.020
511,82464.639000,258.965,45.768,24.903,368.502,87.182,236.704,-447.040,427.510,-305.020
512,82464.661000,286.641,13.580,75.704,362.738,89.283,246.545,-754.040,381.510,-418.020
513,82464.701000,311.351,42.750,99.611,358.863,86.548,256.283,-843.040,372.510,-568.020
514,82464.741000,266.873,47.780,-52.794,360.838,91.357,253.452,-652.040,-104.490,-617.020
515,82464.797000,478.394,-228.841,-492.078,392.720,93.890,222.194,-130.040,-2429.490,-162.020
516,82464.803000,447.753,-25.650,-434.303,414.016,105.662,174.448,1005.960,-4023.490,-202.020
517,82464.843000,261.931,56.833,-232.093,452.756,132.857,70.203,1604.960,-4580.490,-275.020
518,82464.882000,125.529,25.650,-28.887,463.298,147.848,-47.122,643.960,-4267.490,-264.020
519,82464.927000,76.108,25.650,39.844,445.666,146.471,-146.236,675.960,-3362.490,-350.020
520,82464.962000,119.598,22.633,117.541,422.401,155.479,-211.790,1045.960,-1785.490,-87.020
521,82465.2000,150.239,5.532,127.502,419.356,147.037,-241.404,926.960,-428.490,144.980
522,82465.41000,202.625,-8.550,69.728,427.064,143.293,-238.528,883.960,1268.510,237.980
523,82465.81000,370.656,-49.792,-221.136,444.576,147.044,-208.008,-775.040,1890.510,246.980
524,82465.101000,364.726,13.580,-18.926,461.116,149.858,-175.549,-775.040,1572.510,233.980
525,82465.141000,306.409,135.293,-51.798,469.876,149.576,-148.078,108.960,1380.510,139.980
526,82465.182000,313.328,-61.862,-20.918,475.807,156.126,-117.519,408.960,1347.510,-2.020
527,82465.222000,282.687,-76.951,-29.883,487.507,158.871,-86.053,-126.040,1348.510,-1.020
528,82465.262000,256.000,-17.603,-51.798,489.502,157.704,-51.751,-233.040,1305.510,-89.020
529,82465.302000,269.838,1.509,-31.875,492.514,165.822,-36.855,0.960,1205.510,-61.020
530,82465.342000,257.977,-6.538,-21.914,497.393,164.510,-10.396,-125.040,1064.510,-37.020
531,82465.383000,274.780,43.756,-4.981,499.437,173.504,0.595,77.960,816.510,-132.020
532,82465.427000,261.931,-27.662,12.949,499.842,218.768,-15.070,395.960,647.510,-120.020
533,82465.443000,236.232,-16.597,-37.852,444.816,310.517,78.052,142.960,508.510,-196.020
534,82465.483000,266.873,21.627,-19.922,440.323,142.033,95.877,70.960,393.510,-125.020
535,82465.523000,256.988,13.580,-11.953,468.477,159.977,61.031,-211.040,206.510,-21.020
536,82465.564000,250.069,-32.692,15.938,467.568,165.814,62.139,-151.040,150.510,27.980
537,82465.604000,250.069,-22.633,17.930,472.541,178.612,68.318,-78.040,124.510,-6.020
538,82465.645000,258.965,-15.591,-15.938,475.495,182.653,74.298,-54.040,157.510,-40.020
539,82465.686000,252.046,-34.703,15.938,476.436,179.771,75.216,134.960,203.510,-46.020
540,82465.722000,256.988,-17.603,17.930,474.569,184.801,84.150,83.960,238.510,-183.020
541,82465.742000,264.896,1.509,8.965,471.788,195.625,92.230,-10.040,279.510,-237.020
542,82465.782000,273.792,-1.509,11.953,469.829,191.852,98.026,-394.040,271.510,-309.020
543,82465.822000,255.012,46.774,34.864,470.876,198.787,104.066,-847.040,-49.490,-223.020
544,82465.862000,318.270,36.715,117.541,469.845,192.003,104.894,-1527.040,-457.490,-25.020
545,82465.902000,259.954,-22.633,16.934,474.546,178.415,102.641,-1276.040,-624.490,116.980
546,82465.943000,215.475,8.550,-6.973,473.485,170.466,94.617,-765.040,-609.490,185.980
547,82465.983000,164.077,56.833,26.895,475.448,174.282,90.783,607.960,-17.490,-94.020
548,82466.23000,175.938,37.721,27.891,467.899,192.761,96.081,1091.960,514.510,-398.020
549,82466.64000,246.116,4.527,-28.887,462.214,203.535,103.172,866.960,969.510,-580.020
550,82466.84000,255.012,-21.627,-38.848,457.540,216.497,121.102,270.960,768.510,-481.020
551,82466.124000,291.583,-35.709,-115.549,452.778,224.217,121.263,-315.040,-129.490,31.980
552,82466.166000,258.965,-8.550,18.926,453.659,216.351,116.187,-84.040,-377.490,283.980
553,82466.206000,250.069,49.792,-71.720,459.448,217.142,105.430,508.960,-285.490,296.980
554,82466.247000,273.792,-30.680,-24.903,462.222,206.253,94.407,882.960,-113.490,358.980
555,82466.282000,262.919,5.532,-10.957,462.213,206.167,90.482,205.960,-94.490,213.980
556,82466.322000,257.977,2.515,-0.996,466.982,199.396,89.361,-32.040,9.510,241.980
557,82466.366000,259.954,-16.597,0.000,462.119,197.343,86.364,-47.040,64.510,216.980
558,82466.386000,254.023,10.562,12.949,464.976,190.769,95.050,-328.040,63.510,142.980
559,82466.422000,248.093,4.527,19.922,458.076,176.269,100.597,-510.040,-23.490,162.980
560,82466.466000,245.127,-24.644,30.879,447.456,171.980,130.880,-304.040,-155.490,159.980
561,82466.519000,257.977,-31.686,17.930,509.012,236.500,125.577,-127.040,-272.490,200.980
562,82466.547000,269.838,9.556,-6.973,513.449,205.415,77.825,-131.040,-222.490,189.980
563,82466.582000,264.896,-33.697,23.907,489.025,180.886,76.248,-314.040,-224.490,109.980
564,82466.623000,264.896,-9.556,30.879,486.923,164.298,72.934,-381.040,-389.490,13.980
565,82466.662000,284.664,1.509,17.930,489.845,168.922,61.275,-201.040,-649.490,-76.020
566,82466.711000,254.023,-50.798,15.938,487.826,164.567,40.580,-122.040,-851.490,-102.020
567,82466.726000,263.907,-13.580,-6.973,487.861,171.945,23.092,-105.040,-867.490,-107.020
568,82466.762000,259.954,33.697,24.903,488.725,166.561,-1.543,-101.040,-1105.490,-83.020
569,82466.802000,338.039,102.098,83.673,486.790,171.828,-25.946,-394.040,-1890.490,-116.020
570,82466.842000,475.429,-17.603,115.549,481.829,170.595,-79.920,-520.040,-2488.490,-69.020
571,82466.882000,512.988,-97.069,14.942,471.926,159.498,-139.027,626.960,-2740.490,-57.020
572,82466.934000,391.413,-66.892,16.934,450.412,145.634,-186.452,763.960,-2179.490,33.980
573,82466.964000,264.896,-30.680,-38.848,434.774,133.401,-206.370,523.960,-1692.490,-170.020
574,82467.42000,43.490,44.762,137.463,427.028,127.975,-184.932,715.960,345.510,-627.020
575,82467.48000,-7.907,13.580,70.724,429.108,132.913,-137.746,254.960,1677.510,-786.020
576,82467.64000,0.988,15.591,-50.802,435.997,134.100,-86.711,-230.040,3140.510,-660.020
577,82467.104000,104.772,-79.969,-192.249,429.514,144.735,2.752,-440.040,3924.510,-552.020
578,82467.144000,222.394,-10.562,-318.755,412.305,146.528,91.995,-560.040,3931.510,-289.020
579,82467.183000,433.915,-41.745,-415.377,393.971,137.114,157.452,-1455.040,2844.510,-34.020
580,82467.228000,343.969,23.639,-363.580,382.186,113.312,183.377,-1064.040,888.510,232.980
581,82467.267000,315.305,-171.505,-313.774,383.088,106.525,183.228,-1154.040,-363.490,349.980
582,82467.309000,245.127,-40.739,73.712,385.887,96.759,179.094,774.960,-229.490,620.980
583,82467.361000,299.490,55.827,20.918,382.982,96.709,178.107,-314.040,-276.490,496.980
584,82467.368000,295.537,-5.532,37.852,384.769,82.985,170.941,384.960,-154.490,404.980
585,82467.422000,268.849,-7.544,-1.992,382.829,82.038,172.877,-278.040,-23.490,281.980
586,82467.443000,257.977,-29.674,1.992,381.789,74.283,173.684,86.960,168.510,195.980
587,82467.483000,256.988,-33.697,14.942,380.889,80.207,178.717,-5.040,337.510,92.980
588,82467.523000,261.931,-4.527,16.934,380.879,77.467,186.501,-100.040,424.510,75.980
589,82467.567000,251.058,1.509,22.911,378.931,74.686,193.300,-266.040,503.510,43.980
590,82467.638000,254.023,-21.627,35.860,375.091,74.929,206.046,-395.040,501.510,32.980
591,82467.651000,248.093,-35.709,44.825,369.193,63.416,214.604,-480.040,489.510,-47.020
592,82467.666000,256.988,-35.709,49.805,366.356,67.530,226.457,-243.040,527.510,-109.020
593,82467.719000,260.942,-11.568,48.809,363.511,70.695,239.270,-183.040,572.510,-228.020
594,82467.746000,259.954,29.674,57.774,358.724,73.776,249.135,-456.040,517.510,-412.020
595,82467.784000,299.490,72.927,96.623,360.692,75.866,255.069,-720.040,350.510,-555.020
596,82467.826000,270.826,9.556,-1.992,361.685,78.766,254.155,-306.040,-318.490,-599.020
597,82467.866000,470.486,-194.640,-492.078,372.322,82.344,235.624,110.960,-1742.490,-208.020
598,82467.906000,444.788,-55.827,-422.350,405.311,105.599,175.409,1063.960,-3873.490,-182.020
599,82467.946000,267.861,14.585,-241.058,441.113,127.135,79.858,1740.960,-4439.490,-236.020
600,82467.991000,172.973,-7.544,-145.432,455.514,138.539,-25.770,1014.960,-4353.490,-166.020
601,82468.6000,75.120,12.574,-12.949,443.717,140.152,-123.826,558.960,-3474.490,-209.020
602,82468.46000,49.421,23.639,35.860,434.917,141.815,-176.763,642.960,-2434.490,-134.020
603,82468.86000,125.529,30.680,79.689,417.447,146.392,-225.731,319.960,-916.490,177.980
604,82468.127000,216.463,-32.692,107.580,422.244,145.166,-239.478,912.960,405.510,303.980
605,82468.163000,324.201,-30.680,-50.802,433.788,134.967,-223.008,253.960,1893.510,287.980
606,82468.203000,424.031,58.845,22.911,452.354,146.602,-187.407,-382.040,1755.510,150.980
607,82468.248000,489.266,41.745,-7.969,463.138,154.235,-153.873,404.960,1561.510,51.980
608,82468.287000,316.293,61.862,-28.887,475.759,153.020,-126.414,644.960,1376.510,-64.020
609,82468.327000,296.525,-53.815,-20.918,476.788,155.381,-107.727,177.960,1384.510,-37.020
610,82468.347000,259.954,-2.515,-53.790,486.577,160.976,-78.163,-129.040,1293.510,-87.020
611,82468.386000,265.884,-4.527,-36.856,486.658,162.637,-46.744,-40.040,1171.510,-106.020
612,82468.426000,278.734,-36.715,-4.981,486.766,168.959,-24.049,-56.040,1011.510,-68.020
613,82468.466000,267.861,47.780,-37.852,492.693,179.867,-15.949,-283.040,878.510,6.980
614,82468.506000,264.896,-30.680,6.973,493.178,233.826,-33.383,-36.040,691.510,-60.020
615,82468.544000,244.139,-36.715,-6.973,420.730,313.885,109.457,-96.040,680.510,-159.020
616,82468.584000,254.023,9.556,-34.864,421.892,132.577,115.242,-120.040,503.510,-164.020
617,82468.624000,255.012,13.580,-19.922,461.439,133.589,55.527,-450.040,250.510,5.980
618,82468.644000,255.012,-20.621,-13.946,468.521,163.040,67.964,-505.040,204.510,39.980
619,82468.686000,249.081,-33.697,12.949,466.637,166.150,77.835,-376.040,248.510,33.980
620,82468.726000,251.058,-24.644,14.942,469.595,170.234,85.778,-275.040,235.510,50.980
621,82468.766000,250.069,-48.786,26.895,463.725,161.634,94.400,-72.040,184.510,28.980
622,82468.806000,250.069,-51.804,28.887,466.672,165.610,97.437,135.960,186.510,-23.020
623,82468.847000,256.000,-21.627,21.914,464.779,168.633,103.384,99.960,224.510,-103.020
624,82468.886000,267.861,-39.733,13.946,465.808,174.511,105.478,42.960,239.510,-123.020
625,82468.931000,264.896,37.721,38.848,467.820,182.318,106.636,-459.040,-114.490,-305.020
626,82468.966000,330.131,60.857,85.665,468.722,175.532,106.487,-410.040,-350.490,-133.020
627,82468.986000,290.595,-12.574,57.774,468.687,173.439,99.576,-670.040,-433.490,56.980
628,82469.28000,210.533,-57.839,-38.848,473.431,165.547,91.566,-843.040,-600.490,195.980
629,82469.68000,199.660,-19.615,-17.930,472.428,162.560,88.555,-466.040,-439.490,163.980
630,82469.106000,152.216,34.703,16.934,470.482,161.549,87.548,276.960,145.510,-283.020
631,82469.144000,177.915,7.544,-0.996,465.840,180.099,94.815,1084.960,629.510,-480.020
632,82469.184000,231.290,-3.521,-38.848,455.310,189.876,102.855,988.960,739.510,-544.020
633,82469.224000,262.919,-44.762,-65.743,453.565,208.412,108.166,552.960,398.510,-376.020
634,82469.264000,332.108,20.621,138.459,453.576,211.152,100.381,92.960,-369.490,58.980
635,82469.287000,228.324,111.151,-5.977,458.311,204.058,84.543,566.960,-511.490,236.980
636,82469.328000,258.965,66.892,-112.560,460.185,199.093,78.553,381.960,-283.490,318.980
637,82469.368000,271.815,-55.827,-31.875,464.037,198.958,70.713,560.960,-129.490,312.980
638,82469.407000,258.965,-6.538,-20.918,461.116,197.873,66.760,186.960,-37.490,116.980
639,82469.448000,261.931,5.532,-24.903,464.922,191.136,67.599,64.960,94.510,177.980
640,82469.497000,258.965,20.621,-16.934,461.958,184.355,69.404,-162.040,155.510,187.980
641,82469.527000,248.093,-18.609,23.907,459.940,173.851,77.992,-532.040,56.510,180.980
642,82469.567000,251.058,-47.780,17.930,454.008,160.245,79.639,-209.040,-20.490,205.980
643,82469.612000,258.965,-0.503,3.984,437.787,173.698,125.014,-94.040,-136.490,179.980
644,82469.628000,267.861,5.532,-21.914,521.654,250.452,92.571,-69.040,-135.490,241.980
645,82469.668000,267.861,-14.585,-5.977,499.643,182.522,57.674,-545.040,-39.490,113.980
646,82469.707000,259.954,-8.550,21.914,486.912,164.190,68.028,-663.040,-137.490,-30.020
647,82469.748000,272.803,-2.515,30.879,483.875,150.548,66.738,-615.040,-391.490,-106.020
648,82469.787000,263.907,-27.662,29.883,481.010,157.920,50.224,-435.040,-734.490,-151.020
649,82469.827000,253.035,-39.733,28.887,481.026,162.473,36.596,-164.040,-995.490,-175.020
650,82469.867000,296.525,38.727,46.817,480.897,155.073,8.973,-152.040,-1434.490,-98.020
651,82469.907000,331.120,118.193,65.743,480.892,162.948,-30.078,-602.040,-1923.490,-189.020
652,82469.927000,431.938,28.668,131.486,475.900,158.780,-85.099,179.960,-2535.490,-87.020
653,82469.967000,512.988,-106.122,7.969,463.121,151.430,-149.032,941.960,-2756.490,-96.020
654,82470.7000,342.981,-68.904,-42.833,445.476,136.719,-192.544,1129.960,-2179.490,-153.020
655,82470.47000,229.313,-53.815,3.984,426.986,130.219,-215.283,702.960,-1626.490,-452.020
656,82470.86000,46.456,32.692,123.518,415.348,125.424,-207.569,1168.960,-77.490,-805.020
657,82470.167000,3.954,0.503,54.786,415.485,131.141,-168.215,120.960,1785.510,-1086.020
658,82470.192000,-2.965,-14.585,1.992,417.749,149.282,-94.258,-647.040,2908.510,-926.020
659,82470.208000,42.502,-69.910,-99.611,416.089,158.950,-6.768,-528.040,4018.510,-456.020
660,82470.247000,239.197,-2.515,-316.763,402.705,156.833,79.455,-423.040,4228.510,-235.020
661,82470.266000,443.799,-117.187,-439.284,388.139,137.684,141.762,-388.040,3039.510,162.980
662,82470.309000,347.923,-3.521,-316.763,383.342,136.255,167.217,-519.040,1691.510,370.980
663,82470.363000,361.761,-77.957,-244.047,375.327,105.371,178.283,-1605.040,-447.490,638.980
664,82470.389000,305.421,32.692,-21.914,380.075,96.637,176.138,21.960,-293.490,556.980
665,82470.434000,356.819,149.375,37.852,382.011,97.541,172.239,704.960,-200.490,440.980
666,82470.468000,291.583,-27.662,45.821,380.947,88.686,167.137,-161.040,-86.490,391.980
667,82470.507000,268.849,-3.521,17.930,379.864,77.004,165.895,-43.040,20.510,263.980
668,82470.546000,263.907,-23.639,16.934,377.009,80.946,169.899,134.960,147.510,141.980
669,82470.566000,260.942,0.503,10.957,375.935,69.351,172.581,-26.040,250.510,101.980
670,82470.612000,257.977,-12.574,19.922,376.038,78.261,180.624,-102.040,412.510,28.980
671,82470.648000,248.093,-5.532,34.864,370.178,70.632,189.269,-242.040,482.510,2.980
672,82470.707000,253.035,-3.521,38.848,375.045,71.844,198.132,-352.040,490.510,5.980
673,82470.728000,252.046,-18.609,49.805,367.285,67.173,209.780,-374.040,472.510,-30.020
674,82470.784000,255.012,-38.727,54.786,363.487,72.227,220.671,-310.040,461.510,-96.020
675,82470.807000,255.012,-15.591,50.802,364.459,71.395,226.539,-390.040,490.510,-279.020
676,82470.847000,275.768,43.756,65.743,357.695,69.646,238.254,-617.040,481.510,-471.020
677,82470.887000,310.363,95.057,117.541,355.879,80.458,245.354,-1012.040,348.510,-703.020
678,82470.907000,301.467,-74.939,-42.833,360.726,81.476,245.387,-620.040,-264.490,-530.020
679,82470.991000,467.521,-135.293,-492.078,376.156,82.921,216.032,-456.040,-2498.490,-240.020
680,82471.7000,456.649,-59.851,-423.346,409.109,104.062,147.924,1448.960,-3916.490,-295.020
681,82471.28000,287.629,45.768,-295.844,433.268,122.529,50.319,1707.960,-4524.490,-321.020
682,82471.68000,124.541,-8.550,-106.584,443.882,133.808,-15.113,798.960,-4354.490,-270.020
683,82471.108000,42.502,-1.509,2.988,437.957,143.159,-116.906,516.960,-3671.490,-279.020
684,82471.148000,71.166,31.686,56.778,421.391,147.141,-193.344,974.960,-2249.490,-137.020
685,82471.188000,158.147,13.580,81.681,406.774,145.986,-239.492,670.960,-989.490,46.980
686,82471.208000,224.371,-22.633,100.607,411.525,139.928,-252.365,683.960,619.510,210.980
687,82471.247000,248.093,-22.633,28.887,431.835,135.660,-234.765,418.960,1690.510,270.980
688,82471.287000,512.988,-24.644,-245.043,441.598,137.480,-200.381,-104.040,1633.510,283.980
689,82471.327000,448.741,-32.692,-145.432,451.336,139.947,-180.692,-183.040,1453.510,311.980
690,82471.368000,325.189,28.668,-24.903,457.236,143.563,-151.180,675.960,1345.510,-42.020
691,82471.408000,291.583,-54.821,-26.895,466.016,145.223,-123.666,269.960,1367.510,-5.020
692,82471.449000,277.745,-25.650,-43.829,473.945,157.682,-90.030,-270.040,1275.510,-92.020
693,82471.503000,262.919,-12.574,-33.868,476.887,156.330,-64.557,1.960,1179.510,-123.020
694,82471.529000,268.849,-31.686,-26.895,476.969,160.645,-44.848,-10.040,1049.510,-102.020
695,82471.551000,267.861,-3.521,-28.887,481.902,168.653,-35.834,38.960,859.510,-96.020
696,82471.594000,255.012,16.597,-44.825,482.144,196.506,-48.944,-0.040,783.510,-124.020
697,82471.627000,260.942,-15.591,2.988,442.832,324.113,-8.929,427.960,974.510,-304.020
698,82471.671000,257.977,15.591,-33.868,418.224,156.487,101.055,-104.040,611.510,-200.020
699,82471.721000,260.942,30.680,-34.864,454.729,142.045,45.894,-580.040,355.510,-48.020
700,82471.753000,249.081,-26.656,2.988,457.861,163.648,56.187,-583.040,292.510,26.980
701,82471.788000,249.081,-32.692,20.918,461.786,166.858,68.034,-556.040,245.510,4.980
702,82471.828000,250.069,-37.721,18.926,456.106,178.559,73.185,-252.040,224.510,-7.020
703,82471.848000,251.058,-35.709,17.930,462.906,179.769,81.072,-107.040,225.510,-28.020
704,82471.888000,257.977,-42.750,15.938,461.029,184.712,86.081,112.960,254.510,-123.020
705,82471.931000,256.988,-27.662,31.875,460.061,183.818,89.982,50.960,234.510,-186.020
706,82471.971000,261.931,-13.580,17.930,456.252,188.764,95.967,-64.040,196.510,-228.020
707,82472.11000,266.873,24.644,13.946,457.299,195.699,102.007,-492.040,-52.490,-333.020
708,82472.57000,293.560,47.780,84.669,460.209,196.676,101.055,-664.040,-274.490,-182.020
709,82472.91000,280.710,-31.686,72.716,458.227,191.803,100.942,-1170.040,-484.490,35.980
710,82472.131000,254.023,-35.709,-46.817,466.805,180.971,89.933,-961.040,-801.490,156.980
711,82472.169000,208.556,16.597,-9.961,466.691,171.953,76.984,274.960,-599.490,120.980
712,82472.189000,162.100,50.798,43.829,463.868,182.367,66.422,930.960,-176.490,-142.020
713,82472.229000,197.683,44.762,16.934,461.067,193.881,61.768,1394.960,437.510,-432.020
714,82472.269000,233.266,8.550,-24.903,454.459,208.594,71.887,806.960,670.510,-649.020
715,82472.309000,251.058,-55.827,-71.720,450.714,220.315,77.043,57.960,480.510,-397.020
716,82472.349000,293.560,-21.627,-124.514,447.853,223.328,82.988,-806.040,-96.490,-44.020
717,82472.388000,252.046,-78.963,48.809,447.788,218.301,75.031,570.960,-306.490,277.980
718,82472.428000,233.266,125.234,-103.595,454.506,213.448,71.995,1168.960,92.510,338.980
719,82472.468000,312.340,-77.957,-35.860,454.512,215.261,66.151,577.960,111.510,386.980
720,82472.488000,256.988,-5.532,-0.996,452.513,208.467,66.977,53.960,143.510,247.980
721,82472.531000,257.977,4.527,-5.977,449.528,198.838,71.660,-160.040,157.510,238.980
722,82472.571000,250.069,-16.597,12.949,453.294,188.197,71.432,-269.040,162.510,249.980
723,82472.612000,246.116,-13.580,24.903,445.431,173.731,78.940,-365.040,28.510,163.980
724,82472.652000,235.243,-23.639,39.844,423.173,165.531,113.034,-47.040,-233.490,219.980
725,82472.692000,259.954,-17.603,1.992,512.442,294.414,110.199,-81.040,-303.490,259.980
726,82472.737000,267.861,5.532,-31.875,503.618,196.777,42.309,-190.040,-97.490,164.980
727,82472.772000,261.931,-20.621,19.922,479.192,168.710,56.344,-289.040,-59.490,121.980
728,82472.812000,259.954,-32.692,21.914,479.185,166.876,61.207,-459.040,-249.490,45.980
729,82472.832000,264.896,-4.527,15.938,477.246,167.699,55.337,-275.040,-507.490,-63.020
730,82472.868000,263.907,-20.621,24.903,482.113,174.197,39.801,-155.040,-714.490,-80.020
731,82472.908000,278.734,0.503,10.957,483.939,167.010,21.013,-351.040,-910.490,-70.020
732,82472.948000,249.081,55.827,0.996,481.913,162.590,-2.626,-558.040,-1183.490,-117.020
733,82472.988000,298.502,82.986,66.739,476.114,170.516,-36.785,-1076.040,-1905.490,-232.020
734,82473.28000,447.753,-34.703,151.409,469.174,164.431,-89.891,-494.040,-2537.490,-127.020
735,82473.71000,512.988,-68.904,18.926,456.496,163.338,-134.071,1175.960,-2852.490,3.980
736,82473.109000,358.795,-66.892,-91.642,443.652,147.445,-189.368,863.960,-2447.490,-62.020
737,82473.129000,327.166,-41.745,-91.642,420.246,134.856,-222.059,591.960,-2183.490,-370.020
738,82473.171000,100.819,-8.550,133.479,410.444,121.213,-220.421,1212.960,-116.490,-671.020
739,82473.222000,12.849,6.538,91.642,407.695,128.822,-182.012,355.960,1302.510,-892.020
740,82473.268000,-16.803,3.521,8.965,418.563,138.138,-116.078,277.960,3030.510,-829.020
741,82473.289000,32.618,-90.028,-134.475,420.753,151.166,-54.003,-318.040,3826.510,-766.020
742,82473.346000,231.290,11.568,-417.370,417.069,152.034,31.326,238.960,3967.510,-555.020
743,82473.389000,364.726,-78.963,-437.292,400.723,146.674,103.742,-2174.040,2808.510,-243.020
744,82473.411000,314.317,5.532,-260.981,393.812,124.148,141.473,-1646.040,1235.510,177.980
745,82473.451000,269.838,39.733,-177.307,386.087,121.570,160.032,-1528.040,425.510,235.980
746,82473.472000,308.386,-103.104,-133.479,390.764,105.997,155.774,172.960,-352.490,533.980
747,82473.509000,377.575,-51.804,75.704,391.628,95.327,155.539,439.960,-261.490,685.980
748,82473.549000,275.768,63.874,-27.891,386.746,91.331,152.498,134.960,-193.490,495.980
749,82473.594000,285.652,-11.568,4.981,390.564,86.472,150.437,291.960,121.510,354.980
750,82473.633000,306.409,3.521,21.914,381.779,76.829,157.069,-172.040,278.510,206.980
751,82473.713000,252.046,-8.550,9.961,381.811,78.900,162.999,-2.040,370.510,84.980
752,82473.729000,256.988,-30.680,19.922,382.792,78.155,172.791,-67.040,424.510,34.980
753,82473.751000,251.058,-7.544,10.957,379.891,76.379,181.571,-82.040,476.510,22.980
754,82473.771000,256.988,-23.639,31.875,375.982,70.688,189.282,-67.040,511.510,0.980
755,82473.811000,249.081,-24.644,37.852,375.033,70.851,197.129,-231.040,501.510,-1.020
756,82473.849000,249.081,-24.644,43.829,371.108,63.241,205.778,-323.040,457.510,-86.020
757,82473.893000,256.000,-21.627,49.805,367.386,76.062,216.842,-330.040,441.510,-158.020
758,82473.933000,259.954,64.880,35.860,366.429,75.276,225.648,-481.040,385.510,-333.020
759,82473.977000,290.595,62.868,74.708,365.435,71.490,230.466,-947.040,197.510,-480.020
760,82474.19000,287.629,61.862,60.763,368.370,74.475,232.499,-798.040,-325.490,-626.020
761,82474.108000,353.853,-134.287,-309.790,373.226,79.980,215.960,-399.040,-1339.490,-324.020
762,82474.124000,450.718,-47.780,-453.230,397.446,94.628,165.342,763.960,-3537.490,-271.020
763,82474.131000,294.548,-7.544,-324.732,426.511,116.443,85.473,1847.960,-4191.490,-281.020
764,82474.152000,98.842,-18.609,-127.502,442.857,127.089,-11.341,315.960,-4218.490,-199.020
765,82474.192000,30.641,1.509,-26.895,436.936,134.714,-103.367,-41.040,-3588.490,-323.020
766,82474.232000,26.687,-1.509,-5.977,423.339,145.521,-179.647,612.960,-2669.490,-403.020
767,82474.271000,87.969,10.562,39.844,411.530,136.454,-233.810,1356.960,-1216.490,-137.020
768,82474.311000,187.799,7.544,76.700,410.515,135.107,-250.513,1371.960,40.510,97.980
769,82474.351000,235.243,-13.580,75.704,424.871,118.787,-248.884,1480.960,1623.510,170.980
770,82474.391000,512.988,-69.910,-492.078,442.376,122.473,-221.306,-717.040,1801.510,33.980
771,82474.411000,313.328,-81.980,-71.720,454.121,128.282,-182.907,-1513.040,1518.510,271.980
772,82474.451000,366.703,70.916,-25.899,465.866,135.860,-152.313,115.960,1433.510,83.980
773,82474.489000,284.664,-64.880,-37.852,473.605,130.649,-127.896,242.960,1204.510,-29.020
774,82474.529000,257.977,-35.709,-50.802,476.655,140.019,-100.223,-50.040,1177.510,-79.020
775,82474.569000,251.058,-27.662,-62.755,486.434,147.276,-83.370,26.960,1140.510,-146.020
776,82474.628000,249.081,0.503,-51.798,485.512,145.951,-54.963,-2.040,1079.510,-181.020
777,82474.652000,264.896,-29.674,-19.922,483.679,152.188,-35.215,-23.040,1014.510,-177.020
778,82474.693000,272.803,10.562,-24.903,487.670,162.194,-23.216,-347.040,861.510,-129.020
779,82474.733000,325.189,17.603,40.840,488.060,208.191,-49.653,-555.040,658.510,-178.020
780,82474.754000,219.429,-9.556,-19.922,398.299,306.656,55.313,-594.040,347.510,-43.020
781,82474.789000,212.510,-47.780,-57.774,413.217,132.794,128.957,-571.040,382.510,-89.020
782,82474.832000,284.664,-11.568,-14.942,466.998,111.036,42.290,-42.040,368.510,-54.020
783,82474.872000,250.069,-22.633,-12.949,465.425,147.953,45.067,-82.040,270.510,20.980
784,82474.913000,256.988,-19.615,-7.969,467.536,163.743,56.209,-163.040,157.510,17.980
785,82474.956000,258.965,-45.768,-6.973,466.655,170.724,65.188,-154.040,137.510,-56.020
786,82474.991000,252.046,-36.715,4.981,465.684,168.923,72.011,72.960,230.510,-83.020
787,82475.33000,256.988,-24.644,25.899,463.829,175.830,78.044,128.960,254.510,-134.020
788,82475.73000,255.012,-30.680,36.856,462.896,178.798,81.050,10.960,245.510,-162.020
789,82475.93000,279.722,-24.644,2.988,460.055,184.638,83.135,-271.040,0.510,-309.020
790,82475.132000,296.525,26.656,33.868,465.848,183.702,82.146,-366.040,-193.490,-306.020
791,82475.172000,307.398,43.756,104.591,467.781,183.699,81.169,-655.040,-285.490,-142.020
792,82475.211000,235.243,-44.762,-21.914,466.752,177.822,79.075,-836.040,-473.490,93.980
793,82475.251000,192.741,-39.733,-24.903,466.633,166.991,71.970,-376.040,-483.490,266.980
794,82475.292000,157.158,33.697,25.899,469.519,165.984,69.012,449.960,6.510,137.980
795,82475.337000,155.181,6.538,14.942,473.452,171.027,75.997,402.960,492.510,-134.020
796,82475.372000,211.521,-3.521,-8.965,468.676,174.216,90.767,26.960,765.510,-335.020
797,82475.392000,256.988,-44.762,-59.767,467.757,175.544,107.466,-424.040,548.510,-244.020
798,82475.433000,322.224,-52.809,10.957,465.941,187.240,110.664,233.960,35.510,124.980
799,82475.473000,225.359,-8.550,10.957,472.720,191.772,93.127,663.960,-615.490,48.980
800,82475.513000,251.058,32.692,-64.747,475.541,185.738,82.212,1207.960,-102.490,168.980
801,82475.554000,279.722,19.615,-26.895,476.550,191.422,75.475,1084.960,-57.490,189.980
802,82475.591000,267.861,49.792,-28.887,478.405,184.515,69.442,380.960,-13.490,164.980
803,82475.631000,257.977,25.650,-24.903,477.404,180.665,71.316,-80.040,114.510,272.980
804,82475.671000,265.884,2.515,-3.984,474.449,173.970,77.045,-451.040,154.510,220.980
805,82475.714000,249.081,-36.715,28.887,475.304,162.329,76.788,-423.040,70.510,113.980
806,82475.739000,247.104,-27.662,11.953,453.879,144.042,93.008,-177.040,-113.490,180.980
807,82475.776000,263.907,-12.574,0.996,485.684,219.381,151.626,-366.040,-198.490,167.980
808,82475.813000,268.849,-14.585,0.996,542.633,223.087,74.356,-505.040,-174.490,120.980
809,82475.853000,270.826,8.550,0.000,506.188,158.403,61.076,-745.040,-213.490,65.980
810,82475.899000,263.907,6.538,7.969,496.464,151.663,67.770,-411.040,-361.490,4.980
811,82475.934000,262.919,-24.644,16.934,496.448,152.397,56.999,-313.040,-560.490,-142.020
812,82475.974000,235.243,-51.804,37.852,495.374,145.203,39.185,-462.040,-950.490,-165.020
813,82476.19000,272.803,14.585,18.926,500.184,148.508,10.830,-188.040,-1218.490,-158.020
814,82476.38000,304.432,93.045,41.837,495.330,154.459,-25.333,-518.040,-1682.490,-226.020
815,82476.73000,409.205,-37.721,105.588,490.439,155.663,-56.698,-378.040,-2185.490,-171.020
816,82476.118000,512.988,-63.874,39.844,481.515,145.568,-114.800,1181.960,-2675.490,104.980
817,82476.153000,475.429,-20.621,-2.988,463.829,129.584,-172.070,949.960,-2560.490,-94.020
818,82476.222000,356.819,-54.821,-107.580,434.586,114.868,-210.704,533.960,-2206.490,-435.020
819,82476.248000,171.985,-41.745,68.732,408.516,122.143,-221.385,925.960,-1014.490,-842.020
820,82476.276000,20.757,7.544,73.712,403.751,124.556,-197.806,876.960,436.510,-1138.020
821,82476.316000,-17.792,11.568,28.887,402.969,136.887,-166.152,-40.040,2108.510,-1207.020
822,82476.352000,-9.884,-51.804,-42.833,410.066,155.917,-98.049,-871.040,3063.510,-1042.020
823,82476.372000,108.726,-37.721,-224.125,409.299,158.711,-14.633,370.960,4065.510,-487.020
824,82476.412000,213.498,-27.662,-336.685,401.579,143.857,63.474,-614.040,3865.510,-145.020
825,82476.452000,414.147,-44.762,-375.533,390.048,139.213,122.187,-1388.040,2476.510,214.980
826,82476.492000,357.807,-30.680,-332.700,384.155,123.342,153.203,-1397.040,1115.510,382.980
827,82476.532000,276.757,-69.910,-225.121,385.862,100.038,151.709,-1015.040,-236.490,641.980
828,82476.572000,279.722,-24.644,34.864,385.840,98.075,150.684,-146.040,-420.490,694.980
829,82476.612000,334.085,92.039,22.911,385.711,86.274,143.558,544.960,-217.490,530.980
830,82476.652000,272.803,-5.532,-6.973,386.661,85.226,139.614,263.960,-106.490,381.980
831,82476.672000,284.664,0.503,-0.996,383.725,81.357,141.483,35.960,62.510,295.980
832,82476.712000,284.664,-16.597,8.965,381.764,77.563,146.298,47.960,290.510,148.980
833,82476.752000,254.023,-13.580,-0.996,379.781,71.805,150.089,-101.040,362.510,50.980
834,82476.792000,256.000,-15.591,16.934,375.936,71.120,164.775,-182.040,508.510,-50.020
835,82476.832000,256.000,-1.509,21.914,374.975,71.175,167.716,-328.040,511.510,-39.020
836,82476.872000,251.058,-20.621,33.868,372.125,73.412,182.470,-411.040,537.510,5.980
837,82476.912000,254.023,-30.680,34.864,372.119,70.715,192.217,-269.040,556.510,-53.020
838,82476.952000,256.988,-10.562,39.844,368.220,64.227,207.755,-453.040,583.510,-179.020
839,82476.992000,261.931,-2.515,42.833,361.491,66.340,218.575,-415.040,622.510,-305.020
840,82477.17000,275.768,27.662,70.724,356.751,73.390,232.451,-585.040,566.510,-475.020
841,82477.52000,308.386,107.128,91.642,355.788,73.424,234.411,-923.040,336.510,-694.020
842,82477.149000,297.514,-0.503,-6.973,361.678,82.219,234.618,-527.040,-428.490,-590.020
843,82477.188000,470.486,-116.181,-475.144,380.049,88.460,201.453,160.960,-2580.490,-325.020
844,82477.206000,386.471,-58.845,-366.568,405.174,99.882,136.055,971.960,-3910.490,-301.020
845,82477.233000,210.533,-10.562,-205.198,426.499,123.369,47.381,1225.960,-4327.490,-328.020
846,82477.263000,143.320,-27.662,-119.533,436.092,135.006,-45.503,590.960,-4133.490,-381.020
847,82477.292000,44.479,-10.562,-32.872,430.234,149.405,-138.359,808.960,-3203.490,-326.020
848,82477.349000,31.629,35.709,31.875,421.456,152.168,-185.387,813.960,-2195.490,-187.020
849,82477.356000,113.668,20.621,64.747,409.770,154.839,-235.367,337.960,-1022.490,84.980
850,82477.396000,246.116,-34.703,46.817,409.710,150.739,-245.264,-173.040,553.510,313.980
851,82477.436000,271.815,-36.715,21.914,427.124,147.392,-228.631,635.960,1588.510,508.980
852,82477.476000,512.988,57.839,-41.837,453.313,148.294,-199.136,-244.040,1490.510,390.980
853,82477.514000,327.166,41.745,10.957,467.884,147.249,-164.805,-338.040,1536.510,324.980
854,82477.554000,336.062,149.375,-21.914,474.679,144.014,-138.385,443.960,1337.510,200.980
855,82477.594000,293.560,-4.527,-46.817,484.418,146.481,-118.696,169.960,1289.510,83.980
856,82477.639000,277.745,-14.585,-43.829,486.392,144.234,-89.322,-224.040,1249.510,-16.020
857,82477.654000,276.757,-53.815,-28.887,489.432,151.749,-57.768,-187.040,1225.510,20.980
858,82477.694000,285.652,-8.550,-27.891,498.219,154.358,-31.213,-276.040,1103.510,16.980
859,82477.734000,261.931,13.580,-39.844,504.037,154.544,-25.313,-98.040,887.510,23.980
860,82477.774000,237.220,-15.591,-36.856,503.589,214.987,-56.334,-294.040,784.510,30.980
861,82477.814000,248.093,-24.644,-18.926,446.078,354.734,14.312,-113.040,1051.510,-210.020
862,82477.854000,282.687,19.615,-21.914,423.474,93.114,129.079,-71.040,695.510,-151.020
863,82477.893000,249.081,15.591,-24.903,471.939,118.246,59.131,-847.040,320.510,5.980
864,82477.938000,252.046,-53.815,9.961,484.816,145.897,75.463,-674.040,256.510,41.980
865,82477.973000,252.046,-48.786,10.957,479.015,144.115,85.218,-356.040,232.510,1.980
866,82477.993000,250.069,-28.668,13.946,478.161,153.124,98.164,-91.040,226.510,6.980
867,82478.33000,249.081,-46.774,18.926,479.166,155.247,106.059,18.960,263.510,-5.020
868,82478.73000,266.873,-41.745,-8.965,478.256,160.200,111.070,133.960,324.510,-113.020
869,82478.113000,256.000,-17.603,17.930,474.351,155.416,115.859,-1.040,307.510,-168.020
870,82478.153000,268.849,-23.639,18.926,471.563,165.290,124.898,-253.040,284.510,-238.020
871,82478.197000,265.884,25.650,26.895,468.651,163.407,128.773,-622.040,-11.490,-315.020
872,82478.233000,286.641,50.798,77.696,470.636,169.186,125.964,-457.040,-358.490,-155.020
873,82478.278000,269.838,-44.762,-23.907,472.496,164.092,114.087,-589.040,-524.490,14.980
874,82478.293000,230.301,-33.697,-35.860,478.203,157.050,100.213,-124.040,-827.490,161.980
875,82478.333000,204.602,-33.697,-22.911,478.195,158.733,88.482,382.960,-632.490,88.980
876,82478.373000,153.205,10.562,43.829,476.273,162.360,77.772,1094.960,-163.490,-264.020
877,82478.417000,182.857,-4.527,27.891,473.413,166.259,79.813,1204.960,522.510,-386.020
878,82478.462000,237.220,-3.521,-23.907,466.819,182.870,88.013,687.960,778.510,-442.020
879,82478.496000,269.838,-91.033,-75.704,465.008,191.956,104.883,-489.040,360.510,-55.020
880,82478.534000,291.583,153.399,11.953,471.705,185.139,100.823,-80.040,-267.490,-86.020
881,82478.574000,228.324,44.762,-57.774,473.690,192.688,90.207,1188.960,-210.490,319.980
882,82478.614000,309.375,-7.544,-175.315,473.631,189.473,76.406,934.960,-74.490,209.980
883,82478.634000,260.942,38.727,-30.879,472.705,193.390,78.453,-0.040,76.510,91.980
884,82478.673000,258.965,11.568,-11.953,475.553,186.730,83.214,-130.040,84.510,190.980
885,82478.713000,252.046,-4.527,7.969,474.510,178.954,83.039,-236.040,138.510,207.980
886,82478.753000,249.081,-32.692,20.918,470.527,166.381,86.675,-590.040,0.510,147.980
887,82478.793000,243.151,-21.627,16.934,460.739,154.637,86.393,-336.040,-78.490,124.980
888,82478.838000,252.046,-44.762,15.938,441.190,128.753,109.313,-8.040,-286.490,234.980
889,82478.877000,276.757,22.633,-25.899,494.889,270.900,151.808,65.960,-270.490,195.980
890,82478.923000,280.710,-19.615,-11.953,521.945,190.268,47.106,-408.040,-198.490,71.980
891,82478.938000,276.757,-0.503,1.992,497.479,157.412,63.977,-703.040,-212.490,-40.020
892,82478.987000,252.046,-4.527,31.875,490.618,149.449,57.902,-321.040,-598.490,-70.020
893,82479.16000,260.942,-28.668,50.802,485.759,150.956,40.273,-219.040,-1071.490,-125.020
894,82479.56000,295.537,8.550,32.872,491.556,158.866,0.254,-127.040,-1645.490,-160.020
895,82479.98000,384.494,146.358,80.685,490.497,155.340,-27.285,-751.040,-1951.490,-141.020
896,82479.138000,418.100,-64.880,75.704,482.643,154.164,-77.341,-352.040,-2340.490,-171.020
897,82479.177000,484.324,-109.139,-24.903,469.800,140.040,-140.444,1351.960,-2672.490,4.980
898,82479.217000,426.008,-33.697,-28.887,446.319,124.086,-193.804,1040.960,-2457.490,-175.020
899,82479.297000,305.421,-73.933,-121.525,423.934,117.310,-227.344,410.960,-2044.490,-445.020
900,82479.316000,141.344,-72.927,39.844,405.584,120.950,-230.244,679.960,-952.490,-698.020
901,82479.332000,17.792,5.532,54.786,399.743,114.378,-217.653,817.960,798.510,-897.020
902,82479.354000,-3.954,-14.585,24.903,399.001,128.866,-176.145,14.960,1883.510,-988.020
903,82479.394000,14.826,7.544,-41.837,405.965,135.167,-113.229,-243.040,3190.510,-969.020
904,82479.434000,34.595,-7.544,-84.669,406.269,148.651,-29.572,-929.040,3788.510,-668.020
905,82479.474000,168.031,-38.727,-300.825,402.609,153.273,49.956,-202.040,4024.510,-284.020
906,82479.514000,371.645,-54.821,-385.494,391.982,141.864,109.501,-397.040,2978.510,162.980
907,82479.554000,354.842,11.568,-328.716,382.243,127.940,142.514,-439.040,1911.510,289.980
908,82479.597000,315.305,-57.839,-344.654,381.154,112.677,154.921,-2128.040,174.510,480.980
909,82479.617000,200.649,109.139,189.261,381.959,97.045,149.673,684.960,-552.490,601.980
910,82479.657000,344.958,137.305,8.965,383.859,94.086,146.669,711.960,-302.490,646.980
911,82479.698000,294.548,15.591,-3.984,380.828,82.257,139.535,292.960,-138.490,435.980
912,82479.748000,281.699,-39.733,20.918,378.822,74.514,141.321,138.960,180.510,278.980
913,82479.778000,305.421,32.692,16.934,379.852,79.529,148.299,169.960,171.510,88.980
914,82479.818000,256.988,-13.580,24.903,377.912,78.582,150.235,29.960,211.510,148.980
915,82479.858000,249.081,-35.709,10.957,377.912,78.582,150.235,7.960,205.510,11.980
916,82479.898000,245.127,-7.544,7.969,375.989,78.671,155.136,107.960,293.510,-71.020
917,82479.918000,259.954,3.521,21.914,376.908,71.172,166.740,-184.040,409.510,39.980
918,82479.958000,253.035,-4.527,25.899,373.993,68.383,173.536,-214.040,460.510,52.980
919,82479.998000,250.069,-20.621,30.879,374.048,71.554,185.375,-554.040,504.510,6.980
920,82480.38000,259.954,-30.680,32.872,368.265,70.829,199.076,-383.040,616.510,-104.020
921,82480.78000,262.919,0.503,39.844,364.446,73.919,208.943,-440.040,734.510,-363.020
922,82480.118000,297.514,65.886,81.681,360.563,69.351,223.543,-869.040,630.510,-580.020
923,82480.158000,281.699,121.210,35.860,357.664,67.596,233.305,-1057.040,491.510,-721.020
924,82480.212000,348.911,-141.328,-325.728,363.585,80.209,230.655,-367.040,-574.490,-496.020
925,82480.272000,453.683,-64.880,-492.078,384.873,89.263,191.675,-142.040,-2622.490,-402.020
926,82480.279000,437.869,-61.862,-384.498,413.902,106.331,116.604,1627.960,-4349.490,-458.020
927,82480.296000,258.965,9.556,-241.058,436.127,124.779,18.994,1539.960,-4602.490,-443.020
928,82480.351000,101.807,-8.550,-46.817,441.009,143.748,-47.260,669.960,-4100.490,-338.020
929,82480.378000,27.676,4.527,43.829,430.199,147.312,-145.270,1101.960,-3170.490,-150.020
930,82480.421000,104.772,32.692,88.654,415.537,146.610,-214.943,721.960,-1553.490,135.980
931,82480.456000,185.822,-23.639,120.529,414.453,141.078,-245.469,853.960,-117.490,320.980
932,82480.499000,251.058,-30.680,40.840,425.902,123.802,-241.905,990.960,1136.510,374.980
933,82480.539000,324.201,-20.621,-220.140,441.446,125.463,-217.319,-385.040,1714.510,162.980
934,82480.558000,288.618,67.898,79.689,460.014,136.235,-176.834,-927.040,1761.510,146.980
935,82480.598000,361.761,226.829,-2.988,465.804,129.992,-154.405,129.960,1598.510,-0.020
936,82480.642000,332.108,-36.715,-0.996,472.726,138.536,-121.839,436.960,1454.510,-134.020
937,82480.677000,292.571,-43.756,-19.922,478.619,141.203,-91.367,-209.040,1345.510,-151.020
938,82480.717000,262.919,2.515,-45.821,483.560,145.759,-62.816,-128.040,1196.510,-157.020
939,82480.757000,273.792,-24.644,-25.899,488.554,157.004,-39.020,-98.040,1024.510,-141.020
940,82480.797000,270.826,-17.603,-21.914,490.573,163.107,-27.113,-210.040,914.510,-109.020
941,82480.837000,274.780,43.756,-25.899,490.750,182.416,-31.587,8.960,947.510,-203.020
942,82480.877000,246.116,-23.639,-36.856,445.364,288.888,-23.435,-35.040,851.510,-237.020
943,82480.897000,259.954,0.503,-24.903,418.332,161.924,127.654,-186.040,598.510,-189.020
944,82480.936000,257.977,10.562,-11.953,462.246,117.094,55.163,-351.040,333.510,-30.020
945,82480.976000,250.069,-21.627,-1.992,470.388,158.011,59.030,-557.040,252.510,26.980
946,82481.22000,253.035,-36.715,4.981,468.582,168.024,73.958,-486.040,230.510,30.980
947,82481.57000,248.093,-20.621,14.942,468.609,169.167,81.829,-294.040,227.510,16.980
948,82481.97000,252.046,-22.633,16.934,466.709,171.241,88.736,-195.040,244.510,-14.020
949,82481.137000,251.058,-41.745,25.899,466.654,164.553,93.491,15.960,282.510,-59.020
950,82481.178000,258.965,-42.750,17.930,464.796,170.553,102.446,62.960,325.510,-165.020
951,82481.197000,256.988,29.674,60.763,464.945,183.434,114.500,-201.040,418.510,-247.020
952,82481.237000,254.023,-5.532,17.930,462.979,178.711,121.256,-344.040,302.510,-291.020
953,82481.277000,285.652,7.544,36.856,463.965,179.778,125.204,-448.040,-63.490,-240.020
954,82481.317000,307.398,-56.833,10.957,464.974,186.346,114.565,-569.040,-414.490,-109.020
955,82481.357000,260.942,-31.686,-37.852,469.717,177.569,110.457,-689.040,-865.490,141.980
956,82481.397000,217.452,16.597,-41.837,468.648,171.303,90.703,-78.040,-924.490,148.980
957,82481.437000,174.950,57.839,23.907,469.592,172.845,72.106,1008.960,-478.490,-137.020
958,82481.477000,171.985,44.762,35.860,468.717,185.176,59.629,1563.960,6.510,-354.020
959,82481.521000,216.463,36.715,42.833,462.052,196.696,56.929,1372.960,388.510,-530.020
960,82481.541000,260.942,9.556,-14.942,454.539,217.289,70.119,269.960,645.510,-590.020
961,82481.579000,393.390,-58.845,-77.696,450.693,218.351,76.018,-723.040,343.510,-353.020
962,82481.619000,256.000,-52.809,29.883,451.698,222.244,76.107,-704.040,-631.490,177.980
963,82481.659000,219.429,77.957,13.946,457.412,216.152,61.274,349.960,-327.490,350.980
964,82481.699000,320.247,-10.562,-122.521,458.289,209.128,50.333,1291.960,-30.490,427.980
965,82481.739000,256.000,7.544,-9.961,459.148,198.415,48.135,438.960,28.510,249.980
966,82481.779000,264.896,25.650,-15.938,460.137,200.388,49.162,-146.040,122.510,224.980
967,82481.819000,260.942,21.627,-25.899,461.004,188.876,54.792,-219.040,204.510,347.980
968,82481.839000,254.023,-37.721,12.949,457.984,175.385,60.370,-824.040,111.510,213.980
969,82481.879000,240.185,-52.809,27.891,451.091,161.835,64.958,-255.040,-64.490,294.980
970,82481.934000,252.046,-28.668,22.911,426.086,163.898,125.752,-70.040,-126.490,264.980
971,82482.29000,266.873,1.509,-10.957,537.416,289.417,48.359,-283.040,-205.490,189.980
972,82482.65000,270.826,-16.597,0.996,501.477,177.169,34.024,-533.040,-196.490,124.980
973,82482.82000,261.931,-3.521,4.981,483.913,158.833,46.328,-510.040,-351.490,43.980
974,82482.99000,258.965,-16.597,6.973,484.850,156.793,41.382,-312.040,-529.490,32.980
975,82482.124000,258.965,-49.792,16.934,481.897,154.521,27.596,-78.040,-869.490,-25.020
976,82482.158000,273.792,-38.727,11.953,481.790,149.084,0.997,-77.040,-1078.490,-57.020
977,82482.178000,287.629,49.792,8.965,479.843,153.359,-24.410,-323.040,-1298.490,-72.020
978,82482.218000,342.981,76.951,78.693,476.879,154.496,-59.694,-684.040,-1700.490,-122.020
979,82482.258000,395.367,4.527,84.669,472.798,142.743,-107.036,-112.040,-2064.490,73.980
980,82482.314000,480.371,-71.921,13.946,457.025,123.046,-157.520,507.960,-2438.490,158.980
981,82482.341000,341.004,-40.739,-94.630,449.190,119.411,-187.037,440.960,-2227.490,-4.020
982,82482.381000,229.313,-78.963,-95.626,425.835,111.720,-217.657,112.960,-1701.490,-367.020
983,82482.421000,167.042,-57.839,11.953,412.346,118.276,-222.443,504.960,-634.490,-732.020
984,82482.457000,32.618,11.568,46.817,407.596,122.587,-200.783,691.960,915.510,-992.020
985,82482.477000,7.907,10.562,-4.981,414.574,133.440,-151.495,-114.040,1844.510,-1126.020
986,82482.517000,-7.907,-18.609,-58.770,411.988,151.405,-83.436,-911.040,2671.510,-856.020
987,82482.557000,89.946,-64.880,-133.479,411.250,158.881,-7.760,-550.040,3432.510,-348.020
988,82482.597000,254.023,10.562,-280.903,407.445,155.068,41.180,473.960,3790.510,-91.020
989,82482.637000,372.633,-32.692,-336.685,395.973,155.386,104.906,-19.040,3046.510,100.980
990,82482.677000,351.876,7.544,-299.829,384.347,144.550,146.809,-628.040,2045.510,173.980
991,82482.717000,317.282,-30.680,-342.661,379.333,121.676,167.866,-1877.040,249.510,512.980
992,82482.757000,228.324,199.670,243.051,377.353,116.825,168.735,498.960,43.510,230.980
993,82482.802000,375.598,44.762,78.693,380.253,115.947,171.663,238.960,81.510,311.980
994,82482.822000,273.792,1.509,26.895,378.263,109.240,176.413,-613.040,138.510,314.980
995,82482.858000,260.942,-34.703,30.879,375.230,94.756,180.989,70.960,230.510,259.980
996,82482.898000,268.849,12.574,29.883,374.303,97.767,185.957,-172.040,250.510,156.980
997,82482.941000,251.058,-0.503,31.875,373.240,87.165,189.642,-155.040,228.510,107.980
998,82482.981000,250.069,-12.574,34.864,373.296,91.221,197.578,-271.040,222.510,42.980
999,82483.21000,246.116,-7.544,32.872,373.265,87.402,200.435,-305.040,223.510,2.980
1000,82483.61000,252.046,-22.633,33.868,371.338,85.700,212.161,-305.040,259.510,-57.020
1001,82483.102000,256.988,-8.550,32.872,373.290,87.639,211.227,-212.040,377.510,-118.020
1002,82483.122000,256.988,-9.556,38.848,368.440,83.946,221.922,-303.040,515.510,-200.020
1003,82483.162000,258.965,-0.503,61.759,361.758,90.913,232.850,-313.040,610.510,-238.020
1004,82483.202000,255.012,28.668,37.852,355.976,90.188,246.551,-31.040,677.510,-325.020
1005,82483.242000,264.896,48.786,47.813,355.165,104.892,253.741,-315.040,70.510,-496.020
1006,82483.282000,259.954,2.515,69.728,356.985,94.124,248.602,-627.040,-456.490,-310.020
1007,82483.322000,304.432,-13.580,-45.821,366.612,91.996,235.826,-912.040,-898.490,-148.020
1008,82483.362000,309.375,-9.556,-222.132,376.232,90.688,216.204,-292.040,-1682.490,-231.020
1009,82483.402000,287.629,28.668,-146.428,393.789,113.360,180.460,901.960,-2316.490,-123.020
1010,82483.442000,235.243,5.532,-89.650,414.118,125.123,132.712,1228.960,-2384.490,-131.020
1011,82483.462000,170.996,-6.538,-37.852,429.616,137.787,83.992,1562.960,-2054.490,-32.020
