Sample, Time, ACCX, ACCY, ACCZ, MAGX, MAGY, MAGZ, GYRX, GYRY, GYRZ
0,82639.183000,255.012,1.509,-5.977,474.480,159.299,160.075,-64.040,66.510,15.980
1,82639.223000,254.023,-8.550,0.000,476.448,163.158,158.204,-134.040,67.510,10.980
2,82639.262000,253.035,-13.580,4.981,477.401,161.269,160.125,-99.040,69.510,2.980
3,82639.285000,251.058,-12.574,3.984,475.539,168.111,163.215,-33.040,68.510,-1.020
4,82639.321000,251.058,-12.574,5.977,476.452,162.317,164.069,20.960,35.510,-11.020
5,82639.361000,251.058,-5.532,3.984,474.541,165.167,162.167,27.960,-25.490,-15.020
6,82639.401000,254.023,-4.527,0.000,479.336,161.288,160.130,31.960,-45.490,-28.020
7,82639.442000,256.000,-4.527,-0.996,475.551,169.988,160.315,67.960,-23.490,-46.020
8,82639.482000,254.023,-3.521,0.000,477.411,162.240,160.147,75.960,-13.490,-42.020
9,82639.522000,256.000,-0.503,-0.996,475.545,169.923,157.371,102.960,-27.490,-26.020
10,82639.562000,253.035,-0.503,0.000,476.517,170.860,155.433,92.960,-34.490,-21.020
11,82639.602000,253.035,-1.509,-0.996,477.501,172.790,154.497,67.960,-40.490,-18.020
12,82639.622000,254.023,-0.503,-1.992,476.498,168.919,155.390,62.960,-47.490,-6.020
13,82639.662000,252.046,-2.515,0.996,477.518,174.710,153.559,35.960,-56.490,-6.020
14,82639.702000,253.035,0.503,0.000,478.513,177.632,153.626,27.960,-66.490,-1.020
15,82639.753000,256.988,-0.503,-4.981,476.560,176.556,149.676,7.960,-59.490,1.980
16,82639.782000,254.023,-0.503,-5.977,477.539,177.558,150.681,-11.040,-32.490,11.980
17,82639.822000,253.035,-2.515,-3.984,476.532,173.644,149.611,-16.040,-20.490,12.980
18,82639.862000,253.035,-1.509,-2.988,475.513,168.737,147.538,-19.040,-24.490,16.980
19,82639.902000,250.069,-0.503,-3.984,478.486,175.604,149.658,14.960,-40.490,33.980
20,82639.922000,251.058,-2.515,-4.981,476.537,174.571,147.670,16.960,-53.490,23.980
21,82639.967000,244.139,8.550,-8.965,478.401,167.751,145.561,194.960,5.510,-1.020
22,82640.6000,254.023,-9.556,-7.969,479.461,177.448,144.798,-90.040,35.510,-14.020
23,82640.41000,252.046,-0.503,-2.988,475.532,170.678,147.582,-71.040,56.510,-12.020
24,82640.85000,253.035,-0.503,-3.984,475.560,173.591,147.646,-28.040,46.510,-6.020
25,82640.125000,254.023,-3.521,-1.992,478.485,174.720,153.561,-41.040,20.510,-0.020
26,82640.170000,254.023,-0.503,-1.992,476.569,176.643,153.600,-40.040,15.510,3.980
27,82640.203000,255.012,-2.515,-5.977,476.503,169.846,153.449,-44.040,24.510,7.980
28,82640.243000,255.012,-2.515,-2.988,472.683,174.685,154.529,-49.040,39.510,12.980
29,82640.263000,252.046,-0.503,0.996,475.519,167.917,154.385,-49.040,30.510,22.980
30,82640.303000,254.023,-2.515,0.000,474.587,170.885,157.391,-58.040,12.510,23.980
31,82640.343000,254.023,-0.503,-0.996,477.501,172.790,154.497,-35.040,11.510,25.980
32,82640.387000,254.023,-2.515,-1.992,477.440,166.037,156.309,-14.040,16.510,33.980
33,82640.422000,254.023,-2.515,-0.996,475.512,166.968,155.344,-1.040,13.510,37.980
34,82640.461000,252.046,-3.521,0.996,474.566,168.921,156.367,11.960,1.510,39.980
35,82640.501000,254.023,-4.527,0.000,477.475,169.899,155.414,17.960,-6.490,38.980
36,82640.541000,254.023,-2.515,0.996,477.472,168.993,158.336,20.960,-8.490,32.980
37,82640.586000,253.035,-5.532,0.000,471.665,168.915,157.341,7.960,-12.490,24.980
38,82640.601000,255.012,-5.532,0.000,478.355,161.149,154.241,7.960,-18.490,18.980
39,82640.641000,253.035,-3.521,-0.996,475.519,167.917,154.385,6.960,-18.490,16.980
40,82640.681000,255.012,-5.532,-1.992,474.556,167.951,156.345,6.960,-20.490,16.980
41,82640.726000,254.023,-5.532,-1.992,478.424,167.967,155.373,4.960,-12.490,13.980
42,82640.765000,254.023,-4.527,-1.992,474.476,160.141,154.210,0.960,-9.490,16.980
43,82640.805000,255.012,-4.527,0.000,478.348,160.200,155.200,-5.040,-10.490,13.980
44,82640.845000,254.023,-4.527,-1.992,476.432,162.123,155.239,0.960,-11.490,14.980
45,82640.885000,253.035,-6.538,-0.996,472.539,160.100,153.224,-0.040,-13.490,15.980
46,82640.905000,254.023,-6.538,-1.992,477.449,167.893,152.427,2.960,-14.490,14.980
47,82640.945000,255.012,-5.532,-2.988,476.428,162.080,153.277,0.960,-11.490,11.980
48,82640.985000,253.035,-5.532,-0.996,474.481,161.068,152.269,-4.040,-10.490,9.980
49,82641.25000,253.035,-6.538,-0.996,475.423,158.187,153.188,-6.040,-6.490,9.980
50,82641.66000,252.046,-5.532,0.000,475.496,165.932,152.379,-16.040,-7.490,8.980
51,82641.106000,253.035,-3.521,-1.992,474.523,164.995,154.318,-21.040,-7.490,8.980
52,82641.146000,254.023,-3.521,-2.988,480.330,165.073,155.313,-21.040,-6.490,11.980
53,82641.186000,254.023,-4.527,-3.984,477.371,159.220,155.176,-25.040,0.510,15.980
54,82641.226000,254.023,-3.521,-4.981,476.407,160.116,152.252,-42.040,6.510,22.980
55,82641.246000,254.023,-5.532,-0.996,478.349,161.084,151.297,-27.040,16.510,28.980
56,82641.286000,255.012,-5.532,-2.988,475.380,153.375,155.043,-26.040,35.510,30.980
57,82641.326000,254.023,-7.544,-1.992,478.343,159.272,157.141,-34.040,47.510,37.980
58,82641.366000,255.012,-6.538,-2.988,476.399,158.282,157.115,-60.040,80.510,39.980
59,82641.406000,252.046,-4.527,7.969,477.399,160.363,163.047,-2.040,70.510,46.980
60,82641.446000,251.058,-12.574,9.961,479.390,166.207,163.181,-35.040,-18.490,42.980
61,82641.488000,253.035,-11.568,5.977,479.364,163.316,164.098,-72.040,-66.490,17.980
62,82641.525000,253.035,-13.580,0.000,475.503,162.480,171.916,-170.040,-66.490,-15.020
63,82641.545000,257.977,-0.503,-5.977,473.582,162.590,177.798,-233.040,-21.490,-57.020
64,82641.585000,256.000,-5.532,-5.977,466.715,151.931,181.470,-323.040,11.510,-92.020
65,82641.623000,251.058,-2.515,-4.981,461.773,140.320,185.125,-469.040,28.510,-123.020
66,82641.667000,251.058,-3.521,3.984,455.062,146.122,187.201,-513.040,11.510,-135.020
67,82641.705000,254.023,-21.627,10.957,457.842,133.529,186.927,-458.040,-50.490,-153.020
68,82641.746000,253.035,-18.609,12.949,459.725,128.651,184.861,-332.040,-100.490,-177.020
69,82641.783000,256.988,-4.527,9.961,458.834,137.293,181.129,-338.040,-159.490,-159.020
70,82641.826000,257.977,-8.550,-0.996,455.922,136.294,181.100,-281.040,-172.490,-142.020
71,82641.865000,259.954,1.509,-5.977,459.844,142.113,179.276,-357.040,-143.490,-163.020
72,82641.886000,250.069,-1.509,-8.965,457.883,139.204,180.188,-428.040,-100.490,-162.020
73,82641.926000,260.942,26.656,-0.996,454.941,135.270,179.114,-587.040,-95.490,-173.020
74,82641.966000,305.421,96.063,29.883,453.987,136.275,181.096,-1099.040,-287.490,-202.020
75,82642.6000,338.039,71.921,66.739,458.686,124.434,170.056,-1309.040,-385.490,-112.020
76,82642.46000,336.062,9.556,14.942,460.485,115.219,147.300,-1402.040,-1046.490,161.980
77,82642.86000,418.100,-124.228,-367.564,467.955,95.101,111.565,-1009.040,-2267.490,441.980
78,82642.126000,274.780,-37.721,-324.732,471.552,81.957,41.654,-494.040,-3138.490,520.980
79,82642.166000,125.529,-31.686,-218.148,470.384,79.143,-41.767,-485.040,-3213.490,321.980
80,82642.206000,-11.861,-1.509,-132.482,451.798,73.484,-114.501,-207.040,-2813.490,81.980
81,82642.226000,-26.687,15.591,-79.689,434.346,81.751,-172.213,410.960,-2228.490,-24.020
82,82642.266000,21.745,22.633,-60.763,421.571,70.043,-213.688,808.960,-1343.490,-102.020
83,82642.306000,51.398,13.580,-60.763,419.610,71.534,-233.272,778.960,-634.490,-60.020
84,82642.346000,126.517,0.503,-68.732,419.480,60.596,-245.283,717.960,75.510,53.980
85,82642.385000,198.672,-3.521,-87.658,431.940,47.277,-238.688,1131.960,932.510,176.980
86,82642.425000,275.768,-12.574,-87.658,453.150,34.453,-213.431,1186.960,1534.510,-15.020
87,82642.463000,354.842,-60.857,-126.506,473.534,35.299,-183.949,-524.040,1724.510,-132.020
88,82642.507000,382.517,-91.033,-168.342,484.264,38.013,-153.466,-1126.040,1352.510,-78.020
89,82642.547000,364.726,17.603,-180.296,493.009,36.695,-128.960,-314.040,1117.510,225.980
90,82642.567000,269.838,55.827,-95.626,491.985,27.344,-112.499,132.960,964.510,125.980
91,82642.606000,271.815,-9.556,-58.770,495.933,30.768,-90.840,490.960,1000.510,35.980
92,82642.646000,264.896,-36.715,-49.805,499.802,25.520,-66.431,-32.040,937.510,55.980
93,82642.687000,260.942,9.556,-61.759,498.802,18.154,-47.964,-360.040,839.510,71.980
94,82642.727000,260.942,-21.627,-35.860,499.857,23.406,-30.194,-284.040,619.510,44.980
95,82642.767000,250.069,-56.833,-37.852,510.587,29.637,-16.304,-316.040,372.510,3.980
96,82642.807000,246.116,-26.656,-33.868,514.487,31.724,-11.346,-349.040,25.510,-2.020
97,82642.847000,257.977,13.580,-25.899,510.582,28.709,-14.363,-66.040,-272.490,-15.020
98,82642.865000,271.815,1.509,10.957,510.621,36.131,-29.889,71.960,-804.490,58.980
99,82642.906000,327.166,16.597,71.720,511.474,29.754,-55.526,8.960,-1306.490,106.980
100,82642.947000,426.996,104.110,88.654,505.658,38.392,-101.437,-594.040,-2030.490,50.980
101,82642.987000,512.988,-86.004,9.961,492.866,28.281,-158.567,679.960,-2443.490,274.980
102,82643.30000,310.363,-4.527,-119.533,467.582,23.268,-198.939,759.960,-2018.490,-241.020
103,82643.65000,200.649,-102.098,-146.428,446.255,25.283,-230.320,711.960,-1644.490,-489.020
104,82643.106000,133.436,-40.739,-85.665,441.462,29.184,-227.302,842.960,-750.490,-1210.020
105,82643.146000,22.734,44.762,-0.996,434.969,54.684,-212.039,591.960,520.510,-1635.020
106,82643.192000,-4.942,48.786,-60.763,434.405,88.482,-175.006,252.960,1382.510,-1865.020
107,82643.208000,-11.861,-93.045,-192.249,437.764,124.583,-123.203,532.960,2106.510,-1821.020
108,82643.251000,63.259,-79.969,-290.864,431.261,142.942,-79.660,1968.960,2306.510,-1631.020
109,82643.285000,139.367,-78.963,-268.949,421.025,177.552,-45.571,2265.960,1941.510,-1624.020
110,82643.325000,379.552,-276.118,-492.078,419.268,196.842,-50.050,2651.960,993.510,-1264.020
111,82643.366000,183.846,-54.821,105.588,413.510,205.157,-66.549,2509.960,680.510,-804.020
112,82643.406000,471.475,-148.369,64.747,419.384,211.168,-60.519,648.960,859.510,213.980
113,82643.446000,301.467,148.369,-46.817,434.896,209.873,-37.960,-202.040,841.510,240.980
114,82643.486000,289.606,-20.621,-29.883,444.685,219.870,-28.891,459.960,881.510,193.980
115,82643.525000,301.467,-20.621,-18.926,457.348,226.098,-15.978,-330.040,861.510,255.980
116,82643.546000,260.942,6.538,-38.848,461.259,228.294,-6.114,62.960,787.510,111.980
117,82643.585000,247.104,12.574,-39.844,461.319,233.277,-0.119,-12.040,778.510,161.980
118,82643.625000,256.000,-17.603,-3.984,452.656,236.256,6.793,-69.040,706.510,223.980
119,82643.670000,273.792,17.603,-12.949,442.495,280.380,32.268,-275.040,519.510,152.980
120,82643.705000,245.127,-13.580,-19.922,380.703,272.161,127.079,-516.040,505.510,34.980
121,82643.747000,246.116,3.521,-20.918,387.202,145.010,122.309,-627.040,579.510,-24.020
122,82643.788000,255.012,-1.509,-11.953,417.973,132.949,89.744,-435.040,524.510,10.980
123,82643.826000,244.139,-37.721,12.949,425.844,144.848,97.870,-393.040,483.510,-32.020
124,82643.846000,251.058,-20.621,21.914,428.878,157.583,102.082,-239.040,263.510,-9.020
125,82643.886000,250.069,-15.591,18.926,426.975,158.751,111.911,25.960,134.510,27.980
126,82643.928000,254.023,-10.562,21.914,427.999,164.586,112.042,4.960,8.510,14.980
127,82643.967000,252.046,-25.650,15.938,429.967,167.560,114.074,-1.040,-57.490,5.980
128,82644.7000,259.954,-23.639,16.934,428.961,163.667,113.985,1.960,25.510,-29.020
129,82644.47000,259.954,-23.639,14.942,431.026,176.372,117.214,-66.040,118.510,-87.020
130,82644.91000,255.012,5.532,52.794,431.974,173.555,121.076,-254.040,-27.490,-142.020
131,82644.128000,297.514,14.585,75.704,433.933,177.328,115.280,-514.040,-651.490,-163.020
132,82644.168000,327.166,18.609,119.533,432.894,173.996,96.571,-308.040,-815.490,-14.020
133,82644.188000,279.722,-4.527,56.778,435.617,159.095,79.575,-479.040,-767.490,102.980
134,82644.228000,211.521,-49.792,-74.708,431.692,155.886,67.727,-109.040,-643.490,271.980
135,82644.267000,116.633,42.750,25.899,430.680,151.044,68.598,185.960,292.510,-113.020
136,82644.308000,165.066,43.756,27.891,420.215,165.848,84.595,126.960,901.510,-560.020
137,82644.348000,240.185,-43.756,-100.607,411.678,177.953,109.363,-252.040,1136.510,-655.020
138,82644.388000,358.795,-178.546,-341.665,404.928,178.987,115.255,137.960,230.510,-123.020
139,82644.428000,272.803,27.662,22.911,404.910,178.814,107.406,564.960,-167.490,-115.020
140,82644.466000,278.734,114.169,-63.751,402.983,180.630,102.539,342.960,-293.490,48.980
141,82644.508000,274.780,-52.809,5.977,403.019,185.376,97.741,738.960,237.510,172.980
142,82644.532000,262.919,4.527,-5.977,403.897,175.720,99.490,67.960,-14.490,177.980
143,82644.571000,265.884,18.609,-10.957,401.966,174.860,105.351,-50.040,149.510,204.980
144,82644.610000,257.977,-8.550,5.977,405.802,171.057,107.236,-387.040,118.510,131.980
145,82644.650000,257.977,10.562,15.938,404.792,166.236,109.088,-580.040,-13.490,59.980
146,82644.688000,247.104,-17.603,36.856,403.777,160.488,112.881,-188.040,-150.490,132.980
147,82644.726000,254.023,-1.509,35.860,400.804,152.736,114.664,-352.040,-330.490,157.980
148,82644.768000,277.745,16.597,34.864,409.445,146.025,114.533,-577.040,-546.490,249.980
149,82644.807000,302.456,-0.503,38.848,414.260,145.856,104.733,-1409.040,-643.490,413.980
150,82644.830000,263.907,-16.597,-11.953,423.628,114.840,102.103,-3256.040,-535.490,662.980
151,82644.871000,228.324,-18.609,-66.739,430.982,73.362,110.024,-4674.040,-213.490,864.980
152,82644.911000,210.533,-10.562,-105.588,428.880,55.005,114.515,-3887.040,4.510,696.980
153,82644.947000,229.313,-56.833,-76.700,432.454,24.039,116.777,-2549.040,287.510,311.980
154,82644.987000,236.232,-93.045,-64.747,428.513,14.509,126.364,-2126.040,457.510,26.980
155,82645.27000,219.429,-127.246,-47.813,423.583,3.005,134.924,-2433.040,575.510,-122.020
156,82645.68000,277.745,-24.644,15.938,421.543,-10.347,146.392,-2534.040,616.510,-128.020
157,82645.107000,395.367,123.222,97.619,419.522,-21.757,157.902,-1548.040,619.510,-215.020
158,82645.152000,332.108,12.574,-31.875,417.662,-14.009,158.070,-883.040,452.510,-379.020
159,82645.168000,359.784,-140.322,-492.078,417.564,-21.992,148.086,166.960,-493.490,-282.020
160,82645.208000,234.255,-35.709,-492.078,434.084,-5.283,106.323,1373.960,-2743.490,-264.020
161,82645.250000,193.730,0.503,-413.385,445.636,5.725,28.139,562.960,-3790.490,-446.020
162,82645.291000,52.386,-13.580,-146.428,448.333,2.906,-57.235,1104.960,-3771.490,-329.020
163,82645.328000,10.873,51.804,-57.774,440.337,-9.315,-124.208,1419.960,-3109.490,-83.020
164,82645.368000,51.398,104.110,-1.992,432.488,-8.679,-180.108,502.960,-2014.490,-95.020
165,82645.411000,111.691,51.804,-24.903,431.474,-9.141,-200.715,55.960,-1057.490,-85.020
166,82645.447000,195.707,54.821,-95.626,431.463,-7.480,-213.426,475.960,131.510,-27.020
167,82645.491000,289.606,35.709,-102.599,442.011,-17.085,-213.617,392.960,771.510,46.980
168,82645.510000,296.525,11.568,-84.669,454.576,-23.240,-190.192,-96.040,1484.510,155.980
169,82645.550000,382.517,7.544,16.934,465.263,-27.107,-150.048,-351.040,1967.510,162.980
170,82645.590000,475.429,-33.697,-42.833,477.967,-21.353,-114.590,-269.040,1486.510,475.980
171,82645.631000,350.888,53.815,-214.163,483.738,-32.192,-80.495,-153.040,1331.510,359.980
172,82645.668000,273.792,-8.550,-59.767,484.686,-38.526,-60.040,461.960,1274.510,265.980
173,82645.710000,268.849,-65.886,-51.798,487.607,-42.726,-31.687,-252.040,1112.510,153.980
174,82645.752000,244.139,-25.650,-59.767,485.742,-41.192,-5.179,-288.040,1046.510,145.980
175,82645.788000,257.977,-29.674,-46.817,484.824,-39.842,12.500,-852.040,837.510,165.980
176,82645.817000,262.919,-38.727,-31.875,484.764,-49.227,27.002,-646.040,619.510,84.980
177,82645.848000,262.919,-51.804,-27.891,486.679,-52.035,30.866,-926.040,253.510,3.980
178,82645.888000,257.977,-41.745,-3.984,487.652,-50.213,25.025,-896.040,-100.490,43.980
179,82645.927000,264.896,0.503,3.984,485.659,-54.309,16.104,-540.040,-568.490,56.980
180,82645.970000,319.259,53.815,32.872,483.727,-48.136,-11.222,-221.040,-1131.490,12.980
181,82646.10000,443.799,136.299,176.311,482.601,-56.711,-47.699,-71.040,-1743.490,-85.020
182,82646.50000,512.988,-156.417,39.844,478.668,-49.434,-112.269,218.960,-2726.490,58.980
183,82646.90000,512.988,-95.057,56.778,461.945,-65.452,-171.500,1775.960,-2905.490,-191.020
184,82646.137000,298.502,-26.656,-129.494,446.359,-69.270,-205.941,2526.960,-2156.490,-953.020
185,82646.150000,163.089,-14.585,-55.782,444.477,-66.139,-195.088,4242.960,-1011.490,-1962.020
186,82646.191000,16.803,100.086,69.728,444.834,-31.900,-182.559,1654.960,229.510,-3459.020
187,82646.231000,8.896,-44.762,-71.720,438.848,42.489,-150.520,698.960,1194.510,-3840.020
188,82646.270000,72.154,-204.699,-187.268,423.176,114.021,-111.700,1486.960,1983.510,-4073.020
189,82646.308000,99.830,-241.917,-291.860,398.508,160.701,-96.006,5061.960,2045.510,-3513.020
190,82646.352000,165.066,-231.859,-237.074,372.618,188.192,-114.083,5485.960,1448.510,-2858.020
191,82646.387000,191.753,-271.088,-444.265,356.229,199.143,-138.391,3605.960,468.510,-2151.020
192,82646.427000,77.097,-245.941,-65.743,353.270,198.575,-162.927,3564.960,449.510,-1017.020
193,82646.467000,325.189,-73.933,-92.638,359.087,200.509,-165.813,1005.960,602.510,-52.020
194,82646.487000,334.085,118.193,-53.790,363.904,201.246,-178.535,945.960,998.510,125.980
195,82646.527000,331.120,33.697,-46.817,367.762,199.407,-175.626,16.960,1051.510,251.980
196,82646.568000,313.328,-22.633,-25.899,372.453,179.562,-153.502,237.960,972.510,188.980
197,82646.610000,288.618,-20.621,-44.825,380.173,172.410,-129.127,-172.040,844.510,129.980
198,82646.650000,246.116,10.562,-58.770,385.947,164.246,-105.761,-230.040,941.510,55.980
199,82646.690000,263.907,26.656,-34.864,393.754,169.370,-96.804,-162.040,857.510,130.980
200,82646.728000,233.266,-17.603,-56.778,399.568,165.996,-76.273,-287.040,887.510,58.980
201,82646.768000,241.174,-66.892,-13.946,408.360,171.302,-59.466,-149.040,922.510,-61.020
202,82646.790000,262.919,16.597,6.973,407.527,184.022,-54.282,106.960,664.510,-57.020
203,82646.830000,249.081,8.550,-10.957,422.251,210.851,-76.210,40.960,431.510,-49.020
204,82646.868000,243.151,-21.627,-6.973,401.373,340.903,-21.393,-44.040,252.510,-56.020
205,82646.908000,249.081,6.538,-20.918,349.683,181.880,50.480,93.960,207.510,22.980
206,82646.950000,248.093,-14.585,20.918,375.404,151.003,2.777,261.960,119.510,97.980
207,82646.992000,248.093,11.568,12.949,393.893,165.421,-11.574,183.960,27.510,102.980
208,82647.31000,252.046,-16.597,8.965,397.807,170.292,-12.439,22.960,-82.490,63.980
209,82647.71000,249.081,-29.674,30.879,400.701,170.234,-16.356,42.960,-132.490,-46.020
210,82647.112000,263.907,-8.550,7.969,398.827,176.083,-14.269,4.960,-118.490,-148.020
211,82647.131000,264.896,-14.585,1.992,399.776,175.036,-18.213,-134.040,-78.490,-184.020
212,82647.171000,272.803,-31.686,22.911,397.920,184.574,-24.870,-165.040,-298.490,-272.020
213,82647.211000,358.795,7.544,88.654,395.952,182.484,-30.804,-421.040,-937.490,-244.020
214,82647.251000,363.737,5.532,105.588,396.928,186.097,-43.471,-1271.040,-1179.490,-55.020
215,82647.292000,211.521,-112.157,-28.887,392.063,184.022,-47.450,-1526.040,-855.490,356.980
216,82647.332000,139.367,-4.527,14.942,399.793,183.126,-47.453,-717.040,-431.490,605.980
217,82647.372000,113.668,-75.945,2.988,407.373,163.180,-31.209,178.960,550.510,611.980
218,82647.431000,123.552,-49.792,-15.938,412.120,148.276,-5.052,942.960,1279.510,565.980
219,82647.448000,172.973,-5.532,-98.615,416.054,146.285,35.119,-1108.040,1307.510,388.980
220,82647.468000,366.703,-44.762,-341.665,419.893,138.988,54.579,-2852.040,205.510,559.980
221,82647.513000,293.560,156.417,-48.809,416.116,145.120,70.397,326.960,-179.490,-285.020
222,82647.550000,277.745,-70.916,-6.973,413.345,162.201,54.100,1536.960,-324.490,-328.020
223,82647.588000,347.923,199.670,-38.848,412.420,167.003,52.243,439.960,91.510,40.980
224,82647.636000,242.162,45.768,-44.825,407.555,164.043,52.167,403.960,-18.490,107.980
225,82647.672000,259.954,-12.574,4.981,407.541,163.029,50.183,-520.040,76.510,116.980
226,82647.713000,240.185,-26.656,7.969,406.427,147.529,51.798,-937.040,-178.490,93.980
227,82647.750000,245.127,-57.839,5.977,400.534,139.576,45.725,-755.040,-386.490,120.980
228,82647.771000,285.652,-5.532,9.961,399.571,136.093,64.278,-873.040,-478.490,328.980
229,82647.810000,273.792,-84.998,19.922,412.143,135.288,66.248,-1924.040,-321.490,607.980
230,82647.855000,245.127,-86.004,-7.969,421.560,107.378,72.513,-4296.040,-143.490,847.980
231,82647.892000,258.965,2.515,-47.813,429.971,74.690,82.593,-4812.040,26.510,947.980
232,82647.931000,251.058,8.550,-58.770,427.671,34.197,95.418,-5057.040,243.510,969.980
233,82647.973000,248.093,-0.503,-63.751,426.486,10.089,102.726,-4713.040,485.510,840.980
234,82648.11000,215.475,-41.745,-92.638,423.263,-23.834,105.889,-4223.040,667.510,624.980
235,82648.48000,218.440,-68.904,-74.708,419.138,-51.854,113.104,-3290.040,885.510,171.980
236,82648.93000,388.448,-12.574,82.677,415.206,-59.529,118.809,-2458.040,865.510,-12.020
237,82648.110000,376.587,23.639,82.677,414.229,-60.509,118.785,-2407.040,667.510,-214.020
238,82648.151000,155.181,-167.481,-205.198,415.072,-72.258,113.623,-2430.040,377.510,100.980
239,82648.193000,43.490,-28.668,-159.377,408.101,-90.080,100.464,-1218.040,-250.490,330.980
240,82648.228000,-0.988,168.487,-81.681,409.035,-93.911,102.342,636.960,204.510,55.980
241,82648.272000,293.560,238.900,252.016,403.337,-86.783,120.140,301.960,1031.510,-505.020
242,82648.316000,491.243,25.650,3.984,407.396,-71.730,141.077,493.960,760.510,-646.020
243,82648.352000,398.332,-113.163,-492.078,412.302,-63.096,134.414,894.960,-837.490,-479.020
244,82648.392000,257.977,-39.733,-400.436,439.311,-60.954,87.447,452.960,-3065.490,-249.020
245,82648.428000,141.344,-1.509,-223.128,454.749,-47.988,8.334,126.960,-3757.490,-217.020
246,82648.472000,74.131,23.639,-27.891,459.480,-40.152,-78.761,269.960,-3470.490,-265.020
247,82648.500000,65.236,34.703,38.848,454.579,-38.170,-118.935,643.960,-2599.490,-219.020
248,82648.532000,104.772,50.798,14.942,454.544,-32.345,-162.935,-40.040,-1209.490,-54.020
249,82648.572000,237.220,-2.515,0.000,454.492,-34.610,-177.696,258.960,-107.490,173.980
250,82648.611000,288.618,-17.603,-14.942,452.489,-44.079,-166.142,671.960,924.510,389.980
251,82648.652000,406.239,10.562,-17.930,467.990,-49.883,-127.993,554.960,1547.510,440.980
252,82648.705000,397.344,29.674,-0.996,473.866,-50.905,-88.776,-423.040,1747.510,431.980
253,82648.735000,307.398,105.116,-88.654,475.697,-65.967,-68.513,141.960,1353.510,512.980
254,82648.750000,266.873,36.715,-80.685,476.727,-66.239,-37.136,333.960,1191.510,396.980
255,82648.790000,287.629,-101.092,-39.844,482.503,-75.265,-8.885,-175.040,1142.510,157.980
256,82648.830000,253.035,-61.862,-37.852,476.731,-76.767,13.625,-504.040,957.510,187.980
257,82648.871000,246.116,11.568,-63.751,477.680,-82.216,30.177,-609.040,692.510,250.980
258,82648.911000,267.861,-34.703,-42.833,477.665,-85.884,39.903,-254.040,518.510,145.980
259,82648.953000,255.012,-66.892,-23.907,473.787,-87.756,44.756,-554.040,245.510,53.980
260,82648.993000,256.988,-45.768,-13.946,475.619,-97.532,40.620,-575.040,-41.490,102.980
261,82649.33000,256.988,-15.591,-13.946,473.640,-100.614,33.683,-473.040,-516.490,122.980
262,82649.75000,283.676,30.680,3.984,477.491,-98.117,13.153,-171.040,-901.490,111.980
263,82649.90000,372.633,99.081,116.545,473.486,-104.735,-21.326,-203.040,-1682.490,22.980
264,82649.130000,489.266,109.139,140.451,469.427,-110.986,-83.255,-620.040,-2591.490,-57.020
265,82649.170000,512.988,-134.287,70.724,448.917,-119.209,-139.378,2054.960,-2792.490,119.980
266,82649.211000,341.004,-109.139,-139.455,435.058,-145.252,-170.386,2801.960,-2310.490,-583.020
267,82649.255000,123.552,-9.556,111.564,431.274,-133.899,-181.910,2249.960,-1757.490,-1696.020
268,82649.295000,84.015,87.010,118.537,445.303,-85.094,-174.913,1211.960,-18.490,-3484.020
269,82649.333000,77.097,-6.538,-7.969,456.843,1.978,-147.459,695.960,1132.510,-4203.020
270,82649.373000,74.131,-96.063,-55.782,451.995,90.334,-98.436,1136.960,2496.510,-4285.020
271,82649.415000,135.413,-258.012,-250.023,430.566,165.801,-54.638,4438.960,2839.510,-3797.020
272,82649.435000,245.127,-301.265,-285.883,401.971,211.883,-64.462,6844.960,1981.510,-3113.020
273,82649.475000,308.386,-368.660,-391.471,374.013,228.395,-95.536,4950.960,986.510,-2501.020
274,82649.515000,156.170,-217.776,-102.599,374.884,223.960,-121.130,3664.960,716.510,-732.020
275,82649.555000,421.066,-200.676,-236.078,377.784,223.967,-122.104,149.960,563.510,262.980
276,82649.596000,216.463,131.269,-101.603,384.623,228.197,-109.247,653.960,976.510,257.980
277,82649.635000,331.120,-29.674,-9.961,392.423,233.256,-103.235,595.960,1326.510,220.980
278,82649.673000,307.398,9.556,-0.996,405.957,229.763,-91.516,-133.040,1123.510,229.980
279,82649.713000,285.652,16.597,-25.899,410.644,210.760,-75.256,219.960,900.510,218.980
280,82649.732000,247.104,-23.639,-24.903,414.579,213.192,-54.600,79.960,812.510,176.980
281,82649.772000,264.896,-26.656,-5.977,420.279,200.800,-47.018,193.960,723.510,132.980
282,82649.812000,286.641,44.762,-11.953,422.307,207.874,-35.089,239.960,714.510,19.980
283,82649.852000,261.931,-28.668,-7.969,425.251,209.175,-21.324,499.960,768.510,-36.020
284,82649.893000,233.266,7.544,-26.895,426.245,210.328,-13.451,421.960,767.510,-6.020
285,82649.933000,260.942,27.662,7.969,429.190,214.282,-11.396,285.960,624.510,46.980
286,82649.985000,234.255,-36.715,39.844,438.214,254.389,-44.810,150.960,197.510,1.980
287,82650.12000,256.988,16.597,-12.949,419.868,358.018,-45.490,229.960,-49.490,-29.020
288,82650.52000,252.046,27.662,-0.996,360.922,237.021,82.128,166.960,-48.490,69.980
289,82650.72000,247.104,0.503,19.922,400.973,190.449,20.377,-9.040,-59.490,80.980
290,82650.118000,244.139,-0.503,16.934,416.483,196.188,9.750,-136.040,-145.490,19.980
291,82650.153000,256.000,4.527,-8.965,418.425,196.272,12.698,-298.040,-159.490,-25.020
292,82650.191000,256.988,-30.680,13.946,420.450,205.956,10.956,-216.040,-131.490,-77.020
293,82650.231000,263.907,-12.574,-0.996,418.579,212.712,10.121,-175.040,-16.490,-160.020
294,82650.272000,268.849,-29.674,-2.988,417.637,214.709,13.106,-80.040,-45.490,-227.020
295,82650.312000,259.954,0.503,63.751,417.668,219.412,6.345,-243.040,-458.490,-308.020
296,82650.353000,376.587,22.633,115.549,415.669,215.251,-5.519,-489.040,-809.490,-199.020
297,82650.395000,358.795,-24.644,82.677,417.647,220.965,-11.272,-1794.040,-1090.490,171.980
298,82650.415000,218.440,-83.992,8.965,420.483,213.313,-7.513,-2015.040,-751.490,418.980
299,82650.451000,147.274,1.509,-3.984,428.064,196.021,-2.978,-1398.040,-326.490,705.980
300,82650.491000,136.402,-35.709,24.903,427.918,177.013,15.233,-272.040,421.510,655.980
301,82650.532000,161.112,39.733,-30.879,432.734,170.696,34.716,387.960,1250.510,419.980
302,82650.572000,289.606,-114.169,-253.012,434.660,162.710,67.885,-1463.040,842.510,475.980
303,82650.612000,260.942,177.540,-21.914,441.419,157.361,86.413,-2406.040,-255.490,-199.020
304,82650.653000,386.471,195.646,-27.891,437.691,173.655,78.922,1580.960,-310.490,-408.020
305,82650.692000,212.510,-95.057,-37.852,435.736,173.442,70.087,504.960,50.510,-30.020
306,82650.718000,304.432,64.880,-43.829,433.897,182.269,75.182,46.960,-20.490,-17.020
307,82650.755000,257.977,2.515,-25.899,432.913,180.339,76.118,132.960,170.510,152.980
308,82650.793000,247.104,-20.621,-2.988,431.901,175.497,76.989,-452.040,150.510,42.980
309,82650.841000,253.035,-63.874,17.930,432.854,173.608,78.910,-280.040,-34.490,-71.020
310,82650.873000,257.977,14.585,15.938,421.162,163.894,83.573,185.960,-324.490,-94.020
311,82650.912000,268.849,39.733,-14.942,427.140,181.469,85.937,-409.040,-489.490,78.980
312,82650.952000,290.595,-44.762,14.942,437.737,180.257,70.242,-1157.040,-532.490,210.980
313,82650.992000,290.595,-23.639,0.996,443.294,154.165,72.617,-2275.040,-615.490,245.980
314,82651.33000,242.162,-5.532,-71.720,444.225,149.428,77.417,-3212.040,-389.490,253.980
315,82651.55000,324.201,-25.650,18.926,445.050,133.105,84.902,-3441.040,-265.490,167.980
316,82651.93000,372.633,-13.580,48.809,445.713,99.372,94.942,-4657.040,-323.490,628.980
317,82651.137000,277.745,-22.633,-64.747,446.232,51.938,99.774,-4847.040,-192.490,1038.980
318,82651.173000,231.290,56.833,-23.907,444.962,20.861,99.081,-5047.040,80.510,1054.980
319,82651.212000,141.344,28.668,-104.591,439.791,-13.209,96.353,-4114.040,337.510,854.980
320,82651.265000,113.668,47.780,-194.241,435.650,-41.381,96.700,-2683.040,438.510,574.980
321,82651.292000,37.560,-40.739,-60.763,431.744,-46.165,101.488,-995.040,639.510,299.980
322,82651.332000,157.158,131.269,-142.444,427.785,-60.269,123.722,61.960,1185.510,36.980
323,82651.376000,472.463,167.481,156.389,418.241,-53.827,156.207,628.960,1220.510,-493.020
324,82651.401000,426.008,57.839,149.416,419.291,-48.618,172.015,-411.040,908.510,-530.020
325,82651.435000,360.772,27.662,-32.872,423.262,-38.807,175.184,-264.040,-319.490,-379.020
326,82651.475000,321.236,-118.193,-492.078,437.718,-34.803,130.192,709.960,-2271.490,-127.020
327,82651.515000,182.857,-50.798,-353.619,455.066,-26.456,60.787,655.960,-3459.490,13.980
328,82651.556000,65.236,-46.774,-184.280,461.644,-34.416,4.727,494.960,-3683.490,172.980
329,82651.596000,51.398,-41.745,-62.755,460.497,-36.151,-73.767,211.960,-3279.490,261.980
330,82651.632000,103.784,-33.697,16.934,456.318,-55.001,-134.995,832.960,-2233.490,537.980
331,82651.672000,187.799,-15.591,25.899,451.263,-71.230,-164.786,902.960,-1112.490,832.980
332,82651.692000,234.255,-35.709,44.825,453.797,-109.950,-161.717,1171.960,526.510,906.980
333,82651.732000,345.946,-13.580,6.973,459.640,-113.043,-128.431,771.960,1508.510,530.980
334,82651.777000,351.876,19.615,-186.272,471.393,-103.631,-102.700,-2537.040,1608.510,137.980
335,82651.812000,335.073,26.656,31.875,477.212,-106.078,-84.110,-1825.040,1780.510,477.980
336,82651.852000,305.421,110.145,-76.700,480.162,-108.229,-50.809,-154.040,1310.510,247.980
337,82651.908000,307.398,7.544,-16.934,479.160,-119.133,-16.730,604.960,1296.510,186.980
338,82651.938000,262.919,-66.892,-24.903,474.389,-117.670,7.809,-429.040,1074.510,98.980
339,82651.977000,256.000,-41.745,-42.833,481.197,-117.259,23.523,-707.040,803.510,87.980
340,82652.16000,251.058,-22.633,-45.821,477.352,-117.060,34.307,-815.040,624.510,76.980
341,82652.32000,254.023,-51.804,-19.922,474.341,-128.695,36.003,-593.040,288.510,50.980
342,82652.76000,251.058,-44.762,-22.911,477.321,-120.879,37.164,-422.040,7.510,45.980
343,82652.116000,260.942,-28.668,-20.918,476.248,-129.820,28.137,-121.040,-311.490,9.980
344,82652.153000,271.815,-1.509,16.934,472.342,-131.087,16.333,-347.040,-635.490,17.980
345,82652.193000,346.934,138.310,118.537,475.234,-125.881,-12.965,-69.040,-1356.490,9.980
346,82652.233000,512.000,11.568,91.642,472.210,-126.189,-69.857,-807.040,-2353.490,-149.020
347,82652.275000,512.988,-218.782,164.358,449.650,-145.219,-131.128,2061.960,-2840.490,218.980
348,82652.317000,420.077,-6.538,-34.864,442.710,-158.338,-151.047,2632.960,-2476.490,-390.020
349,82652.360000,266.873,-70.916,7.969,427.189,-158.014,-173.628,2669.960,-1999.490,-1798.020
350,82652.375000,57.328,86.004,127.502,439.257,-112.119,-165.719,1672.960,-230.490,-3029.020
351,82652.413000,101.807,62.868,-110.568,456.488,-37.526,-134.607,791.960,1009.510,-3843.020
352,82652.453000,85.992,-102.098,-159.377,467.081,47.983,-89.538,530.960,2291.510,-4118.020
353,82652.498000,147.274,-211.741,-277.914,452.506,129.578,-34.802,2635.960,2763.510,-3695.020
354,82652.538000,179.892,-165.470,-242.054,428.958,192.686,-22.663,6033.960,2171.510,-3081.020
355,82652.575000,200.649,-354.578,-353.619,410.699,210.414,-46.825,7155.960,1351.510,-2491.020
356,82652.615000,259.954,-476.291,20.918,395.298,226.855,-86.699,4423.960,587.510,-1243.020
357,82652.655000,275.768,-175.528,-271.938,394.364,232.455,-96.384,1731.960,695.510,-375.020
358,82652.696000,280.710,138.310,-85.665,398.218,230.572,-95.437,857.960,825.510,110.980
359,82652.716000,285.652,16.597,-52.794,406.992,234.821,-82.575,439.960,1105.510,354.980
360,82652.756000,278.734,-0.503,-33.868,419.567,231.405,-66.934,-456.040,1129.510,251.980
361,82652.796000,288.618,-51.804,-14.942,427.347,231.869,-49.255,7.960,1000.510,147.980
362,82652.836000,281.699,-4.527,-12.949,429.283,230.140,-40.464,-66.040,869.510,125.980
363,82652.876000,254.023,61.862,-37.852,435.985,219.850,-25.968,186.960,736.510,267.980
364,82652.916000,266.873,-38.727,0.996,438.841,212.392,-13.379,225.960,637.510,280.980
365,82652.955000,271.815,4.527,-3.984,443.760,218.501,-2.446,35.960,425.510,104.980
366,82652.993000,241.174,10.562,-21.914,445.645,212.760,0.373,112.960,324.510,89.980
367,82653.15000,245.127,10.562,-38.848,445.637,210.041,9.138,79.960,473.510,92.980
368,82653.55000,265.884,6.538,-19.922,441.916,226.401,4.590,183.960,593.510,26.980
369,82653.95000,245.127,-15.591,-2.988,444.222,266.958,-5.292,242.960,272.510,6.980
370,82653.135000,251.058,11.568,-24.903,405.176,311.253,84.849,151.960,153.510,35.980
371,82653.173000,253.035,-1.509,2.988,402.096,194.601,76.370,140.960,99.510,69.980
372,82653.215000,249.081,-5.532,10.957,427.147,191.221,43.985,152.960,-4.490,65.980
373,82653.253000,255.012,11.568,5.977,431.011,192.079,37.148,-18.040,-56.490,26.980
374,82653.296000,256.000,-0.503,0.000,432.065,199.963,42.229,-203.040,-33.490,3.980
375,82653.340000,254.023,-26.656,0.996,435.945,201.856,38.356,-158.040,-46.490,-22.020
376,82653.356000,255.012,-69.910,0.000,437.910,204.809,39.406,78.960,-97.490,-121.020
377,82653.395000,274.780,-34.703,12.949,438.926,211.442,31.711,242.960,-236.490,-290.020
378,82653.436000,304.432,32.692,33.868,436.064,217.088,24.965,-56.040,-431.490,-308.020
379,82653.476000,361.761,6.538,99.611,434.149,220.780,17.198,-690.040,-655.490,-67.020
380,82653.516000,224.371,-89.022,26.895,437.893,207.291,19.848,-1883.040,-634.490,332.980
381,82653.560000,163.089,-49.792,-47.813,440.694,195.776,24.502,-2107.040,-702.490,561.980
382,82653.605000,138.378,-104.110,-48.809,444.336,169.860,35.702,-1092.040,-49.490,787.980
383,82653.636000,126.517,-34.703,12.949,454.925,161.527,49.269,719.960,1015.510,777.980
384,82653.675000,203.614,-37.721,-144.436,456.809,149.615,80.390,-868.040,960.510,532.980
385,82653.696000,288.618,260.024,-34.864,466.471,143.431,103.809,-1781.040,104.510,-93.020
386,82653.736000,389.436,157.422,10.957,470.433,153.156,103.052,1255.960,-23.490,-338.020
387,82653.776000,246.116,-12.574,-50.802,466.626,161.640,93.426,667.960,-136.490,-128.020
388,82653.830000,302.456,61.862,-42.833,463.808,169.465,97.516,327.960,13.510,-70.020
389,82653.862000,260.942,35.709,-16.934,464.721,163.671,98.370,-26.040,98.510,69.980
390,82653.897000,254.023,-26.656,-7.969,462.819,167.493,96.490,-542.040,118.510,24.980
391,82653.937000,241.174,-29.674,3.984,460.804,158.779,98.253,-995.040,-76.490,-85.020
392,82653.977000,186.811,-122.216,16.934,452.838,135.403,97.718,-1425.040,-318.490,-30.020
393,82654.2000,236.232,26.656,12.949,445.177,139.599,115.447,1223.960,-264.490,212.980
394,82654.46000,268.849,45.768,-21.914,465.744,167.737,106.308,-522.040,-481.490,135.980
395,82654.85000,294.548,-65.886,47.813,473.299,151.955,91.264,-902.040,-445.490,391.980
396,82654.120000,241.174,-74.939,-41.837,477.001,134.538,91.865,-3152.040,-433.490,457.980
397,82654.155000,216.463,-30.680,-68.732,475.807,109.459,99.152,-3083.040,-254.490,308.980
398,82654.195000,280.710,15.591,-31.875,473.696,89.268,108.506,-2804.040,-142.490,49.980
399,82654.238000,378.564,22.633,51.798,476.393,67.958,109.019,-3236.040,-260.490,140.980
400,82654.277000,321.236,19.615,-1.992,473.289,48.383,102.694,-4229.040,-436.490,504.980
401,82654.317000,230.301,-24.644,-90.646,466.092,7.261,89.017,-3639.040,-278.490,762.980
402,82654.337000,165.066,-3.521,-86.661,462.936,-17.212,80.622,-3480.040,5.510,649.980
403,82654.380000,126.517,-16.597,-106.584,459.901,-30.832,80.314,-2932.040,204.510,563.980
404,82654.418000,101.807,-20.621,-112.560,456.827,-48.358,78.937,-2281.040,438.510,486.980
405,82654.458000,1.977,-41.745,76.700,447.045,-62.691,93.309,-599.040,1072.510,603.980
406,82654.498000,512.988,53.815,-213.167,440.190,-75.875,114.576,-1104.040,476.510,498.980
407,82654.535000,512.988,178.546,94.630,437.392,-68.740,131.400,1059.960,696.510,-415.020
408,82654.580000,321.236,-48.786,-79.689,441.361,-58.951,133.587,-535.040,225.510,-339.020
409,82654.620000,251.058,-168.487,-484.109,446.112,-61.493,104.120,-357.040,-1443.490,149.980
410,82654.656000,154.193,-80.974,-301.821,453.699,-69.917,70.607,-324.040,-2462.490,300.980
411,82654.676000,113.668,-69.910,-250.023,463.244,-69.305,5.917,-279.040,-2845.490,182.980
412,82654.716000,74.131,-37.721,-155.393,464.969,-77.463,-57.023,-213.040,-2700.490,125.980
413,82654.756000,76.108,-22.633,-107.580,456.209,-71.010,-112.796,-120.040,-2297.490,72.980
414,82654.797000,127.506,-37.721,-55.782,451.188,-81.629,-152.268,184.960,-1550.490,224.980
415,82654.838000,210.533,-1.509,-7.969,447.162,-93.727,-171.178,731.960,-721.490,447.980
416,82654.885000,226.347,23.639,33.868,453.851,-104.146,-162.569,799.960,618.510,496.980
417,82654.922000,358.795,-32.692,0.000,461.614,-105.602,-143.953,-128.040,1562.510,323.980
418,82654.958000,512.988,-6.538,-308.794,472.309,-106.750,-112.574,-586.040,1651.510,198.980
419,82654.978000,407.228,-87.010,-169.339,484.028,-102.948,-77.161,-564.040,1376.510,287.980
420,82655.17000,274.780,87.010,-71.720,479.223,-105.325,-50.747,-80.040,1097.510,245.980
421,82655.63000,265.884,-5.532,-63.751,479.225,-111.474,-21.463,188.960,1075.510,195.980
422,82655.100000,253.035,-82.986,-34.864,480.150,-118.908,-6.916,-380.040,875.510,78.980
423,82655.138000,256.988,-35.709,-41.837,479.222,-116.782,1.955,-440.040,654.510,14.980
424,82655.181000,267.861,-16.597,-34.864,474.397,-118.469,15.637,-375.040,493.510,7.980
425,82655.222000,256.988,-11.568,-32.872,479.314,-111.496,21.686,-436.040,215.510,26.980
426,82655.256000,263.907,-21.627,-30.879,482.204,-113.345,24.593,-216.040,-18.490,-1.020
427,82655.302000,259.954,-1.509,-5.977,476.285,-122.420,11.630,-428.040,-451.490,-15.020
428,82655.321000,309.375,52.809,84.669,477.225,-120.921,-8.928,-76.040,-963.490,-8.020
429,82655.356000,443.799,267.065,195.237,476.246,-111.351,-58.732,-555.040,-2086.490,-152.020
430,82655.398000,512.988,-163.458,65.743,464.474,-120.073,-97.196,896.960,-2683.490,347.980
431,82655.438000,359.784,32.692,-51.798,447.728,-141.592,-141.839,2522.960,-2406.490,-164.020
432,82655.478000,313.328,-111.151,-151.409,437.934,-148.115,-169.463,1907.960,-2140.490,-884.020
433,82655.518000,152.216,-63.874,96.623,435.302,-118.262,-178.612,992.960,-534.490,-2544.020
434,82655.557000,73.143,-2.515,51.798,448.562,-52.596,-154.572,995.960,711.510,-3397.020
435,82655.597000,84.015,-73.933,-71.720,460.054,25.220,-106.729,1306.960,1829.510,-3785.020
436,82655.617000,118.610,-179.552,-123.518,455.967,90.480,-49.391,2303.960,2630.510,-3733.020
437,82655.657000,167.042,-218.782,-255.004,442.937,138.416,-25.800,5590.960,2795.510,-3429.020
438,82655.697000,272.803,-262.035,-213.167,414.334,182.664,-30.762,8213.960,2007.510,-3009.020
439,82655.736000,197.683,-260.024,-154.397,386.534,215.659,-62.450,5920.960,1047.510,-2527.020
440,82655.781000,336.062,-439.073,-106.584,373.952,222.526,-97.628,3815.960,444.510,-825.020
441,82655.821000,326.178,-114.169,-230.101,381.675,221.566,-100.575,675.960,420.510,264.980
442,82655.861000,259.954,157.422,-103.595,391.386,223.775,-92.660,794.960,796.510,146.980
443,82655.901000,273.792,30.680,-59.767,392.420,231.465,-96.410,976.960,1011.510,120.980
444,82655.941000,278.734,-25.650,-24.903,399.114,222.858,-93.645,290.960,1033.510,295.980
445,82655.961000,288.618,-13.580,-20.918,398.137,220.993,-89.765,177.960,855.510,187.980
446,82656.1000,268.849,-8.550,-28.887,406.838,218.381,-79.998,298.960,694.510,89.980
447,82656.41000,235.243,14.585,-41.837,416.410,205.164,-67.523,332.960,578.510,111.980
448,82656.81000,310.363,22.633,-9.961,422.247,207.291,-61.580,306.960,493.510,41.980
449,82656.118000,247.104,-10.562,-33.868,427.161,213.358,-52.609,242.960,390.510,88.980
450,82656.160000,241.174,11.568,-35.860,429.058,209.493,-52.690,290.960,419.510,49.980
451,82656.201000,257.977,5.532,-9.961,436.994,230.820,-57.104,235.960,257.510,88.980
452,82656.238000,245.127,-28.668,-16.934,450.358,313.336,-61.128,181.960,97.510,52.980
453,82656.278000,248.093,-14.585,-21.914,386.292,261.344,73.895,237.960,-48.490,-0.020
454,82656.296000,250.069,6.538,-19.922,391.150,180.129,-3.408,459.960,-64.490,39.980
455,82656.337000,252.046,-1.509,-28.887,406.686,190.506,-23.739,278.960,-74.490,24.980
456,82656.383000,252.046,-20.621,-17.930,411.551,194.350,-27.566,186.960,-96.490,-19.020
457,82656.420000,254.023,-7.544,-22.911,413.496,195.340,-27.540,164.960,-90.490,-129.020
458,82656.457000,256.988,-26.656,-19.922,412.534,197.143,-33.386,120.960,-123.490,-255.020
459,82656.498000,268.849,18.609,-5.977,410.722,211.515,-40.916,164.960,-219.490,-410.020
460,82656.538000,296.525,59.851,-2.988,408.885,222.995,-47.530,-729.040,-614.490,-540.020
461,82656.578000,401.297,46.774,72.716,400.251,231.540,-52.262,-830.040,-730.490,-386.020
462,82656.598000,280.710,3.521,16.934,398.279,228.522,-56.256,-508.040,-496.490,-16.020
463,82656.638000,192.741,1.509,-94.630,395.316,222.626,-58.354,-869.040,-655.490,367.980
464,82656.678000,138.378,-126.240,-24.903,398.079,208.113,-57.690,-429.040,-171.490,661.980
465,82656.718000,127.506,-56.833,-22.911,410.561,196.757,-50.070,861.960,799.510,764.980
466,82656.758000,156.170,-41.745,-89.650,421.162,186.786,-22.811,-340.040,1080.510,591.980
467,82656.798000,280.710,70.916,-246.039,433.722,177.070,15.246,-2379.040,687.510,794.980
468,82656.838000,286.641,178.546,-33.868,433.781,177.631,40.756,-2597.040,107.510,6.980
469,82656.882000,350.888,55.827,29.883,430.088,196.902,36.272,1724.960,137.510,-303.020
470,82656.921000,251.058,114.169,-44.825,432.961,194.881,31.330,402.960,303.510,-10.020
471,82656.941000,255.012,41.745,-45.821,432.925,190.135,36.128,128.960,126.510,214.980
472,82656.981000,259.954,-27.662,-15.938,431.964,189.305,42.972,-644.040,122.510,207.980
473,82657.20000,244.139,-59.851,2.988,429.916,177.636,42.709,-695.040,-18.490,79.980
474,82657.60000,249.081,-50.798,15.938,420.165,168.890,46.417,-633.040,-148.490,66.980
475,82657.106000,254.023,-67.898,18.926,418.257,168.246,62.089,-251.040,-393.490,189.980
476,82657.141000,256.988,-29.674,-8.965,430.960,184.549,47.768,-62.040,-694.490,256.980
477,82657.178000,268.849,-29.674,-33.868,436.703,181.370,33.000,-643.040,-641.490,250.980
478,82657.220000,283.676,-48.786,-12.949,444.261,163.862,27.724,-2029.040,-480.490,343.980
479,82657.240000,253.035,-28.668,-53.790,444.138,149.471,35.249,-2884.040,-419.490,378.980
480,82657.280000,280.710,-0.503,-47.813,448.924,140.220,53.687,-3466.040,-213.490,267.980
481,82657.320000,425.019,83.992,42.833,451.693,124.002,65.100,-3844.040,-155.490,286.980
482,82657.358000,451.707,92.039,42.833,453.275,85.424,75.035,-5363.040,-248.490,802.980
483,82657.398000,265.884,-116.181,-135.471,449.995,45.676,78.068,-5645.040,-152.490,1351.980
484,82657.440000,126.517,-39.733,-101.603,452.530,8.725,73.331,-5254.040,25.510,1567.980
485,82657.478000,43.490,9.556,-100.607,441.500,-30.321,67.538,-4301.040,154.510,1347.980
486,82657.520000,-41.514,76.951,35.860,434.463,-58.456,70.821,-2257.040,811.510,1068.980
487,82657.560000,386.471,68.904,-402.428,424.548,-88.151,92.696,-2256.040,1110.510,399.980
488,82657.580000,366.703,155.411,76.700,422.649,-88.709,112.293,43.960,1049.510,-444.020
489,82657.620000,464.556,72.927,-49.805,432.464,-76.705,124.348,-25.040,248.510,-621.020
490,82657.666000,352.865,-161.446,-492.078,445.049,-68.578,91.212,566.960,-1423.490,-169.020
491,82657.701000,195.707,-98.075,-356.607,453.621,-74.189,52.860,-790.040,-2987.490,62.980
492,82657.757000,77.097,-64.880,-182.288,462.228,-68.020,-23.476,-948.040,-3196.490,51.980
493,82657.778000,66.224,-35.709,-83.673,461.092,-70.532,-93.162,-772.040,-2605.490,161.980
494,82657.818000,143.320,-42.750,-48.809,451.360,-64.131,-150.899,-865.040,-1916.490,181.980
495,82657.860000,217.452,-42.750,-11.953,448.414,-61.937,-182.238,-482.040,-1167.490,389.980
496,82657.885000,256.000,-58.845,-13.946,449.295,-68.918,-191.217,100.960,-61.490,558.980
497,82657.920000,310.363,-58.845,-7.969,449.169,-84.215,-180.769,833.960,651.510,594.980
498,82657.958000,325.189,-41.745,57.774,459.648,-106.808,-153.790,299.960,1448.510,599.980
499,82658.0,451.707,15.591,-135.471,467.482,-104.057,-120.370,-1909.040,1653.510,549.980
500,82658.41000,307.398,165.470,-55.782,473.304,-106.482,-100.798,-560.040,1231.510,556.980
501,82658.83000,282.687,35.709,-65.743,478.119,-115.453,-69.606,488.960,1110.510,276.980
502,82658.118000,261.931,-72.927,-53.790,479.079,-121.679,-44.245,0.960,1092.510,199.980
503,82658.161000,256.000,-49.792,-51.798,476.160,-128.029,-22.818,-592.040,967.510,137.980
504,82658.207000,258.965,-6.538,-41.837,478.143,-124.903,-13.918,-631.040,769.510,46.980
505,82658.221000,257.977,-15.591,-29.883,475.197,-131.512,-4.264,-588.040,395.510,5.980
506,82658.263000,259.954,-31.686,-24.903,477.158,-128.602,-5.176,-459.040,122.510,-27.020
507,82658.298000,256.988,-4.527,-15.938,481.102,-119.934,-9.879,-460.040,-284.490,-21.020
508,82658.342000,280.710,19.615,7.969,479.126,-121.226,-23.641,-186.040,-684.490,-56.020
509,82658.381000,366.703,129.257,133.479,473.266,-120.053,-55.989,-42.040,-1429.490,-120.020
510,82658.418000,446.764,263.041,208.187,470.252,-123.792,-92.363,-589.040,-2335.490,-313.020
511,82658.460000,512.988,-135.293,22.911,447.971,-112.854,-158.852,2092.960,-3125.490,-553.020
512,82658.501000,398.332,-109.139,5.977,429.391,-125.503,-196.437,3584.960,-2523.490,-1005.020
513,82658.521000,274.780,-158.428,-177.307,421.501,-140.228,-200.703,4976.960,-1707.490,-2154.020
514,82658.560000,113.668,-3.521,108.576,426.513,-125.294,-185.651,3636.960,-886.490,-3406.020
515,82658.598000,61.282,-52.809,51.798,439.857,-49.142,-170.204,1737.960,51.510,-4196.020
516,82658.638000,94.888,-145.352,-88.654,445.685,45.812,-134.741,975.960,1429.510,-4703.020
517,82658.678000,122.564,-197.658,-114.553,444.344,101.672,-108.988,1635.960,2171.510,-4560.020
518,82658.718000,163.089,-302.271,-218.148,417.983,170.900,-82.010,5614.960,2294.510,-3823.020
519,82658.762000,283.676,-330.436,-158.381,395.984,200.392,-99.053,7099.960,1900.510,-3242.020
520,82658.802000,223.382,-228.841,-218.148,372.830,213.111,-128.240,5341.960,1006.510,-2321.020
521,82658.841000,149.251,-332.448,-191.253,365.039,213.424,-154.727,3830.960,743.510,-1041.020
522,82658.861000,218.440,-157.422,-128.498,373.640,203.692,-159.828,1109.960,868.510,259.980
523,82658.902000,249.081,196.652,-85.665,385.300,206.933,-149.925,-327.040,1148.510,265.980
524,82658.943000,296.525,41.745,-54.786,390.162,207.218,-139.121,723.960,1425.510,-84.020
525,82658.983000,323.212,-20.621,12.949,396.873,197.014,-120.701,32.960,1261.510,-42.020
526,82659.23000,279.722,38.727,-29.883,401.845,206.274,-98.910,151.960,1025.510,35.980
527,82659.68000,281.699,-39.733,-4.981,410.555,204.632,-89.122,612.960,882.510,59.980
528,82659.103000,275.768,3.521,-14.942,418.268,199.163,-76.478,650.960,941.510,-118.020
529,82659.148000,252.046,5.532,-43.829,419.261,201.179,-73.489,497.960,580.510,-73.020
530,82659.163000,243.151,-18.609,-18.926,427.037,203.369,-65.579,370.960,533.510,-52.020
531,82659.203000,244.139,1.509,-3.984,425.112,204.321,-65.562,495.960,453.510,-12.020
532,82659.243000,256.988,17.603,-8.965,433.922,219.486,-85.801,182.960,291.510,16.980
533,82659.288000,248.093,-19.615,5.977,441.877,354.158,-142.615,325.960,145.510,19.980
534,82659.322000,249.081,28.668,-12.949,368.728,252.695,41.304,67.960,52.510,-17.020
535,82659.360000,253.035,6.538,-7.969,401.831,187.654,-18.909,10.960,62.510,55.980
536,82659.401000,253.035,-18.609,0.996,419.310,197.252,-31.408,-65.040,58.510,-15.020
537,82659.446000,250.069,-5.532,0.996,415.476,200.192,-28.409,18.960,-8.490,-60.020
538,82659.485000,249.081,-3.521,4.981,416.514,207.925,-30.196,-52.040,-65.490,-131.020
539,82659.505000,260.942,-19.615,-16.934,419.391,205.947,-33.176,-37.040,-64.490,-198.020
540,82659.540000,279.722,-7.544,-6.973,415.596,213.676,-33.013,-186.040,-153.490,-303.020
541,82659.581000,262.919,18.609,60.763,416.638,223.200,-41.625,-436.040,-501.490,-315.020
542,82659.622000,375.598,87.010,93.634,415.684,224.204,-39.643,-1352.040,-843.490,-13.020
543,82659.662000,278.734,-72.927,64.747,416.578,216.469,-38.833,-2491.040,-949.490,407.980
544,82659.702000,167.042,23.639,-49.805,422.366,213.720,-33.978,-2363.040,-651.490,748.980
545,82659.742000,118.610,43.756,0.996,430.890,191.799,-19.737,-1752.040,-9.490,817.980
546,82659.782000,97.853,9.556,25.899,435.731,186.603,6.636,-632.040,756.510,588.980
547,82659.822000,197.683,-41.745,-154.397,434.776,179.668,44.726,-1283.040,1011.510,267.980
548,82659.842000,343.969,-31.686,-96.623,441.556,177.167,60.375,-2040.040,-210.490,169.980
549,82659.886000,317.282,156.417,-86.661,439.641,180.859,52.608,1099.960,-233.490,-308.020
550,82659.921000,277.745,-38.727,-20.918,437.758,187.506,46.867,1145.960,-77.490,-22.020
551,82659.960000,275.768,52.809,-68.732,433.915,191.244,42.039,57.960,-109.490,125.980
552,82660.3000,253.035,28.668,-55.782,437.794,191.368,45.973,-300.040,188.510,219.980
553,82660.47000,258.965,-28.668,-20.918,435.799,183.734,52.663,-653.040,232.510,72.980
554,82660.87000,249.081,-54.821,12.949,432.764,169.229,56.258,-495.040,46.510,40.980
555,82660.122000,253.035,-69.910,28.887,424.874,152.735,59.798,-47.040,-283.490,153.980
556,82660.143000,269.838,53.815,0.000,432.904,180.253,72.193,-658.040,-502.490,301.980
557,82660.180000,308.386,-63.874,33.868,442.495,173.379,64.216,-1888.040,-476.490,571.980
558,82660.226000,257.977,-54.821,-6.973,453.868,148.336,67.606,-3784.040,-468.490,744.980
559,82660.261000,252.046,-15.591,-34.864,456.472,115.570,76.691,-4310.040,-390.490,806.980
560,82660.306000,197.683,21.627,-121.525,461.938,78.044,88.618,-4330.040,-86.490,603.980
561,82660.342000,255.012,-44.762,-62.755,463.707,58.861,98.003,-3526.040,205.510,263.980
562,82660.386000,397.344,28.668,35.860,459.688,41.542,106.436,-3812.040,128.510,152.980
563,82660.428000,330.131,12.574,-7.969,459.399,13.236,98.943,-4170.040,72.510,437.980
564,82660.463000,258.965,-26.656,-51.798,453.410,-5.311,96.557,-3710.040,68.510,719.980
565,82660.485000,167.042,-14.585,-192.249,450.193,-35.651,86.070,-3094.040,74.510,716.980
566,82660.525000,145.297,-49.792,-203.206,441.257,-56.426,71.861,-2115.040,-194.490,665.980
567,82660.564000,51.398,-41.745,-100.607,435.333,-67.313,64.742,-740.040,-23.490,589.980
568,82660.603000,-62.270,13.580,25.899,432.311,-82.574,78.126,294.960,696.510,611.980
569,82660.647000,512.988,137.305,-140.451,425.503,-92.672,107.308,-421.040,1209.510,-43.020
570,82660.682000,512.988,274.106,157.385,425.604,-85.531,123.157,979.960,992.510,-374.020
571,82660.723000,352.865,10.562,-24.903,426.618,-83.321,134.976,-895.040,511.510,-367.020
572,82660.763000,298.502,-196.652,-492.078,431.472,-79.584,126.243,-556.040,-932.490,-13.020
573,82660.783000,241.174,-183.576,-492.078,443.920,-82.460,78.153,12.960,-2388.490,356.980
574,82660.823000,106.749,-77.957,-297.837,451.429,-92.525,14.203,-78.040,-3057.490,437.980
575,82660.863000,84.015,-43.756,-183.284,451.156,-104.822,-59.620,-596.040,-3191.490,356.980
576,82660.903000,74.131,-7.544,-105.588,447.188,-100.523,-127.199,-376.040,-2751.490,170.980
577,82660.942000,127.506,-27.662,-32.872,438.325,-109.151,-162.713,147.960,-2095.490,218.980
578,82660.982000,188.788,17.603,24.903,432.415,-113.738,-192.247,726.960,-640.490,354.980
579,82661.22000,247.104,-32.692,74.708,438.134,-123.304,-188.525,399.960,523.510,313.980
580,82661.62000,304.432,-61.862,38.848,453.598,-131.222,-158.267,237.960,1892.510,243.980
581,82661.105000,512.988,-89.022,-357.603,465.297,-130.246,-118.995,-423.040,1554.510,246.980
582,82661.125000,426.008,-73.933,-326.724,474.128,-124.574,-85.508,-791.040,1614.510,318.980
583,82661.171000,322.224,50.798,-7.969,480.930,-127.744,-56.144,345.960,1225.510,222.980
584,82661.206000,288.618,-32.692,-40.840,477.049,-132.291,-40.562,-63.040,977.510,131.980
585,82661.248000,248.093,-47.780,-54.786,478.066,-130.923,-22.878,-320.040,743.510,74.980
586,82661.285000,259.954,-34.703,-43.829,477.050,-138.440,-11.279,-419.040,580.510,119.980
587,82661.327000,252.046,-27.662,-45.821,475.136,-138.265,-2.453,-331.040,265.510,141.980
588,82661.368000,236.232,-23.639,-52.794,476.105,-138.234,-1.470,-204.040,44.510,164.980
589,82661.405000,238.208,-42.750,-62.755,475.129,-138.330,-5.397,34.960,-165.490,106.980
590,82661.425000,285.652,-15.591,-20.918,477.038,-140.317,-8.379,-74.040,-333.490,35.980
591,82661.465000,344.958,95.057,88.654,477.016,-139.648,-22.093,-267.040,-879.490,-11.020
592,82661.506000,412.170,258.012,143.440,471.096,-143.459,-60.436,-527.040,-1785.490,-92.020
593,82661.545000,512.988,-121.210,138.459,449.639,-148.844,-119.440,4.960,-2774.490,248.980
594,82661.592000,483.336,-81.980,62.755,431.987,-165.388,-158.091,2162.960,-2350.490,20.980
595,82661.626000,404.263,-76.951,-183.284,415.473,-165.311,-191.466,1472.960,-2248.490,-703.020
596,82661.662000,163.089,-32.692,172.327,421.598,-129.613,-203.410,311.960,-592.490,-2349.020
597,82661.706000,128.494,8.550,9.961,438.476,-87.447,-190.670,932.960,812.510,-3462.020
598,82661.742000,103.784,-160.440,-24.903,461.597,-8.461,-138.854,1737.960,2210.510,-3880.020
599,82661.762000,163.089,-176.534,-126.506,467.204,57.087,-72.664,2681.960,2986.510,-3740.020
600,82661.806000,194.718,-221.800,-271.938,449.649,129.982,-15.185,3940.960,2937.510,-3353.020
601,82661.846000,239.197,-231.859,-285.883,421.174,184.261,-5.215,6518.960,2502.510,-2860.020
602,82661.886000,224.371,-270.083,-183.284,392.442,221.109,-37.800,7888.960,1732.510,-2481.020
603,82661.926000,366.703,-506.468,-142.444,373.084,229.637,-82.762,5171.960,362.510,-1353.020
604,82661.967000,457.637,-214.758,-113.556,378.838,226.565,-92.624,2004.960,505.510,193.980
605,82662.2000,256.988,134.287,-88.654,386.658,231.818,-77.781,-135.040,541.510,389.980
606,82662.48000,271.815,11.568,-58.770,391.434,225.112,-75.959,1199.960,866.510,306.980
607,82662.65000,268.849,-7.544,-45.821,399.130,218.607,-66.280,-166.040,846.510,408.980
608,82662.106000,262.919,8.550,-46.817,403.032,220.716,-60.341,283.960,779.510,283.980
609,82662.146000,268.849,-19.615,-28.887,407.873,219.922,-54.465,285.960,663.510,189.980
610,82662.182000,235.243,-4.527,-38.848,411.698,215.127,-53.583,284.960,544.510,171.980
611,82662.225000,240.185,18.609,-49.805,420.397,212.493,-44.797,223.960,514.510,216.980
612,82662.263000,274.780,-11.568,-13.946,429.098,209.881,-35.030,115.960,541.510,196.980
613,82662.305000,263.907,58.845,-11.953,429.980,198.499,-23.513,45.960,463.510,179.980
614,82662.342000,254.023,-19.615,-9.961,430.047,204.432,-18.478,-20.040,253.510,284.980
615,82662.382000,264.896,-8.550,-14.942,436.012,220.994,-18.097,26.960,463.510,155.980
616,82662.403000,246.116,-14.585,-28.887,429.965,287.744,19.656,-7.040,300.510,82.980
617,82662.448000,249.081,-6.538,-32.872,385.253,249.209,96.179,-182.040,227.510,73.980
618,82662.483000,250.069,-12.574,-20.918,388.962,144.231,41.881,-89.040,233.510,88.980
619,82662.523000,250.069,-9.556,0.996,406.508,162.394,21.728,-114.040,115.510,57.980
620,82662.563000,254.023,-24.644,-15.938,419.136,166.529,27.730,-20.040,-27.490,80.980
621,82662.603000,262.919,-24.644,-10.957,421.128,172.373,27.864,64.960,3.510,50.980
622,82662.643000,260.942,-32.692,16.934,420.138,168.631,34.643,42.960,86.510,11.980
623,82662.683000,258.965,-30.680,8.965,419.230,174.469,35.752,-21.040,183.510,-27.020
624,82662.703000,269.838,-34.703,4.981,424.961,166.780,36.574,-218.040,132.510,-65.020
625,82662.743000,298.502,-6.538,59.767,422.156,177.366,33.861,-90.040,-383.490,-269.020
626,82662.783000,341.992,-0.503,98.615,423.127,180.936,19.232,533.960,-593.490,-201.020
627,82662.823000,220.417,-40.739,-27.891,423.063,177.678,3.469,-154.040,-588.490,-33.020
628,82662.863000,187.799,-77.957,-50.802,417.203,173.566,-4.480,-218.040,-628.490,78.980
629,82662.905000,137.390,-63.874,-38.848,421.960,166.687,-10.506,465.960,-57.490,46.980
630,82662.945000,135.413,-32.692,-2.988,417.142,167.697,-6.571,513.960,442.510,-10.020
631,82662.985000,193.730,-75.945,-122.521,423.038,173.040,13.173,-689.040,561.510,25.980
632,82663.25000,291.583,104.110,-40.840,424.072,176.328,29.919,-1928.040,-175.490,3.980
633,82663.46000,371.645,108.134,-17.930,422.156,178.251,29.958,530.960,-85.490,-231.020
634,82663.87000,259.954,0.503,-22.911,419.246,179.906,18.220,915.960,-85.490,50.980
635,82663.126000,262.919,28.668,-43.829,420.296,188.631,17.436,153.960,-183.490,58.980
636,82663.163000,262.919,28.668,-32.872,419.270,182.775,16.323,-217.040,-32.490,116.980
637,82663.203000,260.942,-27.662,0.996,420.178,176.938,15.215,-561.040,-139.490,108.980
638,82663.246000,250.069,-82.986,0.996,413.345,171.888,9.204,18.960,-199.490,64.980
639,82663.283000,257.977,-1.509,-4.981,405.455,155.394,12.744,362.960,-372.490,-18.020
640,82663.323000,282.687,11.568,-8.965,410.580,185.495,11.462,-123.040,-574.490,104.980
641,82663.343000,292.571,32.692,-33.868,422.148,185.220,-6.172,-877.040,-605.490,241.980
642,82663.383000,276.757,-41.745,-33.868,425.870,169.745,-5.527,-1541.040,-543.490,377.980
643,82663.423000,237.220,-54.821,-51.798,430.628,160.235,1.137,-3526.040,-349.490,701.980
644,82663.463000,203.614,-51.804,-97.619,433.446,147.124,21.445,-4223.040,-107.490,634.980
645,82663.505000,272.803,-33.697,-53.790,435.225,125.395,47.445,-4059.040,106.510,296.980
646,82663.545000,360.772,17.603,11.953,440.003,114.310,70.745,-4601.040,165.510,338.980
647,82663.588000,299.490,-9.556,-28.887,442.645,82.796,92.606,-5193.040,191.510,821.980
648,82663.631000,230.301,-46.774,-53.790,444.167,39.233,96.546,-5112.040,142.510,1170.980
649,82663.666000,185.822,-44.762,-184.280,438.835,-11.342,93.450,-4157.040,-144.490,1227.980
650,82663.687000,83.027,10.562,-98.615,439.601,-29.995,83.231,-2575.040,-315.490,1092.980
651,82663.728000,-10.873,10.562,6.973,434.404,-65.187,73.613,-1558.040,-8.490,873.980
652,82663.768000,151.228,149.375,195.237,428.555,-74.478,94.969,-306.040,1517.510,367.980
653,82663.808000,489.266,257.006,131.486,427.592,-78.845,117.426,287.960,995.510,-304.020
654,82663.848000,395.367,66.892,47.813,428.601,-76.678,127.282,-806.040,644.510,-345.020
655,82663.892000,223.382,-114.169,-343.658,431.522,-74.708,127.332,-739.040,113.510,-366.020
656,82663.929000,209.544,-108.134,-492.078,441.182,-66.825,84.379,-505.040,-2094.490,-75.020
657,82663.964000,106.749,-23.639,-312.778,447.808,-72.563,41.116,663.960,-3024.490,-186.020
658,82664.6000,69.189,-4.527,-237.074,456.429,-66.264,-29.334,597.960,-3207.490,-113.020
659,82664.27000,58.317,20.621,-100.607,459.204,-65.696,-93.058,77.960,-2821.490,-143.020
660,82664.70000,101.807,15.591,-54.786,453.302,-64.048,-147.951,23.960,-1888.490,-73.020
661,82664.106000,186.811,9.556,-27.891,447.460,-60.933,-180.256,141.960,-933.490,157.980
662,82664.147000,272.803,-31.686,-12.949,448.369,-66.770,-181.364,77.960,76.510,287.980
663,82664.186000,324.201,-62.868,76.700,452.202,-73.248,-168.752,420.960,1199.510,557.980
664,82664.230000,509.035,-2.515,-94.630,466.768,-76.106,-128.577,-53.040,1789.510,501.980
665,82664.267000,449.730,23.639,-68.732,471.655,-79.101,-90.388,-1179.040,1735.510,446.980
666,82664.307000,298.502,117.187,-46.817,473.575,-87.151,-60.162,-397.040,1320.510,440.980
667,82664.327000,302.456,12.574,-23.907,476.481,-93.250,-29.890,281.960,1111.510,276.980
668,82664.366000,251.058,-100.086,-42.833,478.437,-95.669,-8.365,-300.040,915.510,200.980
669,82664.408000,253.035,-31.686,-60.763,476.414,-107.101,2.164,-873.040,682.510,163.980
670,82664.445000,261.931,-23.639,-33.868,476.507,-100.047,14.089,-599.040,537.510,84.980
671,82664.486000,259.954,-23.639,-28.887,475.471,-107.758,16.857,-631.040,306.510,34.980
672,82664.531000,256.000,-20.621,-24.903,473.494,-111.704,14.804,-664.040,-61.490,20.980
673,82664.566000,259.954,-8.550,-2.988,475.362,-115.849,1.967,-654.040,-435.490,31.980
674,82664.606000,308.386,54.821,65.743,472.481,-107.743,-25.317,-361.040,-1079.490,-49.020
675,82664.646000,415.135,250.971,198.226,468.470,-112.656,-70.545,-320.040,-1914.490,-135.020
676,82664.667000,512.988,-220.794,74.708,448.905,-120.202,-140.381,776.960,-2986.490,251.980
677,82664.707000,434.903,-72.927,-13.946,437.101,-134.511,-168.182,2486.960,-2797.490,-199.020
678,82664.746000,330.131,-182.570,-151.409,422.434,-144.943,-194.922,3380.960,-2246.490,-1246.020
679,82664.787000,201.637,-140.322,-25.899,424.570,-122.746,-201.290,2723.960,-1256.490,-2519.020
680,82664.828000,64.247,-19.615,54.786,435.751,-69.935,-187.345,1659.960,160.510,-3808.020
681,82664.870000,71.166,-104.110,-8.965,449.097,2.722,-154.323,1738.960,1294.510,-4262.020
682,82664.908000,65.236,-136.299,-106.584,445.177,88.068,-110.269,2114.960,2009.510,-4366.020
683,82664.947000,148.263,-245.941,-173.323,435.915,125.384,-85.924,3889.960,2401.510,-4098.020
684,82664.967000,202.625,-286.177,-212.171,405.585,188.339,-77.726,6537.960,2157.510,-3669.020
685,82665.7000,244.139,-294.224,-298.833,381.558,210.757,-106.699,6509.960,1305.510,-2895.020
686,82665.44000,376.587,-436.055,-293.852,361.213,215.565,-143.900,4376.960,226.510,-1789.020
687,82665.90000,230.301,-173.517,-188.265,361.012,198.672,-161.927,1553.960,583.510,-214.020
688,82665.128000,271.815,90.028,-105.588,362.097,210.375,-159.704,430.960,599.510,197.980
689,82665.167000,277.745,114.169,-82.677,376.620,211.509,-158.668,812.960,1008.510,132.980
690,82665.208000,263.907,-5.532,-65.743,379.454,203.835,-155.890,-263.040,1082.510,278.980
691,82665.249000,278.734,-21.627,-39.844,389.152,202.397,-137.269,-134.040,1092.510,325.980
692,82665.286000,259.954,-3.521,-40.840,395.865,191.331,-113.965,23.960,922.510,87.980
693,82665.305000,246.116,13.580,-54.786,399.766,190.786,-96.316,73.960,832.510,65.980
694,82665.345000,298.502,-27.662,11.953,408.487,188.368,-77.719,-28.040,923.510,146.980
695,82665.385000,257.977,-22.633,-14.942,416.320,195.498,-65.776,-19.040,957.510,46.980
696,82665.428000,227.336,-67.898,-13.946,418.235,191.806,-58.009,241.960,696.510,26.980
697,82665.467000,283.676,48.786,-17.930,423.261,212.155,-61.469,63.960,565.510,-0.020
698,82665.508000,241.174,13.580,-9.961,427.839,286.777,-67.649,18.960,268.510,35.980
699,82665.546000,254.023,-0.503,-23.907,368.639,240.398,55.741,-216.040,208.510,41.980
700,82665.592000,256.988,2.515,-7.969,390.990,163.624,-3.775,-2.040,170.510,51.980
701,82665.608000,249.081,-4.527,5.977,405.554,171.317,-13.380,-56.040,62.510,40.980
702,82665.646000,246.116,20.621,13.946,409.461,174.353,-9.382,-269.040,-22.490,51.980
703,82665.686000,256.000,-31.686,18.926,413.373,178.317,-7.324,-356.040,-60.490,11.980
704,82665.731000,257.977,-64.880,14.942,415.341,181.292,-5.293,-217.040,-62.490,-14.020
705,82665.766000,256.000,-46.774,25.899,417.288,184.073,-12.092,-90.040,-379.490,-111.020
706,82665.806000,341.992,-24.644,80.685,412.481,189.592,-23.747,-266.040,-907.490,-270.020
707,82665.846000,400.309,-23.639,104.591,409.489,184.299,-42.504,79.960,-937.490,-168.020
708,82665.886000,285.652,2.515,-4.981,407.567,188.811,-57.117,-519.040,-816.490,-126.020
709,82665.926000,164.077,-113.163,-98.615,406.614,191.585,-62.942,-46.040,-413.490,228.980
710,82665.946000,87.969,-10.562,-31.875,410.371,179.088,-59.289,-503.040,97.510,234.980
711,82665.986000,140.355,-50.798,-20.918,414.253,176.601,-41.684,269.960,750.510,308.980
712,82666.26000,208.556,-123.222,-181.292,422.060,179.093,-20.037,-300.040,849.510,313.980
713,82666.66000,247.104,229.847,28.887,426.817,166.044,2.238,-1218.040,62.510,336.980
714,82666.109000,344.958,136.299,-111.564,422.145,183.429,0.653,1150.960,-74.490,-311.020
715,82666.147000,319.259,-107.128,31.875,421.249,192.028,-5.042,1378.960,131.510,-88.020
716,82666.187000,306.409,80.974,-34.864,421.214,188.166,-4.147,39.960,-20.490,-72.020
717,82666.228000,257.977,46.774,-29.883,422.186,189.103,-6.086,220.960,95.510,52.980
718,82666.246000,252.046,-18.609,-8.965,421.190,185.297,-2.250,-460.040,56.510,54.980
719,82666.290000,245.127,-64.880,10.957,417.269,180.362,-4.329,-418.040,-103.490,107.980
720,82666.326000,265.884,-2.515,4.981,407.466,165.834,1.212,-68.040,-345.490,1.980
721,82666.366000,272.803,-11.568,18.926,411.592,191.222,6.688,-232.040,-582.490,17.980
722,82666.410000,284.664,7.544,-11.953,424.155,193.847,-11.860,-477.040,-654.490,149.980
723,82666.447000,258.965,-17.603,-55.782,426.024,188.839,-19.813,-1319.040,-544.490,273.980
724,82666.492000,256.000,-96.063,-31.875,427.876,178.373,-11.215,-2440.040,-387.490,307.980
725,82666.531000,200.649,-90.028,-66.739,432.657,168.193,9.163,-4167.040,-146.490,379.980
726,82666.567000,320.247,-9.556,12.949,439.517,169.985,43.540,-4646.040,13.510,341.980
727,82666.602000,456.649,70.916,88.654,447.005,136.835,77.143,-5707.040,-183.490,572.980
728,82666.631000,377.575,6.538,50.802,447.572,91.624,94.774,-6631.040,-256.490,1039.980
729,82666.668000,228.324,-113.163,-60.763,450.911,35.502,100.400,-6028.040,-237.490,1694.980
730,82666.709000,120.587,-36.715,-236.078,449.516,-5.586,85.755,-4190.040,-609.490,1599.980
731,82666.752000,-42.502,33.697,-73.712,443.311,-44.692,75.068,-1239.040,-164.490,1418.980
732,82666.792000,191.753,242.923,226.117,440.189,-68.841,81.390,-1395.040,699.510,708.980
733,82666.828000,512.988,172.511,45.821,436.219,-85.686,111.408,-1016.040,1072.510,101.980
734,82666.868000,437.869,26.656,34.864,434.467,-69.869,125.485,376.960,655.510,-455.020
735,82666.908000,276.757,-54.821,-319.751,446.178,-58.213,120.865,-295.040,-324.490,-414.020
736,82666.930000,221.405,-68.904,-492.078,458.702,-51.553,65.141,-141.040,-2579.490,-359.020
737,82666.973000,88.958,28.668,-320.747,466.409,-44.746,18.237,724.960,-3285.490,-496.020
738,82667.8000,38.548,42.750,-150.412,469.240,-35.721,-58.049,745.960,-3206.490,-392.020
739,82667.48000,64.247,19.615,-47.813,463.377,-26.651,-128.467,306.960,-2633.490,-419.020
740,82667.88000,138.378,30.680,22.911,451.778,-15.221,-177.271,378.960,-1698.490,-206.020
741,82667.127000,256.000,-63.874,-9.961,450.824,-10.700,-191.883,200.960,-263.490,60.980
742,82667.169000,314.317,-76.951,-7.969,454.536,-31.547,-170.763,1061.960,658.510,406.980
743,82667.216000,346.934,-75.945,56.778,463.180,-46.155,-132.823,1461.960,1741.510,676.980
744,82667.231000,508.046,8.550,-154.397,470.900,-53.307,-108.449,-1399.040,1524.510,220.980
745,82667.271000,335.073,1.509,-156.389,477.703,-57.340,-74.201,-903.040,1528.510,429.980
746,82667.313000,312.340,83.992,-44.825,477.735,-60.555,-43.872,125.960,1166.510,271.980
747,82667.348000,289.606,-40.739,-32.872,482.636,-59.904,-16.389,244.960,981.510,210.980
748,82667.387000,239.197,-29.674,-61.759,482.592,-67.369,-2.825,-452.040,787.510,252.980
749,82667.431000,240.185,-36.715,-65.743,476.766,-72.905,12.730,-396.040,551.510,184.980
750,82667.468000,250.069,-41.745,-46.817,476.733,-77.630,18.509,-340.040,380.510,130.980
751,82667.510000,251.058,-36.715,-46.817,480.578,-81.347,24.319,-349.040,178.510,121.980
752,82667.553000,250.069,-29.674,-48.809,479.648,-77.473,24.403,-85.040,-49.490,66.980
753,82667.569000,267.861,-32.692,-24.903,478.639,-80.524,18.449,-148.040,-249.490,23.980
754,82667.613000,286.641,17.603,10.957,477.589,-85.733,2.641,-374.040,-634.490,-18.020
755,82667.648000,353.853,143.340,119.533,477.573,-81.483,-24.724,-133.040,-1130.490,-12.020
756,82667.693000,432.927,230.853,134.475,472.594,-83.773,-82.644,-795.040,-2370.490,-32.020
757,82667.734000,512.988,-158.428,153.401,461.810,-89.637,-123.985,1198.960,-2650.490,234.980
758,82667.769000,402.286,-1.509,-72.716,443.213,-101.574,-173.322,1827.960,-2321.490,-502.020
759,82667.809000,272.803,-89.022,-43.829,433.440,-106.134,-199.922,2052.960,-1789.490,-1390.020
760,82667.851000,77.097,20.621,59.767,439.582,-70.264,-204.016,1659.960,-322.490,-2811.020
761,82667.872000,85.004,5.532,4.981,451.886,-4.499,-175.072,1416.960,732.510,-3515.020
762,82667.912000,90.934,-62.868,-89.650,449.804,71.136,-132.209,1409.960,1705.510,-3915.020
763,82667.952000,129.483,-197.658,-156.389,439.916,139.014,-85.613,1519.960,2398.510,-3822.020
764,82667.992000,145.297,-226.829,-227.113,421.936,176.137,-66.194,3807.960,2598.510,-3508.020
765,82668.32000,228.324,-277.124,-234.086,391.283,208.694,-72.401,6540.960,2004.510,-2812.020
766,82668.72000,180.880,-219.788,-404.420,367.174,224.165,-108.393,6386.960,1298.510,-2215.020
767,82668.112000,145.297,-305.289,1.992,360.335,224.336,-141.746,3484.960,609.510,-878.020
768,82668.149000,304.432,-77.957,-215.160,365.112,217.652,-138.942,406.960,574.510,276.980
769,82668.188000,292.571,144.346,-64.747,371.927,221.645,-136.878,850.960,831.510,243.980
770,82668.208000,274.780,26.656,-45.821,378.659,217.806,-137.930,1029.960,1053.510,85.980
771,82668.249000,285.652,-32.692,-30.879,380.557,212.194,-129.224,206.960,1073.510,273.980
772,82668.290000,295.537,-7.544,-15.938,392.189,211.638,-115.483,125.960,900.510,207.980
773,82668.329000,256.988,6.538,-45.821,397.907,199.418,-100.051,281.960,761.510,146.980
774,82668.368000,260.942,7.544,-43.829,402.745,196.833,-87.350,104.960,748.510,134.980
775,82668.411000,290.595,3.521,-8.965,408.583,197.213,-72.619,139.960,721.510,75.980
776,82668.449000,241.174,-13.580,-4.981,416.370,201.258,-68.591,89.960,507.510,19.980
777,82668.493000,248.093,8.550,-21.914,415.444,204.291,-62.641,86.960,433.510,-10.020
778,82668.508000,257.977,20.621,-30.879,421.386,219.752,-68.169,234.960,620.510,-33.020
779,82668.548000,244.139,-0.503,-12.949,422.080,292.438,-72.439,203.960,359.510,-41.020
780,82668.590000,250.069,7.544,-12.949,364.858,252.658,41.295,-78.040,81.510,19.980
781,82668.635000,254.023,-10.562,-0.996,388.234,179.971,-9.302,74.960,-16.490,47.980
782,82668.671000,252.046,-7.544,5.977,402.755,184.600,-25.840,115.960,-43.490,55.980
783,82668.715000,254.023,-6.538,0.996,406.660,189.384,-30.629,64.960,-90.490,4.980
784,82668.749000,257.977,-13.580,-14.942,408.579,187.483,-29.686,21.960,-111.490,-32.020
785,82668.789000,256.988,-15.591,-14.942,408.581,188.389,-32.608,53.960,-4.490,-107.020
786,82668.829000,260.942,-22.633,-14.942,406.755,199.977,-34.316,250.960,-13.490,-131.020
787,82668.849000,271.815,-12.574,6.973,409.613,196.058,-37.339,61.960,-283.490,-275.020
788,82668.889000,334.085,40.739,36.856,404.817,202.569,-47.992,-7.040,-389.490,-302.020
789,82668.930000,338.039,30.680,72.716,404.853,207.316,-52.790,-612.040,-690.490,8.980
790,82668.969000,246.116,-62.868,-0.996,404.808,203.367,-55.819,-1088.040,-588.490,312.980
791,82669.9000,157.158,-2.515,-66.739,405.717,196.646,-53.025,-1357.040,-578.490,544.980
792,82669.49000,111.691,-47.780,-31.875,414.319,185.166,-49.339,-1092.040,-37.490,678.980
793,82669.89000,104.772,-29.674,16.934,420.082,176.010,-26.975,147.960,724.510,711.980
794,82669.129000,165.066,-45.768,-91.642,431.636,164.149,2.206,-887.040,1000.510,491.980
795,82669.149000,298.502,-8.550,-275.922,436.540,163.959,35.555,-2371.040,394.510,554.980
796,82669.194000,330.131,211.741,-57.774,441.419,167.933,37.615,-653.040,-137.490,-161.020
797,82669.236000,298.502,-109.139,4.981,429.893,177.420,32.898,1238.960,-186.490,-310.020
798,82669.271000,289.606,30.680,-25.899,432.810,179.347,30.985,-338.040,103.510,15.980
799,82669.311000,317.282,89.022,-46.817,434.688,173.541,30.860,-64.040,-59.490,-11.020
800,82669.349000,258.965,10.562,-24.903,429.855,172.652,36.714,-472.040,56.510,36.980
801,82669.393000,244.139,-40.739,-3.984,428.897,174.498,32.831,-820.040,-77.490,4.980
802,82669.430000,253.035,-67.898,-6.973,421.991,159.934,35.435,-622.040,-187.490,-23.020
803,82669.469000,263.907,-55.827,7.969,418.137,157.415,54.984,-236.040,-328.490,-33.020
804,82669.493000,264.896,-2.515,-17.930,423.164,178.649,47.621,-93.040,-385.490,31.980
805,82669.530000,281.699,-76.951,28.887,434.699,173.649,35.766,-1634.040,-396.490,282.980
806,82669.571000,303.444,-74.939,35.860,440.387,158.495,50.152,-3665.040,-384.490,574.980
807,82669.610000,207.568,-32.692,-61.759,450.816,131.911,72.139,-4868.040,-181.490,676.980
808,82669.653000,241.174,-4.527,-48.809,449.622,103.314,96.018,-4800.040,164.510,593.980
809,82669.697000,318.270,0.503,13.946,451.282,70.755,114.912,-4668.040,327.510,338.980
810,82669.740000,439.846,59.851,76.700,447.205,46.726,127.119,-5356.040,252.510,466.980
811,82669.772000,295.537,-14.585,-34.864,445.760,-1.891,123.095,-6254.040,183.510,701.980
812,82669.791000,170.996,-46.774,-200.218,443.362,-45.965,105.440,-5073.040,22.510,1253.980
813,82669.832000,164.077,53.815,-267.953,435.265,-77.648,80.203,-3020.040,-375.490,1007.980
814,82669.871000,-32.618,21.627,-122.521,428.232,-102.223,68.856,-272.040,-202.490,592.980
815,82669.916000,33.606,155.411,-63.751,426.223,-111.756,77.466,290.960,398.510,267.980
816,82669.956000,512.988,111.151,-14.942,424.405,-106.252,107.985,-194.040,1079.510,-317.020
817,82669.992000,385.483,43.756,-30.879,422.578,-96.433,114.083,343.960,763.510,-497.020
818,82670.32000,309.375,-127.246,-492.078,431.300,-92.680,104.378,-181.040,-1381.490,-187.020
819,82670.73000,172.973,-36.715,-350.630,441.828,-93.676,54.364,-28.040,-2690.490,-103.020
820,82670.113000,136.402,-27.662,-303.813,451.328,-97.012,-13.356,508.960,-3220.490,-164.020
821,82670.133000,73.143,16.597,-143.440,450.291,-88.888,-84.766,299.960,-3198.490,-208.020
822,82670.173000,73.143,19.615,-42.833,446.364,-82.431,-142.490,103.960,-2626.490,-243.020
823,82670.209000,152.216,-9.556,-6.973,441.483,-81.140,-169.930,227.960,-1382.490,-59.020
824,82670.251000,255.012,-36.715,27.891,440.503,-77.741,-191.431,-96.040,-322.490,197.980
825,82670.292000,301.467,-35.709,34.864,446.265,-83.380,-185.660,104.960,970.510,436.980
826,82670.329000,371.645,-26.656,17.930,456.865,-95.121,-150.595,170.960,1773.510,400.980
827,82670.369000,460.602,-37.721,-204.202,473.369,-97.054,-113.338,-946.040,1651.510,396.980
828,82670.410000,379.552,-41.745,-151.409,480.258,-91.465,-82.799,-801.040,1378.510,418.980
829,82670.457000,265.884,81.980,-48.809,481.116,-108.348,-56.694,-299.040,1138.510,302.980
830,82670.473000,279.722,13.580,-57.774,480.210,-106.006,-38.011,277.960,977.510,239.980
831,82670.512000,258.965,-47.780,-46.817,481.194,-108.478,-18.451,-60.040,829.510,197.980
832,82670.553000,247.104,-25.650,-50.802,477.351,-109.142,-2.783,-448.040,595.510,135.980
833,82670.592000,256.000,-39.733,-33.868,482.185,-110.885,4.053,-489.040,402.510,84.980
834,82670.637000,263.907,-37.721,-25.899,479.257,-113.805,4.963,-375.040,86.510,62.980
835,82670.680000,263.907,-4.527,-24.903,480.147,-120.699,-0.091,-285.040,-163.490,37.980
836,82670.715000,265.884,7.544,-26.895,477.243,-118.980,-8.885,-13.040,-490.490,12.980
837,82670.758000,282.687,17.603,11.953,479.055,-128.950,-21.851,-55.040,-812.490,-20.020
838,82670.773000,358.795,147.363,139.455,474.277,-116.980,-49.054,-55.040,-1550.490,-158.020
839,82670.812000,512.988,-73.933,65.743,468.370,-115.375,-105.909,-623.040,-2528.490,-129.020
840,82670.851000,498.162,-90.028,24.903,444.915,-129.322,-156.282,2269.960,-2779.490,-14.020
841,82670.893000,384.494,10.562,-46.817,425.407,-138.960,-188.899,2331.960,-2276.490,-699.020
842,82670.933000,282.687,-124.228,-68.732,421.465,-144.090,-199.809,2885.960,-1717.490,-1572.020
843,82670.973000,74.131,21.627,78.693,423.621,-122.582,-193.443,2407.960,-304.490,-2984.020
844,82671.13000,80.062,-9.556,17.930,436.808,-64.661,-168.593,1535.960,666.510,-3732.020
845,82671.53000,106.749,-66.892,-82.677,451.282,24.510,-135.202,1094.960,1750.510,-4285.020
846,82671.93000,165.066,-214.758,-133.479,448.359,111.914,-86.197,1688.960,2341.510,-4312.020
847,82671.113000,198.672,-244.935,-235.082,420.014,176.248,-60.312,5830.960,2524.510,-3772.020
848,82671.153000,243.151,-278.130,-190.257,391.319,214.325,-81.102,7503.960,2082.510,-3155.020
849,82671.192000,139.367,-183.576,-229.105,371.046,224.224,-107.403,6192.960,1676.510,-2254.020
850,82671.232000,182.857,-439.073,-41.837,368.042,217.939,-127.162,4171.960,994.510,-624.020
851,82671.272000,288.618,37.721,-48.809,375.732,213.139,-128.233,554.960,669.510,537.980
852,82671.312000,300.479,144.346,-65.743,389.324,215.493,-115.403,814.960,936.510,195.980
853,82671.352000,309.375,5.532,-35.860,392.163,208.747,-114.566,670.960,1000.510,191.980
854,82671.392000,263.907,22.633,-58.770,398.987,211.078,-99.790,-264.040,846.510,190.980
855,82671.412000,256.000,10.562,-58.770,404.791,208.481,-88.068,-44.040,769.510,113.980
856,82671.455000,261.931,-12.574,-31.875,411.477,197.155,-76.537,-40.040,632.510,97.980
857,82671.491000,292.571,-11.568,-13.946,416.374,201.302,-66.628,81.960,641.510,163.980
858,82671.535000,241.174,-47.780,-24.903,421.161,193.819,-55.997,340.960,783.510,132.980
859,82671.574000,259.954,-6.538,-11.953,423.172,199.857,-47.033,489.960,874.510,65.980
860,82671.614000,248.093,19.615,-24.903,429.214,225.955,-54.286,381.960,427.510,6.980
861,82671.653000,253.035,-16.597,-14.942,423.302,310.742,-34.765,133.960,128.510,-5.020
862,82671.694000,253.035,-11.568,-27.891,377.066,212.263,52.192,81.960,56.510,-1.020
863,82671.741000,256.988,6.538,-26.895,390.101,169.655,6.164,217.960,126.510,77.980
864,82671.755000,247.104,2.515,-10.957,412.275,167.370,-19.338,216.960,110.510,67.980
865,82671.795000,251.058,-10.562,-2.988,413.440,186.883,-14.979,122.960,12.510,25.980
866,82671.835000,256.988,-5.532,-16.934,417.322,188.797,-17.871,19.960,-16.490,-28.020
867,82671.874000,256.000,-15.591,-10.957,417.374,193.695,-15.801,-59.040,8.510,-83.020
868,82671.914000,258.965,-20.621,-4.981,419.256,187.932,-13.963,-86.040,31.510,-110.020
869,82671.954000,267.861,-18.609,-11.953,418.386,197.652,-12.769,-125.040,-18.490,-120.020
870,82671.995000,293.560,6.538,25.899,415.446,194.625,-16.765,-289.040,-412.490,-339.020
871,82672.35000,376.587,15.591,124.514,415.553,207.980,-27.255,-72.040,-684.490,-328.020
872,82672.54000,277.745,15.591,35.860,412.603,206.614,-43.963,-359.040,-837.490,-110.020
873,82672.94000,172.973,-69.910,-74.708,410.509,192.745,-56.043,-132.040,-639.490,265.980
874,82672.136000,111.691,-30.680,17.930,414.280,183.030,-58.212,258.960,-20.490,455.980
875,82672.176000,133.436,-10.562,13.946,415.272,181.508,-39.611,706.960,866.510,333.980
876,82672.216000,143.320,40.739,20.918,422.145,183.429,0.653,-1820.040,1306.510,27.980
877,82672.256000,315.305,-226.829,-431.315,420.245,181.102,28.056,-2422.040,362.510,398.980
878,82672.296000,207.568,247.953,10.957,420.280,184.079,31.064,153.960,-276.490,-253.020
879,82672.332000,286.641,-53.815,16.934,417.403,189.574,17.451,910.960,-204.490,-42.020
880,82672.372000,298.502,13.580,-50.802,411.627,193.315,13.599,130.960,-228.490,-50.020
881,82672.392000,266.873,35.709,-28.887,415.518,196.200,10.729,144.960,5.510,45.980
882,82672.435000,254.023,2.515,-28.887,413.545,191.413,14.541,-224.040,69.510,75.980
883,82672.472000,249.081,-15.591,-0.996,415.457,189.447,12.540,-590.040,-34.490,30.980
884,82672.517000,247.104,-65.886,1.992,409.546,178.690,11.308,-508.040,-206.490,17.980
885,82672.556000,258.965,-18.609,9.961,400.777,170.083,20.906,290.960,-408.490,17.980
886,82672.596000,273.792,17.603,-16.934,409.708,194.331,16.559,-223.040,-596.490,98.980
887,82672.636000,317.282,26.656,-14.942,420.234,186.280,-1.249,-1220.040,-695.490,252.980
888,82672.675000,262.919,-59.851,-35.860,424.049,179.629,3.515,-2341.040,-588.490,334.980
889,82672.716000,218.440,-82.986,-53.790,426.834,163.563,21.796,-3744.040,-427.490,389.980
890,82672.736000,246.116,-42.750,-49.805,431.669,159.187,41.323,-4461.040,-139.490,312.980
891,82672.776000,380.541,63.874,20.918,433.485,141.342,67.408,-5003.040,-18.490,310.980
892,82672.816000,328.154,27.662,-7.969,439.993,108.053,95.122,-6556.040,-14.490,895.980
893,82672.856000,220.417,-125.234,-119.533,442.359,50.994,102.687,-6694.040,-57.490,1382.980
894,82672.896000,170.008,-27.662,-293.852,443.651,-13.258,92.437,-5202.040,-679.490,1474.980
895,82672.936000,17.792,18.609,-79.689,440.339,-50.675,69.045,-2450.040,-833.490,1298.980
896,82672.976000,-55.351,254.994,-84.669,440.129,-72.940,71.492,-537.040,306.510,871.980
897,82673.19000,365.714,-2.515,373.541,436.130,-89.181,84.852,37.960,1574.510,350.980
898,82673.36000,512.988,192.629,142.444,433.251,-91.626,107.347,-96.040,902.510,-442.020
899,82673.73000,390.425,-90.028,-492.078,440.072,-84.936,99.665,-803.040,-839.490,-56.020
900,82673.116000,236.232,-116.181,-485.105,454.385,-91.979,37.757,-957.040,-2625.490,235.980
901,82673.183000,79.073,-63.874,-239.066,452.230,-98.513,-37.904,-258.040,-3417.490,101.980
902,82673.199000,41.514,-39.733,-91.642,451.146,-94.358,-113.325,148.960,-3240.490,86.980
903,82673.234000,44.479,-51.804,-36.856,436.538,-91.025,-176.044,-381.040,-2443.490,26.980
904,82673.275000,100.819,-72.927,-22.911,425.880,-86.879,-203.433,-282.040,-1615.490,124.980
905,82673.314000,243.151,-56.833,27.891,421.882,-96.949,-218.375,300.960,-119.490,178.980
906,82673.361000,281.699,-64.880,67.735,428.621,-104.240,-199.890,759.960,951.510,279.980
907,82673.376000,367.691,-31.686,46.817,451.779,-118.685,-160.935,551.960,2130.510,201.980
908,82673.421000,512.988,-46.774,-276.918,462.566,-111.030,-126.419,-1894.040,1389.510,128.980
909,82673.457000,345.946,-7.544,-195.237,471.355,-108.399,-98.884,-1850.040,1541.510,416.980
910,82673.497000,276.757,166.475,-72.716,476.238,-106.152,-87.056,-587.040,1078.510,354.980
911,82673.536000,281.699,52.809,-65.743,476.220,-114.242,-57.815,613.960,975.510,179.980
912,82673.583000,252.046,-80.974,-48.809,478.191,-114.763,-38.210,-313.040,845.510,168.980
913,82673.613000,246.116,-46.774,-62.755,477.169,-124.093,-20.767,-769.040,687.510,181.980
914,82673.657000,246.116,-18.609,-42.833,477.208,-121.957,-11.893,-377.040,424.510,161.980
915,82673.673000,263.907,-0.503,-37.852,478.083,-132.519,-7.223,-224.040,183.510,129.980
916,82673.713000,261.931,2.515,-28.887,474.268,-125.869,-11.986,-200.040,-105.490,81.980
917,82673.756000,286.641,30.680,6.973,474.182,-133.743,-17.065,-348.040,-416.490,10.980
918,82673.796000,303.444,100.086,111.564,476.145,-126.411,-37.492,-373.040,-1133.490,-61.020
919,82673.836000,346.934,225.823,142.444,467.377,-123.561,-80.596,-387.040,-2040.490,-172.020
920,82673.873000,512.988,-77.957,87.658,450.701,-135.609,-135.816,993.960,-2845.490,145.980
921,82673.914000,481.359,-40.739,26.895,425.271,-155.228,-178.473,2572.960,-2622.490,-243.020
922,82673.956000,404.263,-174.523,-201.214,410.675,-158.821,-203.100,2862.960,-2327.490,-858.020
923,82673.998000,148.263,-77.957,113.556,417.597,-140.589,-215.430,1820.960,-1091.490,-2624.020
924,82674.23000,105.761,-47.780,29.883,433.577,-91.615,-201.560,1636.960,126.510,-3765.020
925,82674.54000,101.807,-197.658,-41.837,450.833,-15.015,-167.462,2321.960,1519.510,-4472.020
926,82674.94000,94.888,-180.558,-76.700,452.681,65.641,-118.596,2912.960,2094.510,-4516.020
927,82674.134000,137.390,-253.988,-154.397,433.240,147.793,-80.529,3268.960,2304.510,-4183.020
928,82674.177000,170.996,-341.501,-250.023,403.707,194.146,-77.601,5812.960,2147.510,-3585.020
929,82674.217000,220.417,-357.595,-172.327,383.474,209.719,-110.640,7956.960,1773.510,-2830.020
930,82674.257000,442.811,-440.079,-296.840,368.944,212.037,-131.214,3988.960,158.510,-1859.020
931,82674.302000,182.857,-185.587,-228.109,363.982,205.518,-160.789,3197.960,482.510,-822.020
932,82674.318000,234.255,27.662,-114.553,368.781,203.429,-169.651,1313.960,619.510,87.980
933,82674.356000,236.232,117.187,-101.603,377.512,207.268,-175.431,715.960,889.510,187.980
934,82674.399000,276.757,22.633,-59.767,387.131,200.674,-170.654,468.960,1189.510,149.980
935,82674.433000,301.467,-20.621,-30.879,389.982,190.519,-148.318,55.960,1114.510,81.980
936,82674.478000,270.826,-4.527,-49.805,395.803,187.210,-124.843,255.960,971.510,-44.020
937,82674.518000,258.965,8.550,-48.809,401.646,188.518,-112.053,218.960,950.510,-36.020
938,82674.557000,342.981,69.910,0.996,407.519,191.875,-94.315,202.960,936.510,46.980
939,82674.594000,198.672,-67.898,-51.798,417.221,192.228,-82.518,548.960,1047.510,-44.020
940,82674.638000,240.185,-62.868,-23.907,423.022,189.609,-71.777,441.960,932.510,-98.020
941,82674.661000,256.000,40.739,-12.949,425.972,196.261,-79.468,127.960,497.510,31.980
942,82674.696000,246.116,-3.521,-6.973,454.925,299.339,-126.153,-106.040,306.510,96.980
943,82674.734000,257.977,10.562,-28.887,406.519,364.164,19.342,-147.040,309.510,74.980
944,82674.779000,252.046,7.544,0.996,378.470,166.694,9.015,-207.040,277.510,114.980
945,82674.818000,242.162,-40.739,21.914,410.319,165.388,-20.366,-157.040,136.510,82.980
946,82674.854000,252.046,-6.538,5.977,420.055,171.350,-18.252,-83.040,76.510,32.980
947,82674.894000,255.012,2.515,-4.981,421.095,178.220,-15.156,-69.040,46.510,26.980
948,82674.936000,256.000,-11.568,13.946,424.063,185.045,-14.998,-220.040,77.510,-19.020
949,82674.956000,258.965,-18.609,20.918,423.088,182.317,-6.234,-225.040,150.510,-59.020
950,82674.996000,264.896,-27.662,28.887,421.129,179.428,-4.341,-352.040,114.510,-129.020
951,82675.36000,268.849,-35.709,56.778,422.165,186.256,-3.207,-558.040,-247.490,-209.020
952,82675.76000,319.259,-6.538,110.568,422.137,185.112,-11.078,-385.040,-639.490,-38.020
953,82675.116000,285.652,-16.597,45.821,423.089,184.971,-17.943,-918.040,-732.490,107.980
954,82675.156000,225.359,-48.786,-7.969,425.022,184.968,-18.920,-1146.040,-557.490,228.980
955,82675.196000,175.938,-46.774,-30.879,425.906,176.261,-18.131,-1024.040,-410.490,313.980
956,82675.236000,157.158,-33.697,-30.879,425.919,175.506,-8.341,-111.040,327.510,175.980
957,82675.276000,178.903,-8.550,-34.864,427.778,165.989,-0.703,-171.040,733.510,32.980
958,82675.296000,272.803,-66.892,-274.926,424.960,169.412,23.884,-1031.040,493.510,174.980
959,82675.336000,283.676,104.110,45.821,431.826,177.418,31.921,-1065.040,-174.490,12.980
960,82675.376000,276.757,23.639,9.961,432.853,185.043,25.228,634.960,-322.490,-158.020
961,82675.417000,251.058,-54.821,-27.891,429.848,176.989,13.275,346.960,-158.490,-2.020
962,82675.454000,313.328,72.927,-13.946,424.151,185.886,23.267,99.960,184.510,15.980
963,82675.502000,246.116,19.615,-42.833,427.986,182.946,20.268,-68.040,63.510,120.980
964,82675.538000,254.023,-20.621,-17.930,426.978,178.147,23.101,-646.040,75.510,100.980
965,82675.583000,251.058,-38.727,10.957,425.937,170.392,23.907,-874.040,-113.490,1.980
966,82675.601000,251.058,-82.986,15.938,414.252,162.512,23.708,-488.040,-334.490,11.980
967,82675.636000,260.942,-49.792,6.973,413.326,163.776,37.463,-30.040,-462.490,60.980
968,82675.681000,254.023,-50.798,-12.949,427.964,180.098,23.146,20.960,-527.490,119.980
969,82675.716000,267.861,13.580,-33.868,433.650,171.094,8.249,-983.040,-509.490,186.980
970,82675.756000,282.687,-63.874,-5.977,430.782,172.273,19.056,-2509.040,-346.490,338.980
971,82675.796000,252.046,-44.762,-30.879,439.402,160.082,34.494,-3447.040,-289.490,382.980
972,82675.836000,256.000,-10.562,-40.840,442.180,143.066,53.736,-4363.040,-113.490,395.980
973,82675.876000,391.413,20.621,44.825,445.882,120.364,78.737,-4894.040,-37.490,457.980
974,82675.916000,357.807,-24.644,35.860,446.504,81.841,91.612,-6715.040,-228.490,860.980
975,82675.936000,281.699,-95.057,-57.774,447.880,24.557,89.363,-6558.040,-224.490,1315.980
976,82675.979000,154.193,-66.892,-93.634,443.709,-5.664,84.761,-4923.040,-121.490,1545.980
977,82676.17000,83.027,-3.521,-190.257,438.419,-47.911,63.218,-2868.040,-367.490,1321.980
978,82676.57000,-27.676,73.933,-54.786,429.343,-84.112,53.569,-517.040,-1.490,1006.980
979,82676.97000,330.131,290.200,296.840,419.551,-99.417,67.919,-608.040,944.510,252.980
980,82676.138000,379.552,194.640,171.331,417.773,-86.491,82.912,529.960,542.510,-445.020
981,82676.182000,324.201,20.621,-175.315,427.541,-78.457,90.956,667.960,149.510,-599.020
982,82676.218000,255.012,-75.945,-428.327,438.325,-61.136,79.595,652.960,-939.490,-617.020
983,82676.237000,192.741,-87.010,-418.366,443.218,-48.231,46.550,311.960,-2380.490,-529.020
984,82676.276000,93.900,-62.868,-252.016,453.784,-43.574,-11.184,409.960,-2747.490,-586.020
985,82676.319000,54.363,-42.750,-133.479,451.815,-34.229,-70.801,773.960,-2557.490,-336.020
986,82676.363000,66.224,-46.774,-67.735,448.817,-34.300,-116.900,643.960,-2079.490,-180.020
987,82676.402000,152.216,-36.715,-30.879,447.700,-41.904,-153.355,959.960,-1403.490,142.980
988,82676.441000,206.579,-24.644,-12.949,451.321,-66.267,-159.772,1110.960,-229.490,495.980
989,82676.481000,226.347,-38.727,0.996,462.787,-84.256,-144.457,1138.960,687.510,724.980
990,82676.521000,288.618,-14.585,8.965,469.408,-104.125,-124.290,-89.040,1740.510,663.980
991,82676.558000,455.660,48.786,-371.549,482.075,-99.623,-101.608,-2472.040,1486.510,241.980
992,82676.577000,348.911,-75.945,-187.268,482.093,-102.082,-81.069,-1585.040,1232.510,567.980
993,82676.618000,309.375,119.198,-48.809,483.133,-100.498,-53.573,171.960,1022.510,174.980
994,82676.658000,272.803,-12.574,-57.774,481.245,-101.833,-25.168,643.960,964.510,117.980
995,82676.698000,245.127,-38.727,-58.770,481.290,-101.402,-5.545,-190.040,876.510,140.980
996,82676.739000,244.139,-35.709,-61.759,480.288,-107.021,4.135,-279.040,748.510,137.980
