Sample, Time, ACCX, ACCY, ACCZ, MAGX, MAGY, MAGZ, GYRX, GYRY, GYRZ
0,82716.866000,229.466,40.157,103.424,339.881,54.927,126.753,-94.780,68.400,48.940
1,82716.907000,227.501,35.137,104.448,337.930,50.380,129.638,37.220,90.400,76.940
2,82716.947000,229.466,39.153,106.496,339.846,52.217,128.685,90.220,105.400,86.940
3,82716.988000,231.432,40.157,105.472,340.784,51.353,130.657,99.220,56.400,81.940
4,82717.29000,231.432,41.161,98.304,339.825,50.424,130.636,-17.780,15.400,51.940
5,82717.69000,223.570,42.165,100.352,337.854,44.863,128.525,6.220,2.400,106.940
6,82717.109000,222.587,35.137,96.256,339.786,47.656,129.582,13.220,-10.600,123.940
7,82717.129000,230.449,37.145,94.208,341.564,39.416,128.415,1.220,10.400,123.940
8,82717.168000,227.501,38.149,99.328,343.518,44.003,127.521,-20.780,-0.600,119.940
9,82717.209000,229.466,38.149,98.304,340.629,40.301,127.438,-6.780,-12.600,102.940
10,82717.249000,233.397,39.153,99.328,342.550,42.197,129.470,-9.780,10.400,85.940
11,82717.289000,230.449,37.145,99.328,343.422,36.732,130.350,-44.780,19.400,44.940
12,82717.329000,223.570,41.161,100.352,342.525,40.365,129.431,-91.780,38.400,-4.060
13,82717.355000,221.605,40.157,105.472,340.580,36.656,128.355,-188.780,31.400,-71.060
14,82717.388000,224.553,39.153,107.520,340.580,36.656,128.355,-283.780,-2.600,-77.060
15,82717.428000,230.449,27.106,103.424,341.527,36.668,128.357,-278.780,-19.600,-35.060
16,82717.468000,225.536,29.114,106.496,344.342,34.893,129.318,-178.780,-22.600,50.940
17,82717.508000,224.553,24.094,104.448,342.421,32.997,127.285,-132.780,-22.600,55.940
18,82717.548000,221.605,23.090,106.496,347.145,32.201,130.259,-53.780,-18.600,66.940
19,82717.588000,227.501,27.106,98.304,346.180,31.195,126.258,21.220,-43.600,37.940
20,82717.608000,225.536,26.102,98.304,345.182,27.498,125.183,53.220,-43.600,9.940
21,82717.648000,230.449,31.122,95.232,345.260,33.034,127.290,47.220,-56.600,-20.060
22,82717.688000,233.397,31.122,99.328,344.246,28.382,124.206,15.220,-33.600,-51.060
23,82717.728000,231.432,33.129,95.232,344.260,29.318,125.220,-2.780,-65.600,-67.060
24,82717.768000,228.484,30.118,99.328,341.518,36.571,123.381,-21.780,-60.600,-91.060
25,82717.817000,231.432,31.122,91.136,345.325,38.414,121.437,-42.780,-44.600,-94.060
26,82717.833000,231.432,29.114,91.136,344.280,31.092,122.274,-73.780,-45.600,-91.060
27,82717.868000,235.363,32.125,87.040,344.395,39.356,123.445,-61.780,-10.600,-72.060
28,82717.908000,229.466,26.102,92.160,347.205,37.523,121.421,-57.780,-9.600,-70.060
29,82717.948000,227.501,30.118,93.184,342.471,36.661,127.363,-15.780,-12.600,-77.060
30,82717.988000,231.432,32.125,94.208,345.378,42.117,123.505,30.220,25.400,-55.060
31,82718.28000,231.432,34.133,94.208,343.488,42.112,124.497,88.220,32.400,-30.060
32,82718.68000,226.518,34.133,92.160,338.798,44.856,127.532,181.220,-20.600,17.940
33,82718.88000,245.190,35.137,101.376,338.777,43.063,129.483,159.220,107.400,9.940
34,82718.128000,224.553,39.153,90.112,335.908,41.135,126.454,199.220,6.400,10.940
35,82718.168000,223.570,40.157,103.424,336.853,40.368,133.402,173.220,74.400,-17.060
36,82718.209000,222.587,40.157,100.352,339.746,44.888,128.529,249.220,47.400,10.940
37,82718.249000,223.570,43.169,102.400,338.793,44.018,131.493,227.220,47.400,1.940
38,82718.290000,220.622,49.192,103.424,334.172,52.181,130.665,242.220,35.400,19.940
39,82718.310000,216.691,53.208,109.568,335.123,52.252,133.652,291.220,49.400,42.940
40,82718.351000,217.674,53.208,109.568,332.297,53.131,133.666,308.220,33.400,50.940
41,82718.390000,224.553,59.231,107.520,332.249,49.486,134.583,284.220,35.400,58.940
42,82718.430000,227.501,58.227,102.400,330.332,47.648,135.536,233.220,27.400,50.940
43,82718.470000,221.605,58.227,106.496,330.409,53.165,136.648,254.220,64.400,99.940
44,82718.510000,220.622,59.231,105.472,327.536,50.418,138.575,243.220,31.400,111.940
45,82718.552000,220.622,59.231,102.400,331.295,48.616,137.547,222.220,46.400,95.940
46,82718.567000,217.674,63.247,111.616,323.824,55.845,137.690,191.220,49.400,63.940
47,82718.608000,226.518,67.263,106.496,323.765,51.303,139.583,182.220,36.400,41.940
48,82718.649000,218.656,64.251,100.352,324.780,55.975,143.662,153.220,-42.600,25.940
49,82718.687000,224.553,63.247,94.208,324.752,54.103,141.633,121.220,-47.600,5.940
50,82718.727000,220.622,62.243,96.256,324.738,53.168,140.618,90.220,-75.600,-10.060
51,82718.767000,228.484,65.255,98.304,331.445,59.610,137.782,34.220,-68.600,-65.060
52,82718.787000,226.518,65.255,96.256,328.574,57.662,133.757,26.220,-64.600,-68.060
53,82718.827000,218.656,64.251,95.232,322.955,61.349,138.801,14.220,-68.600,-64.060
54,82718.867000,221.605,63.247,97.280,328.642,62.301,136.840,-1.780,-54.600,-51.060
55,82718.907000,221.605,67.263,95.232,325.801,62.244,135.840,-26.780,-35.600,-43.060
56,82718.947000,222.587,66.259,96.256,322.889,56.729,136.713,-81.780,-68.600,-51.060
57,82718.990000,228.484,65.255,89.088,329.627,65.081,137.895,-78.780,-72.600,-40.060
58,82719.30000,226.518,65.255,86.016,326.744,62.217,133.852,-32.780,-48.600,-23.060
59,82719.58000,223.570,64.251,87.040,327.724,64.939,131.922,17.220,-38.600,-39.060
60,82719.97000,222.587,66.259,91.136,327.674,61.275,131.844,49.220,-14.600,-51.060
61,82719.129000,227.501,68.267,93.184,326.762,63.972,129.910,79.220,-9.600,-50.060
62,82719.169000,225.536,71.278,90.112,324.041,72.238,133.066,88.220,-41.600,-59.060
63,82719.210000,224.553,74.290,87.040,327.801,70.456,133.034,58.220,-38.600,-52.060
64,82719.254000,223.570,70.275,91.136,325.879,68.540,130.006,47.220,-35.600,-35.060
65,82719.288000,230.449,79.310,91.136,324.038,72.199,131.076,21.220,-10.600,-40.060
66,82719.308000,208.829,69.271,84.992,325.913,71.249,128.075,16.220,-84.600,7.940
67,82719.348000,215.708,75.294,94.208,323.025,67.567,128.987,93.220,74.400,0.940
68,82719.388000,210.795,76.298,99.328,325.018,74.921,129.146,-40.780,87.400,-7.060
69,82719.428000,208.829,77.302,108.544,326.916,75.004,132.135,-97.780,126.400,-22.060
70,82719.468000,222.587,77.302,112.640,320.259,72.227,135.050,-116.780,135.400,-22.060
71,82719.508000,231.432,74.290,111.616,324.060,73.232,137.066,-140.780,64.400,9.940
72,82719.528000,223.570,68.267,110.592,323.096,72.245,134.060,-123.780,59.400,53.940
73,82719.568000,213.743,65.255,109.568,321.994,60.401,137.784,-126.780,5.400,74.940
74,82719.608000,216.691,63.247,105.472,325.906,69.632,138.981,-145.780,-2.600,71.940
75,82719.648000,222.587,63.247,111.616,326.726,60.463,137.793,-153.780,22.400,36.940
76,82719.688000,221.605,63.247,114.688,327.684,61.392,137.814,-114.780,-26.600,26.940
77,82719.728000,207.846,55.216,89.088,325.826,64.076,135.879,-38.780,-141.600,54.940
78,82719.748000,220.622,44.173,81.920,331.461,61.344,132.845,-154.780,-134.600,60.940
79,82719.789000,231.432,41.161,84.992,332.356,57.673,131.774,-154.780,-97.600,65.940
80,82719.829000,236.345,49.192,96.256,332.340,56.718,129.764,-149.780,8.400,38.940
81,82719.869000,229.466,56.220,99.328,330.335,48.447,129.585,-78.780,-12.600,30.940
82,82719.915000,228.484,53.208,95.232,335.129,53.090,129.691,-20.780,0.400,19.940
83,82719.948000,229.466,52.204,94.208,334.247,57.678,130.782,-48.780,6.400,-22.060
84,82719.988000,231.432,48.188,90.112,331.276,48.401,126.602,-90.780,-11.600,-27.060
85,82720.10000,228.484,47.184,82.944,331.347,53.080,131.675,-113.780,-24.600,-14.060
86,82720.53000,229.466,45.176,83.968,333.274,55.814,129.746,-141.780,-8.600,-10.060
87,82720.89000,221.605,44.173,90.112,332.301,53.950,128.711,-152.780,-40.600,18.940
88,82720.129000,226.518,41.161,88.064,332.215,47.556,129.569,-194.780,-68.600,35.940
89,82720.178000,218.656,36.141,83.968,337.004,52.141,126.690,-159.780,-140.600,94.940
90,82720.210000,245.190,35.137,78.848,333.151,47.452,123.600,-74.780,-30.600,66.940
91,82720.250000,233.397,38.149,98.304,337.899,48.469,125.618,-37.780,27.400,135.940
92,82720.270000,291.378,33.129,121.856,336.845,40.270,128.426,-72.780,227.400,112.940
93,82720.310000,212.760,31.122,72.704,334.887,35.625,126.335,53.220,-173.600,197.940
94,82720.363000,218.656,42.165,82.944,332.098,39.252,126.408,79.220,56.400,41.940
95,82720.392000,214.726,42.165,89.088,335.935,42.986,127.488,66.220,125.400,19.940
96,82720.432000,228.484,40.157,104.448,329.269,39.332,132.374,29.220,130.400,13.940
97,82720.472000,226.518,38.149,100.352,330.306,45.796,134.502,11.220,123.400,13.940
98,82720.492000,223.570,42.165,110.592,329.335,43.952,134.461,-12.780,143.400,-25.060
99,82720.532000,219.639,43.169,108.544,331.179,40.332,135.382,-86.780,63.400,-57.060
100,82720.572000,227.501,41.161,105.472,329.399,48.552,135.554,-154.780,27.400,-85.060
101,82720.612000,223.570,39.153,110.592,332.188,44.925,135.481,-73.780,51.400,9.940
102,82720.652000,215.708,42.165,114.688,324.624,44.903,139.448,71.220,74.400,38.940
103,82720.692000,222.587,31.122,113.664,326.531,45.864,140.466,163.220,73.400,13.940
104,82720.732000,222.587,34.133,109.568,324.713,51.335,140.579,385.220,51.400,-10.060
105,82720.752000,225.536,35.137,108.544,326.540,46.741,138.495,496.220,-11.600,-67.060
106,82720.792000,225.536,39.153,99.328,326.691,57.754,139.724,695.220,-48.600,-40.060
107,82720.833000,226.518,61.239,95.232,326.677,56.818,138.710,834.220,-45.600,-24.060
108,82720.873000,224.553,58.227,96.256,326.751,62.295,137.832,807.220,-28.600,3.940
109,82720.909000,223.570,67.263,96.256,323.035,67.684,134.957,726.220,-22.600,41.940
110,82720.953000,223.570,72.282,97.280,326.903,74.088,132.115,558.220,2.400,87.940
111,82720.972000,221.605,73.286,93.184,324.976,71.354,134.043,471.220,-19.600,97.940
112,82721.9000,225.536,74.290,87.040,325.023,74.979,132.131,349.220,-44.600,111.940
113,82721.53000,225.536,66.259,84.992,324.945,69.443,130.024,307.220,-55.600,123.940
114,82721.93000,226.518,67.263,84.992,323.958,66.643,127.974,266.220,-49.600,112.940
115,82721.132000,226.518,64.251,81.920,327.755,67.610,128.000,202.220,-41.600,112.940
116,82721.172000,227.501,67.263,84.992,324.961,71.178,125.088,195.220,-11.600,103.940
117,82721.213000,228.484,65.255,83.968,324.079,75.766,126.179,259.220,-0.600,94.940
118,82721.229000,230.449,66.259,87.040,328.762,72.183,127.104,208.220,-1.600,75.940
119,82721.272000,227.501,67.263,81.920,324.029,72.101,126.101,189.220,-1.600,59.940
120,82721.312000,226.518,64.251,81.920,325.924,72.146,127.099,169.220,17.400,65.940
121,82721.352000,226.518,65.255,83.968,327.827,73.067,126.127,149.220,34.400,53.940
122,82721.389000,226.518,65.255,83.968,323.019,67.489,125.007,114.220,41.400,50.940
123,82721.430000,229.466,66.259,81.920,328.782,73.957,124.158,100.220,18.400,34.940
124,82721.454000,228.484,64.251,81.920,327.771,68.565,130.010,68.220,21.400,34.940
125,82721.489000,230.449,63.247,76.800,324.034,72.160,129.086,64.220,42.400,78.940
126,82721.534000,229.466,63.247,84.992,320.221,70.238,127.050,40.220,62.400,49.940
127,82721.569000,227.501,63.247,81.920,326.909,74.926,128.154,13.220,40.400,52.940
128,82721.612000,229.466,63.247,86.016,324.815,60.223,126.844,3.220,63.400,42.940
129,82721.663000,226.518,64.251,90.112,325.839,65.772,128.953,-51.780,20.400,-13.060
130,82721.693000,226.518,64.251,83.968,324.066,74.070,133.105,-126.780,-25.600,-59.060
131,82721.712000,228.484,69.271,93.184,324.948,69.482,132.014,-124.780,-21.600,-80.060
132,82721.754000,229.466,65.255,89.088,324.088,75.863,131.154,-116.780,-30.600,-77.060
133,82721.790000,231.432,59.231,83.968,325.025,74.999,133.126,-45.780,-39.600,-37.060
134,82721.832000,235.363,61.239,82.944,324.937,68.586,132.990,10.220,29.400,-6.060
135,82721.877000,227.501,59.231,81.920,324.066,74.070,133.105,72.220,-7.600,-16.060
136,82721.917000,218.656,69.271,86.016,325.921,71.347,133.050,92.220,78.400,-93.060
137,82721.935000,216.691,81.318,96.256,320.267,73.084,132.084,71.220,114.400,-104.060
138,82721.977000,224.553,81.318,92.160,321.344,82.336,136.261,31.220,134.400,-77.060
139,82722.10000,227.501,72.282,87.040,318.518,83.215,136.276,14.220,92.400,-12.060
140,82722.50000,223.570,69.271,86.016,318.406,74.970,136.100,6.220,61.400,11.940
141,82722.90000,222.587,70.275,89.088,317.538,80.493,138.205,-9.780,57.400,34.940
142,82722.130000,218.656,72.282,93.184,319.407,78.705,139.165,6.220,67.400,62.940
143,82722.170000,220.622,71.278,90.112,317.478,75.951,140.098,32.220,96.400,74.940
144,82722.190000,224.553,69.271,92.160,316.551,76.933,144.096,82.220,157.400,94.940
145,82722.239000,221.605,69.271,93.184,321.245,74.247,144.046,108.220,140.400,98.940
146,82722.272000,217.674,71.278,99.328,317.428,71.507,146.966,129.220,128.400,93.940
147,82722.313000,218.656,71.278,103.424,318.451,77.036,148.080,109.220,64.400,53.940
148,82722.352000,212.760,73.286,100.352,318.424,75.184,147.046,72.220,37.400,20.940
149,82722.393000,215.708,75.294,99.328,316.497,72.450,148.974,-4.780,-1.600,-10.060
150,82722.415000,214.726,74.290,105.472,318.415,74.307,149.016,-27.780,-42.600,20.940
151,82722.454000,214.726,75.294,92.160,321.252,74.325,148.026,-73.780,-88.600,23.940
152,82722.490000,217.674,70.275,102.400,318.286,65.107,146.831,-143.780,-118.600,3.940
153,82722.530000,216.691,67.263,100.352,321.194,70.563,142.973,-179.780,-108.600,4.940
154,82722.573000,219.639,67.263,101.376,320.196,66.867,141.898,-216.780,-99.600,-10.060
155,82722.613000,222.587,65.255,102.400,323.986,66.975,144.890,-217.780,-100.600,-41.060
156,82722.654000,225.536,61.239,97.280,324.004,68.729,140.949,-187.780,-105.600,-34.060
157,82722.673000,224.553,60.235,94.208,323.943,64.168,141.846,-208.780,-113.600,-61.060
158,82722.710000,220.622,61.239,92.160,325.845,65.070,139.879,-219.780,-113.600,-86.060
159,82722.755000,215.708,64.251,95.232,331.507,64.190,137.879,-234.780,-92.600,-116.060
160,82722.792000,218.656,62.243,96.256,332.452,64.183,136.886,-302.780,-47.600,-123.060
161,82722.830000,232.415,58.227,101.376,329.605,63.288,139.846,-298.780,-11.600,-80.060
162,82722.874000,232.415,53.208,102.400,329.588,62.313,136.842,-315.780,-11.600,-58.060
163,82722.892000,230.449,60.235,100.352,331.486,62.397,139.830,-298.780,-20.600,-25.060
164,82722.943000,224.553,55.216,97.280,332.355,56.893,138.720,-269.780,-53.600,-0.060
165,82722.975000,227.501,52.204,93.184,336.144,56.982,140.717,-269.780,-78.600,17.940
166,82723.14000,227.501,48.188,95.232,333.176,47.744,138.526,-222.780,-85.600,48.940
167,82723.50000,224.553,47.184,90.112,336.021,48.620,134.571,-143.780,-95.600,61.940
168,82723.90000,231.432,50.196,95.232,334.127,48.575,133.572,-49.780,-55.600,59.940
169,82723.134000,236.345,47.184,99.328,334.977,41.298,135.408,14.220,-27.600,44.940
170,82723.154000,230.449,45.176,94.208,334.129,48.595,134.567,80.220,-15.600,19.940
171,82723.193000,233.397,45.176,92.160,336.007,47.684,133.556,110.220,34.400,-24.060
172,82723.234000,238.311,45.176,90.112,335.987,45.911,136.502,159.220,89.400,-39.060
173,82723.277000,223.570,43.169,81.920,335.017,44.085,137.456,236.220,108.400,-95.060
174,82723.314000,224.553,58.227,80.896,336.031,48.737,140.541,266.220,132.400,-182.060
175,82723.355000,236.345,75.294,81.920,331.322,49.708,146.522,192.220,244.400,-236.060
176,82723.394000,245.190,72.282,75.776,329.645,65.296,148.841,76.220,263.400,-203.060
177,82723.415000,235.363,59.231,71.680,327.674,58.956,153.676,71.220,250.400,-122.060
178,82723.455000,227.501,59.231,77.824,328.661,61.756,155.727,76.220,240.400,-57.060
179,82723.495000,221.605,59.231,83.968,328.732,66.434,160.799,66.220,144.400,3.940
180,82723.534000,221.605,59.231,80.896,327.798,67.337,160.817,146.220,40.400,69.940
181,82723.574000,228.484,52.204,79.872,325.878,65.461,159.780,328.220,-100.600,168.940
182,82723.614000,233.397,47.184,66.560,327.788,67.220,154.847,490.220,-148.600,288.940
183,82723.634000,236.345,57.224,64.512,323.948,63.447,151.777,545.220,-121.600,409.940
184,82723.674000,249.121,58.227,68.608,332.411,59.856,149.724,495.220,-185.600,544.940
185,82723.714000,245.190,53.208,60.416,332.209,45.179,148.417,461.220,-258.600,651.940
186,82723.754000,253.052,38.149,63.488,335.915,40.453,138.375,475.220,-307.600,672.940
187,82723.795000,249.121,39.153,72.704,336.864,41.264,132.426,442.220,-289.600,508.940
188,82723.835000,225.536,23.090,68.608,337.725,35.663,126.340,461.220,-241.600,374.940
189,82723.875000,234.380,29.114,87.040,339.641,37.501,125.388,452.220,-14.600,113.940
190,82723.895000,243.225,39.153,93.184,335.836,35.677,128.327,451.220,167.400,-35.060
191,82723.935000,239.294,45.176,103.424,335.963,44.858,129.517,447.220,225.400,-66.060
192,82723.975000,224.553,45.176,93.184,332.229,48.492,130.584,531.220,273.400,-90.060
193,82724.15000,219.639,47.184,82.944,325.663,52.166,135.625,566.220,357.400,-82.060
194,82724.55000,216.691,49.192,90.112,324.806,58.586,136.755,615.220,268.400,-99.060
195,82724.103000,220.622,63.247,95.232,323.024,66.008,142.878,533.220,224.400,-80.060
196,82724.112000,208.829,79.310,104.448,322.217,76.092,144.087,450.220,160.400,-111.060
197,82724.152000,196.054,90.353,102.400,319.448,81.493,141.214,287.220,165.400,-176.060
198,82724.197000,231.432,93.365,115.712,311.850,78.761,147.112,168.220,216.400,-187.060
199,82724.233000,234.380,107.420,114.688,312.848,82.458,148.187,46.220,145.400,-183.060
200,82724.273000,214.726,118.463,112.640,312.067,94.394,150.429,-87.780,113.400,-234.060
201,82724.313000,202.933,119.467,104.448,310.130,90.763,153.333,-155.780,89.400,-260.060
202,82724.352000,198.019,124.486,113.664,307.341,94.390,153.406,-394.780,77.400,-264.060
203,82724.375000,195.071,126.494,107.520,308.283,93.584,158.363,-797.780,1.400,-210.060
204,82724.415000,188.192,121.475,113.664,310.154,91.816,160.318,-1098.780,-53.600,-202.060
205,82724.455000,194.088,106.416,106.496,306.239,81.786,165.071,-1124.780,-46.600,-155.060
206,82724.493000,203.916,99.388,115.712,308.982,74.534,166.910,-1259.780,14.400,-204.060
207,82724.533000,209.812,72.282,121.856,309.865,69.965,166.815,-1118.780,-200.600,-215.060
208,82724.574000,207.846,62.243,113.664,314.579,69.053,163.818,-960.780,-301.600,-281.060
209,82724.594000,218.656,57.224,105.472,314.444,58.995,164.599,-966.780,-297.600,-351.060
210,82724.633000,217.674,65.255,111.616,313.562,64.363,158.744,-798.780,-337.600,-316.060
211,82724.677000,218.656,63.247,108.544,317.282,59.793,156.663,-511.780,-290.600,-194.060
212,82724.715000,220.622,62.243,102.400,322.021,60.713,153.705,-475.780,-269.600,-207.060
213,82724.755000,221.605,69.271,100.352,323.760,49.705,151.484,-435.780,-210.600,-187.060
214,82724.795000,223.570,65.255,97.280,327.564,51.510,147.550,-454.780,-230.600,-162.060
215,82724.834000,221.605,64.251,100.352,326.714,58.787,145.714,-339.780,-173.600,-140.060
216,82724.854000,245.190,51.200,89.088,327.555,51.412,142.575,-138.780,-60.600,-26.060
217,82724.897000,261.896,43.169,86.016,328.637,60.703,148.742,-75.780,77.400,-46.060
218,82724.933000,214.726,28.110,83.968,332.373,57.108,149.665,22.220,72.400,-2.060
219,82724.973000,221.605,31.122,75.776,326.724,58.904,151.685,272.220,195.400,-32.060
220,82725.17000,235.363,43.169,83.968,327.724,62.620,153.754,384.220,178.400,-114.060
221,82725.54000,236.345,48.188,72.704,327.777,66.324,155.823,493.220,78.400,11.940
222,82725.73000,237.328,50.196,78.848,325.808,60.782,154.707,521.220,126.400,50.940
223,82725.115000,238.311,47.184,75.776,326.931,73.640,155.977,515.220,64.400,123.940
224,82725.155000,235.363,43.169,72.704,322.066,64.319,150.798,458.220,12.400,167.940
225,82725.198000,229.466,49.192,72.704,321.128,64.404,155.772,372.220,-35.600,193.940
226,82725.233000,231.432,42.165,70.656,323.128,72.616,152.966,283.220,-158.600,199.940
227,82725.277000,244.207,54.212,80.896,325.943,71.600,145.986,312.220,-202.600,141.940
228,82725.313000,247.155,55.216,78.848,323.079,69.731,145.942,445.220,-149.600,159.940
229,82725.333000,215.708,61.239,75.776,328.781,72.398,138.050,368.220,-229.600,227.940
230,82725.378000,220.622,75.294,79.872,325.839,64.992,135.899,270.220,-190.600,113.940
231,82725.414000,219.639,95.373,77.824,327.801,70.456,133.034,132.220,-201.600,28.940
232,82725.454000,230.449,90.353,79.872,326.923,75.862,129.169,23.220,-199.600,-36.060
233,82725.499000,233.397,94.369,88.064,326.968,79.468,126.262,-92.780,-174.600,-72.060
234,82725.535000,220.622,87.341,91.136,329.827,81.279,123.321,-170.780,-212.600,-24.060
235,82725.557000,213.743,92.361,88.064,331.663,77.561,119.266,-334.780,-218.600,-4.060
236,82725.595000,217.674,84.329,88.064,330.665,73.865,118.191,-475.780,-216.600,-1.060
237,82725.639000,226.518,79.310,89.088,329.598,65.510,113.038,-455.780,-176.600,-18.060
238,82725.673000,215.708,89.349,93.184,335.383,73.771,110.239,-456.780,-198.600,-47.060
239,82725.718000,208.829,92.361,92.160,335.280,66.403,108.093,-564.780,-225.600,-30.060
240,82725.757000,238.311,81.318,74.752,331.507,67.269,108.106,-601.780,-182.600,-50.060
241,82725.797000,226.518,72.282,91.136,334.350,68.125,103.155,-523.780,-146.600,108.940
242,82725.817000,221.605,63.247,104.448,337.102,61.750,103.023,-639.780,45.400,164.940
243,82725.857000,214.726,57.224,96.256,337.005,54.460,104.857,-428.780,30.400,208.940
244,82725.899000,209.812,48.188,101.376,338.857,51.697,102.812,-429.780,136.400,176.940
245,82725.939000,218.656,33.129,102.400,338.768,44.505,109.621,-240.780,310.400,235.940
246,82725.979000,228.484,22.086,101.376,333.920,35.379,114.393,17.220,292.400,212.940
247,82726.14000,261.896,14.055,93.184,334.025,42.766,117.534,177.220,355.400,219.940
248,82726.54000,231.432,24.094,100.352,336.788,36.528,124.368,91.220,122.400,313.940
249,82726.74000,215.708,17.067,107.520,332.921,30.123,127.210,136.220,59.400,309.940
250,82726.118000,205.881,49.192,106.496,334.799,29.212,126.199,33.220,61.400,115.940
251,82726.158000,230.449,33.129,113.664,332.771,19.130,126.976,48.220,75.400,156.940
252,82726.198000,226.518,26.102,114.688,332.796,20.962,127.015,-6.780,-34.600,124.940
253,82726.238000,228.484,20.078,100.352,336.590,21.889,125.051,-231.780,-23.600,-82.060
254,82726.278000,234.380,16.063,106.496,333.670,15.517,128.889,-281.780,33.400,-161.060
255,82726.298000,236.345,24.094,113.664,335.650,21.954,129.029,-260.780,17.400,-281.060
256,82726.338000,226.518,21.082,89.088,336.673,27.483,130.143,-194.780,-75.600,-354.060
257,82726.377000,232.415,22.086,91.136,336.736,32.064,130.241,-266.780,99.400,-447.060
258,82726.418000,212.760,28.110,91.136,333.886,31.130,131.211,-265.780,59.400,-591.060
259,82726.458000,249.121,43.169,97.280,336.908,44.091,136.465,-242.780,126.400,-590.060
260,82726.498000,235.363,50.196,74.752,333.111,43.125,136.439,-361.780,-97.600,-515.060
261,82726.518000,231.432,64.251,55.296,334.230,55.943,135.718,-434.780,-184.600,-526.060
262,82726.558000,238.311,62.243,60.416,333.282,55.911,134.722,-474.780,-191.600,-430.060
263,82726.598000,237.328,40.157,66.560,337.070,56.761,128.778,-377.780,-338.600,-309.060
264,82726.638000,245.190,73.286,60.416,334.289,61.245,125.885,-81.780,-336.600,-357.060
265,82726.678000,239.294,80.314,59.392,338.979,59.280,115.904,130.220,-384.600,-115.060
266,82726.718000,234.380,66.259,49.152,339.979,63.776,111.028,173.220,-391.600,37.940
267,82726.758000,244.207,69.271,40.960,340.937,65.464,103.108,155.220,-295.600,93.940
268,82726.785000,242.242,66.259,63.488,338.993,61.755,102.031,131.220,-264.600,186.940
269,82726.814000,241.259,66.259,57.344,342.804,64.417,95.131,324.220,-215.600,311.940
270,82726.855000,231.432,63.247,53.248,343.598,53.417,93.904,307.220,-155.600,381.940
271,82726.897000,231.432,42.165,50.176,346.475,56.202,93.967,234.220,-11.600,459.940
272,82726.937000,232.415,47.184,71.680,343.498,46.087,93.748,193.220,141.400,415.940
273,82726.977000,256.983,45.176,78.848,341.559,42.437,95.656,336.220,278.400,476.940
274,82727.17000,237.328,39.153,88.064,341.547,40.761,103.578,407.220,319.400,433.940
275,82727.37000,226.518,34.133,87.040,333.876,32.552,110.354,411.220,349.400,381.940
276,82727.77000,238.311,25.098,82.944,334.843,33.578,115.351,416.220,315.400,325.940
277,82727.117000,229.466,42.165,96.256,334.805,30.051,122.238,303.220,367.400,213.940
278,82727.163000,227.501,40.157,107.520,331.978,30.929,122.252,197.220,268.400,210.940
279,82727.199000,214.726,23.090,101.376,330.157,35.582,127.322,184.220,124.400,211.940
280,82727.238000,211.777,23.090,93.184,326.284,29.119,127.179,211.220,115.400,162.940
281,82727.258000,264.845,23.090,107.520,327.203,26.501,133.092,201.220,305.400,94.940
282,82727.298000,230.449,47.184,137.216,324.370,26.541,137.067,207.220,232.400,36.940
283,82727.338000,204.898,43.169,122.880,324.409,28.530,145.067,225.220,207.400,28.940
284,82727.378000,202.933,50.196,112.640,319.701,30.280,144.102,93.220,196.400,-94.060
285,82727.418000,199.985,53.208,110.592,317.900,36.726,147.221,-309.780,169.400,-275.060
286,82727.458000,204.898,43.169,113.664,317.968,41.366,150.304,-470.780,128.400,-361.060
287,82727.500000,213.743,51.200,115.712,314.209,43.167,151.331,-500.780,43.400,-416.060
288,82727.515000,222.587,49.192,111.616,317.984,42.321,152.313,-508.780,-47.600,-394.060
289,82727.555000,251.086,45.176,108.544,318.020,45.050,151.377,-430.780,-43.600,-375.060
290,82727.595000,203.916,58.227,110.592,314.269,47.709,149.439,-309.780,-161.600,-263.060
291,82727.635000,197.036,55.216,112.640,319.048,51.417,148.530,-61.780,-229.600,-196.060
292,82727.677000,209.812,66.259,112.640,318.940,43.990,143.398,-122.780,-84.600,-175.060
293,82727.717000,214.726,61.239,124.928,319.056,52.274,145.564,-147.780,-26.600,-144.060
294,82727.735000,219.639,65.255,120.832,319.972,50.396,142.542,69.220,-74.600,-28.060
295,82727.777000,216.691,55.216,100.352,320.010,53.144,142.600,79.220,-173.600,-17.060
296,82727.817000,219.639,61.239,100.352,320.951,53.098,139.617,27.220,-245.600,-5.060
297,82727.858000,224.553,58.227,104.448,327.544,51.275,135.609,-8.780,-241.600,62.940
298,82727.899000,221.605,54.212,99.328,328.307,38.364,130.362,44.220,-251.600,151.940
299,82727.940000,229.466,55.216,84.992,329.298,41.983,127.457,5.220,-238.600,160.940
300,82727.975000,241.259,46.180,79.872,330.285,44.783,129.507,132.220,-186.600,195.940
301,82727.995000,252.069,47.184,76.800,333.912,33.742,124.304,203.220,-190.600,261.940
302,82728.42000,271.724,50.196,74.752,335.798,33.689,120.328,222.220,-8.600,323.940
303,82728.80000,233.397,28.110,75.776,338.579,29.204,123.220,335.220,-20.600,441.940
304,82728.119000,241.259,26.102,54.272,338.433,19.029,118.030,392.220,-80.600,434.940
305,82728.159000,238.311,30.118,55.296,333.652,15.302,117.944,408.220,-45.600,395.940
306,82728.199000,239.294,20.078,46.080,339.394,19.977,119.046,384.220,-16.600,259.940
307,82728.219000,246.173,22.086,44.032,334.575,13.502,118.901,275.220,-51.600,174.940
308,82728.259000,243.225,16.063,36.864,339.346,16.332,119.963,137.220,-115.600,46.940
309,82728.297000,233.397,20.078,35.840,338.343,12.577,115.903,11.220,-75.600,-87.060
310,82728.337000,264.845,18.071,37.888,339.378,19.022,117.037,-18.780,3.400,-139.060
311,82728.377000,268.775,25.098,54.272,336.577,21.733,117.090,-158.780,39.400,-187.060
312,82728.422000,236.345,37.145,56.320,338.511,25.325,112.196,-232.780,-53.600,-354.060
313,82728.463000,249.121,36.141,71.680,337.607,28.119,115.238,-221.780,45.400,-312.060
314,82728.482000,231.432,44.173,59.392,335.831,37.158,110.455,-272.780,-109.600,-309.060
315,82728.520000,235.363,36.141,58.368,333.915,35.320,111.408,-354.780,-47.600,-293.060
316,82728.558000,246.173,46.180,70.656,338.622,33.550,111.377,-462.780,9.400,-263.060
317,82728.598000,241.259,45.176,77.824,335.001,45.430,112.619,-444.780,111.400,-246.060
318,82728.638000,231.432,42.165,79.872,334.045,44.540,114.588,-422.780,57.400,-235.060
319,82728.678000,237.328,57.224,89.088,333.147,48.173,113.669,-294.780,76.400,-205.060
320,82728.698000,226.518,61.239,91.136,332.249,51.026,119.697,-98.780,173.400,-133.060
321,82728.738000,225.536,50.196,95.232,330.353,50.962,117.703,-172.780,123.400,-92.060
322,82728.778000,223.570,63.247,105.472,330.272,44.627,121.547,-148.780,219.400,-80.060
323,82728.818000,213.743,63.247,117.760,327.614,56.714,132.741,-46.780,286.400,-46.060
324,82728.858000,240.276,65.255,118.784,322.829,52.947,130.665,-53.780,358.400,-92.060
325,82728.899000,210.795,60.235,135.168,325.784,60.509,140.776,-83.780,305.400,29.940
326,82728.939000,199.985,47.184,124.928,321.001,56.763,139.695,-114.780,235.400,117.940
327,82728.959000,228.484,37.145,132.096,320.945,52.260,143.577,-152.780,284.400,133.940
328,82728.999000,206.864,40.157,131.072,318.120,53.158,144.587,76.220,117.400,183.940
329,82729.39000,213.743,36.141,129.024,321.889,51.474,149.530,234.220,142.400,234.940
330,82729.79000,207.846,33.129,123.904,317.067,44.959,147.395,290.220,82.400,258.940
331,82729.119000,216.691,27.106,110.592,317.031,42.230,148.331,266.220,67.400,270.940
332,82729.159000,210.795,29.114,124.928,320.827,43.177,147.363,347.220,-71.600,303.940
333,82729.179000,199.985,40.157,122.880,323.539,34.033,146.177,423.220,-26.600,226.940
334,82729.219000,222.587,33.129,125.952,320.774,39.473,145.294,238.220,98.400,162.940
335,82729.258000,213.743,29.114,122.880,319.837,39.578,151.263,134.220,65.400,158.940
336,82729.298000,215.708,28.110,118.784,322.593,34.021,146.176,-155.780,-54.600,44.940
337,82729.345000,222.587,27.106,118.784,323.489,30.369,146.099,-130.780,-111.600,36.940
338,82729.384000,217.674,35.137,112.640,321.670,35.821,145.218,-68.780,-150.600,32.940
339,82729.418000,227.501,30.118,110.592,319.649,26.596,143.029,-185.780,-41.600,-69.060
340,82729.438000,232.415,36.141,128.000,326.348,32.180,143.158,-252.780,-34.600,-131.060
341,82729.478000,231.432,28.110,109.568,324.366,25.723,142.023,-465.780,-68.600,-234.060
342,82729.518000,226.518,42.165,105.472,328.148,25.734,140.040,-620.780,-59.600,-286.060
343,82729.560000,238.311,48.188,96.256,326.304,29.354,139.119,-781.780,-54.600,-258.060
344,82729.600000,213.743,51.200,106.496,330.066,27.591,140.082,-1251.780,-116.600,-427.060
345,82729.640000,271.724,45.176,75.776,328.153,25.792,143.025,-1412.780,195.400,-451.060
346,82729.660000,224.553,30.118,101.376,329.074,23.972,142.987,-1784.780,25.400,-544.060
347,82729.700000,235.363,39.153,64.512,332.844,23.067,140.984,-2059.780,-125.600,-721.060
348,82729.748000,218.656,21.082,87.040,331.799,15.745,141.822,-1980.780,92.400,-605.060
349,82729.780000,238.311,30.118,81.920,332.794,19.403,140.906,-1974.780,-99.600,-675.060
350,82729.824000,234.380,5.020,88.064,334.578,12.001,135.778,-1834.780,-212.600,-621.060
351,82729.864000,236.345,10.039,87.040,336.545,18.283,127.958,-1311.780,-237.600,-502.060
352,82729.898000,228.484,18.071,93.184,335.611,19.187,127.976,-700.780,-378.600,-382.060
353,82729.925000,290.395,41.161,83.968,338.462,20.900,120.059,-307.780,-109.600,-236.060
354,82729.958000,230.449,20.078,67.584,337.505,20.771,114.087,-320.780,-492.600,-129.060
355,82729.998000,236.345,10.039,99.328,344.139,21.735,112.128,-82.780,-130.600,42.940
356,82730.38000,212.760,1.004,99.328,336.490,16.099,110.008,-75.780,-212.600,44.940
357,82730.78000,218.656,2.008,86.016,338.447,20.725,111.104,-10.780,-3.600,49.940
358,82730.118000,226.518,-6.024,112.640,338.358,14.292,109.972,78.220,146.400,102.940
359,82730.158000,231.432,-3.012,130.048,339.312,14.402,114.949,50.220,142.400,115.940
360,82730.178000,208.829,-6.024,116.736,333.730,20.838,120.051,40.220,104.400,66.940
361,82730.218000,232.415,2.008,97.280,333.677,17.134,117.983,74.220,60.400,63.940
362,82730.258000,218.656,-11.043,118.784,331.738,13.484,119.891,147.220,24.400,83.940
363,82730.302000,218.656,-5.020,117.760,330.815,15.284,118.934,127.220,3.400,-8.060
364,82730.342000,218.656,0.000,128.000,331.828,19.936,122.018,104.220,61.400,36.940
365,82730.382000,224.553,-9.035,117.760,330.809,14.446,122.895,51.220,-12.600,104.940
366,82730.402000,254.035,-19.075,143.360,329.884,16.227,120.942,84.220,79.400,88.940
367,82730.442000,208.829,-2.008,137.216,326.090,15.299,122.906,88.220,14.400,10.940
368,82730.482000,201.950,-1.004,137.216,329.891,16.305,124.922,47.220,110.400,-26.060
369,82730.522000,211.777,5.020,136.192,323.300,18.147,129.925,23.220,166.400,-94.060
370,82730.562000,209.812,3.012,140.288,329.976,21.918,131.009,-1.780,133.400,-103.060
371,82730.602000,204.898,6.024,123.904,324.185,13.598,130.824,-115.780,62.400,-153.060
372,82730.638000,210.795,10.039,118.784,328.112,23.765,133.035,-146.780,106.400,-214.060
373,82730.658000,204.898,15.059,126.976,327.129,21.023,133.970,-49.780,-5.600,-180.060
374,82730.698000,254.035,18.071,117.760,325.262,22.831,134.006,-83.780,97.400,-139.060
375,82730.738000,199.002,16.063,141.312,324.381,27.438,136.092,-192.780,-49.600,-133.060
376,82730.778000,190.157,14.055,122.880,327.242,29.269,134.146,-272.780,-84.600,-113.060
377,82730.818000,215.708,7.027,139.264,327.176,24.649,132.058,-149.780,138.400,70.940
378,82730.858000,213.743,8.031,139.264,327.176,24.649,132.058,-156.780,17.400,121.940
379,82730.878000,218.656,8.031,133.120,326.172,20.114,134.944,-76.780,14.400,151.940
380,82730.924000,226.518,12.047,120.832,327.988,14.623,133.835,-20.780,-13.600,98.940
381,82730.962000,223.570,7.027,121.856,331.834,19.234,132.944,35.220,-70.600,92.940
382,82730.999000,217.674,6.024,107.520,331.724,11.788,126.818,70.220,-33.600,111.940
383,82731.44000,220.622,7.027,104.448,330.835,15.518,130.874,185.220,-25.600,161.940
384,82731.82000,220.622,3.012,96.256,331.765,14.575,128.867,345.220,-12.600,195.940
385,82731.120000,251.086,7.027,102.400,331.768,14.614,130.857,457.220,117.400,206.940
386,82731.139000,268.775,14.055,110.592,329.768,6.403,133.663,447.220,105.400,272.940
387,82731.179000,225.536,7.027,95.232,330.736,8.209,131.713,342.220,23.400,305.940
388,82731.219000,233.397,2.008,100.352,328.752,0.952,136.529,382.220,102.400,338.940
389,82731.259000,224.553,3.012,103.424,327.827,2.733,134.576,464.220,-34.600,282.940
390,82731.299000,226.518,4.016,87.040,331.602,1.886,135.559,475.220,-59.600,222.940
391,82731.339000,237.328,-2.008,87.040,332.537,1.002,136.536,547.220,-115.600,221.940
392,82731.359000,230.449,-7.027,80.896,328.734,-0.023,133.525,717.220,-185.600,222.940
393,82731.403000,227.501,-11.043,84.992,332.551,2.698,129.610,911.220,-113.600,114.940
394,82731.443000,240.276,2.008,77.824,327.871,6.319,130.674,1249.220,-112.600,45.940
395,82731.483000,251.086,31.122,96.256,329.831,10.983,133.760,1166.220,-18.600,4.940
396,82731.520000,213.743,38.149,93.184,330.970,25.576,130.094,1162.220,-239.600,-83.060
397,82731.563000,212.760,27.106,95.232,329.078,25.551,130.091,979.220,144.400,-178.060
398,82731.600000,222.587,53.208,108.544,325.533,42.947,132.445,733.220,152.400,-199.060
399,82731.623000,236.345,61.239,104.448,326.526,46.585,130.535,249.220,-4.600,-291.060
400,82731.659000,231.432,54.212,103.424,323.771,52.141,135.622,149.220,85.400,-289.060
401,82731.699000,207.846,61.239,100.352,320.894,49.356,135.558,244.220,-7.600,-238.060
402,82731.739000,204.898,67.263,102.400,321.998,61.219,132.829,261.220,-54.600,-200.060
403,82731.779000,218.656,63.247,101.376,322.971,63.083,133.864,224.220,14.400,-147.060
404,82731.819000,215.708,68.267,115.712,322.159,73.109,132.087,335.220,-0.600,-73.060
405,82731.839000,222.587,76.298,117.760,321.255,75.904,135.129,210.220,52.400,-58.060
406,82731.879000,223.570,71.278,125.952,320.368,80.433,133.235,172.220,38.400,-21.060
407,82731.920000,243.225,70.275,126.976,316.542,77.596,131.180,311.220,84.400,32.940
408,82731.960000,199.985,64.251,145.408,318.477,80.428,134.227,297.220,144.400,151.940
409,82732.0,190.157,57.224,125.952,317.473,75.893,137.113,289.220,105.400,277.940
410,82732.63000,216.691,56.220,119.808,314.543,68.624,141.927,242.220,307.400,294.940
411,82732.79000,201.950,65.255,136.192,314.588,72.230,139.020,415.220,144.400,365.940
412,82732.103000,207.846,48.188,133.120,315.498,69.514,139.958,381.220,194.400,387.940
413,82732.140000,200.967,49.192,133.120,313.576,66.838,144.871,287.220,146.400,405.940
414,82732.180000,215.708,39.153,109.568,318.244,62.300,143.787,315.220,16.400,373.940
415,82732.220000,250.104,36.141,103.424,316.280,56.817,145.657,203.220,111.400,349.940
416,82732.269000,223.570,43.169,125.952,316.148,47.578,141.481,297.220,-54.600,376.940
417,82732.302000,202.933,41.161,116.736,318.987,47.615,141.486,359.220,2.400,327.940
418,82732.328000,217.674,39.153,123.904,320.822,43.118,144.377,194.220,65.400,226.940
419,82732.360000,204.898,28.110,112.640,320.783,40.350,143.324,32.220,-130.600,141.940
420,82732.400000,218.656,31.122,113.664,324.602,43.110,141.399,-91.780,-88.600,7.940
421,82732.440000,228.484,33.129,115.712,326.470,41.302,141.363,-65.780,-102.600,-34.060
422,82732.480000,223.570,31.122,115.712,322.681,41.213,139.366,-31.780,-53.600,-96.060
423,82732.520000,222.587,34.133,109.568,325.598,46.787,141.479,39.220,-23.600,-188.060
424,82732.560000,225.536,41.161,106.496,324.602,43.110,141.399,-67.780,53.400,-328.060
425,82732.580000,231.432,51.200,108.544,324.745,53.246,144.599,-190.780,88.400,-381.060
426,82732.620000,239.294,56.220,105.472,321.926,54.982,141.648,-195.780,-2.600,-350.060
427,82732.660000,240.276,64.251,97.280,322.919,58.620,139.737,-433.780,-57.600,-575.060
428,82732.704000,245.190,58.227,101.376,322.107,67.886,145.901,-347.780,-23.600,-463.060
429,82732.744000,220.622,58.227,101.376,322.113,68.724,141.940,-233.780,-128.600,-249.060
430,82732.784000,220.622,60.235,79.872,320.206,67.763,140.922,-262.780,-190.600,-204.060
431,82732.804000,225.536,59.231,79.872,324.960,69.619,138.980,-271.780,-197.600,-182.060
432,82732.844000,226.518,59.231,81.920,326.911,74.186,137.090,-134.780,-215.600,-94.060
433,82732.884000,229.466,65.255,73.728,326.823,68.533,129.013,-80.780,-250.600,-54.060
434,82732.924000,232.415,59.231,64.512,325.927,72.185,129.089,-6.780,-238.600,15.940
435,82732.964000,237.328,55.216,58.368,327.736,66.615,124.000,12.220,-206.600,27.940
436,82733.4000,226.518,58.227,61.440,328.752,72.066,121.134,46.220,-173.600,48.940
437,82733.40000,243.225,52.204,67.584,330.606,69.323,120.084,147.220,-179.600,238.940
438,82733.60000,269.758,55.216,71.680,329.645,68.375,119.067,268.220,21.400,295.940
439,82733.100000,222.587,53.208,80.896,327.726,66.498,118.030,222.220,-10.600,320.940
440,82733.159000,218.656,46.180,70.656,327.590,56.440,118.810,239.220,0.400,321.940
441,82733.189000,230.449,46.180,81.920,329.461,54.672,120.765,441.220,191.400,307.940
442,82733.229000,212.760,46.180,108.544,332.266,52.000,122.701,392.220,210.400,265.940
443,82733.262000,224.553,40.157,100.352,326.682,58.416,126.808,344.220,221.400,235.940
444,82733.282000,229.466,41.161,101.376,322.865,55.676,129.728,349.220,206.400,224.940
445,82733.322000,227.501,49.192,112.640,321.898,53.890,132.673,396.220,185.400,198.940
446,82733.362000,207.846,48.188,118.784,320.042,55.834,139.674,351.220,141.400,196.940
447,82733.408000,214.726,43.169,115.712,320.908,51.051,128.632,260.220,121.400,141.940
448,82733.440000,221.605,37.145,113.664,320.974,54.911,138.661,78.220,156.400,117.940
449,82733.487000,264.845,54.212,137.216,314.387,56.792,145.653,-104.780,409.400,-76.060
450,82733.528000,203.916,59.231,133.120,315.274,52.263,147.548,193.220,190.400,-52.060
451,82733.548000,206.864,70.275,143.360,310.699,63.272,151.754,-42.780,287.400,-199.060
452,82733.582000,204.898,68.267,138.240,308.810,63.286,153.741,-276.780,173.400,-319.060
453,82733.622000,199.002,60.235,129.024,307.944,68.829,156.841,-468.780,-22.600,-436.060
454,82733.663000,199.985,63.247,122.880,302.217,65.109,157.748,-587.780,-57.600,-500.060
455,82733.703000,200.967,64.251,131.072,307.065,73.456,159.922,-457.780,-79.600,-439.060
456,82733.742000,203.916,60.235,115.712,305.133,70.663,158.865,-293.780,-152.600,-306.060
457,82733.790000,206.864,65.255,118.784,305.228,77.933,156.036,-296.780,-102.600,-273.060
458,82733.803000,219.639,67.263,126.976,305.262,80.643,154.105,-158.780,-104.600,-176.060
459,82733.850000,191.140,74.290,108.544,305.256,80.565,150.124,44.220,-309.600,-95.060
460,82733.882000,193.106,76.298,115.712,308.075,79.608,146.130,7.220,-142.600,-42.060
461,82733.925000,226.518,79.310,125.952,310.930,80.601,148.144,-101.780,82.400,-47.060
462,82733.963000,207.846,81.318,133.120,310.841,74.168,147.013,-50.780,-43.600,17.940
463,82734.4000,208.829,74.290,119.808,311.791,74.220,149.004,14.220,-4.600,53.940
464,82734.22000,219.639,63.247,114.688,314.551,68.721,146.902,36.220,-36.600,46.940
465,82734.67000,209.812,60.235,118.784,312.744,75.090,146.040,204.220,-58.600,100.940
466,82734.102000,218.656,54.212,97.280,310.800,71.381,144.964,450.220,-66.600,76.940
467,82734.144000,229.466,52.204,80.896,317.569,82.403,142.225,718.220,31.400,150.940
468,82734.184000,231.432,70.275,73.728,315.592,76.005,144.075,903.220,65.400,168.940
469,82734.223000,249.121,71.278,87.040,315.612,77.778,141.129,914.220,185.400,252.940
470,82734.262000,253.052,81.318,99.328,313.800,83.309,144.228,848.220,240.400,279.940
471,82734.283000,237.328,66.259,80.896,316.580,78.804,146.125,750.220,255.400,423.940
472,82734.323000,224.553,65.255,93.184,311.914,83.362,148.205,498.220,261.400,347.940
473,82734.363000,216.691,57.224,83.968,317.513,77.121,153.053,466.220,161.400,348.940
474,82734.403000,224.553,45.176,81.920,316.541,75.277,153.013,437.220,118.400,375.940
475,82734.442000,226.518,36.141,82.944,313.622,69.684,149.905,429.220,-77.600,281.940
476,82734.482000,227.501,38.149,71.680,317.451,73.320,146.010,367.220,-201.600,209.940
477,82734.507000,227.501,43.169,64.512,321.185,70.466,137.997,250.220,-320.600,140.940
478,82734.542000,287.447,51.200,57.344,322.203,75.936,136.126,186.220,-237.600,42.940
479,82734.583000,236.345,61.239,63.488,323.125,74.896,129.143,-26.780,-452.600,-2.060
480,82734.624000,254.035,65.255,79.872,325.026,75.778,126.181,81.220,-222.600,-41.060
481,82734.662000,230.449,66.259,72.704,322.189,76.540,120.225,-46.780,-298.600,-10.060
482,82734.705000,220.622,61.239,54.272,326.955,79.312,118.302,-90.780,-233.600,-75.060
483,82734.745000,224.553,66.259,60.416,318.371,74.560,115.204,-51.780,-19.600,-73.060
484,82734.762000,230.449,72.282,77.824,322.227,80.068,113.337,38.220,-0.600,-163.060
485,82734.803000,215.708,85.333,80.896,322.252,81.900,113.376,-7.780,66.400,-161.060
486,82734.843000,220.622,94.369,79.872,321.338,83.798,117.394,51.220,113.400,-120.060
487,82734.883000,222.587,88.345,83.968,315.712,87.407,118.457,59.220,146.400,-94.060
488,82734.923000,224.553,91.357,97.280,315.779,92.046,121.540,48.220,247.400,-83.060
489,82734.963000,219.639,90.353,95.232,311.089,94.771,123.580,99.220,174.400,-20.060
490,82734.983000,206.864,88.345,93.184,312.947,92.087,125.515,95.220,153.400,-17.060
491,82735.23000,245.190,97.380,113.664,313.047,99.416,125.671,61.220,231.400,-100.060
492,82735.63000,206.864,94.369,124.928,313.987,98.590,129.634,144.220,239.400,-22.060
493,82735.103000,191.140,84.329,114.688,310.268,103.160,131.715,161.220,264.400,34.940
494,82735.143000,211.777,81.318,117.760,309.246,96.871,138.542,37.220,321.400,37.940
495,82735.183000,199.002,81.318,121.856,307.430,102.362,139.651,159.220,238.400,134.940
496,82735.223000,199.985,72.282,118.784,307.407,100.550,140.607,279.220,231.400,229.940
497,82735.243000,202.933,67.263,111.616,306.442,98.783,144.546,297.220,193.400,302.940
498,82735.283000,219.639,61.239,93.184,306.376,94.163,142.458,226.220,135.400,307.940
499,82735.323000,223.570,75.294,112.640,310.159,93.414,148.416,83.220,129.400,265.940
500,82735.363000,196.054,63.247,107.520,310.021,83.337,148.201,311.220,96.400,320.940
501,82735.403000,186.226,70.275,108.544,309.991,81.446,145.177,236.220,178.400,154.940
502,82735.443000,213.743,71.278,123.904,309.110,85.273,154.209,68.220,191.400,102.940
503,82735.463000,220.622,66.259,118.784,308.096,80.622,151.125,3.220,137.400,60.940
504,82735.503000,223.570,59.231,117.760,301.490,81.509,154.118,32.220,71.400,119.940
505,82735.543000,216.691,67.263,116.736,308.974,75.216,154.989,33.220,18.400,114.940
506,82735.583000,217.674,61.239,116.736,308.004,73.390,155.944,87.220,-15.600,113.940
507,82735.623000,219.639,58.227,116.736,308.927,71.590,156.901,46.220,-19.600,51.940
508,82735.663000,222.587,61.239,114.688,307.945,68.849,157.836,26.220,-42.600,13.940
509,82735.703000,215.708,63.247,109.568,312.713,71.640,156.908,30.220,-64.600,-22.060
510,82735.740000,228.484,63.247,113.664,308.054,77.055,156.022,-52.780,-41.600,-122.060
511,82735.763000,243.225,63.247,94.208,307.951,69.687,153.876,-86.780,-43.600,-177.060
512,82735.804000,230.449,77.302,96.256,309.027,78.919,157.057,-241.780,-73.600,-269.060
513,82735.844000,217.674,66.259,76.800,308.012,74.248,152.978,-277.780,-158.600,-229.060
514,82735.884000,216.691,57.224,72.704,314.709,79.813,152.112,-141.780,-275.600,-98.060
515,82735.924000,221.605,62.243,57.344,315.554,72.477,150.962,-91.780,-168.600,-6.060
516,82735.964000,235.363,51.200,63.488,316.581,78.824,147.120,-89.780,-137.600,136.940
517,82735.984000,239.294,61.239,64.512,316.533,75.179,148.037,-110.780,-226.600,243.940
518,82736.24000,237.328,52.204,47.104,320.210,67.802,142.913,-104.780,-285.600,316.940
519,82736.64000,248.138,41.161,50.176,320.112,61.272,136.806,-78.780,-295.600,336.940
520,82736.104000,280.568,39.153,56.320,323.782,53.038,134.646,175.220,-112.600,328.940
521,82736.152000,240.276,31.122,58.368,325.610,48.463,133.557,439.220,-98.600,436.940
522,82736.184000,242.242,35.137,74.752,324.673,49.327,131.585,558.220,78.400,319.940
523,82736.204000,247.155,13.051,68.608,322.882,56.651,132.733,690.220,114.400,335.940
524,82736.244000,239.294,34.133,78.848,322.850,53.961,135.659,747.220,280.400,161.940
525,82736.284000,219.639,48.188,91.136,320.175,65.853,136.903,789.220,362.400,6.940
526,82736.324000,215.708,53.208,89.088,318.328,68.674,141.934,765.220,310.400,-33.060
527,82736.364000,223.570,44.173,76.800,315.573,75.010,140.075,756.220,208.400,17.940
528,82736.404000,218.656,59.231,88.064,315.512,70.449,140.973,706.220,209.400,-8.060
529,82736.444000,219.639,78.306,101.376,309.093,85.078,144.258,614.220,219.400,-64.060
530,82736.464000,224.553,91.357,110.592,306.254,85.041,144.253,457.220,220.400,-107.060
531,82736.504000,206.864,62.243,98.304,301.655,94.218,148.420,383.220,215.400,-57.060
532,82736.545000,244.207,75.294,104.448,298.867,97.864,149.489,467.220,331.400,-73.060
533,82736.585000,214.726,112.439,122.880,298.996,107.065,151.674,431.220,335.400,-268.060
534,82736.625000,196.054,121.475,121.856,293.334,107.945,153.673,270.220,260.400,-343.060
535,82736.665000,178.365,122.478,114.688,290.689,121.727,157.941,2.220,220.400,-423.060
536,82736.685000,189.175,145.569,112.640,287.860,121.807,163.907,-598.780,73.400,-539.060
537,82736.725000,176.399,129.506,113.664,285.076,125.492,166.965,-1098.780,30.400,-650.060
538,82736.765000,207.846,133.522,141.312,279.472,130.135,174.018,-1573.780,176.400,-781.060
539,82736.805000,177.382,125.490,123.904,277.457,120.208,182.755,-1626.780,102.400,-739.060
540,82736.845000,188.192,123.482,133.120,269.808,113.033,195.522,-1834.780,354.400,-711.060
541,82736.885000,236.345,103.404,133.120,266.886,105.861,205.311,-1800.780,265.400,-702.060
542,82736.925000,155.762,77.302,101.376,259.151,92.292,218.936,-1582.780,323.400,-455.060
543,82736.945000,152.814,85.333,190.464,258.233,93.372,227.909,-1502.780,668.400,-569.060
544,82736.987000,164.607,70.275,179.200,248.555,76.113,241.452,-1669.780,547.400,-585.060
545,82737.28000,162.641,30.118,182.272,243.725,67.962,249.229,-1466.780,534.400,-509.060
546,82737.68000,177.382,33.129,182.272,234.112,56.083,256.919,-963.780,381.400,-456.060
547,82737.107000,166.572,31.122,181.248,236.027,57.141,262.912,-726.780,273.400,-457.060
548,82737.147000,170.503,35.137,188.416,231.296,57.079,262.904,-385.780,181.400,-330.060
549,82737.167000,165.589,49.192,189.440,233.117,51.646,264.780,-60.780,127.400,-182.060
550,82737.207000,186.226,51.200,195.584,231.267,54.428,267.821,33.220,198.400,-138.060
551,82737.247000,179.347,40.157,187.392,229.388,55.339,268.832,45.220,257.400,-86.060
552,82737.285000,153.797,15.059,179.200,226.572,56.334,274.817,196.220,211.400,96.940
553,82737.325000,179.347,22.086,194.560,224.672,55.452,277.779,402.220,295.400,204.940
554,82737.367000,178.365,37.145,188.416,221.970,65.492,277.989,567.220,282.400,223.940
555,82737.408000,173.451,41.161,184.320,215.362,66.359,279.987,460.220,170.400,220.940
556,82737.427000,175.417,54.212,189.440,217.303,70.029,279.073,313.220,120.400,217.940
557,82737.467000,173.451,47.184,176.128,213.480,67.231,279.008,86.220,-62.600,159.940
558,82737.507000,157.727,61.239,188.416,218.221,68.171,277.046,-93.780,-99.600,120.940
559,82737.547000,157.727,53.208,180.224,220.054,63.654,278.941,-412.780,-230.600,187.940
560,82737.585000,185.244,50.196,201.728,224.593,49.916,275.672,-955.780,-279.600,195.940
561,82737.627000,153.797,7.027,196.608,228.286,43.495,272.557,-719.780,-383.600,14.940
562,82737.647000,167.555,-8.031,221.184,238.710,45.347,266.644,102.220,-515.600,-344.060
563,82737.690000,126.280,27.106,177.152,239.790,56.158,256.929,804.220,-766.600,-470.060
564,82737.727000,160.676,67.263,151.552,241.798,65.227,251.157,845.220,-823.600,-538.060
565,82737.768000,172.468,114.447,163.840,255.304,85.362,241.659,390.220,-512.600,-494.060
566,82737.809000,181.313,118.463,175.104,259.046,83.365,230.681,-128.780,-473.600,-290.060
567,82737.849000,177.382,96.376,164.864,261.015,89.667,223.856,-502.780,-635.600,-237.060
568,82737.890000,164.607,69.271,153.600,269.500,87.869,219.852,-541.780,-629.600,-230.060
569,82737.905000,193.106,63.247,151.552,271.309,82.299,214.763,-466.780,-603.600,-142.060
570,82737.947000,184.261,59.231,157.696,277.856,77.631,205.721,-462.780,-525.600,-211.060
571,82737.987000,186.226,57.224,166.912,282.679,84.925,200.910,-200.780,-425.600,-151.060
572,82738.27000,190.157,58.227,167.936,283.594,83.027,196.893,-44.780,-327.600,-165.060
573,82738.67000,177.382,71.278,156.672,284.607,88.438,192.036,95.220,-221.600,-178.060
574,82738.107000,198.019,71.278,184.320,285.621,93.870,188.175,128.220,-80.600,-119.060
575,82738.128000,166.572,73.286,153.600,287.511,93.856,186.188,136.220,-163.600,24.940
576,82738.168000,202.933,46.180,161.792,286.539,92.011,186.147,54.220,-62.600,179.940
577,82738.208000,186.226,59.231,156.672,288.413,91.042,182.151,190.220,-78.600,279.940
578,82738.248000,182.296,62.243,145.408,290.254,87.383,181.081,332.220,-53.600,422.940
579,82738.297000,183.278,61.239,144.384,294.818,75.477,177.851,341.220,-16.600,510.940
580,82738.325000,183.278,56.220,154.624,294.860,78.284,180.894,222.220,-5.600,540.940
581,82738.368000,206.864,26.102,155.648,298.405,60.888,178.540,304.220,-38.600,610.940
582,82738.389000,193.106,37.145,136.192,297.498,63.644,179.592,328.220,-95.600,486.940
583,82738.429000,199.985,31.122,121.856,302.180,60.821,172.576,460.220,-146.600,484.940
584,82738.469000,196.054,38.149,146.432,305.887,55.335,170.476,491.220,-109.600,435.940
585,82738.509000,186.226,40.157,153.600,306.753,49.793,167.375,384.220,-186.600,366.940
586,82738.549000,220.622,47.184,161.792,310.473,45.223,165.294,101.220,-179.600,188.940
587,82738.589000,208.829,37.145,153.600,311.358,40.674,166.193,179.220,-162.600,223.940
588,82738.610000,211.777,28.110,128.000,313.242,40.602,161.221,210.220,-175.600,171.940
589,82738.645000,224.553,26.102,122.880,317.017,40.535,155.258,42.220,-228.600,43.940
590,82738.693000,229.466,41.161,114.688,319.899,43.379,158.306,4.220,-255.600,-76.060
591,82738.733000,231.432,34.133,105.472,318.957,44.185,153.349,-28.780,-285.600,-172.060
592,82738.774000,236.345,42.165,97.280,319.034,50.481,147.515,-103.780,-274.600,-372.060
593,82738.807000,216.691,56.220,99.328,322.818,50.511,146.527,-357.780,-290.600,-531.060
594,82738.847000,265.827,54.212,102.400,323.939,63.350,146.802,-623.780,-155.600,-739.060
595,82738.867000,227.501,53.208,98.304,322.024,62.291,140.809,-630.780,-244.600,-640.060
596,82738.907000,221.605,58.227,76.800,320.281,73.260,141.040,-486.780,-238.600,-533.060
597,82738.948000,222.587,55.216,64.512,322.103,68.607,135.970,-603.780,-330.600,-426.060
598,82738.988000,230.449,47.184,63.488,325.957,74.076,132.114,-459.780,-306.600,-341.060
599,82739.28000,228.484,61.239,79.872,324.956,70.340,129.049,-257.780,-276.600,-161.060
600,82739.68000,234.380,55.216,81.920,330.705,75.873,127.186,-126.780,-268.600,22.940
601,82739.88000,234.380,64.251,76.800,329.738,74.847,122.189,-43.780,-246.600,104.940
602,82739.129000,245.190,62.243,72.704,330.590,68.368,118.074,41.220,-193.600,200.940
603,82739.169000,236.345,59.231,76.800,330.637,71.994,116.162,233.220,-156.600,293.940
604,82739.209000,225.536,50.196,89.088,331.458,62.845,115.968,323.220,50.400,403.940
605,82739.249000,221.605,37.145,80.896,327.549,53.653,116.762,225.220,30.400,412.940
606,82739.290000,232.415,27.106,74.752,331.326,52.826,118.739,209.220,166.400,370.940
607,82739.329000,235.363,44.173,99.328,330.400,53.827,123.732,357.220,313.400,350.940
608,82739.349000,214.726,46.180,110.592,327.475,47.396,124.585,595.220,215.400,393.940
609,82739.389000,227.501,36.141,96.256,326.556,48.475,133.559,614.220,272.400,448.940
610,82739.429000,231.432,25.098,101.376,328.312,38.423,133.347,437.220,206.400,335.940
611,82739.469000,227.501,32.125,105.472,325.593,46.728,138.493,304.220,141.400,219.940
612,82739.509000,213.743,46.180,111.616,323.688,45.787,138.471,581.220,160.400,247.940
613,82739.549000,225.536,42.165,121.856,319.913,45.854,144.434,429.220,276.400,135.940
614,82739.584000,220.622,31.122,114.688,319.854,41.313,146.327,306.220,140.400,89.940
615,82739.610000,234.380,49.192,123.904,318.977,45.959,150.403,175.220,262.400,-52.060
616,82739.650000,213.743,56.220,124.928,314.297,49.580,151.468,284.220,187.400,-47.060
617,82739.690000,193.106,65.255,128.000,309.519,45.892,153.371,103.220,143.400,-94.060
618,82739.730000,201.950,68.267,128.000,305.901,57.811,156.604,-201.780,168.400,-272.060
619,82739.770000,216.691,64.251,134.144,311.577,57.866,155.619,-324.780,121.400,-334.060
620,82739.810000,207.846,58.227,128.000,304.997,60.605,159.646,-479.780,-6.600,-405.060
621,82739.830000,205.881,63.247,125.952,306.970,66.185,162.751,-460.780,-73.600,-488.060
622,82739.870000,203.916,62.243,117.760,307.947,68.868,158.831,-451.780,-157.600,-400.060
623,82739.910000,198.019,61.239,106.496,303.140,63.309,158.706,-724.780,-233.600,-384.060
624,82739.950000,217.674,61.239,105.472,308.890,68.842,156.843,-813.780,-217.600,-491.060
625,82739.990000,227.501,55.216,125.952,309.778,65.092,151.791,-638.780,-309.600,-356.060
626,82740.30000,221.605,52.204,106.496,312.712,72.400,148.967,-358.780,-195.600,-303.060
627,82740.50000,199.985,66.259,142.336,312.637,66.903,148.850,-233.780,25.400,-233.060
628,82740.90000,199.002,55.216,117.760,309.862,71.466,149.938,-135.780,97.400,-72.060
629,82740.133000,204.898,62.243,129.024,311.625,61.511,154.702,-177.780,168.400,-36.060
630,82740.169000,214.726,71.278,131.072,307.997,72.533,158.909,-108.780,63.400,-23.060
631,82740.209000,210.795,64.251,124.928,312.645,67.001,153.825,78.220,-104.600,99.940
632,82740.250000,221.605,58.227,109.568,314.488,63.361,153.751,89.220,-108.600,171.940
633,82740.293000,226.518,55.216,115.712,312.612,65.071,148.811,87.220,-114.600,213.940
634,82740.309000,228.484,43.169,108.544,318.277,64.230,148.801,342.220,-154.600,307.940
635,82740.352000,240.276,48.188,99.328,314.419,59.482,142.727,511.220,-62.600,326.940
636,82740.392000,246.173,48.188,101.376,319.140,58.648,143.711,541.220,-57.600,329.940
637,82740.432000,232.415,50.196,95.232,322.905,57.684,138.723,775.220,-81.600,422.940
638,82740.471000,240.276,40.157,82.944,322.824,51.349,142.566,638.220,-93.600,428.940
639,82740.508000,218.656,44.173,77.824,321.819,47.575,137.511,631.220,-83.600,405.940
640,82740.528000,219.639,41.161,83.968,325.579,45.793,137.479,552.220,-40.600,397.940
641,82740.568000,229.466,26.102,76.800,324.630,45.741,135.487,411.220,-158.600,356.940
642,82740.608000,232.415,27.106,67.584,331.261,46.686,132.533,282.220,-149.600,262.940
643,82740.654000,233.397,30.118,71.680,330.269,43.828,127.498,123.220,-95.600,174.940
644,82740.688000,232.415,28.110,74.752,327.307,34.648,128.292,-67.780,-103.600,81.940
645,82740.729000,276.637,25.098,79.872,329.273,40.151,127.418,-221.780,-10.600,7.940
646,82740.773000,227.501,32.125,83.968,329.209,35.550,126.325,-146.780,-121.600,-169.060
647,82740.789000,233.397,41.161,92.160,327.359,39.112,122.420,-60.780,-126.600,-149.060
648,82740.828000,216.691,49.192,78.848,328.395,45.557,123.553,-116.780,-146.600,-266.060
649,82740.869000,230.449,45.176,77.824,328.467,51.015,121.680,-321.780,-80.600,-348.060
650,82740.912000,230.449,48.188,82.944,326.586,51.906,121.696,-334.780,-30.600,-340.060
651,82740.952000,225.536,60.235,90.112,327.653,61.021,118.908,-310.780,-79.600,-328.060
652,82740.992000,226.518,56.220,83.968,322.918,60.919,116.909,-355.780,-201.600,-301.060
653,82741.12000,240.276,58.227,83.968,325.807,64.621,116.993,-373.780,-61.600,-307.060
654,82741.52000,226.518,68.267,115.712,322.052,66.462,120.010,-291.780,55.400,-265.060
655,82741.92000,232.415,65.255,107.520,322.996,66.455,119.017,-131.780,-19.600,-128.060
656,82741.130000,229.466,68.267,100.352,321.190,72.824,118.155,-90.780,26.400,-52.060
657,82741.172000,218.656,65.255,96.256,323.125,75.656,121.202,-100.780,31.400,-44.060
658,82741.208000,231.432,66.259,109.568,319.266,70.128,122.073,-22.780,234.400,-94.060
659,82741.253000,230.449,61.239,122.880,319.309,72.935,125.117,22.220,316.400,-17.060
660,82741.272000,190.157,60.235,111.616,321.261,76.742,131.169,112.220,216.400,139.940
661,82741.312000,218.656,53.208,118.784,317.359,67.628,135.942,74.220,352.400,157.940
662,82741.352000,206.864,63.247,123.904,316.502,74.048,137.072,80.220,309.400,234.940
663,82741.392000,210.795,50.196,118.784,317.368,67.726,140.917,298.220,249.400,338.940
664,82741.432000,217.674,42.165,116.736,313.576,66.838,144.871,426.220,190.400,365.940
665,82741.470000,213.743,43.169,99.328,313.437,56.741,143.662,421.220,98.400,373.940
666,82741.492000,243.225,41.161,105.472,313.481,59.567,147.700,404.220,173.400,326.940
667,82741.532000,210.795,56.220,118.784,312.383,48.542,146.470,547.220,37.400,390.940
668,82741.572000,211.777,36.141,111.616,316.236,53.231,149.559,596.220,-33.600,435.940
669,82741.612000,214.726,51.200,138.240,314.344,53.206,149.556,145.220,253.400,184.940
670,82741.650000,207.846,48.188,139.264,316.207,50.580,154.476,-7.780,157.400,135.940
671,82741.690000,204.898,34.133,126.976,312.381,47.743,152.420,-101.780,67.400,71.940
672,82741.730000,217.674,34.133,122.880,316.132,45.083,154.359,-49.780,-12.600,36.940
673,82741.750000,216.691,40.157,123.904,312.238,36.827,156.166,-40.780,-14.600,-8.060
674,82741.790000,217.674,41.161,117.760,316.068,40.483,153.266,-87.780,5.400,-69.060
675,82741.830000,226.518,38.149,113.664,314.243,45.097,156.345,-186.780,6.400,-178.060
676,82741.870000,234.380,42.165,110.592,314.184,40.556,158.238,-120.780,-14.600,-276.060
677,82741.912000,238.311,43.169,104.448,312.397,48.698,154.430,-284.780,-33.600,-410.060
678,82741.952000,238.311,27.106,112.640,315.236,48.735,154.435,-296.780,-68.600,-511.060
679,82741.972000,230.449,40.157,101.376,313.439,55.221,159.544,-243.780,-82.600,-555.060
680,82742.12000,225.536,46.180,100.352,315.311,54.232,154.552,49.220,-37.600,-472.060
681,82742.53000,217.674,41.161,94.208,314.550,67.942,153.848,272.220,-73.600,-299.060
682,82742.89000,230.449,47.184,77.824,314.633,74.296,151.000,849.220,-149.600,-78.060
683,82742.139000,231.432,55.216,65.536,316.655,84.301,146.242,1380.220,-100.600,135.940
684,82742.169000,231.432,52.204,70.656,315.678,82.398,143.216,1787.220,-24.600,453.940
685,82742.209000,239.294,71.278,46.080,316.652,85.042,137.306,1994.220,94.400,720.940
686,82742.229000,248.138,67.263,43.008,316.686,87.751,135.375,1720.220,86.400,849.940
687,82742.269000,253.052,62.243,31.744,318.501,82.240,133.271,1499.220,102.400,955.940
688,82742.309000,263.862,27.106,33.792,322.104,69.386,129.024,1474.220,4.400,963.940
689,82742.349000,271.724,36.141,33.792,325.001,73.946,126.142,1646.220,44.400,856.940
690,82742.389000,257.965,68.267,49.152,323.076,72.011,122.119,1587.220,128.400,670.940
691,82742.429000,204.898,42.165,33.792,323.912,63.797,122.940,1283.220,99.400,517.940
692,82742.449000,224.553,49.192,48.128,322.141,72.895,121.142,1141.220,143.400,400.940
693,82742.493000,238.311,53.208,68.608,323.999,70.210,123.077,951.220,203.400,175.940
694,82742.533000,233.397,63.247,67.584,319.313,73.754,120.161,860.220,198.400,102.940
695,82742.573000,235.363,62.243,69.632,319.366,77.457,122.229,770.220,163.400,85.940
696,82742.613000,241.259,67.263,69.632,318.454,80.154,120.296,597.220,131.400,-3.060
697,82742.653000,240.276,80.314,71.680,315.692,85.633,121.403,478.220,120.400,-76.060
698,82742.693000,233.397,89.349,78.848,314.805,90.162,119.509,203.220,60.400,-91.060
699,82742.713000,221.605,80.314,71.680,312.884,88.266,117.477,122.220,45.400,-75.060
700,82742.753000,254.035,89.349,82.944,309.280,101.120,121.723,171.220,63.400,-142.060
701,82742.793000,224.553,92.361,67.584,311.194,102.938,119.776,228.220,-22.600,-201.060
702,82742.833000,204.898,93.365,58.368,308.438,109.255,116.922,267.220,16.400,-196.060
703,82742.873000,201.950,117.459,68.608,311.250,107.441,115.893,72.220,20.400,-263.060
704,82742.913000,225.536,130.510,66.560,309.448,113.868,118.016,-462.780,-122.600,-246.060
705,82742.953000,222.587,129.506,71.680,307.480,107.566,124.842,-1056.780,-116.600,-261.060
706,82742.973000,215.708,124.486,61.440,309.308,102.991,123.753,-2011.780,-67.600,-296.060
707,82743.13000,211.777,105.412,66.560,306.454,100.459,136.625,-2564.780,46.400,-392.060
708,82743.53000,219.639,76.298,63.488,309.145,88.762,145.332,-2637.780,10.400,-524.060
709,82743.93000,241.259,74.290,59.392,306.255,84.281,152.194,-2422.780,-103.600,-806.060
710,82743.133000,215.708,67.263,66.560,307.142,79.752,154.089,-1934.780,-275.600,-592.060
711,82743.173000,209.812,57.224,99.328,306.156,76.192,159.979,-1945.780,80.400,-683.060
712,82743.200000,212.760,81.318,123.904,307.952,68.927,161.816,-1670.780,-22.600,-691.060
713,82743.234000,204.898,57.224,99.328,307.948,68.108,166.772,-1484.780,-13.600,-464.060
714,82743.274000,226.518,60.235,121.856,306.012,64.497,170.671,-1222.780,-42.600,-507.060
715,82743.311000,223.570,59.231,125.952,308.769,58.959,166.579,-949.780,-319.600,-400.060
716,82743.353000,217.674,51.200,103.424,314.487,62.582,160.696,-690.780,-418.600,-244.060
717,82743.417000,225.536,30.118,76.800,310.658,59.705,156.651,-474.780,-269.600,-160.060
718,82743.445000,228.484,31.122,111.616,312.452,52.421,157.493,-321.780,-86.600,-111.060
719,82743.453000,256.000,61.239,103.424,316.298,57.032,156.602,-144.780,-45.600,-55.060
720,82743.492000,250.104,62.243,123.904,313.396,52.414,156.500,-104.780,143.400,2.940
721,82743.532000,220.622,55.216,97.280,313.362,49.704,158.431,-3.780,26.400,140.940
722,82743.572000,209.812,41.161,93.184,315.269,50.665,159.449,133.220,89.400,300.940
723,82743.610000,233.397,22.086,92.160,315.228,47.878,157.401,227.220,41.400,297.940
724,82743.652000,221.605,25.098,79.872,314.235,44.240,159.311,221.220,-69.600,240.940
725,82743.672000,228.484,19.075,84.992,318.030,45.167,157.347,290.220,-16.600,225.940
726,82743.712000,233.397,33.129,84.992,317.005,39.618,155.238,276.220,-89.600,117.940
727,82743.752000,228.484,40.157,86.016,319.869,41.488,155.282,228.220,-118.600,66.940
728,82743.790000,259.931,33.129,90.112,318.989,46.875,150.422,145.220,-212.600,61.940
729,82743.834000,260.914,40.157,102.400,320.829,43.196,148.358,-52.780,-143.600,-74.060
730,82743.872000,229.466,55.216,94.208,321.907,53.228,145.589,-98.780,-274.600,-228.060
731,82743.918000,223.570,44.173,89.088,320.923,51.227,137.588,-109.780,-319.600,-72.060
732,82743.933000,211.777,52.204,73.728,325.660,52.127,133.635,-299.780,-343.600,-183.060
733,82743.977000,224.553,49.192,80.896,322.818,52.051,131.640,-512.780,-169.600,-284.060
734,82744.16000,227.501,53.208,92.160,324.787,57.592,132.756,-494.780,-110.600,-293.060
735,82744.57000,236.345,53.208,94.208,323.809,55.669,128.735,-330.780,-78.600,-280.060
736,82744.97000,230.449,60.235,90.112,322.895,58.347,125.806,-99.780,-188.600,-230.060
737,82744.137000,237.328,59.231,81.920,324.811,60.184,124.854,-69.780,-66.600,-162.060
738,82744.157000,228.484,67.263,89.088,323.995,69.392,128.032,37.220,27.400,-24.060
739,82744.197000,226.518,62.243,97.280,322.102,69.367,128.029,-45.780,163.400,-46.060
740,82744.234000,213.743,74.290,107.520,318.355,72.065,128.081,9.220,207.400,-15.060
741,82744.272000,228.484,61.239,110.592,314.489,65.680,131.918,-80.780,285.400,-19.060
742,82744.312000,238.311,65.255,120.832,316.498,73.230,142.028,-123.780,392.400,-82.060
743,82744.355000,205.881,69.271,130.048,315.555,73.256,144.016,3.220,359.400,78.940
744,82744.395000,188.192,50.196,126.976,312.634,66.864,146.860,-57.780,375.400,166.940
745,82744.415000,213.743,47.184,138.240,306.023,66.933,154.809,-48.780,379.400,220.940
746,82744.455000,204.898,48.188,133.120,309.791,65.248,159.752,161.220,266.400,327.940
747,82744.495000,203.916,39.153,132.096,303.070,57.871,161.574,251.220,214.400,368.940
748,82744.535000,200.967,42.165,133.120,305.886,56.095,162.535,345.220,152.400,392.940
749,82744.575000,218.656,49.192,138.240,305.821,50.716,168.388,407.220,196.400,379.940
750,82744.615000,225.536,46.180,133.120,303.952,52.503,167.429,484.220,131.400,415.940
751,82744.635000,200.967,37.145,141.312,304.789,44.310,169.245,398.220,125.400,345.940
752,82744.675000,179.347,47.184,146.432,302.926,46.176,172.266,351.220,120.400,292.940
753,82744.715000,201.950,46.180,146.432,302.990,50.776,173.358,253.220,126.400,189.940
754,82744.755000,206.864,42.165,145.408,303.837,43.459,173.204,9.220,75.400,90.940
755,82744.795000,205.881,34.133,140.288,301.974,45.325,176.225,-33.780,-51.600,79.940
756,82744.835000,215.708,27.106,131.072,301.872,37.976,175.074,-70.780,-44.600,13.940
757,82744.875000,211.777,36.141,134.144,308.531,40.773,173.154,-73.780,-52.600,-32.060
758,82744.895000,207.846,42.165,129.024,306.563,35.251,173.033,-56.780,-50.600,-86.060
759,82744.935000,231.432,31.122,121.856,303.730,36.052,169.068,-147.780,-19.600,-175.060
760,82744.975000,225.536,38.149,121.856,306.688,44.413,173.228,-202.780,-82.600,-298.060
761,82745.15000,232.415,35.137,118.784,306.694,45.251,169.268,-277.780,-128.600,-392.060
762,82745.55000,239.294,52.204,129.024,306.736,48.058,172.311,-400.780,-216.600,-441.060
763,82745.95000,240.276,39.153,93.184,311.494,50.732,165.413,-259.780,-174.600,-449.060
764,82745.135000,223.570,43.169,94.208,308.666,51.591,164.432,-353.780,-239.600,-486.060
765,82745.155000,216.691,53.208,88.064,310.602,55.203,160.534,-514.780,-369.600,-338.060
766,82745.195000,224.553,53.208,75.776,315.317,54.310,158.532,-394.780,-402.600,-241.060
767,82745.235000,229.466,55.216,76.800,320.051,55.172,152.590,-328.780,-410.600,-176.060
768,82745.275000,236.345,51.200,71.680,319.162,60.441,141.760,-275.780,-399.600,-63.060
769,82745.315000,239.294,51.200,72.704,323.833,56.722,135.720,-202.780,-417.600,60.940
770,82745.355000,237.328,56.220,71.680,330.432,55.737,127.751,-23.780,-529.600,261.940
771,82745.375000,266.810,42.165,65.536,328.377,44.582,120.548,172.220,-474.600,354.940
772,82745.415000,235.363,43.169,69.632,332.165,45.431,114.604,292.220,-360.600,454.940
773,82745.455000,216.691,25.098,77.824,332.946,33.495,112.362,286.220,-93.600,470.940
774,82745.495000,207.846,18.071,77.824,333.006,38.056,111.465,268.220,-57.600,371.940
775,82745.535000,244.207,18.071,70.656,331.083,35.361,115.383,393.220,281.400,294.940
776,82745.574000,236.345,27.106,105.472,332.968,34.528,118.352,297.220,310.400,191.940
777,82745.614000,224.553,25.098,97.280,328.223,32.770,125.270,179.220,239.400,115.940
778,82745.634000,237.328,12.047,94.208,325.397,33.649,125.284,122.220,169.400,146.940
779,82745.675000,240.276,21.082,88.064,325.343,29.166,130.162,170.220,191.400,72.940
780,82745.714000,229.466,36.141,117.760,320.600,28.206,131.129,229.220,260.400,28.940
781,82745.755000,217.674,32.125,115.712,318.813,34.809,142.208,151.220,213.400,-42.060
782,82745.795000,210.795,39.153,122.880,321.622,32.956,139.189,167.220,230.400,-37.060
783,82745.837000,227.501,32.125,110.592,316.097,43.134,148.349,115.220,188.400,-134.060
784,82745.857000,224.553,65.255,142.336,313.318,46.878,154.393,173.220,370.400,-181.060
785,82745.897000,222.587,47.184,128.000,311.454,48.724,156.418,214.220,296.400,-169.060
786,82745.937000,192.123,62.243,136.192,307.656,47.758,156.392,-124.780,239.400,-281.060
787,82745.982000,202.933,56.220,138.240,303.988,56.012,159.546,-335.780,155.400,-312.060
788,82746.14000,204.898,56.220,138.240,304.991,59.767,163.606,-542.780,-7.600,-358.060
789,82746.58000,196.054,49.192,129.024,305.015,61.580,162.650,-580.780,-141.600,-372.060
790,82746.73000,199.985,44.173,130.048,307.745,54.191,157.524,-515.780,-130.600,-304.060
791,82746.114000,203.916,37.145,122.880,306.815,55.133,159.532,-281.780,-125.600,-187.060
792,82746.154000,212.760,58.227,128.000,308.697,54.262,160.511,-278.780,-142.600,-209.060
793,82746.193000,197.036,60.235,117.760,308.797,62.370,153.721,-158.780,-187.600,-162.060
794,82746.233000,190.157,50.196,114.688,312.426,51.349,149.513,-107.780,-207.600,-31.060
795,82746.273000,221.605,55.216,125.952,307.794,58.615,149.661,-162.780,-9.600,-51.060
796,82746.313000,208.829,64.251,130.048,313.499,60.542,150.705,-63.780,-162.600,-12.060
797,82746.333000,223.570,58.227,105.472,318.125,53.217,147.572,62.220,-169.600,61.940
798,82746.377000,234.380,60.235,109.568,316.155,47.656,145.462,-76.780,-143.600,71.940
799,82746.413000,225.536,45.176,98.304,320.924,51.246,138.583,-109.780,-311.600,140.940
800,82746.457000,224.553,41.161,96.256,322.673,41.116,134.391,38.220,-225.600,178.940
801,82746.498000,236.345,42.165,90.112,323.619,41.128,134.393,71.220,-220.600,195.940
802,82746.534000,234.380,34.133,80.896,324.585,42.915,131.448,184.220,-206.600,191.940
803,82746.574000,250.104,42.165,78.848,331.130,37.447,128.358,162.220,-228.600,186.940
804,82746.594000,255.017,32.125,78.848,332.094,39.213,124.418,264.220,-141.600,229.940
805,82746.634000,247.155,29.114,82.944,331.068,33.646,121.314,279.220,-46.600,311.940
806,82746.674000,257.965,21.082,86.016,330.098,31.820,122.269,233.220,13.400,354.940
807,82746.714000,238.311,21.082,87.040,330.909,21.775,123.051,334.220,-26.600,323.940
808,82746.754000,229.466,5.020,64.512,330.955,25.400,121.139,491.220,-11.600,253.940
809,82746.794000,226.518,10.039,58.368,333.739,20.935,125.026,443.220,-56.600,170.940
810,82746.814000,227.501,15.059,55.296,333.819,27.270,121.183,354.220,-50.600,25.940
811,82746.854000,234.380,18.071,60.416,333.789,25.379,118.158,201.220,-0.600,-33.060
812,82746.897000,293.344,18.071,64.512,332.895,29.051,119.230,56.220,37.400,-110.060
813,82746.935000,246.173,24.094,77.824,332.009,33.600,118.331,-224.780,-22.600,-227.060
814,82746.975000,240.276,22.086,65.536,329.250,39.117,121.428,-92.780,59.400,-377.060
815,82747.15000,234.380,44.173,75.776,324.558,41.823,122.473,-238.780,105.400,-428.060
816,82747.55000,232.415,59.231,75.776,324.649,48.275,124.600,-308.780,7.400,-445.060
817,82747.75000,239.294,51.200,78.848,327.514,50.164,125.639,-420.780,30.400,-387.060
818,82747.115000,228.484,58.227,97.280,324.822,61.081,123.878,-451.780,182.400,-385.060
819,82747.155000,214.726,53.208,87.040,322.888,57.489,128.772,-302.780,-20.600,-269.060
820,82747.195000,219.639,54.212,83.968,322.042,64.806,128.927,-320.780,-26.600,-264.060
821,82747.235000,222.587,59.231,100.352,319.245,67.575,131.965,-201.780,129.400,-195.060
822,82747.277000,217.674,69.271,121.856,318.306,67.641,135.944,-62.780,129.400,-73.060
823,82747.297000,222.587,62.243,106.496,318.401,74.911,133.115,-190.780,69.400,-55.060
824,82747.337000,210.795,49.192,123.904,316.424,68.512,134.965,-68.780,118.400,64.940
825,82747.374000,244.207,65.255,139.264,314.586,72.210,138.025,-47.780,294.400,-31.060
826,82747.415000,217.674,61.239,138.240,316.371,64.049,140.838,59.220,222.400,92.940
827,82747.455000,200.967,46.180,123.904,312.600,64.934,141.846,171.220,98.400,167.940
828,82747.495000,228.484,39.153,120.832,309.820,68.659,146.894,152.220,272.400,176.940
829,82747.535000,209.812,55.216,141.312,313.644,71.477,147.954,405.220,207.400,251.940
830,82747.555000,208.829,38.149,131.072,306.896,62.248,148.742,551.220,188.400,342.940
831,82747.595000,199.002,35.137,128.000,310.662,60.524,151.695,729.220,187.400,444.940
832,82747.637000,228.484,29.114,113.664,310.651,59.627,152.671,678.220,223.400,455.940
833,82747.677000,206.864,32.125,113.664,310.654,59.666,154.661,725.220,64.400,471.940
834,82747.717000,185.244,50.196,114.688,309.742,62.363,152.728,680.220,124.400,333.940
835,82747.757000,211.777,68.267,138.240,305.979,63.346,158.711,533.220,299.400,267.940
836,82747.778000,209.812,54.212,143.360,306.834,56.127,163.532,168.220,125.400,198.940
837,82747.818000,214.726,35.137,113.664,309.666,56.087,159.556,-52.780,-49.600,139.940
838,82747.858000,221.605,34.133,119.808,310.598,55.164,158.544,35.220,59.400,119.940
839,82747.898000,214.726,42.165,123.904,309.565,48.738,158.405,-6.780,-85.600,53.940
840,82747.940000,220.622,41.161,117.760,309.616,52.422,159.478,-1.780,-97.600,-29.060
841,82747.980000,230.449,48.188,122.880,311.521,53.363,159.501,-15.780,-41.600,-104.060
842,82748.20000,217.674,63.247,125.952,311.516,53.305,156.516,19.220,-193.600,-176.060
843,82748.35000,235.363,54.212,98.304,310.533,50.544,156.456,-238.780,-143.600,-331.060
844,82748.75000,229.466,54.212,104.448,311.597,59.640,152.672,-571.780,-189.600,-514.060
845,82748.118000,237.328,45.176,105.472,313.436,55.961,150.608,-783.780,-167.600,-580.060
846,82748.157000,227.501,44.173,101.376,313.495,59.723,155.661,-853.780,-172.600,-548.060
847,82748.201000,232.415,56.220,96.256,315.397,61.405,146.748,-821.780,-214.600,-397.060
848,82748.239000,228.484,52.204,90.112,313.574,66.039,150.822,-777.780,-258.600,-331.060
849,82748.259000,233.397,50.196,80.896,318.292,65.945,142.870,-652.780,-302.600,-226.060
850,82748.298000,237.328,48.188,75.776,321.101,64.092,139.851,-448.780,-334.600,-200.060
851,82748.338000,230.449,56.220,76.800,320.954,53.897,133.666,-202.780,-323.600,-102.060
852,82748.378000,232.415,51.200,76.800,322.062,65.819,133.921,22.220,-270.600,22.940
853,82748.418000,239.294,49.192,76.800,326.716,61.126,124.877,174.220,-315.600,129.940
854,82748.458000,224.553,54.212,76.800,324.756,56.461,121.790,139.220,-193.600,191.940
855,82748.498000,250.104,55.216,78.848,326.727,62.022,123.901,184.220,4.400,239.940
856,82748.524000,204.898,46.180,97.280,327.601,57.337,117.835,184.220,12.400,305.940
857,82748.558000,242.242,15.059,59.392,328.543,56.531,122.792,324.220,-55.600,333.940
858,82748.598000,236.345,28.110,88.064,325.708,56.532,124.777,303.220,266.400,213.940
859,82748.638000,223.570,44.173,101.376,323.784,53.837,128.696,382.220,267.400,200.940
860,82748.678000,216.691,43.169,102.400,321.772,44.709,131.482,501.220,202.400,333.940
861,82748.718000,235.363,28.110,105.472,322.762,47.548,135.523,326.220,235.400,296.940
862,82748.737000,224.553,33.129,108.544,318.928,43.853,136.433,267.220,175.400,277.940
863,82748.778000,232.415,30.118,116.736,314.275,49.327,138.532,138.220,186.400,134.940
864,82748.818000,223.570,39.153,124.928,312.366,47.567,143.465,139.220,210.400,31.940
865,82748.858000,225.536,28.110,114.688,315.183,45.811,145.421,215.220,125.400,14.940
866,82748.895000,241.259,26.102,113.664,309.459,42.111,147.323,128.220,219.400,-109.060
867,82748.935000,189.175,56.220,120.832,310.623,57.756,150.642,340.220,30.400,-77.060
868,82748.975000,204.898,57.224,122.880,308.692,54.983,150.580,313.220,207.400,-119.060
869,82748.995000,213.743,60.235,125.952,307.853,62.377,154.714,-58.780,130.400,-243.060
870,82749.36000,208.829,60.235,123.904,307.820,59.687,157.641,-333.780,42.400,-354.060
871,82749.77000,206.864,59.231,120.832,307.939,68.771,153.856,-492.780,-44.600,-430.060
872,82749.117000,207.846,61.239,120.832,304.057,61.431,155.683,-543.780,-71.600,-486.060
873,82749.157000,200.967,66.259,117.760,306.087,71.533,155.901,-406.780,-85.600,-424.060
874,82749.197000,218.656,61.239,115.712,303.212,68.767,156.833,-346.780,13.400,-321.060
875,82749.216000,245.190,66.259,125.952,302.317,72.438,157.904,-401.780,42.400,-348.060
876,82749.256000,179.347,75.294,108.544,305.242,78.869,157.051,-169.780,-159.600,-170.060
877,82749.297000,207.846,45.176,120.832,301.387,73.381,159.912,-85.780,166.400,-38.060
878,82749.342000,204.898,52.204,137.216,302.412,78.929,162.021,0.220,173.400,-86.060
879,82749.379000,203.916,53.208,135.168,300.533,79.840,163.032,624.220,100.400,102.940
880,82749.418000,219.639,22.086,126.976,298.676,82.544,162.093,1275.220,23.400,277.940
881,82749.459000,247.155,58.227,98.304,305.330,85.282,157.187,1890.220,-29.600,553.940
882,82749.478000,247.155,55.216,69.632,304.492,94.236,147.430,2841.220,-112.600,913.940
883,82749.516000,238.311,73.286,34.816,308.187,88.613,138.364,3505.220,-3.600,1129.940
884,82749.559000,242.242,100.392,34.816,310.252,102.205,129.705,3569.220,173.400,1084.940
885,82749.599000,230.449,100.392,31.744,311.118,97.422,118.664,3335.220,371.400,966.940
886,82749.639000,247.155,95.373,28.672,310.271,104.738,118.818,2801.220,598.400,831.940
887,82749.679000,251.086,84.329,40.960,310.331,109.280,116.925,2361.220,686.400,704.940
888,82749.699000,244.207,43.169,46.080,308.437,108.475,123.868,2240.220,725.400,592.940
889,82749.739000,237.328,58.227,68.608,305.679,114.773,120.019,2374.220,722.400,406.940
890,82749.779000,222.587,57.224,59.392,303.921,124.786,118.241,2256.220,533.400,365.940
891,82749.826000,225.536,73.286,73.728,305.888,130.308,118.361,1905.220,499.400,423.940
892,82749.860000,226.518,70.275,80.896,307.726,126.610,115.301,1413.220,395.400,477.940
893,82749.900000,224.553,47.184,78.848,304.924,129.321,115.355,1072.220,294.400,491.940
894,82749.940000,226.518,42.165,77.824,309.620,126.654,116.300,849.220,219.400,451.940
895,82749.960000,274.672,51.200,75.776,305.827,126.507,111.318,694.220,173.400,366.940
896,82749.996000,240.276,60.235,59.392,306.716,122.777,107.261,469.220,56.400,287.940
897,82750.38000,249.121,62.243,50.176,307.591,117.332,109.136,381.220,160.400,123.940
898,82750.81000,240.276,68.267,53.248,306.641,117.280,107.144,337.220,148.400,96.940
899,82750.119000,229.466,73.286,23.552,310.536,125.536,105.336,334.220,115.400,129.940
900,82750.156000,240.276,92.361,36.864,308.537,117.344,109.137,234.220,103.400,128.940
901,82750.180000,234.380,87.341,29.696,307.712,126.454,107.341,43.220,-28.600,102.940
902,82750.220000,223.570,87.341,28.672,307.631,120.879,103.243,-189.780,-71.600,118.940
903,82750.260000,213.743,82.322,39.936,310.418,117.232,102.175,-702.780,-133.600,-29.060
904,82750.300000,236.345,103.404,31.744,307.525,112.712,107.048,-1229.780,-167.600,-143.060
905,82750.340000,236.345,106.416,31.744,309.403,111.022,112.983,-1962.780,-20.600,-275.060
906,82750.379000,226.518,104.408,48.128,305.471,99.257,122.673,-2539.780,-146.600,-528.060
907,82750.418000,217.674,120.471,41.984,306.293,90.108,122.479,-2697.780,-417.600,-609.060
908,82750.439000,242.242,115.451,35.840,310.127,93.043,129.510,-2944.780,-414.600,-694.060
909,82750.478000,269.758,102.400,63.488,310.882,78.495,134.175,-3262.780,-207.600,-776.060
910,82750.520000,238.311,58.227,65.536,309.906,75.832,139.090,-3129.780,-188.600,-794.060
911,82750.560000,225.536,44.173,49.152,313.566,66.721,138.901,-2810.780,-191.600,-770.060
912,82750.600000,256.000,44.173,78.848,313.528,63.193,145.788,-2900.780,-54.600,-898.060
913,82750.640000,226.518,18.071,73.728,312.394,49.438,145.494,-2465.780,-185.600,-745.060
914,82750.680000,216.691,8.031,95.232,310.514,50.329,145.510,-1846.780,-170.600,-569.060
915,82750.700000,226.518,5.020,93.184,314.239,45.818,146.414,-1533.780,-80.600,-549.060
916,82750.740000,238.311,2.008,102.400,315.149,43.102,147.353,-1289.780,5.400,-438.060
917,82750.780000,210.795,-1.004,94.208,318.024,45.868,146.421,-1223.780,-200.600,-356.060
918,82750.820000,204.898,16.063,91.136,317.040,43.107,146.361,-833.780,22.400,-349.060
919,82750.860000,217.674,30.118,130.048,315.163,44.037,148.367,-726.780,217.400,-293.060
920,82750.900000,201.950,27.106,129.024,315.135,42.166,146.338,-787.780,-15.600,-327.060
921,82750.920000,222.587,41.161,122.880,314.145,38.567,150.238,-866.780,-68.600,-344.060
922,82750.960000,221.605,56.220,126.976,317.006,40.398,148.292,-1096.780,-206.600,-400.060
923,82751.0,228.484,49.192,105.472,318.868,38.532,145.271,-1450.780,-292.600,-473.060
924,82751.40000,243.225,37.145,98.304,318.703,26.583,143.028,-1861.780,-264.600,-554.060
925,82751.97000,236.345,36.141,103.424,324.303,21.902,133.985,-2513.780,-447.600,-745.060
926,82751.119000,239.294,23.090,99.328,330.002,24.530,124.103,-2783.780,-516.600,-801.060
927,82751.159000,257.965,24.094,81.920,333.720,20.721,114.081,-3428.780,-585.600,-947.060
928,82751.179000,223.570,1.004,87.040,334.596,16.055,109.009,-3532.780,-541.600,-1008.060
929,82751.219000,248.138,5.020,57.344,338.436,21.367,97.193,-3391.780,-480.600,-1057.060
930,82751.259000,238.311,-2.008,74.752,343.120,18.564,91.172,-3092.780,-350.600,-1016.060
931,82751.299000,235.363,8.031,54.272,341.307,24.855,86.330,-2657.780,-264.600,-1005.060
932,82751.339000,233.397,15.059,75.776,345.184,31.376,89.458,-2228.780,-182.600,-930.060
933,82751.379000,238.311,27.106,78.848,345.255,37.594,79.645,-1848.780,-203.600,-762.060
934,82751.398000,243.225,40.157,68.608,338.778,48.461,77.877,-1719.780,-214.600,-643.060
935,82751.438000,241.259,21.082,83.968,343.570,53.085,76.988,-1334.780,-46.600,-560.060
936,82751.478000,248.138,25.098,86.016,340.739,53.145,81.958,-1002.780,100.400,-578.060
937,82751.518000,250.104,33.129,89.088,339.962,65.120,86.190,-718.780,157.400,-495.060
938,82751.558000,244.207,26.102,88.064,340.924,66.088,88.202,-479.780,176.400,-325.060
939,82751.598000,246.173,12.047,95.232,338.056,63.399,93.113,-355.780,152.400,-225.060
940,82751.644000,200.967,18.071,65.536,335.326,70.789,98.240,-200.780,128.400,-147.060
941,82751.664000,234.380,0.000,84.992,333.401,68.074,101.163,-125.780,80.400,23.940
942,82751.704000,219.639,0.000,84.992,333.427,69.926,102.197,-22.780,52.400,101.940
943,82751.744000,233.397,4.016,78.848,333.274,58.893,99.973,121.220,42.400,79.940
944,82751.783000,238.311,0.000,79.872,333.388,67.158,101.144,220.220,-1.600,130.940
945,82751.824000,229.466,9.035,79.872,331.388,58.946,103.950,259.220,5.400,110.940
946,82751.859000,238.311,1.004,84.992,332.388,62.662,106.020,219.220,68.400,143.940
947,82751.879000,243.225,-12.047,99.328,329.406,52.489,102.815,246.220,59.400,198.940
948,82751.922000,229.466,-15.059,90.112,330.347,51.663,106.777,264.220,-6.600,180.940
949,82751.964000,259.931,-19.075,101.376,327.529,53.419,104.821,442.220,-74.600,193.940
950,82752.3000,267.793,-19.075,118.784,332.270,54.358,102.859,425.220,-72.600,235.940
951,82752.44000,226.518,-14.055,113.664,331.221,46.978,100.711,312.220,5.400,258.940
952,82752.81000,210.795,-14.055,98.304,332.170,47.029,102.703,206.220,-33.600,212.940
953,82752.123000,227.501,-25.098,103.424,333.002,38.777,101.534,18.220,-33.600,193.940
954,82752.143000,224.553,-25.098,99.328,332.018,36.016,101.473,33.220,-40.600,111.940
955,82752.183000,233.397,-23.090,98.304,331.158,42.397,100.613,-71.780,-6.600,32.940
956,82752.223000,231.432,-19.075,97.280,335.850,39.692,99.568,-47.780,-2.600,-15.060
957,82752.263000,226.518,-9.035,90.112,330.183,40.513,98.582,-28.780,-26.600,-72.060
958,82752.303000,220.622,-9.035,84.992,333.914,36.840,95.526,124.220,10.400,-38.060
959,82752.343000,259.931,-15.059,94.208,332.042,37.829,100.517,609.220,178.400,35.940
960,82752.363000,209.812,-46.180,77.824,331.272,50.662,101.784,1677.220,379.400,-113.060
961,82752.399000,235.363,-10.039,71.680,328.556,58.987,107.925,2397.220,495.400,-197.060
962,82752.439000,216.691,21.082,109.568,325.002,75.505,112.250,2873.220,941.400,186.940
963,82752.483000,203.916,25.098,99.328,316.600,82.897,121.346,3051.220,1022.400,345.940
964,82752.520000,206.864,53.208,100.352,321.505,94.987,127.579,2804.220,936.400,369.940
965,82752.560000,222.587,76.298,103.424,315.948,103.254,132.720,2329.220,883.400,463.940
966,82752.601000,215.708,95.373,91.136,308.316,98.593,133.604,2141.220,858.400,494.940
967,82752.622000,220.622,118.463,102.400,311.318,109.780,141.804,2202.220,707.400,660.940
968,82752.661000,214.726,117.459,101.376,310.344,107.897,139.773,2046.220,635.400,741.940
969,82752.702000,236.345,122.478,89.088,305.696,113.428,144.857,1904.220,569.400,756.940
970,82752.740000,242.242,122.478,92.160,302.853,113.352,142.862,1513.220,521.400,739.940
971,82752.780000,229.466,108.424,91.136,307.560,111.582,142.831,1277.220,407.400,724.940
972,82752.819000,214.726,97.380,78.848,305.540,101.597,148.583,989.220,426.400,717.940
973,82752.840000,208.829,87.341,87.040,307.447,102.557,149.601,1018.220,354.400,781.940
974,82752.886000,207.846,68.267,80.896,307.352,96.066,145.484,911.220,246.400,731.940
975,82752.920000,222.587,71.278,84.992,310.983,84.304,150.213,718.220,175.400,651.940
976,82752.967000,218.656,63.247,81.920,310.112,89.789,150.328,471.220,72.400,598.940
977,82753.3000,219.639,54.212,78.848,311.846,78.722,145.122,482.220,-65.600,560.940
978,82753.44000,286.464,59.231,88.064,309.938,77.742,143.109,14.220,113.400,312.940
979,82753.91000,206.864,66.259,100.352,314.671,77.824,144.112,28.220,-201.600,166.940
980,82753.100000,225.536,63.247,104.448,314.627,74.998,140.074,140.220,-72.600,129.940
981,82753.142000,218.656,62.243,95.232,312.679,71.250,137.007,71.220,-228.600,63.940
982,82753.180000,220.622,68.267,104.448,313.744,80.345,133.224,-241.780,-139.600,-122.060
983,82753.228000,223.570,72.282,116.736,313.708,77.617,134.160,-228.780,-82.600,-222.060
984,82753.263000,209.812,69.271,108.544,315.703,85.770,128.369,-194.780,-303.600,-221.060
985,82753.305000,204.898,69.271,88.064,315.636,81.130,125.286,-297.780,-280.600,-238.060
986,82753.325000,207.846,66.259,91.136,316.696,89.408,126.458,-395.780,-161.600,-235.060
987,82753.365000,221.605,74.290,103.424,311.089,94.771,123.580,-417.780,-102.600,-297.060
988,82753.404000,227.501,71.278,109.568,316.788,96.639,121.639,-297.780,-49.600,-211.060
989,82753.444000,221.605,79.310,107.520,315.793,92.982,122.554,-105.780,-1.600,-194.060
990,82753.484000,218.656,84.329,104.448,314.046,103.892,119.800,-93.780,-43.600,-222.060
991,82753.524000,243.225,92.361,119.808,312.219,108.486,121.885,-104.780,112.400,-242.060
992,82753.564000,188.192,77.302,112.640,315.001,104.781,117.831,-0.780,-59.600,-83.060
993,82753.584000,222.587,58.227,111.616,312.256,111.235,121.943,-217.780,218.400,15.940
994,82753.624000,216.691,75.294,116.736,314.106,107.673,125.849,-90.780,187.400,76.940
995,82753.666000,216.691,67.263,113.664,312.127,101.255,126.704,175.220,178.400,243.940
996,82753.700000,220.622,66.259,114.688,314.097,106.796,127.819,267.220,253.400,327.940
997,82753.740000,203.916,66.259,122.880,313.005,95.849,130.568,233.220,189.400,350.940
998,82753.785000,220.622,57.224,110.592,313.875,90.345,129.458,156.220,149.400,326.940
999,82753.800000,204.898,53.208,111.616,313.919,93.171,133.497,15.220,27.400,305.940
1000,82753.840000,203.916,47.184,110.592,315.627,79.493,135.197,32.220,184.400,290.940
1001,82753.880000,205.881,50.196,130.048,311.899,83.186,139.249,96.220,211.400,327.940
1002,82753.925000,202.933,36.141,132.096,312.817,81.327,137.222,164.220,128.400,329.940
1003,82753.960000,203.916,43.169,131.072,314.625,74.978,139.078,10.220,131.400,218.940
1004,82754.0,210.795,42.165,130.048,316.391,65.822,137.892,-135.780,83.400,148.940
1005,82754.51000,210.795,32.125,131.072,319.296,70.480,139.984,-130.780,45.400,121.940
1006,82754.60000,215.708,36.141,135.168,318.201,59.493,140.743,-133.780,63.400,47.940
1007,82754.100000,220.622,36.141,129.024,320.155,64.079,139.849,-152.780,4.400,-47.060
1008,82754.143000,219.639,40.157,131.072,320.186,65.990,143.869,-161.780,1.400,-117.060
