Sample, Time, ACCX, ACCY, ACCZ, MAGX, MAGY, MAGZ, GYRX, GYRY, GYRZ
0,82639.194000,209.812,62.243,115.712,325.028,73.498,150.003,48.220,139.400,-198.060
1,82639.213000,207.846,67.263,102.400,323.173,76.222,150.059,19.220,95.400,-194.060
2,82639.260000,212.760,68.267,100.352,321.244,73.468,150.992,-63.780,9.400,-198.060
3,82639.296000,213.743,69.271,100.352,320.309,74.352,150.015,-101.780,-21.600,-209.060
4,82639.332000,217.674,69.271,100.352,322.127,68.880,149.901,-104.780,-68.600,-189.060
5,82639.372000,220.622,68.267,90.112,325.125,80.788,148.169,7.220,-104.600,-95.060
6,82639.412000,231.432,67.263,87.040,327.066,84.458,147.256,103.220,-103.600,-9.060
7,82639.433000,215.708,75.294,92.160,326.032,78.033,147.117,73.220,-123.600,22.940
8,82639.473000,237.328,88.345,33.792,326.083,82.477,140.250,-32.780,-266.600,81.940
9,82639.512000,216.691,39.153,102.400,328.900,80.721,142.206,261.220,60.400,237.940
10,82639.553000,219.639,79.310,94.208,326.895,72.451,142.027,162.220,-11.600,128.940
11,82639.593000,212.760,67.263,90.112,325.937,72.302,135.060,59.220,-59.600,88.940
12,82639.633000,221.605,70.275,88.064,323.131,74.194,140.069,5.220,-31.600,59.940
13,82639.653000,228.484,62.243,78.848,331.598,70.642,140.006,25.220,-23.600,57.940
14,82639.693000,230.449,73.286,70.656,332.524,68.881,142.954,31.220,-8.600,40.940
15,82639.741000,235.363,70.275,73.728,329.743,73.366,140.061,1.220,14.400,56.940
16,82639.773000,230.449,68.267,87.040,329.730,72.449,140.042,80.220,72.400,67.940
17,82639.813000,227.501,72.282,87.040,324.053,72.374,140.032,26.220,-0.600,61.940
18,82639.853000,224.553,65.255,80.896,330.648,70.591,138.014,-69.780,-8.600,53.940
19,82639.893000,229.466,56.220,70.656,327.711,63.244,138.848,-72.780,-1.600,69.940
20,82639.913000,241.259,56.220,82.944,331.591,69.785,142.972,90.220,66.400,20.940
21,82639.953000,233.397,69.271,95.232,330.650,70.610,139.009,184.220,125.400,4.940
22,82639.993000,218.656,76.298,104.448,327.749,65.992,138.907,274.220,67.400,64.940
23,82640.32000,212.760,65.255,97.280,324.986,71.471,140.014,51.220,6.400,51.940
24,82640.76000,215.708,69.271,88.064,325.001,72.406,141.028,-189.780,-42.600,-31.060
25,82640.111000,224.553,67.263,95.232,327.814,70.612,140.994,-260.780,-24.600,-80.060
26,82640.136000,222.587,69.271,99.328,330.600,66.946,138.931,-230.780,-55.600,-111.060
27,82640.175000,222.587,66.259,89.088,331.611,71.558,140.025,-212.780,-80.600,-114.060
28,82640.215000,221.605,64.251,86.016,329.713,71.475,137.037,-224.780,-72.600,-121.060
29,82640.255000,224.553,61.239,87.040,328.831,76.062,138.128,-230.780,-42.600,-117.060
30,82640.295000,226.518,63.247,93.184,327.786,68.740,138.965,-176.780,-20.600,-84.060
31,82640.335000,222.587,68.267,98.304,325.974,74.271,142.064,-68.780,-25.600,-55.060
32,82640.375000,221.605,66.259,91.136,324.986,71.471,140.014,-80.780,-43.600,-40.060
33,82640.393000,223.570,68.267,83.968,330.713,75.191,139.107,-95.780,-55.600,-9.060
34,82640.433000,226.518,65.255,84.992,326.840,68.728,138.963,-77.780,-70.600,7.940
35,82640.472000,228.484,63.247,86.016,331.629,73.312,136.084,-64.780,-74.600,16.940
36,82640.512000,224.553,63.247,83.968,330.608,67.803,135.965,-28.780,-65.600,30.940
37,82640.552000,229.466,63.247,81.920,330.584,65.990,136.921,-0.780,-53.600,32.940
38,82640.592000,228.484,63.247,82.944,329.699,70.539,136.022,15.220,-46.600,27.940
39,82640.612000,229.466,63.247,79.872,328.763,71.423,135.045,33.220,-26.600,38.940
40,82640.652000,230.449,68.267,83.968,327.745,65.953,136.916,44.220,-32.600,31.940
41,82640.692000,229.466,65.255,80.896,332.511,68.725,134.993,43.220,-23.600,37.940
42,82640.732000,228.484,64.251,77.824,330.579,65.932,133.936,51.220,-20.600,40.940
43,82640.776000,229.466,63.247,80.896,330.590,66.829,132.961,30.220,2.400,40.940
44,82640.816000,231.432,62.243,82.944,333.365,62.266,131.873,11.220,4.400,21.940
45,82640.856000,227.501,63.247,82.944,332.427,62.351,136.847,12.220,-2.600,11.940
46,82640.876000,227.501,63.247,81.920,329.694,70.481,133.037,27.220,-8.600,7.940
47,82640.916000,228.484,63.247,80.896,330.615,68.661,133.000,16.220,-1.600,-3.060
48,82640.956000,229.466,65.255,81.920,329.658,67.752,133.974,-22.780,2.400,-9.060
49,82641.1000,227.501,65.255,82.944,328.663,64.094,134.889,-37.780,-8.600,-6.060
50,82641.32000,226.518,62.243,83.968,333.481,70.550,134.039,-80.780,-14.600,-12.060
51,82641.72000,228.484,65.255,83.968,332.499,67.809,134.974,-113.780,-24.600,-20.060
52,82641.92000,226.518,63.247,89.088,332.406,61.337,131.852,-135.780,-26.600,-49.060
53,82641.132000,223.570,60.235,84.992,330.601,67.725,131.985,-140.780,-34.600,-42.060
54,82641.172000,224.553,63.247,84.992,332.517,69.563,131.033,-152.780,-42.600,-71.060
55,82641.212000,229.466,61.239,81.920,331.501,64.112,133.899,-133.780,-53.600,-89.060
56,82641.252000,229.466,63.247,88.064,328.655,63.997,129.914,-125.780,-65.600,-94.060
57,82641.292000,226.518,68.267,84.992,330.460,57.609,129.780,-109.780,-72.600,-91.060
58,82641.332000,224.553,63.247,82.944,332.453,64.963,129.940,-34.780,-91.600,-90.060
59,82641.352000,218.656,79.310,91.136,334.445,72.317,130.099,-143.780,-56.600,-125.060
60,82641.392000,223.570,86.337,77.824,333.417,66.729,126.000,-175.780,-162.600,-92.060
61,82641.432000,219.639,90.353,80.896,330.673,73.962,123.166,-323.780,-151.600,-97.060
62,82641.476000,224.553,95.373,75.776,337.266,72.140,119.159,-519.780,-248.600,-134.060
63,82641.515000,227.501,94.369,75.776,337.269,72.179,121.149,-798.780,-266.600,-123.060
64,82641.556000,230.449,88.345,74.752,336.213,64.720,115.021,-984.780,-208.600,-134.060
65,82641.576000,224.553,72.282,75.776,340.025,66.622,116.062,-1110.780,-254.600,-183.060
66,82641.615000,226.518,75.294,62.464,341.817,60.078,107.968,-1132.780,-371.600,-254.060
67,82641.658000,225.536,69.271,64.512,345.688,66.521,107.116,-1176.780,-311.600,-327.060
68,82641.696000,250.104,65.255,64.512,341.857,63.625,102.076,-1182.780,-243.600,-441.060
69,82641.737000,245.190,63.247,77.824,345.649,64.533,99.117,-1121.780,-251.600,-405.060
70,82641.775000,247.155,58.227,74.752,348.499,65.467,98.146,-1043.780,-195.600,-388.060
71,82641.793000,232.415,53.208,87.040,345.760,72.758,98.297,-929.780,-113.600,-308.060
72,82641.836000,227.501,51.200,95.232,342.860,68.160,99.190,-767.780,4.400,-241.060
73,82641.877000,211.777,44.173,89.088,345.677,67.164,93.205,-548.780,-13.600,-115.060
74,82641.917000,218.656,45.176,87.040,348.592,71.938,101.268,-480.780,117.400,-86.060
75,82641.957000,222.587,57.224,101.376,345.637,63.617,99.097,-416.780,153.400,-61.060
76,82641.997000,224.553,61.239,107.520,344.776,69.218,105.183,-320.780,183.400,-35.060
77,82642.37000,196.054,49.192,93.184,344.765,68.321,106.158,-272.780,25.400,-16.060
78,82642.57000,198.019,34.133,88.064,351.403,69.345,107.185,-255.780,80.400,-11.060
79,82642.97000,226.518,22.086,107.520,347.540,62.999,113.012,-344.780,242.400,-15.060
80,82642.137000,226.518,21.082,97.280,348.527,65.799,115.062,-94.780,126.400,134.940
81,82642.177000,227.501,32.125,108.544,346.469,53.825,112.815,97.220,171.400,96.940
82,82642.217000,239.294,35.137,112.640,348.454,60.321,115.940,280.220,126.400,162.940
83,82642.257000,235.363,57.224,126.976,348.326,51.121,113.755,120.220,78.400,45.940
84,82642.277000,229.466,51.200,114.688,350.325,58.553,117.894,71.220,-97.600,16.940
85,82642.317000,227.501,39.153,103.424,351.241,56.675,114.872,20.220,-141.600,-33.060
86,82642.357000,220.622,41.161,102.400,353.111,55.667,108.885,-28.780,-211.600,-50.060
87,82642.396000,223.570,49.192,104.448,352.062,48.286,106.737,-11.780,-228.600,-101.060
88,82642.436000,230.449,49.192,96.256,354.089,58.349,104.965,71.220,-116.600,-82.060
89,82642.476000,225.536,55.216,102.400,354.155,63.749,100.107,42.220,-107.600,-69.060
90,82642.518000,231.432,40.157,84.992,354.054,56.400,98.956,-73.780,-83.600,-130.060
91,82642.538000,226.518,44.173,74.752,355.098,63.722,98.119,-249.780,-43.600,-195.060
92,82642.573000,243.225,54.212,78.848,355.180,69.297,102.216,-344.780,3.400,-278.060
93,82642.617000,245.190,57.224,82.944,353.277,68.375,103.188,-318.780,107.400,-244.060
94,82642.657000,233.397,55.216,83.968,353.273,68.336,101.198,-259.780,-34.600,-100.060
95,82642.693000,238.311,52.204,60.416,356.040,62.916,103.076,-497.780,-119.600,-104.060
96,82642.733000,240.276,38.149,55.296,353.236,65.588,101.139,-405.780,-202.600,-29.060
97,82642.757000,241.259,40.157,66.560,356.134,70.167,99.252,-106.780,-108.600,26.940
98,82642.795000,230.449,41.161,70.656,358.866,62.797,95.121,-15.780,-159.600,79.940
99,82642.838000,240.276,45.176,73.728,357.982,67.366,95.217,92.220,-122.600,134.940
100,82642.880000,246.173,44.173,78.848,356.984,63.669,94.142,136.220,-98.600,211.940
101,82642.918000,251.086,44.173,84.992,359.806,62.732,91.142,317.220,1.400,297.940
102,82642.958000,223.570,41.161,108.544,355.849,49.895,92.852,240.220,14.400,408.940
103,82642.998000,239.294,13.051,76.800,357.756,50.856,93.870,454.220,2.400,519.940
104,82643.16000,228.484,42.165,77.824,355.716,39.876,95.623,731.220,3.400,481.940
105,82643.56000,243.225,25.098,84.992,354.693,34.347,94.509,743.220,197.400,524.940
106,82643.96000,229.466,21.082,86.016,350.013,37.969,95.574,902.220,184.400,507.940
107,82643.136000,219.639,17.067,79.872,349.936,31.673,101.407,1134.220,159.400,565.940
108,82643.178000,235.363,3.012,82.944,350.803,25.370,106.248,1187.220,190.400,478.940
109,82643.218000,224.553,29.114,93.184,347.997,27.262,111.257,1133.220,147.400,412.940
110,82643.238000,226.518,26.102,102.400,349.877,26.371,111.241,1033.220,131.400,455.940
111,82643.275000,227.501,36.141,112.640,347.904,20.011,115.081,890.220,237.400,389.940
112,82643.315000,218.656,31.122,108.544,339.360,17.268,120.978,775.220,168.400,372.940
113,82643.356000,224.553,29.114,106.496,338.447,19.185,125.991,714.220,328.400,330.940
114,82643.396000,240.276,40.157,144.384,334.736,23.852,133.047,619.220,424.400,270.940
115,82643.436000,228.484,53.208,130.048,332.851,23.925,138.019,564.220,207.400,199.940
116,82643.456000,217.674,47.184,98.304,331.012,27.603,140.084,398.220,234.400,35.940
117,82643.496000,217.674,54.212,111.616,326.266,25.826,146.007,356.220,272.400,-67.060
118,82643.536000,211.777,54.212,107.520,326.358,32.297,149.128,287.220,149.400,-115.060
119,82643.582000,206.864,56.220,104.448,326.391,34.227,154.143,162.220,111.400,-156.060
120,82643.615000,198.019,55.216,105.472,324.488,33.305,155.115,224.220,86.400,-101.060
121,82643.667000,221.605,64.251,110.592,321.763,41.533,156.281,134.220,96.400,-79.060
122,82643.695000,236.345,67.263,90.112,322.736,43.397,157.316,-34.780,-104.600,-110.060
123,82643.715000,232.415,59.231,105.472,322.749,44.313,157.336,-159.780,-63.600,-23.060
124,82643.757000,218.656,60.235,105.472,322.699,40.649,157.258,-114.780,-91.600,8.940
125,82643.795000,215.708,65.255,103.424,324.577,39.738,156.247,-93.780,-146.600,0.940
126,82643.836000,211.777,61.239,111.616,320.701,33.236,154.113,60.220,-110.600,74.940
127,82643.876000,220.622,54.212,99.328,325.506,38.776,153.244,37.220,-158.600,48.940
128,82643.918000,224.553,54.212,95.232,326.358,32.297,149.128,6.220,-227.600,18.940
129,82643.938000,232.415,47.184,84.992,325.480,37.703,145.264,-132.780,-252.600,-17.060
130,82643.977000,238.311,50.196,84.992,324.455,32.155,143.155,-93.780,-220.600,-27.060
131,82644.17000,256.000,50.196,87.040,331.151,37.700,141.293,56.220,-58.600,46.940
132,82644.57000,251.086,47.184,86.016,328.219,30.412,145.113,100.220,26.400,67.940
133,82644.96000,243.225,53.208,67.584,331.050,30.352,140.142,120.220,2.400,101.940
134,82644.140000,215.708,37.145,63.488,327.171,23.051,143.960,147.220,-42.600,203.940
135,82644.178000,237.328,26.102,52.224,331.058,30.449,145.117,257.220,18.400,243.940
136,82644.198000,228.484,39.153,66.560,328.233,31.348,146.127,284.220,52.400,226.940
137,82644.246000,243.225,30.118,63.488,330.040,24.979,146.989,349.220,-56.600,214.940
138,82644.278000,241.259,38.149,59.392,330.112,30.437,145.116,253.220,-97.600,98.940
139,82644.318000,240.276,43.169,61.440,332.974,32.287,144.165,126.220,-134.600,-36.060
140,82644.358000,232.415,42.165,65.536,333.830,26.627,135.094,-26.780,-222.600,-33.060
141,82644.398000,246.173,34.133,53.248,334.762,25.704,134.081,-94.780,-124.600,-26.060
142,82644.418000,265.827,45.176,66.560,332.970,33.008,134.234,-326.780,22.400,-183.060
143,82644.457000,224.553,56.220,83.968,334.809,29.330,132.169,-487.780,-173.600,-296.060
144,82644.498000,236.345,48.188,68.608,331.131,37.466,129.353,-489.780,-141.600,-370.060
145,82644.538000,237.328,53.208,68.608,334.054,43.878,127.504,-653.780,-113.600,-480.060
146,82644.581000,234.380,61.239,68.608,335.005,44.709,122.550,-847.780,-92.600,-554.060
147,82644.616000,248.138,57.224,78.848,333.162,48.348,122.625,-1010.780,-82.600,-598.060
148,82644.656000,222.587,64.251,78.848,330.381,52.833,119.732,-1044.780,-239.600,-520.060
149,82644.680000,221.605,53.208,71.680,336.041,51.933,116.738,-1084.780,-221.600,-523.060
150,82644.716000,226.518,71.278,82.944,336.200,63.804,115.001,-980.780,-212.600,-522.060
151,82644.758000,222.587,61.239,102.400,338.140,67.454,113.093,-904.780,-202.600,-491.060
152,82644.798000,231.432,63.247,99.328,336.310,72.010,113.187,-808.780,-237.600,-458.060
153,82644.840000,221.605,75.294,101.376,335.403,75.545,107.293,-830.780,-208.600,-448.060
154,82644.877000,207.846,78.306,108.544,336.407,80.080,104.407,-691.780,-147.600,-375.060
155,82644.898000,213.743,74.290,94.208,336.366,77.292,102.358,-595.780,-175.600,-315.060
156,82644.937000,245.190,67.263,102.400,333.538,78.151,101.378,-766.780,-45.600,-373.060
157,82644.977000,236.345,83.325,128.000,334.625,88.280,103.584,-726.780,-6.600,-351.060
158,82645.17000,222.587,73.286,119.808,336.441,82.789,102.475,-701.780,-49.600,-283.060
159,82645.58000,200.967,61.239,99.328,332.783,91.920,103.659,-716.780,-6.600,-328.060
160,82645.98000,221.605,61.239,115.712,335.677,95.680,106.727,-727.780,73.400,-376.060
161,82645.118000,206.864,54.212,123.904,333.861,101.172,107.836,-729.780,103.400,-277.060
162,82645.158000,214.726,45.176,130.048,331.014,100.277,110.797,-558.780,171.400,-261.060
163,82645.198000,217.674,54.212,117.760,329.075,96.626,112.705,-369.780,154.400,-235.060
164,82645.240000,220.622,46.180,106.496,333.935,105.889,114.899,-174.780,-33.600,-138.060
165,82645.281000,226.518,50.196,112.640,330.107,103.032,111.849,29.220,15.400,-82.060
166,82645.318000,211.777,46.180,122.880,331.113,107.586,109.958,86.220,-46.600,139.940
167,82645.358000,212.760,60.235,107.520,337.691,104.828,104.936,-196.780,-116.600,73.940
168,82645.387000,222.587,49.192,96.256,334.790,100.209,104.833,-247.780,-166.600,178.940
169,82645.430000,217.674,38.149,109.568,341.389,98.465,104.806,-270.780,-125.600,167.940
170,82645.457000,224.553,41.161,105.472,342.157,85.612,102.544,-417.780,-174.600,-40.060
171,82645.501000,229.466,46.180,96.256,345.089,92.901,98.725,-445.780,-177.600,-153.060
172,82645.541000,241.259,49.192,100.352,344.239,100.178,96.889,-348.780,-142.600,-199.060
173,82645.581000,233.397,44.173,86.016,345.198,101.107,96.910,-498.780,-222.600,-359.060
174,82645.601000,231.432,53.208,96.256,345.281,107.461,94.062,-493.780,-109.600,-510.060
175,82645.646000,240.276,42.165,77.824,345.365,113.835,92.208,-312.780,-108.600,-411.060
176,82645.680000,233.397,51.200,80.896,343.449,111.998,93.161,-617.780,-107.600,-471.060
177,82645.721000,238.311,48.188,66.560,344.453,116.532,90.275,-753.780,-276.600,-412.060
178,82645.757000,222.587,55.216,50.176,344.573,125.635,87.485,-863.780,-494.600,-300.060
179,82645.798000,238.311,24.094,69.632,343.516,118.176,81.357,-447.780,-236.600,-242.060
180,82645.838000,240.276,47.184,72.704,345.511,125.550,82.511,8.220,-192.600,-8.060
181,82645.858000,242.242,50.196,71.680,344.508,121.795,78.452,176.220,-211.600,88.940
182,82645.898000,243.225,50.196,59.392,347.315,119.922,74.437,414.220,-191.600,247.940
183,82645.938000,260.914,45.176,56.320,346.276,113.438,71.314,620.220,-33.600,309.940
184,82645.980000,271.724,55.216,75.776,351.988,116.222,69.392,790.220,78.400,368.940
185,82646.20000,266.810,66.259,76.800,350.829,100.636,69.059,936.220,210.400,500.940
186,82646.60000,213.743,37.145,61.440,350.829,100.636,69.059,1166.220,185.400,777.940
187,82646.80000,240.276,19.075,53.248,350.644,86.153,77.702,1430.220,557.400,800.940
188,82646.147000,234.380,45.176,67.584,349.681,84.406,82.637,1644.220,734.400,801.940
189,82646.161000,232.415,23.090,67.584,344.759,69.023,95.232,1950.220,715.400,1069.940
190,82646.201000,222.587,11.043,63.488,344.667,61.791,100.051,2291.220,531.400,1185.940
191,82646.245000,229.466,56.220,58.368,344.497,49.024,102.763,2175.220,338.400,1178.940
192,82646.280000,227.501,59.231,83.968,341.602,44.484,106.641,2036.220,323.400,1137.940
193,82646.300000,229.466,57.224,104.448,343.416,38.194,111.483,1750.220,98.400,1074.940
194,82646.342000,223.570,52.204,103.424,342.310,26.310,113.218,1681.220,126.400,1005.940
195,82646.377000,235.363,31.122,107.520,339.462,25.396,115.183,1297.220,137.400,828.940
196,82646.417000,246.173,34.133,124.928,337.495,19.114,123.004,1173.220,180.400,745.940
197,82646.457000,214.726,43.169,124.928,332.778,19.987,124.010,1083.220,135.400,560.940
198,82646.497000,241.259,48.188,106.496,331.731,11.866,130.798,987.220,320.400,503.940
199,82646.538000,234.380,48.188,111.616,327.970,12.869,137.776,682.220,420.400,375.940
200,82646.558000,245.190,41.161,107.520,326.031,8.458,147.626,482.220,443.400,225.940
201,82646.600000,226.518,34.133,114.688,321.417,15.920,157.724,378.220,469.400,137.940
202,82646.640000,228.484,35.137,95.232,313.892,18.666,162.745,368.220,267.400,103.940
203,82646.680000,223.570,26.102,101.376,312.941,17.835,167.699,402.220,293.400,178.940
204,82646.720000,221.605,27.106,101.376,305.418,20.600,173.714,447.220,267.400,140.940
205,82646.758000,232.415,48.188,97.280,311.175,26.211,175.832,716.220,98.400,178.940
206,82646.780000,220.622,37.145,88.064,303.545,21.570,177.711,740.220,106.400,197.940
207,82646.820000,234.380,49.192,104.448,307.423,28.091,180.839,398.220,97.400,83.940
208,82646.860000,209.812,52.204,105.472,301.782,30.764,180.888,367.220,57.400,44.940
209,82646.900000,211.777,48.188,111.616,303.655,29.016,183.837,392.220,56.400,58.940
210,82646.938000,213.743,43.169,112.640,298.090,37.186,184.003,133.220,36.400,-21.060
211,82646.982000,214.726,56.220,96.256,299.025,36.302,184.980,53.220,-35.600,-30.060
212,82647.28000,229.466,51.200,88.064,299.002,34.489,185.936,106.220,30.400,2.940
213,82647.42000,241.259,51.200,94.208,299.825,25.360,186.738,-11.780,61.400,-32.060
214,82647.82000,239.294,37.145,81.920,298.135,40.032,189.037,72.220,-11.600,19.940
215,82647.128000,260.914,37.145,79.872,296.198,36.401,191.941,222.220,83.400,62.940
216,82647.161000,255.017,44.173,92.160,298.153,41.007,192.041,261.220,188.400,112.940
217,82647.201000,228.484,37.145,91.136,298.055,33.697,192.880,195.220,-10.600,152.940
218,82647.241000,224.553,34.133,66.560,296.207,37.278,189.970,183.220,3.400,110.940
219,82647.261000,215.708,47.184,93.184,294.396,42.828,194.064,41.220,21.400,51.940
220,82647.302000,220.622,42.165,74.752,298.140,40.090,192.022,-98.780,-149.600,37.940
221,82647.342000,223.570,37.145,73.728,298.009,30.851,187.847,-244.780,-170.600,-78.060
222,82647.382000,231.432,44.173,69.632,303.732,34.532,184.949,-322.780,-229.600,-211.060
223,82647.421000,230.449,45.176,75.776,303.714,33.557,181.945,-392.780,-324.600,-289.060
224,82647.458000,225.536,43.169,76.800,309.343,30.747,174.931,-562.780,-357.600,-302.060
225,82647.503000,264.845,39.153,79.872,316.021,35.318,170.065,-629.780,-185.600,-313.060
226,82647.520000,242.242,31.122,93.184,314.100,33.422,168.032,-901.780,-232.600,-413.060
227,82647.560000,204.898,45.176,72.704,317.815,29.573,156.020,-1119.780,-416.600,-637.060
228,82647.606000,282.534,48.188,77.824,319.797,36.030,157.155,-981.780,-94.600,-704.060
229,82647.642000,240.276,40.157,94.208,321.641,33.170,150.135,-1513.780,-268.600,-840.060
230,82647.682000,242.242,44.173,103.424,323.618,39.569,148.285,-1637.780,-232.600,-984.060
231,82647.718000,214.726,46.180,101.376,329.420,49.566,140.549,-1649.780,-495.600,-917.060
232,82647.741000,211.777,44.173,99.328,331.299,49.434,132.592,-1761.780,-458.600,-1005.060
233,82647.783000,211.777,47.184,91.136,331.346,53.840,123.734,-1867.780,-524.600,-1001.060
234,82647.828000,233.397,54.212,92.160,331.540,68.420,120.066,-1671.780,-463.600,-1003.060
235,82647.860000,222.587,73.286,111.616,330.680,75.580,112.260,-1451.780,-330.600,-959.060
236,82647.903000,221.605,79.310,109.568,331.695,81.011,108.398,-1317.780,-331.600,-828.060
237,82647.940000,213.743,68.267,109.568,332.788,91.978,106.644,-1334.780,-341.600,-856.060
238,82647.961000,222.587,77.302,109.568,332.838,95.643,106.722,-1273.780,-265.600,-763.060
239,82648.2000,245.190,74.290,119.808,330.044,99.211,103.810,-1344.780,-193.600,-809.060
240,82648.40000,206.864,70.275,123.904,329.323,115.689,104.160,-1265.780,-281.600,-684.060
241,82648.85000,231.432,63.247,117.760,329.335,116.605,104.179,-1188.780,-133.600,-689.060
242,82648.121000,193.106,63.247,131.072,328.537,127.567,103.417,-1130.780,-104.600,-644.060
243,82648.163000,187.209,60.235,114.688,328.665,136.767,105.602,-856.780,-130.600,-604.060
244,82648.205000,211.777,54.212,131.072,323.923,135.808,106.569,-869.780,23.400,-521.060
245,82648.220000,233.397,52.204,123.904,322.070,138.551,107.619,-776.780,33.400,-414.060
246,82648.265000,218.656,54.212,103.424,324.091,147.776,109.808,-738.780,-69.600,-286.060
247,82648.301000,214.726,33.129,84.992,325.924,143.260,111.704,-625.780,-201.600,-135.060
248,82648.342000,218.656,53.208,108.544,331.639,146.083,111.772,-382.780,-51.600,-70.060
249,82648.383000,229.466,61.239,131.072,327.837,145.059,108.761,-262.780,-95.600,40.940
250,82648.420000,212.760,35.137,110.592,331.545,139.592,107.656,-166.780,-220.600,64.940
251,82648.443000,228.484,31.122,98.304,335.322,139.545,102.687,-318.780,-165.600,54.940
252,82648.482000,220.622,36.141,113.664,337.224,140.447,100.720,-270.780,-195.600,77.940
253,82648.522000,212.760,32.125,100.352,337.128,133.936,95.608,-186.780,-291.600,41.940
254,82648.562000,231.432,36.141,103.424,340.910,133.947,93.624,-243.780,-218.600,-92.060
255,82648.602000,235.363,40.157,103.424,341.973,143.023,88.846,-332.780,-219.600,-183.060
256,82648.642000,233.397,45.176,105.472,341.921,139.339,87.773,-364.780,-193.600,-351.060
257,82648.682000,245.190,49.192,98.304,340.166,149.392,87.984,-349.780,-168.600,-485.060
258,82648.702000,213.743,60.235,95.232,338.311,152.115,88.039,-394.780,-196.600,-523.060
259,82648.740000,226.518,63.247,88.064,334.678,163.078,89.262,-482.780,-133.600,-569.060
260,82648.780000,237.328,65.255,86.016,332.842,167.575,86.371,-405.780,-105.600,-384.060
261,82648.820000,224.553,68.267,69.632,335.708,169.465,87.410,-389.780,-139.600,-201.060
262,82648.861000,225.536,63.247,78.848,331.879,165.828,91.306,-366.780,-110.600,-71.060
263,82648.901000,233.397,53.208,69.632,334.640,160.330,89.203,-278.780,-101.600,41.940
264,82648.922000,238.311,42.165,64.512,337.424,156.644,86.145,56.220,-80.600,186.940
265,82648.963000,243.225,51.200,61.440,336.553,162.129,86.261,463.220,-51.600,307.940
266,82649.3000,233.397,46.180,62.464,336.355,148.270,79.998,602.220,-63.600,451.940
267,82649.45000,246.173,49.192,57.344,345.797,147.381,75.019,953.220,-46.600,583.940
268,82649.80000,272.706,55.216,65.536,345.653,137.225,70.825,1021.220,73.400,606.940
269,82649.120000,293.344,56.220,70.656,350.247,127.210,70.618,1225.220,211.400,629.940
270,82649.160000,178.365,78.306,88.064,351.123,122.545,65.547,1484.220,71.400,953.940
271,82649.180000,243.225,7.027,86.016,354.600,99.750,68.051,1302.220,490.400,817.940
272,82649.221000,241.259,58.227,70.656,356.501,99.872,73.030,1761.220,333.400,779.940
273,82649.266000,230.449,48.188,89.088,354.417,85.287,77.689,1772.220,466.400,920.940
274,82649.311000,225.536,49.192,73.728,355.276,78.887,77.554,1895.220,424.400,942.940
275,82649.343000,229.466,58.227,74.752,353.272,69.856,85.316,1801.220,370.400,1058.940
276,82649.383000,233.397,50.196,96.256,355.947,57.205,92.013,1693.220,403.400,1050.940
277,82649.412000,227.501,50.196,100.352,351.940,40.703,93.645,1634.220,205.400,993.940
278,82649.445000,236.345,36.141,97.280,351.914,38.091,100.552,1510.220,297.400,922.940
279,82649.485000,233.397,39.153,108.544,346.096,27.140,106.278,1331.220,383.400,851.940
280,82649.525000,233.397,27.106,124.928,346.035,21.799,114.122,1243.220,412.400,817.940
281,82649.565000,222.587,40.157,105.472,338.328,10.862,121.835,1187.220,296.400,761.940
282,82649.602000,218.656,46.180,101.376,337.429,13.715,127.862,997.220,345.400,627.940
283,82649.621000,220.622,45.176,105.472,334.536,8.434,140.676,1154.220,401.400,620.940
284,82649.663000,233.397,58.227,102.400,330.813,12.185,147.712,869.220,375.400,358.940
285,82649.703000,219.639,46.180,102.400,322.184,3.068,155.463,632.220,297.400,321.940
286,82649.743000,222.587,44.173,101.376,322.177,2.210,158.428,545.220,271.400,242.940
287,82649.782000,226.518,32.125,89.088,319.396,5.935,163.477,562.220,199.400,286.940
288,82649.831000,254.035,32.125,91.136,314.642,3.299,172.365,493.220,378.400,209.940
289,82649.863000,242.242,55.216,133.120,310.033,11.599,178.503,522.220,126.400,252.940
290,82649.883000,194.088,26.102,71.680,309.049,8.838,178.443,575.220,-8.600,273.940
291,82649.923000,230.449,46.180,121.856,305.326,12.589,185.479,496.220,342.400,177.940
292,82649.963000,212.760,47.184,111.616,307.133,6.221,186.341,340.220,33.400,188.940
293,82650.3000,214.726,37.145,110.592,305.336,12.706,191.450,329.220,14.400,211.940
294,82650.43000,216.691,43.169,111.616,308.100,7.247,191.338,255.220,-39.600,127.940
295,82650.83000,216.691,54.212,109.568,306.249,10.789,186.437,24.220,-143.600,87.940
296,82650.105000,220.622,42.165,106.496,305.298,10.718,183.450,-19.780,-214.600,119.940
297,82650.151000,238.311,43.169,97.280,308.101,8.027,184.392,-178.780,-219.600,53.940
298,82650.181000,233.397,28.110,95.232,309.990,8.013,182.405,-149.780,-196.600,7.940
299,82650.221000,249.121,29.114,75.776,311.840,5.231,179.365,35.220,-221.600,9.940
300,82650.262000,254.035,25.098,88.064,311.865,7.063,179.404,221.220,-43.600,52.940
301,82650.302000,265.827,33.129,89.088,311.808,3.320,175.345,180.220,65.400,84.940
302,82650.343000,202.933,24.094,86.016,313.658,-0.241,179.251,71.220,-123.600,106.940
303,82650.363000,244.207,13.051,72.704,314.677,5.249,178.375,88.220,14.400,86.940
304,82650.405000,228.484,28.110,70.656,315.619,5.203,175.391,81.220,-41.600,-40.060
305,82650.441000,226.518,26.102,71.680,316.602,7.964,175.451,-47.780,-84.600,-113.060
306,82650.483000,222.587,26.102,70.656,317.550,7.996,176.448,-118.780,-178.600,-215.060
307,82650.522000,232.415,35.137,66.560,319.330,0.535,168.335,-176.780,-242.600,-257.060
308,82650.562000,234.380,39.153,58.368,317.500,5.871,161.483,-317.780,-348.600,-296.060
309,82650.582000,245.190,37.145,48.128,327.936,8.620,154.595,-421.780,-268.600,-313.060
310,82650.622000,284.499,32.125,74.752,328.975,15.883,150.772,-632.780,-162.600,-405.060
311,82650.670000,223.570,60.235,84.992,329.960,19.424,143.887,-814.780,-420.600,-636.060
312,82650.703000,259.931,51.200,60.416,335.681,23.085,139.994,-862.780,-232.600,-794.060
313,82650.745000,234.380,51.200,86.016,332.865,25.621,131.092,-1311.780,-149.600,-819.060
314,82650.785000,230.449,48.188,83.968,337.752,37.515,127.374,-1634.780,-326.600,-907.060
315,82650.822000,242.242,59.231,93.184,338.717,39.281,123.435,-1608.780,-214.600,-921.060
316,82650.846000,216.691,44.173,80.896,338.880,51.971,116.743,-1357.780,-366.600,-776.060
317,82650.882000,224.553,51.200,76.800,341.777,56.530,113.860,-1423.780,-305.600,-803.060
318,82650.923000,217.674,63.247,88.064,342.813,63.755,108.048,-1401.780,-239.600,-790.060
319,82650.962000,234.380,65.255,103.424,340.914,63.652,104.064,-1248.780,-216.600,-706.060
320,82651.11000,229.466,76.298,99.328,345.742,71.004,102.238,-1204.780,-219.600,-706.060
321,82651.46000,230.449,76.298,99.328,343.009,79.134,98.429,-1216.780,-166.600,-745.060
322,82651.65000,211.777,69.271,113.664,343.112,86.502,100.575,-1221.780,-187.600,-734.060
323,82651.105000,216.691,49.192,103.424,343.307,101.102,97.902,-1220.780,-162.600,-664.060
324,82651.143000,224.553,37.145,122.880,336.774,107.466,100.017,-1147.780,104.400,-613.060
325,82651.186000,233.397,54.212,138.240,332.983,106.578,103.971,-1030.780,93.400,-457.060
326,82651.225000,218.656,43.169,116.736,336.862,113.119,108.095,-1009.780,-13.600,-363.060
327,82651.262000,215.708,35.137,110.592,335.023,116.797,110.160,-821.780,-40.600,-293.060
328,82651.283000,207.846,39.153,107.520,334.073,116.746,108.168,-561.780,-41.600,-222.060
329,82651.323000,208.829,33.129,107.520,334.098,118.578,108.207,-586.780,-26.600,-177.060
330,82651.362000,250.104,31.122,117.760,337.840,115.042,112.116,-444.780,123.400,-196.060
331,82651.406000,196.054,35.137,134.144,334.196,125.108,114.314,-196.780,-80.600,-94.060
332,82651.446000,199.002,36.141,116.736,333.230,124.102,110.312,-91.780,-54.600,-121.060
333,82651.486000,216.691,47.184,140.288,335.162,126.894,111.369,-204.780,149.400,-216.060
334,82651.522000,205.881,42.165,129.024,336.121,127.823,111.390,-353.780,-27.600,-265.060
335,82651.542000,210.795,49.192,124.928,334.317,134.230,112.519,-430.780,-153.600,-324.060
336,82651.588000,202.933,60.235,126.976,334.273,131.404,108.480,-479.780,-191.600,-309.060
337,82651.623000,208.829,48.188,122.880,338.137,136.990,110.594,-459.780,-180.600,-229.060
338,82651.663000,222.587,47.184,114.688,335.340,140.519,105.692,-515.780,-228.600,-239.060
339,82651.703000,229.466,49.192,115.712,337.279,144.170,103.783,-581.780,-221.600,-310.060
340,82651.743000,239.294,50.196,115.712,335.395,145.022,101.809,-454.780,-221.600,-366.060
341,82651.763000,237.328,53.208,104.448,335.506,153.248,100.990,-603.780,-290.600,-496.060
342,82651.803000,241.259,57.224,104.448,335.531,155.080,101.029,-624.780,-230.600,-557.060
343,82651.843000,217.674,55.216,86.016,333.682,158.641,97.123,-418.780,-253.600,-430.060
344,82651.886000,220.622,54.212,100.352,333.848,170.590,99.367,-397.780,-170.600,-393.060
345,82651.930000,226.518,52.204,89.088,332.000,174.171,96.457,-378.780,-256.600,-323.060
346,82651.965000,229.466,53.208,75.776,333.867,173.124,88.480,-147.780,-366.600,-125.060
347,82652.13000,227.501,52.204,75.776,332.927,173.949,84.518,-34.780,-321.600,-38.060
348,82652.23000,230.449,50.196,81.920,331.866,165.672,83.345,103.220,-265.600,71.940
349,82652.67000,233.397,47.184,70.656,337.559,167.462,77.424,201.220,-259.600,208.940
350,82652.106000,236.345,46.180,69.632,340.388,167.383,71.459,273.220,-256.600,294.940
351,82652.145000,239.294,46.180,56.320,343.031,153.581,66.196,343.220,-225.600,413.940
352,82652.183000,265.827,39.153,66.560,344.901,152.572,60.209,627.220,-100.600,481.940
353,82652.225000,270.741,42.165,66.560,347.660,147.055,57.112,977.220,-78.600,562.940
354,82652.245000,201.950,44.173,73.728,354.165,138.819,52.968,1128.220,-12.600,718.940
355,82652.286000,244.207,27.106,64.512,351.992,118.580,49.550,1305.220,261.400,660.940
356,82652.327000,248.138,48.188,62.464,360.482,116.841,48.531,1477.220,288.400,646.940
357,82652.366000,241.259,44.173,66.560,359.294,98.604,53.114,1563.220,522.400,704.940
358,82652.411000,244.207,64.251,74.752,357.323,92.263,57.949,1797.220,493.400,844.940
359,82652.446000,235.363,64.251,81.920,358.224,88.670,60.858,1735.220,430.400,923.940
360,82652.486000,230.449,58.227,83.968,361.832,75.095,66.542,1684.220,445.400,990.940
361,82652.505000,235.363,43.169,94.208,354.089,61.428,75.192,1599.220,336.400,943.940
362,82652.546000,233.397,39.153,97.280,353.895,46.848,78.860,1272.220,347.400,876.940
363,82652.586000,244.207,27.106,91.136,358.601,44.299,85.775,1276.220,389.400,861.940
364,82652.626000,236.345,21.082,110.592,352.717,28.728,89.413,1124.220,326.400,813.940
365,82652.666000,224.553,33.129,97.280,350.791,25.234,99.282,1206.220,385.400,781.940
366,82652.707000,233.397,27.106,103.424,346.876,14.424,110.982,1117.220,466.400,757.940
367,82652.727000,212.760,44.173,97.280,343.045,9.989,120.828,1086.220,418.400,662.940
368,82652.767000,225.536,57.224,104.448,340.223,10.146,130.774,1049.220,410.400,496.940
369,82652.807000,217.674,45.176,96.256,331.666,6.486,136.651,905.220,324.400,388.940
370,82652.847000,215.708,43.169,98.304,329.721,1.998,142.521,707.220,298.400,297.940
371,82652.887000,217.674,43.169,112.640,328.879,8.593,152.606,789.220,323.400,299.940
372,82652.932000,250.104,47.184,118.784,325.030,3.183,159.448,712.220,334.400,240.940
373,82652.966000,264.845,41.161,113.664,316.636,11.433,165.579,762.220,243.400,301.940
374,82652.991000,197.036,40.157,116.736,318.444,5.084,167.436,638.220,100.400,280.940
375,82653.26000,198.019,49.192,104.448,319.465,9.814,174.500,434.220,140.400,233.940
376,82653.66000,227.501,52.204,130.048,317.477,2.518,177.326,367.220,197.400,181.940
377,82653.106000,216.691,35.137,115.712,314.804,14.430,179.565,341.220,31.400,143.940
378,82653.146000,227.501,46.180,104.448,309.924,3.393,180.317,229.220,-20.600,70.940
379,82653.186000,218.656,48.188,105.472,315.680,9.004,182.435,158.220,-182.600,27.940
380,82653.207000,223.570,44.173,106.496,317.611,12.557,175.551,115.220,-308.600,81.940
381,82653.246000,225.536,42.165,88.064,319.456,9.716,169.525,97.220,-470.600,120.940
382,82653.290000,229.466,27.106,88.064,322.299,10.572,164.574,191.220,-447.600,94.940
383,82653.325000,239.294,31.122,68.608,330.778,8.696,156.590,189.220,-448.600,-2.060
384,82653.368000,267.793,40.157,66.560,329.892,13.245,155.691,240.220,-224.600,-24.060
385,82653.406000,269.758,44.173,96.256,326.972,7.633,151.588,183.220,-39.600,-12.060
386,82653.446000,242.242,39.153,76.800,327.052,13.188,154.691,14.220,-70.600,-24.060
387,82653.466000,243.225,28.110,52.224,327.946,9.516,153.619,129.220,87.400,44.940
388,82653.506000,211.777,36.141,75.776,329.842,9.581,155.613,95.220,79.400,-43.060
389,82653.546000,220.622,37.145,51.200,328.025,15.052,155.726,6.220,55.400,-74.060
390,82653.585000,236.345,28.110,58.368,328.064,17.820,156.780,-111.780,-18.600,-65.060
391,82653.626000,232.415,36.141,68.608,328.946,13.233,155.689,-241.780,-39.600,-145.060
392,82653.666000,227.501,35.137,67.584,332.776,16.889,152.789,-465.780,-155.600,-296.060
393,82653.686000,230.449,29.114,53.248,330.827,13.121,148.727,-442.780,-96.600,-314.060
394,82653.726000,259.931,36.141,67.584,332.856,23.204,147.950,-465.780,-4.600,-322.060
395,82653.766000,245.190,45.176,79.872,334.743,23.170,144.968,-717.780,-205.600,-463.060
396,82653.817000,249.121,66.259,75.776,334.699,20.344,140.929,-712.780,-151.600,-585.060
397,82653.845000,245.190,58.227,91.136,334.867,33.092,137.222,-872.780,-25.600,-587.060
398,82653.887000,237.328,55.216,81.920,339.610,34.051,136.255,-1508.780,-115.600,-816.060
399,82653.908000,229.466,56.220,86.016,338.668,34.857,131.298,-1554.780,-187.600,-829.060
400,82653.947000,221.605,57.224,78.848,340.518,32.075,128.257,-1717.780,-285.600,-792.060
401,82653.985000,223.570,40.157,74.752,339.711,42.939,122.519,-1597.780,-349.600,-780.060
402,82654.26000,226.518,51.200,87.040,345.467,49.310,116.696,-1557.780,-350.600,-744.060
403,82654.68000,236.345,37.145,91.136,344.711,63.838,111.036,-1362.780,-394.600,-718.060
404,82654.106000,239.294,55.216,102.400,342.910,71.045,106.214,-1222.780,-339.600,-730.060
405,82654.146000,236.345,64.251,109.568,344.810,71.927,103.251,-1005.780,-194.600,-673.060
406,82654.165000,233.397,58.227,112.640,343.010,79.153,99.424,-931.780,-184.600,-615.060
407,82654.211000,247.155,60.235,115.712,343.154,90.069,95.678,-959.780,-130.600,-670.060
408,82654.246000,208.829,60.235,116.736,343.181,91.921,96.712,-808.780,-180.600,-588.060
409,82654.288000,200.967,41.161,100.352,342.417,105.592,94.018,-806.780,-155.600,-591.060
410,82654.328000,225.536,47.184,129.024,339.669,112.006,96.139,-855.780,-28.600,-595.060
411,82654.367000,215.708,49.192,113.664,335.001,116.544,97.224,-774.780,-137.600,-427.060
412,82654.386000,209.812,44.173,110.592,340.702,118.431,96.278,-739.780,-95.600,-360.060
413,82654.425000,197.036,43.169,113.664,337.985,127.516,94.478,-634.780,-131.600,-238.060
414,82654.470000,213.743,39.153,114.688,337.910,122.019,94.361,-651.780,-107.600,-227.060
415,82654.510000,250.104,54.212,105.472,339.845,124.851,97.408,-630.780,-47.600,-242.060
416,82654.546000,201.950,48.188,128.000,336.123,129.382,97.499,-580.780,-166.600,-135.060
417,82654.586000,191.140,53.208,113.664,341.822,131.250,95.558,-542.780,-111.600,-138.060
418,82654.627000,210.795,54.212,116.736,335.167,128.492,99.468,-696.780,-50.600,-151.060
419,82654.647000,230.449,64.251,123.904,340.882,131.316,99.536,-1034.780,-159.600,-145.060
420,82654.687000,226.518,58.227,115.712,338.943,127.665,101.445,-1519.780,-206.600,-175.060
421,82654.727000,224.553,43.169,107.520,338.845,120.356,102.284,-1750.780,-256.600,-166.060
422,82654.767000,213.743,32.125,94.208,343.594,121.393,105.297,-1687.780,-411.600,-70.060
423,82654.808000,225.536,6.024,86.016,343.428,109.444,103.053,-1774.780,-397.600,-27.060
424,82654.850000,240.276,-19.075,99.328,347.197,107.760,107.996,-1579.780,-212.600,-36.060
425,82654.866000,236.345,-19.075,114.688,349.077,106.868,107.980,-1564.780,-288.600,-346.060
426,82654.910000,257.965,-9.035,84.992,346.252,107.767,108.989,-1206.780,-173.600,-410.060
427,82654.950000,263.862,-7.027,96.256,343.376,104.981,108.926,-912.780,-41.600,-473.060
428,82654.990000,227.501,-1.004,108.544,343.507,114.220,113.101,-819.780,-213.600,-623.060
429,82655.28000,229.466,19.075,77.824,344.523,119.671,110.235,-692.780,-74.600,-652.060
430,82655.68000,217.674,10.039,82.944,341.807,127.996,116.376,-545.780,34.400,-418.060
431,82655.106000,214.726,13.051,84.992,337.138,132.514,116.465,-343.780,-13.600,-309.060
432,82655.126000,230.449,29.114,80.896,339.027,132.500,114.478,-273.780,-87.600,-159.060
433,82655.171000,240.276,19.075,81.920,338.028,128.784,112.408,39.220,-144.600,11.940
434,82655.208000,234.380,19.075,78.848,342.820,133.407,111.519,287.220,-88.600,89.940
435,82655.246000,231.432,16.063,65.536,341.778,126.884,106.406,510.220,-149.600,155.940
436,82655.288000,230.449,1.004,72.704,345.544,125.940,102.413,802.220,-93.600,175.940
437,82655.326000,280.568,15.059,76.800,343.665,127.611,95.483,1230.220,-2.600,173.940
438,82655.346000,283.516,17.067,88.064,345.576,129.390,91.545,1706.220,47.400,376.940
439,82655.388000,201.950,9.035,64.512,345.509,125.530,81.516,1846.220,-225.600,507.940
440,82655.428000,251.086,-14.055,49.152,347.448,129.181,79.608,2047.220,584.400,471.940
441,82655.468000,249.121,15.059,77.824,345.468,122.743,79.468,2530.220,516.400,689.940
442,82655.508000,243.225,61.239,69.632,347.206,111.716,76.252,2802.220,534.400,788.940
443,82655.547000,235.363,65.255,70.656,350.012,109.063,79.183,2782.220,619.400,1000.940
444,82655.587000,233.397,65.255,73.728,350.723,91.689,79.809,2633.220,593.400,1166.940
445,82655.607000,224.553,62.243,72.704,351.590,85.386,84.650,2438.220,488.400,1127.940
446,82655.647000,231.432,60.235,84.992,350.486,73.522,87.379,2195.220,441.400,1126.940
447,82655.687000,234.380,54.212,101.376,350.385,65.414,94.169,2019.220,417.400,1114.940
448,82655.727000,220.622,52.204,96.256,346.417,51.680,96.855,1917.220,343.400,1098.940
449,82655.771000,239.294,39.153,103.424,349.054,36.261,102.498,1764.220,381.400,1055.940
450,82655.811000,237.328,47.184,113.664,343.280,28.136,112.263,1679.220,412.400,1037.940
451,82655.831000,229.466,46.180,107.520,341.327,22.789,121.098,1817.220,442.400,1064.940
452,82655.871000,210.795,44.173,111.616,333.689,17.271,124.948,1804.220,411.400,985.940
453,82655.911000,213.743,41.161,101.376,334.680,19.350,136.930,1900.220,466.400,842.940
454,82655.951000,227.501,45.176,106.496,328.126,23.161,148.937,1911.220,489.400,669.940
455,82655.991000,222.587,31.122,100.352,323.393,22.319,155.874,1862.220,392.400,479.940
456,82656.31000,229.466,31.122,94.208,319.718,29.715,161.994,2095.220,450.400,392.940
457,82656.72000,233.397,29.114,87.040,317.996,41.697,167.220,2503.220,491.400,416.940
458,82656.91000,297.274,39.153,70.656,310.645,57.250,171.518,3341.220,606.400,463.940
459,82656.130000,227.501,120.471,6.144,304.378,83.671,169.087,3331.220,337.400,742.940
460,82656.171000,190.157,145.569,77.824,294.117,93.728,175.254,3463.220,1185.400,917.940
461,82656.212000,206.864,144.565,103.424,288.622,106.577,180.493,2694.220,949.400,970.940
462,82656.250000,206.864,111.435,75.776,288.675,110.280,182.561,2035.220,764.400,915.940
463,82656.287000,218.656,87.341,87.040,286.814,112.166,186.577,1362.220,550.400,782.940
464,82656.311000,218.656,73.286,99.328,286.855,114.953,188.625,1191.220,348.400,571.940
465,82656.347000,228.484,51.200,86.016,288.793,118.584,185.722,1386.220,134.400,440.940
466,82656.391000,235.363,66.259,69.632,286.080,128.488,178.966,1357.220,121.400,426.940
467,82656.432000,234.380,71.278,82.944,285.166,131.165,176.038,1225.220,164.400,419.940
468,82656.470000,241.259,77.302,73.728,290.914,136.678,173.180,1062.220,124.400,327.940
469,82656.510000,243.225,67.263,67.584,284.296,137.429,169.207,924.220,115.400,262.940
470,82656.530000,226.518,63.247,69.632,287.159,139.299,169.251,828.220,115.400,185.940
471,82656.570000,242.242,65.255,76.800,286.257,142.872,165.347,553.220,94.400,95.940
472,82656.610000,218.656,59.231,74.752,287.215,143.801,165.369,234.220,-68.600,25.940
473,82656.650000,220.622,45.176,72.704,288.172,144.710,164.395,-33.780,-210.600,-34.060
474,82656.690000,228.484,45.176,73.728,292.908,145.591,159.447,-274.780,-314.600,-71.060
475,82656.730000,231.432,57.224,63.488,294.803,146.415,153.500,-578.780,-451.600,-74.060
476,82656.770000,228.484,78.306,65.536,295.669,140.093,157.345,-1406.780,-424.600,-92.060
477,82656.790000,219.639,90.353,73.728,295.365,117.287,161.832,-2305.780,-269.600,-238.060
478,82656.830000,267.793,101.396,69.632,296.172,106.443,168.565,-3072.780,-270.600,-361.060
479,82656.868000,250.104,89.349,60.416,303.576,93.814,173.281,-3518.780,-565.600,-614.060
480,82656.907000,199.985,68.267,14.336,309.825,66.418,172.707,-3498.780,-671.600,-754.060
481,82656.952000,258.948,60.235,46.080,313.420,52.687,170.431,-3840.780,-544.600,-979.060
482,82656.992000,263.862,42.165,30.720,319.804,36.108,161.135,-4056.780,-787.600,-1110.060
483,82657.7000,266.810,37.145,52.224,329.157,28.787,155.026,-4062.780,-728.600,-1141.060
484,82657.51000,239.294,39.153,23.552,333.592,8.441,141.669,-3803.780,-513.600,-1010.060
485,82657.92000,243.225,11.043,36.864,337.430,13.734,128.857,-4037.780,-544.600,-1130.060
486,82657.131000,222.587,6.024,69.632,343.933,6.239,115.777,-3542.780,-555.600,-1156.060
487,82657.168000,238.311,0.000,77.824,343.036,10.651,107.912,-2815.780,-307.600,-1075.060
488,82657.211000,243.225,1.004,87.040,348.825,19.731,100.157,-2387.780,-211.600,-1131.060
489,82657.252000,255.017,25.098,89.088,352.799,34.303,93.511,-2200.780,-172.600,-1181.060
490,82657.271000,248.138,36.141,105.472,349.155,44.369,95.709,-1877.780,107.400,-1105.060
491,82657.311000,240.276,37.145,123.904,345.607,61.726,96.073,-1889.780,-18.600,-1172.060
492,82657.350000,239.294,49.192,116.736,347.560,66.312,95.179,-1874.780,-10.600,-1067.060
493,82657.390000,199.002,31.122,114.688,345.855,80.029,95.468,-2057.780,-186.600,-909.060
494,82657.431000,230.449,37.145,121.856,347.895,90.248,101.656,-2046.780,-87.600,-672.060
495,82657.471000,221.605,33.129,111.616,344.955,82.862,100.500,-2866.780,-422.600,-601.060
496,82657.491000,227.501,31.122,94.208,345.940,85.643,101.556,-3291.780,-472.600,-599.060
497,82657.531000,239.294,-2.008,80.896,344.037,84.721,102.528,-3573.780,-407.600,-837.060
498,82657.571000,233.397,-47.184,72.704,344.018,82.967,106.469,-3697.780,-362.600,-932.060
499,82657.611000,215.708,-88.345,80.896,344.961,82.161,111.426,-3218.780,-244.600,-895.060
500,82657.663000,213.743,-69.271,94.208,342.268,92.298,116.611,-2124.780,18.400,-907.060
501,82657.692000,233.397,-30.118,100.352,339.535,99.668,120.743,-1008.780,61.400,-809.060
502,82657.732000,231.432,1.004,81.920,335.048,117.090,125.085,-794.780,8.400,-762.060
503,82657.755000,234.380,15.059,88.064,335.056,117.188,130.061,-906.780,108.400,-557.060
504,82657.790000,235.363,22.086,88.064,332.296,122.686,132.163,-979.780,20.400,-386.060
505,82657.830000,238.311,-2.008,91.136,332.229,117.287,137.021,-915.780,61.400,-324.060
506,82657.871000,239.294,2.008,82.944,330.379,120.069,140.061,-678.780,61.400,-331.060
507,82657.911000,244.207,9.035,90.112,328.559,124.742,146.126,-563.780,84.400,-326.060
508,82657.948000,242.242,21.082,82.944,325.773,128.408,148.189,-599.780,47.400,-351.060
509,82657.968000,238.311,16.063,80.896,326.815,134.931,153.303,-564.780,44.400,-308.060
510,82658.11000,236.345,15.059,93.184,322.957,129.403,154.174,-558.780,127.400,-231.060
511,82658.50000,253.052,6.024,94.208,320.156,131.354,162.168,-423.780,212.400,-165.060
512,82658.88000,232.415,8.031,84.992,318.263,131.329,162.165,-265.780,162.400,-170.060
513,82658.131000,212.760,-1.004,94.208,316.278,124.053,165.986,164.220,278.400,-30.060
514,82658.172000,222.587,-1.004,84.992,315.445,132.305,167.155,786.220,413.400,17.940
515,82658.212000,220.622,0.000,110.592,312.801,146.088,171.423,1350.220,435.400,114.940
516,82658.232000,223.570,6.024,104.448,310.909,146.843,164.474,1767.220,277.400,172.940
517,82658.270000,224.553,7.027,86.016,310.268,170.415,153.039,2052.220,233.400,136.940
518,82658.310000,234.380,43.169,68.608,313.212,179.380,141.298,2297.220,245.400,242.940
519,82658.353000,257.965,65.255,65.536,314.229,185.610,131.486,2613.220,363.400,413.940
520,82658.392000,278.603,60.235,72.704,313.218,182.537,115.505,2796.220,438.400,755.940
521,82658.430000,238.311,74.290,62.464,319.832,183.267,101.605,2950.220,457.400,1008.940
522,82658.451000,197.036,50.196,32.768,326.220,167.507,87.354,2860.220,661.400,1389.940
523,82658.491000,234.380,70.275,91.136,332.653,153.814,85.083,2769.220,1032.400,1287.940
524,82658.532000,233.397,86.337,72.704,333.550,150.162,85.007,3012.220,890.400,1582.940
525,82658.571000,230.449,79.310,75.776,339.023,134.760,89.660,2866.220,1019.400,1611.940
526,82658.610000,233.397,78.306,72.704,341.533,110.160,94.114,2834.220,772.400,1718.940
527,82658.650000,216.691,90.353,100.352,347.028,96.551,96.816,2605.220,702.400,1611.940
528,82658.690000,218.656,84.329,124.928,346.801,79.262,102.416,2073.220,531.400,1454.940
529,82658.710000,224.553,69.271,121.856,344.706,63.780,108.051,1913.220,445.400,1355.940
530,82658.753000,205.881,53.208,129.024,339.807,50.989,112.745,1746.220,445.400,1302.940
531,82658.793000,206.864,52.204,129.024,339.772,47.500,121.622,1475.220,457.400,1182.940
532,82658.838000,223.570,32.125,136.192,335.774,31.096,128.229,1383.220,403.400,1066.940
533,82658.872000,234.380,43.169,136.192,333.882,30.311,136.167,1464.220,353.400,968.940
534,82658.920000,206.864,47.184,109.568,329.032,21.165,139.944,1394.220,203.400,904.940
535,82658.941000,204.898,58.227,98.304,331.897,22.275,147.929,1284.220,228.400,746.940
536,82658.970000,221.605,64.251,112.640,325.173,14.099,155.702,1160.220,382.400,691.940
537,82659.10000,222.587,58.227,111.616,322.424,19.734,164.769,913.220,288.400,518.940
538,82659.50000,226.518,40.157,99.328,316.721,17.047,171.666,797.220,343.400,481.940
539,82659.93000,247.155,40.157,116.736,312.940,16.276,181.591,819.220,477.400,406.940
540,82659.130000,218.656,41.161,119.808,312.881,11.734,183.483,599.220,298.400,395.940
541,82659.161000,198.019,44.173,104.448,304.386,12.655,189.458,748.220,220.400,413.940
542,82659.195000,190.157,41.161,101.376,304.495,20.082,194.589,588.220,182.400,286.940
543,82659.230000,228.484,58.227,131.072,299.686,13.723,200.415,431.220,362.400,223.940
544,82659.270000,215.708,48.188,119.808,296.964,21.989,203.571,424.220,110.400,211.940
545,82659.313000,222.587,36.141,104.448,294.113,21.036,203.546,292.220,-3.600,124.940
546,82659.351000,211.777,41.161,105.472,295.114,24.771,206.611,77.220,-51.600,34.940
547,82659.391000,219.639,49.192,101.376,296.933,19.319,207.492,-64.780,-132.600,-46.060
548,82659.413000,234.380,42.165,95.232,295.071,21.964,203.567,-73.780,-130.600,-37.060
549,82659.452000,232.415,34.133,98.304,298.769,15.602,203.437,-42.780,-88.600,-54.060
550,82659.491000,237.328,35.137,97.280,296.884,16.434,200.468,-70.780,-79.600,-86.060
551,82659.531000,243.225,31.122,90.112,299.839,24.756,202.639,-15.780,-7.600,-104.060
552,82659.572000,243.225,39.153,110.592,295.109,24.713,203.626,35.220,48.400,-67.060
553,82659.612000,206.864,33.129,83.968,296.048,23.868,206.593,-56.780,-120.600,-44.060
554,82659.633000,225.536,24.094,94.208,298.902,25.620,200.667,-75.780,-24.600,-3.060
555,82659.673000,217.674,34.133,82.944,299.832,24.678,198.659,-74.780,-144.600,-1.060
556,82659.713000,224.553,28.110,86.016,303.458,12.857,200.402,-311.780,-248.600,0.940
557,82659.753000,233.397,29.114,87.040,309.224,20.125,193.603,-360.780,-253.600,-54.060
558,82659.793000,227.501,24.094,90.112,309.064,9.014,187.398,-539.780,-288.600,-159.060
559,82659.833000,231.432,21.082,86.016,311.945,12.618,182.506,-556.780,-343.600,-228.060
560,82659.873000,257.965,25.098,88.064,314.744,10.648,173.516,-603.780,-326.600,-343.060
561,82659.892000,235.363,24.094,91.136,318.507,9.665,167.533,-769.780,-380.600,-481.060
562,82659.938000,209.812,44.173,80.896,324.140,6.913,163.504,-837.780,-338.600,-652.060
563,82659.972000,261.896,78.306,111.616,320.516,18.753,162.756,-1284.780,27.400,-877.060
564,82660.15000,240.276,46.180,102.400,327.269,28.821,158.008,-1640.780,-239.600,-1030.060
565,82660.53000,246.173,50.196,100.352,328.279,34.194,151.161,-1828.780,-249.600,-1164.060
566,82660.93000,211.777,32.125,84.992,327.339,35.019,147.199,-1841.780,-509.600,-1221.060
567,82660.113000,204.898,52.204,90.112,331.280,47.680,136.533,-1718.780,-540.600,-1240.060
568,82660.155000,205.881,50.196,97.280,334.215,55.768,126.763,-1737.780,-611.600,-1169.060
569,82660.192000,226.518,54.212,104.448,338.209,72.113,117.170,-1487.780,-513.600,-1082.060
570,82660.232000,217.674,66.259,111.616,339.197,75.693,112.275,-1444.780,-489.600,-1061.060
571,82660.271000,206.864,85.333,104.448,339.328,85.692,108.509,-1287.780,-533.600,-958.060
572,82660.311000,228.484,71.278,108.544,336.686,101.053,99.881,-1355.780,-456.600,-946.060
573,82660.332000,237.328,90.353,121.856,335.899,112.911,98.142,-1373.780,-379.600,-1000.060
574,82660.371000,242.242,87.341,117.760,330.340,121.919,94.347,-1230.780,-388.600,-885.060
575,82660.415000,217.674,70.275,100.352,331.383,129.222,92.515,-1179.780,-357.600,-795.060
576,82660.455000,219.639,55.216,99.328,330.610,142.016,91.792,-1033.780,-208.600,-669.060
577,82660.491000,214.726,56.220,119.808,327.793,143.772,89.836,-892.780,-204.600,-559.060
578,82660.531000,207.846,55.216,119.808,326.978,152.998,94.009,-820.780,-140.600,-469.060
579,82660.571000,212.760,64.251,119.808,325.087,152.993,95.001,-785.780,-97.600,-365.060
580,82660.595000,216.691,50.196,106.496,322.387,163.052,96.206,-840.780,-159.600,-230.060
581,82660.635000,217.674,52.204,100.352,320.373,153.905,97.997,-781.780,-108.600,-205.060
582,82660.673000,262.879,52.204,105.472,320.505,163.145,102.173,-634.780,-40.600,-162.060
583,82660.715000,174.434,63.247,120.832,324.279,162.298,103.155,-353.780,-165.600,-157.060
584,82660.755000,185.244,49.192,102.400,326.179,163.181,100.193,-326.780,-93.600,-111.060
585,82660.795000,225.536,49.192,131.072,320.502,162.346,108.124,-532.780,138.400,-218.060
586,82660.815000,209.812,58.227,133.120,320.524,164.139,106.172,-636.780,36.400,-221.060
587,82660.855000,212.760,55.216,136.192,315.836,166.903,110.203,-632.780,0.400,-181.060
588,82660.895000,205.881,40.157,122.880,320.623,170.688,113.274,-437.780,-90.600,-104.060
589,82660.933000,208.829,52.204,123.904,321.539,168.810,110.252,-401.780,-71.600,-167.060
590,82660.973000,230.449,48.188,115.712,317.836,174.335,114.343,-357.780,-110.600,-206.060
591,82661.13000,231.432,57.224,111.616,318.766,173.392,112.335,-422.780,-159.600,-234.060
592,82661.70000,233.397,50.196,105.472,321.616,174.326,111.364,-359.780,-202.600,-243.060
593,82661.76000,232.415,58.227,97.280,315.076,180.613,109.499,-362.780,-182.600,-411.060
594,82661.116000,225.536,64.251,105.472,320.830,186.204,110.621,-277.780,-168.600,-407.060
595,82661.156000,238.311,64.251,84.992,315.213,190.690,109.714,-397.780,-112.600,-455.060
596,82661.196000,227.501,73.286,108.544,309.566,192.506,112.728,-713.780,-147.600,-390.060
597,82661.236000,228.484,67.263,94.208,310.553,195.306,114.778,-482.780,-152.600,-218.060
598,82661.276000,223.570,53.208,82.944,312.400,192.485,109.748,-303.780,-221.600,-4.060
599,82661.292000,224.553,44.173,78.848,313.322,190.685,110.705,-132.780,-239.600,96.940
600,82661.332000,221.605,41.161,70.656,318.944,187.017,106.657,31.220,-282.600,195.940
601,82661.375000,218.656,48.188,75.776,316.063,184.952,96.662,409.220,-261.600,343.940
602,82661.416000,226.518,47.184,69.632,322.636,181.356,95.601,621.220,-250.600,458.940
603,82661.456000,256.000,53.208,72.704,330.041,170.286,86.425,751.220,-215.600,548.940
604,82661.497000,290.395,52.204,86.016,332.715,159.155,77.240,963.220,-201.600,641.940
605,82661.532000,209.812,63.247,99.328,339.288,156.338,69.233,1096.220,-309.600,760.940
606,82661.555000,246.173,8.031,83.968,344.664,135.166,59.838,1195.220,-100.600,905.940
607,82661.598000,248.138,21.082,89.088,349.284,127.003,60.666,1333.220,250.400,702.940
608,82661.637000,241.259,59.231,63.488,349.158,117.822,59.476,1432.220,314.400,737.940
609,82661.673000,240.276,22.086,59.392,351.941,113.357,63.363,1674.220,435.400,725.940
610,82661.712000,232.415,66.259,53.248,353.687,102.427,65.123,1922.220,436.400,820.940
611,82661.753000,236.345,57.224,79.872,351.666,92.442,70.875,1831.220,373.400,877.940
612,82661.772000,211.777,57.224,80.896,352.500,84.209,70.701,1780.220,315.400,913.940
613,82661.812000,222.587,41.161,72.704,352.319,70.545,74.388,1956.220,367.400,991.940
614,82661.852000,232.415,27.106,84.992,352.199,61.442,77.178,1795.220,431.400,929.940
615,82661.892000,219.639,44.173,87.040,348.195,44.201,87.747,1722.220,392.400,899.940
616,82661.932000,256.983,38.149,112.640,348.088,35.254,98.497,1720.220,598.400,958.940
617,82661.973000,256.983,51.200,108.544,340.554,37.123,105.488,1352.220,494.400,867.940
618,82661.993000,218.656,47.184,102.400,338.553,28.132,115.240,1245.220,396.400,844.940
619,82662.36000,216.691,48.188,104.448,334.644,18.160,122.979,1278.220,339.400,722.940
620,82662.77000,225.536,59.231,101.376,333.713,18.323,131.933,1030.220,352.400,527.940
621,82662.112000,217.674,56.220,109.568,331.757,12.938,138.778,1005.220,344.400,497.940
622,82662.157000,210.795,48.188,114.688,327.042,13.071,148.720,804.220,341.400,462.940
623,82662.192000,199.002,31.122,111.616,321.305,8.454,150.603,705.220,215.400,415.940
624,82662.236000,208.829,26.102,99.328,321.391,14.088,157.685,846.220,272.400,429.940
625,82662.255000,272.706,30.118,105.472,312.886,14.112,164.636,902.220,405.400,327.940
626,82662.295000,250.104,34.133,121.856,310.979,12.372,170.564,928.220,76.400,425.940
627,82662.340000,188.192,45.176,99.328,309.119,15.036,167.634,834.220,73.400,240.940
628,82662.373000,222.587,57.224,142.336,307.241,15.187,176.586,661.220,407.400,266.940
629,82662.415000,211.777,43.169,125.952,307.379,24.505,184.741,624.220,58.400,396.940
630,82662.455000,226.518,34.133,108.544,307.292,18.092,184.605,614.220,61.400,338.940
631,82662.475000,227.501,48.188,106.496,304.515,22.635,184.697,445.220,-89.600,326.940
632,82662.513000,209.812,38.149,113.664,307.315,19.904,183.649,343.220,-123.600,359.940
633,82662.553000,216.691,30.118,99.328,303.480,16.190,183.564,335.220,-176.600,341.940
634,82662.595000,235.363,18.071,93.184,308.096,7.968,181.407,254.220,-162.600,316.940
635,82662.635000,246.173,18.071,92.160,309.103,12.542,180.511,372.220,-189.600,241.940
636,82662.675000,243.225,31.122,80.896,307.237,14.369,181.542,396.220,-145.600,133.940
637,82662.714000,266.810,27.106,83.968,307.158,8.833,179.434,344.220,-72.600,160.940
638,82662.734000,251.086,21.082,88.064,310.958,9.818,180.456,308.220,9.400,139.940
639,82662.781000,222.587,20.078,66.560,307.246,15.246,179.571,151.220,-196.600,76.940
640,82662.815000,225.536,28.110,66.560,306.220,9.678,176.467,239.220,-114.600,116.940
641,82662.855000,217.674,26.102,64.512,308.239,18.884,177.661,86.220,-139.600,15.940
642,82662.896000,233.397,26.102,50.176,308.143,12.373,172.549,-139.780,-191.600,-130.060
643,82662.936000,231.432,25.098,58.368,311.050,17.829,168.691,-235.780,-226.600,-251.060
644,82662.956000,225.536,33.129,52.224,318.675,22.413,163.826,-356.780,-360.600,-434.060
645,82662.996000,251.086,36.141,55.296,322.415,20.396,151.853,-445.780,-376.600,-511.060
646,82663.37000,270.741,44.173,59.392,321.607,30.461,152.066,-596.780,-358.600,-581.060
647,82663.73000,230.449,53.208,68.608,328.289,35.850,142.244,-953.780,-438.600,-803.060
648,82663.117000,250.104,60.235,47.104,331.125,35.849,140.259,-969.780,-207.600,-889.060
649,82663.155000,255.017,61.239,65.536,328.351,41.191,134.401,-1473.780,-192.600,-898.060
650,82663.196000,246.173,58.227,70.656,327.549,52.113,131.648,-1716.780,-258.600,-972.060
651,82663.213000,233.397,78.306,75.776,328.500,52.944,126.694,-1701.780,-376.600,-937.060
652,82663.258000,227.501,71.278,81.920,334.302,62.941,118.959,-1890.780,-343.600,-863.060
653,82663.293000,227.501,69.271,77.824,336.116,57.430,116.855,-1763.780,-288.600,-742.060
654,82663.333000,221.605,61.239,79.872,334.369,68.340,114.100,-1632.780,-364.600,-735.060
655,82663.373000,242.242,65.255,84.992,337.240,71.067,111.179,-1379.780,-244.600,-775.060
656,82663.413000,224.553,74.290,98.304,338.328,81.976,106.439,-1204.780,-333.600,-724.060
657,82663.433000,213.743,87.341,91.136,333.613,83.648,101.495,-1192.780,-341.600,-733.060
658,82663.475000,228.484,88.345,112.640,336.638,97.408,100.798,-1311.780,-185.600,-760.060
659,82663.515000,248.138,83.325,106.496,336.701,101.989,100.895,-1290.780,-178.600,-714.060
660,82663.555000,226.518,69.271,111.616,336.760,106.530,99.003,-1330.780,-339.600,-765.060
661,82663.598000,203.916,57.224,89.088,332.237,122.003,97.336,-1168.780,-339.600,-684.060
662,82663.637000,220.622,44.173,108.544,331.338,125.616,95.422,-1259.780,-206.600,-597.060
663,82663.677000,209.812,40.157,110.592,327.571,127.320,91.474,-1147.780,-206.600,-458.060
664,82663.697000,211.777,46.180,107.520,329.454,126.468,93.448,-1035.780,-200.600,-376.060
665,82663.738000,208.829,47.184,110.592,331.461,134.758,94.622,-987.780,-182.600,-339.060
666,82663.778000,225.536,58.227,96.256,331.482,135.772,99.617,-947.780,-108.600,-361.060
667,82663.817000,260.914,48.188,87.040,329.642,140.210,93.741,-878.780,-105.600,-342.060
668,82663.858000,192.123,61.239,106.496,326.797,139.335,97.697,-669.780,-207.600,-294.060
669,82663.897000,201.950,74.290,114.688,330.668,145.778,96.845,-618.780,-115.600,-223.060
670,82663.920000,222.587,51.200,120.832,327.756,140.263,97.718,-787.780,-74.600,-11.060
671,82663.955000,234.380,51.200,103.424,327.700,135.761,101.601,-980.780,-160.600,-79.060
672,82663.996000,235.363,48.188,104.448,333.242,125.778,102.391,-1266.780,-258.600,-107.060
673,82664.60000,229.466,36.141,110.592,335.288,136.835,104.619,-1190.780,-187.600,-6.060
674,82664.76000,214.726,39.153,101.376,337.181,136.860,104.622,-991.780,-197.600,78.940
675,82664.117000,230.449,5.020,95.232,339.835,123.195,106.324,-1018.780,-200.600,-93.060
676,82664.137000,245.190,10.039,98.304,337.075,128.693,108.426,-1069.780,-146.600,-205.060
677,82664.183000,246.173,13.051,105.472,340.857,128.704,106.443,-761.780,-145.600,-251.060
678,82664.227000,255.017,14.055,84.992,338.010,127.809,109.404,-826.780,-160.600,-375.060
679,82664.265000,238.311,25.098,97.280,338.107,135.099,107.570,-894.780,-131.600,-501.060
680,82664.298000,206.864,50.196,80.896,337.244,140.681,112.660,-778.780,-134.600,-556.060
681,82664.337000,245.190,28.110,81.920,336.276,138.875,114.610,-945.780,-50.600,-559.060
682,82664.377000,216.691,14.055,84.992,334.410,140.702,115.641,-803.780,-135.600,-454.060
683,82664.398000,235.363,29.114,80.896,331.662,147.116,117.762,-502.780,-111.600,-386.060
684,82664.436000,237.328,19.075,87.040,328.871,150.724,116.840,-250.780,-201.600,-258.060
685,82664.476000,240.276,24.094,73.728,327.918,150.633,112.858,154.220,-152.600,-82.060
686,82664.516000,235.363,18.071,74.752,328.892,153.277,106.948,649.220,-150.600,41.940
687,82664.556000,240.276,44.173,61.440,334.497,148.654,100.890,1170.220,-107.600,165.940
688,82664.596000,263.862,40.157,71.680,333.674,158.544,92.148,1701.220,226.400,310.940
689,82664.616000,290.395,57.224,70.656,334.483,149.258,84.989,2067.220,366.400,409.940
690,82664.657000,196.054,67.263,46.080,335.457,151.902,79.079,2307.220,237.400,795.940
691,82664.697000,206.864,53.208,53.248,338.130,139.991,76.840,2131.220,786.400,923.940
692,82664.737000,227.501,62.243,74.752,343.701,131.879,79.660,2290.220,657.400,1106.940
693,82664.777000,234.380,60.235,74.752,342.536,115.454,83.287,2337.220,766.400,1225.940
694,82664.818000,236.345,65.255,77.824,348.110,107.382,88.096,2376.220,834.400,1256.940
695,82664.860000,235.363,51.200,79.872,346.984,93.725,92.777,2459.220,727.400,1430.940
696,82664.880000,224.553,67.263,86.016,347.653,72.783,98.300,2420.220,636.400,1366.940
697,82664.920000,220.622,55.216,97.280,346.557,61.017,106.006,2184.220,505.400,1402.940
698,82664.957000,234.380,56.220,96.256,342.605,48.239,110.701,2078.220,458.400,1389.940
699,82664.997000,219.639,53.208,103.424,340.601,39.209,118.463,1703.220,313.400,1335.940
700,82665.36000,214.726,36.141,106.496,338.551,27.333,121.191,1531.220,267.400,1267.940
701,82665.80000,243.225,22.086,126.976,336.597,21.967,129.031,1312.220,279.400,1122.940
702,82665.101000,235.363,27.106,128.000,331.627,3.718,135.598,1235.220,347.400,1067.940
703,82665.138000,227.501,36.141,122.880,327.849,2.986,147.512,1090.220,324.400,976.940
704,82665.178000,208.829,24.094,119.808,323.916,-8.798,156.207,1159.220,335.400,816.940
705,82665.218000,215.708,28.110,118.784,322.033,-9.485,169.120,1285.220,342.400,559.940
706,82665.259000,212.760,30.118,107.520,316.517,2.350,169.364,1211.220,278.400,329.940
707,82665.296000,221.605,38.149,108.544,311.858,6.985,175.423,1071.220,272.400,234.940
708,82665.342000,222.587,41.161,122.880,306.271,12.582,184.486,1059.220,295.400,248.940
709,82665.357000,250.104,33.129,113.664,301.613,17.237,191.541,1190.220,259.400,332.940
710,82665.396000,200.967,49.192,106.496,298.838,21.800,192.628,1172.220,14.400,265.940
711,82665.441000,204.898,32.125,113.664,296.960,22.710,193.640,1131.220,112.400,220.940
712,82665.480000,247.155,52.204,123.904,296.247,39.286,198.964,1040.220,250.400,89.940
713,82665.518000,197.036,62.243,129.024,295.315,40.209,199.977,887.220,110.400,63.940
714,82665.560000,214.726,63.247,98.304,291.747,55.792,203.288,786.220,71.400,56.940
715,82665.578000,216.691,69.271,96.256,290.842,59.346,198.389,621.220,60.400,192.940
716,82665.621000,214.726,55.216,96.256,290.860,60.321,201.393,623.220,78.400,284.940
717,82665.656000,227.501,48.188,92.160,285.134,56.601,202.300,421.220,-17.600,201.940
718,82665.697000,229.466,49.192,89.088,286.155,62.110,202.419,465.220,-53.600,130.940
719,82665.737000,234.380,52.204,88.064,285.188,61.084,197.423,786.220,-88.600,192.940
720,82665.777000,249.121,71.278,80.896,288.144,69.425,200.589,452.220,-115.600,91.940
721,82665.817000,244.207,58.227,69.632,291.934,70.294,195.640,576.220,-171.600,187.940
722,82665.837000,249.121,61.239,75.776,298.530,68.510,193.622,541.220,-118.600,285.940
723,82665.877000,239.294,60.235,88.064,292.913,72.996,192.715,272.220,4.400,243.940
724,82665.917000,230.449,58.227,74.752,293.816,70.202,189.673,200.220,-186.600,298.940
725,82665.957000,222.587,28.110,47.104,294.719,67.388,185.635,41.220,-253.600,162.940
726,82665.997000,218.656,44.173,56.320,300.329,62.824,182.563,-67.780,-277.600,1.940
727,82666.37000,219.639,20.078,62.464,302.263,66.416,177.669,17.220,-433.600,-214.060
728,82666.77000,257.965,50.196,57.344,307.939,67.231,168.743,-87.780,-361.600,-329.060
729,82666.101000,253.052,63.247,64.512,310.899,76.391,166.953,-433.780,-402.600,-456.060
730,82666.140000,233.397,70.275,50.176,315.571,72.672,160.913,-579.780,-465.600,-508.060
731,82666.180000,244.207,81.318,44.032,314.784,85.309,152.229,-713.780,-340.600,-681.060
732,82666.217000,239.294,85.333,64.512,314.756,83.438,150.200,-1018.780,-419.600,-697.060
733,82666.257000,234.380,73.286,69.632,319.537,87.925,142.345,-1442.780,-547.600,-766.060
734,82666.299000,227.501,79.310,65.536,316.640,84.126,137.287,-1580.780,-675.600,-735.060
735,82666.317000,221.605,100.392,59.392,323.336,90.450,128.480,-1644.780,-626.600,-646.060
736,82666.358000,215.708,108.424,67.584,326.993,81.300,126.301,-1981.780,-562.600,-562.060
737,82666.401000,223.570,104.408,65.536,331.722,82.103,117.373,-2291.780,-610.600,-522.060
738,82666.438000,236.345,100.392,63.488,330.748,80.219,115.343,-2504.780,-559.600,-618.060
739,82666.482000,220.622,95.373,75.776,335.455,79.229,108.366,-2546.780,-585.600,-748.060
740,82666.521000,225.536,100.392,69.632,338.276,78.292,105.366,-2502.780,-601.600,-808.060
741,82666.558000,241.259,76.298,74.752,342.127,83.722,99.520,-2609.780,-554.600,-893.060
742,82666.582000,241.259,64.251,71.680,340.208,82.624,91.536,-2393.780,-594.600,-893.060
743,82666.628000,205.881,36.141,86.016,342.207,90.816,87.735,-2447.780,-516.600,-844.060
744,82666.658000,213.743,12.047,86.016,345.158,99.099,87.916,-2020.780,-177.600,-678.060
745,82666.700000,234.380,30.118,105.472,345.083,93.602,87.799,-1671.780,-198.600,-569.060
746,82666.742000,225.536,29.114,112.640,344.283,103.765,92.987,-1547.780,-63.600,-477.060
747,82666.782000,211.777,26.102,107.520,342.399,104.617,91.013,-1121.780,-87.600,-349.060
748,82666.797000,250.104,17.067,76.800,339.619,108.342,96.061,-998.780,-59.600,-289.060
749,82666.838000,246.173,22.086,92.160,341.497,107.431,95.050,-760.780,-42.600,-296.060
750,82666.878000,208.829,24.094,116.736,348.220,114.828,94.223,-399.780,-35.600,-163.060
751,82666.920000,219.639,47.184,130.048,344.397,112.030,94.158,-290.780,85.400,-209.060
752,82666.958000,215.708,51.200,118.784,340.632,112.993,99.146,-485.780,1.400,-172.060
753,82666.998000,221.605,21.082,92.160,344.375,110.236,96.109,-546.780,-90.600,-141.060
754,82667.38000,233.397,25.098,105.472,346.359,116.713,98.239,-451.780,-80.600,-123.060
755,82667.58000,224.553,45.176,107.520,344.489,118.501,97.279,-364.780,-66.600,-131.060
756,82667.98000,234.380,33.129,95.232,348.301,120.403,98.320,-477.780,-63.600,-161.060
757,82667.139000,239.294,28.110,94.208,345.376,113.972,99.174,-472.780,-12.600,-196.060
758,82667.179000,229.466,37.145,118.784,348.365,125.003,99.413,-222.780,-57.600,-257.060
759,82667.221000,236.345,43.169,82.944,347.432,125.907,99.431,-358.780,-137.600,-335.060
760,82667.261000,223.570,37.145,110.592,346.509,127.707,98.473,-512.780,-20.600,-456.060
761,82667.281000,218.656,45.176,91.136,344.764,138.656,97.709,-495.780,-104.600,-452.060
762,82667.318000,249.121,48.188,116.736,342.910,140.619,105.705,-671.780,127.400,-481.060
763,82667.360000,224.553,48.188,101.376,336.318,142.442,109.713,-509.780,-111.600,-262.060
764,82667.398000,218.656,49.192,97.280,337.273,143.332,107.744,-380.780,-173.600,-151.060
765,82667.441000,222.587,43.169,90.112,338.174,140.498,102.712,-349.780,-181.600,-72.060
766,82667.482000,231.432,41.161,79.872,339.095,138.679,102.674,-29.780,-168.600,19.940
767,82667.521000,235.363,37.145,78.848,343.898,144.199,100.809,223.220,-178.600,123.940
768,82667.543000,223.570,44.173,74.752,341.867,134.856,92.651,509.220,-214.600,274.940
769,82667.581000,233.397,41.161,63.488,345.669,136.641,87.721,737.220,-255.600,357.940
770,82667.618000,253.052,41.161,71.680,349.352,130.102,78.635,882.220,-230.600,424.940
771,82667.658000,267.793,40.157,70.656,352.140,127.235,70.621,1166.220,-104.600,537.940
772,82667.698000,243.225,51.200,71.680,351.953,114.273,63.383,1327.220,-120.600,705.940
773,82667.740000,239.294,35.137,65.536,359.434,107.941,62.265,1398.220,99.400,801.940
774,82667.760000,251.086,49.192,72.704,356.333,88.664,61.850,1782.220,219.400,874.940
775,82667.800000,238.311,46.180,75.776,360.117,88.695,60.861,1814.220,244.400,846.940
776,82667.848000,238.311,42.165,65.536,358.943,71.393,66.459,1900.220,399.400,908.940
777,82667.882000,236.345,43.169,67.584,360.669,58.689,71.165,1964.220,362.400,974.940
778,82667.922000,234.380,43.169,68.608,356.851,55.950,74.084,1846.220,209.400,987.940
779,82667.962000,230.449,42.165,77.824,358.569,42.389,81.756,1561.220,354.400,943.940
780,82668.2000,232.415,30.118,92.160,356.610,36.965,86.610,1415.220,238.400,941.940
781,82668.22000,224.553,24.094,95.232,353.589,23.244,89.298,1428.220,167.400,867.940
782,82668.62000,228.484,16.063,98.304,351.559,12.381,97.021,1332.220,326.400,748.940
783,82668.102000,249.121,3.012,114.688,347.787,12.487,104.974,1249.220,350.400,713.940
784,82668.140000,228.484,14.055,115.712,342.017,4.401,116.729,1312.220,243.400,658.940
785,82668.179000,254.035,12.047,102.400,341.350,232.527,124.568,1354.220,371.400,669.940
786,82668.220000,216.691,30.118,95.232,338.222,2.695,125.639,1320.220,326.400,596.940
787,82668.240000,231.432,47.184,92.160,330.725,6.532,139.635,1231.220,370.400,352.940
788,82668.281000,230.449,61.239,100.352,327.906,7.509,144.625,1040.220,295.400,211.940
789,82668.320000,232.415,61.239,93.184,323.226,10.351,152.635,890.220,310.400,142.940
790,82668.359000,229.466,59.231,103.424,321.468,19.604,158.797,648.220,363.400,133.940
791,82668.398000,223.570,43.169,108.544,318.616,17.871,165.719,605.220,203.400,194.940
792,82668.440000,269.758,56.220,86.016,315.776,17.054,172.660,541.220,248.400,197.940
793,82668.479000,187.209,42.165,101.376,311.148,24.359,174.798,633.220,178.400,259.940
794,82668.498000,231.432,55.216,114.688,313.044,24.423,176.791,424.220,298.400,168.940
795,82668.538000,218.656,40.157,118.784,304.539,24.448,183.741,401.220,247.400,139.940
796,82668.581000,208.829,43.169,105.472,301.681,22.656,187.678,447.220,138.400,121.940
797,82668.621000,212.760,46.180,88.064,302.731,30.036,189.825,328.220,48.400,12.940
798,82668.661000,221.605,55.216,93.184,302.687,27.210,185.787,251.220,69.400,56.940
799,82668.705000,226.518,47.184,94.208,301.852,34.663,192.907,277.220,-29.600,97.940
800,82668.739000,237.328,46.180,88.064,301.763,28.231,191.775,295.220,-86.600,28.940
801,82668.759000,239.294,58.227,87.040,301.894,38.230,188.009,384.220,-81.600,51.940
802,82668.799000,252.069,51.200,82.944,300.023,39.998,186.055,368.220,-74.600,59.940
803,82668.839000,257.965,57.224,81.920,299.108,41.896,190.073,216.220,99.400,57.940
804,82668.879000,249.121,54.212,102.400,301.874,36.456,190.955,170.220,62.400,97.940
805,82668.919000,227.501,35.137,82.944,302.834,37.405,191.972,39.220,-26.600,87.940
806,82668.959000,224.553,54.212,84.992,300.906,34.651,192.905,-32.780,-12.600,-4.060
807,82668.979000,225.536,48.188,79.872,301.890,37.412,192.965,-160.780,-12.600,-77.060
808,82669.20000,215.708,44.173,78.848,303.790,38.294,190.003,-454.780,-137.600,-144.060
809,82669.59000,216.691,42.165,72.704,307.544,36.434,185.990,-468.780,-218.600,-179.060
810,82669.99000,214.726,36.141,71.680,305.555,29.898,180.875,-545.780,-275.600,-245.060
811,82669.140000,209.812,32.125,72.704,312.193,31.681,173.960,-547.780,-358.600,-285.060
812,82669.182000,252.069,40.157,75.776,312.178,30.746,172.946,-637.780,-317.600,-357.060
813,82669.222000,268.775,49.192,82.944,316.884,29.736,164.974,-804.780,-321.600,-384.060
814,82669.242000,216.691,52.204,84.992,319.722,30.534,157.038,-1188.780,-567.600,-544.060
815,82669.281000,266.810,54.212,68.608,323.497,30.466,151.075,-1063.780,-359.600,-639.060
816,82669.323000,241.259,48.188,87.040,327.321,34.044,144.194,-1569.780,-403.600,-674.060
817,82669.361000,239.294,45.176,90.112,327.330,34.922,142.223,-1890.780,-265.600,-858.060
818,82669.402000,231.432,51.200,93.184,332.122,40.305,133.393,-1905.780,-351.600,-932.060
819,82669.442000,228.484,54.212,87.040,333.939,35.593,125.339,-1805.780,-360.600,-949.060
820,82669.462000,220.622,60.235,74.752,336.989,51.965,117.734,-1796.780,-397.600,-977.060
821,82669.499000,223.570,63.247,88.064,339.848,53.776,114.793,-1733.780,-360.600,-963.060
822,82669.540000,227.501,65.255,86.016,339.089,68.266,107.143,-1654.780,-433.600,-911.060
823,82669.582000,226.518,61.239,84.992,337.307,76.467,106.321,-1575.780,-357.600,-879.060
824,82669.621000,231.432,81.318,94.208,339.291,83.723,101.505,-1468.780,-210.600,-820.060
825,82669.660000,227.501,72.282,105.472,340.320,90.090,98.658,-1556.780,-164.600,-828.060
826,82669.703000,240.276,74.290,108.544,337.652,102.060,103.882,-1568.780,-97.600,-861.060
827,82669.722000,228.484,64.251,124.928,331.060,104.662,100.944,-1470.780,-65.600,-852.060
828,82669.762000,196.054,28.110,111.616,330.235,112.992,106.093,-1327.780,-161.600,-687.060
829,82669.802000,226.518,26.102,117.760,330.370,122.271,112.258,-1211.780,-11.600,-602.060
830,82669.844000,206.864,33.129,117.760,329.443,124.032,109.311,-890.780,-69.600,-476.060
831,82669.882000,216.691,34.133,131.072,323.896,133.177,112.481,-689.780,-4.600,-409.060
832,82669.921000,211.777,49.192,131.072,325.843,136.925,115.548,-476.780,-53.600,-275.060
833,82669.942000,229.466,22.086,89.088,324.013,141.481,115.642,-463.780,-101.600,-205.060
834,82669.983000,231.432,20.078,90.112,323.997,140.525,113.632,-418.780,-200.600,-193.060
835,82670.23000,224.553,44.173,134.144,322.994,136.770,109.572,-246.780,-91.600,-203.060
836,82670.65000,221.605,51.200,133.120,326.928,147.794,108.818,-192.780,-89.600,-133.060
837,82670.105000,204.898,51.200,115.712,325.994,148.698,108.836,-309.780,-175.600,-143.060
838,82670.144000,209.812,48.188,113.664,329.803,150.561,107.886,-615.780,-216.600,-264.060
839,82670.185000,212.760,61.239,114.688,329.810,151.418,104.921,-773.780,-297.600,-283.060
840,82670.201000,211.777,71.278,108.544,326.946,149.549,104.877,-1015.780,-304.600,-177.060
841,82670.242000,238.311,43.169,98.304,330.788,153.341,108.942,-1362.780,-225.600,-215.060
842,82670.283000,256.000,44.173,94.208,330.741,149.716,110.854,-1570.780,-167.600,-294.060
843,82670.321000,242.242,50.196,82.944,328.826,147.118,119.747,-1645.780,-251.600,-266.060
844,82670.361000,243.225,17.067,86.016,332.579,144.478,122.681,-1613.780,-230.600,-272.060
845,82670.401000,236.345,-1.004,105.472,327.631,128.023,127.296,-1711.780,-230.600,-379.060
846,82670.424000,212.760,0.000,103.424,327.770,138.120,128.506,-1290.780,-232.600,-351.060
847,82670.465000,225.536,-8.031,89.088,330.642,140.087,133.525,-1123.780,-124.600,-465.060
848,82670.505000,215.708,-2.008,92.160,327.791,139.133,133.501,-740.780,0.400,-405.060
849,82670.543000,230.449,17.067,78.848,324.979,140.188,142.471,-529.780,35.400,-528.060
850,82670.583000,233.397,41.161,83.968,321.307,148.383,142.640,-257.780,70.400,-481.060
851,82670.621000,232.415,29.114,96.256,319.400,147.422,141.622,97.220,46.400,-121.060
852,82670.661000,241.259,48.188,84.992,324.181,151.149,141.708,354.220,-141.600,66.940
853,82670.684000,232.415,44.173,97.280,324.041,141.812,132.558,605.220,-217.600,311.940
854,82670.721000,240.276,59.231,83.968,325.892,139.810,122.571,638.220,-201.600,417.940
855,82670.765000,250.104,38.149,97.280,327.777,138.977,125.540,696.220,-18.600,479.940
856,82670.802000,252.069,37.145,99.328,331.487,134.291,117.489,801.220,-11.600,550.940
857,82670.842000,209.812,12.047,89.088,336.087,125.114,113.322,1135.220,-233.600,771.940
858,82670.885000,245.190,-16.063,80.896,342.548,114.051,105.139,1367.220,114.400,886.940
859,82670.923000,251.086,-14.055,99.328,343.406,107.651,105.004,1882.220,272.400,974.940
860,82670.944000,236.345,23.090,86.016,345.260,104.908,103.954,2116.220,183.400,1057.940
861,82670.984000,230.449,3.012,88.064,344.174,94.799,102.742,2258.220,349.400,1077.940
862,82671.24000,224.553,13.051,94.208,345.944,85.682,103.546,2493.220,365.400,1057.940
863,82671.65000,224.553,11.043,96.256,345.795,74.708,104.306,2409.220,276.400,918.940
864,82671.104000,243.225,36.141,66.560,346.700,71.153,109.205,2240.220,248.400,888.940
865,82671.145000,237.328,42.165,105.472,342.854,66.542,110.096,1849.220,281.400,898.940
866,82671.164000,207.846,44.173,116.736,346.439,51.934,109.791,1606.220,114.400,1152.940
867,82671.203000,207.846,13.051,105.472,345.318,39.096,109.516,1520.220,48.400,1269.940
868,82671.243000,235.363,-12.047,131.072,342.264,22.685,115.130,1683.220,167.400,1185.940
869,82671.283000,238.311,0.000,119.808,340.267,14.512,119.926,2135.220,173.400,980.940
870,82671.323000,215.708,4.016,112.640,337.511,20.069,125.013,2887.220,416.400,960.940
871,82671.363000,226.518,26.102,110.592,331.829,17.636,144.846,3053.220,811.400,818.940
872,82671.403000,208.829,54.212,122.880,320.617,26.862,155.967,2778.220,653.400,658.940
873,82671.427000,219.639,43.169,87.040,317.971,39.865,167.181,2530.220,476.400,504.940
874,82671.465000,260.914,46.180,50.176,311.493,49.953,172.359,2629.220,498.400,512.940
875,82671.502000,256.983,90.353,56.320,299.545,74.721,182.815,2886.220,987.400,513.940
876,82671.546000,235.363,113.443,65.536,296.840,83.942,187.980,2771.220,721.400,616.940
877,82671.586000,199.002,132.518,74.752,290.420,98.571,191.266,2353.220,957.400,441.940
878,82671.624000,226.518,151.592,111.616,281.017,102.228,197.298,1530.220,618.400,586.940
879,82671.644000,191.140,113.443,93.184,281.051,104.158,202.312,1158.220,594.400,699.940
880,82671.686000,198.019,98.384,105.472,274.411,102.355,208.232,602.220,568.400,692.940
881,82671.723000,206.864,84.329,104.448,270.581,98.699,211.132,166.220,266.400,454.940
882,82671.766000,201.950,81.318,109.568,270.579,97.900,217.083,-160.780,218.400,359.940
883,82671.806000,212.760,72.282,113.664,270.496,91.546,219.931,-308.780,238.400,235.940
884,82671.846000,224.553,67.263,99.328,263.825,87.833,221.832,-182.780,199.400,199.940
885,82671.886000,219.639,74.290,105.472,269.451,83.444,227.715,-285.780,209.400,197.940
886,82671.906000,218.656,46.180,125.952,265.622,79.808,231.610,-636.780,151.400,71.940
887,82671.946000,235.363,79.310,118.784,264.481,65.196,234.281,-922.780,117.400,-70.060
888,82671.986000,231.432,49.192,123.904,261.569,58.921,243.095,-832.780,267.400,-31.060
889,82672.26000,217.674,46.180,98.304,262.287,42.404,240.755,-929.780,-132.600,-102.060
890,82672.66000,206.864,36.141,111.616,261.289,38.707,239.681,-888.780,-90.600,-132.060
891,82672.113000,203.916,29.114,108.544,264.980,32.266,235.570,-654.780,-314.600,-195.060
892,82672.122000,215.708,4.016,94.208,270.689,35.012,231.659,-264.780,-543.600,-211.060
893,82672.162000,219.639,-4.016,88.064,272.623,38.604,226.765,-27.780,-267.600,-420.060
894,82672.202000,219.639,34.133,120.832,277.412,43.188,223.886,284.220,-210.600,-584.060
895,82672.242000,208.829,32.125,111.616,278.510,54.974,217.176,418.220,-386.600,-609.060
896,82672.282000,236.345,46.180,119.808,281.603,74.153,212.615,233.220,-260.600,-708.060
897,82672.323000,234.380,82.322,109.568,283.582,81.351,204.814,-76.780,-773.600,-709.060
898,82672.363000,223.570,78.306,78.848,293.150,90.403,193.085,-297.780,-771.600,-896.060
899,82672.383000,230.449,112.439,98.304,291.318,95.699,184.244,-652.780,-629.600,-953.060
900,82672.426000,219.639,124.486,90.112,296.152,103.890,178.457,-1108.780,-634.600,-918.060
901,82672.462000,213.743,142.557,95.232,298.954,101.958,171.458,-1429.780,-665.600,-839.060
902,82672.503000,186.226,126.494,83.968,303.607,96.485,169.359,-2328.780,-870.600,-697.060
903,82672.546000,199.985,120.471,82.944,312.032,90.905,159.306,-2770.780,-903.600,-763.060
904,82672.586000,207.846,102.400,72.704,316.602,79.838,152.115,-3095.780,-846.600,-838.060
905,82672.626000,226.518,86.337,81.920,324.075,73.408,146.021,-3150.780,-775.600,-915.060
906,82672.646000,234.380,68.267,91.136,327.809,70.553,138.009,-2989.780,-691.600,-983.060
907,82672.686000,231.432,72.282,99.328,329.730,73.989,125.155,-2939.780,-686.600,-1101.060
908,82672.726000,229.466,50.196,106.496,334.451,73.155,126.139,-2959.780,-692.600,-1069.060
909,82672.767000,257.965,46.180,99.328,337.357,78.592,121.285,-2855.780,-484.600,-1078.060
910,82672.806000,240.276,28.110,119.808,338.332,81.255,116.370,-2796.780,-502.600,-1016.060
911,82672.846000,183.278,0.000,88.064,335.618,90.379,116.561,-2790.780,-414.600,-1012.060
912,82672.866000,240.276,-17.067,97.280,334.700,92.238,118.588,-2271.780,-168.600,-829.060
913,82672.906000,220.622,-15.059,118.784,335.702,95.973,121.653,-2141.780,-186.600,-748.060
914,82672.946000,234.380,-6.024,112.640,332.830,93.246,124.575,-1887.780,-87.600,-608.060
915,82672.986000,206.864,-12.047,106.496,332.915,98.860,130.662,-1647.780,-50.600,-472.060
916,82673.26000,243.225,-25.098,105.472,331.913,94.345,134.543,-849.780,178.400,-405.060
917,82673.63000,223.570,-41.161,101.376,326.395,105.380,140.738,-399.780,69.400,-460.060
918,82673.103000,198.019,-15.059,146.432,325.586,115.445,140.951,247.220,521.400,-580.060
919,82673.127000,206.864,-13.051,146.432,320.051,125.506,144.140,533.220,235.400,-457.060
920,82673.166000,213.743,18.071,82.944,319.234,135.474,139.378,532.220,-23.600,-507.060
921,82673.204000,218.656,43.169,117.760,319.427,150.054,135.710,365.220,74.400,-469.060
922,82673.244000,212.760,81.318,106.496,316.644,154.519,131.823,249.220,-97.600,-384.060
923,82673.284000,219.639,71.278,113.664,318.569,157.234,128.899,-5.780,-82.600,-157.060
924,82673.326000,234.380,49.192,113.664,317.637,158.157,129.912,-265.780,-140.600,-237.060
925,82673.346000,232.415,66.259,106.496,318.721,168.247,130.128,-425.780,-53.600,-366.060
926,82673.386000,225.536,44.173,126.976,314.966,170.087,133.146,-620.780,-90.600,-360.060
927,82673.426000,240.276,42.165,124.928,315.043,175.604,134.258,-594.780,-35.600,-429.060
928,82673.463000,201.950,45.176,101.376,311.236,173.761,136.203,-340.780,-123.600,-367.060
929,82673.504000,240.276,44.173,88.064,312.199,174.748,139.209,-406.780,107.400,-376.060
930,82673.548000,221.605,43.169,115.712,309.351,173.833,141.175,-536.780,-106.600,-368.060
931,82673.591000,209.812,56.220,96.256,307.551,180.280,144.293,-337.780,-130.600,-241.060
932,82673.603000,214.726,57.224,92.160,303.808,183.797,139.389,-167.780,-281.600,-51.060
933,82673.643000,219.639,36.141,79.872,309.424,180.070,132.356,-70.780,-401.600,81.940
934,82673.684000,223.570,53.208,90.112,312.229,178.178,127.346,361.220,-301.600,163.940
935,82673.724000,229.466,59.231,89.088,316.923,176.252,119.355,688.220,-245.600,285.940
936,82673.766000,226.518,68.267,89.088,322.573,175.235,110.390,1047.220,-185.600,420.940
937,82673.806000,246.173,69.271,91.136,324.363,168.672,101.301,1319.220,-95.600,544.940
938,82673.826000,276.637,73.286,81.920,332.872,169.466,89.395,1604.220,-49.600,566.940
939,82673.863000,198.019,40.157,63.488,332.759,161.981,81.279,1988.220,114.400,926.940
940,82673.907000,240.276,41.161,91.136,339.214,150.081,77.056,2060.220,692.400,991.940
941,82673.947000,244.207,58.227,88.064,338.964,131.758,76.666,2217.220,696.400,1141.940
942,82673.988000,244.207,47.184,79.872,338.810,119.946,81.388,2318.220,799.400,1221.940
943,82674.29000,223.570,80.314,67.584,344.285,104.564,87.036,2504.220,851.400,1316.940
944,82674.64000,225.536,60.235,72.704,346.977,93.647,88.797,2593.220,852.400,1494.940
945,82674.85000,230.449,49.192,79.872,346.778,78.229,96.426,2617.220,678.400,1468.940
946,82674.124000,222.587,59.231,87.040,344.771,69.159,102.198,2368.220,501.400,1420.940
947,82674.167000,242.242,46.180,86.016,342.602,48.200,108.711,2055.220,410.400,1434.940
948,82674.207000,206.864,54.212,104.448,344.430,42.845,114.567,1926.220,385.400,1404.940
949,82674.247000,207.846,46.180,104.448,340.458,28.293,122.209,1813.220,362.400,1329.940
950,82674.294000,247.155,35.137,117.760,337.479,17.379,127.940,1557.220,442.400,1161.940
951,82674.309000,212.760,30.118,142.336,331.799,15.745,141.822,1457.220,442.400,1033.940
952,82674.346000,227.501,45.176,115.712,329.811,7.670,151.593,1315.220,334.400,890.940
953,82674.389000,205.881,35.137,115.712,322.218,4.997,160.477,1251.220,438.400,798.940
954,82674.424000,227.501,49.192,130.048,316.483,-0.360,171.295,1144.220,471.400,567.940
955,82674.464000,223.570,48.188,128.000,309.032,7.864,175.438,926.220,376.400,400.940
956,82674.508000,226.518,36.141,126.976,306.181,6.150,183.354,811.220,347.400,335.940
957,82674.547000,236.345,38.149,110.592,304.411,14.487,189.497,569.220,262.400,266.940
958,82674.567000,241.259,38.149,117.760,298.720,12.717,196.413,518.220,220.400,233.940
959,82674.609000,201.950,45.176,97.280,292.151,16.352,199.465,583.220,-23.600,182.940
960,82674.644000,217.674,40.157,106.496,295.920,15.447,197.462,351.220,70.400,126.940
961,82674.686000,203.916,41.161,111.616,292.204,20.056,201.533,242.220,-0.600,91.940
962,82674.726000,204.898,37.145,112.640,295.031,19.177,201.519,199.220,39.400,63.940
963,82674.770000,236.345,36.141,118.784,291.302,22.870,205.570,213.220,74.400,12.940
964,82674.787000,215.708,43.169,110.592,293.145,19.230,205.496,91.220,-104.600,-20.060
965,82674.824000,213.743,36.141,94.208,294.177,25.636,204.639,19.220,-96.600,25.940
966,82674.864000,229.466,32.125,106.496,290.317,20.089,204.515,100.220,-53.600,77.940
967,82674.906000,230.449,26.102,100.352,291.318,23.825,207.580,86.220,-104.600,76.940
968,82674.946000,229.466,27.106,95.232,294.102,20.139,204.522,286.220,-41.600,81.940
969,82674.986000,244.207,36.141,100.352,295.161,28.397,204.699,356.220,83.400,97.940
970,82675.26000,255.017,41.161,102.400,288.459,22.014,210.521,264.220,226.400,142.940
971,82675.46000,209.812,36.141,108.544,288.446,21.097,210.501,82.220,84.400,144.940
972,82675.86000,226.518,37.145,83.968,285.666,24.822,215.550,80.220,101.400,90.940
973,82675.126000,222.587,40.157,101.376,286.636,26.647,214.595,89.220,61.400,70.940
974,82675.166000,220.622,33.129,84.992,287.600,28.414,210.656,-11.780,-172.600,17.940
975,82675.206000,224.553,31.122,82.944,287.518,22.839,206.559,-45.780,-252.600,-27.060
976,82675.246000,231.432,30.118,80.896,293.245,26.559,205.652,-144.780,-342.600,-81.060
977,82675.266000,228.484,29.114,82.944,298.853,22.735,193.643,-255.780,-446.600,-182.060
978,82675.306000,231.432,28.110,72.704,302.665,25.417,187.738,-303.780,-541.600,-218.060
979,82675.346000,255.017,27.106,78.848,310.260,28.109,179.849,-403.780,-451.600,-338.060
980,82675.386000,250.104,41.161,90.112,312.113,26.126,170.858,-519.780,-395.600,-487.060
981,82675.432000,206.864,53.208,66.560,311.194,28.745,164.945,-681.780,-601.600,-644.060
982,82675.466000,248.138,56.220,58.368,318.929,41.554,159.261,-817.780,-191.600,-785.060
983,82675.506000,236.345,62.243,84.992,318.883,38.708,154.227,-1255.780,-306.600,-803.060
984,82675.529000,242.242,67.263,78.848,320.823,42.358,152.318,-1506.780,-176.600,-957.060
985,82675.581000,234.380,62.243,92.160,321.872,50.499,146.525,-1585.780,-280.600,-956.060
986,82675.607000,212.760,57.224,82.944,323.802,53.272,146.587,-1771.780,-340.600,-991.060
987,82675.648000,222.587,58.227,77.824,321.024,58.575,138.739,-1868.780,-361.600,-1092.060
988,82675.686000,228.484,69.271,90.112,324.926,67.689,133.965,-1684.780,-379.600,-1006.060
989,82675.726000,219.639,63.247,92.160,325.857,66.746,131.957,-1462.780,-382.600,-902.060
990,82675.746000,234.380,69.271,92.160,328.004,85.913,127.395,-1483.780,-360.600,-922.060
991,82675.786000,215.708,89.349,115.712,326.124,87.583,120.466,-1308.780,-349.600,-871.060
992,82675.826000,220.622,87.341,110.592,326.184,92.125,118.573,-1273.780,-344.600,-847.060
993,82675.866000,235.363,78.306,113.664,324.455,104.029,119.819,-1331.780,-297.600,-826.060
994,82675.906000,201.950,63.247,125.952,325.511,113.027,111.060,-1308.780,-320.600,-778.060
995,82675.946000,198.019,54.212,115.712,327.459,116.775,114.126,-1149.780,-306.600,-650.060
996,82675.986000,229.466,53.208,133.120,326.611,124.073,113.286,-1101.780,-104.600,-580.060
997,82676.7000,190.157,66.259,130.048,324.759,126.835,115.331,-1053.780,-166.600,-384.060
998,82676.48000,205.881,48.188,111.616,321.830,120.346,113.199,-957.780,-128.600,-317.060
999,82676.87000,213.743,53.208,96.256,322.929,131.391,115.425,-854.780,-191.600,-301.060
1000,82676.136000,236.345,40.157,95.232,322.862,126.751,112.343,-741.780,-182.600,-243.060
1001,82676.168000,228.484,33.129,92.160,324.781,128.628,113.380,-469.780,-203.600,-145.060
1002,82676.208000,209.812,51.200,116.736,326.659,127.718,112.369,-375.780,-115.600,-215.060
1003,82676.228000,231.432,55.216,129.024,324.915,138.667,111.605,-507.780,-29.600,-154.060
1004,82676.266000,215.708,48.188,107.520,325.740,129.557,113.401,-578.780,-125.600,-141.060
1005,82676.309000,221.605,49.192,119.808,323.931,135.906,111.544,-661.780,-93.600,-189.060
1006,82676.349000,220.622,58.227,123.904,327.745,137.827,113.580,-648.780,-96.600,-218.060
1007,82676.388000,213.743,44.173,110.592,325.854,137.822,114.572,-636.780,-134.600,-222.060
1008,82676.426000,221.605,42.165,111.616,324.870,135.061,114.512,-554.780,-111.600,-227.060
1009,82676.471000,225.536,41.161,111.616,322.158,144.204,115.697,-427.780,-36.600,-251.060
1010,82676.491000,223.570,44.173,112.640,322.120,141.456,115.638,-245.780,-55.600,-222.060
1011,82676.527000,224.553,51.200,110.592,322.133,142.372,115.658,-188.780,-18.600,-202.060
1012,82676.568000,241.259,55.216,119.808,321.281,148.850,119.773,-235.780,50.400,-252.060
1013,82676.616000,233.397,52.204,112.640,322.270,152.449,115.873,-142.780,-25.600,-261.060
1014,82676.648000,224.553,52.204,100.352,321.338,153.372,116.886,-181.780,-65.600,-306.060
1015,82676.689000,205.881,57.224,105.472,315.780,162.400,114.086,-164.780,-85.600,-259.060
1016,82676.709000,207.846,61.239,99.328,319.432,152.412,115.868,-56.780,-109.600,-172.060
1017,82676.751000,218.656,58.227,91.136,322.416,163.384,113.122,-77.780,-157.600,-97.060
