Sample, Time, ACCX, ACCY, ACCZ, MAGX, MAGY, MAGZ, GYRX, GYRY, GYRZ
0,82763.642000,222.587,53.208,103.424,310.609,57.600,142.681,-12.780,-14.600,33.940
1,82763.681000,223.570,56.220,99.328,315.380,60.430,143.743,0.220,-26.600,27.940
2,82763.722000,226.518,58.227,97.280,313.512,62.238,143.779,21.220,-47.600,53.940
3,82763.762000,224.553,56.220,93.184,315.441,64.991,142.846,0.220,-58.600,63.940
4,82763.802000,222.587,53.208,97.280,315.377,60.391,141.753,-38.780,-41.600,39.940
5,82763.841000,228.484,51.200,99.328,313.529,63.972,138.843,-40.780,-54.600,11.940
6,82763.862000,225.536,51.200,100.352,314.361,55.720,137.674,-35.780,-76.600,-18.060
7,82763.901000,229.466,54.212,100.352,319.096,55.822,139.672,-23.780,-51.600,-25.060
8,82763.943000,226.518,53.208,96.256,313.418,55.747,139.662,-14.780,-6.600,-6.060
9,82763.983000,223.570,55.216,98.304,315.337,57.623,140.699,-3.780,37.400,8.940
10,82764.24000,220.622,53.208,99.328,313.518,63.076,139.818,-23.780,36.400,10.940
11,82764.63000,225.536,52.204,98.304,316.360,63.152,141.813,-68.780,12.400,-12.060
12,82764.103000,225.536,54.212,99.328,317.289,62.190,138.810,-71.780,-6.600,-19.060
13,82764.123000,225.536,48.188,95.232,316.287,57.675,142.691,-71.780,-22.600,-30.060
14,82764.163000,230.449,52.204,92.160,316.295,58.532,139.726,-15.780,-17.600,-37.060
15,82764.203000,227.501,53.208,96.256,316.275,56.759,142.672,13.220,21.400,-49.060
16,82764.243000,225.536,50.196,93.184,316.314,59.527,143.725,1.220,24.400,-52.060
17,82764.283000,226.518,55.216,93.184,312.591,64.057,143.816,-6.780,69.400,-59.060
18,82764.323000,225.536,57.224,100.352,317.388,68.739,145.912,-40.780,85.400,-40.060
19,82764.343000,224.553,57.224,102.400,310.636,59.452,143.715,-43.780,71.400,-29.060
20,82764.383000,225.536,54.212,99.328,315.487,67.837,147.879,-54.780,88.400,-26.060
21,82764.423000,222.587,55.216,104.448,310.687,62.356,151.734,-14.780,127.400,-19.060
22,82764.463000,220.622,58.227,107.520,308.844,65.996,151.809,-17.780,84.400,-25.060
23,82764.501000,221.605,56.220,108.544,313.602,67.910,152.851,19.220,37.400,-20.060
24,82764.541000,221.605,58.227,108.544,309.839,69.653,150.894,64.220,-63.600,9.940
25,82764.581000,222.587,55.216,101.376,306.952,65.971,151.806,49.220,-75.600,9.940
26,82764.608000,223.570,56.220,101.376,312.657,68.677,145.904,7.220,-14.600,-2.060
27,82764.641000,220.622,55.216,104.448,309.734,62.266,147.752,-3.780,-17.600,-2.060
28,82764.681000,222.587,57.224,105.472,310.678,62.259,146.759,-15.780,-11.600,-15.060
29,82764.721000,220.622,56.220,107.520,309.723,61.369,148.728,5.220,-14.600,-4.060
30,82764.761000,222.587,58.227,103.424,311.651,64.123,147.795,-1.780,-25.600,-7.060
31,82764.801000,220.622,57.224,102.400,310.794,70.543,148.925,6.220,-21.600,2.940
32,82764.828000,223.570,57.224,101.376,314.556,68.780,149.887,2.220,-16.600,3.940
33,82764.861000,222.587,56.220,104.448,310.758,67.814,149.861,15.220,-3.600,6.940
34,82764.901000,227.501,56.220,100.352,313.496,60.503,148.715,-30.780,48.400,-20.060
35,82764.941000,221.605,54.212,102.400,313.585,66.935,149.847,-14.780,39.400,1.940
36,82764.981000,222.587,57.224,103.424,313.544,64.148,147.798,-0.780,65.400,-15.060
37,82765.21000,221.605,56.220,106.496,310.783,69.646,149.900,-0.780,26.400,-11.060
38,82765.61000,220.622,57.224,109.568,308.897,69.699,153.877,10.220,13.400,-0.060
39,82765.81000,222.587,59.231,106.496,310.769,68.711,148.886,9.220,-86.600,4.940
40,82765.121000,223.570,58.227,102.400,308.852,66.853,148.843,12.220,-38.600,4.940
41,82765.161000,221.605,56.220,108.544,314.590,71.489,147.956,18.220,-52.600,19.940
42,82765.203000,221.605,58.227,100.352,310.723,65.085,150.798,-4.780,-12.600,-0.060
43,82765.243000,220.622,56.220,101.376,311.642,63.246,149.765,-0.780,-33.600,-3.060
44,82765.283000,221.605,57.224,103.424,316.399,65.141,149.813,1.220,-33.600,-9.060
45,82765.303000,223.570,57.224,100.352,310.728,65.923,146.837,-14.780,-20.600,-16.060
46,82765.343000,222.587,58.227,102.400,307.913,67.698,145.876,-14.780,-14.600,-12.060
47,82765.383000,223.570,57.224,103.424,311.776,73.284,147.990,-9.780,-14.600,-5.060
48,82765.423000,223.570,58.227,103.424,308.892,70.401,142.951,-6.780,-18.600,-3.060
49,82765.463000,221.605,58.227,102.400,310.738,66.800,144.866,-15.780,-28.600,-6.060
50,82765.503000,223.570,56.220,99.328,313.628,70.522,145.945,15.220,-3.600,9.940
51,82765.523000,220.622,57.224,102.400,313.575,66.818,143.876,8.220,-5.600,9.940
52,82765.564000,221.605,58.227,101.376,314.560,69.599,144.932,23.220,-10.600,17.940
53,82765.604000,223.570,58.227,102.400,311.661,65.000,145.824,25.220,-10.600,1.940
54,82765.644000,223.570,58.227,97.280,310.814,72.316,145.979,22.220,-29.600,6.940
55,82765.684000,227.501,59.231,94.208,310.764,68.652,145.901,42.220,-11.600,6.940
56,82765.724000,227.501,61.239,102.400,314.596,72.327,143.995,-3.780,8.400,-3.060
57,82765.764000,229.466,62.243,103.424,311.671,65.897,144.849,-20.780,3.400,-4.060
58,82765.784000,220.622,64.251,96.256,314.577,71.333,139.995,22.220,-44.600,-5.060
59,82765.833000,217.674,66.259,98.304,316.512,74.165,143.042,-6.780,-36.600,-39.060
60,82765.865000,225.536,66.259,96.256,316.414,66.856,143.881,-112.780,-17.600,-94.060
61,82765.905000,224.553,72.282,102.400,312.752,75.947,143.075,-150.780,-6.600,-89.060
62,82765.945000,222.587,70.275,102.400,311.716,69.503,141.942,-206.780,-4.600,-92.060
63,82765.985000,217.674,66.259,108.544,310.772,69.510,142.935,-323.780,-13.600,-103.060
64,82766.5000,218.656,66.259,104.448,312.736,74.992,141.065,-337.780,-36.600,-87.060
65,82766.45000,219.639,61.239,106.496,312.614,65.870,142.860,-292.780,-7.600,-48.060
66,82766.84000,219.639,60.235,116.736,315.457,65.947,144.855,-244.780,40.400,-27.060
67,82766.130000,213.743,58.227,119.808,311.607,61.296,143.756,-225.780,38.400,-10.060
68,82766.168000,210.795,58.227,122.880,315.460,65.986,146.845,-216.780,84.400,-9.060
69,82766.208000,207.846,52.204,121.856,312.621,65.948,146.840,-115.780,93.400,25.940
70,82766.248000,207.846,55.216,121.856,311.605,60.497,149.707,-131.780,84.400,15.940
71,82766.268000,213.743,49.192,118.784,312.598,64.135,147.796,-75.780,121.400,35.940
72,82766.308000,209.812,52.204,120.832,314.395,56.890,150.629,-79.780,116.400,-11.060
73,82766.345000,205.881,46.180,118.784,313.413,54.148,151.564,-67.780,81.400,-28.060
74,82766.385000,203.916,43.169,116.736,313.529,62.433,153.729,-55.780,51.400,-62.060
75,82766.423000,201.950,42.165,116.736,315.420,62.438,152.738,-54.780,34.400,-51.060
76,82766.463000,218.656,41.161,117.760,314.416,57.904,155.624,-37.780,57.400,-6.060
77,82766.484000,225.536,38.149,118.784,317.264,58.818,153.658,-96.780,-10.600,88.940
78,82766.525000,228.484,37.145,118.784,319.044,50.598,153.486,-43.780,-64.600,104.940
79,82766.565000,232.415,37.145,114.688,320.998,55.184,152.592,160.220,-133.600,220.940
80,82766.605000,232.415,34.133,104.448,321.809,45.918,146.428,526.220,-215.600,265.940
81,82766.645000,217.674,52.204,117.760,322.849,53.182,142.605,474.220,-192.600,203.940
82,82766.685000,216.691,49.192,112.640,322.820,51.310,140.576,301.220,-245.600,140.940
83,82766.725000,222.587,43.169,103.424,328.493,51.327,137.601,289.220,-217.600,171.940
84,82766.745000,230.449,42.165,103.424,327.429,43.011,134.438,113.220,-151.600,103.940
85,82766.785000,233.397,42.165,102.400,330.234,40.339,136.375,-85.780,-175.600,-32.060
86,82766.825000,232.415,43.169,100.352,333.149,46.653,129.551,-203.780,-112.600,-93.060
87,82766.865000,242.242,48.188,106.496,333.979,38.381,127.387,-229.780,-44.600,-150.060
88,82766.905000,248.138,53.208,90.112,333.113,43.924,130.488,-220.780,-85.600,-182.060
89,82766.945000,233.397,52.204,82.944,332.188,45.704,128.535,-238.780,-121.600,-213.060
90,82766.965000,240.276,50.196,70.656,332.237,49.349,127.618,-194.780,-97.600,-171.060
91,82767.5000,233.397,48.188,69.632,334.148,51.129,123.680,-352.780,-194.600,-102.060
92,82767.45000,230.449,47.184,60.416,335.912,41.953,121.498,-376.780,-199.600,-73.060
93,82767.85000,234.380,47.184,56.320,337.865,46.539,120.604,-245.780,-157.600,-11.060
94,82767.125000,229.466,55.216,49.152,336.833,40.133,121.461,-188.780,-229.600,-17.060
95,82767.165000,239.294,42.165,50.176,341.527,38.208,113.470,-177.780,-208.600,15.940
96,82767.205000,233.397,47.184,58.368,342.484,39.117,112.496,-19.780,-146.600,29.940
97,82767.225000,242.242,53.208,51.200,342.591,47.303,109.686,9.220,-237.600,14.940
98,82767.266000,255.017,62.243,56.320,342.522,42.645,105.609,5.220,-162.600,102.940
99,82767.306000,237.328,56.220,61.440,339.592,36.155,103.477,84.220,-93.600,187.940
100,82767.354000,246.173,45.176,72.704,345.313,39.037,106.531,151.220,-117.600,214.940
101,82767.386000,216.691,36.141,51.200,338.597,33.258,96.451,82.220,-306.600,196.940
102,82767.426000,235.363,25.098,40.960,346.137,31.467,93.440,68.220,-13.600,137.940
103,82767.446000,238.311,23.090,78.848,342.446,37.908,97.550,-11.780,102.400,81.940
104,82767.486000,246.173,15.059,95.232,343.380,37.004,97.533,126.220,69.400,59.940
105,82767.526000,231.432,27.106,84.992,336.772,37.872,99.531,255.220,15.400,59.940
106,82767.566000,228.484,20.078,74.752,338.625,35.129,98.480,303.220,54.400,56.940
107,82767.606000,226.518,31.122,84.992,340.582,39.754,99.576,313.220,103.400,49.940
108,82767.645000,235.363,44.173,97.280,339.651,40.697,101.584,366.220,130.400,34.940
109,82767.685000,233.397,46.180,105.472,337.811,44.356,102.654,172.220,197.400,-0.060
110,82767.705000,228.484,38.149,101.376,334.980,44.416,107.624,83.220,183.400,17.940
111,82767.746000,227.501,34.133,98.304,330.232,42.619,112.552,25.220,231.400,-9.060
112,82767.786000,246.173,41.161,120.832,327.462,47.240,116.625,-123.780,469.400,-107.060
113,82767.826000,231.432,50.196,123.904,328.468,51.034,122.675,44.220,259.400,-90.060
114,82767.866000,207.846,55.216,110.592,324.650,48.294,125.595,26.220,230.400,-67.060
115,82767.906000,204.898,57.224,102.400,321.856,51.083,129.629,-73.780,268.400,-153.060
116,82767.926000,203.916,59.231,113.664,322.809,51.174,133.611,-237.780,271.400,-243.060
117,82767.968000,208.829,63.247,112.640,320.055,56.750,139.693,-407.780,177.400,-303.060
118,82768.8000,213.743,59.231,121.856,316.198,51.242,141.560,-442.780,135.400,-283.060
119,82768.55000,216.691,60.235,114.688,315.407,62.282,144.777,-362.780,105.400,-215.060
120,82768.88000,225.536,63.247,105.472,316.306,58.669,146.691,-419.780,90.400,-229.060
121,82768.128000,211.777,51.200,122.880,318.229,60.585,149.718,-415.780,32.400,-193.060
122,82768.164000,192.123,53.208,121.856,318.215,59.649,148.704,-331.780,-13.600,-180.060
123,82768.184000,200.967,63.247,130.048,318.168,56.024,150.616,-251.780,160.400,-185.060
124,82768.224000,199.985,56.220,139.264,316.391,64.283,152.778,-173.780,183.400,-79.060
125,82768.268000,205.881,53.208,132.096,314.452,60.632,154.687,-81.780,116.400,-58.060
126,82768.306000,205.881,64.251,138.240,311.557,56.092,158.565,-148.780,56.400,-52.060
127,82768.346000,218.656,54.212,132.096,316.316,58.786,152.661,-116.780,-6.600,44.940
128,82768.386000,227.501,53.208,121.856,317.294,60.709,156.682,-40.780,-70.600,78.940
129,82768.426000,237.328,54.212,113.664,318.123,52.418,153.523,8.220,-42.600,109.940
130,82768.445000,239.294,51.200,114.688,320.005,51.546,154.502,91.220,47.400,187.940
131,82768.488000,232.415,41.161,109.568,320.865,45.165,155.362,190.220,28.400,233.940
132,82768.526000,229.466,43.169,107.520,319.967,48.798,154.443,300.220,63.400,161.940
133,82768.571000,225.536,34.133,70.656,318.983,46.037,154.383,527.220,-76.600,312.940
134,82768.611000,226.518,22.086,84.992,321.833,46.971,153.413,425.220,-0.600,371.940
135,82768.651000,219.639,26.102,84.992,321.691,36.835,150.213,466.220,-84.600,380.940
136,82768.670000,237.328,22.086,88.064,326.460,39.646,150.280,485.220,-156.600,394.940
137,82768.711000,239.294,15.059,96.256,325.428,34.019,144.191,480.220,-165.600,364.940
138,82768.745000,233.397,14.055,89.088,328.216,30.373,143.122,335.220,-221.600,243.940
139,82768.786000,224.553,21.082,82.944,324.495,35.703,137.262,271.220,-289.600,176.940
140,82768.829000,243.225,19.075,79.872,326.396,36.585,134.300,150.220,-221.600,114.940
141,82768.870000,254.035,21.082,79.872,329.156,31.087,132.198,-37.780,-131.600,63.940
142,82768.910000,219.639,26.102,93.184,326.361,34.636,128.291,-100.780,-244.600,-6.060
143,82768.930000,241.259,41.161,105.472,330.193,38.311,126.385,-245.780,-177.600,-42.060
144,82768.966000,227.501,30.118,91.136,331.978,30.929,122.252,-301.780,-202.600,-92.060
145,82769.14000,225.536,31.122,84.992,329.190,34.556,122.325,-311.780,-173.600,-137.060
146,82769.48000,236.345,39.153,75.776,334.937,40.069,119.467,-204.780,-125.600,-154.060
147,82769.89000,237.328,48.188,95.232,329.220,37.227,118.404,-217.780,-23.600,-176.060
148,82769.129000,236.345,50.196,104.448,328.315,40.001,120.451,-134.780,-54.600,-207.060
149,82769.149000,229.466,46.180,94.208,329.351,47.226,114.638,-88.780,-146.600,-208.060
150,82769.189000,223.570,54.212,92.160,328.319,40.820,115.495,-104.780,-78.600,-176.060
151,82769.229000,221.605,54.212,106.496,328.380,45.381,114.598,-94.780,-45.600,-171.060
152,82769.269000,217.674,61.239,108.544,330.410,55.484,114.816,-91.780,-37.600,-149.060
153,82769.309000,226.518,60.235,100.352,327.591,57.220,111.864,-44.780,-12.600,-148.060
154,82769.349000,233.397,64.251,105.472,327.623,59.130,115.884,-155.780,7.400,-162.060
155,82769.389000,231.432,59.231,105.472,329.550,61.865,113.955,-82.780,1.400,-98.060
156,82769.409000,227.501,55.216,116.736,326.636,56.330,113.833,-193.780,79.400,-35.060
157,82769.449000,217.674,48.188,109.568,329.581,63.775,117.975,-127.780,90.400,20.940
158,82769.489000,201.950,46.180,106.496,325.715,57.390,121.812,-74.780,109.400,31.940
159,82769.529000,203.916,53.208,98.304,329.463,54.692,121.760,74.220,148.400,51.940
160,82769.568000,214.726,48.188,105.472,324.776,57.456,125.790,133.220,208.400,62.940
161,82769.608000,220.622,55.216,114.688,320.992,57.425,126.779,132.220,239.400,19.940
162,82769.628000,208.829,53.208,116.736,322.911,59.302,127.816,33.220,142.400,-48.060
163,82769.668000,202.933,41.161,97.280,324.716,52.914,127.683,61.220,132.400,-50.060
164,82769.708000,212.760,49.192,102.400,323.775,52.960,130.666,69.220,173.400,-20.060
165,82769.748000,231.432,36.141,122.880,321.866,51.200,135.599,-10.780,134.400,137.940
166,82769.788000,234.380,41.161,117.760,322.790,49.420,137.552,32.220,50.400,99.940
167,82769.828000,236.345,50.196,105.472,325.588,46.670,135.508,-254.780,-28.600,18.940
168,82769.868000,222.587,36.141,99.328,321.866,51.200,135.599,-266.780,-62.600,-6.060
169,82769.888000,222.587,50.196,103.424,322.748,46.613,134.508,-130.780,-58.600,-38.060
170,82769.929000,226.518,40.157,112.640,325.615,48.521,136.542,-282.780,58.400,-115.060
171,82769.969000,234.380,37.145,111.616,324.623,45.663,131.507,-265.780,34.400,-174.060
172,82770.9000,228.484,41.161,106.496,326.622,53.095,135.647,-298.780,-18.600,-276.060
173,82770.49000,232.415,51.200,99.328,325.668,52.225,138.611,-308.780,31.400,-413.060
174,82770.89000,224.553,54.212,97.280,324.803,58.547,134.765,-355.780,-121.600,-409.060
175,82770.109000,241.259,40.157,81.920,327.734,65.056,137.892,-516.780,60.400,-528.060
176,82770.149000,221.605,58.227,97.280,323.971,66.800,135.934,-418.780,-46.600,-457.060
177,82770.189000,261.896,50.196,92.160,324.963,69.658,140.970,-558.780,66.400,-490.060
178,82770.229000,214.726,61.239,88.064,320.244,70.512,140.981,-484.780,3.400,-384.060
179,82770.269000,210.795,70.275,80.896,322.052,64.163,142.838,-427.780,-90.600,-275.060
180,82770.311000,214.726,69.271,78.848,324.017,69.646,140.968,-420.780,-115.600,-152.060
181,82770.350000,223.570,58.227,86.016,322.224,76.950,141.121,19.220,-49.600,2.940
182,82770.370000,213.743,62.243,92.160,324.994,72.328,137.048,179.220,-172.600,103.940
183,82770.410000,233.397,56.220,90.112,324.073,74.928,130.140,306.220,-192.600,189.940
184,82770.450000,234.380,60.235,100.352,326.912,74.965,130.145,153.220,-288.600,226.940
185,82770.490000,249.121,74.290,113.664,325.881,69.339,124.056,50.220,-101.600,191.940
186,82770.534000,203.916,58.227,67.584,327.690,63.769,118.966,149.220,-404.600,413.940
187,82770.568000,213.743,56.220,84.992,325.759,60.976,117.910,-193.780,-104.600,274.940
188,82770.588000,209.812,19.075,107.520,328.530,56.375,114.832,335.220,-20.600,330.940
189,82770.629000,213.743,38.149,122.880,328.610,61.930,117.934,548.220,118.400,164.940
190,82770.670000,222.587,58.227,145.408,328.676,66.550,120.022,238.220,141.400,-0.060
191,82770.710000,225.536,59.231,125.952,327.714,65.582,118.010,275.220,-10.600,27.940
192,82770.750000,237.328,54.212,117.760,329.555,61.923,116.941,56.220,123.400,-30.060
193,82770.790000,239.294,54.212,124.928,327.759,68.428,123.044,35.220,266.400,-141.060
194,82770.830000,302.188,40.157,121.856,321.225,74.013,132.105,23.220,650.400,-328.060
195,82770.850000,292.361,64.251,201.728,314.694,79.637,143.156,197.220,745.400,-214.060
196,82770.886000,156.745,36.141,52.224,317.560,81.526,144.195,395.220,3.400,-4.060
197,82770.926000,202.933,65.255,105.472,313.777,80.736,153.125,33.220,565.400,-42.060
198,82770.966000,171.486,39.153,102.400,310.045,84.389,155.186,-31.780,94.400,98.940
199,82771.8000,174.434,59.231,128.000,307.210,84.391,157.171,3.220,190.400,-30.060
200,82771.49000,188.192,63.247,134.144,307.111,77.081,158.010,147.220,38.400,67.940
201,82771.70000,182.296,62.243,106.496,307.137,78.914,158.049,24.220,-132.600,-0.060
202,82771.109000,197.036,65.255,117.760,310.044,84.370,154.191,-90.780,-122.600,-102.060
203,82771.149000,186.226,63.247,131.072,312.779,77.039,152.050,155.220,-198.600,37.940
204,82771.188000,201.950,57.224,131.072,309.012,78.743,148.102,95.220,-130.600,71.940
205,82771.233000,199.002,64.251,120.832,310.978,84.246,147.227,188.220,-114.600,121.940
206,82771.273000,191.140,56.220,116.736,315.678,82.398,143.216,368.220,-100.600,241.940
207,82771.310000,209.812,55.216,103.424,316.525,75.081,143.062,334.220,-82.600,309.940
208,82771.328000,200.967,63.247,114.688,320.303,75.053,139.088,315.220,-107.600,341.940
209,82771.369000,231.432,54.212,103.424,319.230,65.860,137.897,365.220,-40.600,325.940
210,82771.409000,242.242,64.251,111.616,320.175,65.853,136.903,531.220,54.400,371.940
211,82771.450000,219.639,55.216,132.096,322.160,72.349,140.028,621.220,157.400,413.940
212,82771.488000,238.311,37.145,100.352,320.119,61.350,140.786,769.220,148.400,494.940
213,82771.528000,229.466,38.149,96.256,323.942,64.149,140.851,735.220,133.400,502.940
214,82771.548000,240.276,51.200,91.136,321.020,57.757,143.695,687.220,262.400,464.940
215,82771.591000,287.447,52.204,98.304,315.247,50.411,146.514,817.220,355.400,407.940
216,82771.633000,262.879,41.161,105.472,317.213,55.134,152.585,584.220,275.400,259.940
217,82771.671000,216.691,50.196,103.424,320.989,54.307,154.562,373.220,169.400,142.940
218,82771.711000,205.881,26.102,88.064,317.194,53.380,156.526,328.220,-5.600,88.940
219,82771.751000,222.587,22.086,83.968,313.479,58.768,153.651,238.220,6.400,86.940
220,82771.791000,207.846,36.141,87.040,316.295,56.993,154.612,108.220,55.400,42.940
221,82771.811000,200.967,38.149,88.064,316.307,57.909,154.632,75.220,-36.600,80.940
222,82771.851000,214.726,38.149,87.040,316.232,52.412,154.515,71.220,15.400,131.940
223,82771.891000,225.536,38.149,96.256,317.153,50.592,154.477,-157.780,-21.600,-37.060
224,82771.931000,274.672,56.220,107.520,315.259,50.548,153.479,-330.780,-69.600,-80.060
225,82771.969000,234.380,72.282,104.448,315.295,53.277,152.542,-514.780,-244.600,-131.060
226,82772.9000,221.605,53.208,97.280,320.015,53.203,145.585,-565.780,-279.600,-271.060
227,82772.29000,219.639,42.165,115.712,317.253,58.682,146.693,-525.780,-149.600,-313.060
228,82772.69000,191.140,49.192,120.832,320.942,52.221,141.587,-368.780,-281.600,-253.060
229,82772.110000,201.950,63.247,123.904,320.122,61.389,142.776,-365.780,-140.600,-261.060
230,82772.149000,220.622,55.216,137.216,317.238,58.506,137.737,-250.780,-71.600,-213.060
231,82772.189000,213.743,46.180,123.904,319.130,58.531,137.740,-70.780,-160.600,-161.060
232,82772.230000,227.501,61.239,122.880,320.203,67.724,138.932,-195.780,17.400,-193.060
233,82772.269000,233.397,66.259,125.952,316.445,69.526,139.960,18.220,90.400,-71.060
234,82772.290000,264.845,69.271,122.880,315.475,67.701,140.914,-72.780,257.400,12.940
235,82772.328000,250.104,73.286,133.120,310.730,65.943,147.832,121.220,264.400,128.940
236,82772.374000,241.259,88.345,141.312,306.931,64.197,154.752,83.220,531.400,49.940
237,82772.415000,165.589,46.180,92.160,307.924,67.055,159.787,250.220,168.400,162.940
238,82772.453000,212.760,40.157,113.664,307.941,68.030,162.792,148.220,371.400,9.940
239,82772.490000,188.192,51.200,113.664,305.993,63.503,166.671,200.220,77.400,-0.060
240,82772.510000,190.157,70.275,103.424,301.374,71.685,166.839,-40.780,18.400,-42.060
241,82772.551000,195.071,57.224,124.928,307.028,69.947,167.805,-223.780,4.400,-63.060
242,82772.591000,190.157,58.227,120.832,301.256,63.381,163.678,-144.780,-107.600,-93.060
243,82772.631000,190.157,49.192,117.760,304.084,62.522,164.658,-301.780,-137.600,-96.060
244,82772.679000,199.002,48.188,118.784,308.877,67.146,163.769,-452.780,-153.600,-137.060
245,82772.714000,198.019,57.224,124.928,308.723,56.113,161.545,-535.780,-189.600,-204.060
246,82772.754000,200.967,52.204,123.904,310.738,65.261,159.753,-409.780,-213.600,-143.060
247,82772.774000,204.898,46.180,118.784,313.495,59.723,155.661,-491.780,-236.600,-179.060
248,82772.814000,227.501,41.161,109.568,311.602,59.698,155.658,-588.780,-145.600,-280.060
249,82772.859000,226.518,47.184,120.832,314.416,57.904,155.624,-624.780,-102.600,-301.060
250,82772.889000,211.777,46.180,117.760,309.705,59.615,152.669,-585.780,-170.600,-348.060
251,82772.929000,221.605,55.216,111.616,316.261,55.063,149.598,-476.780,-121.600,-383.060
252,82772.969000,228.484,57.224,114.688,314.531,66.948,149.848,-460.780,8.400,-383.060
253,82773.9000,219.639,50.196,110.592,318.262,62.515,154.733,-532.780,-7.600,-366.060
254,82773.29000,227.501,60.235,113.664,315.400,60.664,155.684,-508.780,105.400,-368.060
255,82773.69000,230.449,47.184,113.664,314.582,69.852,157.867,-315.780,79.400,-264.060
256,82773.116000,241.259,47.184,114.688,313.676,72.627,159.914,-269.780,132.400,-237.060
257,82773.149000,241.259,55.216,126.976,309.923,74.488,163.927,-154.780,190.400,-257.060
258,82773.190000,206.864,61.239,106.496,310.771,67.191,164.768,33.220,-15.600,-103.060
259,82773.230000,203.916,58.227,103.424,312.809,78.151,162.020,14.220,-45.600,-33.060
260,82773.250000,215.708,70.275,93.184,311.773,71.706,160.887,51.220,-106.600,-56.060
261,82773.290000,223.570,64.251,97.280,311.857,78.080,159.033,26.220,-222.600,-5.060
262,82773.330000,222.587,62.243,104.448,313.737,77.948,151.076,90.220,-227.600,41.940
263,82773.370000,218.656,62.243,107.520,310.869,76.040,149.042,147.220,-242.600,76.940
264,82773.410000,210.795,54.212,94.208,319.359,74.300,148.023,259.220,-281.600,129.940
265,82773.449000,225.536,55.216,87.040,318.394,73.294,144.021,273.220,-282.600,193.940
266,82773.489000,248.138,48.188,90.112,321.135,66.801,137.919,279.220,-137.600,258.940
267,82773.509000,218.656,63.247,109.568,323.015,66.670,129.962,398.220,-358.600,395.940
268,82773.549000,221.605,53.208,108.544,326.732,62.081,126.886,293.220,-212.600,371.940
269,82773.589000,207.846,73.286,117.760,324.847,62.913,123.917,244.220,-218.600,286.940
270,82773.630000,225.536,49.192,112.640,322.046,65.624,123.971,359.220,-70.600,279.940
271,82773.670000,219.639,40.157,129.024,326.738,62.919,122.925,307.220,53.400,232.940
272,82773.710000,207.846,48.188,120.832,325.690,55.558,121.773,47.220,-73.600,115.940
273,82773.730000,207.846,47.184,113.664,324.753,56.422,119.800,-115.780,-106.600,61.940
274,82773.770000,226.518,40.157,108.544,327.554,53.711,119.747,-19.780,-33.600,42.940
275,82773.810000,244.207,46.180,115.712,324.676,50.906,118.688,-118.780,38.400,-28.060
276,82773.850000,252.069,51.200,129.024,323.833,58.262,120.833,-15.780,236.400,-150.060
277,82773.890000,304.154,53.208,124.928,323.923,63.934,129.905,57.220,371.400,-229.060
278,82773.930000,337.566,63.247,157.696,312.609,65.811,139.875,3.220,761.400,-288.060
279,82773.970000,208.829,44.173,116.736,313.516,62.277,145.769,95.220,158.400,-3.060
280,82773.990000,161.658,53.208,82.944,312.687,70.568,148.928,136.220,351.400,-91.060
281,82774.30000,185.244,62.243,95.232,310.773,68.750,150.876,-38.780,136.400,21.940
282,82774.70000,179.347,43.169,91.136,313.586,66.955,150.842,-213.780,-31.600,-26.060
283,82774.131000,199.002,52.204,126.976,310.810,71.498,150.934,-93.780,28.400,-38.060
284,82774.153000,191.140,47.184,112.640,308.798,63.150,146.775,-68.780,-327.600,-40.060
285,82774.201000,189.175,52.204,110.592,313.616,69.606,145.925,-69.780,-276.600,-89.060
286,82774.215000,197.036,58.227,123.904,319.185,62.254,140.804,-87.780,-167.600,-64.060
287,82774.254000,209.812,54.212,114.688,316.395,65.861,139.882,-61.780,-93.600,-14.060
288,82774.293000,205.881,57.224,112.640,318.248,63.119,138.831,-24.780,-96.600,6.940
289,82774.330000,236.345,62.243,122.880,319.198,63.170,140.823,52.220,0.400,21.940
290,82774.370000,210.795,79.310,116.736,316.338,62.119,135.823,172.220,-38.600,50.940
291,82774.413000,218.656,64.251,105.472,320.180,65.911,139.888,310.220,-14.600,153.940
292,82774.450000,236.345,53.208,98.304,323.006,65.033,139.874,178.220,84.400,151.940
293,82774.473000,226.518,58.227,102.400,319.126,57.712,142.696,208.220,144.400,168.940
294,82774.513000,237.328,49.192,86.016,320.110,60.473,142.756,332.220,103.400,251.940
295,82774.553000,219.639,43.169,97.280,321.932,55.060,145.628,579.220,244.400,322.940
296,82774.594000,230.449,35.137,88.064,320.006,52.326,147.556,580.220,302.400,297.940
297,82774.634000,223.570,50.196,89.088,315.368,58.754,151.665,708.220,320.400,320.940
298,82774.674000,247.155,47.184,87.040,315.341,56.123,157.576,556.220,537.400,226.940
299,82774.694000,233.397,64.251,120.832,308.755,58.024,165.564,703.220,447.400,330.940
300,82774.738000,229.466,48.188,110.592,307.829,59.025,170.557,437.220,310.400,161.940
301,82774.771000,210.795,49.192,95.232,307.779,55.360,170.479,267.220,191.400,60.940
302,82774.810000,221.605,42.165,105.472,306.865,57.258,174.497,382.220,128.400,130.940
303,82774.850000,224.553,44.173,107.520,305.967,60.891,173.578,227.220,-78.600,186.940
304,82774.891000,222.587,43.169,101.376,308.715,54.476,171.456,181.220,-161.600,223.940
305,82774.931000,213.743,42.165,94.208,306.855,57.141,168.526,188.220,-163.600,235.940
306,82774.951000,220.622,50.196,93.184,311.540,54.358,163.501,101.220,-214.600,188.940
307,82774.991000,212.760,49.192,100.352,312.498,55.267,162.527,37.220,-215.600,140.940
308,82775.40000,237.328,40.157,102.400,314.141,37.749,155.194,-192.780,-245.600,47.940
309,82775.73000,240.276,42.165,100.352,314.279,47.826,155.409,-345.780,-335.600,4.940
310,82775.113000,216.691,42.165,92.160,317.999,44.036,146.382,-461.780,-398.600,-118.060
311,82775.153000,212.760,42.165,100.352,318.055,48.538,142.499,-213.780,-339.600,-125.060
312,82775.171000,217.674,45.176,98.304,321.869,51.239,137.589,-315.780,-412.600,-91.060
313,82775.214000,233.397,54.212,95.232,324.726,53.031,133.653,-507.780,-284.600,-205.060
314,82775.251000,234.380,56.220,141.312,321.834,49.290,131.580,-352.780,-90.600,-204.060
315,82775.293000,220.622,59.231,119.808,326.689,58.494,130.788,-61.780,-156.600,-123.060
316,82775.333000,206.864,48.188,103.424,324.791,58.411,127.800,-125.780,-225.600,-111.060
317,82775.371000,208.829,48.188,101.376,322.803,51.875,122.685,-215.780,-135.600,-118.060
318,82775.419000,227.501,50.196,112.640,321.023,60.095,122.857,-221.780,15.400,-118.060
319,82775.434000,254.035,74.290,129.024,321.083,63.877,128.905,-42.780,86.400,-35.060
320,82775.478000,302.188,66.259,123.904,321.000,57.523,131.754,134.220,324.400,137.940
321,82775.520000,312.015,77.302,124.928,315.345,58.481,137.734,-95.780,420.400,-5.060
322,82775.556000,154.779,53.208,110.592,317.269,60.416,141.756,324.220,252.400,66.940
323,82775.591000,157.727,32.125,78.848,313.441,56.780,145.652,469.220,214.400,91.940
324,82775.633000,197.036,26.102,93.184,311.687,66.852,146.858,395.220,243.400,16.940
325,82775.653000,194.088,56.220,97.280,311.667,65.078,149.804,147.220,87.400,-50.060
326,82775.693000,195.071,77.302,109.568,308.842,65.976,150.814,-130.780,64.400,-111.060
327,82775.734000,203.916,59.231,120.832,309.726,61.408,150.718,-55.780,-22.600,35.940
328,82775.774000,192.123,53.208,122.880,313.496,60.503,148.715,50.220,-74.600,97.940
329,82775.814000,200.967,44.173,112.640,314.453,61.412,147.741,-141.780,-179.600,-28.060
330,82775.854000,206.864,48.188,108.544,317.308,63.184,142.810,-303.780,-256.600,-132.060
331,82775.894000,203.916,49.192,109.568,319.163,60.461,142.755,-214.780,-248.600,-161.060
332,82775.913000,232.415,43.169,97.280,315.452,65.888,141.870,-233.780,-70.600,-174.060
333,82775.953000,223.570,50.196,105.472,318.261,64.035,138.851,-360.780,45.400,-229.060
334,82775.993000,238.311,54.212,96.256,321.149,67.737,138.934,-287.780,-31.600,-240.060
335,82776.33000,232.415,58.227,102.400,318.216,60.429,141.758,-370.780,-86.600,-228.060
336,82776.73000,229.466,65.255,116.736,322.085,66.853,139.911,-325.780,-61.600,-265.060
337,82776.113000,230.449,52.204,100.352,322.115,68.743,142.935,-413.780,-138.600,-334.060
338,82776.133000,224.553,62.243,84.992,323.108,72.381,141.025,-442.780,-120.600,-365.060
339,82776.173000,226.518,56.220,91.136,321.189,70.505,139.988,-497.780,-97.600,-397.060
340,82776.213000,250.104,66.259,84.992,320.326,76.866,138.132,-513.780,-113.600,-412.060
341,82776.253000,220.622,57.224,86.016,319.355,75.021,138.092,-422.780,-249.600,-346.060
342,82776.294000,252.069,49.192,81.920,326.074,82.379,135.274,-279.780,-234.600,-399.060
343,82776.334000,227.501,66.259,92.160,323.215,81.328,130.275,-227.780,-304.600,-423.060
344,82776.374000,213.743,92.361,90.112,324.233,86.798,128.403,-64.780,-357.600,-254.060
345,82776.394000,217.674,78.306,73.728,323.337,91.230,121.534,-74.780,-258.600,-39.060
346,82776.434000,228.484,67.263,65.536,324.264,90.248,117.536,26.220,-219.600,159.940
347,82776.474000,231.432,66.259,65.536,327.943,82.891,113.406,47.220,-232.600,155.940
348,82776.514000,220.622,63.247,67.584,328.859,81.013,110.383,17.220,-273.600,176.940
349,82776.554000,224.553,61.239,65.536,330.834,87.392,107.538,-29.780,-226.600,125.940
350,82776.594000,228.484,77.302,65.536,332.600,78.236,106.351,46.220,-200.600,135.940
351,82776.614000,238.311,72.282,77.824,328.866,82.630,99.477,315.220,-195.600,271.940
352,82776.654000,268.775,80.314,77.824,330.730,80.784,97.451,250.220,-158.600,311.940
353,82776.700000,222.587,57.224,59.392,335.383,75.311,95.352,50.220,-270.600,469.940
354,82776.735000,232.415,47.184,75.776,333.361,66.066,92.169,152.220,-31.600,339.940
355,82776.775000,222.587,54.212,92.160,333.357,66.027,90.178,103.220,-11.600,278.940
356,82776.815000,235.363,54.212,102.400,336.098,58.755,91.022,30.220,138.400,120.940
357,82776.855000,219.639,55.216,112.640,332.377,63.305,92.108,1.220,71.400,48.940
358,82776.875000,220.622,51.200,106.496,335.224,63.440,97.089,110.220,157.400,49.940
359,82776.915000,220.622,55.216,104.448,334.306,65.299,99.116,157.220,211.400,20.940
360,82776.955000,242.242,52.204,107.520,331.431,62.532,100.048,42.220,274.400,-54.060
361,82777.3000,289.413,53.208,108.544,331.536,69.141,110.135,22.220,423.400,-192.060
362,82777.35000,333.635,56.220,107.520,323.958,67.423,121.028,-161.780,764.400,-381.060
363,82777.75000,285.482,47.184,161.792,317.492,77.647,133.172,-104.780,721.400,-298.060
364,82777.109000,139.056,41.161,84.992,314.734,83.184,137.264,496.220,258.400,-81.060
365,82777.135000,175.417,79.310,120.832,313.795,83.250,141.243,81.220,464.400,-201.060
366,82777.175000,191.140,66.259,70.656,310.952,82.394,146.193,-221.780,-2.600,-96.060
367,82777.250000,188.192,42.165,99.328,313.866,87.928,146.315,-389.780,5.400,-69.060
368,82777.265000,194.088,67.263,130.048,310.847,75.006,143.052,-106.780,7.400,-42.060
369,82777.293000,198.019,63.247,124.928,310.913,79.626,145.140,-27.780,-186.600,31.940
370,82777.333000,210.795,57.224,109.568,314.764,85.075,140.288,-125.780,-177.600,-89.060
371,82777.355000,207.846,64.251,114.688,314.736,83.204,138.259,132.220,-197.600,-64.060
372,82777.395000,186.226,68.267,109.568,314.826,90.416,132.445,246.220,-205.600,32.940
373,82777.435000,200.967,61.239,97.280,317.623,87.646,129.406,185.220,-128.600,68.940
374,82777.473000,200.967,69.271,111.616,319.460,83.948,126.346,142.220,-65.600,45.940
375,82777.514000,211.777,65.255,106.496,319.410,80.284,126.268,317.220,-85.600,111.940
376,82777.559000,220.622,66.259,93.184,322.310,84.883,125.376,298.220,-7.600,92.940
377,82777.576000,226.518,77.302,100.352,322.274,82.154,126.312,291.220,142.400,126.940
378,82777.620000,255.017,71.278,104.448,321.369,84.929,128.359,287.220,181.400,172.940
379,82777.654000,229.466,75.294,108.544,323.165,77.664,130.196,277.220,252.400,182.940
380,82777.700000,250.104,60.235,96.256,322.173,74.045,133.102,395.220,337.400,285.940
381,82777.745000,216.691,52.204,97.280,320.352,78.698,138.171,360.220,411.400,324.940
382,82777.780000,216.691,48.188,95.232,319.345,73.365,147.008,424.220,355.400,360.940
383,82777.819000,233.397,60.235,95.232,313.588,66.974,151.837,420.220,445.400,343.940
384,82777.839000,250.104,62.243,109.568,311.692,65.371,164.730,448.220,618.400,346.940
385,82777.879000,215.708,48.188,109.568,310.780,68.068,162.797,483.220,338.400,369.940
386,82777.920000,216.691,29.114,88.064,310.676,59.920,167.597,455.220,142.400,313.940
387,82777.954000,232.415,38.149,94.208,308.760,58.082,168.549,395.220,54.400,279.940
388,82777.994000,228.484,37.145,88.064,310.685,60.797,165.626,394.220,-127.600,280.940
389,82778.34000,215.708,41.161,89.088,314.423,57.982,159.604,353.220,-255.600,282.940
390,82778.54000,219.639,34.133,81.920,311.549,55.995,153.589,248.220,-363.600,276.940
391,82778.94000,248.138,50.196,98.304,316.336,60.560,149.715,6.220,-215.600,126.940
392,82778.134000,261.896,57.224,106.496,317.215,55.933,146.634,-116.780,-190.600,53.940
393,82778.174000,223.570,50.196,84.992,324.768,55.058,143.643,-351.780,-459.600,32.940
394,82778.219000,215.708,37.145,94.208,322.771,48.425,133.552,-380.780,-306.600,-63.060
395,82778.255000,211.777,53.208,92.160,322.850,54.741,128.714,-249.780,-358.600,-76.060
396,82778.295000,218.656,38.149,95.232,323.781,53.798,126.706,-442.780,-179.600,-179.060
397,82778.314000,224.553,45.176,114.688,323.856,59.295,126.823,-462.780,-40.600,-190.060
398,82778.358000,220.622,52.204,133.120,322.833,53.766,125.709,-196.780,37.400,-192.060
399,82778.396000,210.795,56.220,109.568,325.750,59.339,127.821,-43.780,-190.600,-82.060
400,82778.436000,216.691,53.208,99.328,321.887,53.754,125.707,-146.780,-156.600,-114.060
401,82778.474000,217.674,50.196,104.448,323.838,58.320,123.818,-221.780,46.400,-103.060
402,82778.515000,232.415,63.247,121.856,321.037,61.031,123.872,32.220,23.400,-6.060
403,82778.536000,273.689,63.247,122.880,325.791,62.127,129.870,-50.780,193.400,1.940
404,82778.576000,279.585,78.306,129.024,318.185,59.298,130.793,315.220,286.400,117.940
405,82778.615000,280.568,82.322,119.808,318.218,61.228,135.807,95.220,429.400,27.940
406,82778.656000,164.607,57.224,96.256,321.119,65.066,142.856,272.220,194.400,153.940
407,82778.696000,203.916,35.137,95.232,313.426,55.844,144.637,227.220,402.400,78.940
408,82778.736000,202.933,52.204,111.616,315.436,63.393,154.747,206.220,373.400,27.940
409,82778.776000,199.002,57.224,100.352,311.638,62.427,154.721,44.220,94.400,-3.060
410,82778.796000,199.002,62.243,104.448,309.799,66.106,156.786,-199.780,116.400,-50.060
411,82778.836000,199.985,55.216,120.832,309.686,57.861,156.610,-188.780,46.400,-21.060
412,82778.876000,198.019,48.188,122.880,311.629,61.550,156.692,-90.780,-65.600,24.940
413,82778.916000,208.829,49.192,115.712,311.491,51.473,156.477,-215.780,-94.600,-18.060
414,82778.956000,208.829,45.176,115.712,313.443,56.039,154.588,-415.780,-149.600,-93.060
415,82778.996000,202.933,52.204,110.592,313.336,48.632,150.451,-520.780,-170.600,-202.060
416,82779.16000,205.881,39.153,107.520,317.159,51.431,150.517,-347.780,-134.600,-151.060
417,82779.58000,210.795,48.188,109.568,315.247,49.632,153.459,-559.780,-101.600,-296.060
418,82779.98000,216.691,54.212,116.736,316.172,48.631,148.466,-549.780,-101.600,-271.060
419,82779.138000,225.536,44.173,101.376,317.057,44.082,149.365,-440.780,-140.600,-260.060
420,82779.178000,221.605,50.196,103.424,319.117,56.835,144.667,-490.780,-63.600,-353.060
421,82779.218000,222.587,48.188,106.496,319.023,49.584,148.491,-380.780,15.400,-346.060
422,82779.264000,230.449,59.231,116.736,319.150,58.765,149.681,-394.780,62.400,-385.060
423,82779.276000,233.397,59.231,106.496,313.516,61.517,153.710,-342.780,70.400,-338.060
424,82779.316000,276.637,56.220,109.568,315.464,65.265,156.776,-426.780,187.400,-334.060
425,82779.358000,241.259,52.204,105.472,310.683,61.538,156.690,-409.780,59.400,-295.060
426,82779.398000,210.795,50.196,104.448,315.471,65.343,160.757,-272.780,110.400,-244.060
427,82779.438000,201.950,54.212,103.424,316.480,69.936,160.856,-58.780,-0.600,-179.060
428,82779.478000,212.760,65.255,91.136,316.414,65.316,158.768,-94.780,-191.600,-141.060
429,82779.498000,227.501,65.255,86.016,315.537,70.742,155.898,-156.780,-198.600,-171.060
430,82779.538000,223.570,65.255,91.136,317.431,71.546,148.956,-12.780,-198.600,-68.060
431,82779.578000,220.622,61.239,83.968,317.392,68.779,147.902,-25.780,-284.600,0.940
432,82779.618000,229.466,54.212,86.016,315.496,68.714,145.909,-32.780,-234.600,25.940
433,82779.656000,229.466,56.220,94.208,320.308,75.112,142.074,226.220,-202.600,107.940
434,82779.696000,243.225,55.216,92.160,323.051,68.639,136.967,421.220,-207.600,159.940
435,82779.736000,262.879,57.224,83.968,323.110,73.180,135.074,500.220,-98.600,257.940
436,82779.756000,230.449,63.247,92.160,324.957,70.359,130.044,222.220,-287.600,298.940
437,82779.796000,192.123,63.247,75.776,326.782,65.745,126.964,267.220,-391.600,332.940
438,82779.836000,207.846,63.247,103.424,324.836,62.017,124.893,257.220,-35.600,292.940
439,82779.876000,209.812,49.192,108.544,328.638,63.801,119.963,283.220,-73.600,294.940
440,82779.916000,223.570,52.204,115.712,325.712,57.351,119.822,240.220,12.400,172.940
441,82779.956000,213.743,65.255,125.952,329.547,61.066,119.906,148.220,69.400,127.940
442,82779.996000,218.656,48.188,125.952,326.636,55.570,121.774,235.220,-6.600,110.940
443,82780.16000,227.501,44.173,118.784,328.499,53.704,118.753,205.220,-8.600,73.940
444,82780.56000,234.380,62.243,135.168,323.835,58.281,121.828,234.220,158.400,-36.060
445,82780.96000,281.551,60.235,130.048,322.027,63.870,127.912,173.220,335.400,-153.060
446,82780.136000,337.566,54.212,138.240,318.204,60.292,134.793,57.220,574.400,-229.060
447,82780.176000,303.171,57.224,148.480,313.645,72.256,141.008,-228.780,407.400,-238.060
448,82780.216000,147.900,33.129,98.304,316.530,75.140,146.047,37.220,62.400,-121.060
449,82780.236000,179.347,70.275,99.328,310.877,76.897,146.076,21.220,302.400,-216.060
450,82780.276000,184.261,44.173,87.040,314.722,80.729,152.131,-81.780,-77.600,-101.060
451,82780.316000,179.347,54.212,102.400,313.696,75.161,149.027,-86.780,13.400,-117.060
452,82780.363000,197.036,61.239,121.856,310.035,84.272,149.216,147.220,-87.600,-39.060
453,82780.399000,197.036,61.239,110.592,317.576,82.481,146.205,127.220,-224.600,18.940
454,82780.440000,199.002,62.243,97.280,313.772,81.437,142.199,59.220,-185.600,-32.060
455,82780.478000,200.967,71.278,105.472,314.679,78.682,141.147,97.220,-224.600,-58.060
456,82780.498000,203.916,62.243,102.400,317.581,84.080,134.303,81.220,-190.600,-28.060
457,82780.539000,208.829,70.275,103.424,319.422,80.420,133.234,19.220,-67.600,4.940
458,82780.576000,202.933,71.278,108.544,318.504,82.279,135.261,133.220,-44.600,76.940
459,82780.619000,222.587,67.263,94.208,322.291,82.349,136.263,226.220,-36.600,132.940
460,82780.663000,230.449,66.259,91.136,320.352,79.478,131.226,111.220,-27.600,130.940
461,82780.701000,236.345,76.298,92.160,323.193,79.535,132.226,152.220,80.400,109.940
462,82780.719000,243.225,70.275,102.400,322.184,74.942,132.126,296.220,98.400,223.940
463,82780.756000,238.311,66.259,98.304,319.277,69.485,135.984,282.220,202.400,254.940
464,82780.799000,234.380,64.251,95.232,318.289,65.906,140.880,224.220,225.400,268.940
465,82780.839000,234.380,50.196,86.016,321.174,68.789,145.919,333.220,315.400,295.940
466,82780.879000,221.605,64.251,88.064,317.278,60.514,146.732,500.220,326.400,294.940
467,82780.919000,265.827,64.251,86.016,312.627,65.247,157.766,525.220,517.400,271.940
468,82780.959000,221.605,58.227,101.376,314.499,63.498,160.716,573.220,406.400,329.940
469,82780.980000,247.155,55.216,96.256,308.841,64.417,164.706,503.220,373.400,226.940
470,82781.20000,201.950,64.251,86.016,308.855,65.353,165.720,401.220,157.400,161.940
471,82781.61000,211.777,46.180,98.304,311.672,63.597,167.676,197.220,161.400,202.940
472,82781.96000,223.570,43.169,102.400,305.896,56.212,168.505,148.220,55.400,238.940
473,82781.136000,218.656,54.212,100.352,311.599,58.120,168.554,-32.780,-108.600,161.940
474,82781.176000,213.743,44.173,86.016,311.483,49.836,166.389,-2.780,-171.600,168.940
475,82781.196000,212.760,33.129,78.848,314.378,54.376,162.511,29.220,-243.600,165.940
476,82781.236000,237.328,40.157,83.968,315.317,54.310,158.532,-100.780,-178.600,37.940
477,82781.276000,262.879,49.192,98.304,314.404,56.987,155.604,-24.780,-237.600,-1.060
478,82781.316000,240.276,58.227,111.616,315.332,56.025,152.601,-174.780,-332.600,-37.060
479,82781.356000,241.259,44.173,101.376,317.248,58.623,143.707,-260.780,-356.600,-94.060
480,82781.396000,219.639,47.184,92.160,319.953,49.402,138.542,-257.780,-403.600,-124.060
481,82781.441000,203.916,51.200,101.376,319.048,52.956,133.643,-363.780,-292.600,-136.060
482,82781.460000,218.656,62.243,105.472,321.018,58.497,134.759,-413.780,-169.600,-161.060
483,82781.503000,217.674,66.259,139.264,321.898,53.890,132.673,-288.780,-41.600,-142.060
484,82781.541000,206.864,68.267,128.000,322.855,54.799,131.699,-77.780,-177.600,-73.060
485,82781.578000,213.743,55.216,99.328,322.924,60.218,127.836,-222.780,-147.600,-81.060
486,82781.620000,222.587,60.235,110.592,321.056,62.025,127.871,-205.780,75.400,-148.060
487,82781.659000,253.052,62.243,119.808,317.268,61.176,133.815,-146.780,142.400,-121.060
488,82781.679000,256.983,86.337,129.024,321.089,63.955,132.886,-15.780,255.400,-83.060
489,82781.723000,291.378,72.282,109.568,314.438,61.236,138.786,-108.780,393.400,-135.060
490,82781.759000,186.226,52.204,120.832,316.278,56.798,144.662,-127.780,112.400,-60.060
491,82781.800000,202.933,39.153,114.688,312.604,64.973,143.836,-63.780,211.400,-51.060
492,82781.839000,213.743,47.184,115.712,316.397,65.121,148.818,70.220,165.400,-43.060
493,82781.886000,200.967,56.220,86.016,308.902,70.518,148.921,70.220,107.400,22.940
494,82781.919000,199.985,56.220,106.496,311.715,67.943,155.833,-1.780,81.400,86.940
495,82781.939000,188.192,54.212,113.664,310.715,64.227,153.763,30.220,-18.600,141.940
496,82781.980000,200.967,43.169,110.592,312.520,57.840,153.630,28.220,-66.600,160.940
497,82782.21000,206.864,37.145,112.640,315.392,60.567,150.708,-108.780,-103.600,93.940
498,82782.63000,199.002,46.180,116.736,315.252,50.470,149.499,-99.780,-146.600,61.940
499,82782.101000,200.967,42.165,110.592,318.174,56.862,146.655,-88.780,-241.600,31.940
500,82782.141000,208.829,41.161,103.424,319.020,49.545,146.501,-83.780,-201.600,-34.060
501,82782.161000,218.656,46.180,104.448,319.051,52.216,142.579,-107.780,-188.600,-53.060
502,82782.201000,224.553,50.196,108.544,318.977,47.498,135.516,-212.780,-223.600,-34.060
503,82782.241000,237.328,47.184,100.352,326.596,51.243,134.612,-310.780,-169.600,-57.060
504,82782.280000,240.276,49.192,105.472,321.814,47.516,134.526,-329.780,-61.600,-130.060
505,82782.320000,230.449,46.180,107.520,326.633,53.992,134.671,-230.780,14.400,-128.060
506,82782.360000,226.518,47.184,104.448,325.653,51.270,136.601,-268.780,71.400,-185.060
507,82782.400000,238.311,60.235,102.400,323.688,45.787,138.471,-441.780,122.400,-279.060
508,82782.420000,225.536,43.169,92.160,322.861,54.098,142.625,-377.780,91.400,-227.060
509,82782.460000,251.086,40.157,98.304,320.999,55.964,145.646,-458.780,270.400,-302.060
510,82782.500000,261.896,50.196,99.328,319.168,59.740,152.686,-252.780,228.400,-306.060
511,82782.540000,210.795,58.227,101.376,320.048,55.133,150.600,-213.780,87.400,-216.060
512,82782.579000,217.674,52.204,87.040,319.077,53.288,150.559,-70.780,60.400,-173.060
513,82782.618000,226.518,63.247,79.872,313.432,55.143,155.563,-146.780,-70.600,-148.060
514,82782.638000,220.622,57.224,79.872,317.247,57.843,150.653,-133.780,-178.600,-71.060
515,82782.678000,221.605,57.224,76.800,318.206,58.772,150.674,-105.780,-242.600,-41.060
516,82782.718000,219.639,56.220,78.848,325.814,62.400,143.800,-205.780,-310.600,-30.060
517,82782.766000,224.553,62.243,79.872,323.851,57.697,138.724,-210.780,-304.600,13.940
518,82782.799000,235.363,61.239,76.800,323.803,54.831,132.695,23.220,-378.600,148.940
519,82782.839000,242.242,60.235,67.584,324.741,54.746,127.722,-3.780,-395.600,233.940
520,82782.879000,270.741,47.184,87.040,329.427,51.963,122.696,-63.780,-307.600,267.940
521,82782.900000,234.380,57.224,97.280,333.052,40.902,116.498,12.220,-361.600,252.940
522,82782.941000,201.950,40.157,80.896,334.899,38.081,111.468,138.220,-285.600,311.940
523,82782.979000,214.726,33.129,100.352,335.910,42.694,112.562,78.220,-61.600,220.940
524,82783.20000,235.363,34.133,106.496,334.851,34.436,112.385,274.220,29.400,205.940
525,82783.59000,231.432,46.180,119.808,330.196,39.890,113.489,231.220,201.400,87.940
526,82783.104000,227.501,49.192,139.264,330.190,39.052,117.449,179.220,186.400,70.940
527,82783.120000,231.432,41.161,111.616,330.233,41.859,120.493,70.220,163.400,59.940
528,82783.160000,236.345,39.153,113.664,328.245,34.563,123.319,-17.780,285.400,-38.060
529,82783.201000,257.965,31.122,103.424,326.459,41.945,127.452,76.220,339.400,-164.060
530,82783.258000,303.171,51.200,126.976,322.601,35.658,136.264,166.220,621.400,-198.060
531,82783.286000,321.843,58.227,151.552,314.315,51.334,147.527,93.220,515.400,-240.060
532,82783.321000,162.641,34.133,107.520,316.219,52.256,146.554,283.220,120.400,-111.060
533,82783.361000,199.985,55.216,104.448,311.530,55.001,149.590,223.220,538.400,-279.060
534,82783.380000,188.192,53.208,123.904,308.831,64.300,158.735,144.220,230.400,-134.060
535,82783.419000,184.261,50.196,113.664,306.020,66.134,160.759,-3.780,95.400,-206.060
536,82783.463000,190.157,62.243,129.024,301.262,64.220,159.717,6.220,37.400,-140.060
537,82783.500000,192.123,51.200,113.664,307.995,72.513,157.914,-50.780,-146.600,-33.060
538,82783.541000,203.916,51.200,110.592,311.661,63.460,160.711,-233.780,-141.600,-133.060
539,82783.581000,205.881,69.271,116.736,309.745,62.402,154.718,-245.780,-184.600,-183.060
540,82783.601000,197.036,63.247,113.664,315.473,66.142,154.806,105.220,-238.600,-35.060
541,82783.640000,209.812,61.239,101.376,316.395,65.101,147.823,88.220,-208.600,39.940
542,82783.680000,208.829,56.220,103.424,316.451,69.604,143.940,-33.780,-138.600,2.940
543,82783.721000,221.605,71.278,104.448,316.403,65.959,144.857,101.220,-55.600,5.940
544,82783.759000,232.415,68.267,100.352,321.200,70.641,146.953,130.220,-26.600,50.940
545,82783.800000,222.587,62.243,94.208,318.296,65.984,144.860,160.220,42.400,113.940
546,82783.841000,241.259,59.231,95.232,318.322,67.836,145.894,248.220,124.400,191.940
547,82783.863000,236.345,60.235,100.352,318.277,64.230,148.801,290.220,168.400,268.940
548,82783.914000,235.363,49.192,92.160,319.188,61.513,149.740,461.220,175.400,400.940
549,82783.940000,222.587,58.227,96.256,317.234,56.927,150.634,502.220,315.400,396.940
550,82783.980000,275.655,58.227,88.064,314.346,52.465,158.492,553.220,407.400,338.940
551,82784.20000,263.862,64.251,102.400,311.555,55.293,164.516,601.220,393.400,367.940
552,82784.60000,259.931,60.235,105.472,310.593,53.566,170.445,542.220,362.400,317.940
553,82784.80000,192.123,52.204,97.280,306.821,54.432,170.458,500.220,151.400,253.940
554,82784.120000,200.967,41.161,106.496,307.776,55.321,168.489,500.220,130.400,372.940
555,82784.160000,215.708,18.071,99.328,305.773,47.071,169.305,324.220,-42.600,373.940
556,82784.200000,211.777,39.153,101.376,309.494,42.520,168.219,344.220,-0.600,269.940
557,82784.240000,217.674,40.157,104.448,305.708,42.470,168.213,189.220,-82.600,221.940
558,82784.280000,221.605,24.094,90.112,312.313,41.564,164.224,137.220,-281.600,207.940
559,82784.320000,218.656,33.129,94.208,314.301,48.859,161.399,-94.780,-293.600,64.940
560,82784.340000,227.501,52.204,111.616,312.377,46.924,157.376,-154.780,-195.600,-69.060
561,82784.380000,234.380,47.184,111.616,316.180,48.728,153.442,-252.780,-205.600,-112.060
562,82784.426000,210.795,56.220,75.776,315.183,45.811,145.421,-553.780,-381.600,-297.060
563,82784.460000,234.380,53.208,116.736,320.911,49.551,145.509,-421.780,-228.600,-229.060
564,82784.504000,226.518,68.267,107.520,321.869,51.239,137.589,-501.780,-372.600,-276.060
565,82784.543000,226.518,53.208,119.808,321.816,47.536,135.521,-522.780,-232.600,-318.060
566,82784.585000,222.587,64.251,118.784,320.020,54.801,133.684,-442.780,-309.600,-361.060
567,82784.605000,215.708,63.247,104.448,320.108,61.993,126.875,-402.780,-311.600,-316.060
568,82784.645000,221.605,51.200,108.544,322.002,62.038,127.873,-496.780,-109.600,-311.060
569,82784.684000,240.276,61.239,117.760,322.070,66.677,130.956,-290.780,73.400,-264.060
570,82784.720000,261.896,65.255,112.640,321.050,61.187,131.832,-345.780,92.400,-243.060
571,82784.764000,261.896,82.322,128.000,322.053,64.942,135.892,-207.780,391.400,31.940
572,82784.803000,342.480,63.247,131.072,316.328,60.462,144.740,-415.780,643.400,40.940
573,82784.823000,212.760,65.255,122.880,313.521,62.335,148.754,109.220,410.400,236.940
574,82784.864000,161.658,46.180,95.232,307.864,63.274,153.739,525.220,438.400,238.940
575,82784.900000,211.777,20.078,113.664,305.033,63.334,158.709,646.220,431.400,213.940
576,82784.943000,199.985,64.251,98.304,305.091,67.096,163.763,401.220,276.400,53.940
577,82784.989000,197.036,60.235,115.712,299.339,60.764,171.576,-337.780,254.400,-29.060
578,82785.24000,195.071,44.173,128.000,303.205,66.370,174.685,-245.780,187.400,-79.060
579,82785.62000,174.434,25.098,114.688,303.103,59.021,173.534,-132.780,-18.600,-10.060
580,82785.83000,164.607,61.239,113.664,303.065,56.273,173.476,-195.780,74.400,-71.060
581,82785.123000,173.451,36.141,136.192,297.466,61.733,175.573,-140.780,67.400,34.940
582,82785.163000,169.520,54.212,119.808,302.185,60.880,175.562,-235.780,-93.600,-107.060
583,82785.203000,175.417,58.227,118.784,301.132,53.460,171.424,-270.780,-70.600,-77.060
584,82785.243000,183.278,47.184,124.928,304.024,57.201,173.497,-352.780,-135.600,-40.060
585,82785.281000,214.726,47.184,123.904,303.015,52.608,173.397,-461.780,-103.600,-272.060
586,82785.301000,218.656,62.243,139.264,305.808,49.800,168.369,-516.780,-89.600,-407.060
587,82785.341000,233.397,56.220,138.240,307.829,59.025,170.557,-599.780,-148.600,-487.060
588,82785.381000,243.225,60.235,130.048,308.726,55.373,170.481,-831.780,-112.600,-600.060
589,82785.426000,223.570,46.180,110.592,307.912,65.379,167.709,-752.780,-160.600,-625.060
590,82785.461000,236.345,60.235,94.208,308.892,68.101,165.779,-817.780,-235.600,-802.060
591,82785.501000,240.276,62.243,91.136,308.878,67.166,164.764,-751.780,-167.600,-817.060
592,82785.541000,240.276,48.188,87.040,308.978,74.495,164.920,-621.780,-206.600,-566.060
593,82785.561000,246.173,89.349,106.496,310.023,81.817,164.083,-693.780,-58.600,-504.060
594,82785.601000,201.950,47.184,106.496,307.111,76.302,164.956,-683.780,-198.600,-306.060
595,82785.641000,195.071,73.286,99.328,310.978,82.706,162.114,-328.780,-323.600,-215.060
596,82785.681000,220.622,66.259,95.232,309.104,84.435,158.170,-256.780,-362.600,-262.060
597,82785.721000,226.518,60.235,102.400,314.783,85.290,151.234,58.220,-433.600,-160.060
598,82785.761000,223.570,69.271,102.400,315.739,86.959,142.319,338.220,-378.600,-40.060
599,82785.781000,218.656,66.259,94.208,316.740,91.455,137.443,358.220,-351.600,66.940
600,82785.823000,234.380,74.290,81.920,319.495,85.898,132.356,414.220,-282.600,93.940
601,82785.863000,239.294,63.247,83.968,321.381,85.845,128.379,646.220,-250.600,370.940
602,82785.901000,234.380,98.384,84.992,324.310,93.094,122.569,517.220,-191.600,391.940
603,82785.941000,203.916,118.463,73.728,324.123,80.132,115.331,727.220,-277.600,693.940
604,82785.981000,244.207,-23.090,70.656,324.081,77.325,112.287,1475.220,240.400,994.940
605,82786.28000,203.916,80.314,126.976,326.907,75.667,119.219,1686.220,371.400,689.940
606,82786.43000,223.570,89.349,144.384,323.048,70.139,120.090,1088.220,212.400,562.940
607,82786.84000,209.812,92.361,110.592,324.811,60.944,116.913,680.220,-94.600,434.940
608,82786.124000,224.553,59.231,99.328,323.914,64.596,116.989,325.220,-42.600,362.940
609,82786.164000,217.674,63.247,103.424,325.743,60.021,115.900,162.220,60.400,236.940
610,82786.204000,234.380,62.243,112.640,324.839,62.816,118.942,111.220,121.400,137.940
611,82786.244000,263.862,74.290,122.880,321.026,60.134,124.847,-108.780,368.400,-153.060
612,82786.264000,295.309,87.341,125.952,320.122,62.929,127.889,-60.780,497.400,-357.060
613,82786.304000,348.376,60.235,180.224,312.702,72.283,142.997,-242.780,1036.400,-598.060
614,82786.344000,194.088,49.192,110.592,306.254,84.261,151.199,-786.780,-4.600,-756.060
615,82786.385000,165.589,76.298,89.088,308.105,81.499,149.154,-952.780,-66.600,-803.060
616,82786.425000,161.658,70.275,107.520,304.452,90.688,153.323,-1178.780,-157.600,-552.060
617,82786.464000,161.658,33.129,92.160,306.343,90.694,152.331,-761.780,-326.600,-411.060
618,82786.505000,167.555,60.235,96.256,306.308,88.744,146.322,-459.780,-322.600,-266.060
619,82786.525000,180.330,69.271,113.664,311.095,93.309,142.447,-174.780,-428.600,-75.060
620,82786.563000,179.347,61.239,99.328,316.744,92.273,132.487,-97.780,-461.600,-25.060
621,82786.606000,189.175,46.180,95.232,313.895,92.119,126.512,-211.780,-553.600,-130.060
622,82786.643000,186.226,37.145,103.424,319.586,93.889,119.596,147.220,-425.600,-146.060
623,82786.694000,200.967,65.255,107.520,321.490,95.590,111.677,483.220,-325.600,-141.060
624,82786.723000,209.812,64.251,77.824,323.362,94.602,106.686,553.220,-341.600,-19.060
625,82786.748000,210.795,81.318,86.016,322.517,102.698,99.895,475.220,-61.600,-27.060
626,82786.783000,212.760,73.286,93.184,324.344,98.103,97.810,516.220,92.400,41.940
627,82786.823000,211.777,86.337,83.968,323.399,98.110,98.804,763.220,176.400,207.940
628,82786.866000,267.793,87.341,91.136,322.572,106.421,102.958,597.220,398.400,256.940
629,82786.905000,247.155,82.322,86.016,326.293,101.871,101.872,612.220,380.400,390.940
630,82786.942000,256.000,56.220,76.800,327.097,90.208,113.560,752.220,420.400,625.940
631,82786.988000,252.069,74.290,86.016,325.182,88.389,115.508,797.220,545.400,597.940
632,82787.8000,226.518,87.341,87.040,323.092,72.966,124.129,853.220,577.400,715.940
633,82787.48000,305.136,30.118,68.608,325.020,74.940,130.141,906.220,683.400,768.940
634,82787.88000,255.017,54.212,50.176,319.296,70.480,139.984,851.220,662.400,727.940
635,82787.128000,247.155,60.235,68.608,317.243,57.804,148.663,600.220,581.400,611.940
636,82787.168000,217.674,65.255,111.616,315.409,61.542,153.713,469.220,319.400,534.940
637,82787.208000,204.898,43.169,89.088,317.189,53.321,153.541,566.220,25.400,435.940
638,82787.228000,232.415,27.106,79.872,316.280,56.057,153.598,317.220,-13.600,331.940
639,82787.268000,229.466,32.125,83.968,316.125,44.226,157.324,335.220,84.400,333.940
640,82787.306000,227.501,34.133,93.184,316.203,49.761,159.431,141.220,39.400,228.940
641,82787.346000,215.708,40.157,76.800,318.919,41.437,153.290,238.220,-148.600,218.940
642,82787.386000,224.553,38.149,71.680,318.983,46.037,154.383,110.220,-114.600,153.940
643,82787.426000,212.760,34.133,78.848,318.891,39.565,151.261,-195.780,-75.600,17.940
644,82787.467000,259.931,29.114,83.968,319.900,44.158,151.361,-381.780,-74.600,-77.060
645,82787.482000,235.363,53.208,97.280,317.033,42.250,149.326,-711.780,-204.600,-209.060
646,82787.523000,243.225,48.188,89.088,320.844,44.911,142.426,-773.780,-367.600,-294.060
647,82787.563000,223.570,35.137,102.400,321.780,44.807,136.458,-743.780,-478.600,-347.060
648,82787.602000,199.985,43.169,110.592,325.611,49.242,126.611,-504.780,-453.600,-448.060
649,82787.644000,207.846,57.224,112.640,327.575,54.725,124.742,-501.780,-266.600,-389.060
650,82787.683000,214.726,63.247,121.856,327.533,51.918,121.698,-419.780,-176.600,-375.060
651,82787.703000,220.622,47.184,114.688,322.821,53.629,118.743,-444.780,-199.600,-304.060
652,82787.744000,222.587,59.231,114.688,323.878,61.868,117.926,-330.780,-48.600,-199.060
653,82787.785000,254.035,55.216,128.000,322.908,59.263,125.826,-252.780,225.400,-122.060
654,82787.828000,293.344,83.325,111.616,321.979,60.225,128.829,-106.780,258.400,-49.060
655,82787.865000,299.240,91.357,118.784,321.044,60.349,135.793,-174.780,483.400,133.940
656,82787.904000,345.428,64.251,148.480,314.298,50.360,144.522,258.220,642.400,232.940
657,82787.954000,166.572,61.239,96.256,317.168,52.308,148.546,556.220,76.400,349.940
658,82787.981000,174.434,24.094,86.016,313.406,53.291,154.529,345.220,378.400,162.940
659,82788.6000,183.278,46.180,110.592,310.565,53.234,153.529,524.220,177.400,288.940
660,82788.45000,187.209,51.200,96.256,306.836,56.926,157.581,59.220,47.400,135.940
661,82788.90000,190.157,43.169,100.352,308.682,53.326,159.496,-247.780,21.400,-2.060
662,82788.130000,180.330,50.196,119.808,308.657,51.494,159.457,10.220,-43.600,126.940
663,82788.169000,188.192,32.125,115.712,312.325,43.240,156.303,52.220,-143.600,79.940
664,82788.189000,196.054,46.180,113.664,310.501,48.634,152.437,-176.780,-304.600,-35.060
665,82788.230000,203.916,45.176,105.472,313.231,41.245,147.310,-454.780,-369.600,-161.060
666,82788.265000,190.157,51.200,103.424,319.004,48.590,144.491,-394.780,-364.600,-186.060
667,82788.304000,214.726,38.149,96.256,321.771,43.930,138.428,-413.780,-267.600,-198.060
668,82788.351000,229.466,52.204,101.376,322.790,49.420,137.552,-513.780,-200.600,-289.060
669,82788.385000,225.536,52.204,106.496,325.621,49.359,132.582,-497.780,-259.600,-247.060
670,82788.426000,228.484,45.176,91.136,325.602,48.365,128.582,-640.780,-257.600,-386.060
671,82788.446000,267.793,47.184,86.016,325.564,45.617,128.523,-688.780,-119.600,-490.060
672,82788.486000,246.173,63.247,96.256,325.697,55.636,125.753,-575.780,-47.600,-530.060
673,82788.526000,249.121,61.239,86.016,328.523,54.757,125.738,-701.780,-116.600,-571.060
674,82788.566000,242.242,57.224,79.872,326.690,59.274,123.842,-740.780,-117.600,-537.060
675,82788.606000,257.965,49.192,68.608,328.723,69.415,126.051,-684.780,-43.600,-546.060
676,82788.646000,239.294,68.267,61.440,324.911,67.514,125.010,-654.780,-139.600,-558.060
677,82788.666000,248.138,67.263,86.016,323.160,77.605,127.211,-480.780,-34.600,-490.060
678,82788.706000,213.743,54.212,80.896,324.140,80.327,125.281,-284.780,-86.600,-190.060
679,82788.746000,215.708,65.255,60.416,324.060,74.772,122.179,-111.780,-186.600,-101.060
680,82788.786000,227.501,63.247,66.560,326.003,78.461,122.261,-125.780,-159.600,-50.060
681,82788.826000,232.415,59.231,67.584,329.830,82.078,117.370,-37.780,-200.600,-39.060
682,82788.864000,226.518,71.278,75.776,327.859,76.517,115.259,96.220,-200.600,8.940
683,82788.904000,222.587,65.255,60.416,327.950,83.749,110.440,119.220,-266.600,127.940
684,82788.925000,237.328,67.263,59.392,327.829,75.406,105.289,67.220,-157.600,163.940
685,82788.966000,243.225,60.235,80.896,329.747,77.263,105.332,5.220,-188.600,235.940
686,82789.6000,244.207,70.275,97.280,330.678,76.320,103.324,418.220,-154.600,345.940
687,82789.47000,223.570,71.278,66.560,336.230,67.994,95.198,442.220,-360.600,493.940
688,82789.87000,233.397,26.102,63.488,336.114,59.710,93.032,512.220,5.400,478.940
689,82789.128000,221.605,40.157,105.472,337.083,61.535,92.078,867.220,-2.600,463.940
690,82789.148000,219.639,57.224,132.096,335.157,58.801,94.006,562.220,92.400,259.940
691,82789.188000,221.605,63.247,118.784,333.225,56.008,92.949,434.220,39.400,185.940
692,82789.228000,224.553,62.243,94.208,337.062,59.742,94.029,292.220,-0.600,195.940
693,82789.267000,232.415,55.216,94.208,336.948,51.477,92.858,53.220,69.400,86.940
694,82789.308000,246.173,54.212,99.328,330.433,58.836,98.973,-86.780,239.400,-24.060
695,82789.351000,264.845,53.208,118.784,328.572,60.721,102.989,-20.780,347.400,-137.060
696,82789.391000,306.119,61.239,116.736,326.735,64.419,106.049,255.220,497.400,-325.060
697,82789.411000,348.376,51.200,130.048,319.309,73.715,118.171,-129.780,977.400,-572.060
698,82789.451000,162.641,47.184,121.856,317.460,75.737,129.152,15.220,414.400,-363.060
699,82789.500000,183.278,93.365,79.872,314.731,83.145,135.274,1.220,277.400,-361.060
700,82789.528000,176.399,78.306,84.992,314.806,88.642,135.391,-469.780,-23.600,-156.060
701,82789.568000,176.399,31.122,80.896,315.697,84.152,139.275,-416.780,71.400,-170.060
702,82789.606000,178.365,59.231,107.520,312.881,85.927,138.314,-247.780,52.400,-156.060
703,82789.630000,194.088,53.208,103.424,311.983,89.560,137.396,-73.780,-99.600,-107.060
704,82789.668000,190.157,60.235,101.376,315.767,89.590,136.407,-6.780,-160.600,-94.060
705,82789.705000,201.950,60.235,103.424,311.961,88.527,131.406,81.220,-157.600,-69.060
706,82789.746000,200.967,58.227,108.544,315.746,88.577,131.412,303.220,-169.600,19.940
707,82789.792000,196.054,63.247,103.424,316.671,87.575,126.419,301.220,-171.600,19.940
708,82789.827000,205.881,57.224,101.376,319.594,93.987,124.571,303.220,-137.600,62.940
709,82789.869000,210.795,78.306,106.496,320.561,95.773,121.626,366.220,-80.600,105.940
710,82789.889000,216.691,75.294,96.256,323.327,91.113,115.563,588.220,-76.600,196.940
711,82789.931000,221.605,73.286,91.136,323.365,93.861,115.622,527.220,-25.600,219.940
712,82789.966000,224.553,71.278,92.160,323.286,88.325,113.515,363.220,103.400,271.940
713,82790.9000,244.207,70.275,92.160,323.284,87.526,119.466,386.220,85.400,254.940
714,82790.49000,239.294,67.263,80.896,326.950,79.253,115.316,336.220,64.400,335.940
715,82790.90000,260.914,56.220,81.920,326.957,79.331,119.297,300.220,280.400,356.940
716,82790.106000,236.345,59.231,79.872,327.792,71.118,120.118,499.220,228.400,397.940
717,82790.146000,260.914,49.192,56.320,326.774,65.648,121.989,530.220,258.400,398.940
718,82790.186000,255.017,72.282,100.352,322.111,69.464,133.004,606.220,524.400,385.940
719,82790.226000,244.207,67.263,94.208,322.030,63.130,136.848,644.220,397.400,466.940
720,82790.268000,220.622,32.125,77.824,320.133,62.286,141.800,809.220,275.400,493.940
721,82790.309000,200.967,38.149,81.920,321.063,60.564,146.738,683.220,210.400,423.940
722,82790.349000,234.380,23.090,88.064,320.040,55.035,145.624,663.220,114.400,430.940
723,82790.369000,238.311,42.165,79.872,319.112,56.777,141.682,469.220,-61.600,359.940
724,82790.409000,236.345,35.137,80.896,318.106,52.223,143.572,123.220,-43.600,191.940
725,82790.449000,219.639,37.145,74.752,320.862,46.666,138.485,136.220,-167.600,218.940
726,82790.489000,229.466,38.149,68.608,319.060,53.093,140.608,125.220,-130.600,162.940
727,82790.529000,250.104,28.110,76.800,322.776,48.484,136.537,-70.780,-39.600,71.940
728,82790.569000,281.551,39.153,78.848,322.776,48.484,136.537,-279.780,0.400,-148.060
729,82790.587000,240.276,50.196,84.992,321.839,49.349,134.565,-429.780,-245.600,-183.060
730,82790.627000,228.484,36.141,101.376,324.734,53.889,130.687,-329.780,-240.600,-221.060
731,82790.666000,208.829,61.239,89.088,320.859,48.166,121.608,-393.780,-379.600,-296.060
732,82790.706000,212.760,74.290,84.992,326.702,60.190,123.862,-599.780,-271.600,-334.060
733,82790.751000,208.829,62.243,96.256,324.830,61.939,120.913,-700.780,-126.600,-325.060
734,82790.790000,208.829,62.243,114.688,324.817,61.023,120.893,-531.780,-123.600,-321.060
735,82790.827000,224.553,58.227,101.376,322.984,65.539,118.997,-526.780,-155.600,-260.060
736,82790.849000,236.345,52.204,108.544,323.018,68.249,117.066,-502.780,9.400,-238.060
737,82790.888000,241.259,67.263,125.952,320.131,63.806,125.919,-236.780,110.400,-188.060
738,82790.926000,268.775,67.263,111.616,320.139,64.664,122.953,-114.780,134.400,-26.060
739,82790.968000,297.274,58.227,117.760,319.210,65.626,125.956,-50.780,417.400,102.940
740,82791.9000,285.482,66.259,131.072,315.379,61.190,135.802,79.220,419.400,91.940
741,82791.51000,155.762,75.294,95.232,316.400,66.700,135.921,529.220,123.400,275.940
742,82791.70000,190.157,27.106,93.184,311.577,59.406,140.732,225.220,365.400,196.940
743,82791.107000,198.019,58.227,89.088,312.607,65.012,145.826,384.220,187.400,127.940
744,82791.150000,189.175,57.224,93.184,309.693,59.478,145.704,-40.780,49.400,36.940
745,82791.190000,199.002,69.271,106.496,308.700,55.840,147.614,-123.780,124.400,-52.060
746,82791.226000,203.916,59.231,123.904,309.646,55.853,147.616,-118.780,42.400,-10.060
747,82791.266000,191.140,58.227,112.640,310.660,60.504,150.700,-86.780,-166.600,4.940
748,82791.306000,205.881,49.192,96.256,314.354,54.862,140.639,-444.780,-267.600,-67.060
749,82791.326000,200.967,57.224,90.112,319.981,51.273,140.571,-734.780,-357.600,-143.060
750,82791.366000,212.760,53.208,97.280,319.093,55.782,137.682,-751.780,-310.600,-136.060
751,82791.408000,223.570,40.157,86.016,321.823,48.393,132.555,-570.780,-254.600,-156.060
752,82791.447000,222.587,38.149,86.016,324.621,45.643,130.512,-546.780,-201.600,-166.060
753,82791.488000,241.259,30.118,86.016,321.772,44.709,131.482,-569.780,-106.600,-177.060
754,82791.528000,243.225,40.157,90.112,324.706,52.017,128.658,-537.780,-27.600,-244.060
755,82791.548000,245.190,56.220,103.424,323.736,50.192,129.613,-528.780,-3.600,-344.060
756,82791.588000,247.155,44.173,88.064,327.574,53.946,131.687,-547.780,-31.600,-385.060
757,82791.628000,222.587,57.224,98.304,322.802,51.096,129.630,-639.780,-19.600,-522.060
758,82791.668000,223.570,54.212,89.088,322.943,61.212,131.835,-435.780,-58.600,-456.060
759,82791.707000,262.879,42.165,75.776,324.909,66.714,130.961,-440.780,45.400,-457.060
760,82791.748000,259.931,45.176,90.112,318.315,68.518,133.973,-356.780,103.400,-442.060
761,82791.790000,235.363,67.263,110.592,321.204,72.220,134.056,-222.780,-21.600,-295.060
762,82791.810000,214.726,57.224,73.728,321.263,76.761,132.164,-91.780,-143.600,-83.060
763,82791.850000,218.656,63.247,79.872,323.090,72.167,130.079,-139.780,-44.600,-46.060
764,82791.890000,235.363,57.224,84.992,325.975,75.830,128.172,-91.780,-61.600,-48.060
765,82791.930000,235.363,59.231,82.944,323.138,75.812,129.162,51.220,-146.600,-1.060
766,82791.970000,221.605,58.227,78.848,323.086,72.128,128.089,64.220,-200.600,21.940
767,82792.10000,222.587,48.188,72.704,325.944,73.919,124.153,90.220,-233.600,23.940
768,82792.54000,213.743,50.196,77.824,324.118,79.294,119.292,356.220,-246.600,124.940
769,82792.70000,241.259,58.227,79.872,323.083,73.628,111.212,489.220,-188.600,165.940
770,82792.110000,253.052,79.310,92.160,324.018,72.744,112.190,292.220,-19.600,196.940
771,82792.152000,213.743,78.306,86.016,325.942,75.439,108.271,437.220,-241.600,377.940
772,82792.193000,220.622,49.192,81.920,329.575,64.476,107.049,633.220,172.400,343.940
773,82792.232000,215.708,53.208,98.304,325.927,73.724,114.203,646.220,183.400,303.940
774,82792.267000,224.553,57.224,109.568,327.699,65.406,109.055,535.220,125.400,234.940
775,82792.293000,207.846,62.243,114.688,325.861,69.105,112.115,275.220,99.400,176.940
776,82792.333000,209.812,61.239,109.568,323.038,70.022,114.119,382.220,75.400,207.940
777,82792.372000,216.691,57.224,108.544,325.839,67.311,114.066,347.220,126.400,215.940
778,82792.408000,217.674,56.220,114.688,325.807,64.621,116.993,120.220,233.400,110.940
779,82792.447000,240.276,54.212,120.832,322.950,62.830,120.929,-211.780,309.400,-140.060
780,82792.488000,282.534,70.275,146.432,316.375,64.867,135.882,-111.780,601.400,-340.060
781,82792.508000,347.393,69.271,203.776,309.941,77.781,145.099,-144.780,1094.400,-593.060
782,82792.548000,206.864,35.137,92.160,308.126,82.513,154.149,-16.780,193.400,-246.060
783,82792.588000,164.607,66.259,78.848,304.421,88.018,157.244,-103.780,194.400,-223.060
784,82792.627000,171.486,67.263,97.280,303.467,87.148,160.208,-397.780,-35.600,-195.060
785,82792.669000,178.365,47.184,80.896,304.428,88.096,161.225,-573.780,-221.600,-215.060
786,82792.710000,180.330,57.224,118.784,302.467,83.432,158.138,-178.780,-82.600,-225.060
787,82792.750000,195.071,66.259,128.000,304.361,84.236,151.196,41.220,-382.600,-92.060
788,82792.770000,201.950,56.220,102.400,309.161,89.718,147.341,-31.780,-430.600,-56.060
789,82792.810000,202.933,65.255,118.784,310.050,85.987,143.285,-78.780,-238.600,-62.060
790,82792.850000,203.916,64.251,120.832,310.105,90.471,138.407,133.220,-251.600,43.940
791,82792.893000,199.985,57.224,104.448,314.790,87.687,133.381,323.220,-245.600,129.940
792,82792.930000,202.933,62.243,101.376,313.848,88.493,128.424,330.220,-87.600,99.940
793,82792.970000,209.812,66.259,106.496,314.798,88.545,130.416,378.220,61.400,70.940
794,82792.990000,207.846,78.306,101.376,315.741,88.518,128.427,437.220,28.400,140.940
795,82793.27000,223.570,79.310,91.136,314.729,83.126,134.279,349.220,162.400,178.940
796,82793.70000,229.466,74.290,103.424,317.568,83.163,134.284,427.220,298.400,263.940
797,82793.110000,221.605,67.263,98.304,315.720,85.965,138.319,403.220,215.400,307.940
798,82793.151000,223.570,62.243,94.208,315.598,76.843,140.114,292.220,272.400,307.940
799,82793.190000,239.294,54.212,100.352,314.684,78.740,144.132,314.220,382.400,369.940
800,82793.232000,238.311,57.224,92.160,314.669,77.025,150.063,342.220,383.400,354.940
801,82793.254000,232.415,62.243,109.568,308.917,70.693,157.877,522.220,540.400,385.940
802,82793.294000,258.948,53.208,80.896,311.742,69.035,164.808,654.220,473.400,363.940
803,82793.337000,236.345,58.227,93.184,306.002,64.380,164.701,562.220,362.400,307.940
804,82793.374000,227.501,54.212,89.088,300.334,64.422,170.661,577.220,325.400,346.940
805,82793.414000,232.415,32.125,97.280,303.165,63.602,173.632,382.220,173.400,404.940
806,82793.454000,222.587,45.176,89.088,302.155,58.989,172.537,345.220,94.400,378.940
807,82793.469000,221.605,43.169,84.992,304.037,58.117,173.516,339.220,-63.600,357.940
808,82793.510000,215.708,42.165,80.896,302.152,58.950,170.547,206.220,-166.600,289.940
809,82793.551000,222.587,46.180,103.424,305.955,60.754,166.613,28.220,-163.600,166.940
810,82793.591000,225.536,47.184,108.544,304.951,56.979,161.558,-130.780,-365.600,78.940
811,82793.630000,268.775,41.161,99.328,311.455,48.744,157.413,-268.780,-366.600,-17.060
812,82793.670000,247.155,44.173,115.712,311.538,55.098,154.565,-465.780,-418.600,-118.060
813,82793.710000,213.743,51.200,111.616,316.245,54.108,147.588,-401.780,-475.600,-164.060
814,82793.729000,217.674,42.165,89.088,317.239,58.525,138.732,-312.780,-515.600,-128.060
815,82793.775000,205.881,43.169,99.328,318.085,51.969,130.637,-406.780,-336.600,-156.060
816,82793.813000,213.743,48.188,122.880,316.345,62.976,132.858,-288.780,-18.600,-188.060
817,82793.854000,205.881,61.239,133.120,317.249,60.182,129.816,-183.780,-141.600,-152.060
818,82793.889000,205.881,59.231,122.880,318.205,61.072,127.847,-223.780,-129.600,-161.060
819,82793.930000,217.674,59.231,111.616,316.353,63.834,129.892,-263.780,7.400,-180.060
820,82793.949000,235.363,58.227,113.664,317.340,66.634,131.942,44.220,124.400,-67.060
821,82793.994000,243.225,79.310,113.664,317.245,59.363,134.771,-17.780,198.400,-3.060
822,82794.32000,300.223,56.220,104.448,312.581,63.940,137.846,72.220,287.400,169.940
823,82794.74000,343.463,65.255,125.952,311.539,55.878,147.619,-215.780,745.400,31.940
824,82794.111000,229.466,74.290,148.480,307.773,56.822,151.612,391.220,143.400,235.940
825,82794.151000,144.952,30.118,68.608,305.908,58.668,153.638,408.220,41.400,218.940
826,82794.189000,188.192,35.137,90.112,307.856,62.416,156.705,323.220,166.400,94.940
827,82794.211000,189.175,43.169,91.136,304.936,56.804,152.602,122.220,-106.600,76.940
828,82794.254000,201.950,64.251,121.856,306.819,55.952,154.576,-196.780,13.400,-75.060
829,82794.291000,204.898,57.224,136.192,309.730,61.447,152.708,-57.780,-176.600,-12.060
830,82794.331000,202.933,48.188,122.880,307.771,56.802,150.617,-23.780,-190.600,-28.060
831,82794.373000,196.054,45.176,104.448,312.469,54.935,145.611,-65.780,-309.600,-98.060
832,82794.412000,214.726,57.224,100.352,313.475,59.489,143.720,-504.780,-262.600,-199.060
833,82794.432000,201.950,57.224,109.568,314.430,60.379,141.751,-694.780,-214.600,-269.060
834,82794.476000,210.795,48.188,92.160,315.337,57.623,140.699,-615.780,-177.600,-276.060
835,82794.516000,217.674,42.165,98.304,316.291,58.493,137.735,-684.780,-60.600,-332.060
836,82794.554000,215.708,39.153,96.256,317.198,55.738,136.683,-616.780,-149.600,-383.060
837,82794.615000,233.397,44.173,90.112,320.117,61.331,139.791,-600.780,-142.600,-384.060
838,82794.639000,227.501,39.153,93.184,320.991,56.646,133.724,-566.780,-134.600,-383.060
839,82794.671000,254.035,43.169,103.424,321.966,58.529,135.755,-454.780,29.400,-430.060
840,82794.691000,231.432,70.275,86.016,314.434,61.197,136.796,-528.780,-92.600,-498.060
841,82794.731000,239.294,62.243,95.232,317.425,72.248,138.030,-549.780,-38.600,-482.060
842,82794.771000,255.017,50.196,94.208,315.584,75.907,139.100,-525.780,22.400,-418.060
843,82794.811000,239.294,58.227,81.920,321.296,78.691,137.178,-439.780,-94.600,-322.060
844,82794.850000,254.035,51.200,75.776,320.282,74.040,134.094,-274.780,-115.600,-341.060
845,82794.890000,208.829,72.282,105.472,316.531,76.699,132.155,-313.780,-202.600,-273.060
846,82794.910000,212.760,68.267,78.848,320.340,78.562,131.206,-288.780,-340.600,-148.060
847,82794.950000,239.294,70.275,72.704,321.290,79.393,126.252,-168.780,-176.600,-130.060
848,82794.991000,221.605,67.263,78.848,319.384,78.432,125.234,-72.780,-128.600,-15.060
849,82795.31000,217.674,65.255,76.800,322.308,84.863,124.381,-52.780,-115.600,35.940
850,82795.71000,226.518,56.220,81.920,322.319,85.760,123.405,-37.780,-96.600,34.940
851,82795.111000,237.328,54.212,79.872,322.261,81.998,118.352,281.220,-92.600,156.940
852,82795.151000,223.570,57.224,80.896,324.182,83.894,120.384,481.220,-52.600,278.940
853,82795.171000,265.827,73.286,86.016,320.331,79.224,118.290,674.220,173.400,398.940
854,82795.212000,230.449,62.243,77.824,324.966,71.997,120.132,439.220,-95.600,535.940
855,82795.252000,217.674,48.188,67.584,327.823,73.788,116.196,271.220,-132.600,481.940
856,82795.292000,217.674,49.192,77.824,324.841,63.615,112.991,480.220,47.400,397.940
857,82795.332000,211.777,44.173,94.208,323.886,62.725,114.960,589.220,160.400,315.940
858,82795.372000,221.605,42.165,118.784,320.161,66.457,121.002,751.220,320.400,319.940
859,82795.392000,223.570,66.259,134.144,321.062,62.863,123.911,482.220,226.400,231.940
860,82795.432000,221.605,58.227,133.120,320.969,56.392,120.789,452.220,52.400,253.940
861,82795.472000,221.605,63.247,131.072,318.271,66.471,122.989,437.220,78.400,233.940
862,82795.512000,216.691,63.247,121.856,319.154,61.883,121.898,263.220,93.400,142.940
863,82795.552000,253.052,70.275,114.688,319.248,68.374,126.014,290.220,366.400,-99.060
864,82795.592000,327.739,61.239,113.664,312.620,66.708,138.899,176.220,752.400,-314.060
865,82795.632000,327.739,59.231,186.368,306.159,77.770,147.082,126.220,996.400,-408.060
866,82795.652000,154.779,59.231,107.520,301.561,86.967,152.245,203.220,38.400,-371.060
867,82795.692000,163.624,57.224,81.920,299.759,93.394,154.368,110.220,158.400,-317.060
868,82795.732000,173.451,54.212,80.896,298.766,89.756,156.278,-308.780,-85.600,-245.060
869,82795.772000,179.347,59.231,74.752,302.595,93.392,152.383,-768.780,-412.600,-351.060
870,82795.811000,189.175,63.247,113.664,302.613,95.146,148.442,-734.780,-411.600,-369.060
871,82795.851000,199.002,66.259,115.712,305.349,87.816,146.300,-410.780,-470.600,-188.060
872,82795.871000,189.175,66.259,106.496,308.285,95.923,137.526,-231.780,-444.600,-209.060
873,82795.911000,191.140,74.290,112.640,307.372,98.600,134.597,-28.780,-351.600,-178.060
874,82795.956000,189.175,59.231,92.160,312.086,98.467,124.655,217.220,-293.600,5.940
875,82795.991000,196.054,62.243,95.232,314.910,97.550,122.650,228.220,-180.600,5.940
876,82796.31000,211.777,79.310,107.520,315.870,98.498,123.667,210.220,-98.600,0.940
877,82796.72000,212.760,73.286,93.184,316.743,93.033,124.546,174.220,-51.600,92.940
878,82796.112000,226.518,79.310,80.896,319.647,98.450,118.698,190.220,-0.600,101.940
879,82796.136000,229.466,70.275,86.016,317.703,94.741,117.622,321.220,22.400,137.940
880,82796.178000,222.587,77.302,80.896,321.513,96.624,117.667,346.220,116.400,257.940
881,82796.216000,239.294,74.290,81.920,318.615,92.044,119.555,378.220,317.400,417.940
882,82796.254000,258.948,65.255,101.376,318.539,85.768,126.384,393.220,276.400,410.940
883,82796.291000,248.138,51.200,65.536,317.508,79.382,128.235,579.220,259.400,445.940
884,82796.331000,233.397,62.243,78.848,318.393,74.054,136.080,566.220,448.400,396.940
885,82796.351000,244.207,69.271,89.088,310.825,73.213,145.003,758.220,476.400,421.940
886,82796.391000,270.741,53.208,68.608,313.651,72.334,144.989,623.220,484.400,365.940
887,82796.435000,209.812,67.263,99.328,310.760,67.833,150.856,580.220,499.400,282.940
888,82796.475000,210.795,64.251,86.016,304.248,75.212,157.966,565.220,389.400,304.940
889,82796.515000,225.536,42.165,103.424,303.206,67.929,160.794,442.220,357.400,384.940
890,82796.555000,221.605,32.125,107.520,306.088,70.773,163.842,192.220,85.400,255.940
891,82796.594000,219.639,33.129,80.896,307.006,68.914,161.815,163.220,-107.600,209.940
892,82796.614000,213.743,34.133,77.824,306.025,66.192,163.745,153.220,-146.600,204.940
893,82796.654000,208.829,38.149,92.160,308.747,58.706,153.643,71.220,-153.600,168.940
894,82796.694000,227.501,37.145,96.256,308.838,65.158,155.770,144.220,-154.600,159.940
895,82796.732000,280.568,46.180,112.640,311.566,57.729,148.653,-253.780,-212.600,-26.060
896,82796.774000,243.225,66.259,96.256,311.543,56.696,142.663,-562.780,-550.600,-86.060
897,82796.812000,244.207,40.157,86.016,319.164,61.240,135.809,-492.780,-571.600,-192.060
898,82796.831000,200.967,69.271,106.496,319.151,61.084,127.848,-353.780,-480.600,-204.060
899,82796.871000,206.864,62.243,104.448,321.085,64.676,122.955,-314.780,-302.600,-131.060
900,82796.912000,217.674,60.235,110.592,321.991,61.901,120.908,-342.780,-199.600,-118.060
901,82796.951000,217.674,60.235,105.472,321.064,63.662,117.960,-395.780,-194.600,-155.060
902,82796.992000,224.553,50.196,99.328,321.116,67.346,119.033,-340.780,-138.600,-192.060
903,82797.35000,227.501,58.227,98.304,322.990,66.377,115.036,-209.780,-102.600,-193.060
904,82797.72000,250.104,68.267,97.280,320.190,69.108,116.085,-192.780,17.400,-169.060
905,82797.96000,266.810,64.251,118.784,322.102,70.127,120.088,-83.780,180.400,23.940
906,82797.132000,350.342,64.251,88.064,318.287,67.426,124.998,139.220,356.400,248.940
907,82797.179000,307.102,68.267,134.144,313.453,59.235,130.785,125.220,466.400,318.940
908,82797.216000,153.797,63.247,105.472,319.153,61.104,128.843,551.220,-160.600,486.940
909,82797.255000,217.674,22.086,79.872,316.242,55.608,130.711,440.220,299.400,215.940
910,82797.292000,213.743,42.165,82.944,318.176,58.421,132.763,308.220,68.400,158.940
911,82797.314000,211.777,48.188,87.040,314.290,51.042,132.601,9.220,96.400,-0.060
912,82797.354000,210.795,50.196,108.544,314.370,56.597,135.703,22.220,171.400,-46.060
913,82797.397000,205.881,56.220,108.544,313.504,62.140,138.804,148.220,156.400,-42.060
914,82797.434000,205.881,45.176,99.328,315.361,59.436,139.743,-30.780,74.400,-107.060
915,82797.472000,217.674,44.173,91.136,311.573,58.587,145.688,-171.780,81.400,-232.060
916,82797.515000,205.881,61.239,101.376,308.802,63.968,141.819,-315.780,-18.600,-262.060
917,82797.555000,202.933,46.180,99.328,309.690,59.439,143.714,-288.780,-30.600,-192.060
918,82797.574000,205.881,61.239,100.352,316.387,65.004,142.847,-354.780,-9.600,-230.060
919,82797.617000,204.898,59.231,104.448,309.797,67.626,140.904,-417.780,-127.600,-252.060
920,82797.657000,202.933,55.216,104.448,311.693,67.690,142.898,-524.780,-185.600,-298.060
921,82797.699000,207.846,61.239,97.280,315.398,62.184,139.802,-582.780,-164.600,-328.060
922,82797.735000,216.691,52.204,97.280,315.509,70.410,138.983,-584.780,-115.600,-439.060
923,82797.772000,221.605,55.216,105.472,314.477,64.004,139.839,-557.780,-90.600,-390.060
924,82797.796000,226.518,64.251,109.568,313.597,68.611,141.925,-587.780,24.400,-461.060
925,82797.834000,231.432,63.247,101.376,316.576,78.765,144.135,-558.780,-14.600,-434.060
926,82797.876000,249.121,52.204,81.920,313.703,76.019,146.062,-621.780,1.400,-407.060
927,82797.914000,255.017,57.224,87.040,310.930,80.601,148.144,-498.780,19.400,-441.060
928,82797.954000,252.069,70.275,89.088,310.964,83.310,146.213,-424.780,-47.600,-391.060
929,82797.996000,222.587,68.267,83.968,311.000,86.039,145.276,-465.780,-131.600,-339.060
930,82798.34000,245.190,71.278,74.752,310.057,86.066,147.265,-438.780,-176.600,-325.060
931,82798.52000,222.587,56.220,79.872,315.675,82.359,141.226,-146.780,-296.600,-172.060
932,82798.95000,223.570,73.286,79.872,310.953,83.173,139.247,-25.780,-301.600,-102.060
933,82798.136000,215.708,67.263,84.992,316.692,88.589,131.414,-50.780,-358.600,12.940
934,82798.174000,225.536,71.278,72.704,319.534,89.426,125.468,-128.780,-378.600,14.940
935,82798.216000,239.294,72.282,80.896,321.360,84.831,123.384,-144.780,-273.600,47.940
936,82798.256000,272.706,67.263,79.872,319.475,85.664,120.415,230.220,-200.600,156.940
937,82798.275000,247.155,72.282,73.728,323.249,85.577,113.456,237.220,-197.600,298.940
938,82798.319000,204.898,64.251,88.064,320.352,81.777,108.398,430.220,-163.600,470.940
939,82798.361000,218.656,64.251,81.920,324.051,75.434,109.263,455.220,-104.600,513.940
940,82798.399000,215.708,42.165,78.848,326.862,73.600,107.239,563.220,-52.600,403.940
941,82798.435000,224.553,66.259,104.448,324.866,66.207,105.089,619.220,76.400,269.940
942,82798.476000,210.795,63.247,101.376,326.792,68.941,103.161,460.220,-80.600,233.940
943,82798.516000,211.777,62.243,102.400,324.821,63.381,101.050,285.220,54.400,195.940
944,82798.536000,226.518,57.224,97.280,324.894,68.078,107.118,286.220,137.400,220.940
945,82798.574000,249.121,68.267,112.640,326.785,68.084,106.127,134.220,305.400,117.940
946,82798.616000,256.000,73.286,123.904,322.997,67.235,112.071,-66.780,375.400,-122.060
947,82798.654000,288.430,67.263,123.904,318.343,71.929,121.116,-63.780,440.400,-292.060
948,82798.696000,356.238,74.290,153.600,313.669,74.849,133.106,-162.780,693.400,-421.060
949,82798.734000,178.365,43.169,106.496,313.797,84.049,135.292,-206.780,85.400,-317.060
950,82798.776000,169.520,71.278,79.872,309.039,82.135,134.249,-84.780,191.400,-340.060
951,82798.795000,171.486,58.227,91.136,307.157,82.227,140.216,-521.780,70.400,-254.060
952,82798.839000,181.313,44.173,80.896,307.197,85.014,142.265,-455.780,20.400,-221.060
953,82798.875000,185.244,50.196,105.472,304.363,85.035,145.245,-178.780,72.400,-220.060
954,82798.915000,194.088,67.263,113.664,306.351,92.331,142.419,-77.780,-68.600,-109.060
955,82798.959000,199.985,62.243,101.376,309.215,94.201,142.463,-142.780,-139.600,-90.060
956,82798.995000,211.777,64.251,108.544,304.405,88.602,140.348,-138.780,-200.600,-153.060
957,82799.14000,215.708,63.247,106.496,310.151,94.096,136.495,68.220,-195.600,-81.060
958,82799.54000,209.812,67.263,105.472,310.977,85.766,131.346,226.220,-135.600,-5.060
959,82799.95000,206.864,68.267,106.496,311.094,94.069,134.506,255.220,-87.600,59.940
960,82799.135000,209.812,74.290,96.256,310.177,96.708,129.588,222.220,-81.600,80.940
961,82799.174000,213.743,69.271,102.400,311.975,89.462,132.420,128.220,-21.600,84.940
962,82799.214000,224.553,73.286,95.232,312.057,95.817,129.572,140.220,25.400,100.940
963,82799.259000,220.622,75.294,90.112,316.737,92.195,128.507,278.220,11.400,160.940
964,82799.277000,223.570,73.286,91.136,316.710,90.343,127.473,297.220,100.400,199.940
965,82799.317000,230.449,65.255,88.064,315.705,85.789,129.364,328.220,89.400,230.940
966,82799.355000,233.397,61.239,79.872,315.730,87.621,129.403,322.220,151.400,215.940
967,82799.395000,225.536,75.294,95.232,319.447,82.253,133.273,520.220,282.400,307.940
968,82799.435000,275.655,74.290,102.400,313.818,85.063,140.287,425.220,475.400,263.940
969,82799.479000,237.328,83.325,105.472,316.501,73.269,144.018,367.220,401.400,298.940
970,82799.495000,212.760,57.224,97.280,308.998,77.808,147.087,367.220,328.400,378.940
971,82799.534000,221.605,37.145,89.088,311.771,72.446,151.951,385.220,239.400,413.940
972,82799.576000,225.536,27.106,89.088,310.873,76.079,151.032,188.220,109.400,390.940
973,82799.621000,230.449,24.094,96.256,312.508,56.923,153.611,132.220,22.400,339.940
974,82799.661000,227.501,30.118,88.064,313.502,60.581,152.695,233.220,-77.600,293.940
975,82799.697000,218.656,30.118,77.824,314.429,59.599,148.697,368.220,-160.600,222.940
976,82799.746000,209.812,31.122,73.728,315.372,59.573,146.709,287.220,-199.600,157.940
977,82799.761000,222.587,35.137,74.752,318.280,65.029,142.851,129.220,-218.600,60.940
978,82799.797000,243.225,38.149,88.064,317.288,62.170,137.815,-79.780,-188.600,-27.060
979,82799.837000,286.464,61.239,104.448,314.536,68.546,137.947,-177.780,-158.600,-174.060
980,82799.881000,244.207,60.235,106.496,320.196,68.406,127.011,-365.780,-469.600,-196.060
981,82799.917000,212.760,50.196,77.824,320.150,65.560,121.977,-309.780,-611.600,-182.060
982,82799.961000,208.829,70.275,94.208,320.142,65.463,117.002,-192.780,-429.600,-182.060
983,82799.976000,207.846,63.247,105.472,319.290,72.721,114.171,-236.780,-164.600,-160.060
984,82800.15000,224.553,77.302,104.448,323.086,73.667,113.202,-169.780,-63.600,-202.060
985,82800.56000,220.622,75.294,107.520,322.202,78.235,113.298,-196.780,-92.600,-125.060
986,82800.101000,224.553,71.278,108.544,320.294,77.255,111.285,-220.780,-73.600,-46.060
987,82800.135000,213.743,62.243,101.376,325.920,73.646,110.222,-146.780,-34.600,11.940
988,82800.177000,224.553,64.251,105.472,319.337,76.346,112.259,-59.780,117.400,46.940
989,82800.215000,256.000,78.306,103.424,322.165,75.487,113.240,24.220,95.400,107.940
990,82800.236000,294.326,72.282,89.088,322.072,68.236,117.064,-85.780,254.400,231.940
991,82800.280000,335.601,74.290,111.616,316.337,62.879,127.882,-239.780,546.400,125.940
992,82800.316000,214.726,76.298,137.216,317.263,61.118,130.830,140.220,88.400,193.940
993,82800.356000,172.468,34.133,71.680,320.042,57.374,124.787,200.220,198.400,156.940
994,82800.399000,215.708,33.129,96.256,318.216,61.208,134.812,182.220,258.400,164.940
995,82800.437000,206.864,34.133,73.728,317.220,57.531,134.732,207.220,39.400,171.940
996,82800.456000,227.501,41.161,97.280,317.272,61.215,135.806,91.220,108.400,36.940
997,82800.501000,221.605,49.192,103.424,319.128,58.511,136.745,169.220,-23.600,43.940
998,82800.535000,220.622,49.192,98.304,316.295,59.312,132.780,-4.780,-130.600,-38.060
999,82800.577000,214.726,53.208,89.088,318.174,58.401,131.768,-179.780,-113.600,-97.060
1000,82800.615000,209.812,55.216,97.280,318.117,54.659,127.710,-336.780,-83.600,-170.060
1001,82800.656000,199.985,57.224,95.232,318.176,58.421,132.763,-429.780,-92.600,-218.060
1002,82800.699000,198.019,43.169,90.112,317.290,62.969,131.864,-336.780,-41.600,-200.060
1003,82800.719000,209.812,42.165,103.424,317.333,65.776,134.908,-489.780,143.400,-281.060
1004,82800.755000,207.846,40.157,100.352,319.125,58.472,134.755,-578.780,101.400,-362.060
1005,82800.797000,226.518,44.173,106.496,316.398,65.901,141.872,-595.780,113.400,-365.060
1006,82800.835000,229.466,40.157,115.712,313.579,67.637,138.921,-528.780,91.400,-387.060
1007,82800.879000,216.691,38.149,121.856,314.544,68.643,142.922,-490.780,60.400,-416.060
1008,82800.916000,217.674,46.180,115.712,309.868,72.304,145.977,-278.780,53.400,-344.060
1009,82800.941000,220.622,52.204,110.592,309.816,68.620,144.904,-299.780,2.400,-344.060
1010,82800.977000,236.345,54.212,102.400,310.880,76.936,148.066,-170.780,116.400,-292.060
1011,82801.21000,284.499,67.263,149.504,312.851,82.497,150.177,-167.780,142.400,-321.060
1012,82801.57000,236.345,74.290,81.920,310.946,81.556,150.154,84.220,-10.600,-193.060
1013,82801.101000,204.898,84.329,83.968,310.932,80.620,149.139,25.220,-18.600,-160.060
1014,82801.137000,210.795,75.294,84.992,307.239,87.042,152.255,-151.780,-2.600,-168.060
1015,82801.156000,214.726,72.282,93.184,307.242,87.081,154.245,-167.780,0.400,-98.060
1016,82801.201000,215.708,69.271,88.064,308.141,84.228,148.217,-199.780,-47.600,-52.060
1017,82801.237000,214.726,73.286,84.992,310.100,88.872,150.308,-148.780,-227.600,-30.060
1018,82801.281000,204.898,71.278,70.656,312.807,79.671,146.138,-137.780,-267.600,-9.060
1019,82801.317000,241.259,74.290,64.512,314.707,80.553,143.176,-166.780,-260.600,-11.060
