Sample, Time, ACCX, ACCY, ACCZ, MAGX, MAGY, MAGZ, GYRX, GYRY, GYRZ
0,48798.152000,231.290,52.809,-84.669,408.587,314.808,-152.385,-162.040,13.510,-122.020
1,48798.191000,232.278,50.798,-82.677,406.708,319.730,-148.357,-168.040,23.510,-117.020
2,48798.235000,232.278,52.809,-83.673,404.769,319.668,-150.324,-152.040,48.510,-110.020
3,48798.282000,233.266,57.839,-83.673,404.827,324.630,-145.310,-136.040,69.510,-108.020
4,48798.296000,229.313,60.857,-80.685,406.715,319.795,-145.413,-146.040,79.510,-107.020
5,48798.336000,232.278,57.839,-78.693,404.873,327.716,-137.396,-141.040,100.510,-97.020
6,48798.375000,237.220,60.857,-75.704,403.943,330.705,-133.409,-153.040,125.510,-92.020
7,48798.415000,229.313,58.845,-71.720,398.171,333.604,-131.396,-126.040,136.510,-100.020
8,48798.455000,239.197,64.880,-66.739,402.060,334.699,-127.440,-73.040,135.510,-112.020
9,48798.495000,240.185,71.921,-61.759,401.158,340.601,-123.389,-75.040,113.510,-110.020
10,48798.532000,237.220,68.904,-49.805,399.213,338.727,-119.512,-58.040,134.510,-95.020
11,48798.575000,245.127,72.927,-53.790,397.348,344.662,-113.500,-60.040,47.510,-94.020
12,48798.612000,224.371,65.886,-52.794,396.382,346.422,-121.308,-112.040,-150.490,-104.020
13,48798.632000,234.255,54.821,-54.786,393.474,345.466,-119.374,-272.040,-360.490,-33.020
14,48798.672000,243.151,64.880,-82.677,391.578,350.215,-123.195,-325.040,-467.490,31.980
15,48798.716000,223.382,31.686,-130.490,386.666,344.171,-131.185,13.960,-542.490,-42.020
16,48798.756000,216.463,51.804,-129.494,383.697,341.748,-151.839,993.960,-459.490,-194.020
17,48798.791000,198.672,72.927,-120.529,373.001,341.126,-175.411,879.960,-456.490,-119.020
18,48798.831000,191.753,91.033,-87.658,369.035,334.875,-193.210,767.960,-314.490,113.980
19,48798.871000,204.602,98.075,-34.864,371.807,321.333,-192.525,-34.040,-94.490,317.980
20,48798.912000,222.394,87.010,-140.451,378.645,326.426,-184.552,-222.040,138.510,413.980
21,48798.935000,217.452,123.222,-83.673,383.377,314.024,-176.972,-438.040,133.510,300.980
22,48798.975000,239.197,54.821,-100.607,384.360,314.185,-170.102,-47.040,243.510,245.980
23,48799.15000,236.232,35.709,-101.603,391.184,318.263,-164.113,-399.040,181.510,280.980
24,48799.52000,231.290,50.798,-80.685,396.994,316.615,-153.350,-371.040,202.510,238.980
25,48799.93000,245.127,45.768,-78.693,399.799,305.144,-146.734,1.960,286.510,182.980
26,48799.131000,242.162,39.733,-62.755,403.713,309.130,-143.695,-11.040,216.510,178.980
27,48799.176000,248.093,42.750,-47.813,405.608,304.359,-140.855,224.960,70.510,109.980
28,48799.212000,251.058,52.809,-59.767,408.421,296.491,-146.908,165.960,-81.490,87.980
29,48799.251000,228.324,39.733,-90.646,409.415,300.276,-151.725,112.960,-129.490,84.980
30,48799.271000,230.301,56.833,-92.638,408.337,289.523,-154.908,87.960,-127.490,82.980
31,48799.311000,225.359,49.792,-102.599,408.361,293.277,-160.708,134.960,-52.490,94.980
32,48799.355000,225.359,40.739,-109.572,413.208,294.295,-160.676,142.960,48.510,118.980
33,48799.397000,216.463,32.692,-96.623,416.141,297.257,-159.623,-3.040,58.510,143.980
34,48799.433000,238.208,41.745,-88.654,418.019,291.451,-159.748,57.960,78.510,150.980
35,48799.473000,243.151,36.715,-85.665,417.948,282.843,-154.055,34.960,77.510,142.980
36,48799.517000,238.208,37.721,-82.677,420.822,279.958,-154.113,-44.040,49.510,135.980
37,48799.556000,241.174,32.692,-78.693,421.803,280.982,-152.127,13.960,58.510,118.980
38,48799.573000,239.197,29.674,-81.681,423.689,276.125,-153.212,31.960,24.510,91.980
39,48799.618000,234.255,31.686,-83.673,425.641,278.948,-158.048,21.960,18.510,87.980
40,48799.660000,241.174,26.656,-85.665,423.661,274.097,-157.179,59.960,35.510,76.980
41,48799.703000,243.151,34.703,-89.650,429.414,268.371,-155.333,-19.040,42.510,91.980
42,48799.737000,242.162,18.609,-73.712,427.483,268.396,-153.375,44.960,34.510,69.980
43,48799.778000,248.093,21.627,-74.708,430.433,273.278,-153.261,-0.040,1.510,65.980
44,48799.813000,233.266,31.686,-79.689,428.458,269.354,-154.332,-4.040,-14.490,57.980
45,48799.853000,239.197,22.633,-86.661,432.259,261.690,-151.553,-24.040,-13.490,55.980
46,48799.896000,234.255,23.639,-79.689,428.418,265.449,-155.400,-48.040,-22.490,44.980
47,48799.913000,241.174,22.633,-81.681,431.292,262.565,-155.458,47.960,-9.490,35.980
48,48799.953000,241.174,28.668,-80.685,427.403,260.585,-155.510,-19.040,-28.490,32.980
49,48799.996000,236.232,25.650,-76.700,430.343,263.613,-151.514,-23.040,-30.490,25.980
50,48800.36000,242.162,23.639,-84.669,432.285,265.465,-156.372,46.960,-36.490,8.980
51,48800.76000,238.208,24.644,-84.669,431.302,264.420,-159.339,-13.040,-37.490,6.980
52,48800.135000,236.232,22.633,-81.681,430.301,260.571,-157.465,19.960,-18.490,-0.020
53,48800.156000,239.197,22.633,-84.669,430.303,260.592,-156.484,26.960,-16.490,-9.020
54,48800.197000,236.232,22.633,-81.681,429.392,266.408,-156.357,9.960,-23.490,-22.020
55,48800.237000,240.185,22.633,-86.661,429.374,265.351,-160.303,44.960,-15.490,-32.020
56,48800.258000,242.162,22.633,-85.665,431.307,265.348,-161.280,18.960,-19.490,-39.020
57,48800.298000,234.255,28.668,-83.673,430.259,256.644,-159.514,56.960,5.510,-32.020
58,48800.332000,236.232,28.668,-83.673,422.559,260.474,-158.465,107.960,12.510,-21.020
59,48800.372000,241.174,23.639,-82.677,428.428,268.189,-163.184,-9.040,-15.490,12.980
60,48800.416000,238.208,26.656,-82.677,429.417,270.162,-162.158,69.960,2.510,11.980
61,48800.457000,238.208,25.650,-83.673,430.365,267.345,-158.296,1.960,-9.490,21.980
62,48800.497000,241.174,24.644,-88.654,430.306,262.383,-163.309,51.960,-8.490,39.980
63,48800.537000,240.185,26.656,-82.677,429.318,260.410,-164.336,10.960,-10.490,44.980
64,48800.554000,239.197,25.650,-83.673,431.297,264.377,-161.302,35.960,-2.490,49.980
65,48800.595000,243.151,20.621,-81.681,430.320,263.397,-161.325,-6.040,-14.490,53.980
66,48800.632000,238.208,23.639,-84.669,433.138,255.572,-165.416,15.960,-7.490,47.980
67,48800.672000,239.197,13.580,-86.661,433.197,261.419,-164.305,31.960,-0.490,42.980
68,48800.712000,235.243,24.644,-83.673,435.059,253.692,-163.492,-45.040,-26.490,45.980
69,48800.755000,237.220,19.615,-82.677,432.222,260.460,-163.348,40.960,-28.490,22.980
70,48800.797000,241.174,22.633,-89.650,435.076,256.497,-168.333,54.960,-16.490,25.980
71,48800.837000,234.255,21.627,-84.669,434.136,258.516,-164.368,0.960,-14.490,31.980
72,48800.875000,238.208,23.639,-89.650,436.992,254.574,-168.372,37.960,9.510,42.980
73,48800.895000,237.220,22.633,-86.661,432.187,257.483,-166.356,-22.040,0.510,56.980
74,48800.933000,241.174,20.621,-84.669,432.086,247.709,-169.515,0.960,-3.490,55.980
75,48800.975000,235.243,16.597,-89.650,435.048,253.584,-168.398,-82.040,-22.490,49.980
76,48801.17000,236.232,18.609,-82.677,437.010,255.631,-164.426,-51.040,-14.490,32.980
77,48801.55000,237.220,19.615,-88.654,436.989,253.668,-165.450,-65.040,-10.490,46.980
78,48801.95000,240.185,13.580,-84.669,435.000,247.846,-164.603,-43.040,-0.490,40.980
79,48801.135000,236.232,15.591,-83.673,436.949,249.763,-166.517,-41.040,0.510,33.980
80,48801.175000,241.174,17.603,-86.661,439.790,243.038,-164.699,-10.040,14.510,22.980
81,48801.197000,232.278,16.597,-83.673,436.033,254.651,-164.449,-16.040,11.510,13.980
82,48801.238000,241.174,15.591,-83.673,436.991,253.690,-164.469,-47.040,32.510,10.980
83,48801.285000,239.197,9.556,-79.689,436.937,247.886,-163.617,46.960,21.510,-13.020
84,48801.320000,236.232,19.615,-87.658,434.023,245.981,-160.723,98.960,25.510,-27.020
85,48801.353000,234.255,21.627,-84.669,436.005,251.738,-164.514,23.960,26.510,-10.020
86,48801.397000,241.174,14.585,-83.673,438.900,250.817,-163.548,70.960,36.510,-19.020
87,48801.437000,238.208,18.609,-82.677,437.012,254.768,-159.541,57.960,29.510,-16.020
88,48801.475000,240.185,22.633,-82.677,432.100,247.839,-163.628,-46.040,15.510,19.980
89,48801.516000,240.185,11.568,-82.677,434.983,245.925,-163.665,27.960,23.510,5.980
90,48801.536000,244.139,19.615,-83.673,433.985,242.097,-160.810,-11.040,18.510,2.980
91,48801.575000,239.197,13.580,-77.696,438.926,252.824,-160.561,-33.040,15.510,5.980
92,48801.615000,239.197,20.621,-81.681,439.902,252.920,-156.634,-32.040,14.510,13.980
93,48801.655000,243.151,18.609,-79.689,437.968,253.785,-160.542,-39.040,10.510,20.980
94,48801.695000,241.174,14.585,-79.689,440.851,251.872,-160.578,-17.040,14.510,17.980
95,48801.735000,243.151,15.591,-82.677,437.895,246.040,-159.733,-12.040,14.510,11.980
96,48801.775000,239.197,21.627,-78.693,437.967,252.901,-156.639,-72.040,6.510,19.980
97,48801.818000,242.162,17.603,-82.677,439.895,251.970,-155.675,14.960,25.510,10.980
98,48801.838000,244.139,14.585,-78.693,444.737,252.061,-153.701,-59.040,-3.490,16.980
99,48801.878000,238.208,15.591,-77.696,437.951,250.981,-155.701,-22.040,-9.490,6.980
100,48801.918000,239.197,15.591,-80.685,438.874,247.042,-158.728,6.960,-12.490,0.980
101,48801.957000,241.174,17.603,-79.689,435.992,248.092,-153.808,-36.040,-15.490,-2.020
102,48801.998000,240.185,18.609,-82.677,440.872,252.951,-155.651,27.960,-7.490,-12.020
103,48802.38000,238.208,16.597,-78.693,437.035,256.753,-157.536,-9.040,-9.490,-8.020
104,48802.76000,242.162,16.597,-79.689,442.746,247.101,-157.738,5.960,-10.490,-10.020
105,48802.116000,242.162,17.603,-77.696,435.042,250.888,-158.651,55.960,-13.490,-17.020
106,48802.156000,237.220,16.597,-79.689,439.888,251.906,-158.618,27.960,-15.490,-20.020
107,48802.176000,239.197,19.615,-79.689,434.051,248.893,-160.659,31.960,-14.490,-18.020
108,48802.216000,240.185,18.609,-81.681,435.063,252.851,-157.627,18.960,-16.490,-22.020
109,48802.256000,240.185,19.615,-83.673,435.988,248.934,-159.673,35.960,-18.490,-20.020
110,48802.295000,238.208,22.633,-80.685,433.050,245.043,-158.785,12.960,-19.490,-22.020
111,48802.337000,240.185,17.603,-84.669,435.080,255.656,-162.468,81.960,-5.490,-28.020
112,48802.380000,239.197,22.633,-82.677,436.037,253.810,-158.584,-7.040,-16.490,-17.020
113,48802.415000,236.232,19.615,-82.677,437.982,255.684,-162.461,31.960,-3.490,-13.020
114,48802.456000,234.255,21.627,-78.693,433.141,255.594,-164.435,14.960,-22.490,-12.020
115,48802.476000,242.162,15.591,-80.685,433.114,252.703,-163.518,80.960,-24.490,-22.020
116,48802.516000,237.220,25.650,-84.669,431.106,244.938,-162.714,16.960,-32.490,-23.020
117,48802.558000,238.208,16.597,-81.681,433.145,256.521,-166.375,75.960,-9.490,-32.020
118,48802.598000,239.197,22.633,-83.673,436.046,256.528,-167.350,-28.040,-26.490,-19.020
119,48802.635000,237.220,19.615,-85.665,432.100,248.723,-167.531,29.960,-17.490,-18.020
120,48802.681000,235.243,23.639,-86.661,433.124,254.558,-167.400,-29.040,-26.490,-6.020
121,48802.716000,238.208,20.621,-82.677,434.101,255.538,-167.376,-12.040,-17.490,-0.020
122,48802.756000,236.232,24.644,-86.661,428.303,255.546,-164.446,-21.040,-22.490,-1.020
123,48802.776000,239.197,20.621,-85.665,434.146,259.486,-164.346,-43.040,-15.490,-0.020
124,48802.816000,237.220,21.627,-83.673,431.227,258.423,-167.318,-6.040,-10.490,-6.020
125,48802.856000,239.197,19.615,-83.673,430.224,254.551,-166.425,-38.040,-19.490,-4.020
126,48802.896000,237.220,23.639,-81.681,432.147,253.578,-167.423,-18.040,-13.490,-3.020
127,48802.936000,240.185,19.615,-82.677,431.189,254.539,-167.404,-21.040,-15.490,-2.020
128,48802.978000,238.208,24.644,-83.673,433.219,264.267,-167.184,-16.040,-16.490,-4.020
129,48803.19000,239.197,18.609,-83.673,434.160,261.385,-166.265,6.960,-7.490,-6.020
130,48803.59000,240.185,21.627,-83.673,432.166,255.519,-167.380,6.960,-5.490,-7.020
131,48803.100000,237.220,18.609,-82.677,431.180,253.568,-167.426,13.960,-13.490,-6.020
132,48803.120000,238.208,23.639,-85.665,431.241,260.321,-169.237,37.960,-5.490,-9.020
133,48803.158000,242.162,18.609,-85.665,426.326,251.601,-166.499,17.960,-12.490,-11.020
134,48803.198000,238.208,15.591,-82.677,431.229,258.444,-166.337,-1.040,-27.490,-28.020
135,48803.236000,242.162,19.615,-81.681,431.246,261.249,-171.178,31.960,-28.490,-38.020
136,48803.278000,236.232,23.639,-87.658,430.267,260.247,-172.183,0.960,-45.490,-35.020
137,48803.316000,241.174,25.650,-87.658,427.400,264.081,-173.084,-27.040,-45.490,-38.020
138,48803.361000,236.232,23.639,-88.654,430.331,266.137,-169.110,3.960,-25.490,-41.020
139,48803.402000,238.208,24.644,-86.661,423.554,266.028,-171.088,-24.040,-17.490,-31.020
140,48803.421000,239.197,23.639,-83.673,423.484,259.189,-173.201,-6.040,-13.490,-28.020
141,48803.456000,239.197,31.686,-87.658,427.367,260.240,-171.208,-39.040,-30.490,-7.020
142,48803.496000,233.266,28.668,-83.673,421.532,257.250,-172.268,-44.040,-38.490,7.980
143,48803.542000,235.243,28.668,-87.658,425.492,266.953,-174.005,21.960,-30.490,36.980
144,48803.577000,233.266,22.633,-81.681,425.466,264.062,-173.089,-148.040,-70.490,76.980
145,48803.617000,231.290,32.692,-88.654,426.346,255.312,-174.262,14.960,-45.490,62.980
146,48803.657000,235.243,31.686,-85.665,424.465,261.097,-175.118,-50.040,-66.490,87.980
147,48803.697000,237.220,22.633,-89.650,426.355,256.283,-174.240,-29.040,-51.490,86.980
148,48803.737000,234.255,29.674,-88.654,426.363,257.232,-175.200,0.960,-33.490,88.980
149,48803.757000,233.266,20.621,-89.650,425.402,258.172,-176.162,-29.040,-101.490,85.980
150,48803.797000,240.185,10.562,-91.642,427.288,254.199,-181.149,68.960,-73.490,70.980
151,48803.837000,233.266,20.621,-90.646,429.178,249.386,-180.271,15.960,-89.490,69.980
152,48803.877000,239.197,10.562,-95.626,431.116,250.311,-183.189,30.960,-116.490,49.980
153,48803.917000,232.278,17.603,-94.630,429.160,249.213,-188.121,-5.040,-113.490,24.980
154,48803.957000,232.278,-3.521,-91.642,430.154,252.113,-189.035,75.960,-93.490,3.980
155,48804.12000,238.208,26.656,-107.580,430.119,249.136,-192.043,137.960,-17.490,-7.020
156,48804.40000,230.301,13.580,-112.560,430.041,241.348,-193.197,150.960,62.510,32.980
157,48804.56000,228.324,25.650,-95.626,427.166,243.347,-189.236,-90.040,44.510,71.980
158,48804.96000,236.232,25.650,-97.619,429.135,248.091,-195.010,-72.040,31.510,63.980
159,48804.141000,232.278,-1.509,-94.630,433.007,247.266,-190.117,-96.040,-4.490,57.980
160,48804.181000,227.336,13.580,-99.611,430.118,248.252,-188.140,-2.040,20.510,15.980
161,48804.221000,237.220,22.633,-101.603,432.079,250.277,-185.149,-75.040,50.510,21.980
162,48804.261000,232.278,15.591,-95.626,432.989,243.577,-181.373,-192.040,50.510,22.980
163,48804.302000,243.151,7.544,-78.693,433.026,246.575,-177.384,-247.040,10.510,16.980
164,48804.352000,242.162,36.715,-92.638,433.111,254.429,-173.286,-195.040,-21.490,-15.020
165,48804.361000,243.151,22.633,-92.638,430.232,257.270,-175.191,-608.040,-133.490,66.980
166,48804.400000,237.220,13.580,-88.654,432.200,259.360,-169.256,-451.040,-96.490,70.980
167,48804.437000,228.324,6.538,-78.693,434.137,259.400,-168.271,-379.040,-179.490,88.980
168,48804.481000,218.440,-5.532,-85.665,434.043,250.576,-172.389,-144.040,-229.490,107.980
169,48804.533000,197.683,-32.692,-76.700,430.195,254.271,-179.180,362.960,-328.490,92.980
170,48804.561000,202.625,19.615,-155.393,428.165,247.176,-192.090,649.960,-152.490,35.980
171,48804.601000,239.197,-38.727,-141.447,429.058,241.187,-200.067,448.960,153.510,-35.020
172,48804.641000,297.514,164.464,-68.732,429.109,245.200,-194.094,280.960,196.510,-144.020
173,48804.678000,243.151,-7.544,-81.681,429.038,237.476,-192.304,78.960,-83.490,-58.020
174,48804.701000,241.174,-29.674,-91.642,422.373,249.881,-198.907,135.960,-164.490,-186.020
175,48804.741000,217.452,56.833,-113.556,418.428,242.961,-202.992,334.960,-118.490,-198.020
176,48804.781000,211.521,12.574,-111.564,417.475,245.734,-208.816,306.960,-77.490,-127.020
177,48804.822000,219.429,19.615,-117.541,419.436,248.644,-209.728,146.960,-109.490,-87.020
178,48804.862000,233.266,-3.521,-113.556,419.423,248.515,-215.615,67.960,-25.490,-22.020
179,48804.898000,227.336,14.585,-118.537,415.527,245.586,-214.708,209.960,87.510,-71.020
180,48804.938000,227.336,26.656,-92.638,417.452,244.634,-214.725,406.960,147.510,-54.020
181,48804.978000,235.243,21.627,-88.654,420.332,243.562,-220.626,341.960,37.510,-47.020
182,48804.998000,213.498,2.515,-86.661,416.420,240.482,-226.587,218.960,-195.490,-44.020
183,48805.38000,230.301,7.544,-122.521,410.529,233.436,-235.582,251.960,-222.490,-75.020
184,48805.81000,229.313,44.762,-132.482,412.500,238.201,-240.375,345.960,-96.490,-137.020
185,48805.121000,219.429,20.621,-156.389,411.485,232.453,-236.582,163.960,205.510,-55.020
186,48805.161000,217.452,-5.532,-123.518,415.446,240.408,-229.533,120.960,401.510,-38.020
187,48805.201000,234.255,0.503,-71.720,421.267,240.616,-222.651,264.960,450.510,-32.020
188,48805.252000,241.174,37.721,-92.638,423.170,235.931,-215.886,-255.040,166.510,11.980
189,48805.282000,235.243,-3.521,-102.599,423.240,241.886,-209.870,-469.040,108.510,38.980
190,48805.322000,244.139,33.697,-91.642,425.233,246.867,-204.852,-490.040,96.510,0.980
191,48805.342000,243.151,49.792,-96.623,423.345,249.933,-196.943,-437.040,68.510,-14.020
192,48805.382000,221.405,60.857,-89.650,427.301,256.961,-187.952,-778.040,51.510,114.980
193,48805.422000,243.151,-1.509,-76.700,424.447,260.040,-179.064,-1073.040,-94.490,148.980
194,48805.463000,253.035,14.585,-96.623,424.478,260.341,-165.328,-1013.040,-164.490,93.980
195,48805.501000,240.185,62.868,-96.623,428.517,276.086,-157.125,-1224.040,-229.490,79.980
196,48805.542000,252.046,24.644,-52.794,425.694,282.983,-151.094,-861.040,-268.490,-97.020
197,48805.582000,254.023,5.532,-46.817,419.902,284.803,-154.008,-538.040,-398.490,-210.020
198,48805.622000,267.861,52.809,-55.782,416.141,297.257,-159.623,-437.040,-710.490,-327.020
199,48805.642000,272.803,71.921,-25.899,402.671,306.640,-168.269,-834.040,-1104.490,-241.020
200,48805.682000,338.039,83.992,-9.961,392.052,312.922,-186.785,-707.040,-1521.490,-312.020
201,48805.723000,389.436,29.674,-30.879,373.792,331.513,-215.830,37.960,-1342.490,-758.020
202,48805.757000,332.108,5.532,-104.591,349.545,334.212,-258.971,1986.960,-817.490,-1399.020
203,48805.801000,188.788,12.574,-258.988,330.014,324.358,-301.399,1916.960,-545.490,-1301.020
204,48805.837000,170.008,64.880,-120.529,319.386,328.785,-316.033,1159.960,-66.490,-935.020
205,48805.877000,124.541,27.662,-102.599,317.411,324.862,-317.105,-86.040,305.510,-634.020
206,48805.923000,126.517,42.750,-90.646,324.426,346.632,-300.916,-372.040,770.510,-377.020
207,48805.943000,112.680,66.892,-101.603,344.931,360.961,-276.039,-149.040,1468.510,-418.020
208,48805.983000,148.263,40.739,-124.514,364.452,369.844,-233.632,-767.040,1684.510,-490.020
209,48806.18000,244.139,-116.181,-184.280,383.948,377.605,-198.115,812.960,2379.510,-547.020
210,48806.59000,216.463,23.639,-265.961,399.446,376.181,-181.442,2076.960,2255.510,-784.020
211,48806.103000,236.232,-25.650,-210.179,402.357,374.526,-169.705,407.960,1250.510,38.980
212,48806.145000,256.988,14.585,-157.385,423.600,366.427,-150.227,538.960,1062.510,727.980
213,48806.185000,182.857,34.703,-141.447,445.668,342.869,-128.148,-432.040,579.510,1492.980
214,48806.220000,204.602,62.868,-47.813,474.299,297.132,-102.625,-1015.040,398.510,2079.980
215,48806.258000,123.552,173.517,-95.626,502.060,257.600,-59.314,-1991.040,759.510,2013.980
216,48806.282000,351.876,224.817,-1.992,523.021,220.375,-40.483,-3584.040,-1165.490,1832.980
217,48806.322000,308.386,155.411,11.953,528.607,198.080,-41.947,-654.040,3.510,667.980
218,48806.362000,331.120,121.210,-3.984,534.427,198.288,-35.065,-367.040,99.510,99.980
219,48806.411000,265.884,108.134,-67.735,526.763,205.979,-34.911,446.960,237.510,-401.020
220,48806.440000,248.093,157.422,-58.770,523.918,214.430,-46.497,476.960,-283.490,-765.020
221,48806.485000,258.965,220.794,9.961,510.611,241.223,-57.698,73.960,-327.490,-999.020
222,48806.518000,254.023,152.393,-50.802,503.233,278.947,-59.818,-757.040,-221.490,-1293.020
223,48806.562000,238.208,144.346,-69.728,482.255,309.850,-57.215,-1043.040,-122.490,-1548.020
224,48806.602000,232.278,104.110,-80.685,458.361,338.827,-52.700,-507.040,-18.490,-1562.020
225,48806.620000,211.521,76.951,-84.669,448.054,373.631,-53.910,-505.040,-126.490,-1461.020
226,48806.662000,211.521,1.509,-62.755,420.340,408.330,-52.218,35.960,228.510,-1591.020
227,48806.698000,219.429,44.762,-44.825,396.468,441.924,-58.387,857.960,859.510,-1552.020
228,48806.742000,135.413,89.022,-181.292,370.594,465.164,-49.100,-1428.040,371.510,-1163.020
229,48806.783000,398.332,23.639,-24.903,364.844,467.395,-33.372,490.960,1453.510,-341.020
230,48806.821000,282.687,-60.857,-23.907,369.686,458.682,9.594,-2027.040,-147.490,544.980
231,48806.862000,263.907,-90.028,-24.903,376.420,454.865,9.523,-306.040,-384.490,418.980
232,48806.898000,290.595,-65.886,-84.669,383.138,453.528,-10.105,205.960,-947.490,387.980
233,48806.921000,339.027,28.668,-9.961,396.452,437.372,-44.759,418.960,-1362.490,906.980
234,48806.962000,279.722,55.827,-26.895,423.173,403.289,-62.131,-51.040,-1050.490,1597.980
235,48807.5000,328.154,-33.697,-114.553,447.889,361.485,-76.736,-32.040,-1003.490,1976.980
236,48807.42000,243.151,68.904,-125.510,473.596,324.307,-102.023,1428.960,-602.490,1846.980
237,48807.81000,212.510,240.912,-58.770,487.668,281.493,-113.731,-578.040,-776.490,1391.980
238,48807.122000,187.799,109.139,-109.572,486.579,271.516,-125.723,1436.960,-317.490,168.980
239,48807.159000,118.610,312.330,-132.482,473.936,272.516,-162.992,3037.960,-47.490,-894.020
240,48807.199000,126.517,260.024,-138.459,462.258,270.871,-188.551,1213.960,-260.490,-654.020
241,48807.241000,145.297,191.623,-155.393,453.605,279.222,-202.113,-134.040,-399.490,-275.020
242,48807.261000,192.741,86.004,-112.560,443.063,290.639,-207.766,-320.040,-259.490,-166.020
243,48807.300000,176.927,79.969,-179.300,435.394,297.403,-205.670,-653.040,-77.490,-334.020
244,48807.343000,207.568,64.880,-1.992,434.447,299.357,-204.648,-246.040,58.510,-8.020
245,48807.383000,238.208,-28.668,-144.436,443.137,295.752,-195.884,-44.040,669.510,618.980
246,48807.424000,256.988,-43.756,-66.739,447.910,288.140,-191.140,-646.040,-49.490,501.980
247,48807.463000,342.981,11.568,-50.802,454.628,282.403,-190.272,-24.040,-24.490,339.980
248,48807.503000,321.236,84.998,-75.704,456.457,273.490,-199.292,171.960,-131.490,277.980
249,48807.542000,256.988,-39.733,-123.518,461.215,265.727,-201.416,2.960,-169.490,229.980
250,48807.563000,235.243,-36.715,-136.467,457.260,257.836,-205.522,31.960,43.510,245.980
251,48807.603000,202.625,52.809,-125.510,467.835,249.374,-197.842,62.960,242.510,179.980
252,48807.646000,236.232,26.656,-113.556,471.733,250.556,-189.962,38.960,315.510,187.980
253,48807.681000,220.417,-0.503,-67.735,468.863,252.598,-184.039,116.960,354.510,100.980
254,48807.721000,223.382,113.163,-64.747,478.435,241.150,-179.370,232.960,265.510,198.980
255,48807.761000,268.849,17.603,-63.751,482.239,234.392,-179.512,156.960,135.510,183.980
256,48807.813000,249.081,4.527,-87.658,479.294,229.552,-177.664,199.960,97.510,71.980
257,48807.842000,242.162,-1.509,-93.634,483.228,236.365,-178.485,408.960,140.510,-2.020
258,48807.883000,254.023,2.515,-102.599,485.099,229.609,-177.650,76.960,110.510,15.980
259,48807.903000,217.452,24.644,-108.576,484.185,234.519,-174.601,-52.040,223.510,-2.020
260,48807.942000,232.278,8.550,-88.654,487.145,237.740,-161.775,4.960,333.510,10.980
261,48807.979000,238.208,35.709,-70.724,489.967,229.074,-160.000,-274.040,234.510,102.980
262,48808.19000,248.093,20.621,-66.739,490.992,233.161,-151.081,-380.040,178.510,150.980
263,48808.62000,247.104,30.680,-69.728,492.898,227.613,-139.433,-358.040,134.510,133.980
264,48808.104000,233.266,11.568,-78.693,494.861,230.544,-139.363,-436.040,106.510,159.980
265,48808.146000,240.185,-0.503,-65.743,495.820,227.835,-130.596,-295.040,77.510,111.980
266,48808.182000,258.965,-2.515,-38.848,497.814,233.701,-129.480,-513.040,-81.490,82.980
267,48808.204000,242.162,13.580,-77.696,495.860,230.856,-125.625,-308.040,-25.490,66.980
268,48808.244000,252.046,-8.550,-59.767,495.866,230.921,-122.682,-353.040,-49.490,27.980
269,48808.284000,244.139,-42.750,-64.747,491.997,230.883,-122.691,141.960,7.510,-38.020
270,48808.324000,245.127,-37.721,-73.712,495.843,228.936,-124.687,609.960,170.510,-107.020
271,48808.364000,244.139,22.633,-49.805,497.764,227.941,-126.666,1112.960,271.510,-232.020
272,48808.403000,252.046,91.033,-54.786,492.902,226.772,-133.567,281.960,-50.490,-60.020
273,48808.442000,243.151,21.627,-71.720,495.778,224.793,-136.547,-24.040,-183.490,7.980
274,48808.487000,239.197,-4.527,-66.739,493.856,226.652,-139.452,200.960,-141.490,-39.020
275,48808.521000,243.151,3.521,-84.669,493.891,231.398,-144.250,372.960,-86.490,-68.020
276,48808.542000,249.081,8.550,-88.654,489.954,225.427,-149.294,191.960,-26.490,-90.020
277,48808.581000,241.174,6.538,-70.724,488.026,226.358,-150.258,162.960,-20.490,-54.020
278,48808.621000,248.093,-0.503,-64.747,490.903,225.264,-157.141,491.960,12.510,-153.020
279,48808.661000,239.197,19.615,-84.669,488.063,231.989,-158.959,345.960,-32.490,-153.020
280,48808.701000,240.185,5.532,-67.735,486.173,237.687,-163.740,280.960,-46.490,-142.020
281,48808.742000,237.220,41.745,-76.700,487.091,233.705,-168.729,285.960,-101.490,-121.020
282,48808.786000,245.127,3.521,-85.665,476.424,231.595,-171.741,209.960,-95.490,-79.020
283,48808.824000,241.174,-7.544,-87.658,480.346,238.300,-177.468,320.960,-15.490,-136.020
284,48808.844000,244.139,22.633,-102.599,482.149,224.726,-177.765,397.960,76.510,-171.020
285,48808.881000,249.081,-11.568,-78.693,479.379,238.290,-177.470,286.960,169.510,-173.020
286,48808.921000,242.162,16.597,-59.767,483.265,240.248,-178.399,254.960,113.510,-196.020
287,48808.962000,231.290,28.668,-48.809,479.381,238.312,-176.489,10.960,-42.490,-89.020
288,48809.6000,253.035,-3.521,-100.607,477.399,234.323,-180.504,-46.040,-115.490,-91.020
289,48809.46000,239.197,44.762,-92.638,468.801,244.961,-178.325,43.960,-10.490,-211.020
290,48809.86000,230.301,65.886,-103.595,472.739,251.816,-177.184,-224.040,16.510,-75.020
291,48809.126000,241.174,2.515,-85.665,469.820,249.868,-176.252,-309.040,104.510,-17.020
292,48809.164000,235.243,73.933,-69.728,470.861,254.990,-164.369,-459.040,166.510,13.980
293,48809.182000,244.139,-21.627,-52.794,470.893,256.177,-154.536,-389.040,101.510,13.980
294,48809.225000,237.220,62.868,-69.728,472.847,258.138,-154.488,-170.040,71.510,-125.020
295,48809.263000,240.185,67.898,-70.724,469.068,266.018,-147.456,-341.040,29.510,-89.020
296,48809.302000,257.977,-15.591,-40.840,473.016,273.844,-146.294,-344.040,-140.490,-134.020
297,48809.342000,256.988,12.574,-49.805,465.326,279.529,-149.126,-154.040,-201.490,-266.020
298,48809.386000,264.896,27.662,-35.860,460.523,284.207,-154.916,-267.040,-488.490,-335.020
299,48809.426000,304.432,77.957,18.926,448.966,291.645,-164.582,-215.040,-799.490,-481.020
300,48809.466000,398.332,95.057,25.899,430.734,312.264,-189.660,122.960,-1480.490,-646.020
301,48809.506000,364.726,31.686,-110.568,412.328,316.249,-220.991,99.960,-1547.490,-455.020
302,48809.526000,317.282,-53.815,-106.584,401.686,320.547,-241.512,211.960,-1071.490,-398.020
303,48809.566000,163.089,-130.263,-185.276,394.810,314.202,-262.261,1641.960,-235.490,-278.020
304,48809.606000,110.703,40.739,-184.280,390.856,306.312,-266.367,1163.960,23.510,-16.020
305,48809.646000,119.598,-79.969,-111.564,400.564,306.729,-251.628,-268.040,581.510,557.980
306,48809.686000,106.749,41.745,-115.549,430.464,292.070,-225.412,94.960,1165.510,1086.980
307,48809.726000,140.355,127.246,-102.599,459.321,266.981,-187.663,-1275.040,1172.510,1700.980
308,48809.766000,182.857,59.851,-130.490,493.926,233.491,-137.339,-1685.040,1246.510,1781.980
309,48809.804000,202.625,49.792,-149.416,514.057,203.743,-86.962,-1348.040,1422.510,1541.980
310,48809.823000,219.429,-20.621,-227.113,534.171,172.938,-40.532,-1199.040,1346.510,1416.980
311,48809.863000,231.290,89.022,-170.335,535.025,156.895,-20.292,-2805.040,171.510,1208.980
312,48809.907000,299.490,40.739,4.981,544.404,124.217,-10.210,-2163.040,0.510,1150.980
313,48809.946000,322.224,14.585,24.903,547.109,101.225,2.034,-1006.040,324.510,550.980
314,48809.987000,284.664,44.762,-1.992,545.159,98.423,7.851,265.960,213.510,-158.020
315,48810.26000,266.873,36.715,-51.798,542.486,122.602,5.440,1351.960,-33.490,-660.020
316,48810.67000,272.803,67.898,-31.875,541.633,137.781,-9.915,1476.960,-250.490,-773.020
317,48810.107000,263.907,116.181,15.938,536.011,158.846,-20.247,549.960,-161.490,-896.020
318,48810.142000,224.371,124.228,-35.860,536.212,180.141,-22.716,-753.040,-64.490,-915.020
319,48810.162000,243.151,61.862,-45.821,530.609,199.631,-16.411,-1217.040,-37.490,-1019.020
320,48810.202000,233.266,34.703,-70.724,518.357,231.676,-9.841,-261.040,234.510,-1266.020
321,48810.246000,238.208,66.892,-60.763,507.156,273.332,-7.960,-29.040,187.510,-1427.020
322,48810.287000,252.046,27.662,-69.728,491.044,307.195,-5.281,-57.040,320.510,-1538.020
323,48810.322000,250.069,4.527,-63.751,462.388,344.776,-4.507,228.960,354.510,-1709.020
324,48810.362000,243.151,16.597,-29.883,439.531,383.233,-10.566,939.960,678.510,-1520.020
325,48810.402000,178.903,110.145,-149.416,425.160,395.885,-2.470,469.960,1184.510,-1311.020
326,48810.442000,364.726,-129.257,-35.860,410.833,412.486,8.655,1556.960,1034.510,-605.020
327,48810.462000,260.942,78.963,-69.728,404.184,425.926,5.017,118.960,355.510,-110.020
328,48810.507000,291.583,-38.727,-16.934,412.849,417.683,23.485,-1146.040,-336.490,387.980
329,48810.542000,299.490,-146.358,-66.739,413.735,410.745,16.468,177.960,-501.490,55.980
330,48810.582000,290.595,-46.774,-93.634,413.650,411.695,-28.622,2111.960,-561.490,69.980
331,48810.622000,284.664,33.697,-29.883,419.226,391.946,-46.700,492.960,-669.490,1178.980
332,48810.662000,235.243,35.709,-65.743,450.796,357.155,-54.270,5.960,-429.490,1651.980
333,48810.702000,276.757,18.609,-77.696,474.645,321.576,-50.107,-262.040,-95.490,1886.980
334,48810.742000,214.486,114.169,-88.654,488.756,280.898,-52.941,661.960,89.510,1380.980
335,48810.783000,198.672,196.652,-95.626,492.527,272.953,-62.916,2175.960,316.510,99.980
336,48810.803000,166.054,189.611,-109.572,486.688,274.321,-86.434,2370.960,226.510,-534.020
337,48810.843000,163.089,206.711,-114.553,477.938,277.343,-121.689,2582.960,-57.490,-625.020
338,48810.883000,156.170,217.776,-124.514,471.149,279.758,-141.263,944.960,-588.490,-327.020
339,48810.923000,183.846,107.128,-116.545,458.480,275.234,-164.926,-82.040,-739.490,-167.020
340,48810.963000,270.826,60.857,-60.763,446.918,283.492,-181.438,-252.040,-630.490,-250.020
341,48811.3000,252.046,67.898,23.907,445.911,280.463,-186.411,-759.040,-183.490,216.980
342,48811.43000,254.023,34.703,-115.549,455.604,278.982,-169.752,-1044.040,171.510,890.980
343,48811.86000,281.699,13.580,-49.805,464.268,272.486,-160.071,-1823.040,-341.490,656.980
344,48811.123000,283.676,-60.857,-68.732,469.034,264.810,-158.270,222.960,112.510,252.980
345,48811.144000,284.664,60.857,-74.708,472.864,260.942,-159.329,201.960,11.510,275.980
346,48811.185000,260.942,5.532,-85.665,476.724,260.009,-159.341,42.960,19.510,143.980
347,48811.232000,257.977,34.703,-99.611,476.717,259.060,-158.382,-128.040,55.510,94.980
348,48811.266000,243.151,44.762,-76.700,478.701,263.070,-153.385,-436.040,66.510,165.980
349,48811.306000,236.232,34.703,-87.658,479.614,256.391,-148.628,-548.040,60.510,145.980
350,48811.348000,236.232,27.662,-88.654,480.625,258.580,-137.790,-508.040,158.510,128.980
351,48811.387000,230.301,15.591,-87.658,486.459,258.917,-125.022,-466.040,198.510,149.980
352,48811.427000,242.162,-20.621,-93.634,489.337,255.191,-119.215,-457.040,311.510,191.980
353,48811.447000,241.174,-30.680,-68.732,492.275,256.449,-107.413,152.960,495.510,151.980
354,48811.484000,238.208,37.721,-22.911,493.242,254.689,-99.604,110.960,300.510,157.980
355,48811.523000,264.896,12.574,-25.899,496.977,239.344,-93.072,-293.040,-0.490,194.980
356,48811.563000,249.081,79.969,-37.852,494.103,242.228,-93.015,-25.040,-22.490,45.980
357,48811.603000,252.046,26.656,-53.790,498.057,251.004,-92.811,-364.040,-159.490,64.980
358,48811.643000,239.197,-3.521,-74.708,496.059,245.980,-99.792,-278.040,-131.490,94.980
359,48811.683000,242.162,-8.550,-64.747,498.968,245.188,-92.939,-343.040,-112.490,126.980
360,48811.724000,256.988,31.686,-44.825,498.900,238.370,-94.071,-353.040,-137.490,67.980
361,48811.764000,240.185,-22.633,-66.739,497.956,241.230,-95.971,-334.040,-242.490,9.980
362,48811.785000,241.174,19.615,-66.739,497.037,247.845,-103.671,-63.040,-228.490,18.980
363,48811.825000,248.093,36.715,-80.685,501.773,238.118,-106.819,44.960,-121.490,32.980
364,48811.864000,237.220,45.768,-88.654,497.931,240.109,-102.860,-80.040,-57.490,35.980
365,48811.906000,245.127,-8.550,-76.700,497.009,244.932,-103.736,268.960,96.510,44.980
366,48811.947000,247.104,21.627,-63.751,497.889,236.182,-104.909,93.960,69.510,9.980
367,48811.987000,245.127,16.597,-52.794,493.068,238.055,-105.858,16.960,-31.490,-2.020
368,48812.26000,241.174,2.515,-61.759,498.908,241.973,-106.739,192.960,-56.490,-56.020
369,48812.67000,244.139,17.603,-60.763,495.983,240.845,-112.654,317.960,-88.490,-104.020
370,48812.87000,243.151,12.574,-73.712,492.100,241.562,-122.453,490.960,-87.490,-147.020
371,48812.126000,244.139,-6.538,-83.673,488.231,242.409,-126.365,632.960,0.510,-181.020
372,48812.167000,235.243,25.650,-86.661,490.117,238.437,-131.353,942.960,133.510,-196.020
373,48812.208000,240.185,51.804,-71.720,488.225,244.114,-137.115,732.960,84.510,-155.020
374,48812.248000,239.197,37.721,-85.665,490.045,233.345,-142.253,603.960,101.510,-111.020
375,48812.287000,234.255,37.721,-85.665,487.209,240.113,-142.109,252.960,32.510,-50.020
376,48812.328000,256.000,0.503,-69.728,488.169,240.058,-145.050,-230.040,-49.490,9.980
377,48812.368000,248.093,2.515,-68.732,485.304,243.028,-141.068,90.960,49.510,-20.020
378,48812.407000,251.058,25.650,-74.708,488.188,241.115,-141.104,-315.040,-9.490,10.980
379,48812.426000,246.116,10.562,-75.704,491.149,246.105,-136.084,-393.040,36.510,-8.020
380,48812.469000,256.000,-4.527,-60.763,488.300,250.111,-129.136,-314.040,33.510,-46.020
381,48812.509000,253.035,13.580,-61.759,490.208,247.239,-128.215,-17.040,27.510,-117.020
382,48812.549000,256.988,38.727,-57.774,487.306,247.211,-128.222,-147.040,-7.490,-93.020
383,48812.591000,242.162,-0.503,-59.767,484.545,261.746,-127.905,101.960,0.510,-201.020
384,48812.624000,251.058,9.556,-70.724,485.506,261.690,-130.846,328.960,33.510,-227.020
385,48812.669000,236.232,16.597,-65.743,484.586,266.535,-130.741,272.960,-37.490,-178.020
386,48812.709000,239.197,92.039,-52.794,480.740,269.367,-132.647,106.960,47.510,-176.020
387,48812.746000,246.116,43.756,-84.669,479.730,265.431,-134.698,82.960,-14.490,-89.020
388,48812.766000,260.942,37.721,-68.732,479.822,274.234,-131.561,-427.040,-52.490,33.980
389,48812.806000,271.815,65.886,-22.911,477.865,271.367,-128.686,-554.040,-229.490,30.980
390,48812.846000,318.270,86.004,-0.996,477.915,276.243,-127.597,-965.040,-561.490,182.980
391,48812.886000,286.641,97.069,-37.852,479.787,271.256,-134.569,-530.040,-652.490,200.980
392,48812.929000,210.533,147.363,-117.541,479.829,275.183,-132.520,-1454.040,-677.490,417.980
393,48812.966000,172.973,28.668,-191.253,480.833,277.307,-124.626,-1673.040,-501.490,245.980
394,48813.9000,185.822,232.864,-107.580,479.961,284.374,-111.722,-1972.040,-84.490,-97.020
395,48813.49000,235.243,9.556,-55.782,482.115,297.941,-69.248,-3460.040,-191.490,31.980
396,48813.69000,262.919,-12.574,-48.809,477.471,313.838,-50.272,-155.040,720.510,-762.020
397,48813.109000,204.602,22.633,-102.599,464.155,335.259,-40.999,1094.960,1031.510,-1107.020
398,48813.144000,220.417,-2.515,-109.572,448.770,344.817,-40.819,840.960,858.510,-911.020
399,48813.184000,255.012,-55.827,-93.634,444.108,360.541,-29.693,738.960,1004.510,-514.020
400,48813.224000,215.475,-38.727,-95.626,447.138,369.716,-10.850,-459.040,897.510,62.980
401,48813.271000,206.579,-6.538,-148.420,454.764,352.856,13.308,-670.040,290.510,603.980
402,48813.304000,227.336,139.316,25.899,468.126,332.750,19.755,-889.040,-178.490,870.980
403,48813.346000,346.934,44.762,28.887,477.603,308.055,39.820,-1603.040,-224.490,1012.980
404,48813.388000,220.417,-22.633,-133.479,486.230,300.330,37.706,-68.040,-311.490,290.980
405,48813.408000,269.838,-178.546,-187.268,486.224,302.919,23.053,1533.960,-613.490,123.980
406,48813.449000,246.116,35.709,-75.704,488.009,297.091,-22.183,2253.960,-575.490,436.980
407,48813.484000,254.023,-4.527,-119.533,494.569,280.156,-45.100,-288.040,-1187.490,1211.980
408,48813.524000,241.174,-0.503,-117.541,507.630,235.154,-67.646,-993.040,-1397.490,1678.980
409,48813.566000,225.359,58.845,-99.611,513.008,195.902,-90.080,-1080.040,-1516.490,1877.980
410,48813.606000,261.931,42.750,-11.953,515.599,168.293,-111.282,-1198.040,-1411.490,1283.980
411,48813.646000,277.745,18.609,-4.981,517.465,164.126,-125.099,1397.960,-196.490,-18.020
412,48813.687000,260.942,152.393,20.918,516.493,164.074,-127.064,2236.960,574.510,-687.020
413,48813.726000,212.510,185.587,-38.848,516.638,176.911,-116.972,340.960,620.510,-661.020
414,48813.746000,256.000,-28.668,-40.840,510.020,189.768,-102.971,130.960,839.510,-665.020
415,48813.786000,192.741,-191.623,-310.786,510.263,210.587,-82.896,2260.960,1195.510,-1158.020
416,48813.826000,234.255,115.175,-85.665,502.661,227.685,-96.261,2648.960,697.510,-1243.020
417,48813.866000,245.127,38.727,-113.556,500.737,226.890,-87.457,-400.040,283.510,51.980
418,48813.909000,262.919,16.597,-76.700,504.570,220.412,-74.844,-1174.040,77.510,405.980
419,48813.947000,267.861,48.786,-45.821,508.439,218.680,-67.029,-1146.040,68.510,379.980
420,48813.987000,243.151,104.110,-36.856,507.516,221.735,-60.099,-646.040,134.510,-214.020
421,48814.27000,242.162,79.969,-40.840,501.850,235.335,-56.867,542.960,352.510,-821.020
422,48814.47000,208.556,132.275,-44.825,489.580,267.208,-58.146,1172.960,544.510,-1302.020
423,48814.88000,225.359,89.022,-73.712,472.433,295.128,-60.505,810.960,428.510,-1441.020
424,48814.129000,221.405,71.921,-99.611,453.389,327.798,-66.684,350.960,221.510,-1407.020
425,48814.171000,250.069,29.674,-90.646,439.967,341.172,-70.339,97.960,-14.490,-1474.020
426,48814.217000,256.988,18.609,-88.654,416.040,370.710,-84.443,564.960,-136.490,-950.020
427,48814.247000,289.606,-23.639,-83.673,404.534,384.793,-100.826,327.960,-492.490,-703.020
428,48814.292000,241.174,11.568,-83.673,389.006,385.052,-126.350,368.960,-857.490,-244.020
429,48814.327000,243.151,30.680,-85.665,379.272,382.628,-144.077,-207.040,-1003.490,159.980
430,48814.367000,227.336,21.627,-43.829,381.181,380.640,-147.059,-1023.040,-886.490,690.980
431,48814.387000,243.151,24.644,-24.903,395.658,373.403,-129.537,-1508.040,-534.490,929.980
432,48814.436000,264.896,-12.574,-55.782,399.510,368.867,-116.881,-1317.040,-104.490,838.980
433,48814.467000,248.093,3.521,-54.786,406.209,361.187,-116.057,272.960,-76.490,223.980
434,48814.508000,249.081,24.644,-80.685,406.031,345.395,-128.175,1037.960,-56.490,208.980
435,48814.548000,245.127,-10.562,-63.751,410.685,332.238,-154.935,1625.960,62.510,538.980
436,48814.587000,162.100,263.041,-113.556,424.032,313.751,-163.163,574.960,177.510,743.980
437,48814.627000,258.965,242.923,-65.743,430.736,303.483,-147.686,-1813.040,-583.490,907.980
438,48814.667000,269.838,-21.627,-90.646,436.444,293.809,-148.869,168.960,65.510,185.980
439,48814.689000,225.359,-47.780,-128.498,442.235,292.852,-150.840,656.960,213.510,379.980
440,48814.744000,220.417,47.780,-103.595,446.029,284.238,-147.100,-491.040,113.510,418.980
441,48814.766000,272.803,20.621,-88.654,451.720,271.760,-143.443,310.960,365.510,242.980
442,48814.806000,276.757,19.615,-26.895,456.604,275.776,-139.421,-442.040,-23.490,264.980
443,48814.846000,257.977,26.656,-77.696,456.552,270.879,-141.491,63.960,-81.490,83.980
444,48814.887000,231.290,31.686,-99.611,455.587,270.891,-140.512,-118.040,-132.490,84.980
445,48814.927000,230.301,39.733,-103.595,459.400,265.104,-140.632,-19.040,-16.490,103.980
446,48814.969000,214.486,20.621,-78.693,458.421,264.102,-141.637,-40.040,-44.490,124.980
447,48815.11000,218.440,11.568,-77.696,460.312,260.172,-144.663,126.960,-89.490,109.980
448,48815.31000,237.220,16.597,-89.650,462.254,262.025,-149.521,231.960,-102.490,59.980
449,48815.71000,246.116,25.650,-97.619,460.258,256.138,-151.617,188.960,-61.490,70.980
450,48815.112000,243.151,-15.591,-94.630,458.284,253.099,-156.592,311.960,-27.490,0.980
451,48815.152000,219.429,31.686,-101.603,459.195,248.168,-160.622,474.960,60.510,-23.020
452,48815.192000,225.359,16.597,-99.611,458.280,253.940,-162.457,290.960,65.510,-6.020
453,48815.232000,230.301,50.798,-87.658,461.140,250.042,-164.499,210.960,75.510,13.980
454,48815.271000,249.081,32.692,-78.693,462.088,248.110,-164.540,233.960,28.510,4.980
455,48815.308000,242.162,12.574,-88.654,462.974,240.287,-167.653,119.960,-34.490,2.980
456,48815.328000,244.139,18.609,-106.584,458.216,248.050,-165.530,185.960,19.510,-19.020
457,48815.368000,238.208,29.674,-82.677,460.083,241.251,-166.658,111.960,77.510,-9.020
458,48815.411000,229.313,5.532,-88.654,462.040,245.003,-173.435,336.960,135.510,3.980
459,48815.451000,233.266,-2.515,-84.669,459.123,242.191,-167.619,464.960,159.510,-51.020
460,48815.502000,243.151,38.727,-88.654,462.903,233.448,-169.767,395.960,128.510,-35.020
461,48815.532000,243.151,5.532,-79.689,461.891,229.491,-172.799,474.960,113.510,-43.020
462,48815.567000,236.232,18.609,-75.704,461.932,234.280,-175.634,487.960,51.510,-56.020
463,48815.608000,227.336,-2.515,-86.661,462.888,234.182,-180.538,174.960,-90.490,-14.020
464,48815.652000,262.919,12.574,-80.685,460.915,230.279,-180.629,240.960,-72.490,-88.020
465,48815.673000,244.139,38.727,-110.568,458.037,234.005,-186.436,37.960,-53.490,-55.020
466,48815.708000,234.255,22.633,-109.572,460.958,235.975,-186.386,55.960,61.510,-40.020
467,48815.748000,225.359,-0.503,-98.615,459.014,234.101,-182.509,-89.040,167.510,43.980
468,48815.788000,236.232,12.574,-78.693,462.897,234.268,-176.613,-69.040,182.510,65.980
469,48815.832000,235.243,27.662,-62.755,464.836,233.445,-170.743,-120.040,98.510,63.980
470,48815.872000,249.081,-7.544,-82.677,462.821,225.617,-172.883,-247.040,-18.490,34.980
471,48815.911000,249.081,20.621,-103.595,462.882,231.485,-170.791,-262.040,45.510,-17.020
472,48815.951000,234.255,47.780,-82.677,461.989,237.473,-162.815,-485.040,110.510,2.980
473,48815.991000,239.197,19.615,-74.708,461.054,238.650,-152.984,-534.040,83.510,36.980
474,48816.17000,234.255,14.585,-78.693,464.967,241.752,-146.042,-594.040,83.510,120.980
475,48816.51000,239.197,7.544,-70.724,465.981,244.846,-138.126,-344.040,104.510,82.980
476,48816.91000,254.023,4.527,-65.743,470.792,241.118,-133.295,-393.040,20.510,70.980
477,48816.132000,247.104,15.591,-77.696,465.024,244.060,-129.320,-150.040,73.510,-10.020
478,48816.172000,246.116,32.692,-76.700,467.964,247.087,-125.324,-319.040,50.510,6.980
479,48816.212000,245.127,9.556,-71.720,468.901,243.278,-122.464,-405.040,67.510,-26.020
480,48816.252000,245.127,18.609,-52.794,471.930,255.086,-116.312,-207.040,59.510,-64.020
481,48816.292000,245.127,5.532,-49.805,470.932,252.142,-117.360,-274.040,-103.490,-80.020
482,48816.312000,243.151,11.568,-63.751,465.193,258.882,-117.222,-164.040,-151.490,-126.020
483,48816.352000,251.058,22.633,-66.739,465.238,263.715,-118.096,3.960,-160.490,-160.020
484,48816.392000,243.151,23.639,-74.708,461.428,271.293,-124.800,-123.040,-239.490,-160.020
485,48816.429000,250.069,25.650,-74.708,457.584,275.031,-129.629,-13.040,-216.490,-254.020
486,48816.468000,245.127,43.756,-78.693,451.813,278.814,-131.518,-95.040,-247.490,-282.020
487,48816.509000,248.093,26.656,-51.798,448.923,281.548,-138.328,-171.040,-424.490,-359.020
488,48816.549000,271.815,56.833,-50.802,438.363,291.908,-147.927,35.960,-513.490,-427.020
489,48816.589000,314.317,68.904,-19.922,428.805,307.024,-162.322,-114.040,-867.490,-542.020
490,48816.629000,385.483,86.004,14.942,415.339,319.082,-181.696,-407.040,-1250.490,-453.020
491,48816.649000,339.027,-43.756,-85.665,399.879,326.159,-206.088,109.960,-1242.490,-731.020
492,48816.688000,224.371,-96.063,-167.346,389.286,335.332,-225.519,1672.960,-578.490,-989.020
493,48816.728000,166.054,-94.051,-186.272,375.494,316.970,-260.279,2515.960,116.510,-1020.020
494,48816.777000,103.784,-18.609,-187.268,373.572,321.482,-274.893,894.960,288.510,-618.020
495,48816.812000,125.529,-171.505,-190.257,385.220,322.846,-262.090,-141.040,460.510,118.980
496,48816.853000,109.714,-80.974,-198.226,408.216,298.045,-252.785,1018.960,899.510,998.980
497,48816.892000,102.795,66.892,-182.288,438.708,247.215,-239.139,732.960,882.510,1691.980
498,48816.929000,167.042,30.680,-176.311,459.794,221.748,-215.143,-810.040,556.510,2078.980
499,48816.951000,177.915,120.204,-143.440,475.953,189.223,-201.121,-863.040,369.510,2031.980
500,48816.989000,192.741,134.287,-92.638,493.214,168.551,-178.008,-2097.040,386.510,1865.980
501,48817.29000,253.035,61.862,-45.821,504.582,137.294,-148.277,-1683.040,844.510,1695.980
502,48817.69000,251.058,166.475,-149.416,522.836,116.006,-109.485,-1934.040,1130.510,1164.980
503,48817.114000,351.876,68.904,-42.833,525.596,98.818,-98.093,-1054.040,163.510,671.980
504,48817.149000,305.421,44.762,24.903,521.844,110.474,-95.881,469.960,183.510,-490.020
505,48817.188000,328.154,9.556,-55.782,521.990,125.964,-97.498,860.960,-121.490,-676.020
506,48817.228000,300.479,128.251,-21.914,518.146,132.334,-115.016,1649.960,-142.490,-870.020
507,48817.269000,269.838,134.287,-17.930,512.615,162.202,-122.210,259.960,-159.490,-1111.020
508,48817.289000,256.988,103.104,-42.833,507.105,192.264,-120.574,-569.040,-56.490,-1176.020
509,48817.329000,232.278,106.122,-49.805,493.874,223.307,-115.010,-707.040,358.510,-1389.020
510,48817.372000,198.672,115.175,-72.716,487.531,262.572,-91.596,-729.040,679.510,-1425.020
511,48817.412000,197.683,95.057,-105.588,480.203,298.138,-59.441,-1244.040,932.510,-1284.020
512,48817.452000,241.174,7.544,-118.537,476.594,319.092,-31.525,-1523.040,996.510,-1248.020
513,48817.501000,231.290,-1.509,-127.502,459.527,347.790,1.438,-565.040,1062.510,-1285.020
514,48817.528000,233.266,-49.792,-140.451,439.518,375.186,20.636,116.960,1045.510,-1355.020
515,48817.569000,345.946,-111.151,-124.514,406.993,414.498,13.595,2550.960,1639.510,-1733.020
516,48817.609000,230.301,0.503,-132.482,373.389,448.321,-22.009,3102.960,1307.510,-1702.020
517,48817.629000,286.641,46.774,8.965,370.467,449.868,-38.653,749.960,503.510,99.980
518,48817.669000,256.988,75.945,-75.704,385.838,434.010,-16.417,-1355.040,-93.490,941.980
519,48817.709000,231.290,61.862,-42.833,398.309,419.030,2.890,-1438.040,-528.490,1029.980
520,48817.749000,207.568,63.874,-136.467,416.483,397.850,2.458,-335.040,-716.490,866.980
521,48817.794000,241.174,41.745,-106.584,425.992,385.798,-20.344,-174.040,-1318.490,784.980
522,48817.834000,224.371,29.674,-167.346,420.995,378.049,-61.715,878.960,-1653.490,201.980
523,48817.874000,251.058,62.868,-135.471,412.046,365.084,-117.919,1085.960,-1821.490,194.980
524,48817.914000,234.255,108.134,-103.595,396.328,352.075,-173.158,1244.960,-1723.490,298.980
525,48817.954000,196.695,97.069,-26.895,385.440,332.878,-203.027,548.960,-1358.490,496.980
526,48817.974000,144.309,76.951,-76.700,381.465,324.793,-215.963,966.960,-143.490,288.980
527,48818.14000,260.942,55.827,58.770,387.078,308.043,-230.053,1808.960,738.510,324.980
528,48818.63000,212.510,251.976,-166.350,390.866,296.732,-216.566,-405.040,317.510,260.980
529,48818.93000,236.232,117.187,-47.813,402.470,293.264,-202.890,-246.040,353.510,447.980
530,48818.133000,323.212,-43.756,-65.743,408.201,285.575,-202.068,-14.040,125.510,475.980
531,48818.171000,236.232,3.521,-80.685,413.005,281.782,-200.180,-274.040,-92.490,445.980
532,48818.211000,285.652,2.515,-107.580,416.762,270.169,-200.430,515.960,132.510,175.980
533,48818.251000,269.838,57.839,-89.650,416.713,266.178,-205.422,-19.040,-21.490,110.980
534,48818.271000,256.000,15.591,-102.599,413.844,269.990,-207.305,182.960,-2.490,-14.020
535,48818.311000,203.614,34.703,-118.537,418.620,264.169,-209.385,-21.040,-22.490,-5.020
536,48818.352000,229.313,56.833,-117.541,418.692,270.145,-202.388,-192.040,42.510,117.980
537,48818.399000,202.625,16.597,-120.529,424.515,271.259,-198.428,-365.040,78.510,146.980
538,48818.434000,214.486,20.621,-115.549,425.482,270.383,-194.523,-261.040,113.510,146.980
539,48818.474000,234.255,24.644,-92.638,430.326,269.611,-187.665,-102.040,164.510,101.980
540,48818.514000,216.463,38.727,-87.658,428.322,262.774,-188.802,-12.040,58.510,94.980
541,48818.551000,222.394,24.644,-69.728,430.225,259.837,-190.824,-113.040,-160.490,76.980
542,48818.591000,250.069,21.627,-91.642,432.219,266.587,-193.612,212.960,-179.490,-12.020
543,48818.611000,235.243,-0.503,-127.502,427.356,264.534,-196.610,187.960,-85.490,-23.020
544,48818.653000,217.452,21.627,-132.482,426.339,259.649,-197.701,-13.040,16.510,-11.020
545,48818.693000,214.486,21.627,-122.521,430.138,251.962,-195.903,137.960,238.510,-3.020
546,48818.739000,239.197,38.727,-87.658,431.159,256.891,-192.849,-5.040,217.510,5.980
547,48818.774000,250.069,48.786,-76.700,429.264,259.893,-187.883,8.960,121.510,-17.020
548,48818.809000,246.116,21.627,-72.716,430.274,264.713,-189.735,161.960,-6.490,-49.020
549,48818.849000,234.255,26.656,-88.654,432.200,264.646,-193.656,301.960,-70.490,-89.020
550,48818.894000,232.278,28.668,-99.611,427.272,256.681,-200.707,554.960,-45.490,-122.020
551,48818.914000,228.324,5.532,-110.568,423.379,256.427,-210.528,536.960,-32.490,-133.020
552,48818.956000,228.324,76.951,-110.568,425.289,254.440,-213.510,477.960,-12.490,-68.020
553,48818.996000,216.463,9.556,-121.525,421.384,251.425,-216.527,340.960,-2.490,36.980
554,48819.32000,239.197,-29.674,-93.634,426.190,248.538,-217.562,-221.040,-130.490,140.980
555,48819.72000,251.058,-36.715,-93.634,424.216,245.498,-222.537,299.960,-32.490,-49.020
556,48819.112000,248.093,43.756,-130.490,420.304,241.534,-224.594,56.960,16.510,-74.020
557,48819.156000,255.012,32.692,-111.564,422.278,244.573,-219.619,-268.040,69.510,4.980
558,48819.196000,225.359,-0.503,-101.603,427.170,250.424,-220.460,-16.040,119.510,-84.020
559,48819.236000,216.463,5.532,-115.549,426.202,248.645,-212.656,-0.040,145.510,-107.020
560,48819.256000,203.614,40.739,-107.580,430.130,254.530,-211.536,-25.040,187.510,-40.020
561,48819.296000,224.371,-6.538,-123.518,430.108,250.798,-204.755,-116.040,196.510,16.980
562,48819.344000,219.429,19.615,-104.591,429.166,251.910,-197.867,-159.040,268.510,-4.020
563,48819.372000,245.127,43.756,-63.751,433.118,258.895,-190.839,-64.040,177.510,-5.020
564,48819.412000,238.208,-9.556,-74.708,433.146,261.807,-190.775,-126.040,-18.490,-28.020
565,48819.452000,229.313,48.786,-96.623,432.117,255.930,-192.868,141.960,-24.490,-62.020
566,48819.492000,211.521,42.750,-111.564,430.234,261.693,-194.706,-130.040,-60.490,59.980
567,48819.531000,256.988,23.639,-72.716,433.113,257.967,-188.899,-159.040,-19.490,65.980
568,48819.576000,256.988,32.692,-81.681,430.257,262.793,-188.797,-119.040,-66.490,60.980
569,48819.596000,254.023,14.585,-94.630,430.251,262.728,-191.741,-42.040,-9.490,1.980
570,48819.632000,238.208,35.709,-103.595,431.234,263.773,-188.774,-77.040,53.510,0.980
571,48819.676000,246.116,26.656,-85.665,429.290,261.899,-184.897,-39.040,79.510,-71.020
572,48819.711000,253.035,37.721,-64.747,423.478,260.893,-183.951,-83.040,6.510,-61.020
573,48819.751000,243.151,25.650,-70.724,427.369,263.779,-186.820,-126.040,-145.490,-87.020
574,48819.791000,240.185,17.603,-107.580,426.505,274.449,-186.585,-9.040,-175.490,-132.020
575,48819.834000,236.232,22.633,-96.623,423.611,276.254,-191.455,-36.040,-139.490,-154.020
576,48819.874000,228.324,24.644,-91.642,421.733,282.945,-195.233,-95.040,-213.490,-212.020
577,48819.894000,231.290,25.650,-83.673,412.998,281.717,-203.124,26.960,-252.490,-259.020
578,48819.933000,274.780,68.904,-46.817,407.293,292.297,-204.862,-373.040,-583.490,-215.020
579,48819.978000,323.212,105.116,-6.973,395.735,300.598,-219.412,-555.040,-993.490,-247.020
580,48820.12000,392.402,73.933,-36.856,387.093,309.941,-231.972,-739.040,-1415.490,-256.020
581,48820.54000,307.398,-59.851,-153.401,371.630,316.112,-253.442,259.960,-1143.490,-505.020
582,48820.94000,220.417,-30.680,-166.350,353.176,314.358,-280.978,1234.960,-482.490,-990.020
583,48820.132000,107.737,-105.116,-187.268,343.471,315.731,-302.543,1586.960,28.510,-786.020
584,48820.172000,128.494,-55.827,-157.385,351.232,317.770,-301.500,-1.040,445.510,-230.020
585,48820.212000,118.610,-95.057,-146.428,361.877,315.263,-287.804,154.960,863.510,213.980
586,48820.237000,100.819,8.550,-172.327,391.797,303.430,-265.449,313.960,1169.510,601.980
587,48820.281000,133.436,36.715,-182.288,411.028,287.524,-247.129,-24.040,1188.510,1037.980
588,48820.317000,178.903,65.886,-155.393,438.906,263.202,-218.190,-138.040,1210.510,1212.980
589,48820.357000,188.788,33.697,-141.447,457.164,243.704,-186.222,-670.040,1146.510,1376.980
590,48820.398000,234.255,80.974,-198.226,484.010,211.714,-152.553,-816.040,1195.510,1617.980
591,48820.433000,283.676,288.189,-167.346,497.333,185.072,-134.484,-3100.040,-522.490,1715.980
592,48820.479000,277.745,-16.597,31.875,503.035,171.816,-122.017,-3783.040,-633.490,1329.980
593,48820.518000,324.201,40.739,-0.996,505.887,164.315,-111.390,-99.040,318.510,588.980
594,48820.536000,284.664,89.022,-37.852,509.673,153.867,-102.788,62.960,412.510,169.980
595,48820.576000,262.919,104.110,-8.965,512.692,163.820,-92.754,701.960,529.510,-376.020
596,48820.623000,252.046,156.417,-1.992,514.704,169.858,-83.790,-74.040,402.510,-339.020
597,48820.656000,244.139,103.104,-30.879,515.786,178.886,-70.839,-1146.040,256.510,-324.020
598,48820.696000,253.035,79.969,-91.642,514.009,190.949,-50.962,-1051.040,563.510,-578.020
599,48820.736000,215.475,98.075,-96.623,511.430,221.319,-36.564,-888.040,541.510,-976.020
600,48820.777000,260.942,71.921,-69.728,510.595,231.385,-19.671,-1519.040,250.510,-873.020
601,48820.816000,269.838,2.515,-108.576,504.137,259.862,-1.400,-1556.040,222.510,-786.020
602,48820.856000,246.116,-11.568,-102.599,495.662,280.489,13.749,-583.040,340.510,-1098.020
603,48820.882000,208.556,-1.509,-77.696,482.399,305.945,29.977,-250.040,564.510,-1086.020
604,48820.922000,203.614,-9.556,-77.696,463.345,333.242,44.272,610.960,1317.510,-1218.020
605,48820.957000,227.336,-3.521,-91.642,439.541,367.483,67.537,531.960,1520.510,-1224.020
606,48820.994000,308.386,-59.851,-116.545,417.460,381.225,84.467,882.960,1530.510,-1105.020
607,48821.32000,239.197,-18.609,-87.658,403.218,410.965,75.290,1734.960,849.510,-812.020
608,48821.74000,254.023,52.809,-54.786,396.477,419.119,51.921,908.960,-9.490,2.980
609,48821.117000,278.734,22.633,-60.763,398.314,412.040,38.039,252.960,-413.490,333.980
610,48821.152000,255.012,-6.538,-66.739,403.983,403.747,11.389,823.960,-646.490,436.980
611,48821.192000,271.815,79.969,-91.642,408.686,399.868,-34.778,1458.960,-880.490,448.980
612,48821.218000,261.931,98.075,-61.759,413.280,383.497,-75.339,1053.960,-1200.490,607.980
613,48821.252000,264.896,100.086,-69.728,414.023,367.261,-108.060,1427.960,-1335.490,634.980
614,48821.297000,193.730,166.475,-127.502,410.857,350.620,-157.469,1767.960,-1118.490,417.980
615,48821.333000,228.324,145.352,-105.588,401.851,329.176,-202.094,905.960,-1407.490,277.980
616,48821.378000,204.602,131.269,-74.708,386.239,322.467,-235.618,810.960,-1185.490,165.980
617,48821.417000,163.089,110.145,-71.720,376.449,314.217,-253.474,248.960,-797.490,187.980
618,48821.457000,149.251,71.921,-59.767,371.572,311.150,-258.455,56.960,-210.490,124.980
619,48821.497000,81.050,42.750,-144.436,379.305,307.644,-244.788,-387.040,727.510,130.980
620,48821.514000,268.849,124.228,-115.549,384.015,294.142,-243.116,590.960,452.510,368.980
621,48821.553000,336.062,77.957,-59.767,390.748,287.671,-231.478,-893.040,224.510,727.980
622,48821.593000,284.664,79.969,-73.712,397.538,287.909,-223.613,216.960,246.510,383.980
623,48821.634000,226.347,69.910,-96.623,406.155,278.329,-221.846,-98.040,-17.490,463.980
624,48821.682000,291.583,15.591,-94.630,406.169,279.343,-219.862,-840.040,-285.490,437.980
625,48821.717000,248.093,-19.615,-142.444,409.853,260.869,-223.206,624.960,85.510,67.980
626,48821.757000,195.707,41.745,-149.416,413.838,271.694,-218.054,-109.040,114.510,94.980
627,48821.794000,209.544,15.591,-130.490,413.786,265.912,-216.221,-54.040,278.510,81.980
628,48821.837000,215.475,57.839,-118.537,417.725,271.905,-210.196,-105.040,383.510,85.980
629,48821.857000,209.544,35.709,-112.560,428.383,271.275,-199.400,-263.040,377.510,161.980
630,48821.896000,220.417,46.774,-76.700,427.381,264.771,-185.818,-580.040,212.510,242.980
631,48821.933000,254.023,23.639,-46.817,426.424,264.870,-180.914,-228.040,29.510,245.980
632,48821.978000,239.197,3.521,-61.759,432.166,259.036,-183.973,-262.040,-313.490,183.980
633,48822.13000,209.544,-16.597,-123.518,430.204,257.874,-191.849,241.960,-315.490,90.980
634,48822.53000,228.324,16.597,-144.436,431.179,259.717,-196.709,188.960,-70.490,77.980
635,48822.93000,254.023,25.650,-107.580,435.006,255.828,-198.749,158.960,65.510,53.980
636,48822.134000,258.965,6.538,-94.630,430.173,255.824,-196.798,31.960,68.510,-68.020
637,48822.179000,242.162,24.644,-97.619,430.204,258.759,-195.752,65.960,4.510,-110.020
638,48822.193000,227.336,57.839,-112.560,433.123,260.707,-196.683,48.960,15.510,-59.020
639,48822.234000,207.568,-2.515,-112.560,428.255,257.726,-197.740,129.960,9.510,-46.020
640,48822.276000,199.660,4.527,-111.564,433.104,259.650,-200.629,258.960,33.510,-81.020
641,48822.318000,224.371,68.904,-110.568,430.151,254.724,-202.706,268.960,65.510,-105.020
642,48822.358000,263.907,24.644,-70.724,429.155,251.802,-202.773,182.960,72.510,-83.020
643,48822.394000,259.954,27.662,-67.735,428.247,259.409,-209.471,382.960,-112.490,-151.020
644,48822.434000,221.405,12.574,-110.568,425.310,257.288,-216.389,405.960,-179.490,-166.020
645,48822.476000,199.660,-3.521,-129.494,421.425,257.983,-227.169,323.960,-94.490,-206.020
646,48822.501000,218.440,26.656,-152.405,418.459,251.181,-226.345,307.960,69.510,-176.020
647,48822.534000,230.301,42.750,-120.529,419.435,251.276,-222.418,-152.040,148.510,-15.020
648,48822.578000,226.347,40.739,-103.595,421.434,257.185,-219.341,-148.040,139.510,33.980
649,48822.618000,227.336,25.650,-117.541,423.436,263.137,-214.301,-317.040,99.510,39.980
650,48822.653000,214.486,20.621,-114.553,425.392,264.235,-209.370,-372.040,99.510,49.980
651,48822.694000,228.324,23.639,-114.553,424.430,262.521,-198.622,-360.040,156.510,7.980
652,48822.737000,216.463,22.633,-118.537,424.505,268.518,-190.644,-319.040,265.510,23.980
653,48822.777000,242.162,17.603,-89.650,433.298,274.709,-177.739,-443.040,299.510,50.980
654,48822.817000,252.046,24.644,-64.747,432.353,275.800,-171.833,-243.040,215.510,-4.020
655,48822.837000,239.197,31.686,-60.763,425.576,273.921,-166.005,-256.040,43.510,-33.020
656,48822.876000,233.266,24.644,-86.661,426.605,280.684,-167.814,74.960,-38.490,-149.020
657,48822.916000,232.278,42.750,-84.669,427.497,272.926,-167.984,-212.040,-158.490,-74.020
658,48822.958000,231.290,50.798,-80.685,418.875,282.464,-171.714,-119.040,-243.490,-229.020
659,48822.998000,245.127,16.597,-69.728,414.041,284.207,-178.550,258.960,-278.490,-290.020
660,48823.39000,256.988,17.603,-60.763,413.098,288.837,-188.256,234.960,-428.490,-354.020
661,48823.79000,292.571,31.686,-48.809,402.519,299.024,-205.704,276.960,-772.490,-447.020
662,48823.114000,324.201,99.081,-53.790,386.024,299.274,-231.230,497.960,-924.490,-549.020
663,48823.134000,327.166,89.022,-103.595,366.748,311.232,-252.580,-38.040,-1095.490,-824.020
664,48823.186000,295.537,79.969,-120.529,342.678,328.839,-279.698,1139.960,-784.490,-1321.020
665,48823.216000,162.100,123.222,-154.397,325.283,335.012,-300.192,775.960,-349.490,-1108.020
666,48823.254000,69.189,50.798,-172.327,318.504,334.882,-303.151,465.960,161.510,-865.020
667,48823.296000,107.737,93.045,-149.416,319.713,357.458,-291.860,-946.040,574.510,-644.020
668,48823.336000,155.181,7.544,-147.424,322.857,375.652,-260.068,-1092.040,995.510,-528.020
669,48823.376000,215.475,-51.804,-124.514,333.729,392.929,-229.261,154.960,1569.510,-225.020
670,48823.416000,194.718,45.768,-129.494,360.787,386.742,-213.651,553.960,1712.510,86.980
671,48823.454000,220.417,26.656,-134.475,387.921,383.036,-173.469,-1004.040,1331.510,903.980
672,48823.476000,258.965,-6.538,-127.502,420.698,361.998,-129.737,-960.040,1163.510,1360.980
673,48823.516000,207.568,-5.532,-161.370,448.568,334.957,-92.033,-1199.040,846.510,1600.980
674,48823.556000,202.625,12.574,-158.381,462.908,314.085,-76.775,-1345.040,-4.490,1583.980
675,48823.594000,248.093,32.692,-45.821,482.005,287.197,-72.429,-1427.040,-661.490,1514.980
676,48823.639000,278.734,175.528,-3.984,495.269,255.592,-59.373,-983.040,-67.490,1117.980
677,48823.691000,292.571,131.269,3.984,502.934,244.384,-42.934,-1415.040,-91.490,889.980
678,48823.716000,265.884,181.564,10.957,506.628,225.134,-37.470,-393.040,116.510,482.980
679,48823.756000,287.629,105.116,-40.840,510.548,230.048,-36.372,-16.040,76.510,87.980
680,48823.796000,229.313,103.104,-57.774,502.804,230.814,-42.255,296.960,-350.490,-707.020
681,48823.816000,245.127,178.546,-25.899,492.407,260.354,-62.215,145.960,-677.490,-1007.020
682,48823.859000,226.347,112.157,-15.938,477.122,282.317,-71.567,13.960,-219.490,-1342.020
683,48823.899000,190.764,150.381,-71.720,455.214,318.842,-77.667,180.960,86.510,-1474.020
684,48823.939000,218.440,82.986,-74.708,438.958,338.121,-76.292,25.960,201.510,-1347.020
685,48823.978000,213.498,33.697,-64.747,420.015,379.679,-75.410,531.960,522.510,-1366.020
686,48824.18000,211.521,21.627,-69.728,401.811,398.810,-79.927,944.960,776.510,-1313.020
687,48824.56000,189.776,125.234,-148.420,390.357,414.273,-77.646,432.960,954.510,-1064.020
688,48824.96000,347.923,33.697,-57.774,379.841,424.180,-63.719,495.960,1088.510,-457.020
689,48824.116000,263.907,-3.521,-29.883,382.766,421.792,-41.211,-1331.040,287.510,168.980
690,48824.158000,297.514,-38.727,-44.825,388.590,419.389,-20.658,-872.040,81.510,444.980
691,48824.201000,282.687,-71.921,-112.560,392.397,415.306,-31.528,625.960,-505.490,169.980
692,48824.242000,265.884,-23.639,-139.455,384.503,410.226,-82.652,1382.960,-1337.490,-54.020
693,48824.276000,294.548,-32.692,-222.132,370.606,389.102,-154.738,2162.960,-2018.490,191.980
694,48824.316000,258.965,-33.697,-233.089,353.930,377.939,-213.861,2656.960,-2240.490,326.980
695,48824.356000,128.494,100.086,-99.611,336.883,329.753,-279.690,1848.960,-1585.490,1086.980
696,48824.396000,81.050,101.092,30.879,340.546,310.201,-287.962,-255.040,-287.490,1559.980
697,48824.436000,254.023,448.126,-110.568,368.376,282.772,-267.918,-577.040,730.510,1644.980
698,48824.462000,162.100,513.509,-98.615,390.747,285.902,-223.672,-3658.040,129.510,1561.980
699,48824.497000,438.857,-46.774,24.903,398.417,276.506,-213.077,-589.040,409.510,382.980
700,48824.537000,293.560,56.833,-68.732,404.076,262.841,-219.252,1162.960,311.510,288.980
701,48824.578000,286.641,28.668,-134.475,404.069,261.007,-214.389,-1207.040,-279.490,414.980
702,48824.619000,262.919,98.075,-100.607,408.966,266.038,-208.384,-132.040,220.510,86.980
703,48824.657000,234.255,45.768,-92.638,413.878,272.083,-200.394,-512.040,22.510,16.980
704,48824.697000,203.614,16.597,-123.518,410.945,268.236,-197.543,-57.040,75.510,-109.020
705,48824.737000,201.637,4.527,-127.502,409.071,274.085,-195.456,-230.040,71.510,-73.020
706,48824.758000,215.475,9.556,-123.518,412.071,282.096,-185.465,-709.040,24.510,172.980
707,48824.799000,206.579,39.733,-93.634,413.942,274.456,-180.728,-652.040,-63.490,193.980
708,48824.841000,230.301,46.774,-100.607,415.949,280.451,-173.726,-460.040,-118.490,145.980
709,48824.876000,211.521,68.904,-104.591,418.856,281.407,-175.660,-284.040,-109.490,25.980
710,48824.928000,229.313,20.621,-119.533,414.996,282.340,-175.647,-474.040,-204.490,-20.020
711,48824.962000,230.301,-56.833,-123.518,405.394,289.106,-172.575,-92.040,-107.490,-133.020
712,48824.996000,240.185,-88.016,-146.428,408.288,289.048,-176.493,298.960,-23.490,-32.020
713,48825.41000,212.510,-12.574,-111.564,413.064,284.112,-182.477,72.960,-74.490,265.980
714,48825.76000,255.012,25.650,-88.654,412.998,276.431,-178.724,-5.040,2.510,384.980
715,48825.96000,237.220,30.680,-96.623,412.939,270.584,-179.835,929.960,194.510,85.980
716,48825.142000,207.568,167.481,-107.580,418.549,252.928,-191.002,826.960,153.510,-50.020
717,48825.182000,253.035,27.662,-104.591,414.781,263.548,-191.755,189.960,20.510,-14.020
718,48825.216000,235.243,35.709,-135.471,417.637,259.607,-195.759,452.960,98.510,-80.020
719,48825.256000,205.591,5.532,-125.510,418.632,261.644,-191.789,38.960,115.510,19.980
720,48825.299000,193.730,-5.532,-132.482,420.543,258.794,-189.887,282.960,218.510,11.980
721,48825.341000,208.556,14.585,-96.623,422.428,253.937,-190.972,570.960,358.510,-59.020
722,48825.382000,242.162,49.792,-100.607,419.467,247.177,-188.186,281.960,208.510,-84.020
723,48825.396000,230.301,18.609,-94.630,420.473,251.954,-192.001,614.960,171.510,-218.020
724,48825.443000,234.255,39.733,-119.533,420.440,248.999,-194.028,747.960,253.510,-170.020
725,48825.477000,209.544,81.980,-109.572,422.287,240.258,-195.198,762.960,323.510,-149.020
726,48825.517000,245.127,-26.656,-58.770,420.323,238.190,-200.152,294.960,84.510,-10.020
727,48825.561000,249.081,18.609,-94.630,424.133,232.381,-201.253,537.960,2.510,-43.020
728,48825.601000,222.394,10.562,-116.545,420.276,234.220,-204.163,-20.040,-78.490,54.980
729,48825.641000,233.266,-10.562,-119.533,422.241,237.173,-203.112,189.960,89.510,33.980
730,48825.683000,244.139,-4.527,-95.626,424.174,237.170,-204.089,95.960,172.510,-71.020
731,48825.738000,218.440,-10.562,-87.658,425.028,224.645,-200.442,372.960,226.510,-149.020
732,48825.748000,237.220,-49.792,-74.708,422.194,231.434,-199.317,596.960,135.510,-261.020
733,48825.784000,231.290,48.786,-88.654,425.104,233.296,-204.173,656.960,76.510,-270.020
734,48825.818000,256.000,68.904,-115.549,417.395,237.924,-210.951,143.960,45.510,-148.020
735,48825.866000,233.266,2.515,-62.755,419.386,242.884,-206.914,-253.040,-107.490,-45.020
736,48825.901000,253.035,4.527,-97.619,416.496,244.732,-209.821,-170.040,-240.490,-53.020
737,48825.938000,223.382,68.904,-130.490,412.608,242.753,-209.873,-285.040,-104.490,32.980
738,48825.977000,231.290,13.580,-145.432,414.618,249.654,-205.793,-258.040,105.510,142.980
739,48826.17000,234.255,-34.703,-115.549,418.505,248.980,-194.032,-409.040,265.510,54.980
740,48826.44000,227.336,51.804,-38.848,416.623,252.995,-187.082,-607.040,51.510,85.980
741,48826.78000,241.174,5.532,-78.693,417.518,245.260,-186.271,50.960,-22.490,61.980
742,48826.118000,234.255,28.668,-109.572,420.441,247.251,-185.240,-484.040,-47.490,61.980
743,48826.157000,249.081,-0.503,-81.681,417.594,251.279,-177.312,-777.040,-130.490,93.980
744,48826.197000,255.012,5.532,-64.747,415.700,255.165,-176.249,-234.040,-75.490,-86.020
745,48826.238000,261.931,29.674,-63.751,413.861,264.876,-175.056,-71.040,-199.490,-172.020
746,48826.279000,232.278,32.692,-102.599,408.167,276.449,-175.792,-527.040,-303.490,-93.020
747,48826.322000,258.965,26.656,-42.833,406.195,273.431,-179.786,-394.040,-371.490,-201.020
748,48826.357000,273.792,60.857,-43.829,402.308,274.990,-195.450,-43.040,-733.490,-328.020
749,48826.378000,294.548,52.809,-63.751,388.851,287.134,-210.900,-39.040,-995.490,-401.020
750,48826.423000,305.421,92.039,-51.798,372.473,299.077,-234.205,-47.040,-1265.490,-422.020
751,48826.462000,340.015,16.597,-80.685,353.157,307.130,-256.622,-149.040,-1419.490,-477.020
752,48826.501000,321.236,-18.609,-128.498,330.818,305.188,-291.035,976.960,-1157.490,-798.020
753,48826.542000,206.579,-5.532,-140.451,315.321,309.266,-319.417,1224.960,-822.490,-966.020
754,48826.581000,152.216,-41.745,-53.790,313.262,298.373,-328.489,891.960,540.510,-537.020
755,48826.621000,168.031,-78.963,-55.782,334.694,309.691,-308.579,-164.040,1467.510,-62.020
756,48826.661000,197.683,-36.715,-120.529,375.407,309.095,-265.358,-356.040,2365.510,488.980
757,48826.701000,214.486,27.662,-200.218,420.922,301.167,-204.637,-529.040,2654.510,792.980
758,48826.721000,166.054,-41.745,-256.996,462.404,276.674,-145.272,-510.040,2247.510,1293.980
759,48826.759000,148.263,11.568,-232.093,484.481,249.685,-102.676,-537.040,1163.510,1652.980
760,48826.799000,131.459,140.322,-238.070,500.706,222.187,-80.697,-2140.040,364.510,1849.980
761,48826.841000,276.757,155.411,-59.767,515.890,191.334,-78.408,-3862.040,-1274.490,1758.980
762,48826.882000,339.027,95.057,10.957,524.382,168.226,-73.999,-1965.040,-421.490,1142.980
763,48826.922000,333.097,215.764,-49.805,524.328,162.423,-73.148,-171.040,-124.490,54.980
764,48826.958000,252.046,150.381,-59.767,520.451,162.320,-76.100,242.960,-63.490,-419.020
765,48826.999000,175.938,108.134,-98.615,517.727,182.486,-84.484,142.960,-184.490,-659.020
766,48827.26000,196.695,105.116,-95.626,515.976,202.726,-89.923,-401.040,-180.490,-621.020
767,48827.63000,237.220,91.033,-19.922,512.294,220.336,-81.694,-2225.040,173.510,-737.020
768,48827.103000,280.710,-11.568,-18.926,509.709,246.241,-49.743,-1610.040,955.510,-967.020
769,48827.143000,287.629,-6.538,-84.669,498.439,272.276,-8.002,-469.040,1674.510,-1409.020
770,48827.181000,322.224,-54.821,-51.798,481.447,305.202,40.746,-64.040,2007.510,-947.020
771,48827.222000,289.606,-45.768,-33.868,479.664,310.166,90.866,-491.040,1996.510,-194.020
772,48827.259000,163.089,-165.470,-393.463,473.929,306.377,141.764,-921.040,1678.510,51.980
773,48827.302000,157.158,-88.016,-172.327,464.275,310.878,130.076,1621.960,364.510,-444.020
774,48827.343000,352.865,-17.603,44.825,460.566,329.115,122.628,562.960,28.510,97.980
775,48827.362000,296.525,-51.804,6.973,468.198,319.352,116.543,-315.040,-546.490,120.980
776,48827.403000,285.652,15.591,2.988,471.919,308.279,96.692,-17.040,-879.490,423.980
777,48827.438000,286.641,-13.580,-42.833,488.190,292.668,85.592,-827.040,-1100.490,716.980
778,48827.478000,210.533,35.709,-181.292,501.517,273.987,68.535,-337.040,-1184.490,601.980
779,48827.518000,250.069,-3.521,-151.409,506.142,261.435,25.117,730.960,-1519.490,554.980
780,48827.559000,256.988,28.668,-104.591,506.955,252.037,-5.491,1876.960,-1095.490,521.980
781,48827.599000,209.544,64.880,-114.553,508.675,237.666,-42.091,725.960,-1210.490,750.980
782,48827.641000,222.394,-0.503,-67.735,512.286,217.618,-72.929,733.960,-831.490,1054.980
783,48827.658000,138.378,86.004,-88.654,515.834,186.394,-82.440,828.960,110.510,913.980
784,48827.703000,249.081,276.118,67.735,520.518,170.001,-79.852,1160.960,181.510,589.980
785,48827.743000,316.293,31.686,-7.969,520.476,163.442,-69.211,230.960,293.510,323.980
786,48827.778000,286.641,165.470,12.949,520.542,169.354,-65.157,964.960,369.510,-249.020
787,48827.824000,291.583,104.110,-13.946,519.690,181.901,-67.822,1424.960,236.510,-597.020
788,48827.859000,273.792,51.804,-89.650,512.987,189.537,-70.608,986.960,217.510,-347.020
789,48827.898000,290.595,-44.762,-69.728,513.966,189.654,-65.700,-78.040,182.510,78.980
790,48827.939000,248.093,30.680,-42.833,513.965,188.770,-61.797,-42.040,189.510,-13.020
791,48827.982000,283.676,31.686,-31.875,513.023,190.767,-58.813,292.960,260.510,-40.020
792,48828.8000,273.792,61.862,9.961,516.921,192.832,-54.836,-195.040,-33.490,11.980
793,48828.43000,274.780,54.821,-0.996,513.038,192.665,-60.732,68.960,-286.490,-222.020
794,48828.81000,263.907,24.644,-44.825,512.102,198.244,-71.398,677.960,-208.490,-642.020
795,48828.123000,259.954,52.809,-42.833,503.623,224.113,-82.609,1284.960,87.510,-1136.020
796,48828.164000,216.463,48.786,-89.650,495.133,246.358,-82.133,1060.960,493.510,-1351.020
797,48828.199000,163.089,-39.733,-175.315,480.899,274.415,-79.579,950.960,645.510,-1525.020
798,48828.239000,167.042,13.580,-185.276,464.710,305.776,-102.453,2485.960,193.510,-1305.020
799,48828.286000,197.683,33.697,-132.482,446.317,310.775,-131.801,851.960,-394.490,-1013.020
800,48828.304000,225.359,-13.580,-129.494,438.746,329.923,-140.218,113.960,-759.490,-647.020
801,48828.342000,215.475,21.627,-136.467,421.253,328.113,-170.695,252.960,-979.490,-535.020
802,48828.381000,239.197,27.662,-103.595,404.828,336.087,-198.011,304.960,-955.490,-119.020
803,48828.423000,231.290,3.521,-108.576,392.158,331.542,-222.656,368.960,-802.490,8.980
804,48828.463000,207.568,-50.798,-138.459,383.335,324.186,-244.412,277.960,-683.490,260.980
805,48828.503000,236.232,45.768,-59.767,385.052,304.507,-257.594,226.960,-434.490,642.980
806,48828.543000,262.919,58.845,-10.957,388.923,301.913,-244.895,-1811.040,-170.490,1300.980
807,48828.583000,264.896,45.768,-109.572,404.359,291.967,-218.605,-2474.040,92.510,1556.980
808,48828.623000,242.162,107.128,-50.802,416.999,292.693,-191.104,-1775.040,19.510,1122.980
809,48828.644000,208.556,159.434,-44.825,426.672,290.134,-179.372,-279.040,252.510,241.980
810,48828.684000,286.641,-60.857,-89.650,433.303,277.406,-187.486,1346.960,471.510,221.980
811,48828.719000,289.606,27.662,-87.658,435.127,265.796,-186.759,-233.040,136.510,447.980
812,48828.759000,275.768,15.591,-97.619,438.935,258.196,-181.036,262.960,176.510,147.980
813,48828.799000,244.139,39.733,-102.599,438.937,258.218,-180.055,-129.040,132.510,51.980
814,48828.839000,215.475,12.574,-87.658,442.819,259.248,-179.043,162.960,182.510,77.980
815,48828.879000,232.278,64.880,-83.673,445.758,261.390,-171.144,-204.040,107.510,143.980
816,48828.926000,225.359,15.591,-99.611,447.615,252.736,-168.390,-172.040,79.510,193.980
817,48828.944000,242.162,10.562,-83.673,446.656,252.813,-164.468,-322.040,97.510,206.980
818,48828.984000,247.104,8.550,-80.685,452.451,251.014,-160.573,-35.040,111.510,151.980
819,48829.19000,235.243,-18.609,-74.708,456.243,243.263,-161.718,116.960,90.510,76.980
820,48829.64000,243.151,1.509,-82.677,458.233,249.086,-162.565,392.960,134.510,18.980
821,48829.103000,239.197,29.674,-78.693,459.211,249.203,-157.657,-19.040,38.510,57.980
822,48829.139000,236.232,7.544,-90.646,459.121,239.538,-155.910,362.960,121.510,-45.020
823,48829.179000,248.093,44.762,-81.681,459.162,244.327,-158.746,213.960,129.510,-11.020
824,48829.224000,244.139,0.503,-74.708,463.018,243.351,-160.721,259.960,107.510,-17.020
825,48829.264000,238.208,14.585,-76.700,461.064,241.390,-160.768,227.960,60.510,-38.020
826,48829.279000,246.116,3.521,-80.685,459.089,237.466,-161.840,284.960,29.510,-60.020
827,48829.326000,245.127,0.503,-82.677,460.087,241.295,-164.695,354.960,45.510,-75.020
828,48829.366000,238.208,19.615,-73.712,458.080,234.415,-167.794,373.960,27.510,-92.020
829,48829.407000,235.243,19.615,-78.693,454.206,235.219,-173.668,303.960,-29.490,-77.020
830,48829.441000,239.197,33.697,-82.677,455.166,234.279,-172.707,83.960,-80.490,2.980
831,48829.482000,243.151,-3.521,-84.669,459.055,237.143,-176.557,-28.040,-90.490,28.980
832,48829.522000,238.208,7.544,-68.732,457.093,235.096,-180.530,72.960,-85.490,-33.020
833,48829.562000,242.162,37.721,-94.630,451.293,235.967,-182.484,186.960,-112.490,-80.020
834,48829.602000,240.185,18.609,-92.638,449.306,231.051,-184.559,29.960,-103.490,-66.020
835,48829.622000,219.429,31.686,-108.576,449.370,237.825,-185.389,-39.040,34.510,24.980
836,48829.661000,228.324,16.597,-91.642,455.158,235.962,-184.437,-23.040,159.510,90.980
837,48829.702000,249.081,44.762,-76.700,456.153,237.115,-176.564,-243.040,125.510,155.980
838,48829.742000,254.023,-23.639,-74.708,458.104,238.169,-173.595,-444.040,11.510,146.980
839,48829.782000,242.162,3.521,-68.732,456.176,238.215,-170.656,-437.040,-36.490,3.980
840,48829.822000,247.104,-0.503,-77.696,453.243,234.368,-167.805,-193.040,-10.490,-14.020
841,48829.862000,233.266,29.674,-94.630,454.242,236.448,-161.873,-608.040,-23.490,20.980
842,48829.903000,239.197,23.639,-85.665,454.308,242.360,-157.819,-390.040,66.510,32.980
843,48829.926000,236.232,28.668,-99.611,458.186,241.599,-149.983,-532.040,100.510,112.980
844,48829.964000,243.151,-8.550,-58.770,459.198,244.672,-143.048,-663.040,39.510,150.980
845,48830.1000,237.220,16.597,-59.767,463.133,250.621,-138.985,-171.040,35.510,47.980
846,48830.42000,252.046,-16.597,-75.704,462.170,250.655,-137.025,-152.040,-59.490,-12.020
847,48830.86000,238.208,9.556,-74.708,460.271,254.498,-137.924,150.960,7.510,-112.020
848,48830.123000,239.197,26.656,-79.689,458.284,249.582,-139.999,48.960,10.510,-70.020
849,48830.164000,244.139,10.562,-80.685,459.282,252.526,-138.950,69.960,32.510,-94.020
850,48830.204000,237.220,32.692,-75.704,456.425,257.330,-139.830,-98.040,8.510,-47.020
851,48830.246000,246.116,8.550,-62.755,459.332,257.401,-137.861,57.960,6.510,-82.020
852,48830.264000,239.197,16.597,-67.735,455.500,262.132,-141.687,54.960,-80.490,-137.020
853,48830.306000,245.127,8.550,-73.712,454.493,258.217,-142.757,154.960,-111.490,-177.020
854,48830.341000,242.162,30.680,-77.696,451.626,262.935,-147.561,68.960,-159.490,-193.020
855,48830.381000,250.069,21.627,-79.689,449.701,264.772,-151.447,119.960,-172.490,-215.020
856,48830.422000,250.069,49.792,-83.673,443.038,277.198,-157.070,-45.040,-188.490,-258.020
857,48830.462000,248.093,26.656,-74.708,441.132,280.976,-160.912,50.960,-219.490,-323.020
858,48830.501000,257.977,29.674,-74.708,433.417,284.655,-166.731,23.960,-264.490,-415.020
859,48830.541000,250.069,49.792,-55.782,420.895,292.105,-175.418,186.960,-383.490,-491.020
860,48830.567000,265.884,56.833,-50.802,419.020,299.702,-182.118,113.960,-570.490,-474.020
861,48830.613000,277.745,51.804,-50.802,408.470,312.802,-199.501,209.960,-816.490,-489.020
862,48830.647000,336.062,20.621,-73.712,391.126,322.989,-214.022,-232.040,-1006.490,-391.020
863,48830.687000,285.652,-53.815,-146.428,380.465,326.229,-238.489,706.960,-848.490,-171.020
864,48830.726000,186.811,-5.532,-184.280,379.299,309.348,-255.537,416.960,-671.490,355.980
865,48830.762000,107.737,-42.750,-197.230,384.185,313.387,-250.534,-926.040,-552.490,624.980
866,48830.802000,161.112,-87.010,-94.630,399.473,293.214,-248.007,859.960,352.510,749.980
867,48830.852000,133.436,68.904,-119.533,416.576,260.461,-244.776,1605.960,1410.510,924.980
868,48830.887000,150.239,156.417,-137.463,441.590,240.878,-219.660,391.960,1591.510,676.980
869,48830.907000,211.521,61.862,-122.521,467.721,231.554,-169.799,-1154.040,1565.510,921.980
870,48830.947000,230.301,104.110,-147.424,487.907,207.609,-120.274,-1311.040,1473.510,1002.980
871,48830.988000,271.815,221.800,-81.681,499.491,200.430,-98.834,-1374.040,-7.490,1169.980
872,48831.23000,257.977,63.874,-32.872,507.106,184.346,-83.485,-1905.040,-50.490,852.980
873,48831.63000,287.629,78.963,-35.860,509.007,179.640,-77.701,-698.040,189.510,382.980
874,48831.106000,262.919,89.022,-67.735,509.004,177.849,-70.876,216.960,195.510,-204.020
875,48831.147000,246.116,88.016,-55.782,509.030,180.740,-71.793,383.960,146.510,-537.020
876,48831.183000,228.324,64.880,-83.673,504.353,198.082,-75.340,295.960,70.510,-637.020
877,48831.204000,228.324,151.387,-46.817,494.877,218.376,-74.910,-397.040,94.510,-968.020
878,48831.246000,217.452,73.933,-63.751,488.502,256.454,-61.329,-751.040,237.510,-1202.020
879,48831.286000,238.208,56.833,-62.755,475.167,275.934,-52.099,-460.040,326.510,-1192.020
880,48831.327000,263.907,-1.509,-37.852,466.763,305.169,-42.642,364.960,786.510,-1385.020
881,48831.367000,282.687,16.597,-20.918,444.766,330.281,-38.208,1307.960,1268.510,-1668.020
882,48831.403000,313.328,-42.750,-6.973,422.916,369.136,-26.605,491.960,1203.510,-1555.020
883,48831.443000,276.757,5.532,-15.938,405.768,394.403,-17.254,996.960,1592.510,-1262.020
884,48831.483000,260.942,72.927,-36.856,395.340,410.437,10.538,-13.040,1270.510,-757.020
885,48831.526000,286.641,-58.845,-43.829,399.159,399.428,37.761,-819.040,449.510,321.980
886,48831.546000,241.174,17.603,-22.911,398.198,399.483,40.702,-172.040,-14.490,353.980
887,48831.586000,269.838,-16.597,7.969,411.635,386.260,51.224,-882.040,-369.490,505.980
888,48831.626000,271.815,3.521,-8.965,424.139,378.638,52.062,-656.040,-422.490,712.980
889,48831.666000,278.734,-4.527,-16.934,440.370,354.720,60.391,-1147.040,-776.490,1131.980
890,48831.711000,269.838,-10.562,-20.918,463.207,316.069,57.620,-924.040,-813.490,1414.980
891,48831.746000,258.965,-22.633,-45.821,485.094,280.213,50.006,-484.040,-827.490,1604.980
892,48831.792000,256.988,0.503,-56.778,505.959,240.313,35.435,-611.040,-1072.490,1739.980
893,48831.826000,216.463,53.815,-47.813,516.211,203.222,20.904,-1523.040,-1506.490,1815.980
894,48831.866000,218.440,55.827,-17.930,526.375,159.119,-3.590,-1309.040,-1504.490,1529.980
895,48831.886000,233.266,49.792,-20.918,530.996,142.122,-28.474,-522.040,-1111.490,855.980
896,48831.926000,243.151,104.110,20.918,528.895,128.187,-43.497,206.960,-329.490,55.980
897,48831.966000,290.595,158.428,18.926,528.994,138.824,-45.222,1473.960,209.510,-448.020
898,48832.4000,276.757,133.281,-41.837,523.424,165.671,-57.387,1814.960,72.510,-1109.020
899,48832.44000,229.313,62.868,-110.568,509.212,200.092,-74.305,1741.960,58.510,-1535.020
900,48832.87000,206.579,127.246,-116.545,498.716,218.996,-92.540,2172.960,-302.490,-1676.020
901,48832.127000,195.707,97.069,-105.588,476.664,246.223,-124.344,1039.960,-614.490,-1675.020
902,48832.167000,188.788,53.815,-119.533,453.686,275.597,-146.295,69.960,-734.490,-1251.020
903,48832.187000,206.579,-17.603,-157.385,431.659,303.061,-167.307,206.960,-601.490,-1069.020
904,48832.227000,210.533,-12.574,-125.510,407.609,321.746,-189.498,559.960,-503.490,-999.020
905,48832.268000,251.058,-38.727,2.988,396.955,323.282,-203.216,-88.040,-353.490,-457.020
906,48832.308000,334.085,-58.845,-187.268,407.464,308.025,-195.687,-49.040,891.510,756.980
907,48832.348000,285.652,-1.509,-37.852,415.181,303.483,-184.984,-1822.040,-34.490,767.980
908,48832.389000,294.548,2.515,-46.817,420.025,302.710,-178.126,-45.040,105.510,339.980
909,48832.423000,219.429,70.916,-102.599,425.686,289.067,-183.321,110.960,13.510,376.980
910,48832.463000,279.722,-94.051,-94.630,425.677,288.981,-187.245,344.960,96.510,128.980
911,48832.507000,222.394,66.892,-116.545,429.406,275.340,-191.463,541.960,173.510,-12.020
912,48832.527000,242.162,14.585,-118.537,432.320,276.361,-190.453,229.960,201.510,60.980
913,48832.568000,217.452,124.228,-108.576,433.219,268.668,-187.680,275.960,474.510,112.980
914,48832.603000,269.838,71.921,-72.716,439.081,271.918,-174.847,-113.040,424.510,232.980
915,48832.643000,251.058,14.585,-56.778,445.805,265.360,-167.133,-187.040,196.510,257.980
916,48832.683000,226.347,-29.674,-93.634,449.679,265.441,-165.162,22.960,224.510,154.980
917,48832.732000,237.220,21.627,-64.747,449.558,251.957,-160.558,215.960,230.510,149.980
918,48832.773000,245.127,0.503,-62.755,452.508,256.839,-160.444,501.960,192.510,37.980
919,48832.808000,254.023,36.715,-60.763,456.324,251.958,-163.486,471.960,125.510,-11.020
920,48832.828000,243.151,31.686,-67.735,457.218,245.107,-166.578,276.960,-0.490,-27.020
921,48832.863000,244.139,22.633,-74.708,454.370,250.882,-167.436,193.960,-26.490,-43.020
922,48832.911000,242.162,14.585,-83.673,453.326,243.969,-172.495,289.960,37.510,-37.020
923,48832.949000,240.185,16.597,-68.732,450.409,242.926,-174.486,373.960,67.510,-47.020
924,48832.983000,243.151,13.580,-59.767,452.319,240.939,-177.468,447.960,-8.490,-73.020
925,48833.23000,244.139,16.597,-74.708,452.305,240.809,-183.355,480.960,-50.490,-86.020
926,48833.67000,241.174,11.568,-80.685,452.252,236.775,-190.309,447.960,-58.490,-79.020
927,48833.107000,240.185,37.721,-79.689,449.352,237.653,-193.238,379.960,-84.490,-83.020
928,48833.143000,234.255,20.621,-84.669,448.331,233.609,-200.194,202.960,-140.490,-37.020
929,48833.167000,243.151,25.650,-82.677,448.348,236.414,-205.035,171.960,-134.490,-55.020
930,48833.207000,242.162,19.615,-88.654,445.463,238.306,-205.980,39.960,-160.490,-10.020
931,48833.251000,224.371,8.550,-96.623,444.472,237.196,-211.891,-12.040,-120.490,18.980
932,48833.284000,239.197,14.585,-102.599,443.484,235.223,-212.917,-9.040,-8.490,27.980
933,48833.328000,239.197,23.639,-83.673,444.458,236.182,-213.875,-65.040,50.510,44.980
934,48833.368000,247.104,7.544,-83.673,446.322,227.592,-208.177,-160.040,-15.490,58.980
935,48833.417000,236.232,16.597,-84.669,442.551,238.191,-209.911,-272.040,-55.490,31.980
936,48833.447000,245.127,6.538,-81.681,445.472,239.276,-205.959,-174.040,-50.490,56.980
937,48833.464000,236.232,24.644,-91.642,445.476,239.320,-203.996,-183.040,-6.490,28.980
938,48833.506000,246.116,-8.550,-85.665,443.560,241.242,-203.958,-52.040,9.510,26.980
939,48833.549000,233.266,23.639,-86.661,442.609,242.269,-200.995,-207.040,0.510,56.980
940,48833.589000,242.162,19.615,-79.689,444.499,237.455,-200.117,-103.040,-3.490,37.980
941,48833.629000,238.208,12.574,-83.673,445.525,243.311,-199.004,-222.040,-73.490,59.980
942,48833.672000,243.151,-5.532,-69.728,446.477,242.285,-201.967,-57.040,-90.490,-2.020
943,48833.706000,238.208,17.603,-84.669,443.511,236.367,-205.047,-19.040,-120.490,-33.020
944,48833.746000,242.162,18.609,-85.665,438.719,241.152,-205.931,41.960,-127.490,-54.020
945,48833.789000,226.347,27.662,-102.599,440.675,244.019,-208.805,60.960,-103.490,-48.020
946,48833.809000,240.185,15.591,-102.599,439.727,245.951,-208.765,82.960,-34.490,-48.020
947,48833.849000,233.266,42.750,-107.580,442.612,244.059,-207.820,27.960,36.510,-21.020
948,48833.889000,231.290,9.556,-94.630,441.657,245.042,-206.819,37.960,129.510,7.980
949,48833.929000,241.174,17.603,-83.673,440.660,241.236,-202.983,22.960,137.510,10.980
950,48833.969000,235.243,19.615,-80.685,442.584,240.262,-203.981,21.960,92.510,24.980
951,48834.9000,240.185,18.609,-89.650,446.493,244.205,-202.905,28.960,92.510,24.980
952,48834.48000,241.174,7.544,-81.681,447.395,237.418,-203.054,47.960,78.510,-9.020
953,48834.89000,237.220,20.621,-73.712,448.407,241.376,-200.022,15.960,18.510,-32.020
954,48834.109000,238.208,14.585,-85.665,445.476,238.435,-200.093,106.960,-19.490,-58.020
955,48834.151000,232.278,35.709,-90.646,444.485,236.441,-202.101,-8.040,-21.490,-55.020
956,48834.186000,235.243,38.727,-89.650,440.693,244.191,-200.956,-74.040,-7.490,-55.020
957,48834.228000,242.162,27.662,-89.650,441.710,249.077,-199.865,-175.040,40.510,-51.020
958,48834.269000,241.174,11.568,-76.700,444.624,249.213,-194.953,-276.040,-23.490,-57.020
959,48834.309000,244.139,35.709,-86.661,442.783,258.903,-194.741,-349.040,-46.490,-62.020
960,48834.348000,242.162,4.527,-77.696,437.898,253.117,-190.957,-442.040,-110.490,-74.020
961,48834.384000,236.232,5.532,-86.661,436.109,267.704,-188.676,-304.040,-100.490,-148.020
962,48834.431000,235.243,24.644,-75.704,434.238,273.575,-185.608,-185.040,-76.490,-199.020
963,48834.444000,242.162,39.733,-70.724,430.418,279.298,-188.431,-165.040,-171.490,-275.020
964,48834.484000,260.942,47.780,-65.743,422.676,280.085,-193.333,-135.040,-252.490,-320.020
965,48834.526000,256.000,55.827,-59.767,417.948,291.645,-195.048,-127.040,-421.490,-322.020
966,48834.573000,265.884,72.927,-55.782,410.283,301.969,-207.583,-123.040,-593.490,-291.020
967,48834.607000,267.861,71.921,-64.747,401.630,308.572,-212.358,-295.040,-813.490,-266.020
968,48834.652000,274.780,45.768,-76.700,392.018,317.000,-221.998,-500.040,-942.490,-235.020
969,48834.686000,220.417,40.739,-135.471,384.243,316.580,-237.714,-126.040,-811.490,-280.020
970,48834.727000,193.730,53.815,-151.409,371.722,324.914,-250.304,263.960,-533.490,-380.020
971,48834.767000,132.448,22.633,-183.284,364.021,330.492,-258.042,450.960,-267.490,-359.020
972,48834.787000,120.587,18.609,-182.288,359.194,333.185,-265.838,602.960,116.510,-460.020
973,48834.827000,118.610,31.686,-185.276,355.334,335.002,-269.728,586.960,316.510,-508.020
974,48834.867000,142.332,48.786,-180.296,356.325,336.997,-267.720,290.960,359.510,-504.020
975,48834.907000,171.985,60.857,-149.416,347.566,332.014,-269.811,151.960,262.510,-383.020
976,48834.951000,174.950,72.927,-133.479,344.760,339.947,-260.815,14.960,260.510,-33.020
977,48834.986000,193.730,99.081,-126.506,348.673,343.048,-253.873,-367.040,143.510,184.980
978,48835.26000,222.394,110.145,-109.572,352.544,341.338,-245.077,-577.040,115.510,312.980
979,48835.66000,234.255,112.157,-99.611,357.366,337.718,-235.340,-630.040,140.510,361.980
980,48835.86000,240.185,104.110,-97.619,363.222,340.903,-225.451,-534.040,178.510,298.980
981,48835.127000,229.313,80.974,-87.658,368.011,334.326,-217.741,-202.040,231.510,138.980
982,48835.167000,233.266,69.910,-89.650,370.948,337.332,-214.726,210.960,368.510,-31.020
983,48835.209000,233.266,75.945,-92.638,372.904,338.430,-209.795,293.960,428.510,-73.020
984,48835.249000,223.382,95.057,-80.685,381.620,337.716,-201.947,-257.040,365.510,43.980
985,48835.288000,237.220,83.992,-88.654,385.621,346.944,-181.140,-737.040,287.510,126.980
986,48835.329000,224.371,70.916,-88.654,390.523,351.134,-169.268,-584.040,334.510,70.980
987,48835.371000,223.382,65.886,-83.673,392.474,351.304,-162.396,-204.040,417.510,-28.020
988,48835.411000,220.417,67.898,-86.661,394.469,355.422,-152.494,-14.040,503.510,-102.020
989,48835.431000,221.405,59.851,-80.685,396.438,357.533,-145.578,240.960,587.510,-174.020
990,48835.471000,224.371,63.874,-75.704,398.290,347.951,-140.884,463.960,671.510,-220.020
991,48835.511000,221.405,96.063,-113.556,394.500,355.724,-138.758,329.960,328.510,-198.020
992,48835.547000,235.243,70.916,-62.755,399.365,357.799,-134.779,309.960,340.510,34.980
993,48835.589000,233.266,69.910,-62.755,404.183,355.020,-130.908,-22.040,245.510,127.980
994,48835.627000,247.104,55.827,-53.790,408.973,349.328,-127.101,-114.040,213.510,244.980
995,48835.669000,239.197,84.998,-45.821,411.813,341.719,-121.380,-323.040,161.510,239.980
996,48835.709000,255.012,60.857,-29.883,412.843,345.849,-110.499,-503.040,25.510,183.980
997,48835.736000,248.093,63.874,-35.860,416.708,344.959,-108.549,-104.040,26.510,139.980
998,48835.769000,237.220,64.880,-33.868,418.613,342.044,-109.591,-156.040,-128.490,112.980
999,48835.811000,242.162,52.809,-38.848,418.568,338.095,-112.620,141.960,-140.490,58.980
1000,48835.849000,239.197,61.862,-55.782,419.567,342.808,-119.378,345.960,-138.490,15.980
1001,48835.891000,238.208,78.963,-61.759,414.650,335.836,-125.427,288.960,-150.490,13.980
1002,48835.928000,236.232,76.951,-66.739,415.645,340.505,-134.148,175.960,-132.490,55.980
1003,48835.979000,233.266,67.898,-66.739,420.418,334.662,-137.209,168.960,-101.490,64.980
1004,48836.9000,234.255,67.898,-68.732,420.372,330.693,-141.220,153.960,-63.490,87.980
1005,48836.74000,235.243,67.898,-69.728,415.460,323.763,-145.307,107.960,-41.490,99.980
1006,48836.83000,234.255,64.880,-65.743,421.316,328.717,-143.223,70.960,-23.490,105.980
1007,48836.111000,236.232,62.868,-57.774,423.173,321.832,-148.275,114.960,-24.490,104.980
1008,48836.148000,237.220,57.839,-59.767,424.092,316.966,-149.362,122.960,-51.490,106.980
1009,48836.188000,240.185,53.815,-63.751,425.064,317.903,-151.301,146.960,-63.490,97.980
1010,48836.229000,238.208,54.821,-63.751,427.854,307.165,-155.456,167.960,-70.490,87.980
1011,48836.267000,240.185,59.851,-63.751,421.988,302.125,-161.464,146.960,-93.490,105.980
1012,48836.307000,239.197,50.798,-65.743,430.750,308.898,-166.198,214.960,-86.490,88.980
1013,48836.347000,238.208,51.804,-70.724,427.766,301.923,-173.224,133.960,-136.490,94.980
1014,48836.392000,236.232,54.821,-79.689,430.704,305.813,-174.112,199.960,-110.490,82.980
1015,48836.407000,233.266,50.798,-76.700,431.646,303.816,-177.097,75.960,-93.490,107.980
1016,48836.456000,241.174,51.804,-77.696,431.521,292.058,-182.261,131.960,-61.490,112.980
1017,48836.492000,236.232,49.792,-80.685,428.584,289.052,-185.276,73.960,-59.490,130.980
1018,48836.528000,238.208,44.762,-77.696,435.363,290.067,-186.220,61.960,-60.490,138.980
1019,48836.572000,238.208,41.745,-78.693,435.321,286.141,-188.269,87.960,-58.490,136.980
1020,48836.616000,236.232,43.756,-76.700,436.256,283.195,-190.293,48.960,-69.490,142.980
1021,48836.649000,237.220,39.733,-82.677,439.991,269.619,-191.567,113.960,-57.490,136.980
1022,48836.688000,236.232,33.697,-85.665,438.085,273.397,-195.410,129.960,-41.490,127.980
1023,48836.718000,233.266,40.739,-86.661,440.023,274.322,-198.328,98.960,-16.490,149.980
1024,48836.748000,233.266,35.709,-88.654,446.762,271.432,-200.339,-10.040,-5.490,175.980
1025,48836.788000,238.208,28.668,-78.693,450.544,261.826,-197.602,21.960,4.510,159.980
1026,48836.834000,239.197,31.686,-88.654,447.590,256.016,-195.776,103.960,54.510,140.980
1027,48836.868000,241.174,25.650,-79.689,448.510,252.055,-199.785,95.960,72.510,135.980
1028,48836.911000,239.197,26.656,-77.696,449.517,255.085,-194.812,99.960,69.510,127.980
1029,48836.947000,239.197,16.597,-72.716,454.322,252.177,-196.828,153.960,55.510,99.980
1030,48836.991000,245.127,19.615,-75.704,457.172,247.307,-198.891,108.960,6.510,68.980
1031,48837.32000,241.174,16.597,-78.693,452.269,240.464,-199.053,36.960,-33.490,40.980
1032,48837.48000,241.174,22.633,-81.681,453.279,245.285,-200.905,31.960,-31.490,28.980
1033,48837.88000,240.185,21.627,-80.685,456.191,246.284,-200.877,-5.040,-26.490,30.980
1034,48837.131000,240.185,16.597,-79.689,453.270,244.314,-200.927,21.960,-26.490,26.980
1035,48837.168000,238.208,15.591,-79.689,454.266,247.236,-200.860,5.960,-31.490,14.980
1036,48837.209000,242.162,18.609,-84.669,458.065,240.435,-202.964,-12.040,-39.490,-3.020
1037,48837.267000,241.174,17.603,-85.665,451.291,240.347,-203.961,-29.040,-17.490,-24.020
1038,48837.327000,238.208,17.603,-82.677,456.198,247.233,-201.837,-38.040,-12.490,-47.020
1039,48837.343000,241.174,16.597,-81.681,453.339,252.016,-203.698,-39.040,-10.490,-77.020
1040,48837.349000,243.151,20.621,-85.665,456.264,254.029,-201.686,-28.040,4.510,-95.020
1041,48837.391000,241.174,20.621,-81.681,452.385,253.021,-201.716,-34.040,15.510,-118.020
1042,48837.431000,240.185,26.656,-82.677,448.520,253.026,-199.763,-26.040,26.510,-138.020
1043,48837.478000,239.197,30.680,-81.681,447.656,263.696,-199.528,-47.040,29.510,-144.020
1044,48837.518000,236.232,33.697,-78.693,449.624,266.671,-197.497,-43.040,30.510,-141.020
1045,48837.552000,240.185,29.674,-82.677,446.752,269.577,-196.457,22.960,47.510,-145.020
1046,48837.589000,240.185,31.686,-78.693,439.952,266.598,-196.538,-48.040,38.510,-140.020
1047,48837.632000,239.197,34.703,-75.704,441.966,274.427,-194.398,-77.040,27.510,-143.020
1048,48837.672000,238.208,35.709,-76.700,441.018,276.359,-194.358,-54.040,21.510,-165.020
1049,48837.692000,237.220,39.733,-77.696,436.228,281.167,-194.261,-78.040,21.510,-162.020
1050,48837.733000,237.220,44.762,-80.685,438.235,288.046,-191.162,-67.040,42.510,-151.020
1051,48837.773000,237.220,48.786,-81.681,435.368,290.995,-188.161,-83.040,55.510,-133.020
1052,48837.808000,234.255,43.756,-76.700,435.292,282.344,-184.430,-113.040,61.510,-124.020
1053,48837.848000,236.232,44.762,-72.716,430.645,300.851,-179.126,-93.040,65.510,-111.020
1054,48837.888000,238.208,49.792,-69.728,427.682,294.954,-181.224,-109.040,54.510,-103.020
1055,48837.928000,239.197,49.792,-69.728,431.610,299.954,-176.202,-118.040,40.510,-103.020
1056,48837.968000,238.208,51.804,-71.720,429.727,304.833,-174.136,-105.040,44.510,-103.020
1057,48837.988000,235.243,57.839,-72.716,430.642,299.060,-172.301,-118.040,51.510,-91.020
1058,48838.28000,234.255,53.815,-72.716,427.836,307.877,-167.208,-119.040,69.510,-74.020
1059,48838.68000,236.232,53.815,-68.732,426.833,304.006,-166.315,-109.040,97.510,-64.020
1060,48838.109000,237.220,54.821,-67.735,423.041,310.872,-161.268,-86.040,110.510,-63.020
1061,48838.149000,237.220,57.839,-65.743,425.015,314.796,-160.196,-60.040,122.510,-62.020
1062,48838.189000,240.185,61.862,-69.728,423.991,308.077,-156.424,-75.040,133.510,-58.020
1063,48838.229000,241.174,61.862,-70.724,424.061,314.032,-150.408,-136.040,165.510,-39.020
1064,48838.277000,239.197,62.868,-58.770,427.994,319.075,-143.423,-146.040,198.510,-34.020
1065,48838.312000,242.162,58.845,-51.798,427.051,320.187,-136.536,-170.040,171.510,-46.020
1066,48838.332000,240.185,52.809,-42.833,426.062,317.330,-133.659,-99.040,123.510,-73.020
1067,48838.372000,237.220,56.833,-48.809,425.191,327.051,-132.465,-50.040,77.510,-96.020
1068,48838.412000,238.208,64.880,-51.798,421.281,322.223,-129.638,-61.040,66.510,-101.020
1069,48838.452000,238.208,64.880,-47.813,417.522,332.930,-126.466,-92.040,46.510,-96.020
1070,48838.489000,239.197,63.874,-50.802,423.341,334.000,-124.469,-75.040,36.510,-90.020
1071,48838.544000,240.185,67.898,-50.802,418.496,333.004,-123.521,-68.040,39.510,-84.020
1072,48838.573000,237.220,71.921,-51.798,418.501,333.047,-121.559,-95.040,49.510,-67.020
1073,48838.611000,238.208,68.904,-49.805,415.678,339.944,-115.527,-123.040,47.510,-59.020
1074,48838.651000,239.197,67.898,-46.817,416.636,338.983,-115.547,-121.040,39.510,-47.020
1075,48838.671000,239.197,69.910,-45.821,417.672,345.810,-114.412,-114.040,29.510,-41.020
1076,48838.714000,238.208,68.904,-44.825,416.687,342.996,-109.574,-74.040,13.510,-42.020
1077,48838.758000,237.220,69.910,-44.825,414.757,343.904,-111.519,-72.040,3.510,-38.020
1078,48838.794000,241.174,73.933,-46.817,417.610,338.172,-108.698,-55.040,-6.490,-31.020
1079,48838.829000,240.185,73.933,-46.817,416.746,348.842,-108.463,-34.040,-1.490,-14.020
1080,48838.869000,237.220,72.927,-48.809,412.846,345.871,-109.518,-58.040,2.510,-5.020
1081,48838.915000,238.208,71.921,-43.829,415.736,344.906,-110.514,-42.040,1.510,-4.020
1082,48838.949000,237.220,71.921,-43.829,413.796,343.960,-108.578,-13.040,-9.490,-5.020
1083,48838.970000,239.197,72.927,-46.817,415.715,342.058,-107.635,8.960,-16.490,-1.020
1084,48839.23000,237.220,73.933,-46.817,412.883,349.754,-109.432,5.960,-20.490,5.980
1085,48839.49000,234.255,74.939,-47.813,415.814,352.695,-109.360,-8.040,-25.490,15.980
1086,48839.94000,237.220,75.945,-45.821,416.732,347.828,-110.447,-2.040,-28.490,27.980
1087,48839.133000,237.220,73.933,-49.805,412.858,347.747,-112.418,0.960,-22.490,39.980
1088,48839.174000,235.243,72.927,-48.809,414.717,339.999,-112.586,-2.040,-20.490,44.980
1089,48839.209000,239.197,68.904,-45.821,416.675,342.003,-110.576,8.960,-24.490,48.980
1090,48839.251000,237.220,70.916,-46.817,417.657,343.027,-108.590,41.960,-25.490,49.980
1091,48839.292000,239.197,69.910,-46.817,417.634,341.926,-114.499,47.960,-44.490,49.980
1092,48839.314000,238.208,66.892,-45.821,416.626,338.012,-115.568,57.960,-58.490,51.980
1093,48839.353000,237.220,68.904,-46.817,415.648,337.895,-120.476,60.960,-76.490,59.980
1094,48839.398000,236.232,68.904,-51.798,415.582,331.099,-120.627,69.960,-72.490,66.980
1095,48839.433000,237.220,66.892,-50.802,417.588,338.841,-122.412,57.960,-75.490,70.980
1096,48839.474000,239.197,66.892,-54.786,419.474,334.869,-127.400,73.960,-76.490,72.980
1097,48839.510000,238.208,63.874,-52.794,418.407,325.107,-129.580,77.960,-75.490,76.980
1098,48839.550000,236.232,64.880,-53.790,417.468,328.011,-129.518,93.960,-76.490,86.980
1099,48839.591000,237.220,63.874,-54.786,423.243,326.018,-134.453,109.960,-77.490,91.980
1100,48839.631000,242.162,57.839,-53.790,425.157,324.958,-139.376,147.960,-72.490,94.980
1101,48839.651000,238.208,59.851,-57.774,423.149,318.078,-142.475,163.960,-82.490,94.980
1102,48839.694000,235.243,60.857,-57.774,424.115,318.951,-147.357,183.960,-94.490,94.980
1103,48839.734000,238.208,57.839,-59.767,426.916,309.206,-150.509,166.960,-106.490,99.980
1104,48839.774000,238.208,54.821,-60.763,425.012,313.005,-153.371,183.960,-111.490,96.980
1105,48839.816000,238.208,56.833,-62.755,427.859,308.978,-161.299,205.960,-118.490,94.980
1106,48839.851000,238.208,57.839,-66.739,425.875,304.968,-166.296,185.960,-123.490,95.980
1107,48839.891000,236.232,50.798,-73.712,433.535,298.118,-172.316,237.960,-93.490,92.980
1108,48839.932000,237.220,53.815,-72.716,433.507,296.090,-176.284,155.960,-85.490,109.980
1109,48839.952000,241.174,50.798,-75.704,430.563,292.135,-178.339,115.960,-64.490,123.980
1110,48839.997000,237.220,47.780,-69.728,434.461,295.085,-178.265,110.960,-54.490,132.980
1111,48840.31000,238.208,42.750,-72.716,436.356,292.083,-183.231,119.960,-52.490,125.980
1112,48840.72000,241.174,45.768,-75.704,439.150,281.389,-185.424,127.960,-53.490,127.980
1113,48840.113000,237.220,39.733,-77.696,435.236,276.519,-184.560,71.960,-53.490,126.980
1114,48840.154000,241.174,37.721,-71.720,439.066,273.536,-189.521,79.960,-52.490,131.980
1115,48840.196000,237.220,32.692,-75.704,439.059,273.471,-192.465,126.960,-42.490,114.980
1116,48840.237000,241.174,37.721,-78.693,440.961,270.534,-194.487,66.960,-52.490,118.980
1117,48840.284000,240.185,31.686,-80.685,444.829,270.550,-195.459,80.960,-27.490,116.980
1118,48840.296000,238.208,35.709,-75.704,444.779,265.674,-196.548,58.960,-21.490,110.980
1119,48840.336000,239.197,28.668,-77.696,443.798,264.651,-198.534,76.960,-24.490,109.980
1120,48840.371000,238.208,30.680,-80.685,449.591,262.831,-195.620,53.960,-22.490,111.980
1121,48840.416000,239.197,33.697,-80.685,445.625,253.947,-200.729,7.960,-12.490,119.980
1122,48840.456000,241.174,23.639,-77.696,449.450,249.152,-199.847,17.960,4.510,120.980
1123,48840.498000,239.197,26.656,-75.704,451.441,254.996,-199.713,-26.040,-5.490,118.980
