Sample, Time, ACCX, ACCY, ACCZ, MAGX, MAGY, MAGZ, GYRX, GYRY, GYRZ
0,48232.942000,234.255,52.809,-87.658,389.973,301.836,-204.687,-5.040,-10.490,26.980
1,48232.983000,235.243,48.786,-84.669,389.015,301.913,-200.765,-9.040,-11.490,24.980
2,48233.23000,231.290,48.786,-84.669,391.861,297.000,-204.790,-1.040,-12.490,22.980
3,48233.59000,232.278,48.786,-86.661,389.938,297.974,-203.792,10.960,-6.490,19.980
4,48233.104000,235.243,49.792,-84.669,389.961,299.959,-201.787,15.960,-6.490,18.980
5,48233.139000,233.266,49.792,-84.669,389.907,294.155,-200.935,7.960,-5.490,17.980
6,48233.181000,233.266,47.780,-87.658,387.021,296.932,-205.783,14.960,-5.490,14.980
7,48233.221000,233.266,47.780,-88.654,390.919,298.997,-201.806,27.960,-0.490,15.980
8,48233.241000,231.290,54.821,-87.658,390.879,295.092,-202.873,12.960,-4.490,21.980
9,48233.281000,233.266,48.786,-86.661,390.898,297.919,-206.733,22.960,2.510,23.980
10,48233.322000,234.255,49.792,-85.665,393.824,299.932,-204.721,14.960,-1.490,28.980
11,48233.362000,235.243,47.780,-83.673,394.792,299.941,-204.719,10.960,-6.490,28.980
12,48233.402000,233.266,48.786,-83.673,392.786,293.083,-206.837,20.960,-7.490,30.980
13,48233.442000,234.255,42.750,-85.665,391.868,297.950,-205.750,24.960,-10.490,36.980
14,48233.484000,229.313,52.809,-86.661,391.753,286.278,-206.990,201.960,27.510,21.980
15,48233.520000,237.220,42.750,-95.626,391.807,292.081,-207.842,87.960,15.510,60.980
16,48233.541000,226.347,52.809,-86.661,395.644,289.163,-209.860,74.960,38.510,79.980
17,48233.581000,237.220,50.798,-87.658,397.546,286.226,-211.882,209.960,80.510,81.980
18,48233.624000,230.301,50.798,-86.661,395.609,285.301,-208.965,31.960,56.510,131.980
19,48233.661000,232.278,41.745,-80.685,401.362,280.460,-211.021,-16.040,26.510,146.980
20,48233.707000,228.324,44.762,-78.693,404.212,274.707,-209.182,-39.040,-31.490,155.980
21,48233.742000,233.266,42.750,-87.658,405.208,277.629,-209.115,-29.040,-33.490,145.980
22,48233.782000,238.208,29.674,-88.654,406.137,273.755,-209.199,87.960,-13.490,129.980
23,48233.821000,240.185,31.686,-87.658,410.899,266.035,-209.360,5.960,-33.490,132.980
24,48233.861000,238.208,29.674,-84.669,407.988,265.920,-213.291,63.960,-16.490,105.980
25,48233.881000,236.232,29.674,-88.654,411.865,266.907,-214.242,114.960,-11.490,72.980
26,48233.921000,238.208,22.633,-89.650,409.894,263.027,-213.352,-3.040,-30.490,61.980
27,48233.961000,231.290,31.686,-86.661,409.899,263.954,-215.292,14.960,-9.490,45.980
28,48234.6000,236.232,25.650,-89.650,415.687,262.091,-214.341,-0.040,7.510,41.980
29,48234.41000,233.266,24.644,-84.669,416.629,259.209,-213.422,2.960,7.510,32.980
30,48234.82000,235.243,25.650,-87.658,412.747,258.179,-214.434,7.960,2.510,30.980
31,48234.121000,235.243,28.668,-84.669,413.766,263.086,-212.362,-5.040,-2.490,26.980
32,48234.162000,240.185,27.662,-84.669,415.687,262.091,-214.341,28.960,-14.490,18.980
33,48234.182000,236.232,29.674,-91.642,415.678,261.120,-214.362,-0.040,-20.490,14.980
34,48234.224000,234.255,27.662,-86.661,411.787,259.119,-215.396,-29.040,-21.490,9.980
35,48234.262000,240.185,25.650,-84.669,414.586,248.468,-215.626,14.960,-13.490,-0.020
36,48234.303000,234.255,25.650,-87.658,410.763,253.284,-215.527,2.960,-24.490,-6.020
37,48234.344000,236.232,25.650,-87.658,413.724,259.159,-214.410,-16.040,-26.490,-6.020
38,48234.384000,233.266,28.668,-87.658,412.750,259.085,-217.356,-2.040,-19.490,-12.020
39,48234.423000,234.255,26.656,-86.661,411.820,262.959,-217.272,-28.040,-28.490,-8.020
40,48234.464000,235.243,23.639,-91.642,412.727,257.100,-219.361,13.960,-20.490,-28.020
41,48234.504000,233.266,29.674,-86.661,407.929,260.958,-218.305,-25.040,-36.490,-33.020
42,48234.524000,234.255,31.686,-94.630,407.934,261.001,-216.343,-20.040,-16.490,-30.020
43,48234.564000,238.208,28.668,-90.646,410.869,264.870,-218.212,-32.040,5.510,-32.020
44,48234.604000,235.243,29.674,-85.665,408.899,260.989,-217.322,-16.040,5.510,-32.020
45,48234.644000,236.232,28.668,-90.646,408.010,269.653,-220.073,-10.040,4.510,-36.020
46,48234.684000,237.220,29.674,-89.650,412.790,262.990,-216.288,-43.040,4.510,-29.020
47,48234.724000,238.208,31.686,-87.658,407.035,267.810,-215.213,-33.040,7.510,-40.020
48,48234.764000,237.220,33.697,-90.646,408.943,264.937,-214.292,-43.040,1.510,-40.020
49,48234.806000,236.232,36.715,-90.646,408.056,273.623,-216.062,-40.040,12.510,-39.020
50,48234.826000,236.232,32.692,-87.658,407.049,268.824,-213.229,-24.040,20.510,-41.020
51,48234.866000,236.232,34.703,-87.658,405.151,272.688,-213.147,-62.040,7.510,-37.020
52,48234.906000,235.243,34.703,-86.661,408.089,275.694,-210.132,-52.040,5.510,-36.020
53,48234.945000,235.243,35.709,-85.665,405.189,275.687,-209.158,-74.040,2.510,-33.020
54,48234.986000,236.232,35.709,-83.673,408.105,277.614,-211.070,-52.040,-1.490,-38.020
55,48235.22000,236.232,33.697,-89.650,404.241,278.504,-213.020,-27.040,-4.490,-44.020
56,48235.63000,234.255,41.745,-89.650,400.330,273.677,-210.193,-72.040,-4.490,-40.020
57,48235.103000,235.243,34.703,-85.665,403.313,281.515,-208.052,-48.040,0.510,-53.020
58,48235.142000,233.266,40.739,-84.669,400.469,287.333,-206.948,-59.040,-11.490,-57.020
59,48235.162000,237.220,36.715,-85.665,405.313,287.445,-203.993,-49.040,-16.490,-65.020
60,48235.202000,236.232,44.762,-87.658,399.473,284.411,-207.015,-51.040,-15.490,-74.020
61,48235.242000,236.232,41.745,-86.661,396.564,283.434,-206.062,-42.040,-8.490,-77.020
62,48235.282000,233.266,42.750,-88.654,392.664,280.462,-207.117,-38.040,-3.490,-82.020
63,48235.326000,234.255,45.768,-87.658,395.695,293.176,-203.886,-40.040,0.510,-81.020
64,48235.364000,233.266,41.745,-84.669,395.676,291.234,-203.930,-39.040,1.510,-84.020
65,48235.404000,232.278,48.786,-84.669,394.695,289.326,-202.013,-25.040,1.510,-83.020
66,48235.446000,232.278,49.792,-89.650,393.805,297.990,-204.764,-31.040,-4.490,-73.020
67,48235.486000,232.278,52.809,-89.650,388.964,297.900,-206.738,-37.040,-2.490,-65.020
68,48235.506000,232.278,51.804,-86.661,387.925,290.167,-204.950,-48.040,-6.490,-58.020
69,48235.546000,232.278,55.827,-86.661,386.080,298.929,-202.798,-73.040,-14.490,-51.020
70,48235.586000,232.278,51.804,-87.658,389.024,302.884,-200.743,-90.040,-16.490,-39.020
71,48235.625000,233.266,50.798,-84.669,388.984,298.978,-201.810,-51.040,-0.490,-41.020
72,48235.667000,232.278,52.809,-83.673,391.006,306.872,-196.728,-59.040,1.510,-34.020
73,48235.703000,229.313,51.804,-82.677,387.094,302.908,-198.785,-49.040,3.510,-32.020
74,48235.742000,232.278,55.827,-84.669,388.108,307.772,-198.675,-43.040,4.510,-30.020
75,48235.783000,233.266,53.815,-83.673,390.078,310.768,-195.663,-65.040,-7.490,-22.020
76,48235.803000,233.266,53.815,-83.673,388.106,307.750,-199.656,-41.040,-8.490,-26.020
77,48235.842000,231.290,56.833,-84.669,385.164,303.817,-200.730,-29.040,-10.490,-21.020
78,48235.884000,231.290,57.839,-85.665,386.168,306.825,-196.739,-41.040,-7.490,-13.020
79,48235.926000,230.301,52.809,-82.677,387.197,313.587,-198.548,-38.040,-6.490,-10.020
80,48235.966000,231.290,56.833,-83.673,385.279,314.604,-195.588,-17.040,-2.490,-9.020
81,48236.3000,233.266,55.827,-82.677,387.214,315.507,-199.486,-22.040,-11.490,-6.020
82,48236.43000,232.278,58.845,-85.665,383.308,310.723,-194.697,-17.040,-10.490,-5.020
83,48236.83000,232.278,53.815,-82.677,383.325,313.528,-199.538,-19.040,-14.490,-4.020
84,48236.124000,231.290,55.827,-84.669,387.207,314.558,-198.526,2.960,-13.490,-6.020
85,48236.146000,231.290,57.839,-83.673,385.276,314.582,-196.569,-3.040,-16.490,-3.020
86,48236.185000,233.266,57.839,-86.661,385.253,311.713,-194.671,7.960,-10.490,-5.020
87,48236.225000,231.290,56.833,-85.665,384.250,308.726,-197.681,-3.040,-4.490,-1.020
88,48236.266000,231.290,58.845,-83.673,384.252,308.748,-196.700,5.960,4.510,-2.020
89,48236.305000,233.266,57.839,-84.669,382.280,304.845,-196.791,8.960,5.510,2.980
90,48236.347000,232.278,57.839,-85.665,382.365,313.583,-196.597,3.960,0.510,2.980
91,48236.387000,231.290,56.833,-86.661,383.259,306.732,-199.689,3.960,0.510,4.980
92,48236.427000,232.278,57.839,-83.673,383.292,309.688,-197.662,-15.040,-5.490,6.980
93,48236.447000,235.243,55.827,-82.677,385.218,308.736,-197.679,-8.040,-5.490,6.980
94,48236.487000,230.301,54.821,-86.661,384.276,310.733,-194.695,-2.040,-4.490,6.980
95,48236.524000,231.290,58.845,-84.669,385.276,314.582,-196.569,0.960,-1.490,3.980
96,48236.564000,230.301,55.827,-86.661,384.295,313.559,-198.555,-10.040,-0.490,6.980
97,48236.604000,232.278,56.833,-82.677,385.201,306.816,-196.741,-9.040,2.510,9.980
98,48236.644000,233.266,56.833,-83.673,384.257,308.791,-194.738,-11.040,1.510,11.980
99,48236.684000,233.266,57.839,-82.677,386.213,310.773,-193.709,-13.040,0.510,11.980
100,48236.724000,231.290,57.839,-85.665,384.330,316.536,-195.547,5.960,-0.490,10.980
101,48236.764000,232.278,58.845,-86.661,383.337,313.636,-194.632,-3.040,-4.490,13.980
102,48236.784000,231.290,54.821,-82.677,386.227,312.672,-195.628,-9.040,-4.490,13.980
103,48236.823000,233.266,56.833,-83.673,384.226,305.857,-195.784,-4.040,-6.490,15.980
104,48236.866000,235.243,57.839,-83.673,384.269,310.668,-197.638,6.960,-4.490,13.980
105,48236.906000,232.278,56.833,-86.661,387.190,312.638,-197.588,-0.040,-7.490,13.980
106,48236.946000,231.290,55.827,-85.665,385.239,310.699,-196.655,-1.040,-8.490,13.980
107,48236.987000,231.290,57.839,-83.673,390.059,308.826,-195.706,12.960,-1.490,12.980
108,48237.26000,233.266,55.827,-86.661,384.208,303.915,-195.827,0.960,-0.490,16.980
109,48237.64000,231.290,55.827,-83.673,386.185,308.745,-197.677,7.960,0.510,16.980
110,48237.84000,232.278,54.821,-83.673,389.116,311.686,-197.606,10.960,-2.490,18.980
111,48237.126000,232.278,54.821,-83.673,388.139,310.706,-197.629,-22.040,-24.490,27.980
112,48237.166000,232.278,52.809,-85.665,389.036,303.876,-199.740,-6.040,-11.490,9.980
113,48237.206000,229.313,52.809,-87.658,385.210,307.786,-196.720,0.960,-0.490,3.980
114,48237.246000,232.278,54.821,-81.681,386.131,302.941,-196.825,25.960,3.510,2.980
115,48237.287000,235.243,54.821,-84.669,384.264,309.740,-195.698,11.960,-0.490,3.980
116,48237.327000,235.243,54.821,-84.669,390.029,305.892,-196.752,-1.040,-2.490,1.980
117,48237.366000,233.266,55.827,-83.673,385.161,302.910,-197.809,0.960,-3.490,-0.020
118,48237.405000,232.278,55.827,-86.661,383.259,305.847,-195.786,10.960,-5.490,0.980
119,48237.427000,233.266,52.809,-83.673,386.188,309.651,-200.599,16.960,-4.490,0.980
120,48237.466000,231.290,54.821,-84.669,388.103,306.844,-196.734,-4.040,-10.490,6.980
121,48237.506000,233.266,53.815,-85.665,387.141,307.762,-198.677,2.960,-6.490,2.980
122,48237.548000,231.290,52.809,-82.677,388.127,309.713,-198.632,-0.040,-8.490,2.980
123,48237.588000,232.278,56.833,-87.658,388.049,301.925,-199.786,2.960,-3.490,5.980
124,48237.627000,232.278,54.821,-85.665,385.131,299.976,-198.854,-2.040,0.510,7.980
125,48237.668000,232.278,54.821,-84.669,388.077,303.953,-195.818,-9.040,1.510,10.980
126,48237.708000,232.278,53.815,-84.669,386.124,302.877,-199.769,-13.040,-7.490,15.980
127,48237.748000,232.278,54.821,-84.669,387.148,308.711,-199.637,-2.040,-8.490,7.980
128,48237.768000,231.290,53.815,-84.669,389.026,302.905,-199.762,-5.040,-7.490,10.980
129,48237.808000,230.301,53.815,-85.665,389.036,303.876,-199.740,2.960,-4.490,6.980
130,48237.843000,231.290,55.827,-86.661,388.115,308.721,-199.635,-11.040,-8.490,10.980
131,48237.884000,230.301,53.815,-85.665,390.065,310.638,-201.549,-2.040,-5.490,7.980
132,48237.924000,233.266,53.815,-83.673,388.038,300.932,-200.788,-3.040,-4.490,6.980
133,48237.966000,235.243,53.815,-83.673,388.146,311.655,-198.589,4.960,-4.490,3.980
134,48238.7000,234.255,53.815,-84.669,387.118,305.777,-200.683,-5.040,-6.490,2.980
135,48238.44000,232.278,55.827,-85.665,383.264,307.660,-201.630,1.960,-6.490,0.980
136,48238.69000,232.278,51.804,-84.669,389.097,310.629,-201.552,-4.040,-6.490,0.980
137,48238.104000,233.266,52.809,-84.669,388.082,304.880,-197.759,6.960,-2.490,2.980
138,48238.145000,233.266,53.815,-86.661,387.038,297.967,-202.818,1.960,-1.490,4.980
139,48238.184000,230.301,52.809,-84.669,390.003,303.885,-199.738,-4.040,-4.490,7.980
140,48238.224000,233.266,54.821,-85.665,385.145,301.875,-200.774,-2.040,-7.490,8.980
141,48238.264000,231.290,54.821,-87.658,386.148,305.746,-201.666,-0.040,-3.490,8.980
142,48238.308000,231.290,52.809,-87.658,387.148,308.711,-199.637,3.960,-1.490,8.980
143,48238.347000,231.290,55.827,-84.669,388.059,302.896,-199.764,5.960,-5.490,6.980
144,48238.388000,234.255,54.821,-85.665,384.203,303.872,-197.789,0.960,-7.490,8.980
145,48238.408000,232.278,54.821,-85.665,387.118,305.777,-200.683,4.960,-3.490,7.980
146,48238.446000,230.301,54.821,-87.658,385.183,305.758,-200.687,-1.040,-1.490,10.980
147,48238.494000,233.266,51.804,-83.673,384.199,303.829,-199.752,-2.040,-3.490,12.980
148,48238.528000,233.266,53.815,-84.669,386.136,303.869,-198.766,-0.040,-0.490,11.980
149,48238.569000,232.278,52.809,-83.673,385.140,301.832,-202.736,1.960,-1.490,9.980
150,48238.609000,233.266,53.815,-85.665,386.136,304.754,-202.669,-1.040,-4.490,13.980
151,48238.651000,233.266,54.821,-87.658,388.080,305.744,-202.643,3.960,-1.490,11.980
152,48238.686000,230.301,52.809,-86.661,390.994,306.764,-201.633,2.960,-2.490,11.980
153,48238.706000,231.290,52.809,-85.665,390.025,306.733,-202.617,-4.040,-6.490,14.980
154,48238.745000,233.266,50.798,-85.665,390.952,301.953,-199.779,-4.040,-5.490,15.980
155,48238.786000,232.278,51.804,-83.673,388.002,297.070,-199.894,-6.040,-1.490,14.980
156,48238.825000,234.255,51.804,-84.669,386.084,298.972,-200.836,-6.040,-2.490,14.980
157,48238.866000,232.278,51.804,-85.665,387.109,305.691,-204.607,2.960,-3.490,13.980
158,48238.906000,232.278,50.798,-84.669,387.042,298.010,-200.855,-0.040,-6.490,12.980
159,48238.946000,233.266,50.798,-85.665,388.994,299.949,-201.789,9.960,-6.490,10.980
160,48238.986000,232.278,50.798,-82.677,388.043,301.860,-202.729,13.960,-2.490,11.980
161,48239.29000,234.255,52.809,-84.669,386.157,306.717,-201.645,11.960,-10.490,24.980
162,48239.49000,231.290,51.804,-85.665,390.943,301.867,-203.704,4.960,-12.490,28.980
163,48239.89000,231.290,50.798,-86.661,391.002,307.714,-202.593,24.960,-3.490,22.980
164,48239.125000,232.278,50.798,-84.669,391.861,297.000,-204.790,2.960,-6.490,26.980
165,48239.166000,233.266,46.774,-85.665,386.063,297.008,-201.860,11.960,-6.490,20.980
166,48239.206000,231.290,50.798,-84.669,391.870,297.087,-200.866,-5.040,-7.490,21.980
167,48239.247000,232.278,49.792,-89.650,389.988,303.734,-206.606,-5.040,-7.490,22.980
168,48239.288000,231.290,48.786,-84.669,391.899,300.884,-204.704,-8.040,-9.490,21.980
169,48239.328000,232.278,48.786,-84.669,391.814,292.146,-204.898,4.960,-7.490,20.980
170,48239.348000,234.255,49.792,-86.661,389.938,297.974,-203.792,2.960,-5.490,23.980
171,48239.389000,233.266,49.792,-87.658,390.922,299.903,-204.728,7.960,-4.490,26.980
172,48239.427000,228.324,56.833,-83.673,390.903,297.962,-204.771,-8.040,-10.490,45.980
173,48239.467000,231.290,50.798,-86.661,391.856,296.073,-202.850,51.960,11.510,43.980
174,48239.506000,235.243,42.750,-87.658,393.741,291.216,-203.934,31.960,9.510,42.980
175,48239.549000,233.266,43.756,-84.669,395.667,291.148,-207.854,36.960,8.510,40.980
176,48239.591000,235.243,49.792,-82.677,397.649,295.137,-203.839,45.960,2.510,30.980
177,48239.626000,236.232,43.756,-76.700,394.709,292.110,-207.835,81.960,-6.490,29.980
178,48239.666000,232.278,46.774,-88.654,397.541,285.299,-209.941,357.960,74.510,24.980
179,48239.687000,235.243,22.633,-92.638,396.562,284.297,-210.946,67.960,33.510,79.980
180,48239.731000,226.347,56.833,-96.623,395.604,285.258,-210.927,277.960,174.510,66.980
181,48239.771000,246.116,32.692,-83.673,402.338,281.441,-210.998,179.960,163.510,99.980
182,48239.808000,249.081,21.627,-72.716,406.175,277.638,-209.113,139.960,136.510,81.980
183,48239.848000,248.093,16.597,-71.720,407.135,276.698,-208.151,155.960,110.510,22.980
184,48239.889000,242.162,15.591,-76.700,405.153,271.825,-208.263,82.960,58.510,-69.020
185,48239.929000,235.243,24.644,-84.669,404.252,278.612,-208.114,236.960,88.510,-160.020
186,48239.967000,239.197,52.809,-68.732,403.292,279.552,-209.076,158.960,18.510,-152.020
187,48239.987000,237.220,55.827,-76.700,399.438,281.434,-210.023,-13.040,-121.490,-133.020
188,48240.27000,222.394,55.827,-65.743,398.507,286.171,-214.823,-92.040,-190.490,-122.020
189,48240.67000,226.347,58.845,-69.728,393.613,281.183,-218.867,-47.040,-207.490,-25.020
190,48240.110000,217.452,54.821,-113.556,393.616,281.205,-217.886,19.960,-130.490,-41.020
191,48240.151000,217.452,50.798,-112.560,392.620,279.167,-221.856,55.960,95.510,-82.020
192,48240.185000,236.232,66.892,-86.661,389.847,290.941,-214.736,-111.040,121.510,-75.020
193,48240.227000,236.232,41.745,-63.751,387.886,288.031,-213.824,-119.040,-10.490,-120.020
194,48240.267000,235.243,55.827,-82.677,387.889,288.937,-216.746,17.960,-5.490,-161.020
195,48240.307000,233.266,42.750,-79.689,381.145,291.783,-216.697,138.960,-6.490,-184.020
196,48240.326000,237.220,30.680,-70.724,381.237,301.470,-217.462,-64.040,-145.490,-252.020
197,48240.367000,231.290,47.780,-66.739,373.550,308.062,-223.216,-77.040,-284.490,-358.020
198,48240.409000,207.568,42.750,-41.837,363.907,312.671,-229.999,171.960,-375.490,-560.020
199,48240.451000,216.463,40.739,-23.907,337.789,317.724,-253.477,268.960,-837.490,-711.020
200,48240.491000,235.243,104.110,-83.673,323.318,324.141,-264.153,-64.040,-1340.490,-618.020
201,48240.530000,235.243,77.957,-165.354,301.128,335.078,-286.512,332.960,-1055.490,-464.020
202,48240.570000,85.004,110.145,-268.949,289.502,335.677,-298.291,223.960,-204.490,-205.020
203,48240.609000,212.510,169.493,-158.381,292.351,329.039,-292.548,-118.040,248.510,-91.020
204,48240.628000,163.089,175.528,-136.467,300.109,329.287,-284.681,-134.040,449.510,327.980
205,48240.676000,163.089,146.358,-158.381,312.759,333.638,-268.867,-591.040,436.510,541.980
206,48240.711000,229.313,3.521,-103.595,330.111,326.170,-263.113,-250.040,584.510,661.980
207,48240.752000,236.232,9.556,-84.669,344.647,325.664,-248.383,-194.040,524.510,362.980
208,48240.789000,223.382,66.892,-90.646,351.346,317.101,-243.656,442.960,589.510,218.980
209,48240.829000,235.243,52.809,-116.545,361.911,307.668,-235.998,51.960,515.510,213.980
210,48240.869000,231.290,51.804,-84.669,369.697,310.829,-228.066,-82.040,514.510,174.980
211,48240.913000,233.266,95.057,-70.724,377.429,308.186,-219.282,-164.040,403.510,140.980
212,48240.947000,243.151,54.821,-61.759,378.437,310.353,-209.426,-218.040,283.510,141.980
213,48240.967000,231.290,48.786,-55.782,383.279,310.443,-207.452,-35.040,178.510,83.980
214,48241.11000,201.637,93.045,-43.829,384.227,307.626,-203.590,-28.040,-38.490,127.980
215,48241.51000,273.792,-3.521,-56.778,383.175,299.763,-207.689,469.960,-74.490,-50.020
216,48241.91000,229.313,110.145,-46.817,376.367,298.468,-219.500,-18.040,-551.490,-67.020
217,48241.132000,282.687,62.868,-56.778,368.665,305.792,-236.025,156.960,-798.490,-55.020
218,48241.174000,319.259,69.910,-34.864,361.826,301.563,-248.882,-436.040,-1154.490,7.980
219,48241.210000,358.795,98.075,-50.802,348.291,306.803,-269.388,176.960,-940.490,-82.020
220,48241.250000,311.351,70.916,-22.911,343.373,301.578,-284.224,891.960,-316.490,-189.020
221,48241.272000,79.073,195.646,43.829,356.019,305.886,-270.373,-716.040,1074.510,35.980
222,48241.312000,191.753,96.063,-86.661,396.055,329.206,-198.183,-2364.040,2482.510,386.980
223,48241.352000,245.127,49.792,-283.891,424.297,333.902,-129.373,-1023.040,2318.510,212.980
224,48241.392000,105.761,-96.063,-337.681,434.945,328.784,-102.005,-133.040,688.510,140.980
225,48241.431000,240.185,123.222,-54.786,437.797,325.684,-111.875,263.960,-458.490,410.980
226,48241.472000,319.259,60.857,-78.693,448.374,317.244,-103.214,-1010.040,-214.490,607.980
227,48241.511000,203.614,220.794,-50.802,447.446,320.255,-98.246,-676.040,-420.490,-17.020
228,48241.552000,188.788,208.723,-108.576,439.748,327.623,-112.808,337.960,-593.490,-512.020
229,48241.592000,179.892,254.994,-110.568,419.443,336.336,-148.942,781.960,-838.490,-1085.020
230,48241.611000,191.753,238.900,-56.778,389.693,365.644,-170.909,-164.040,-1200.490,-1263.020
231,48241.652000,232.278,127.246,-81.681,362.851,393.277,-182.121,-655.040,-946.490,-1354.020
232,48241.690000,175.938,106.122,-87.658,330.277,426.828,-186.348,-380.040,-466.490,-1489.020
233,48241.730000,172.973,76.951,-85.665,311.978,435.366,-187.178,-493.040,85.510,-1312.020
234,48241.767000,195.707,41.745,-39.844,293.816,454.906,-173.053,-545.040,336.510,-1048.020
235,48241.808000,338.039,-307.301,-3.984,282.270,464.199,-186.600,2159.960,913.510,-693.020
236,48241.848000,278.734,5.532,-148.420,286.865,446.081,-218.374,1268.960,92.510,402.980
237,48241.888000,344.958,253.988,-102.599,290.761,449.009,-219.281,-483.040,-142.490,184.980
238,48241.909000,341.004,195.646,-82.677,301.245,431.745,-214.739,245.960,425.510,251.980
239,48241.949000,285.652,127.246,-55.782,306.221,442.817,-198.792,-696.040,264.510,75.980
240,48241.989000,264.896,98.075,-51.798,308.284,451.984,-179.952,-877.040,167.510,-98.020
241,48242.29000,190.764,-146.358,-43.829,302.605,461.938,-166.014,-701.040,-245.490,-61.020
242,48242.72000,286.641,-179.552,-154.397,298.721,460.886,-168.006,-333.040,-1397.490,454.980
243,48242.119000,338.039,-32.692,-206.195,293.582,438.574,-209.700,1007.960,-1685.490,496.980
244,48242.148000,181.869,23.639,-182.288,292.107,397.594,-263.569,2548.960,-701.490,859.980
245,48242.193000,178.903,65.886,-133.479,309.983,352.423,-295.915,2247.960,-49.490,1331.980
246,48242.228000,64.247,293.218,-101.603,326.060,316.467,-305.505,880.960,649.510,1732.980
247,48242.248000,138.378,216.770,-114.553,357.853,297.900,-281.334,-1075.040,742.510,1777.980
248,48242.288000,120.587,275.112,-64.747,384.811,278.423,-252.289,-250.040,1425.510,936.980
249,48242.328000,133.436,295.230,-202.210,404.072,263.682,-225.117,920.960,1368.510,334.980
250,48242.369000,496.185,263.041,36.856,408.904,261.917,-219.262,72.960,700.510,203.980
251,48242.409000,184.834,-12.574,-124.514,407.880,256.967,-223.297,-211.040,-370.490,168.980
252,48242.449000,259.954,15.591,-152.405,405.069,264.857,-216.263,-624.040,-129.490,-2.020
253,48242.489000,180.880,15.591,-118.537,411.001,276.693,-210.104,-201.040,294.510,-40.020
254,48242.529000,241.174,69.910,-96.623,415.771,268.175,-202.438,461.960,586.510,-125.020
255,48242.549000,227.336,26.656,-48.809,416.763,269.306,-195.546,-484.040,208.510,107.980
256,48242.589000,245.127,-12.574,-38.848,417.798,274.364,-186.606,-223.040,114.510,76.980
257,48242.631000,227.336,96.063,-41.837,420.706,275.320,-188.540,-11.040,-83.490,-12.020
258,48242.671000,253.035,12.574,-57.774,416.780,270.342,-192.581,-78.040,-303.490,61.980
259,48242.709000,242.162,-33.697,-106.584,413.935,277.908,-200.264,-52.040,-322.490,-52.020
260,48242.749000,227.336,41.745,-105.588,411.937,271.999,-203.342,116.960,-172.490,-86.020
261,48242.788000,251.058,-26.656,-101.603,409.063,275.768,-207.187,352.960,-131.490,-46.020
262,48242.835000,229.313,32.692,-99.611,408.068,273.730,-211.157,421.960,90.510,-153.020
263,48242.870000,237.220,72.927,-82.677,403.208,272.583,-217.076,602.960,146.510,-230.020
264,48242.891000,233.266,16.597,-80.685,406.089,270.648,-218.094,326.960,-7.490,-171.020
265,48242.931000,236.232,16.597,-73.712,398.366,273.377,-222.953,475.960,-3.490,-234.020
266,48242.969000,239.197,25.650,-76.700,396.368,268.353,-229.933,631.960,-121.490,-320.020
267,48243.8000,249.081,11.568,-85.665,389.572,268.050,-240.742,446.960,-269.490,-410.020
268,48243.49000,214.486,28.668,-26.895,372.209,277.179,-259.208,573.960,-786.490,-591.020
269,48243.90000,208.556,111.151,-56.778,350.792,268.644,-284.940,692.960,-1193.490,-562.020
270,48243.129000,170.996,10.562,-206.195,333.312,267.849,-313.434,896.960,-699.490,-422.020
271,48243.170000,177.915,203.694,-244.047,332.275,261.885,-319.452,308.960,-151.490,-82.020
272,48243.192000,186.811,146.358,-208.187,343.905,263.076,-314.498,-105.040,308.510,526.980
273,48243.229000,228.324,-6.538,-139.455,351.655,261.491,-301.768,-1155.040,559.510,878.980
274,48243.270000,246.116,-72.927,-102.599,370.116,265.078,-279.094,-1074.040,524.510,646.980
275,48243.311000,210.533,1.509,-121.525,381.742,261.826,-255.606,-1021.040,472.510,364.980
276,48243.365000,239.197,8.550,-86.661,386.773,277.816,-236.608,-791.040,448.510,245.980
277,48243.393000,240.185,20.621,-77.696,393.602,281.075,-223.773,-528.040,389.510,102.980
278,48243.433000,234.255,42.750,-74.708,399.448,283.289,-213.905,-355.040,335.510,31.980
279,48243.473000,223.382,26.656,-86.661,402.397,286.403,-205.984,-163.040,336.510,53.980
280,48243.513000,245.127,50.798,-63.751,406.268,284.693,-197.188,58.960,342.510,23.980
281,48243.529000,233.266,95.057,-56.778,408.092,273.083,-196.461,-123.040,105.510,-7.020
282,48243.569000,255.012,-31.686,-83.673,403.346,281.838,-193.335,168.960,66.510,-52.020
283,48243.612000,218.440,64.880,-70.724,405.300,283.799,-193.287,168.960,109.510,-32.020
284,48243.652000,253.035,27.662,-56.778,404.389,288.730,-189.257,-587.040,-207.490,-48.020
285,48243.693000,251.058,61.862,-53.790,396.746,299.270,-191.981,-170.040,-252.490,-187.020
286,48243.734000,269.838,61.862,-55.782,392.891,301.130,-193.909,140.960,-520.490,-347.020
287,48243.774000,233.266,138.310,-80.685,380.343,309.206,-218.273,374.960,-843.490,-501.020
288,48243.815000,244.139,-8.550,-156.389,361.936,312.307,-245.701,1040.960,-1201.490,-371.020
289,48243.830000,211.521,128.251,-108.576,347.334,309.533,-277.175,936.960,-1143.490,-330.020
290,48243.869000,187.799,138.310,17.930,335.816,318.223,-274.064,-2191.040,-848.490,305.980
291,48243.912000,194.718,11.568,26.895,349.681,343.446,-236.210,-1118.040,1306.510,-174.020
292,48243.952000,397.344,31.686,-74.708,374.062,353.476,-187.884,101.960,2646.510,-618.020
293,48243.990000,283.676,40.739,-36.856,387.695,357.103,-161.297,508.960,2529.510,-284.020
294,48244.32000,270.826,81.980,-86.661,412.875,351.437,-121.162,-405.040,2260.510,528.980
295,48244.72000,50.409,4.527,-307.798,432.119,333.891,-89.149,-2731.040,-649.490,1129.980
296,48244.112000,216.463,-14.585,-201.214,436.949,332.989,-88.178,-814.040,-833.490,322.980
297,48244.152000,300.479,149.375,-15.938,436.952,334.779,-95.003,226.960,-176.490,108.980
298,48244.172000,202.625,139.316,-65.743,438.874,334.669,-100.886,-229.040,-336.490,1.980
299,48244.212000,163.089,273.100,-69.728,433.098,339.294,-108.640,360.960,-60.490,-433.020
300,48244.252000,213.498,252.982,-45.821,426.392,345.139,-104.602,-989.040,-97.490,-446.020
301,48244.292000,223.382,218.782,-46.817,419.835,363.865,-88.510,-843.040,-17.490,-917.020
302,48244.329000,232.278,154.405,-56.778,398.908,398.781,-79.934,-430.040,78.510,-1272.020
303,48244.370000,237.220,136.299,-90.646,379.753,418.053,-77.585,-360.040,-64.490,-1325.020
304,48244.410000,200.649,81.980,-97.619,353.872,442.998,-79.047,-460.040,-346.490,-1256.020
305,48244.455000,199.660,6.538,-56.778,332.735,458.281,-80.714,-265.040,-510.490,-1010.020
306,48244.470000,87.969,53.815,-113.556,313.567,480.077,-95.961,923.960,-284.490,-1105.020
307,48244.512000,276.757,-83.992,52.794,296.162,484.395,-112.573,478.960,-249.490,-379.020
308,48244.553000,249.081,-48.786,-174.319,296.054,478.959,-139.172,618.960,-408.490,260.980
309,48244.614000,299.490,187.599,-40.840,305.652,473.034,-148.109,-170.040,-445.490,461.980
310,48244.637000,372.633,119.198,-57.774,307.514,467.076,-155.102,368.960,90.510,65.980
311,48244.678000,323.212,187.599,-51.798,309.533,474.064,-147.097,-92.040,142.510,-66.020
312,48244.713000,264.896,117.187,-62.755,304.765,478.202,-133.286,-434.040,273.510,-183.020
313,48244.753000,222.394,-100.086,-83.673,309.709,486.318,-119.366,-534.040,219.510,-97.020
314,48244.793000,216.463,-143.340,-167.346,303.888,484.341,-118.442,319.960,-677.490,188.980
315,48244.813000,206.579,19.615,-237.074,302.644,463.189,-153.237,990.960,-1201.490,304.980
316,48244.853000,199.660,-30.680,-181.292,300.380,439.762,-202.795,2427.960,-945.490,725.980
317,48244.893000,221.405,39.733,-172.327,308.546,395.921,-258.668,2655.960,-552.490,1033.980
318,48244.933000,179.892,101.092,-159.377,325.405,345.864,-292.105,1968.960,-204.490,1424.980
319,48244.972000,137.390,262.035,-136.467,334.766,313.898,-293.776,217.960,-188.490,1944.980
320,48245.14000,147.274,230.853,-99.611,350.982,288.083,-283.527,-458.040,-26.490,1711.980
321,48245.54000,133.436,448.126,-10.957,372.037,263.199,-277.171,865.960,853.510,902.980
322,48245.94000,137.390,466.232,-156.389,386.658,267.914,-245.654,-2013.040,661.510,680.980
323,48245.114000,418.100,-57.839,-30.879,392.493,270.020,-240.692,1709.960,1038.510,-197.020
324,48245.154000,216.463,132.275,-102.599,398.214,259.591,-232.085,-410.040,373.510,132.980
325,48245.196000,265.884,-6.538,-114.553,404.109,266.681,-221.128,-128.040,328.510,157.980
326,48245.232000,224.371,41.745,-82.677,405.990,260.012,-216.369,56.960,414.510,115.980
327,48245.272000,222.394,43.756,-66.739,410.887,265.042,-210.363,-120.040,285.510,168.980
328,48245.313000,237.220,25.650,-58.770,416.677,261.431,-200.624,-234.040,115.510,174.980
329,48245.353000,224.371,83.992,-70.724,417.618,258.550,-199.706,-378.040,-55.490,166.980
330,48245.393000,252.046,-22.633,-71.720,417.620,258.571,-198.724,-58.040,-129.490,-10.020
331,48245.435000,235.243,26.656,-106.584,415.773,267.312,-197.554,-191.040,-90.490,-10.020
332,48245.460000,222.394,-42.750,-108.576,416.754,269.220,-199.471,-54.040,36.510,-27.020
333,48245.495000,230.301,39.733,-79.689,415.789,268.347,-194.589,-131.040,76.510,-20.020
334,48245.532000,249.081,-25.650,-58.770,419.668,270.240,-198.461,642.960,171.510,-199.020
335,48245.572000,236.232,25.650,-68.732,415.733,264.291,-202.524,540.960,17.510,-200.020
336,48245.612000,231.290,59.851,-91.642,407.992,265.079,-207.426,160.960,-133.490,-51.020
337,48245.652000,230.301,33.697,-98.615,409.894,263.027,-213.352,613.960,-44.490,-105.020
338,48245.692000,207.568,49.792,-102.599,409.932,266.910,-213.265,-524.040,-313.490,104.980
339,48245.732000,247.104,9.556,-101.603,407.993,267.733,-219.135,374.960,-41.490,-59.020
340,48245.752000,229.313,32.692,-107.580,408.895,260.946,-219.284,26.960,-47.490,3.980
341,48245.795000,217.452,54.821,-97.619,406.002,261.889,-219.269,206.960,49.510,-43.020
342,48245.835000,237.220,43.756,-80.685,405.058,264.749,-221.169,68.960,-64.490,-30.020
343,48245.875000,232.278,24.644,-83.673,402.130,263.599,-228.065,232.960,-178.490,-133.020
344,48245.917000,231.290,20.621,-71.720,394.336,260.352,-239.922,122.960,-389.490,-222.020
345,48245.952000,243.151,-28.668,-75.704,384.621,259.869,-257.605,1017.960,-371.490,-350.020
346,48245.992000,209.544,37.721,-97.619,374.858,253.648,-271.493,1001.960,-526.490,-428.020
347,48246.32000,189.776,43.756,-125.510,360.281,251.112,-292.174,715.960,-770.490,-364.020
348,48246.72000,251.058,79.969,-178.303,350.496,244.674,-315.873,674.960,-600.490,-119.020
349,48246.97000,195.707,74.939,-219.144,344.628,239.613,-322.862,94.960,-316.490,5.980
350,48246.132000,220.417,46.774,-214.163,341.731,240.512,-324.810,-106.040,92.510,42.980
351,48246.177000,212.510,54.821,-175.315,347.612,245.703,-311.934,-349.040,348.510,102.980
352,48246.213000,211.521,25.650,-149.416,360.206,244.229,-296.249,-682.040,461.510,215.980
353,48246.254000,217.452,14.585,-120.529,367.153,260.066,-285.096,-1094.040,427.510,224.980
354,48246.294000,212.510,-7.544,-91.642,374.092,272.300,-261.274,-762.040,468.510,48.980
355,48246.335000,202.625,36.715,-91.642,378.968,273.599,-248.486,-545.040,413.510,-37.020
356,48246.373000,237.220,33.697,-80.685,377.150,282.620,-234.560,-378.040,327.510,1.980
357,48246.393000,201.637,54.821,-72.716,385.882,284.711,-231.554,-244.040,168.510,38.980
358,48246.433000,255.012,14.585,-74.708,384.936,285.780,-226.629,209.960,111.510,-118.020
359,48246.473000,231.290,56.833,-106.584,384.983,290.635,-226.521,-95.040,-53.490,-144.020
360,48246.513000,236.232,12.574,-105.588,380.089,285.647,-230.564,229.960,-11.490,-311.020
361,48246.553000,232.278,57.839,-122.521,371.474,295.249,-231.350,-122.040,-24.490,-281.020
362,48246.592000,211.521,56.833,-98.615,372.543,305.032,-228.189,70.960,150.510,-211.020
363,48246.633000,217.452,35.709,-74.708,371.549,302.131,-227.274,-60.040,33.510,-147.020
364,48246.673000,246.116,16.597,-47.813,365.757,303.952,-230.188,301.960,-87.490,-233.020
365,48246.713000,252.046,86.004,-52.794,354.104,302.544,-244.954,405.960,-491.490,-311.020
366,48246.733000,288.618,93.045,-67.735,347.381,309.986,-256.571,245.960,-805.490,-321.020
367,48246.773000,284.664,121.210,-93.634,330.840,304.519,-277.321,226.960,-914.490,-194.020
368,48246.813000,254.023,71.921,-122.521,323.105,308.888,-295.873,189.960,-887.490,-52.020
369,48246.853000,211.521,69.910,-105.588,320.154,306.637,-308.678,340.960,-439.490,-64.020
370,48246.892000,190.764,81.980,-67.735,324.937,300.881,-307.815,145.960,230.510,-12.020
371,48246.933000,160.124,78.963,-39.844,346.346,309.330,-286.007,-674.040,1306.510,149.980
372,48246.972000,178.903,101.092,-61.759,382.381,323.422,-234.624,-1139.040,2056.510,272.980
373,48247.15000,187.799,160.440,-106.584,403.798,327.555,-188.396,-1884.040,2390.510,448.980
374,48247.36000,229.313,-115.175,-330.708,433.061,337.180,-116.533,-2326.040,1123.510,591.980
375,48247.75000,405.251,2.515,-35.860,435.800,322.429,-126.661,948.960,-361.490,-70.020
376,48247.115000,238.208,37.721,-75.704,444.407,310.109,-117.110,-1110.040,-52.490,682.980
377,48247.177000,217.452,165.470,-84.669,446.406,314.270,-105.245,-1185.040,-133.490,204.980
378,48247.198000,166.054,240.912,-110.568,440.710,325.820,-106.962,-86.040,-220.490,-324.020
379,48247.233000,155.181,170.499,-86.661,435.045,340.305,-107.633,-602.040,-450.490,-538.020
380,48247.273000,199.660,241.917,-51.798,413.938,359.407,-112.157,-623.040,-492.490,-1413.020
381,48247.314000,254.023,157.422,-63.751,390.033,388.276,-112.547,-532.040,-287.490,-1442.020
382,48247.360000,234.255,127.246,-84.669,362.302,421.055,-109.917,-670.040,-127.490,-1411.020
383,48247.374000,243.151,109.139,-82.677,335.559,453.153,-94.551,-964.040,-15.490,-1515.020
384,48247.414000,221.405,33.697,-63.751,310.613,470.750,-77.542,-888.040,124.510,-1220.020
385,48247.453000,177.915,-7.544,-104.591,286.589,486.156,-72.347,-21.040,253.510,-899.020
386,48247.498000,217.452,-130.263,58.770,277.946,492.846,-73.197,412.960,88.510,-647.020
387,48247.538000,253.035,-20.621,-98.615,264.355,498.431,-122.135,1942.960,-44.490,-382.020
388,48247.578000,317.282,132.275,-106.584,261.310,490.874,-155.652,919.960,-335.490,95.980
389,48247.613000,382.517,281.147,-76.700,269.040,489.978,-155.655,-254.040,-89.490,220.980
390,48247.654000,387.459,319.371,-50.802,267.119,489.204,-145.870,-254.040,346.510,25.980
391,48247.674000,315.305,106.122,-16.934,274.015,496.627,-120.193,-769.040,265.510,123.980
392,48247.714000,224.371,-121.210,-69.728,277.841,489.200,-106.621,-835.040,-255.490,423.980
393,48247.754000,217.452,-122.216,-143.440,284.573,485.361,-107.673,145.960,-1318.490,674.980
394,48247.795000,292.571,-91.033,-209.183,291.124,471.857,-151.108,1419.960,-1597.490,620.980
395,48247.837000,219.429,54.821,-153.401,292.471,427.497,-227.600,3365.960,-849.490,627.980
396,48247.877000,188.788,18.609,-172.327,297.661,374.997,-278.769,2652.960,-188.490,1069.980
397,48247.918000,139.367,111.151,-173.323,320.373,328.104,-303.297,2648.960,461.510,1156.980
398,48247.958000,87.969,288.189,-138.459,337.577,306.009,-300.810,-180.040,365.510,1517.980
399,48247.994000,103.784,258.012,-136.467,354.787,282.209,-287.572,193.960,804.510,1103.980
400,48248.15000,95.876,513.509,-218.148,378.762,258.410,-277.263,241.960,1063.510,539.980
401,48248.54000,377.575,140.322,-49.805,380.868,269.756,-247.587,-2649.040,-92.490,532.980
402,48248.98000,289.606,164.464,-86.661,393.409,265.132,-242.760,1556.960,897.510,81.980
403,48248.134000,233.266,-56.833,-110.568,397.388,273.260,-227.861,-1797.040,-150.490,381.980
404,48248.174000,250.069,-6.538,-115.549,406.082,269.699,-217.134,120.960,502.510,114.980
405,48248.214000,233.266,63.874,-87.658,408.952,264.139,-206.464,-425.040,318.510,229.980
406,48248.254000,239.197,-7.544,-67.735,415.709,261.422,-200.626,-247.040,281.510,225.980
407,48248.298000,236.232,-0.503,-67.735,416.711,262.639,-189.810,-282.040,138.510,152.980
408,48248.317000,244.139,22.633,-66.739,420.632,267.575,-187.731,-128.040,121.510,90.980
409,48248.358000,243.151,24.644,-66.739,423.525,266.632,-187.746,22.960,63.510,12.980
410,48248.398000,248.093,24.644,-74.708,420.557,258.923,-184.000,6.960,18.510,9.980
411,48248.437000,231.290,41.745,-86.661,421.554,261.867,-182.952,-114.040,-13.490,94.980
412,48248.479000,240.185,-53.815,-82.677,423.459,258.951,-183.994,185.960,119.510,86.980
413,48248.514000,257.977,49.792,-63.751,427.369,263.779,-186.820,360.960,197.510,-86.020
414,48248.558000,261.931,4.527,-65.743,428.353,265.708,-187.756,503.960,110.510,-188.020
415,48248.598000,237.220,-11.568,-55.782,421.537,262.579,-194.705,1044.960,136.510,-345.020
416,48248.638000,228.324,123.222,-86.661,418.539,254.589,-203.714,712.960,-56.490,-298.020
417,48248.658000,254.023,41.745,-95.626,410.833,259.239,-209.511,242.960,-212.490,-143.020
418,48248.698000,180.880,110.145,-49.805,411.780,259.054,-218.339,-62.040,-425.490,62.980
419,48248.735000,302.456,-62.868,-42.833,405.955,258.803,-227.183,-264.040,-782.490,103.980
420,48248.777000,212.510,-35.709,-141.447,397.250,262.257,-242.815,-151.040,-741.490,-153.020
421,48248.817000,217.452,58.845,-182.288,393.313,257.171,-251.762,242.960,-205.490,-219.020
422,48248.857000,229.313,109.139,-143.440,391.390,258.144,-250.764,232.960,239.510,-72.020
423,48248.895000,231.290,12.574,-108.576,395.311,262.195,-244.782,-136.040,276.510,69.980
424,48248.937000,239.197,29.674,-87.658,398.238,263.345,-237.886,-46.040,297.510,-44.020
425,48248.955000,220.417,41.745,-77.696,400.184,263.472,-232.976,70.960,188.510,-58.020
426,48248.999000,247.104,8.550,-42.833,397.280,263.422,-233.963,-32.040,-37.490,-88.020
427,48249.39000,252.046,-33.697,-30.879,393.361,260.278,-242.867,262.960,-461.490,-264.020
428,48249.79000,227.336,29.674,-25.899,374.015,265.396,-266.330,608.960,-849.490,-518.020
429,48249.114000,189.776,51.804,-99.611,349.697,259.487,-303.778,734.960,-1537.490,-563.020
430,48249.155000,170.996,66.892,-198.226,328.218,245.968,-335.504,1167.960,-1099.490,-253.020
431,48249.197000,275.768,84.998,-179.300,312.619,237.619,-355.336,198.960,-1000.490,60.980
432,48249.237000,167.042,-14.585,-256.000,304.847,235.472,-361.284,377.960,-510.490,-61.020
433,48249.257000,197.683,83.992,-245.043,302.934,238.301,-364.167,-145.040,196.510,-92.020
434,48249.297000,191.753,79.969,-210.179,313.678,246.431,-352.196,-277.040,550.510,156.980
435,48249.337000,206.579,14.585,-165.354,328.287,252.786,-334.372,-735.040,726.510,336.980
436,48249.378000,202.625,24.644,-152.405,343.850,256.388,-309.743,-797.040,892.510,178.980
437,48249.418000,219.429,7.544,-113.556,355.593,264.829,-284.034,-1023.040,918.510,85.980
438,48249.455000,198.672,10.562,-85.665,368.762,273.678,-505.439,-839.040,897.510,5.980
439,48249.495000,220.417,39.733,-85.665,374.293,288.309,-239.343,-353.040,883.510,-118.020
440,48249.535000,231.290,44.762,-53.790,384.107,298.543,-219.482,-266.040,713.510,-20.020
441,48249.575000,192.741,70.916,-34.864,388.912,293.002,-208.808,-271.040,499.510,38.980
442,48249.595000,286.641,-8.550,-42.833,389.921,295.169,-198.951,160.960,195.510,-34.020
443,48249.636000,232.278,92.039,-78.693,387.965,294.072,-203.883,564.960,91.510,-198.020
444,48249.675000,277.745,71.921,-96.623,386.106,302.704,-207.618,-103.040,-105.490,-149.020
445,48249.727000,214.486,57.839,-90.646,380.336,305.625,-204.623,-214.040,-86.490,-132.020
446,48249.759000,225.359,41.745,-79.689,383.281,309.580,-202.568,-217.040,-33.490,-38.020
447,48249.795000,217.452,68.904,-56.778,379.373,305.659,-202.663,-108.040,-114.490,-56.020
448,48249.835000,230.301,45.768,-78.693,376.521,311.391,-205.484,42.960,-134.490,-54.020
449,48249.880000,232.278,61.862,-84.669,376.531,313.246,-209.365,-84.040,-190.490,-60.020
450,48249.895000,249.081,99.081,-69.728,373.622,314.038,-216.219,53.960,-241.490,-50.020
451,48249.935000,279.722,81.980,-78.693,369.717,311.023,-219.236,-317.040,-456.490,148.980
452,48249.980000,252.046,150.381,-52.794,366.801,309.981,-221.226,-672.040,-734.490,157.980
453,48250.20000,261.931,147.363,-117.541,357.236,322.378,-226.855,-1098.040,-1358.490,97.980
454,48250.59000,208.556,184.582,-41.837,346.620,329.567,-248.293,711.960,-633.490,-734.020
455,48250.100000,111.691,193.635,27.891,337.087,344.035,-247.992,-520.040,301.510,-859.020
456,48250.140000,229.313,87.010,16.934,346.061,364.293,-213.200,-879.040,1637.510,-809.020
457,48250.180000,348.911,61.862,-71.720,359.000,389.895,-157.687,-934.040,2618.510,-763.020
458,48250.220000,286.641,53.815,-143.440,368.828,397.626,-119.249,-938.040,2116.510,-453.020
459,48250.240000,180.880,41.745,-157.385,383.553,409.504,-70.902,-1074.040,897.510,346.980
460,48250.280000,6.919,-103.104,-375.533,391.276,406.775,-66.043,-1432.040,-1453.490,272.980
461,48250.320000,366.703,0.503,-73.712,395.961,394.805,-82.970,-216.040,-548.490,292.980
462,48250.357000,309.375,224.817,-63.751,398.815,390.842,-87.955,-312.040,-357.490,257.980
463,48250.400000,297.514,231.859,-122.521,405.642,393.195,-72.198,-512.040,198.510,182.980
464,48250.438000,121.575,246.947,-79.689,407.731,401.735,-37.681,-1209.040,641.510,-277.020
465,48250.478000,142.332,219.788,-32.872,398.212,413.701,-18.803,-568.040,843.510,-891.020
466,48250.518000,83.027,66.892,-188.265,381.928,429.183,-13.590,521.960,-151.490,-1011.020
467,48250.535000,128.494,201.682,-61.759,356.952,448.247,-18.123,-792.040,-859.490,-1050.020
468,48250.580000,227.336,71.921,-2.988,323.311,471.153,-20.628,-229.040,-838.490,-1337.020
469,48250.620000,179.892,44.762,-8.965,288.638,491.677,-42.800,579.960,-406.490,-1424.020
470,48250.660000,106.749,109.139,-164.358,266.419,497.932,-57.418,149.960,-421.490,-954.020
471,48250.700000,253.035,-28.668,23.907,253.959,505.965,-39.614,-1728.040,-750.490,56.980
472,48250.740000,295.537,72.927,-54.786,254.926,505.090,-35.709,-188.040,109.510,-62.020
473,48250.780000,341.992,199.670,15.938,254.962,505.435,-20.011,-1091.040,-455.490,277.980
474,48250.820000,347.923,46.774,-14.942,263.696,507.548,-16.023,165.960,-9.490,139.980
475,48250.860000,281.699,-35.709,-90.646,264.572,502.271,-35.751,841.960,-163.490,313.980
476,48250.880000,283.676,54.821,-172.327,267.236,487.694,-82.160,1958.960,-438.490,241.980
477,48250.918000,272.803,46.774,-121.525,266.948,470.844,-142.355,2614.960,-693.490,523.980
478,48250.959000,222.394,61.862,-114.553,274.320,441.859,-184.171,2654.960,-367.490,880.980
479,48250.999000,239.197,23.639,-132.482,292.292,409.935,-231.913,2524.960,-93.490,1103.980
480,48251.44000,122.564,161.446,-107.580,313.075,364.835,-262.290,2133.960,250.510,1329.980
481,48251.78000,43.490,230.853,-137.463,339.802,327.300,-260.125,-180.040,-18.490,1867.980
482,48251.119000,55.351,87.010,-178.303,364.768,305.496,-247.808,-463.040,251.510,1730.980
483,48251.159000,34.595,513.509,-240.062,383.055,292.450,-231.388,-700.040,426.510,1130.980
484,48251.179000,512.988,-36.715,-12.949,386.962,293.717,-219.583,186.960,681.510,-56.020
485,48251.219000,292.571,259.018,-124.514,389.771,285.806,-227.598,757.960,8.510,58.980
486,48251.260000,212.510,-55.827,-199.222,395.631,289.034,-215.746,-740.040,277.510,291.980
487,48251.300000,233.266,58.845,-135.471,396.632,289.367,-201.027,-108.040,747.510,30.980
488,48251.337000,225.359,41.745,-62.755,401.528,291.744,-183.312,-281.040,576.510,84.980
489,48251.378000,230.301,9.556,-42.833,410.258,292.044,-173.480,34.960,495.510,144.980
490,48251.418000,237.220,21.627,-33.868,415.011,281.606,-164.876,565.960,352.510,39.980
491,48251.458000,244.139,45.768,-63.751,415.076,289.265,-169.609,82.960,27.510,72.980
492,48251.498000,245.127,31.686,-68.732,414.972,279.470,-173.750,-3.040,-60.490,21.980
493,48251.518000,232.278,22.633,-66.739,416.945,283.373,-173.659,2.960,-85.490,73.980
494,48251.558000,236.232,5.532,-106.584,420.815,284.295,-177.553,481.960,91.510,11.980
495,48251.598000,237.220,73.933,-69.728,419.810,280.402,-177.641,-66.040,-58.490,153.980
496,48251.638000,231.290,8.550,-103.595,420.637,267.618,-185.769,1016.960,307.510,6.980
497,48251.678000,247.104,25.650,-65.743,421.614,268.598,-185.745,282.960,103.510,-52.020
498,48251.718000,239.197,30.680,-71.720,418.650,262.701,-187.843,236.960,25.510,-91.020
499,48251.762000,250.069,5.532,-64.747,417.652,259.758,-188.891,385.960,28.510,-144.020
500,48251.799000,239.197,44.762,-72.716,413.805,263.453,-195.682,428.960,5.510,-160.020
501,48251.824000,234.255,32.692,-69.728,416.679,261.453,-199.643,524.960,-60.490,-161.020
502,48251.860000,236.232,59.851,-99.611,413.747,260.260,-208.502,190.960,-108.490,-77.020
503,48251.900000,236.232,36.715,-75.704,410.892,265.970,-212.304,65.960,-88.490,-40.020
504,48251.940000,218.440,61.862,-78.693,410.904,266.963,-211.301,52.960,-106.490,-12.020
505,48251.980000,249.081,4.527,-91.642,408.965,266.901,-213.268,-208.040,-168.490,153.980
506,48252.20000,213.498,18.609,-97.619,409.869,261.020,-216.338,-88.040,-77.490,52.980
507,48252.59000,251.058,-9.556,-72.716,409.845,258.151,-214.441,-276.040,-94.490,-30.020
508,48252.99000,243.151,28.668,-47.813,406.046,265.837,-216.239,152.960,-183.490,-172.020
509,48252.139000,238.208,8.550,-64.747,399.219,262.599,-228.094,240.960,-375.490,-265.020
510,48252.158000,244.139,32.692,-23.907,384.698,265.888,-248.645,413.960,-785.490,-475.020
511,48252.199000,187.799,59.851,-95.626,373.137,274.168,-264.176,606.960,-972.490,-403.020
512,48252.240000,236.232,39.733,-113.556,360.417,263.862,-286.006,513.960,-814.490,-149.020
513,48252.285000,194.718,56.833,-172.327,346.860,266.255,-303.634,449.960,-594.490,-181.020
514,48252.319000,212.510,100.086,-208.187,342.925,261.190,-311.600,227.960,-262.490,33.980
515,48252.360000,206.579,68.904,-214.163,347.746,258.432,-306.747,77.960,387.510,196.980
516,48252.399000,222.394,36.715,-166.350,360.304,253.981,-294.071,-393.040,577.510,294.980
517,48252.442000,219.429,25.650,-135.471,372.959,258.375,-276.295,-693.040,688.510,269.980
518,48252.462000,202.625,34.703,-91.642,380.777,262.722,-258.530,-799.040,676.510,245.980
519,48252.502000,212.510,41.745,-80.685,392.544,274.917,-238.622,-828.040,498.510,291.980
520,48252.538000,244.139,25.650,-84.669,403.257,277.459,-215.987,-970.040,413.510,293.980
521,48252.578000,217.452,20.621,-81.681,406.170,275.826,-203.269,-691.040,261.510,174.980
522,48252.619000,263.907,22.633,-69.728,407.235,282.933,-189.380,-520.040,228.510,162.980
523,48252.658000,246.116,46.774,-69.728,413.022,279.301,-180.622,-521.040,158.510,175.980
524,48252.703000,225.359,44.762,-69.728,416.959,284.387,-171.675,-428.040,118.510,128.980
525,48252.743000,253.035,-2.515,-64.747,417.024,289.414,-163.718,-715.040,-43.490,147.980
526,48252.783000,245.127,-0.503,-77.696,419.945,290.499,-159.765,-298.040,31.510,-14.020
527,48252.799000,266.873,11.568,-54.786,414.130,288.587,-155.897,6.960,66.510,-46.020
528,48252.839000,235.243,16.597,-69.728,415.095,288.575,-156.876,-38.040,-45.490,-143.020
529,48252.885000,241.174,35.709,-69.728,408.380,294.334,-156.762,-198.040,-98.490,-165.020
530,48252.919000,241.174,12.574,-69.728,410.345,297.287,-155.712,-129.040,-76.490,-177.020
531,48252.959000,247.104,-22.633,-44.825,406.584,308.857,-157.424,101.960,-75.490,-253.020
532,48252.999000,218.440,150.381,-66.739,400.713,304.636,-170.279,1062.960,-82.490,-463.020
533,48253.38000,225.359,127.246,-64.747,389.133,310.974,-185.853,249.960,-605.490,-295.020
534,48253.83000,265.884,31.686,-65.743,380.367,308.559,-203.577,249.960,-768.490,-311.020
535,48253.103000,327.166,69.910,-31.875,363.951,315.734,-223.066,224.960,-912.490,-360.020
536,48253.139000,267.861,53.815,-88.654,355.178,313.255,-243.733,225.960,-951.490,-287.020
537,48253.179000,208.556,51.804,-127.502,343.545,314.674,-262.359,461.960,-580.490,-424.020
538,48253.219000,232.278,43.756,-7.969,344.501,315.460,-271.165,986.960,247.510,-532.020
539,48253.259000,187.799,116.181,-30.879,356.072,309.920,-263.419,98.960,1188.510,-153.020
540,48253.299000,202.625,100.086,-47.813,374.713,328.438,-223.742,-1072.040,1692.510,47.980
541,48253.339000,245.127,104.110,-65.743,407.687,324.249,-163.945,-963.040,2235.510,240.980
542,48253.382000,218.440,111.151,-132.482,424.332,332.478,-105.868,-726.040,2202.510,160.980
543,48253.422000,101.807,20.621,-369.556,441.886,339.271,-69.396,-209.040,1239.510,57.980
544,48253.443000,201.637,-9.556,-244.047,441.849,337.156,-77.288,204.960,8.510,-85.020
545,48253.480000,326.178,88.016,19.922,441.831,336.984,-85.137,-43.040,-258.490,-67.020
546,48253.519000,225.359,93.045,-69.728,440.841,333.242,-78.358,-59.040,156.510,59.980
547,48253.560000,157.158,261.029,-86.661,437.928,333.106,-83.270,80.960,-148.490,-57.020
548,48253.603000,221.405,198.664,-58.770,439.025,345.801,-80.044,-965.040,-534.490,-117.020
549,48253.643000,217.452,241.917,-54.786,429.457,358.177,-86.654,-112.040,-433.490,-747.020
550,48253.683000,211.521,211.741,-51.798,402.522,377.870,-105.887,-253.040,-804.490,-1282.020
551,48253.723000,241.174,163.458,-72.716,384.367,402.761,-113.218,-144.040,-839.490,-1514.020
552,48253.739000,186.811,128.251,-67.735,351.697,428.352,-126.449,-399.040,-702.490,-1469.020
553,48253.779000,175.938,112.157,-64.747,318.164,461.096,-122.850,-604.040,-325.490,-1381.020
554,48253.823000,173.961,18.609,-49.805,295.190,484.343,-114.538,-528.040,-8.490,-1192.020
555,48253.859000,161.112,12.574,12.949,268.239,499.483,-120.142,85.960,23.510,-1219.020
556,48253.899000,378.564,-91.033,4.981,251.718,497.727,-148.655,1273.960,684.510,-613.020
557,48253.939000,360.772,29.674,-89.650,249.737,496.392,-164.380,563.960,-94.490,-71.020
558,48253.983000,377.575,324.401,-34.864,249.697,490.717,-157.641,-914.040,-467.490,246.980
559,48254.20000,323.212,57.839,-74.708,258.530,497.296,-127.076,-1474.040,-153.490,439.980
560,48254.60000,274.780,-111.151,-125.510,268.265,498.857,-104.465,-778.040,-349.490,616.980
561,48254.80000,254.023,-38.727,-212.171,283.506,478.232,-122.543,802.960,-658.490,851.980
562,48254.120000,240.185,-39.733,-163.362,299.697,459.212,-156.274,1492.960,-753.490,1177.980
563,48254.160000,230.301,38.727,-143.440,314.698,419.558,-201.252,2030.960,-594.490,1257.980
564,48254.200000,181.869,63.874,-131.486,330.639,376.137,-241.409,1902.960,-355.490,1469.980
565,48254.243000,101.807,220.794,-96.623,343.864,345.914,-253.820,1427.960,77.510,1559.980
566,48254.283000,57.328,231.859,-66.739,361.012,317.993,-251.461,-70.040,127.510,1315.980
567,48254.323000,46.456,114.169,-124.514,373.305,288.105,-248.176,1267.960,821.510,957.980
568,48254.363000,204.602,513.509,-102.599,384.844,277.862,-233.669,-2037.040,-0.490,947.980
569,48254.384000,483.336,5.532,0.000,391.747,287.982,-217.739,-1280.040,88.510,322.980
570,48254.419000,223.382,101.092,-88.654,398.440,278.490,-211.071,-573.040,-124.490,263.980
571,48254.460000,244.139,-31.686,-105.588,402.373,284.418,-207.989,-545.040,-30.490,237.980
572,48254.500000,199.660,25.650,-114.553,403.313,281.515,-208.052,-217.040,73.510,95.980
573,48254.540000,226.347,26.656,-105.588,404.352,287.501,-201.052,189.960,248.510,-27.020
574,48254.580000,234.255,46.774,-95.626,409.156,283.707,-199.165,19.960,276.510,32.980
575,48254.620000,225.359,50.798,-79.689,410.118,281.904,-193.319,309.960,304.510,-11.020
576,48254.662000,239.197,47.780,-83.673,410.996,272.248,-191.570,-25.040,115.510,80.980
577,48254.700000,244.139,20.621,-71.720,413.030,282.019,-189.388,-36.040,46.510,66.980
578,48254.720000,245.127,53.815,-63.751,411.919,267.425,-190.695,129.960,29.510,72.980
579,48254.761000,240.185,2.515,-97.619,414.838,269.373,-191.626,104.960,51.510,87.980
580,48254.800000,245.127,14.585,-88.654,416.782,270.363,-191.600,95.960,138.510,37.980
581,48254.846000,242.162,-18.609,-73.712,418.693,267.513,-189.698,261.960,264.510,18.980
582,48254.880000,240.185,29.674,-63.751,417.756,269.553,-184.751,332.960,272.510,-29.020
583,48254.920000,240.185,25.650,-63.751,421.584,266.548,-190.694,627.960,200.510,-102.020
584,48254.960000,225.359,61.862,-56.778,417.683,263.577,-191.749,476.960,2.510,-121.020
585,48255.0,259.954,3.521,-80.685,411.783,254.674,-196.862,352.960,-137.490,-62.020
586,48255.28000,226.347,56.833,-96.623,416.609,255.498,-205.659,270.960,-111.490,-109.020
587,48255.63000,230.301,36.715,-97.619,409.875,259.316,-205.589,116.960,-88.490,-47.020
588,48255.108000,224.371,63.874,-87.658,409.908,263.156,-207.465,-173.040,-115.490,28.980
589,48255.140000,239.197,32.692,-86.661,411.810,260.219,-209.487,161.960,-16.490,32.980
590,48255.182000,246.116,11.568,-80.685,413.729,259.202,-212.448,-159.040,-68.490,64.980
591,48255.222000,240.185,7.544,-83.673,408.894,259.177,-211.478,-50.040,-60.490,-32.020
592,48255.263000,239.197,33.697,-74.708,409.831,256.252,-212.522,-82.040,-90.490,-53.020
593,48255.304000,229.313,9.556,-73.712,407.971,264.000,-212.353,80.960,-133.490,-87.020
594,48255.343000,221.405,41.745,-60.763,403.128,264.773,-219.211,-26.040,-376.490,-138.020
595,48255.363000,240.185,16.597,-11.953,392.457,265.273,-235.894,4.960,-797.490,-209.020
596,48255.403000,322.224,-22.633,55.782,362.411,267.096,-272.201,425.960,-1817.490,-693.020
597,48255.442000,52.386,21.627,-164.358,339.152,270.882,-310.412,1048.960,-1505.490,-651.020
598,48255.483000,242.162,151.387,-181.292,327.378,257.738,-329.361,1163.960,-784.490,-300.020
599,48255.523000,187.799,91.033,-213.167,314.622,245.340,-358.102,224.960,-1078.490,313.980
600,48255.563000,179.892,-0.503,-291.860,307.818,243.203,-364.048,165.960,-280.490,163.980
601,48255.603000,227.336,46.774,-269.946,311.657,239.422,-361.182,-267.040,333.510,-29.020
602,48255.643000,182.857,95.057,-205.198,322.471,253.506,-343.195,-514.040,779.510,242.980
603,48255.664000,185.822,34.703,-195.237,341.938,260.986,-320.432,-751.040,891.510,399.980
604,48255.705000,206.579,-23.639,-154.397,360.466,269.623,-288.820,-1036.040,1031.510,287.980
605,48255.744000,220.417,28.668,-100.607,370.256,276.988,-267.062,-1045.040,1061.510,154.980
606,48255.784000,216.463,-9.556,-73.712,383.011,288.501,-234.417,-1184.040,894.510,173.980
607,48255.820000,217.452,63.874,-55.782,390.845,293.000,-209.785,-340.040,808.510,63.980
608,48255.885000,239.197,68.904,-67.735,400.593,297.322,-193.977,-263.040,649.510,183.980
609,48255.903000,239.197,73.933,-44.825,406.440,298.673,-179.225,-475.040,353.510,153.980
610,48255.944000,231.290,61.862,-70.724,409.318,293.178,-165.612,-484.040,191.510,57.980
611,48255.984000,297.514,-36.715,-88.654,412.131,284.426,-167.762,552.960,448.510,-42.020
612,48256.4000,246.116,34.703,-59.767,411.285,295.268,-159.677,-456.040,245.510,-76.020
613,48256.44000,232.278,2.515,-20.918,405.590,304.187,-148.704,-165.040,18.510,-199.020
614,48256.84000,243.151,-10.562,-8.965,406.579,307.929,-155.484,289.960,-110.490,-217.020
615,48256.124000,251.058,10.562,-17.930,399.778,307.582,-168.254,866.960,-205.490,-351.020
616,48256.163000,233.266,110.145,-56.778,390.951,301.068,-195.876,980.960,-609.490,-412.020
617,48256.207000,247.104,122.216,-108.576,375.442,302.385,-217.454,524.960,-768.490,-327.020
618,48256.242000,250.069,128.251,-130.490,369.636,304.960,-230.158,579.960,-409.490,-364.020
619,48256.283000,170.008,192.629,-111.564,363.893,312.541,-235.885,-562.040,-774.490,57.980
620,48256.303000,188.788,191.623,-101.603,361.141,327.162,-231.644,-1965.040,-800.490,145.980
621,48256.343000,169.019,224.817,-82.677,356.437,338.075,-218.663,-1249.040,-366.490,-330.020
622,48256.382000,178.903,237.894,-80.685,346.100,366.428,-204.326,-1379.040,-86.490,-713.020
623,48256.423000,209.544,150.381,-45.821,334.853,397.965,-177.172,-1377.040,412.510,-1028.020
624,48256.467000,218.440,178.546,-102.599,333.257,421.441,-123.699,-1879.040,1179.510,-708.020
625,48256.503000,227.336,96.063,-116.545,334.535,443.802,-78.089,-3474.040,995.510,-579.020
626,48256.544000,195.707,7.544,-137.463,330.973,460.808,-9.073,-2017.040,1438.510,-549.020
627,48256.584000,315.305,-97.069,-218.148,311.773,471.730,10.742,531.960,1010.510,-996.020
628,48256.623000,317.282,23.639,-7.969,299.315,489.472,-15.368,1410.960,357.510,-590.020
629,48256.643000,365.714,46.774,20.918,303.087,477.125,-4.847,-573.040,-399.490,256.980
630,48256.685000,294.548,217.776,66.739,307.885,475.037,-13.709,289.960,-271.490,116.980
631,48256.725000,206.579,100.086,11.953,305.009,483.185,-39.032,1202.960,-238.490,-242.020
632,48256.765000,92.911,198.664,-86.661,302.051,482.618,-63.567,1447.960,91.510,-307.020
633,48256.804000,121.575,189.611,-31.875,297.259,488.288,-68.355,-269.040,39.510,-124.020
634,48256.845000,133.436,107.128,-3.984,301.219,494.474,-53.499,-447.040,318.510,-100.020
635,48256.885000,189.776,-28.668,-214.163,287.753,503.016,-56.280,486.960,72.510,-595.020
636,48256.927000,229.313,170.499,-150.412,289.561,495.656,-82.917,982.960,-133.490,63.980
637,48256.947000,296.525,147.363,-28.887,290.551,495.881,-73.103,-1051.040,-411.490,373.980
638,48256.983000,268.849,134.287,-41.837,290.483,489.948,-78.139,373.960,116.510,-81.020
639,48257.28000,251.058,31.686,-63.751,289.544,493.736,-81.979,389.960,91.510,14.980
640,48257.63000,194.718,-8.550,-106.584,292.296,482.632,-102.814,1234.960,-65.490,-6.020
641,48257.103000,298.502,29.674,-72.716,280.495,471.882,-145.246,1722.960,-377.490,-228.020
642,48257.143000,229.313,35.709,-80.685,279.199,448.465,-194.801,2650.960,213.510,261.980
643,48257.183000,212.510,147.363,-55.782,303.121,425.917,-215.845,1368.960,178.510,965.980
644,48257.223000,225.359,121.210,-87.658,324.160,402.651,-224.162,215.960,4.510,1389.980
645,48257.263000,213.498,156.417,-108.576,340.486,389.328,-219.521,-288.040,-184.490,1473.980
646,48257.283000,201.637,141.328,-129.494,359.639,369.150,-218.947,262.960,-23.490,972.980
647,48257.327000,182.857,137.305,-152.405,367.085,340.876,-228.385,793.960,-23.490,725.980
648,48257.367000,184.834,134.287,-152.405,370.831,330.924,-241.347,665.960,-221.490,657.980
649,48257.417000,175.938,125.234,-164.358,371.602,314.084,-257.410,669.960,-421.490,296.980
650,48257.444000,181.869,125.234,-134.475,364.627,296.219,-272.531,713.960,-477.490,342.980
651,48257.484000,142.332,140.322,-94.630,362.678,294.301,-270.616,-525.040,-377.490,629.980
652,48257.528000,219.429,153.399,-26.895,372.299,287.729,-264.858,-773.040,86.510,673.980
653,48257.563000,269.838,73.933,-110.568,377.309,300.872,-242.981,-899.040,308.510,354.980
654,48257.583000,275.768,47.780,-84.669,385.040,297.344,-230.294,8.960,536.510,140.980
655,48257.623000,235.243,99.081,-86.661,393.727,293.718,-222.511,-226.040,370.510,272.980
656,48257.663000,233.266,82.986,-67.735,397.600,291.145,-208.831,-855.040,84.510,377.980
657,48257.708000,233.266,21.627,-82.677,402.408,287.395,-204.981,261.960,265.510,186.980
658,48257.744000,248.093,-0.503,-80.685,403.312,280.630,-204.149,-70.040,101.510,244.980
659,48257.784000,250.069,7.544,-72.716,409.091,278.680,-207.122,272.960,126.510,105.980
660,48257.828000,224.371,65.886,-93.634,416.791,274.851,-208.171,330.960,122.510,33.980
661,48257.868000,267.861,10.562,-97.619,415.755,268.024,-209.306,76.960,67.510,79.980
662,48257.908000,226.347,38.727,-87.658,413.799,265.157,-206.432,175.960,170.510,2.980
663,48257.923000,240.185,27.662,-82.677,415.787,270.095,-203.376,17.960,134.510,4.980
664,48257.964000,233.266,20.621,-65.743,417.730,271.063,-204.331,270.960,80.510,-60.020
665,48258.4000,248.093,29.674,-46.817,416.724,267.170,-204.419,47.960,-122.490,16.980
666,48258.44000,214.486,59.851,-89.650,414.767,266.936,-214.235,216.960,-142.490,-25.020
667,48258.84000,254.023,-60.857,-96.623,411.796,260.090,-215.374,-111.040,-221.490,54.980
668,48258.123000,227.336,44.762,-100.607,410.827,260.943,-220.261,219.960,-42.490,-111.020
669,48258.164000,240.185,31.686,-96.623,409.790,254.979,-226.279,389.960,-1.490,-136.020
670,48258.204000,232.278,40.739,-102.599,409.842,260.761,-228.112,346.960,-15.490,-154.020
671,48258.244000,223.382,69.910,-79.689,404.958,256.744,-232.134,94.960,-135.490,-101.020
672,48258.264000,242.162,39.733,-90.646,402.099,262.412,-237.898,224.960,-160.490,-125.020
673,48258.310000,230.301,16.597,-73.712,396.196,253.488,-243.993,96.960,-332.490,-108.020
674,48258.344000,235.243,-3.521,-67.735,388.483,258.958,-256.636,357.960,-430.490,-219.020
675,48258.385000,246.116,23.639,-17.930,377.823,261.313,-277.200,684.960,-858.490,-458.020
676,48258.427000,187.799,48.786,-127.502,358.322,252.625,-310.777,927.960,-1185.490,-403.020
677,48258.464000,160.124,64.880,-172.327,336.886,243.032,-340.455,1001.960,-972.490,-269.020
678,48258.505000,159.135,45.768,-176.311,326.102,230.998,-353.493,554.960,-883.490,21.980
679,48258.547000,256.988,10.562,-219.144,316.372,228.617,-369.257,451.960,-567.490,12.980
680,48258.567000,193.730,18.609,-245.043,310.444,217.686,-378.338,95.960,-151.490,-38.020
681,48258.604000,197.683,34.703,-223.128,315.342,222.717,-372.332,-158.040,386.510,-50.020
682,48258.644000,204.602,44.762,-200.218,326.064,227.999,-357.482,-351.040,677.510,39.980
683,48258.689000,208.556,15.591,-163.362,342.622,235.387,-337.670,-607.040,836.510,73.980
684,48258.730000,205.591,12.574,-153.401,355.462,257.408,-312.638,-953.040,937.510,47.980
685,48258.765000,207.568,35.709,-122.521,363.338,266.717,-289.859,-921.040,1045.510,15.980
686,48258.807000,227.336,42.750,-67.735,378.967,276.231,-261.176,-892.040,850.510,66.980
687,48258.847000,202.625,23.639,-37.852,387.698,274.784,-242.557,-602.040,594.510,91.980
688,48258.887000,245.127,30.680,-7.969,388.810,286.746,-228.560,-316.040,181.510,93.980
689,48258.905000,228.324,62.868,-56.778,389.696,278.923,-231.674,44.960,-37.490,41.980
690,48258.948000,248.093,19.615,-73.712,386.850,285.605,-235.454,98.960,-292.490,-60.020
691,48258.988000,250.069,12.574,-126.506,379.123,287.407,-238.373,103.960,-215.490,-242.020
692,48259.28000,218.440,75.945,-140.451,378.151,287.354,-240.337,-134.040,45.510,-251.020
693,48259.69000,213.498,72.927,-107.580,375.324,294.208,-236.268,-256.040,144.510,-100.020
694,48259.105000,220.417,31.686,-78.693,379.301,303.199,-226.254,-305.040,152.510,-25.020
695,48259.145000,233.266,37.721,-57.774,379.284,300.395,-221.413,-175.040,92.510,-51.020
696,48259.185000,240.185,54.821,-72.716,376.410,303.279,-221.355,7.960,-39.490,-135.020
697,48259.205000,222.394,64.880,-95.626,369.638,304.097,-225.274,-1.040,-126.490,-138.020
698,48259.244000,231.290,69.910,-96.623,369.690,309.879,-227.106,-101.040,-155.490,-83.020
699,48259.284000,237.220,60.857,-69.728,363.942,315.648,-226.990,-130.040,-283.490,-74.020
700,48259.328000,272.803,41.745,-50.802,365.899,319.399,-233.768,92.960,-365.490,-145.020
701,48259.369000,277.745,60.857,-34.864,352.319,318.922,-249.497,442.960,-638.490,-271.020
702,48259.408000,256.000,108.134,-95.626,342.547,312.615,-267.310,92.960,-844.490,6.980
703,48259.448000,211.521,72.927,-59.767,340.637,316.350,-273.115,-34.040,-208.490,74.980
704,48259.489000,203.614,104.110,-35.860,355.201,319.641,-262.224,-212.040,608.510,64.980
705,48259.532000,199.660,92.039,-73.712,360.060,317.250,-240.692,-809.040,1100.510,80.980
706,48259.545000,207.568,86.004,-119.533,385.433,332.813,-205.970,-637.040,1457.510,81.980
707,48259.585000,195.707,83.992,-139.455,405.839,333.874,-166.677,-814.040,1408.510,67.980
708,48259.624000,220.417,-118.193,-280.903,412.722,340.283,-142.985,-1345.040,38.510,-43.020
709,48259.669000,260.942,46.774,-36.856,411.727,339.130,-150.858,536.960,-79.490,-190.020
710,48259.705000,253.035,79.969,-56.778,415.638,341.325,-140.994,-760.040,-54.490,206.980
711,48259.745000,226.347,78.963,-75.704,412.736,341.297,-141.001,-91.040,122.510,59.980
712,48259.784000,148.263,251.976,-125.510,414.595,333.549,-141.169,-648.040,-274.490,110.980
713,48259.827000,210.533,179.552,-87.658,413.721,340.594,-129.246,-1228.040,-327.490,-43.020
714,48259.848000,206.579,221.800,-75.704,402.304,359.057,-122.977,-589.040,-271.490,-605.020
715,48259.888000,227.336,191.623,-63.751,392.870,383.277,-120.498,-1083.040,-524.490,-811.020
716,48259.929000,211.521,147.363,-67.735,368.844,398.662,-116.284,-708.040,-397.490,-1155.020
717,48259.969000,162.100,98.075,-78.693,343.977,426.701,-109.830,-609.040,-190.490,-1235.020
718,48260.8000,120.587,72.927,-68.732,327.695,442.204,-103.636,-532.040,178.510,-1271.020
719,48260.49000,158.147,77.957,-76.700,304.737,467.371,-96.262,-17.040,561.510,-991.020
720,48260.89000,315.305,52.809,-10.957,296.163,477.362,-79.387,-911.040,61.510,-456.020
721,48260.129000,258.965,-121.210,-78.693,286.641,487.537,-53.684,-1221.040,-146.490,-265.020
722,48260.169000,394.378,-3.521,-71.720,281.762,484.448,-59.646,6.960,-354.490,4.980
723,48260.189000,346.934,146.358,-41.837,287.618,488.517,-53.660,-795.040,-118.490,225.980
724,48260.228000,324.201,148.369,-13.946,293.402,483.094,-38.077,-304.040,182.510,249.980
725,48260.269000,284.664,41.745,-45.821,300.176,482.297,-33.178,-129.040,-136.490,642.980
726,48260.309000,273.792,-34.703,-79.689,314.531,469.493,-48.141,967.960,-457.490,626.980
727,48260.349000,270.826,64.880,-123.518,318.160,452.250,-83.820,857.960,-1239.490,457.980
728,48260.388000,255.012,-18.609,-114.553,317.937,440.427,-136.058,2241.960,-1200.490,421.980
729,48260.430000,206.579,49.792,-115.549,314.543,404.866,-207.462,3364.960,-645.490,129.980
730,48260.470000,145.297,83.992,-115.549,313.112,367.834,-258.301,2850.960,-228.490,483.980
731,48260.490000,119.598,106.122,-113.556,324.222,321.777,-283.816,1903.960,19.510,892.980
732,48260.530000,104.772,159.434,-110.568,335.716,311.103,-288.932,819.960,440.510,993.980
733,48260.569000,115.645,64.880,-144.436,353.804,279.416,-281.752,453.960,672.510,1065.980
734,48260.607000,69.189,513.509,-266.957,363.530,282.639,-271.854,-2823.040,-685.490,441.980
735,48260.648000,400.309,-148.369,-108.576,369.375,283.084,-254.180,-1225.040,192.510,466.980
736,48260.688000,222.394,231.859,-97.619,380.908,273.661,-246.519,-145.040,464.510,310.980
737,48260.729000,284.664,-95.057,-104.591,385.830,278.929,-229.721,-1739.040,-124.490,461.980
738,48260.768000,235.243,15.591,-112.560,388.742,279.043,-225.789,429.960,515.510,45.980
739,48260.809000,240.185,14.585,-94.630,392.672,283.180,-215.883,121.960,412.510,47.980
740,48260.829000,221.405,-4.527,-77.696,400.383,280.343,-215.929,513.960,445.510,-24.020
741,48260.867000,221.405,28.668,-62.755,401.275,272.586,-216.100,917.960,451.510,-70.020
742,48260.907000,259.954,67.898,-72.716,404.052,259.971,-217.354,184.960,89.510,55.980
743,48260.950000,230.301,7.544,-96.623,399.227,260.916,-216.363,232.960,18.510,-23.020
744,48260.989000,238.208,56.833,-79.689,400.227,264.766,-218.237,168.960,33.510,-7.020
745,48261.30000,246.116,28.668,-94.630,404.067,262.754,-223.177,214.960,32.510,-12.020
746,48261.70000,235.243,9.556,-98.615,402.132,261.851,-219.278,111.960,96.510,-11.020
747,48261.110000,237.220,48.786,-95.626,403.996,255.031,-221.387,147.960,179.510,-4.020
748,48261.130000,239.197,6.538,-81.681,404.999,258.017,-218.377,52.960,150.510,-7.020
749,48261.170000,235.243,-14.585,-60.763,408.873,258.098,-216.405,382.960,182.510,-47.020
750,48261.207000,234.255,78.963,-52.794,405.910,252.202,-218.504,562.960,101.510,-82.020
751,48261.247000,235.243,23.639,-87.658,403.921,248.148,-225.462,87.960,-208.490,0.980
752,48261.287000,228.324,34.703,-107.580,402.983,251.936,-229.303,62.960,-178.490,19.980
753,48261.327000,249.081,40.739,-100.607,402.943,248.031,-230.370,-227.040,-156.490,67.980
754,48261.367000,246.116,23.639,-102.599,399.143,254.832,-228.266,-355.040,-131.490,114.980
755,48261.408000,244.139,3.521,-88.654,404.965,256.809,-229.191,-273.040,-36.490,42.980
756,48261.448000,236.232,18.609,-59.767,402.003,250.934,-230.308,-134.040,-117.490,-24.020
757,48261.468000,238.208,-12.574,-41.837,394.290,253.750,-231.242,49.960,-272.490,-104.020
758,48261.508000,227.336,22.633,-77.696,394.289,255.497,-240.030,486.960,-512.490,-251.020
759,48261.548000,242.162,18.609,-88.654,382.667,258.793,-261.555,643.960,-583.490,-262.020
760,48261.588000,206.579,27.662,-86.661,369.999,253.385,-281.315,692.960,-811.490,-319.020
761,48261.628000,172.973,75.945,-119.533,354.372,243.892,-309.018,650.960,-976.490,-150.020
762,48261.668000,215.475,84.998,-203.206,341.644,232.637,-329.888,523.960,-815.490,118.980
763,48261.708000,211.521,1.509,-219.144,334.859,233.326,-339.694,66.960,-440.490,37.980
764,48261.747000,211.521,74.939,-217.152,338.664,225.705,-334.952,4.960,82.510,25.980
765,48261.767000,223.382,31.686,-175.315,339.761,237.516,-327.822,-419.040,425.510,248.980
766,48261.808000,213.498,2.515,-165.354,348.488,236.910,-315.069,-790.040,515.510,276.980
767,48261.847000,210.533,6.538,-147.424,367.076,253.162,-290.152,-1157.040,601.510,216.980
768,48261.888000,217.452,14.585,-97.619,372.097,267.298,-267.273,-1239.040,555.510,177.980
769,48261.928000,240.185,-22.633,-41.837,377.040,273.645,-245.547,-628.040,396.510,-23.020
770,48261.967000,200.649,37.721,-63.751,380.961,277.695,-239.565,-91.040,198.510,-142.020
771,48262.9000,219.429,59.851,-83.673,379.069,281.603,-237.521,139.960,-4.490,-103.020
772,48262.48000,220.417,37.721,-72.716,375.164,278.588,-240.538,152.960,-133.490,-75.020
773,48262.88000,251.058,42.750,-80.685,369.323,277.302,-252.347,151.960,-295.490,-79.020
774,48262.108000,253.035,-15.591,-126.506,362.599,283.859,-260.061,198.960,-380.490,-233.020
775,48262.148000,215.475,64.880,-159.377,357.797,288.559,-264.870,95.960,-138.490,-349.020
776,48262.192000,220.417,40.739,-135.471,358.769,287.726,-259.002,-205.040,107.510,-186.020
777,48262.232000,213.498,50.798,-97.619,353.027,293.560,-255.943,-68.040,180.510,-192.020
778,48262.272000,205.591,105.116,-88.654,355.958,295.616,-251.968,110.960,82.510,-157.020
779,48262.312000,256.000,93.045,-72.716,351.182,302.322,-253.791,-249.040,-234.490,43.980
780,48262.348000,272.803,62.868,-36.856,348.278,304.041,-262.585,118.960,-638.490,-223.020
781,48262.394000,312.340,110.145,-37.852,332.761,304.408,-283.203,342.960,-1023.490,-369.020
782,48262.412000,256.000,110.145,-146.428,310.388,297.741,-311.838,641.960,-1004.490,-333.020
783,48262.450000,180.880,80.974,-80.685,303.723,310.145,-318.441,-250.040,-579.490,-157.020
784,48262.490000,137.390,94.051,-41.837,318.310,313.652,-297.739,-930.040,483.510,-24.020
785,48262.539000,159.135,82.986,-170.335,339.794,328.983,-271.856,-1418.040,1786.510,240.980
786,48262.572000,161.112,88.016,-211.175,368.169,349.925,-214.453,-1706.040,1850.510,101.980
787,48262.612000,233.266,14.585,-148.420,394.428,353.264,-162.348,-608.040,2216.510,57.980
788,48262.648000,153.205,-59.851,-405.416,409.114,362.122,-118.972,-415.040,1837.510,39.980
789,48262.688000,299.490,86.004,30.879,409.985,353.286,-124.069,-264.040,-82.490,175.980
790,48262.728000,312.340,115.175,-59.767,416.793,353.697,-108.355,-1090.040,82.510,423.980
791,48262.748000,239.197,146.358,-33.868,423.453,339.480,-95.908,-362.040,232.510,226.980
792,48262.800000,232.278,126.240,-30.879,425.427,342.519,-90.933,-351.040,-63.490,208.980
793,48262.830000,213.498,153.399,-75.704,422.560,346.353,-91.835,-176.040,-304.490,-218.020
794,48262.873000,139.367,227.835,-106.584,418.759,353.133,-90.712,-1313.040,-596.490,20.980
795,48262.908000,208.556,234.876,-54.786,413.146,368.998,-72.719,-1758.040,-574.490,-434.020
796,48262.948000,212.510,162.452,-28.887,394.964,387.460,-63.522,-962.040,-292.490,-1060.020
797,48262.989000,163.089,141.328,-24.903,369.153,418.359,-58.968,-380.040,-159.490,-1413.020
798,48263.29000,90.934,82.986,-52.794,333.668,451.797,-67.126,-61.040,-117.490,-1820.020
799,48263.69000,334.085,14.585,-67.735,302.932,475.637,-72.546,-464.040,-387.490,-1912.020
800,48263.95000,395.367,45.768,-60.763,275.957,488.793,-80.156,455.960,153.510,-1226.020
801,48263.129000,331.120,-77.957,-16.934,254.755,499.049,-89.780,502.960,348.510,-706.020
802,48263.169000,390.425,-12.574,-65.743,250.910,503.650,-99.492,-68.040,-104.490,198.980
803,48263.209000,372.633,40.739,-60.763,266.344,495.451,-81.990,-872.040,-232.490,613.980
804,48263.248000,266.873,9.556,-102.599,279.742,480.092,-80.341,105.960,-216.490,896.980
805,48263.290000,316.293,7.544,-150.412,295.123,472.261,-90.289,139.960,-942.490,927.980
806,48263.330000,277.745,-0.503,-117.541,311.342,455.269,-120.052,902.960,-1164.490,1127.980
807,48263.370000,252.046,44.762,-117.541,320.527,415.450,-169.950,2144.960,-812.490,1169.980
808,48263.393000,237.220,55.827,-115.549,335.505,373.811,-216.933,2452.960,-432.490,1355.980
809,48263.450000,78.085,207.717,-70.724,360.224,333.798,-238.363,789.960,-240.490,1677.980
810,48263.478000,94.888,79.969,-82.677,376.361,303.689,-246.843,-178.040,-555.490,1727.980
811,48263.512000,15.815,372.684,-191.253,385.916,289.436,-237.333,-953.040,329.510,773.980
812,48263.550000,422.054,-37.721,-135.471,387.795,285.399,-245.264,1486.960,536.510,-326.020
813,48263.592000,291.583,272.094,-195.237,388.511,260.986,-252.669,-236.040,-61.490,445.980
814,48263.632000,261.931,-2.515,-181.292,394.444,271.959,-241.625,-764.040,72.510,465.980
815,48263.669000,220.417,43.756,-130.490,406.075,270.519,-223.981,-1312.040,193.510,335.980
816,48263.710000,242.162,-1.509,-77.696,408.046,270.883,-208.278,-756.040,253.510,168.980
817,48263.730000,190.764,12.574,-83.673,412.007,277.954,-197.325,-504.040,109.510,151.980
818,48263.770000,196.695,6.538,-102.599,417.876,283.037,-189.355,-256.040,102.510,165.980
819,48263.822000,237.220,27.662,-90.646,416.876,279.187,-187.481,-92.040,158.510,177.980
820,48263.852000,253.035,47.780,-69.728,419.773,278.288,-185.534,-238.040,31.510,161.980
821,48263.892000,235.243,35.709,-70.724,419.799,280.294,-182.547,-199.040,-134.490,77.980
822,48263.932000,254.023,-26.656,-89.650,418.750,273.338,-189.568,206.960,-81.490,-38.020
823,48263.969000,219.429,-72.927,-129.494,416.855,277.224,-188.505,345.960,92.510,-99.020
824,48264.10000,165.066,-6.538,-137.463,423.580,273.320,-192.500,1113.960,619.510,-193.020
825,48264.30000,280.710,180.558,-82.677,419.649,267.414,-194.601,1225.960,687.510,-226.020
826,48264.72000,253.035,72.927,-93.634,424.441,262.629,-193.717,672.960,365.510,-62.020
827,48264.112000,237.220,59.851,-100.607,424.359,253.912,-192.930,223.960,229.510,-0.020
828,48264.152000,253.035,11.568,-58.770,424.377,254.969,-188.983,63.960,41.510,14.980
829,48264.192000,237.220,2.515,-69.728,425.425,263.674,-190.749,100.960,-45.490,-43.020
830,48264.232000,231.290,5.532,-77.696,426.325,257.750,-195.782,214.960,-70.490,-61.020
831,48264.272000,213.498,53.815,-104.591,424.296,248.907,-199.906,386.960,24.510,-43.020
832,48264.312000,261.931,-18.609,-100.607,426.287,254.751,-199.772,40.960,9.510,112.980
833,48264.353000,236.232,46.774,-90.646,427.201,248.957,-198.918,-22.040,116.510,6.980
834,48264.373000,247.104,34.703,-82.677,428.255,256.841,-193.837,-204.040,56.510,25.980
835,48264.413000,227.336,26.656,-79.689,429.234,257.843,-192.832,-195.040,13.510,-17.020
836,48264.453000,240.185,0.503,-51.798,427.268,254.890,-193.882,-102.040,-69.490,-39.020
837,48264.493000,239.197,5.532,-63.751,425.249,246.133,-194.081,11.960,-237.490,-150.020
838,48264.533000,237.220,-2.515,-9.961,411.791,258.277,-209.530,-88.040,-557.490,-229.020
839,48264.573000,253.035,36.715,-13.946,403.135,266.607,-224.074,173.960,-1326.490,-354.020
840,48264.613000,209.544,70.916,-55.782,381.823,271.405,-261.277,450.960,-1698.490,-436.020
841,48264.654000,167.042,16.597,-160.374,357.485,263.554,-298.768,673.960,-1528.490,-212.020
842,48264.674000,245.127,35.709,-152.405,341.816,250.134,-328.519,654.960,-980.490,1.980
843,48264.718000,194.718,12.574,-232.093,330.093,242.772,-349.301,613.960,-802.490,-97.020
844,48264.752000,213.498,35.709,-260.981,324.238,238.703,-355.287,195.960,-172.490,-124.020
845,48264.792000,191.753,30.680,-250.023,325.235,240.762,-350.336,-145.040,312.510,-89.020
846,48264.832000,195.707,24.644,-195.237,336.000,249.970,-333.438,-429.040,793.510,-74.020
847,48264.872000,201.637,13.580,-159.377,347.692,254.398,-313.702,-495.040,979.510,-57.020
848,48264.912000,206.579,37.721,-138.459,363.352,267.731,-287.876,-573.040,1045.510,-71.020
849,48264.953000,190.764,49.792,-86.661,372.212,278.085,-262.130,-473.040,983.510,-48.020
850,48264.993000,216.463,45.768,-89.650,385.808,279.598,-243.435,-116.040,865.510,4.980
851,48265.13000,225.359,70.916,-72.716,392.602,278.110,-225.802,-433.040,558.510,137.980
852,48265.53000,210.533,71.921,-85.665,397.436,275.482,-215.063,-50.040,587.510,264.980
853,48265.103000,248.093,75.945,-60.763,403.243,272.928,-201.378,-782.040,325.510,161.980
854,48265.132000,245.127,-49.792,-98.615,407.257,284.034,-183.471,-670.040,306.510,318.980
855,48265.172000,230.301,8.550,-66.739,414.947,277.464,-176.736,46.960,549.510,-24.020
856,48265.212000,237.220,37.721,-46.817,420.793,279.678,-166.868,-301.040,335.510,70.980
857,48265.252000,237.220,8.550,-25.899,418.921,284.664,-159.897,61.960,88.510,-103.020
858,48265.290000,239.197,19.615,-56.778,413.178,291.361,-161.721,97.960,-81.490,-189.020
859,48265.315000,235.243,50.798,-73.712,414.103,288.328,-167.671,160.960,-164.490,-236.020
860,48265.350000,243.151,48.786,-74.708,408.330,292.090,-170.541,-64.040,-202.490,-213.020
861,48265.392000,238.208,39.733,-56.778,400.661,300.623,-176.252,101.960,-298.490,-316.020
862,48265.432000,235.243,46.774,-73.712,395.802,300.360,-186.075,149.960,-340.490,-339.020
863,48265.472000,229.313,62.868,-92.638,390.059,307.941,-191.803,34.960,-333.490,-259.020
864,48265.512000,232.278,112.157,-78.693,382.398,317.424,-198.473,-302.040,-483.490,-190.020
865,48265.550000,261.931,74.939,-79.689,371.733,315.335,-200.503,-562.040,-608.490,-38.020
866,48265.590000,250.069,138.310,-91.642,374.732,325.978,-203.203,-222.040,-502.490,-167.020
867,48265.634000,215.475,147.363,-114.553,363.110,327.505,-216.922,22.960,-589.490,-386.020
868,48265.655000,198.672,157.422,-105.588,346.747,338.714,-229.457,299.960,-454.490,-621.020
869,48265.695000,187.799,198.664,-101.603,336.299,358.956,-230.991,-608.040,-403.490,-709.020
870,48265.735000,222.394,101.092,-46.817,325.906,381.484,-216.783,-910.040,26.510,-780.020
871,48265.772000,215.475,40.739,-20.918,319.327,398.246,-201.715,-58.040,1050.510,-925.020
872,48265.818000,141.344,149.375,-166.350,320.357,402.376,-190.834,-50.040,1390.510,-930.020
873,48265.852000,138.378,70.916,-229.105,322.490,418.382,-169.880,-9.040,1016.510,-435.020
874,48265.892000,309.375,-98.075,-87.658,312.872,424.113,-169.774,12.960,-378.490,-75.020
875,48265.944000,312.340,41.745,-125.510,320.587,423.066,-176.645,-377.040,-202.490,353.980
876,48265.952000,189.776,174.523,-74.708,324.449,421.270,-171.774,-865.040,-460.490,375.980
877,48265.993000,223.382,189.611,-88.654,325.403,417.633,-161.065,-797.040,-408.490,236.980
878,48266.34000,192.741,278.130,-42.833,328.476,430.736,-140.174,-1076.040,-354.490,111.980
879,48266.72000,176.927,217.776,-21.914,324.703,436.912,-122.393,-1173.040,145.510,-349.020
880,48266.112000,197.683,180.558,-28.887,321.979,449.159,-93.687,-891.040,584.510,-558.020
881,48266.153000,177.915,186.593,-50.802,313.554,472.030,-64.758,-1157.040,935.510,-607.020
882,48266.192000,175.938,131.269,-53.790,307.890,476.849,-19.553,-1522.040,890.510,-508.020
883,48266.233000,171.985,-39.733,-144.436,292.615,495.382,-8.386,690.960,736.510,-842.020
884,48266.273000,149.251,99.081,-61.759,263.631,510.439,-61.069,2343.960,31.510,-1184.020
885,48266.299000,217.452,65.886,72.716,243.268,510.672,-85.623,234.960,-1136.490,-271.020
886,48266.334000,268.849,57.839,-162.366,244.260,515.321,-95.325,-771.040,-699.490,20.980
887,48266.385000,298.502,289.195,-47.813,237.445,513.960,-110.079,993.960,-271.490,-247.020
888,48266.412000,306.409,248.959,-61.759,234.508,511.839,-116.997,-38.040,-8.490,-42.020
889,48266.453000,293.560,219.788,-60.763,236.514,516.950,-106.092,-137.040,407.510,80.980
890,48266.493000,243.151,81.980,-41.837,249.110,515.497,-89.427,-472.040,341.510,379.980
891,48266.535000,187.799,-32.692,-72.716,252.915,509.623,-93.472,243.960,-90.490,253.980
892,48266.572000,242.162,-80.974,-157.385,250.875,505.959,-126.900,2107.960,-739.490,20.980
893,48266.592000,199.660,49.792,-161.370,242.744,479.239,-191.253,2592.960,-775.490,92.980
894,48266.633000,188.788,22.633,-133.479,240.452,452.899,-240.875,1517.960,-674.490,521.980
895,48266.673000,239.197,24.644,-102.599,246.867,424.012,-277.788,2075.960,-224.490,769.980
896,48266.713000,199.660,125.234,-121.525,271.496,376.965,-310.161,2082.960,560.510,1219.980
897,48266.752000,155.181,217.776,-130.490,304.019,338.516,-308.004,199.960,420.510,1828.980
898,48266.792000,142.332,183.576,-146.428,337.801,325.771,-284.680,-860.040,419.510,2144.980
899,48266.832000,127.506,250.971,-126.506,353.134,306.030,-262.531,-1361.040,413.510,1678.980
900,48266.872000,228.324,405.878,-55.782,377.245,294.097,-242.151,-345.040,514.510,1353.980
901,48266.917000,274.780,155.411,-148.420,390.895,299.645,-216.502,-1017.040,275.510,478.980
902,48266.937000,279.722,51.804,-93.634,396.725,300.823,-209.599,332.960,437.510,-95.020
903,48266.990000,289.606,45.768,-95.626,396.597,287.274,-207.938,12.960,371.510,177.980
904,48267.14000,221.405,30.680,-96.623,401.520,293.427,-195.043,-500.040,229.510,221.980
905,48267.53000,223.382,23.639,-59.767,402.480,291.602,-190.178,153.960,294.510,134.980
906,48267.94000,251.058,26.656,-66.739,411.095,282.000,-189.392,107.960,164.510,145.980
907,48267.134000,220.417,65.886,-80.685,414.042,286.861,-190.259,306.960,103.510,70.980
908,48267.175000,244.139,7.544,-92.638,413.929,276.095,-194.421,362.960,129.510,74.980
909,48267.215000,220.417,60.857,-87.658,414.870,272.329,-189.599,247.960,115.510,86.980
910,48267.237000,241.174,35.709,-98.615,419.722,274.275,-191.507,185.960,127.510,73.980
911,48267.273000,241.174,26.656,-77.696,417.728,268.409,-192.622,238.960,130.510,57.980
912,48267.314000,246.116,32.692,-81.681,422.528,264.573,-192.697,-9.040,14.510,90.980
913,48267.355000,238.208,19.615,-82.677,424.444,262.650,-192.736,14.960,24.510,44.980
914,48267.395000,237.220,26.656,-70.724,420.585,262.720,-187.839,8.960,-14.490,48.980
915,48267.435000,238.208,18.609,-75.704,424.453,263.621,-192.714,77.960,-67.490,27.980
916,48267.475000,230.301,32.692,-75.704,421.549,264.456,-197.605,36.960,-121.490,37.980
917,48267.515000,238.208,11.568,-95.626,420.499,256.615,-200.723,252.960,-24.490,8.980
918,48267.554000,238.208,26.656,-88.654,423.428,259.534,-201.633,107.960,-33.490,9.980
919,48267.574000,233.266,55.827,-107.580,423.340,249.890,-198.905,-44.040,-6.490,18.980
920,48267.614000,244.139,11.568,-74.708,422.446,257.626,-199.716,-148.040,24.510,52.980
921,48267.662000,232.278,21.627,-74.708,422.491,262.459,-200.589,10.960,20.510,-41.020
922,48267.693000,241.174,15.591,-74.708,422.451,258.554,-201.657,55.960,-38.490,-52.020
923,48267.733000,236.232,28.668,-78.693,419.535,257.511,-203.647,87.960,-103.490,-65.020
924,48267.773000,238.208,-6.538,-69.728,418.603,262.248,-208.447,237.960,-138.490,-108.020
925,48267.813000,243.151,15.591,-59.767,413.717,258.210,-213.451,351.960,-242.490,-177.020
926,48267.854000,255.012,-13.580,-59.767,408.891,262.672,-229.052,531.960,-404.490,-305.020
927,48267.894000,184.834,63.874,-107.580,400.138,261.271,-244.792,690.960,-570.490,-391.020
928,48267.918000,221.405,35.709,-79.689,384.598,258.769,-263.513,446.960,-670.490,-345.020
929,48267.953000,241.174,56.833,-136.467,371.934,255.173,-289.117,690.960,-705.490,-253.020
930,48267.993000,216.463,29.674,-140.451,362.242,255.791,-300.892,273.960,-706.490,-209.020
931,48268.38000,211.521,57.839,-206.195,355.417,252.575,-311.765,433.960,-326.490,-177.020
932,48268.74000,206.579,93.045,-199.222,356.364,250.621,-312.787,-37.040,146.510,35.980
933,48268.114000,214.486,38.727,-152.405,362.139,245.996,-305.032,-308.040,334.510,205.980
934,48268.154000,208.556,4.527,-150.412,368.013,250.238,-291.196,-419.040,507.510,175.980
935,48268.194000,233.266,27.662,-114.553,377.841,262.371,-273.254,-525.040,574.510,120.980
936,48268.214000,216.463,25.650,-104.591,381.737,261.783,-257.568,-562.040,536.510,92.980
937,48268.254000,228.324,18.609,-92.638,391.523,269.989,-241.675,-557.040,486.510,62.980
938,48268.295000,228.324,41.745,-80.685,393.536,274.279,-223.924,-408.040,399.510,20.980
939,48268.342000,229.313,38.727,-96.623,400.324,275.381,-220.943,-367.040,337.510,9.980
940,48268.383000,235.243,26.656,-75.704,403.353,285.420,-206.984,-432.040,261.510,29.980
941,48268.417000,233.266,37.721,-75.704,404.345,286.551,-200.093,-118.040,263.510,3.980
942,48268.454000,242.162,34.703,-63.751,407.221,281.919,-191.363,-250.040,152.510,14.980
943,48268.495000,249.081,14.585,-71.720,402.414,284.806,-190.329,-43.040,48.510,-126.020
944,48268.517000,237.220,33.697,-60.763,401.592,299.403,-188.045,-65.040,-32.490,-264.020
945,48268.558000,242.162,31.686,-88.654,396.739,298.320,-191.021,274.960,39.510,-308.020
946,48268.600000,222.394,82.986,-93.634,397.777,305.169,-188.906,173.960,64.510,-257.020
947,48268.635000,234.255,57.839,-84.669,397.787,307.024,-192.787,-50.040,49.510,-170.020
948,48268.675000,235.243,59.851,-65.743,392.001,308.025,-188.855,-152.040,23.510,-136.020
949,48268.714000,238.208,53.815,-59.767,384.264,308.856,-191.795,-129.040,-136.490,-153.020
950,48268.754000,232.278,48.786,-53.790,383.393,318.576,-190.600,-106.040,-306.490,-156.020
951,48268.797000,246.116,61.862,-58.770,381.478,323.153,-202.270,-27.040,-455.490,-187.020
952,48268.837000,250.069,53.815,-76.700,376.667,325.997,-203.198,-105.040,-482.490,-140.020
953,48268.857000,230.301,79.969,-80.685,364.993,321.742,-215.085,-16.040,-537.490,-86.020
954,48268.897000,227.336,115.175,-94.630,356.339,329.208,-224.744,-104.040,-560.490,-5.020
955,48268.942000,255.012,82.986,-73.712,353.432,328.252,-222.810,-661.040,-558.490,25.980
956,48268.977000,265.884,95.057,15.938,357.412,339.918,-223.524,187.960,245.510,-365.020
957,48269.15000,203.614,136.299,16.934,365.169,339.282,-211.753,225.960,1089.510,-343.020
958,48269.57000,191.753,73.933,-61.759,385.725,353.223,-160.406,-1041.040,1922.510,-56.020
959,48269.98000,290.595,126.240,-116.545,398.439,359.947,-124.926,-897.040,2081.510,163.980
960,48269.138000,217.452,116.181,-139.455,417.874,356.554,-67.102,-1878.040,1155.510,576.980
961,48269.184000,181.869,58.845,-135.471,428.578,355.492,-31.799,-1322.040,475.510,253.980
962,48269.198000,200.649,158.428,-107.580,427.630,358.309,-35.661,375.960,-495.490,-347.020
963,48269.234000,221.405,198.664,-46.817,419.903,361.880,-46.385,-611.040,-964.490,-383.020
964,48269.274000,241.174,117.187,-45.821,409.431,380.136,-49.925,-288.040,-663.490,-678.020
965,48269.314000,208.556,268.071,-60.763,398.915,393.560,-52.591,-671.040,-558.490,-971.020
966,48269.354000,234.255,111.151,-48.809,383.599,411.705,-59.085,286.960,-148.490,-921.020
967,48269.402000,223.382,203.694,-79.689,361.549,434.551,-69.412,-125.040,-237.490,-1140.020
968,48269.435000,235.243,140.322,-63.751,337.494,446.138,-61.360,-821.040,-477.490,-1051.020
969,48269.477000,228.324,100.086,-55.782,312.621,473.229,-53.946,-515.040,-406.490,-1079.020
970,48269.497000,215.475,62.868,-59.767,287.626,490.351,-58.522,13.960,-222.490,-1151.020
971,48269.537000,203.614,68.904,-54.786,258.639,497.468,-75.097,595.960,-88.490,-1062.020
972,48269.577000,171.985,63.874,-43.829,247.146,510.796,-81.690,587.960,-14.490,-925.020
973,48269.617000,178.903,40.739,-18.926,227.773,511.255,-96.430,758.960,401.510,-567.020
974,48269.657000,154.193,1.509,-58.770,216.145,513.602,-116.997,1261.960,672.510,-371.020
975,48269.697000,216.463,153.399,-79.689,216.976,505.262,-143.658,391.960,282.510,217.980
976,48269.737000,279.722,241.917,-37.852,225.706,506.447,-137.729,-1080.040,-709.490,619.980
977,48269.775000,296.525,183.576,-22.911,233.436,499.381,-109.431,-1493.040,-489.490,688.980
978,48269.817000,299.490,212.747,-1.992,242.210,504.514,-100.472,-190.040,78.510,299.980
979,48269.837000,272.803,169.493,-2.988,247.910,493.007,-96.793,-386.040,92.510,287.980
980,48269.877000,218.440,33.697,-41.837,251.829,497.036,-91.792,268.960,-136.490,207.980
981,48269.917000,208.556,0.503,-155.393,248.792,490.427,-126.268,1368.960,-619.490,-159.020
982,48269.957000,251.058,22.633,-148.420,242.668,469.703,-183.619,2312.960,-785.490,-52.020
983,48269.997000,182.857,28.668,-123.518,236.570,450.099,-234.081,1909.960,-706.490,242.980
984,48270.37000,161.112,87.010,-135.471,242.896,413.316,-277.053,2347.960,-57.490,634.980
985,48270.77000,145.297,123.222,-124.514,255.202,389.706,-297.164,1363.960,119.510,1298.980
986,48270.118000,161.112,170.499,-137.463,283.007,363.810,-295.719,-538.040,99.510,1813.980
987,48270.135000,132.448,165.470,-164.358,312.923,351.934,-275.326,-1154.040,-37.490,1660.980
988,48270.177000,174.950,142.334,-144.436,331.110,329.999,-265.968,20.960,354.510,1085.980
989,48270.228000,191.753,179.552,-151.409,345.526,318.662,-258.344,171.960,454.510,796.980
990,48270.258000,199.660,157.422,-114.553,361.087,321.359,-230.792,-1529.040,268.510,705.980
991,48270.298000,236.232,142.334,-101.603,368.757,311.078,-216.294,-563.040,327.510,536.980
992,48270.338000,265.884,52.809,-99.611,375.564,314.121,-213.271,387.960,513.510,99.980
993,48270.380000,265.884,61.862,-102.599,381.274,303.585,-209.570,426.960,599.510,41.980
994,48270.417000,219.429,138.310,-99.611,387.131,306.791,-198.699,-755.040,233.510,332.980
995,48270.457000,255.012,24.644,-90.646,391.995,306.213,-183.011,-212.040,377.510,253.980
996,48270.484000,224.371,34.703,-62.755,399.741,305.468,-176.147,-205.040,306.510,244.980
997,48270.519000,241.174,31.686,-51.798,401.586,294.937,-170.492,34.960,153.510,193.980
998,48270.560000,240.185,36.715,-67.735,406.421,295.847,-175.365,225.960,54.510,137.980
999,48270.599000,236.232,45.768,-83.673,409.271,290.093,-173.526,33.960,-37.490,137.980
1000,48270.639000,237.220,32.692,-83.673,409.288,292.898,-178.367,130.960,-21.490,115.980
1001,48270.675000,232.278,39.733,-82.677,413.076,285.104,-181.474,105.960,-60.490,111.980
1002,48270.715000,234.255,48.786,-97.619,412.068,280.305,-178.640,180.960,-38.490,124.980
1003,48270.755000,233.266,27.662,-91.642,408.147,276.255,-184.623,77.960,-10.490,140.980
1004,48270.779000,240.185,32.692,-84.669,414.950,279.255,-183.561,225.960,45.510,105.980
1005,48270.819000,236.232,37.721,-91.642,412.961,274.317,-186.617,59.960,-20.490,141.980
1006,48270.858000,247.104,24.644,-86.661,418.749,272.453,-185.665,-30.040,-19.490,129.980
1007,48270.900000,238.208,32.692,-86.661,418.665,264.600,-189.762,-80.040,-30.490,132.980
1008,48270.940000,230.301,21.627,-90.646,418.641,261.731,-187.865,-54.040,-30.490,108.980
1009,48270.980000,237.220,19.615,-102.599,418.709,268.548,-186.733,-132.040,-11.490,112.980
1010,48271.20000,233.266,24.644,-89.650,426.436,265.862,-179.911,-138.040,47.510,98.980
1011,48271.57000,232.278,22.633,-84.669,420.565,259.009,-180.076,-141.040,41.510,81.980
1012,48271.97000,237.220,16.597,-76.700,426.429,264.913,-178.952,-203.040,-11.490,73.980
1013,48271.118000,242.162,25.650,-87.658,424.438,259.069,-179.086,-65.040,33.510,30.980
1014,48271.158000,237.220,19.615,-88.654,423.554,266.912,-174.991,-130.040,-4.490,29.980
1015,48271.198000,238.208,25.650,-81.681,425.506,268.851,-175.924,-48.040,-7.490,-5.020
1016,48271.238000,235.243,26.656,-86.661,426.393,260.166,-174.154,-46.040,-2.490,0.980
1017,48271.278000,238.208,21.627,-85.665,426.402,261.137,-174.132,10.960,16.510,-0.020
1018,48271.318000,243.151,22.633,-82.677,422.573,265.004,-173.074,-52.040,-12.490,-8.020
1019,48271.358000,241.174,26.656,-88.654,424.496,264.031,-174.072,-42.040,-4.490,-8.020
1020,48271.398000,238.208,19.615,-87.658,429.408,270.960,-169.985,-129.040,-15.490,8.980
1021,48271.418000,235.243,32.692,-82.677,425.529,270.836,-173.919,-70.040,-20.490,-7.020
1022,48271.458000,243.151,25.650,-85.665,427.443,268.007,-171.036,-24.040,-8.490,-4.020
1023,48271.505000,235.243,22.633,-82.677,422.639,271.800,-172.923,-23.040,-18.490,-14.020
1024,48271.539000,239.197,24.644,-86.661,426.527,272.895,-168.968,12.960,-8.490,-23.020
1025,48271.579000,231.290,27.662,-88.654,427.462,269.949,-170.993,14.960,8.510,-18.020
1026,48271.619000,236.232,30.680,-87.658,426.520,272.831,-171.911,-23.040,-6.490,-0.020
1027,48271.659000,240.185,29.674,-83.673,424.510,265.045,-172.088,25.960,5.510,-20.020
1028,48271.707000,236.232,30.680,-86.661,422.575,265.026,-172.093,-8.040,-4.490,-19.020
1029,48271.747000,236.232,22.633,-83.673,427.433,267.036,-171.057,-16.040,-19.490,-34.020
1030,48271.760000,239.197,24.644,-88.654,421.690,273.733,-172.882,4.960,-16.490,-51.020
1031,48271.800000,235.243,27.662,-86.661,422.636,270.894,-170.001,1.960,-6.490,-57.020
1032,48271.840000,237.220,31.686,-87.658,421.742,279.515,-174.715,0.960,-9.490,-71.020
1033,48271.880000,236.232,36.715,-85.665,421.681,272.762,-172.904,-53.040,-26.490,-68.020
1034,48271.919000,238.208,30.680,-84.669,414.975,279.492,-172.768,18.960,-18.490,-72.020
1035,48271.959000,232.278,27.662,-83.673,419.828,281.459,-173.695,45.960,-38.490,-85.020
1036,48271.997000,237.220,33.697,-89.650,414.987,281.369,-175.669,46.960,-44.490,-98.020
1037,48272.42000,235.243,38.727,-90.646,413.994,279.353,-178.658,89.960,-24.490,-126.020
1038,48272.82000,233.266,32.692,-91.642,410.228,289.995,-178.429,45.960,-30.490,-126.020
1039,48272.102000,236.232,33.697,-88.654,407.238,281.207,-179.611,32.960,-29.490,-131.020
