Sample, Time, ACCX, ACCY, ACCZ, MAGX, MAGY, MAGZ, GYRX, GYRY, GYRZ
0,48630.769000,242.189,11.613,-39.577,444.279,218.947,-102.328,30.800,67.290,140.420
1,48630.808000,251.067,9.594,-30.560,446.044,214.665,-100.476,-3.200,41.290,144.420
2,48630.850000,258.960,6.564,-27.554,446.049,218.165,-99.369,-11.200,9.290,142.420
3,48630.889000,255.013,3.535,-27.554,445.157,214.608,-102.466,10.800,-18.710,125.420
4,48630.929000,253.040,2.525,-31.562,444.273,206.823,-101.729,14.800,-41.710,101.420
5,48630.969000,256.987,1.515,-38.575,446.038,206.853,-100.729,-51.200,-48.710,75.420
6,48630.989000,246.135,1.515,-45.589,445.156,209.428,-101.641,-19.200,-58.710,47.420
7,48631.31000,251.067,5.554,-41.581,449.553,206.771,-103.700,135.800,-32.710,-8.580
8,48631.71000,240.216,12.623,-46.591,447.786,203.269,-104.812,305.800,-33.710,-57.580
9,48631.111000,240.216,11.613,-51.601,446.892,209.176,-110.581,232.800,-84.710,-59.580
10,48631.162000,244.162,11.613,-62.622,445.103,198.561,-117.882,100.800,-190.710,-34.580
11,48631.192000,245.148,7.574,-46.591,444.221,208.892,-120.529,-168.200,-202.710,3.420
12,48631.233000,260.933,-21.712,-17.534,445.108,208.949,-118.538,-267.200,-51.710,72.420
13,48631.253000,258.960,-4.544,-41.581,446.878,209.035,-115.551,-13.200,50.290,17.420
14,48631.293000,253.040,5.554,-33.566,444.234,211.609,-116.469,-72.200,-40.710,-0.580
15,48631.331000,251.067,7.574,-40.579,441.580,203.738,-118.718,-192.200,-94.710,4.420
16,48631.371000,242.189,0.505,-47.593,440.706,208.974,-117.558,-381.200,-186.710,38.420
17,48631.411000,245.148,-0.505,-56.611,442.459,205.447,-119.653,-361.200,-212.710,19.420
18,48631.451000,248.108,6.564,-60.618,440.702,207.210,-118.609,-344.200,-115.710,-30.580
19,48631.471000,241.202,8.584,-72.642,439.823,210.681,-118.499,-29.200,-26.710,-122.580
20,48631.511000,242.189,26.761,-66.630,439.821,215.833,-120.318,175.800,61.290,-170.580
21,48631.551000,242.189,13.633,-62.622,438.061,217.567,-120.267,69.800,102.290,-137.580
22,48631.591000,248.108,12.623,-63.624,438.087,222.133,-112.175,48.800,154.290,-102.580
23,48631.631000,259.946,9.594,-48.595,435.451,228.235,-110.992,136.800,232.290,-75.580
24,48631.671000,259.946,21.712,-46.591,440.742,223.983,-108.134,100.800,248.290,-20.580
25,48631.711000,255.013,-6.564,-41.581,437.235,227.594,-103.063,51.800,240.290,-95.580
26,48631.731000,248.108,18.682,-22.544,435.479,227.649,-101.081,64.800,135.290,-124.580
27,48631.771000,242.189,29.791,-24.548,431.966,234.646,-98.879,-33.200,39.290,-118.580
28,48631.824000,249.094,18.682,-38.575,434.601,231.988,-100.943,-23.200,-48.710,-105.580
29,48631.851000,251.067,20.702,-40.579,430.193,231.089,-101.980,-60.200,-78.710,-102.580
30,48631.891000,248.108,24.742,-42.583,429.311,230.220,-102.011,-60.200,-81.710,-100.580
31,48631.931000,249.094,20.702,-47.593,429.319,240.636,-101.673,-62.200,-81.710,-83.580
32,48631.951000,247.121,21.712,-52.603,431.073,245.733,-105.473,-2.200,-53.710,-72.580
33,48631.989000,248.108,26.761,-52.603,431.072,243.129,-105.558,-25.200,-3.710,-68.580
34,48632.36000,250.081,26.761,-50.599,429.323,245.844,-101.504,-58.200,56.290,-56.580
35,48632.69000,247.121,22.722,-47.593,424.926,249.369,-99.417,-59.200,69.290,-54.580
36,48632.109000,248.108,29.791,-41.581,427.571,247.663,-98.471,-47.200,69.290,-58.580
37,48632.149000,247.121,28.781,-41.581,427.568,244.191,-98.584,-39.200,62.290,-50.580
38,48632.189000,248.108,27.771,-38.575,427.577,245.144,-95.574,-22.200,47.290,-47.580
39,48632.211000,250.081,32.821,-37.573,425.821,252.086,-95.354,-31.200,24.290,-47.580
40,48632.251000,247.121,31.811,-40.579,424.952,253.934,-91.325,-23.200,13.290,-40.580
41,48632.289000,250.081,30.801,-41.581,424.063,253.849,-94.310,-23.200,17.290,-37.580
42,48632.331000,247.121,28.781,-40.579,424.066,254.745,-93.288,-25.200,16.290,-36.580
43,48632.371000,247.121,32.821,-39.577,423.189,251.329,-91.415,-36.200,10.290,-36.580
44,48632.412000,250.081,32.821,-39.577,420.544,249.591,-91.480,-36.200,9.290,-36.580
45,48632.432000,248.108,30.801,-40.579,424.077,257.434,-90.221,-31.200,8.290,-34.580
46,48632.472000,249.094,32.821,-39.577,421.430,259.112,-92.161,-20.200,7.290,-32.580
47,48632.511000,248.108,30.801,-38.575,422.315,260.876,-91.108,-19.200,0.290,-32.580
48,48632.551000,246.135,28.781,-38.575,422.320,260.065,-89.149,-29.200,-6.710,-32.580
49,48632.591000,251.067,33.830,-38.575,420.547,256.507,-92.249,-6.200,-14.710,-39.580
50,48632.631000,249.094,37.870,-36.571,420.546,255.639,-92.277,6.800,-16.710,-29.580
51,48632.669000,250.081,29.791,-39.577,420.554,254.856,-89.323,10.800,-31.710,-14.580
52,48632.689000,246.135,36.860,-36.571,419.666,257.374,-92.223,38.800,-45.710,-5.580
53,48632.729000,251.067,43.929,-36.571,423.186,259.057,-94.144,72.800,-58.710,19.420
54,48632.769000,239.229,33.830,-38.575,418.772,258.101,-97.168,20.800,-94.710,43.420
55,48632.816000,240.216,25.751,-46.591,418.768,257.205,-98.190,-149.200,-121.710,49.420
56,48632.856000,251.067,25.751,-42.583,418.773,256.393,-96.230,-423.200,-185.710,114.420
57,48632.891000,249.094,14.643,-55.609,421.423,250.432,-92.443,-635.200,-266.710,232.420
58,48632.911000,256.000,21.712,-63.624,424.952,253.066,-91.353,-468.200,-182.710,298.420
59,48632.951000,221.472,36.860,-79.656,428.476,249.625,-90.461,-366.200,-48.710,251.420
60,48632.991000,220.486,40.899,-47.593,431.133,249.768,-85.483,-417.200,34.290,269.420
61,48633.31000,211.607,49.988,-36.571,434.670,244.732,-79.677,-182.200,34.290,170.420
62,48633.71000,252.054,20.702,-23.546,434.664,240.363,-80.811,139.800,38.290,117.420
63,48633.111000,288.555,17.673,-34.568,431.995,232.352,-88.031,292.800,5.290,159.420
64,48633.151000,252.054,17.673,-42.583,436.391,227.959,-90.145,412.800,-2.710,146.420
65,48633.171000,244.162,9.594,-55.609,439.905,225.273,-93.200,382.800,20.290,135.420
66,48633.216000,245.148,1.515,-61.620,437.266,227.035,-92.158,171.800,85.290,79.420
67,48633.256000,251.067,6.564,-46.591,440.789,221.858,-91.322,332.800,121.290,50.420
68,48633.296000,255.013,18.682,-34.568,444.317,223.625,-90.261,217.800,122.290,37.420
69,48633.336000,246.135,-9.594,-39.577,442.534,219.115,-96.371,736.800,119.290,-16.580
70,48633.371000,245.148,-2.525,-52.603,440.757,212.925,-100.549,1142.800,148.290,-101.580
71,48633.391000,246.135,30.801,-53.605,441.631,215.445,-103.443,790.800,153.290,-51.580
72,48633.431000,250.081,11.613,-43.585,441.613,213.540,-109.463,271.800,128.290,24.420
73,48633.471000,248.108,16.663,-31.562,442.500,211.021,-106.563,173.800,108.290,32.420
74,48633.511000,252.054,-8.584,-34.568,446.031,209.372,-103.626,3.800,52.290,24.420
75,48633.551000,251.067,7.574,-31.562,442.500,211.021,-106.563,131.800,15.290,18.420
76,48633.591000,249.094,13.633,-36.571,444.266,211.918,-105.535,-5.200,1.290,15.420
77,48633.636000,251.067,6.564,-31.562,442.495,207.521,-107.670,23.800,-3.710,34.420
78,48633.656000,249.094,7.574,-39.577,442.497,203.237,-105.823,-52.200,4.290,37.420
79,48633.691000,251.067,1.515,-37.573,445.145,209.315,-105.617,-47.200,5.290,29.420
80,48633.747000,250.081,7.574,-31.562,442.504,204.161,-103.807,79.800,0.290,3.420
81,48633.777000,249.094,7.574,-33.566,443.376,204.078,-106.786,-2.200,-17.710,4.420
82,48633.812000,249.094,7.574,-34.568,445.139,205.815,-106.724,-11.200,-29.710,12.420
83,48633.852000,252.054,1.515,-34.568,443.380,209.286,-106.617,21.800,-34.710,-13.580
84,48633.872000,252.054,8.584,-35.569,445.129,196.239,-108.027,30.800,-23.710,-32.580
85,48633.912000,250.081,6.564,-36.571,444.250,202.286,-108.827,157.800,-9.710,-42.580
86,48633.952000,249.094,12.623,-33.566,446.006,205.675,-111.690,89.800,-24.710,-46.580
87,48633.993000,247.121,1.515,-37.573,446.002,204.779,-112.713,19.800,-55.710,-36.580
88,48634.31000,247.121,-0.505,-42.583,444.242,210.825,-113.515,-84.200,-82.710,-26.580
89,48634.77000,249.094,3.535,-45.589,446.007,210.855,-112.515,-158.200,-87.710,-26.580
90,48634.111000,250.081,4.544,-41.581,439.840,210.850,-112.535,-32.200,-71.710,-33.580
91,48634.131000,249.094,13.633,-40.579,438.071,212.500,-115.466,-86.200,-78.710,-40.580
92,48634.171000,251.067,10.604,-38.575,438.075,214.264,-114.416,-104.200,-80.710,-42.580
93,48634.211000,252.054,12.623,-41.581,442.468,208.975,-117.553,-103.200,-91.710,-40.580
94,48634.253000,249.094,10.604,-43.585,437.188,217.651,-117.288,-125.200,-88.710,-46.580
95,48634.293000,249.094,9.594,-45.589,438.943,215.860,-119.326,-108.200,-93.710,-47.580
96,48634.333000,248.108,10.604,-45.589,434.537,210.677,-118.516,-116.200,-92.710,-50.580
97,48634.373000,250.081,16.663,-48.595,435.426,221.094,-118.175,-94.200,-95.710,-48.580
98,48634.393000,250.081,12.623,-51.601,436.301,220.170,-120.188,-87.200,-68.710,-42.580
99,48634.433000,252.054,10.604,-52.603,433.655,220.140,-121.191,-76.200,-52.710,-41.580
100,48634.473000,247.121,19.692,-47.593,435.422,219.330,-119.225,-82.200,-46.710,-40.580
101,48634.512000,249.094,13.633,-49.597,433.660,222.772,-120.112,-74.200,-43.710,-33.580
102,48634.557000,249.094,11.613,-52.603,432.780,224.508,-120.059,-74.200,-42.710,-37.580
103,48634.598000,247.121,14.643,-52.603,432.781,229.687,-120.884,-73.200,-29.710,-35.580
104,48634.612000,247.121,16.663,-50.599,432.779,230.527,-121.849,-58.200,-17.710,-33.580
105,48634.658000,248.108,17.673,-51.601,430.123,216.609,-123.302,-52.200,-14.710,-32.580
106,48634.693000,248.108,19.692,-50.599,431.908,228.903,-117.933,-35.200,-11.710,-27.580
107,48634.733000,248.108,18.682,-51.601,431.027,232.346,-118.817,-33.200,-6.710,-25.580
108,48634.781000,245.148,17.673,-51.601,431.898,226.215,-120.999,-18.200,-7.710,-23.580
109,48634.813000,247.121,18.682,-53.605,431.901,234.867,-121.711,-20.200,4.290,-16.580
110,48634.853000,248.108,17.673,-52.603,431.904,234.895,-120.717,-22.200,18.290,-14.580
111,48634.881000,247.121,19.692,-49.597,431.034,234.139,-116.773,-13.200,26.290,-10.580
112,48634.913000,246.135,18.682,-48.595,430.150,234.110,-117.769,-1.200,19.290,-12.580
113,48634.953000,248.108,20.702,-46.591,429.279,231.618,-113.881,4.800,12.290,-8.580
114,48634.993000,248.108,20.702,-48.595,427.512,229.853,-114.937,-2.200,9.290,-5.580
115,48635.33000,246.135,18.682,-51.601,427.513,234.164,-115.790,-4.200,10.290,-1.580
116,48635.72000,247.121,19.692,-48.595,428.393,233.297,-115.816,-2.200,1.290,-2.580
117,48635.92000,248.108,19.692,-48.595,430.151,231.534,-116.860,-0.200,-8.710,-3.580
118,48635.132000,247.121,19.692,-50.599,430.162,239.402,-114.619,-3.200,-9.710,-0.580
119,48635.176000,248.108,18.682,-47.593,429.280,236.798,-114.706,-1.200,-15.710,0.420
120,48635.212000,247.121,19.692,-48.595,431.041,235.931,-114.729,-5.200,-18.710,2.420
121,48635.253000,247.121,18.682,-51.601,429.269,234.109,-117.772,-8.200,-6.710,4.420
122,48635.293000,247.121,20.702,-49.597,431.910,234.951,-118.730,-0.200,-1.710,4.420
123,48635.332000,248.108,20.702,-49.597,430.151,228.090,-115.979,5.800,-2.710,4.420
124,48635.358000,250.081,19.692,-51.601,428.392,235.005,-116.753,1.800,5.290,6.420
125,48635.394000,249.094,20.702,-50.599,429.278,234.194,-114.791,6.800,12.290,8.420
126,48635.439000,247.121,19.692,-51.601,430.160,235.930,-114.731,23.800,11.290,10.420
127,48635.472000,247.121,21.712,-48.595,430.153,230.694,-115.894,5.800,15.290,13.420
128,48635.512000,246.135,20.702,-50.599,431.909,226.327,-117.023,20.800,26.290,16.420
129,48635.557000,246.135,18.682,-48.595,430.151,227.222,-116.007,27.800,24.290,20.420
130,48635.574000,247.121,19.692,-49.597,432.795,229.828,-115.914,29.800,24.290,20.420
131,48635.614000,248.108,21.712,-47.593,432.804,234.225,-113.785,59.800,31.290,25.420
132,48635.657000,249.094,17.673,-46.591,429.270,231.533,-116.863,45.800,34.290,29.420
133,48635.694000,250.081,21.712,-46.591,428.388,222.909,-115.160,52.800,35.290,32.420
134,48635.734000,250.081,16.663,-46.591,431.921,219.552,-111.285,81.800,44.290,24.420
135,48635.773000,249.094,21.712,-45.589,436.318,224.651,-115.078,62.800,34.290,31.420
136,48635.813000,250.081,23.732,-40.579,434.555,226.358,-116.021,61.800,26.290,38.420
137,48635.833000,248.108,15.653,-46.591,434.547,228.009,-118.946,92.800,29.290,30.420
138,48635.874000,244.162,10.604,-52.603,435.437,224.650,-115.081,157.800,41.290,20.420
139,48635.921000,250.081,23.732,-45.589,435.441,222.103,-113.177,192.800,76.290,10.420
140,48635.954000,251.067,20.702,-37.573,436.307,216.783,-117.319,395.800,144.290,-44.580
141,48635.994000,256.000,27.771,-35.569,436.301,212.414,-118.454,788.800,246.290,-141.580
142,48636.34000,244.162,7.574,-49.597,436.289,215.746,-123.311,949.800,287.290,-174.580
143,48636.54000,243.175,-6.564,-53.605,438.045,212.247,-124.412,665.800,239.290,-91.580
144,48636.94000,253.040,13.633,-41.581,438.056,218.379,-122.227,7.800,109.290,81.420
145,48636.136000,250.081,16.663,-34.568,437.193,212.528,-114.475,-121.200,131.290,32.420
146,48636.178000,246.135,20.702,-29.558,443.354,212.476,-116.443,-45.200,133.290,50.420
147,48636.218000,253.040,9.594,-20.540,443.357,212.504,-115.449,-19.200,75.290,35.420
148,48636.258000,249.094,9.594,-24.548,441.606,211.747,-111.507,0.800,12.290,19.420
149,48636.301000,249.094,11.613,-23.546,442.481,208.248,-112.611,8.800,-67.710,8.420
150,48636.316000,253.040,18.682,-22.544,443.355,213.344,-116.415,-17.200,-109.710,0.420
151,48636.353000,248.108,13.633,-26.552,440.705,215.862,-119.321,-71.200,-135.710,-13.580
152,48636.394000,252.054,10.604,-30.560,438.061,218.435,-120.239,-116.200,-182.710,-35.580
153,48636.434000,251.067,13.633,-35.569,435.409,217.481,-123.257,-145.200,-202.710,-63.580
154,48636.474000,247.121,7.574,-31.562,432.745,211.234,-129.426,-179.200,-245.710,-88.580
155,48636.514000,243.175,27.771,-44.587,428.336,220.666,-133.106,-180.200,-365.710,-103.580
156,48636.544000,247.121,29.791,-41.581,430.978,223.244,-134.007,-789.200,-513.710,24.420
157,48636.578000,247.121,-2.525,-54.607,430.984,231.924,-133.726,-1458.200,-629.710,302.420
158,48636.616000,252.054,-21.712,-63.624,431.011,233.913,-124.724,-2176.200,-700.710,419.420
159,48636.654000,264.879,20.702,-53.605,431.913,234.979,-117.736,-1950.200,-636.710,370.420
160,48636.694000,244.162,33.830,-56.611,430.189,240.524,-105.645,-1668.200,-593.710,224.420
161,48636.741000,236.270,41.909,-66.630,428.414,238.674,-109.683,-989.200,-481.710,26.420
162,48636.774000,213.580,42.919,-91.679,427.540,243.910,-108.523,-956.200,-415.710,25.420
163,48636.794000,200.755,14.643,-135.765,424.923,248.473,-100.439,-898.200,-188.710,-55.580
164,48636.834000,253.040,17.673,-93.683,423.196,250.546,-88.462,-1354.200,-171.710,147.420
165,48636.876000,256.987,30.801,-60.618,424.099,256.791,-82.298,-1444.200,-245.710,176.420
166,48636.916000,256.987,29.791,-57.613,425.015,262.310,-71.193,-1178.200,-268.710,139.420
167,48636.954000,257.973,38.880,-69.636,425.916,259.064,-63.352,-1304.200,-333.710,233.420
168,48636.994000,187.931,50.998,-121.738,424.189,255.957,-50.549,-1251.200,-235.710,283.420
169,48637.34000,178.066,135.826,-97.691,426.876,255.541,-34.666,-915.200,145.290,173.420
170,48637.59000,231.337,-17.673,-80.658,428.668,257.560,-24.665,431.800,895.290,-180.580
171,48637.94000,279.676,60.087,-4.509,427.848,259.887,-3.739,-558.200,743.290,24.420
172,48637.134000,276.717,1.515,-32.564,424.380,262.156,15.190,56.800,851.290,-161.580
173,48637.174000,257.973,13.633,-33.566,420.038,267.952,36.217,-817.200,621.290,-92.580
174,48637.214000,231.337,53.018,3.507,419.170,266.356,41.127,-370.200,248.290,-177.580
175,48637.259000,237.256,56.047,-25.550,414.790,264.871,50.002,-551.200,18.290,-128.580
176,48637.279000,238.243,36.860,-51.601,411.274,264.085,52.944,-314.200,20.290,-99.580
177,48637.316000,251.067,39.890,-60.618,410.417,270.357,60.096,-272.200,102.290,-120.580
178,48637.356000,267.838,43.929,-68.634,409.545,274.753,62.222,136.800,474.290,-105.580
179,48637.403000,244.162,64.126,-58.614,406.929,280.184,70.333,481.800,552.290,-104.580
180,48637.436000,250.081,62.107,1.503,405.188,277.804,78.195,203.800,473.290,-67.580
181,48637.476000,199.769,127.748,46.591,399.912,283.065,80.334,-86.200,181.290,-58.580
182,48637.521000,213.580,92.402,18.536,399.912,275.309,82.069,-194.200,11.290,12.420
183,48637.537000,278.690,21.712,-51.601,400.805,276.290,86.075,156.800,51.290,34.420
184,48637.583000,250.081,70.185,-19.538,400.810,275.479,88.035,13.800,160.290,-74.580
185,48637.621000,229.364,76.245,7.515,399.940,283.346,90.273,35.800,87.290,1.420
186,48637.657000,245.148,68.166,-18.536,399.935,284.158,88.314,70.800,-31.710,28.420
187,48637.697000,250.081,61.097,-10.521,398.169,282.393,87.258,-121.200,-76.710,-27.580
188,48637.737000,239.229,69.176,-15.530,397.294,282.448,89.243,-116.200,-65.710,-5.580
189,48637.764000,246.135,74.225,-23.546,400.811,277.215,88.091,-139.200,-83.710,-14.580
190,48637.803000,230.351,44.939,-14.528,399.937,274.695,90.986,-466.200,-96.710,-26.580
191,48637.836000,250.081,83.314,2.505,399.063,277.354,93.055,-250.200,-200.710,-71.580
192,48637.876000,231.337,65.136,10.521,401.694,276.375,89.060,-246.200,-349.710,-51.580
193,48637.914000,264.879,93.412,-14.528,403.435,277.887,81.171,19.800,-490.710,74.420
194,48637.956000,248.108,46.959,-62.622,406.926,280.156,69.340,499.800,-306.710,2.420
195,48637.996000,254.027,56.047,-56.611,407.790,276.544,64.260,76.800,-95.710,-6.580
196,48638.16000,242.189,77.254,-16.532,406.903,275.619,62.241,219.800,161.290,34.420
197,48638.56000,229.364,132.797,-4.509,404.283,279.286,69.303,125.800,209.290,119.420
198,48638.96000,220.486,99.471,-5.511,409.589,272.599,78.040,-659.200,242.290,138.420
199,48638.135000,257.973,-35.850,-57.613,406.094,265.991,89.730,-508.200,126.290,82.420
200,48638.174000,249.094,71.195,-25.550,405.225,274.727,91.997,-310.200,23.290,-115.580
201,48638.218000,253.040,44.939,-24.548,405.229,272.179,93.900,-242.200,41.290,-55.580
202,48638.241000,245.148,88.363,-18.536,402.601,273.186,98.889,-133.200,36.290,-72.580
203,48638.276000,244.162,82.304,-11.523,402.604,273.214,99.883,-23.200,68.290,6.420
204,48638.315000,223.445,71.195,13.526,402.577,263.469,92.616,241.800,-56.710,67.420
205,48638.358000,225.418,46.959,-4.509,403.453,265.149,90.687,311.800,-161.710,111.420
206,48638.398000,237.256,52.008,-20.540,407.833,272.654,80.022,298.800,-266.710,45.420
207,48638.436000,244.162,113.609,-15.530,413.090,272.377,70.100,183.800,-381.710,64.420
208,48638.477000,254.027,28.781,-31.562,413.075,271.368,65.102,111.800,-402.710,98.420
209,48638.497000,248.108,57.057,-32.564,415.684,271.032,53.184,248.800,-445.710,46.420
210,48638.535000,241.202,58.067,-46.591,418.290,263.780,42.034,144.800,-410.710,113.420
211,48638.584000,258.960,18.682,-85.667,420.901,261.736,31.053,120.800,-333.710,137.420
212,48638.618000,271.784,57.057,-63.624,422.648,265.040,25.208,283.800,-201.710,87.420
213,48638.658000,226.405,39.890,-73.644,422.640,262.380,23.136,430.800,-5.710,136.420
214,48638.697000,245.148,47.968,-62.622,429.669,259.612,17.110,624.800,79.290,163.420
215,48638.718000,224.432,44.939,-47.593,428.767,257.678,10.094,695.800,135.290,163.420
216,48638.758000,234.297,44.939,-41.581,430.497,253.058,0.019,1008.800,38.290,180.420
217,48638.806000,253.040,53.018,-41.581,428.707,245.019,-8.191,908.800,-24.710,242.420
218,48638.843000,248.108,38.880,-53.605,434.840,241.242,-19.217,1242.800,-41.710,272.420
219,48638.876000,236.270,113.609,-41.581,438.319,231.330,-32.436,1116.800,55.290,360.420
220,48638.919000,247.121,41.909,-66.630,443.565,215.428,-42.865,811.800,55.290,639.420
221,48638.961000,263.892,36.860,-46.591,447.963,213.639,-44.895,777.800,232.290,538.420
222,48638.981000,259.946,136.836,19.538,456.754,196.229,-47.418,1794.800,442.290,209.420
223,48639.21000,238.243,6.564,-11.523,458.477,193.260,-60.418,3682.800,933.290,-233.580
224,48639.66000,263.892,-129.767,-74.646,462.822,173.717,-76.926,3993.800,835.290,198.420
225,48639.98000,283.622,-45.949,-32.564,464.577,175.370,-79.846,2440.800,795.290,-206.580
226,48639.148000,255.013,8.584,-83.663,463.648,168.003,-94.982,5134.800,908.290,-611.580
227,48639.176000,204.701,98.462,-208.908,459.143,162.702,-128.931,4285.800,-290.710,-966.580
228,48639.206000,225.418,62.107,-135.765,448.454,163.247,-170.653,1442.800,-1459.710,-483.580
229,48639.239000,229.364,9.594,-92.681,429.823,161.938,-216.433,285.800,-1798.710,-397.580
230,48639.276000,201.742,54.028,-97.691,412.997,149.853,-244.682,709.800,-1637.710,-593.580
231,48639.316000,251.067,-54.028,28.556,390.883,154.115,-277.384,1236.800,-817.710,-595.580
232,48639.357000,370.435,-54.028,137.769,396.159,137.655,-276.908,1573.800,555.290,-319.580
233,48639.398000,214.566,32.821,-226.943,401.430,124.583,-279.301,1850.800,365.290,-311.580
234,48639.441000,194.836,99.471,-267.022,395.197,107.551,-298.741,2624.800,-931.710,-670.580
235,48639.478000,192.863,103.511,-264.016,365.093,78.458,-345.459,2562.800,-1973.710,-758.580
236,48639.531000,162.281,94.422,-246.982,316.491,48.511,-391.271,2460.800,-2724.710,-955.580
237,48639.547000,168.200,135.826,-172.838,263.482,10.777,-436.357,1813.800,-2691.710,-849.580
238,48639.583000,157.349,134.817,-114.724,235.230,-3.639,-454.789,970.800,-2375.710,-483.580
239,48639.618000,171.160,104.521,-2.505,195.530,10.412,-478.292,-1402.200,-1638.710,-236.580
240,48639.658000,194.836,19.692,111.718,195.561,63.276,-479.555,-2615.200,350.290,223.420
241,48639.679000,511.507,50.998,-13.526,227.332,94.885,-466.512,-2119.200,689.290,232.420
242,48639.719000,511.507,-9.594,1.503,251.132,79.532,-457.997,566.800,1006.290,-25.580
243,48639.758000,407.923,-132.797,-11.523,261.704,76.964,-457.053,824.800,653.290,-273.580
244,48639.837000,361.557,-8.584,3.507,258.155,50.865,-459.898,977.800,-132.710,-289.580
245,48639.853000,386.220,2.525,-49.597,233.446,38.357,-472.299,863.800,-1147.710,-461.580
246,48639.883000,379.314,58.067,-63.624,199.926,24.974,-484.756,799.800,-1340.710,-364.580
247,48639.923000,245.148,178.241,-162.818,177.009,28.289,-489.687,-313.200,-1340.710,131.420
248,48639.937000,225.418,53.018,-79.656,141.778,64.522,-495.575,-2001.200,-1034.710,862.420
249,48639.977000,169.187,85.333,-80.658,141.818,95.939,-488.598,-1314.200,-117.710,1257.420
250,48640.23000,152.416,55.037,-73.644,163.030,127.653,-471.613,-1940.200,949.290,1984.420
251,48640.57000,118.875,45.949,-90.677,197.457,138.714,-449.298,-1633.200,1735.290,2308.420
252,48640.114000,123.807,114.619,-98.693,263.648,146.833,-409.102,-1728.200,2450.290,2500.420
253,48640.141000,175.106,149.964,-150.795,334.334,171.367,-340.556,-3734.200,2991.290,2828.420
254,48640.177000,211.607,110.580,-214.920,403.316,182.689,-248.613,-4041.200,2906.290,3135.420
255,48640.197000,304.339,207.527,-202.896,438.701,171.244,-194.256,-3943.200,2521.290,3175.420
256,48640.243000,334.921,190.359,-193.879,472.413,149.471,-106.479,-5280.200,1648.290,2291.420
257,48640.277000,214.566,125.728,-144.783,488.394,141.231,-61.017,-3277.200,696.290,427.420
258,48640.324000,193.850,32.821,-239.969,480.458,158.388,-67.437,-2191.200,-1196.710,-886.580
259,48640.358000,294.474,-23.732,-8.517,476.039,165.999,-74.155,-1443.200,-584.710,-414.580
260,48640.399000,210.620,157.034,-109.714,468.996,183.270,-76.596,-554.200,-252.710,-744.580
261,48640.418000,301.380,-73.215,-45.589,463.746,197.407,-67.217,-696.200,199.290,-696.580
262,48640.458000,403.977,3.535,-68.634,465.554,206.483,-53.015,-1652.200,219.290,-140.580
263,48640.498000,228.378,-160.063,-80.658,460.341,220.987,-30.715,-1451.200,432.290,-488.580
264,48640.541000,253.040,58.067,-46.591,453.328,222.187,-18.783,-317.200,449.290,-523.580
265,48640.582000,247.121,12.623,-63.624,445.451,234.756,-3.506,-323.200,441.290,-323.580
266,48640.619000,241.202,84.323,-19.538,441.968,240.328,9.573,-297.200,360.290,-352.580
267,48640.659000,231.337,65.136,-24.548,441.120,245.817,19.678,-393.200,267.290,-248.580
268,48640.679000,246.135,50.998,-27.554,440.265,254.693,26.915,-454.200,195.290,-291.580
269,48640.722000,265.865,-16.663,-20.540,434.135,255.055,39.815,-895.200,97.290,-236.580
270,48640.761000,234.297,72.205,5.511,432.378,261.130,40.007,-110.200,-41.710,-244.580
271,48640.797000,244.162,54.028,-32.564,428.862,263.788,42.068,-410.200,-108.710,-131.580
272,48640.838000,252.054,40.899,-28.556,428.861,267.231,41.187,-117.200,-136.710,-89.580
273,48640.883000,242.189,61.097,-31.562,428.866,262.108,43.999,-510.200,-175.710,-45.580
274,48640.906000,253.040,65.136,-43.585,432.401,269.111,46.224,-431.200,-73.710,-4.580
275,48640.958000,250.081,58.067,-45.589,432.426,265.052,56.022,-655.200,21.290,41.420
276,48640.979000,259.946,53.018,-45.589,430.693,265.333,65.956,-435.200,176.290,54.420
277,48641.19000,255.013,47.968,-31.562,426.292,263.650,67.873,-21.200,255.290,87.420
278,48641.59000,258.960,36.860,-35.569,428.075,257.829,76.627,-292.200,240.290,14.420
279,48641.98000,241.202,43.929,-14.528,424.573,257.184,84.539,14.800,320.290,-37.580
280,48641.171000,228.378,55.037,21.542,422.823,260.739,87.627,-80.200,145.290,-29.580
281,48641.177000,256.000,73.215,-18.536,424.598,256.569,93.456,-0.200,41.290,-7.580
282,48641.199000,242.189,39.890,-12.524,428.119,263.431,90.711,24.800,98.290,12.420
283,48641.252000,243.175,47.968,-3.507,425.480,265.193,91.752,46.800,60.290,-40.580
284,48641.279000,237.256,41.909,-13.526,423.713,265.136,89.759,60.800,-40.710,-74.580
285,48641.321000,242.189,55.037,-7.515,421.948,265.106,88.759,142.800,-59.710,-91.580
286,48641.364000,249.094,33.830,-16.532,421.937,265.862,84.812,19.800,-66.710,-99.580
287,48641.387000,240.216,46.959,-7.515,421.936,264.994,84.783,1.800,-98.710,-145.580
288,48641.426000,248.108,101.491,-7.515,417.528,267.538,82.866,-55.200,-141.710,-141.580
289,48641.458000,240.216,32.821,-28.556,420.160,276.051,77.193,-14.200,-172.710,-90.580
290,48641.504000,244.162,109.570,-27.554,417.501,277.616,71.277,-37.200,-145.710,-49.580
291,48641.538000,253.040,59.077,-38.575,418.384,279.353,71.336,79.800,-8.710,14.420
292,48641.580000,242.189,70.185,-23.546,416.624,278.512,72.296,62.800,37.290,46.420
293,48641.618000,240.216,70.185,-7.515,416.615,274.115,70.168,220.800,38.290,128.420
294,48641.643000,248.108,55.037,-22.544,424.534,268.857,68.036,252.800,9.290,116.420
295,48641.683000,247.121,26.761,-31.562,423.646,273.951,64.227,335.800,-22.710,111.420
296,48641.723000,238.243,80.284,-20.540,425.392,275.520,58.325,417.800,10.290,109.420
297,48641.759000,256.000,60.087,-15.530,428.019,273.645,53.308,414.800,-28.710,131.420
298,48641.801000,243.175,64.126,-19.538,428.883,269.164,48.200,467.800,-87.710,162.420
299,48641.838000,252.054,61.097,-35.569,434.134,256.763,38.878,198.800,-166.710,221.420
300,48641.871000,247.121,56.047,-33.566,433.232,255.697,31.890,376.800,-176.710,276.420
301,48641.898000,243.175,77.254,-30.560,439.366,253.656,20.920,532.800,-163.710,363.420
302,48641.938000,262.906,92.402,12.524,446.391,237.924,16.460,637.800,-23.710,457.420
303,48641.981000,276.717,58.067,41.581,449.906,237.842,13.490,217.800,-106.710,483.420
304,48642.19000,293.487,58.067,65.628,455.136,230.395,-4.609,1285.800,-271.710,254.420
305,48642.63000,310.258,45.949,142.779,445.349,249.253,-42.755,4715.800,381.290,-1476.580
306,48642.98000,354.651,-212.576,-109.714,428.427,256.034,-109.120,6777.800,630.290,-1806.580
307,48642.123000,331.961,-245.901,-209.910,421.323,264.089,-130.727,3967.800,641.290,-1311.580
308,48642.159000,164.254,66.146,-215.922,419.472,253.723,-159.866,2088.800,-22.710,-152.580
309,48642.204000,170.173,78.264,-333.151,409.696,245.115,-187.980,1342.800,-711.710,139.420
310,48642.240000,156.362,53.018,-174.841,393.723,229.305,-225.285,1399.800,-1233.710,83.420
311,48642.283000,111.969,96.442,-136.767,383.070,211.262,-249.737,257.800,-1555.710,475.420
312,48642.319000,-11.345,88.363,-103.703,376.903,225.901,-253.253,-2687.200,-676.710,803.420
313,48642.344000,411.869,-4.544,-142.779,389.298,225.661,-231.376,1225.800,1340.290,272.420
314,48642.381000,510.520,71.195,-1.503,391.918,202.171,-234.115,1885.800,1154.290,-217.580
315,48642.424000,316.177,-55.037,-55.609,406.061,198.348,-216.320,247.800,982.290,27.420
316,48642.462000,256.000,39.890,-66.630,414.001,195.023,-211.438,634.800,842.290,350.420
317,48642.499000,226.405,-10.604,-118.732,423.714,175.432,-199.133,990.800,874.290,246.420
318,48642.550000,160.308,44.939,-186.865,425.470,166.753,-199.409,1283.800,396.290,153.420
319,48642.581000,283.622,124.718,-227.945,417.458,150.419,-224.790,1439.800,-935.710,-586.580
320,48642.599000,278.690,61.097,-214.920,399.743,142.561,-256.877,2505.800,-1684.710,-854.580
321,48642.642000,219.499,147.945,-237.965,359.906,119.926,-320.298,2847.800,-2579.710,-1138.580
322,48642.706000,182.998,136.836,-181.855,304.224,110.327,-382.353,1267.800,-3129.710,-1293.580
323,48642.719000,133.672,115.629,-99.695,239.772,101.116,-430.522,1115.800,-2880.710,-1381.580
324,48642.760000,83.360,135.826,-64.626,202.718,101.422,-449.498,744.800,-2315.710,-1321.580
325,48642.812000,114.929,106.540,-67.632,163.043,110.547,-463.231,-386.200,-1101.710,-1208.580
326,48642.842000,197.796,22.722,26.552,157.753,116.534,-466.032,-213.200,174.290,-873.580
327,48642.869000,446.397,88.363,31.562,176.254,114.840,-465.035,324.800,25.290,-803.580
328,48642.912000,511.507,-8.584,-15.530,205.315,92.349,-463.686,1899.800,1152.290,117.420
329,48642.971000,511.507,-165.112,-1.503,215.017,81.270,-457.063,-437.200,564.290,-263.580
330,48642.997000,482.898,-111.590,-12.524,209.706,70.681,-463.382,834.800,-285.710,-291.580
331,48643.22000,423.707,32.821,-43.585,190.291,53.949,-471.931,907.800,-986.710,-51.580
332,48643.59000,272.771,145.925,-110.716,168.261,61.633,-475.724,-275.200,-753.710,151.420
333,48643.84000,191.877,86.343,-116.728,151.545,95.444,-475.674,-2289.200,-778.710,735.420
334,48643.120000,136.632,38.880,-52.603,159.563,142.857,-455.243,-2565.200,355.290,1167.420
335,48643.164000,97.171,46.959,-71.640,194.899,184.355,-429.951,-1659.200,1205.290,1504.420
336,48643.201000,109.010,32.821,-73.644,253.143,187.987,-394.892,-1146.200,2270.290,2088.420
337,48643.244000,145.511,75.235,-114.724,298.176,183.882,-357.147,-1770.200,2853.290,2242.420
338,48643.284000,168.200,131.787,-248.986,368.005,205.198,-279.771,-3475.200,2916.290,2388.420
339,48643.329000,233.310,168.142,-281.049,413.144,199.559,-204.342,-3160.200,1663.290,2714.420
340,48643.342000,171.160,135.826,-503.483,428.218,198.820,-169.563,-4639.200,-411.710,1392.420
341,48643.386000,261.919,-211.566,-0.501,423.828,203.270,-165.461,-3315.200,-1013.710,464.420
342,48643.424000,359.584,47.968,-94.685,420.317,205.116,-161.440,-1421.200,-720.710,171.420
343,48643.462000,410.882,16.663,-5.511,413.301,218.356,-153.089,-2425.200,-563.710,355.420
344,48643.502000,247.121,-105.531,-79.656,412.461,231.685,-141.737,-1646.200,-441.710,256.420
345,48643.546000,164.254,121.688,-107.710,416.898,221.667,-128.146,-2484.200,-386.710,1020.420
346,48643.567000,174.119,229.744,-85.667,424.899,227.556,-104.097,-3071.200,-81.710,809.420
347,48643.601000,137.618,218.635,-79.656,424.954,233.271,-86.038,-618.200,338.290,-254.580
348,48643.656000,138.605,78.264,-76.650,412.636,242.027,-82.814,653.800,618.290,-571.580
349,48643.683000,511.507,-199.448,52.603,418.856,242.567,-63.910,-1415.200,384.290,359.420
350,48643.722000,141.565,-105.531,-75.648,415.403,254.468,-41.689,-3742.200,-259.710,-290.580
351,48643.779000,204.701,89.373,-80.658,410.117,261.352,-43.468,173.800,-72.710,-168.580
352,48643.800000,260.933,102.501,-110.716,412.784,259.871,-34.571,-939.200,91.290,-29.580
353,48643.821000,259.946,-39.890,-120.736,410.197,263.008,-15.611,-728.200,342.290,57.420
354,48643.861000,270.798,1.515,-76.650,410.216,257.158,-7.856,-240.200,562.290,-149.580
355,48643.902000,205.688,54.028,-59.616,408.489,255.787,5.002,99.800,535.290,-207.580
356,48643.942000,231.337,125.728,-11.523,407.638,269.003,12.379,142.800,409.290,-105.580
357,48643.988000,211.607,94.422,-19.538,404.126,265.669,17.225,-203.200,209.290,-5.580
358,48644.22000,267.838,38.880,-46.591,405.032,265.923,26.173,-291.200,129.290,4.420
359,48644.43000,226.405,48.978,-52.603,408.589,272.284,36.321,-428.200,231.290,58.420
360,48644.83000,230.351,81.294,-49.597,405.967,269.903,44.179,-172.200,322.290,9.420
361,48644.122000,255.013,45.949,-17.534,403.352,269.315,54.081,-257.200,324.290,42.420
362,48644.162000,222.459,119.669,-20.540,400.741,267.047,65.915,-250.200,315.290,-64.580
363,48644.202000,268.825,0.505,-1.503,400.741,262.735,66.768,-104.200,204.290,-42.580
364,48644.242000,231.337,54.028,-18.536,401.635,268.896,69.950,-433.200,50.290,-27.580
365,48644.280000,266.852,-0.505,-42.583,399.881,271.555,72.017,86.800,-40.710,-52.580
366,48644.300000,248.108,56.047,-33.566,399.000,271.555,72.014,28.800,38.290,-82.580
367,48644.343000,241.202,101.491,-18.536,398.118,269.818,71.955,76.800,58.290,-55.580
368,48644.380000,235.283,67.156,-12.524,395.472,262.900,72.715,-13.200,49.290,61.420
369,48644.427000,244.162,47.968,-20.540,400.760,257.753,74.551,-53.200,19.290,43.420
370,48644.461000,244.162,55.037,-15.530,398.123,265.563,74.796,95.800,-76.710,-7.580
371,48644.500000,251.067,59.077,-25.550,401.638,272.368,70.063,-20.200,-162.710,-22.580
372,48644.536000,240.216,78.264,-29.558,399.876,272.367,70.057,-104.200,-147.710,-21.580
373,48644.562000,239.229,80.284,-29.558,399.868,266.263,68.866,-214.200,-109.710,23.420
374,48644.606000,244.162,94.422,-23.546,401.652,264.754,76.767,-513.200,-79.710,52.420
375,48644.646000,229.364,73.215,-15.530,402.550,264.923,82.733,-944.200,-130.710,123.420
376,48644.684000,257.973,10.604,-54.607,404.315,253.753,86.348,-741.200,-198.710,87.420
377,48644.737000,246.135,28.781,-29.558,407.837,252.020,86.303,-372.200,-156.710,20.420
378,48644.764000,242.189,52.008,-25.550,406.072,254.566,84.394,-164.200,-128.710,-18.580
379,48644.784000,246.135,38.880,-43.585,404.325,259.885,88.533,-126.200,-103.710,-131.580
380,48644.827000,241.202,74.225,-37.573,405.188,258.849,82.544,66.800,-6.710,-165.580
381,48644.867000,248.108,70.185,-37.573,401.677,264.139,85.684,-139.200,21.290,-100.580
382,48644.907000,250.081,77.254,-25.550,404.323,260.725,87.568,-29.200,69.290,-19.580
383,48644.947000,240.216,52.008,-19.538,403.438,258.960,86.514,168.800,24.290,-24.580
384,48644.987000,236.270,57.057,-18.536,401.669,265.790,82.758,512.800,-21.710,-20.580
385,48645.32000,237.256,63.116,-14.528,403.422,268.283,78.873,181.800,-173.710,12.420
386,48645.57000,238.243,40.899,-19.538,402.505,268.784,65.977,493.800,-251.710,6.420
387,48645.116000,251.067,73.215,-42.583,406.878,268.478,55.059,384.800,-307.710,1.420
388,48645.171000,238.243,57.057,-52.603,407.735,269.961,46.173,324.800,-311.710,72.420
389,48645.187000,248.108,64.126,-52.603,405.058,262.733,36.000,439.800,-340.710,62.420
390,48645.213000,252.054,38.880,-79.656,407.668,263.265,24.109,372.800,-248.710,119.420
391,48645.242000,239.229,52.008,-69.636,412.045,264.723,14.241,575.800,-141.710,65.420
392,48645.274000,253.040,80.284,-52.603,411.133,264.412,3.305,783.800,-103.710,62.420
393,48645.302000,228.378,53.018,-58.614,412.876,261.640,-2.738,855.800,-140.710,98.420
394,48645.353000,231.337,57.057,-61.620,415.475,262.928,-18.575,837.800,-195.710,152.420
395,48645.387000,224.432,100.481,-51.601,416.319,255.674,-29.731,597.800,-177.710,206.420
396,48645.427000,235.283,164.103,-38.575,421.579,247.669,-36.925,364.800,-150.710,328.420
397,48645.467000,255.013,99.471,1.503,426.845,243.164,-43.012,501.800,38.290,-72.580
398,48645.507000,272.771,37.870,34.568,414.465,256.480,-62.479,3162.800,490.290,-1094.580
399,48645.533000,281.649,-45.949,9.519,405.510,262.792,-114.932,5420.800,737.290,-1465.580
400,48645.570000,291.514,-181.270,-107.710,396.560,255.358,-162.865,4637.800,637.290,-1105.580
401,48645.604000,316.177,-101.491,-113.722,389.462,244.514,-178.135,2207.800,194.290,-431.580
402,48645.652000,317.164,-1.515,-75.648,390.295,233.704,-192.385,730.800,-164.710,17.420
403,48645.683000,250.081,-13.633,-105.706,391.154,226.592,-198.571,1050.800,171.290,-79.580
404,48645.723000,182.012,73.215,-135.765,392.880,220.208,-209.695,2046.800,380.290,-346.580
405,48645.743000,89.279,177.231,-220.932,391.066,206.764,-225.032,1645.800,242.290,-351.580
406,48645.798000,195.823,58.067,-65.628,388.425,212.810,-225.837,143.800,55.290,1.420
407,48645.832000,218.513,-89.373,144.783,393.711,205.926,-224.058,-765.200,-85.710,411.420
408,48645.864000,393.125,-117.649,-210.912,412.260,192.643,-203.577,403.800,817.290,679.420
409,48645.903000,247.121,-53.018,-86.669,426.422,187.281,-178.880,-204.200,967.290,599.420
410,48645.943000,306.312,-12.623,-82.661,434.387,179.030,-164.228,518.800,1117.290,303.420
411,48645.983000,172.146,81.294,-97.691,442.330,164.533,-155.736,829.800,619.290,415.420
412,48646.3000,190.890,207.527,-210.912,440.531,155.542,-166.956,1804.800,-528.710,-26.580
413,48646.43000,231.337,120.679,-207.906,421.018,149.052,-211.914,1416.800,-1631.710,-519.580
414,48646.83000,266.852,102.501,-197.886,394.472,147.010,-252.778,1642.800,-2689.710,-1027.580
415,48646.123000,240.216,121.688,-184.861,346.711,146.824,-319.467,1366.800,-3117.710,-1150.580
416,48646.168000,222.459,112.600,-138.771,284.021,147.946,-370.274,669.800,-3055.710,-1385.580
417,48646.208000,156.362,130.777,-113.722,220.458,142.264,-416.340,928.800,-2613.710,-1648.580
418,48646.228000,135.645,64.126,0.501,172.813,142.365,-442.307,589.800,-1771.710,-1729.580
419,48646.268000,170.173,28.781,41.581,163.986,144.765,-449.209,480.800,-423.710,-1284.580
420,48646.308000,206.674,13.633,28.556,182.493,143.127,-446.223,97.800,1651.290,-450.580
421,48646.349000,443.437,64.126,-126.748,208.942,136.456,-437.418,210.800,869.290,-769.580
422,48646.383000,422.721,65.136,-41.581,237.985,94.841,-437.682,2744.800,1562.290,-250.580
423,48646.423000,439.491,-159.053,52.603,250.340,89.896,-428.866,109.800,488.290,-320.580
424,48646.494000,398.058,-65.136,-8.517,241.502,77.540,-436.247,1052.800,-589.710,-351.580
425,48646.502000,397.071,-11.613,-63.624,215.901,63.211,-451.689,533.800,-1256.710,-173.580
426,48646.537000,265.865,94.422,-107.710,183.274,65.453,-463.636,-369.200,-1305.710,299.420
427,48646.568000,148.470,91.393,-135.765,168.334,98.539,-458.639,-2070.200,-1117.710,780.420
428,48646.608000,189.904,21.712,-27.554,160.462,149.075,-450.073,-2153.200,-438.710,1391.420
429,48646.643000,141.565,82.304,-77.652,185.210,171.440,-426.429,-1533.200,700.290,1791.420
430,48646.691000,167.214,66.146,-82.661,225.812,180.854,-401.169,-1291.200,1366.290,2226.420
431,48646.704000,190.890,71.195,-78.654,282.292,174.125,-364.465,-1325.200,2123.290,2425.420
432,48646.743000,205.688,118.659,-124.744,330.851,181.251,-328.331,-2632.200,2428.290,2392.420
433,48646.788000,239.229,84.323,-165.824,385.683,189.423,-255.402,-3628.200,2455.290,2471.420
434,48646.838000,236.270,199.448,-217.926,430.807,175.888,-183.208,-3760.200,1870.290,2533.420
435,48646.865000,240.216,96.442,-306.098,460.047,166.372,-121.858,-4355.200,1161.290,1965.420
436,48646.922000,223.445,93.412,-381.245,459.197,162.369,-110.074,-2451.200,-428.710,507.420
437,48646.962000,245.148,134.817,51.601,450.364,176.780,-121.551,-1477.200,-472.710,-570.580
438,48646.969000,237.256,50.998,-129.753,442.434,187.106,-124.220,-395.200,-555.710,-257.580
439,48647.4000,209.634,-100.481,-165.824,442.457,194.219,-118.031,-1879.200,-405.710,167.420
440,48647.44000,198.782,-28.781,-172.838,445.144,200.691,-103.911,-2589.200,-152.710,500.420
441,48647.84000,199.769,4.544,-126.748,446.092,200.500,-80.082,-2467.200,9.290,483.420
442,48647.124000,258.960,87.353,-15.530,447.038,200.281,-57.248,-2038.200,117.290,371.420
443,48647.164000,241.202,78.264,-12.524,444.452,208.598,-39.112,81.800,629.290,-497.580
444,48647.184000,230.351,23.732,-106.708,442.685,209.408,-41.078,979.800,625.290,-403.580
445,48647.225000,289.541,72.205,-52.603,440.968,215.877,-26.971,-235.200,639.290,-257.580
446,48647.265000,246.135,-2.525,-29.558,438.393,224.307,-4.860,-985.200,571.290,-247.580
447,48647.308000,258.960,8.584,-30.560,434.043,233.463,12.304,-732.200,402.290,-271.580
448,48647.349000,252.054,18.682,-29.558,431.446,237.355,27.317,-659.200,175.290,-279.580
449,48647.389000,245.148,27.771,-49.597,426.167,235.700,30.225,-416.200,46.290,-249.580
450,48647.429000,248.108,30.801,-53.605,421.784,245.385,35.490,-215.200,75.290,-262.580
451,48647.444000,249.094,66.146,-34.568,420.017,246.196,33.525,-199.200,44.290,-218.580
452,48647.496000,246.135,68.166,-25.550,416.508,247.202,38.511,-233.200,-31.710,-124.580
453,48647.529000,239.229,35.850,-58.614,416.519,255.070,40.753,-265.200,-54.710,-81.580
454,48647.575000,251.067,43.929,-55.609,418.286,254.260,42.718,-294.200,109.290,-31.580
455,48647.638000,244.162,49.988,-43.585,417.428,254.485,50.666,-196.200,183.290,-66.580
456,48647.654000,244.162,60.087,-54.607,414.807,257.284,57.700,-163.200,213.290,-84.580
457,48647.687000,249.094,43.929,-52.603,412.185,251.460,66.439,-60.200,403.290,-71.580
458,48647.707000,249.094,56.047,-61.620,410.449,255.156,74.498,200.800,537.290,-61.580
459,48647.747000,254.027,65.136,-25.550,406.949,257.982,82.522,141.800,532.290,-23.580
460,48647.803000,220.486,76.245,41.581,406.970,259.048,89.508,-2.200,142.290,-34.580
461,48647.830000,245.148,46.959,-14.528,408.732,259.049,89.513,34.800,-107.710,5.420
462,48647.864000,255.013,65.136,-35.569,403.425,257.112,82.482,72.800,-94.710,-49.580
463,48647.915000,244.162,65.136,-22.544,402.555,264.979,84.721,-63.200,-45.710,-38.580
464,48647.929000,241.202,57.057,-30.560,404.308,263.160,81.689,-5.200,-76.710,-46.580
465,48647.969000,237.256,61.097,-18.536,404.310,262.320,82.654,-199.200,-94.710,-84.580
466,48648.24000,240.216,62.107,-13.526,405.194,259.773,84.560,-95.200,-162.710,-56.580
467,48648.78000,242.189,68.166,-37.573,404.308,259.716,82.570,-279.200,-211.710,-60.580
468,48648.106000,241.202,60.087,-38.575,404.304,262.264,80.666,-353.200,-170.710,-22.580
469,48648.128000,241.202,70.185,-29.558,406.072,262.322,82.660,-397.200,-123.710,17.420
470,48648.173000,256.987,12.623,-43.585,409.597,260.616,83.609,-219.200,-99.710,20.420
471,48648.185000,237.256,67.156,-18.536,406.940,252.718,80.365,119.800,-70.710,-68.580
472,48648.227000,239.229,61.097,-34.568,406.934,260.417,76.643,19.800,-116.710,-91.580
473,48648.269000,248.108,54.028,-31.562,402.523,266.377,72.850,78.800,-132.710,-111.580
474,48648.307000,235.283,74.225,-45.589,406.035,262.824,69.767,247.800,-93.710,-43.580
475,48648.349000,249.094,64.126,-46.591,402.517,269.765,69.981,-6.200,-27.710,41.420
476,48648.398000,242.189,59.077,-37.573,404.267,265.342,66.864,108.800,20.290,57.420
477,48648.406000,236.270,69.176,-21.542,403.383,268.757,64.986,316.800,-23.710,34.420
478,48648.452000,234.297,73.215,-20.540,404.232,264.136,54.909,451.800,-81.710,31.420
479,48648.486000,242.189,61.097,-17.534,406.866,264.053,51.936,362.800,-211.710,76.420
480,48648.532000,234.297,65.136,-45.589,410.354,265.426,39.083,322.800,-296.710,128.420
481,48648.574000,243.175,61.097,-53.605,411.211,262.597,31.050,98.800,-299.710,131.420
482,48648.622000,249.094,41.909,-66.630,416.474,262.375,23.116,180.800,-265.710,110.420
483,48648.648000,249.094,70.185,-52.603,414.698,262.233,18.140,286.800,-211.710,129.420
484,48648.668000,230.351,60.087,-53.605,419.082,261.171,11.169,506.800,-172.710,179.420
485,48648.708000,255.013,92.402,-37.573,422.568,252.184,-0.034,232.800,-202.710,306.420
486,48648.747000,258.960,70.185,-25.550,423.425,239.024,-5.424,288.800,-125.710,289.420
487,48648.787000,305.326,39.890,46.591,426.898,239.387,-23.275,1237.800,-163.710,-110.580
488,48648.827000,339.854,42.919,53.605,419.790,256.878,-48.548,2968.800,-52.710,-889.580
489,48648.866000,299.407,-38.880,-11.523,404.655,270.801,-107.724,5457.800,302.290,-1911.580
490,48648.905000,225.418,-91.393,-164.822,385.126,277.078,-161.204,5509.800,723.290,-2157.580
491,48648.932000,124.794,-41.909,-218.928,377.968,268.218,-198.255,4187.800,877.290,-1464.580
492,48648.968000,249.094,-70.185,-136.767,375.288,256.651,-208.569,1430.800,442.290,-160.580
493,48649.8000,441.464,-50.998,-58.614,382.323,247.919,-210.816,353.800,145.290,513.420
494,48649.48000,368.462,-2.525,-70.638,390.244,233.197,-210.275,1401.800,445.290,74.420
495,48649.117000,136.632,127.748,-132.759,393.728,217.294,-220.710,1357.800,201.290,360.420
496,48649.132000,40.940,240.852,-185.863,399.005,212.902,-222.822,1104.800,91.290,478.420
497,48649.145000,196.809,9.594,3.507,398.099,202.316,-229.126,212.800,129.290,232.420
498,48649.188000,60.671,25.751,-136.767,410.450,192.163,-220.479,296.800,838.290,346.420
499,48649.228000,349.719,-11.613,-181.855,425.476,175.433,-199.128,668.800,1200.290,561.420
500,48649.268000,333.935,-102.501,-78.654,441.380,162.120,-179.649,859.800,1366.290,468.420
501,48649.308000,332.948,-20.702,-40.579,447.596,152.272,-160.089,1164.800,1499.290,147.420
502,48649.347000,215.553,48.978,-168.830,456.432,142.201,-148.471,1564.800,1127.290,-60.580
503,48649.365000,224.432,123.708,-143.781,447.543,130.206,-173.714,1993.800,-949.710,-353.580
504,48649.411000,224.432,48.978,-167.828,428.909,121.981,-218.725,1590.800,-1674.710,-509.580
505,48649.450000,240.216,60.087,-213.918,405.884,114.733,-259.747,1514.800,-2461.710,-666.580
506,48649.498000,270.798,112.600,-173.840,359.009,105.981,-322.739,896.800,-3193.710,-998.580
507,48649.527000,268.825,141.886,-123.742,299.822,111.220,-381.345,877.800,-3195.710,-1251.580
508,48649.577000,225.418,149.964,-114.724,238.894,102.011,-429.503,937.800,-2861.710,-1287.580
509,48649.605000,204.701,141.886,3.507,203.605,105.791,-448.360,488.800,-2342.710,-1298.580
510,48649.632000,161.295,59.077,66.630,162.152,113.037,-467.125,-566.200,-881.710,-1185.580
511,48649.672000,219.499,-71.195,101.699,192.140,119.445,-455.898,206.800,1499.290,-582.580
512,48649.712000,511.507,79.274,-33.566,216.804,108.235,-454.197,405.800,1424.290,-744.580
513,48649.758000,447.383,-8.584,-55.609,237.053,75.379,-451.226,2442.800,1111.290,-744.580
514,48649.882000,374.382,-84.323,-29.558,245.851,59.761,-451.705,835.800,257.290,-386.580
515,48649.897000,348.732,-47.968,-78.654,232.633,61.431,-453.679,-79.200,-752.710,3.420
516,48649.912000,303.353,26.761,-95.687,206.171,58.498,-464.782,12.800,-1017.710,303.420
517,48649.912000,228.378,131.787,-112.720,178.859,86.029,-471.920,-1065.200,-1125.710,596.420
518,48649.927000,239.229,-19.692,-26.552,163.920,116.539,-466.013,-2214.200,-840.710,1261.420
519,48649.967000,182.998,63.116,-49.597,167.487,136.787,-455.414,-1346.200,0.290,1623.420
520,48650.7000,198.782,50.998,-49.597,193.100,152.965,-435.940,-1717.200,903.290,2193.420
521,48650.47000,211.607,62.107,-56.611,246.045,160.764,-406.721,-1460.200,1453.290,2411.420
522,48650.87000,228.378,114.619,-83.663,279.601,170.201,-380.489,-1831.200,1827.290,2424.420
523,48650.107000,247.121,127.748,-112.720,336.142,179.575,-326.382,-2954.200,2057.290,2470.420
524,48650.147000,242.189,99.471,-150.795,386.552,188.443,-259.403,-3773.200,1944.290,2677.420
525,48650.188000,234.297,158.043,-176.845,430.806,178.464,-184.117,-4457.200,1601.290,2923.420
526,48650.228000,255.013,140.876,-156.806,451.187,167.594,-139.720,-4803.200,1259.290,2225.420
527,48650.267000,186.944,203.487,-309.104,462.743,158.285,-101.259,-3198.200,66.290,545.420
528,48650.315000,199.769,116.639,-106.708,456.574,174.632,-105.713,-1743.200,-907.710,-344.580
529,48650.348000,241.202,103.511,-76.650,451.314,190.393,-100.253,-535.200,8.290,-397.580
530,48650.382000,205.688,25.751,-113.722,444.302,195.905,-89.174,-394.200,246.290,-624.580
531,48650.408000,220.486,19.692,-121.738,443.438,208.141,-85.801,264.800,509.290,-459.580
532,48650.449000,322.096,41.909,-8.517,440.849,215.562,-68.688,-585.200,630.290,-211.580
533,48650.498000,244.162,7.574,-54.607,437.398,223.180,-44.620,-1636.200,464.290,-156.580
534,48650.532000,282.636,-82.304,-60.618,437.450,224.555,-26.701,-1147.200,394.290,-247.580
535,48650.579000,236.270,71.195,-28.556,433.973,241.382,-14.250,-570.200,283.290,-408.580
536,48650.589000,240.216,31.811,-49.597,432.250,248.663,-2.104,-430.200,279.290,-248.580
537,48650.632000,259.946,4.544,-54.607,428.754,254.961,6.034,-262.200,293.290,-246.580
538,48650.673000,230.351,53.018,-50.599,423.507,257.928,19.022,-605.200,271.290,-198.580
539,48650.708000,253.040,56.047,-34.568,419.122,254.678,26.846,-349.200,290.290,-197.580
540,48650.748000,248.108,50.998,-34.568,413.867,261.004,35.972,-348.200,302.290,-154.580
541,48650.790000,236.270,50.998,-12.524,412.132,259.548,45.849,-184.200,249.290,-161.580
542,48650.829000,244.162,34.840,-25.550,412.149,264.029,50.959,-185.200,193.290,-169.580
543,48650.849000,253.040,46.959,-24.548,409.523,267.640,56.033,-83.200,144.290,-199.580
544,48650.908000,243.175,67.156,-5.511,408.660,276.432,60.287,-79.200,81.290,-153.580
545,48650.929000,256.000,60.087,-29.558,401.612,272.115,61.118,-65.200,59.290,-97.580
546,48650.987000,229.364,52.008,-7.515,401.610,273.823,60.180,-113.200,3.290,-106.580
547,48651.17000,232.324,73.215,-0.501,402.505,280.852,63.390,-175.200,-82.710,-106.580
548,48651.87000,245.148,67.156,-17.534,403.381,277.352,62.286,-118.200,-114.710,-51.580
549,48651.94000,242.189,86.343,-23.546,399.857,273.906,63.156,-353.200,-86.710,-18.580
550,48651.138000,251.067,53.018,-24.548,402.511,280.908,65.378,-99.200,-59.710,20.420
551,48651.187000,245.148,49.988,-35.569,402.512,279.200,66.315,-90.200,0.290,2.420
552,48651.217000,232.324,59.077,-13.526,402.512,278.332,66.287,-44.200,-27.710,-56.580
553,48651.245000,234.297,56.047,-14.528,402.516,280.096,67.338,-103.200,-59.710,-73.580
554,48651.309000,240.216,62.107,-20.540,398.986,275.726,66.191,-33.200,-149.710,-94.580
555,48651.344000,248.108,32.821,-36.571,400.727,274.662,59.211,-5.200,-206.710,-92.580
556,48651.351000,248.108,81.294,-25.550,402.486,285.834,55.608,-15.200,-279.710,-127.580
557,48651.380000,252.054,66.146,-50.599,401.607,287.570,55.661,60.800,-112.710,-67.580
558,48651.409000,251.067,75.235,-48.595,401.604,288.410,54.695,57.800,-49.710,-16.580
559,48651.451000,244.162,70.185,-23.546,399.829,290.003,49.777,268.800,-48.710,45.420
560,48651.490000,232.324,71.195,-37.573,399.805,291.486,40.888,460.800,-26.710,97.420
561,48651.538000,247.121,61.097,-36.571,399.777,280.005,33.564,475.800,-70.710,105.420
562,48651.559000,242.189,54.028,-34.568,403.276,281.490,24.687,692.800,-62.710,67.420
563,48651.593000,244.162,63.116,-32.564,404.130,282.077,14.778,770.800,-85.710,87.420
564,48651.644000,240.216,42.919,-16.532,407.602,277.261,-2.248,921.800,-215.710,115.420
565,48651.699000,237.256,79.274,-24.548,408.451,280.395,-14.059,685.800,-410.710,132.420
566,48651.714000,253.040,38.880,-57.613,411.038,277.258,-33.019,825.800,-491.710,134.420
567,48651.764000,219.499,79.274,-145.785,409.218,271.513,-52.078,741.800,-247.710,220.420
568,48651.793000,221.472,60.087,-134.763,417.121,262.642,-59.292,1210.800,332.290,246.420
569,48651.810000,270.798,76.245,-67.632,417.110,256.510,-61.477,1767.800,655.290,453.420
570,48651.850000,260.933,183.290,-8.517,430.295,239.858,-67.933,1446.800,548.290,635.420
571,48651.890000,233.310,172.181,183.859,432.008,229.889,-83.146,2978.800,796.290,-481.580
572,48651.930000,228.378,-110.580,8.517,423.927,223.211,-135.024,7745.800,1289.290,-1428.580
573,48651.969000,256.987,81.294,-275.037,418.511,210.712,-178.145,6094.800,-100.710,-1539.580
574,48652.9000,245.148,54.028,-259.006,399.855,205.705,-231.989,1202.800,-1837.710,-768.580
575,48652.29000,269.811,-43.929,-156.806,368.025,209.707,-273.667,47.800,-2190.710,-503.580
576,48652.77000,236.270,-105.531,-67.632,340.580,191.116,-317.057,2116.800,-1435.710,-523.580
577,48652.120000,270.798,-12.623,101.699,331.702,174.054,-337.499,1722.800,-459.710,-329.580
578,48652.149000,354.651,-85.333,-242.975,343.181,168.296,-326.726,1165.800,1483.290,-200.580
579,48652.193000,288.555,-42.919,-187.867,351.988,157.075,-325.076,639.800,657.290,-59.580
580,48652.233000,94.212,79.274,-256.000,355.518,151.114,-321.286,934.800,409.290,-61.580
581,48652.273000,134.659,75.235,-267.022,341.343,126.180,-343.986,2334.800,-772.710,-489.580
582,48652.288000,154.389,88.363,-294.074,320.096,92.392,-372.954,2646.800,-1575.710,-630.580
583,48652.402000,141.565,177.231,-205.902,277.696,71.411,-408.526,1085.800,-2385.710,-405.580
584,48652.418000,130.713,189.349,-147.789,227.404,80.946,-438.167,-754.200,-2318.710,-435.580
585,48652.447000,115.915,128.757,-95.687,187.726,102.978,-455.453,-664.200,-1610.710,-565.580
586,48652.463000,184.971,147.945,-177.847,171.859,108.901,-460.277,-297.200,-1012.710,-555.580
587,48652.490000,257.973,70.185,-87.671,158.626,113.874,-468.102,-346.200,-299.710,-728.580
588,48652.530000,256.987,36.860,-90.677,164.777,107.690,-472.255,706.800,400.290,-681.580
589,48652.555000,382.274,-53.018,6.513,181.492,80.766,-474.068,1411.800,875.290,-801.580
590,48652.590000,442.451,2.525,-70.638,204.390,63.479,-472.570,985.800,990.290,-941.580
591,48652.679000,400.031,-138.856,-1.503,212.302,45.229,-474.129,1739.800,341.290,-524.580
592,48652.694000,418.775,-94.422,-44.587,206.132,40.017,-474.318,-223.200,-425.710,-21.580
593,48652.709000,330.975,-25.751,-88.673,184.979,42.492,-478.278,-153.200,-789.710,337.420
594,48652.750000,119.861,196.418,-232.955,165.598,60.565,-482.718,-804.200,-622.710,740.420
595,48652.770000,158.335,127.748,-166.826,150.655,98.803,-479.539,-2751.200,-913.710,1239.420
596,48652.810000,172.146,-28.781,-46.591,150.709,128.625,-467.649,-1297.200,-4.710,1812.420
597,48652.858000,149.457,137.846,-113.722,176.282,122.009,-456.858,-252.200,670.290,2101.420
598,48652.890000,171.160,82.304,-93.683,218.653,140.972,-431.283,-2332.200,1249.290,2563.420
599,48652.945000,186.944,80.284,-103.703,249.570,154.747,-404.919,-2414.200,1626.290,2844.420
600,48652.987000,194.836,96.442,-108.712,305.226,175.292,-354.424,-2930.200,1845.290,2874.420
601,48653.13000,209.634,126.738,-133.761,362.683,187.609,-288.303,-3887.200,2092.290,2917.420
602,48653.32000,256.987,135.826,-126.748,415.764,184.693,-208.788,-4248.200,2079.290,2864.420
603,48653.69000,177.079,232.773,-469.417,445.904,175.374,-140.478,-3897.200,2207.290,2348.420
604,48653.109000,175.106,158.043,-416.313,451.233,168.913,-123.789,-1191.200,-30.710,-4.580
605,48653.154000,272.771,120.679,27.554,443.314,189.683,-125.127,-704.200,61.290,-674.580
606,48653.192000,262.906,79.274,-70.638,437.158,200.122,-123.815,409.800,78.290,-564.580
607,48653.239000,245.148,-2.525,-93.683,436.305,206.423,-115.669,-411.200,39.290,-291.580
608,48653.284000,238.243,22.722,-91.679,434.559,221.234,-113.208,-159.200,230.290,-381.580
609,48653.299000,244.162,87.353,-31.562,430.179,224.060,-105.187,-252.200,273.290,-298.580
610,48653.332000,218.513,46.959,-88.673,428.464,240.889,-92.730,-878.200,225.290,-194.580
611,48653.388000,219.499,-63.116,-90.677,425.860,244.725,-79.705,-652.200,265.290,-222.580
612,48653.418000,308.285,-65.136,-62.622,425.873,242.262,-74.820,-123.200,349.290,-343.580
613,48653.458000,248.108,48.978,-56.611,419.746,254.719,-63.513,-596.200,242.290,-447.580
614,48653.492000,242.189,62.107,-51.601,414.499,268.885,-53.140,-160.200,260.290,-323.580
615,48653.519000,251.067,38.880,-59.616,411.880,273.420,-46.050,-113.200,346.290,-277.580
616,48653.550000,256.000,44.939,-77.652,409.282,281.625,-31.890,-136.200,499.290,-248.580
617,48653.590000,218.513,39.890,-33.566,407.544,282.717,-23.917,-164.200,531.290,-101.580
618,48653.637000,228.378,50.998,13.526,407.564,283.782,-16.931,121.800,236.290,-189.580
619,48653.672000,267.838,60.087,-32.564,399.647,283.889,-12.981,-228.200,126.290,-172.580
620,48653.712000,238.243,50.998,-13.526,395.251,288.282,-10.866,-73.200,93.290,-150.580
621,48653.750000,243.175,62.107,1.503,397.018,295.227,-10.635,-341.200,-86.710,-164.580
622,48653.783000,228.378,65.136,-25.550,395.275,301.443,-5.474,-372.200,-184.710,-164.580
623,48653.833000,236.270,63.116,-47.593,394.405,300.687,-1.530,-475.200,-125.710,-124.580
624,48653.869000,260.933,59.077,-39.577,395.295,305.084,0.602,-423.200,-81.710,-114.580
625,48653.907000,227.391,87.353,-20.540,390.021,298.305,6.323,-601.200,-122.710,-53.580
626,48653.932000,238.243,54.028,-45.589,388.275,297.605,12.253,-361.200,-151.710,-15.580
627,48653.970000,235.283,78.264,-20.540,387.380,300.907,6.399,-433.200,-213.710,-12.580
628,48653.997000,266.852,44.939,-51.601,389.159,297.634,13.249,-293.200,-54.710,20.420
629,48654.35000,254.027,82.304,-33.566,392.697,304.665,16.468,-364.200,-22.710,-43.580
630,48654.75000,239.229,64.126,-22.544,392.715,303.126,23.369,-103.200,-34.710,43.420
631,48654.147000,248.108,59.077,-35.569,391.822,302.144,19.362,-143.200,-69.710,60.420
632,48654.173000,244.162,50.998,-42.583,390.069,298.784,23.219,4.800,64.290,42.420
633,48654.227000,227.391,50.998,-14.528,390.944,293.548,22.059,109.800,103.290,-45.580
634,48654.260000,256.000,77.254,-23.546,391.829,303.937,21.406,211.800,-8.710,-59.580
635,48654.275000,238.243,71.195,-24.548,392.699,299.513,18.287,166.800,-59.710,10.420
636,48654.330000,240.216,66.146,-15.530,394.431,301.808,7.444,500.800,-181.710,110.420
637,48654.347000,253.040,83.314,0.501,394.389,298.810,-6.556,675.800,-182.710,143.420
638,48654.373000,247.121,66.146,-49.597,397.892,293.436,-12.677,644.800,-126.710,161.420
639,48654.415000,243.175,41.909,-68.634,396.103,291.445,-21.684,720.800,38.290,165.420
640,48654.450000,243.175,63.116,-38.575,402.228,287.583,-35.692,1006.800,97.290,199.420
641,48654.470000,252.054,65.136,-48.595,403.075,276.046,-45.000,851.800,97.290,228.420
642,48654.510000,253.040,54.028,-57.613,408.351,275.097,-47.993,631.800,74.290,314.420
643,48654.552000,263.892,32.821,-35.569,411.849,266.223,-55.221,763.800,77.290,348.420
644,48654.599000,241.202,20.702,-51.601,415.328,258.887,-69.349,1209.800,46.290,383.420
645,48654.635000,281.649,-14.643,-57.613,424.085,245.451,-84.652,1446.800,66.290,454.420
646,48654.688000,320.123,-1.515,-27.554,427.560,229.463,-98.069,1637.800,64.290,505.420
647,48654.717000,293.487,108.560,9.519,434.555,211.714,-112.524,1718.800,-92.710,442.420
648,48654.737000,257.973,210.556,-32.564,436.264,205.161,-129.612,1672.800,-187.710,30.420
649,48654.770000,145.511,206.517,-262.012,423.817,200.581,-168.527,3297.800,-812.710,-1035.580
650,48654.812000,247.121,37.870,-52.603,402.531,201.733,-219.201,2709.800,-1141.710,-1375.580
651,48654.853000,36.008,-100.481,-27.554,392.782,195.115,-238.313,881.800,-634.710,-721.580
652,48654.893000,132.686,-156.024,-201.894,401.627,197.195,-226.302,406.800,1418.290,-7.580
653,48654.933000,511.507,-160.063,-203.898,416.638,182.901,-210.830,2179.800,1329.290,88.420
654,48654.953000,205.688,115.629,-101.699,421.944,171.902,-201.240,1214.800,1108.290,-274.580
655,48654.993000,232.324,63.116,-127.750,423.668,159.470,-211.567,1549.800,-223.710,-6.580
656,48655.33000,210.620,76.245,-225.941,409.453,135.010,-248.154,2745.800,-1202.710,-593.580
657,48655.73000,262.906,100.481,-231.953,378.451,109.190,-301.720,3038.800,-2302.710,-918.580
658,48655.142000,252.054,161.073,-218.928,326.277,89.094,-367.084,2047.800,-3098.710,-838.580
659,48655.157000,234.297,104.521,-144.783,260.948,89.402,-415.940,476.800,-3217.710,-685.580
660,48655.194000,182.998,140.876,-117.730,219.469,83.460,-441.090,418.800,-2859.710,-584.580
661,48655.228000,211.607,148.955,-4.509,165.672,96.632,-464.667,-647.200,-2219.710,-701.580
662,48655.257000,206.674,-24.742,59.616,150.716,123.529,-463.842,-846.200,-170.710,-586.580
663,48655.292000,117.888,205.507,-342.168,178.905,109.746,-461.220,469.800,1224.290,-325.580
664,48655.333000,473.033,65.136,-117.730,185.080,113.279,-459.100,652.800,327.290,-532.580
665,48655.372000,351.692,-18.682,-22.544,205.320,88.094,-460.845,1797.800,797.290,-555.580
666,48655.464000,413.842,-95.432,1.503,210.576,62.813,-465.620,1376.800,166.290,-649.580
667,48655.472000,380.301,-127.748,-68.634,200.861,41.022,-469.338,1280.800,-519.710,-638.580
668,48655.532000,301.380,-2.525,-111.718,188.497,26.059,-476.814,822.800,-738.710,-212.580
669,48655.548000,225.418,65.136,-147.789,172.627,20.755,-480.016,-526.200,-565.710,386.420
670,48655.573000,161.295,108.560,-177.847,155.043,71.926,-479.405,-2661.200,-837.710,1068.420
671,48655.593000,181.025,-5.554,-53.605,153.367,127.060,-461.733,-2244.200,-46.710,1305.420
672,48655.632000,142.551,77.254,-94.685,176.308,133.462,-450.529,-800.200,670.290,1670.420
673,48655.672000,174.119,83.314,-82.661,206.305,137.378,-435.411,-975.200,1518.290,2113.420
674,48655.698000,186.944,73.215,-92.681,258.368,143.441,-406.250,-1507.200,1974.290,2222.420
675,48655.732000,219.499,101.491,-112.720,311.367,151.776,-358.147,-1971.200,2178.290,2171.420
676,48655.784000,234.297,123.708,-136.767,364.412,172.629,-296.728,-3618.200,2205.290,2280.420
677,48655.813000,255.013,85.333,-161.816,397.168,181.146,-241.732,-5278.200,1882.290,2592.420
678,48655.860000,288.555,229.744,-273.033,437.905,175.532,-165.323,-5732.200,1259.290,3099.420
679,48655.893000,222.459,81.294,-325.135,457.436,168.415,-110.877,-6451.200,-159.710,1858.420
680,48655.913000,184.971,65.136,-185.863,456.599,177.461,-97.677,-2470.200,-739.710,269.420
681,48655.952000,209.634,114.619,-57.613,453.965,174.968,-93.795,-945.200,-113.710,13.420
682,48655.997000,198.782,171.172,-72.642,450.486,189.191,-81.428,-514.200,320.290,-388.580
683,48656.32000,204.701,33.830,-92.681,440.821,196.325,-74.277,874.800,815.290,-918.580
684,48656.72000,364.516,-167.132,-64.626,439.992,220.967,-61.564,1867.800,1266.290,-1095.580
685,48656.113000,379.314,61.097,-88.673,440.914,219.654,-46.709,-2495.200,627.290,-163.580
686,48656.153000,271.784,-181.270,13.526,431.353,234.718,-4.545,-1710.200,571.290,-494.580
687,48656.177000,229.364,146.935,16.532,426.103,240.232,6.540,-159.200,257.290,-410.580
688,48656.220000,243.175,16.663,-31.562,426.135,253.477,14.914,-570.200,158.290,-323.580
689,48656.254000,232.324,74.225,-47.593,419.117,262.377,23.124,-424.200,160.290,-327.580
690,48656.300000,246.135,45.949,-60.618,412.098,260.078,33.950,-719.200,173.290,-224.580
691,48656.334000,265.865,28.781,-55.609,410.358,266.322,40.105,-4.200,247.290,-264.580
692,48656.374000,225.418,62.107,-35.569,408.612,265.621,46.035,-96.200,320.290,-122.580
693,48656.394000,234.297,56.047,3.507,405.992,265.845,53.977,-132.200,239.290,-67.580
694,48656.434000,244.162,54.028,-22.544,403.372,269.512,61.039,-371.200,164.290,-87.580
695,48656.474000,236.270,49.988,-16.532,402.512,270.577,68.022,-216.200,163.290,-125.580
696,48656.515000,261.919,42.919,-24.548,398.120,273.290,72.068,-133.200,168.290,-109.580
697,48656.558000,254.027,31.811,-5.511,397.248,274.242,75.075,7.800,118.290,-136.580
698,48656.593000,258.960,42.919,-28.556,398.130,275.111,75.106,78.800,68.290,-135.580
699,48656.633000,254.027,37.870,-11.523,395.483,285.412,71.459,370.800,69.290,-108.580
700,48656.658000,241.202,57.057,-8.517,392.849,288.938,73.551,52.800,30.290,-106.580
701,48656.704000,246.135,64.126,-15.530,395.472,288.743,66.603,337.800,-31.710,-58.580
702,48656.738000,237.256,44.939,-23.546,388.396,289.324,56.669,540.800,-116.710,-29.580
703,48656.789000,227.391,98.462,11.523,390.147,289.213,52.699,430.800,-210.710,-21.580
704,48656.818000,238.243,69.176,-12.524,390.124,285.544,45.629,-6.200,-242.710,19.420
705,48656.858000,250.081,58.067,-29.558,390.113,288.875,40.772,62.800,-226.710,-7.580
706,48656.895000,250.081,55.037,-6.513,390.984,291.367,36.884,123.800,-254.710,6.420
707,48656.914000,233.310,124.718,-23.546,398.025,293.023,33.981,-134.200,-133.710,42.420
708,48656.955000,251.067,54.028,-22.544,394.507,290.501,36.867,-257.200,-26.710,97.420
709,48656.995000,244.162,28.781,-14.528,398.924,288.041,41.766,-392.200,-102.710,48.420
710,48657.38000,240.216,38.880,-50.599,398.908,284.429,36.684,-215.200,-185.710,-16.580
711,48657.73000,261.919,29.791,-33.566,398.025,285.268,35.715,16.800,-199.710,-30.580
712,48657.120000,246.135,69.176,-32.564,399.782,283.505,34.671,-256.200,-173.710,-1.580
713,48657.134000,243.175,64.126,-51.601,398.887,282.495,29.670,-32.200,-115.710,36.420
714,48657.174000,251.067,55.037,-29.558,401.521,278.969,27.578,75.800,-100.710,81.420
715,48657.214000,242.189,58.067,-36.571,401.514,280.621,24.653,351.800,-115.710,63.420
716,48657.254000,238.243,60.087,-49.597,402.376,278.716,18.636,433.800,-121.710,77.420
717,48657.294000,244.162,56.047,-51.601,403.231,277.595,9.665,535.800,-81.710,119.420
718,48657.343000,230.351,66.146,-51.601,403.202,280.757,-1.155,510.800,-52.710,154.420
719,48657.373000,249.094,34.840,-46.591,407.604,272.977,-0.401,503.800,-73.710,201.420
720,48657.393000,253.040,49.988,-42.583,411.965,267.378,-14.470,718.800,-125.710,195.420
721,48657.438000,259.946,23.732,-52.603,417.215,264.440,-26.465,912.800,-117.710,229.420
722,48657.473000,253.040,34.840,-58.614,418.049,261.386,-42.449,1264.800,-68.710,265.420
723,48657.514000,275.730,-30.801,-74.646,425.053,252.344,-55.629,1311.800,34.290,354.420
724,48657.554000,310.258,-134.817,-105.706,424.112,239.685,-73.916,2483.800,173.290,417.420
725,48657.594000,261.919,217.625,3.507,431.960,219.079,-97.399,2603.800,9.290,546.420
726,48657.614000,233.310,166.122,-16.532,436.311,199.592,-111.919,488.800,-241.710,539.420
727,48657.660000,212.593,156.024,-33.566,435.368,187.772,-131.172,1403.800,-249.710,25.420
728,48657.694000,188.917,162.083,-125.746,430.879,185.216,-160.066,2401.800,-423.710,-843.580
729,48657.735000,230.351,40.899,-117.730,422.020,194.194,-179.663,2115.800,-535.710,-1258.580
730,48657.774000,212.593,-26.761,-131.757,410.463,194.011,-216.447,2349.800,-469.710,-1352.580
731,48657.815000,174.119,-95.432,-164.822,393.647,192.371,-243.365,2102.800,-479.710,-1208.580
732,48657.855000,232.324,-46.959,-47.593,380.342,183.704,-273.478,2163.800,-510.710,-795.580
733,48657.875000,237.256,-110.580,2.505,380.345,183.732,-272.484,405.800,743.290,-368.580
734,48657.915000,254.027,-93.412,-131.757,393.604,176.437,-254.805,527.800,1267.290,27.420
735,48657.955000,268.825,-6.564,-117.730,410.394,173.512,-235.979,-246.200,1049.290,502.420
736,48657.997000,270.798,60.087,-141.777,420.106,160.809,-225.437,187.800,478.290,415.420
737,48658.35000,224.432,40.899,-225.941,414.794,147.616,-231.840,1631.800,-430.710,-42.580
738,48658.85000,234.297,43.929,-248.986,397.924,126.485,-273.293,2614.800,-1503.710,-477.580
739,48658.99000,243.175,80.284,-225.941,358.106,103.179,-329.784,2491.800,-2512.710,-674.580
740,48658.149000,255.013,82.304,-179.851,311.247,69.592,-381.667,1978.800,-2659.710,-699.580
741,48658.210000,196.809,116.639,-122.740,256.502,56.246,-422.988,1611.800,-2479.710,-708.580
742,48658.225000,167.214,115.629,-138.771,231.774,34.077,-439.674,1133.800,-1918.710,-658.580
743,48658.259000,172.146,107.550,-143.781,198.240,29.177,-458.807,445.800,-1566.710,-603.580
744,48658.297000,194.836,181.270,-78.654,164.732,46.930,-474.227,-632.200,-1320.710,-698.580
745,48658.337000,212.593,29.791,3.507,153.313,92.058,-472.799,-2110.200,-246.710,-937.580
746,48658.357000,242.189,3.535,46.591,165.679,113.068,-466.120,-528.200,1122.290,-626.580
747,48658.397000,329.002,-4.544,-450.380,200.919,100.186,-462.453,898.800,1763.290,-707.580
748,48658.434000,409.896,90.383,67.632,207.039,79.049,-474.042,936.800,771.290,-698.580
749,48658.485000,369.449,-5.554,-84.665,217.607,62.649,-471.561,1143.800,471.290,-751.580
750,48658.519000,285.595,-92.402,-71.640,223.769,41.934,-468.242,1636.800,277.290,-658.580
751,48658.559000,292.501,-73.215,-77.652,222.865,26.197,-472.727,401.800,-300.710,-295.580
752,48658.595000,285.595,-70.185,-113.722,207.876,23.470,-476.836,80.800,-577.710,-4.580
753,48658.657000,232.324,27.771,-132.759,188.486,22.503,-479.908,-275.200,-796.710,439.420
754,48658.710000,177.079,80.284,-153.800,174.388,31.088,-482.654,-1150.200,-735.710,589.420
755,48658.724000,220.486,24.742,-138.771,158.555,74.392,-484.278,-2015.200,-608.710,1084.420
756,48658.740000,180.039,3.535,-101.699,156.835,101.524,-475.459,-1251.200,49.290,1207.420
757,48658.775000,193.850,15.653,-97.691,177.126,105.264,-466.336,-429.200,713.290,1405.420
758,48658.815000,200.755,7.574,-116.728,210.653,101.484,-447.484,-230.200,1358.290,1478.420
759,48658.835000,218.513,23.732,-121.738,240.642,97.560,-433.614,-392.200,1828.290,1551.420
760,48658.878000,236.270,63.116,-150.795,286.541,101.071,-402.570,-1516.200,1921.290,1628.420
761,48658.925000,245.148,83.314,-148.791,326.322,123.143,-359.028,-2237.200,1814.290,1688.420
762,48658.962000,247.121,94.422,-132.759,366.100,141.743,-315.598,-3173.200,1613.290,1865.420
763,48658.997000,258.960,119.669,-138.771,386.477,148.932,-276.573,-3834.200,1356.290,2071.420
764,48659.37000,262.906,204.497,-126.748,417.477,163.524,-221.386,-5372.200,771.290,2528.420
765,48659.77000,211.607,216.615,-126.748,445.001,179.460,-149.285,-8537.200,22.290,3018.420
766,48659.97000,230.351,63.116,-241.973,460.988,179.031,-103.570,-5930.200,-6.710,1293.420
767,48659.137000,172.146,162.083,-166.826,458.334,187.540,-109.260,441.800,-571.710,-463.580
768,48659.175000,170.173,27.771,-169.832,451.262,192.461,-119.053,-334.200,-245.710,-421.580
769,48659.218000,151.430,5.554,-182.857,448.620,197.639,-119.887,-806.200,-232.710,19.420
770,48659.290000,148.470,23.732,-184.861,446.901,201.504,-105.865,-1225.200,20.290,142.420
771,48659.343000,217.526,68.166,-113.722,446.950,207.163,-89.793,-950.200,323.290,-30.580
772,48659.352000,223.445,80.284,-89.675,446.112,218.784,-77.503,-98.200,645.290,-461.580
773,48659.370000,271.784,5.554,-124.744,446.150,228.642,-66.260,620.800,825.290,-320.580
774,48659.397000,262.906,-0.505,-102.701,443.575,232.760,-43.296,-458.200,944.290,-77.580
775,48659.437000,257.973,45.949,-83.663,441.897,235.312,-14.422,-80.200,1171.290,-165.580
776,48659.482000,307.299,11.613,-66.630,436.651,231.390,0.329,-131.200,1284.290,-76.580
777,48659.520000,216.540,12.623,23.546,429.683,236.486,27.283,83.800,1034.290,-190.580
778,48659.560000,231.337,87.353,36.571,430.606,240.353,41.313,194.800,587.290,-171.580
779,48659.580000,244.162,40.899,-6.513,427.993,242.369,51.300,-542.200,206.290,-202.580
780,48659.627000,240.216,75.235,-19.538,422.744,246.175,63.323,-725.200,180.290,-225.580
781,48659.668000,282.636,-34.840,-37.573,419.256,252.558,74.441,-584.200,192.290,-238.580
782,48659.695000,251.067,72.205,-31.562,415.753,250.177,82.297,-537.200,250.290,-240.580
783,48659.737000,252.054,47.968,-25.550,414.012,255.552,88.424,-78.200,130.290,-184.580
784,48659.778000,236.270,60.087,-6.513,411.381,256.531,92.419,-68.200,37.290,-152.580
785,48659.798000,246.135,70.185,7.515,410.495,264.230,88.694,244.800,24.290,-86.580
786,48659.837000,242.189,69.176,14.528,410.490,265.910,86.763,33.800,-81.710,-146.580
787,48659.884000,232.324,91.393,10.521,408.725,268.456,84.854,-204.200,-166.710,-124.580
788,48659.920000,262.906,33.830,-56.611,410.485,270.165,83.922,243.800,-131.710,-8.580
789,48659.963000,257.973,65.136,-41.581,405.184,269.152,78.907,-7.200,48.290,-26.580
790,48659.997000,238.243,53.018,-0.501,405.201,265.010,85.723,-129.200,96.290,17.420
791,48660.47000,239.229,45.949,-1.503,402.555,264.111,84.693,12.800,-49.710,-16.580
792,48660.62000,240.216,78.264,-28.556,404.314,264.953,83.733,-234.200,-93.710,-26.580
793,48660.97000,251.067,68.166,-17.534,408.734,270.276,87.892,-116.200,-73.710,29.420
794,48660.137000,252.054,55.037,-15.530,406.088,265.935,87.742,-403.200,-109.710,50.420
795,48660.177000,235.283,67.156,-27.554,410.500,264.286,90.682,-153.200,15.290,61.420
796,48660.217000,241.202,56.047,-7.515,408.738,263.417,90.648,-33.200,19.290,99.420
797,48660.264000,231.337,45.949,13.526,409.610,255.577,89.403,67.800,-106.710,-7.580
798,48660.278000,245.148,53.018,-22.544,412.241,258.043,84.527,-106.200,-222.710,-48.580
799,48660.318000,250.081,61.097,-27.554,413.125,265.827,83.789,-65.200,-226.710,-99.580
800,48660.362000,244.162,60.087,-29.558,413.990,260.507,79.647,-225.200,-214.710,-82.580
801,48660.397000,248.108,59.077,-26.552,412.216,262.101,74.729,7.800,-193.710,-57.580
802,48660.437000,248.108,65.136,-35.569,411.338,258.685,76.601,70.800,-149.710,5.420
803,48660.483000,243.175,54.028,-48.595,413.084,264.565,69.846,157.800,-90.710,56.420
804,48660.517000,240.216,44.939,-29.558,413.064,267.811,62.008,376.800,-64.710,71.420
805,48660.537000,242.189,66.146,-17.534,412.155,267.529,52.066,547.800,-129.710,57.420
806,48660.577000,239.229,64.126,-27.554,415.664,259.635,48.842,414.800,-181.710,94.420
807,48660.624000,242.189,53.018,-25.550,420.036,256.724,37.839,514.800,-224.710,131.420
808,48660.657000,255.013,33.830,-29.558,421.771,259.048,27.990,451.800,-291.710,130.420
809,48660.709000,245.148,61.097,-51.601,424.375,260.392,14.140,463.800,-324.710,142.420
810,48660.745000,252.054,22.722,-49.597,426.102,258.319,2.162,728.800,-384.710,178.420
811,48660.762000,250.081,43.929,-65.628,427.794,251.596,-20.889,1344.800,-445.710,134.420
812,48660.798000,243.175,36.860,-91.679,431.237,249.074,-48.764,1503.800,-339.710,221.420
813,48660.838000,275.730,0.505,-81.659,434.701,233.842,-66.128,1240.800,-207.710,252.420
814,48660.878000,343.800,-61.097,-46.591,435.524,228.099,-85.179,1898.800,-200.710,110.420
815,48660.925000,264.879,199.448,-0.501,436.339,222.272,-107.211,2061.800,-405.710,-129.580
816,48660.963000,242.189,151.984,-58.614,431.867,222.461,-131.051,2177.800,-257.710,-637.580
817,48660.999000,167.214,114.619,-163.820,423.834,226.593,-168.676,3762.800,51.290,-1560.580
818,48661.22000,173.133,-12.623,-139.773,406.956,216.577,-215.726,4610.800,142.290,-1701.580
819,48661.62000,99.145,58.067,-150.795,398.956,203.799,-238.012,2873.800,-193.710,-1101.580
820,48661.108000,137.618,-127.748,-181.855,397.216,214.355,-232.710,-569.200,498.290,-229.580
821,48661.139000,243.175,-176.221,-193.879,411.342,203.476,-219.116,973.800,1612.290,119.420
822,48661.179000,324.069,37.870,-192.877,425.468,187.416,-204.697,1505.800,1361.290,154.420
823,48661.219000,296.447,1.515,-122.740,429.901,187.701,-194.744,69.800,346.290,428.420
824,48661.239000,238.243,33.830,-170.834,423.672,171.566,-213.161,1967.800,-588.710,-85.580
825,48661.282000,251.067,83.314,-197.886,397.969,148.467,-262.649,3047.800,-1479.710,-685.580
826,48661.317000,265.865,134.817,-178.849,362.547,118.192,-320.346,2727.800,-2152.710,-826.580
827,48661.364000,244.162,173.191,-146.787,315.685,91.465,-374.985,2168.800,-2581.710,-788.580
828,48661.415000,239.229,156.024,-139.773,283.006,85.444,-403.089,1071.800,-2637.710,-959.580
829,48661.440000,208.647,152.994,-123.742,226.527,86.153,-438.001,311.800,-2354.710,-1013.580
830,48661.478000,215.553,109.570,-94.685,182.421,99.333,-461.547,-391.200,-1888.710,-1184.580
831,48661.498000,217.526,49.988,-61.620,149.804,112.019,-472.162,-15.200,-1023.710,-1364.580
832,48661.538000,207.661,57.057,-64.626,139.211,110.078,-479.210,341.800,-377.710,-1348.580
833,48661.583000,209.634,61.097,-59.616,136.548,109.011,-486.204,177.800,112.290,-1228.580
834,48661.623000,246.135,50.998,-45.589,152.408,112.495,-486.040,-198.200,818.290,-1120.580
835,48661.660000,251.067,15.653,-23.546,180.629,119.713,-476.779,411.800,1421.290,-1004.580
836,48661.700000,288.555,10.604,-395.272,200.001,111.019,-477.992,1610.800,1371.290,-1382.580
837,48661.728000,300.393,-196.418,-44.587,202.574,55.187,-489.725,3701.800,453.290,-1674.580
838,48661.768000,394.112,36.860,-62.622,213.985,-23.623,-486.288,3451.800,197.290,-1765.580
839,48661.803000,372.408,-169.152,-73.644,207.794,-52.300,-488.231,1757.800,-190.710,-722.580
840,48661.870000,237.256,-38.880,-147.789,198.991,-62.581,-483.628,-554.200,-266.710,571.420
841,48661.909000,83.360,112.600,-261.010,187.556,-27.954,-485.520,-2196.200,-300.710,991.420
842,48661.924000,172.146,-38.880,-90.677,173.495,37.862,-488.395,-3418.200,-439.710,1202.420
843,48661.959000,174.119,-67.156,-86.669,172.650,58.891,-480.764,-636.200,236.290,1718.420
844,48661.979000,186.944,88.363,-103.703,192.063,52.327,-468.006,-23.200,782.290,1953.420
845,48662.27000,208.647,99.471,-105.706,212.342,49.067,-461.096,-1082.200,1223.290,2187.420
846,48662.59000,216.540,115.629,-127.750,248.554,80.178,-435.146,-2674.200,1384.290,2425.420
847,48662.99000,221.472,128.757,-118.732,281.287,120.332,-396.004,-3887.200,1389.290,2569.420
848,48662.140000,240.216,93.412,-101.699,328.169,169.655,-339.639,-4595.200,1443.290,2604.420
849,48662.179000,250.081,85.333,-89.675,360.010,181.277,-297.454,-3971.200,1606.290,2648.420
850,48662.234000,262.906,127.748,-86.669,404.245,189.188,-233.504,-3583.200,1766.290,2545.420
851,48662.242000,245.148,135.826,-121.738,442.334,185.252,-159.035,-3979.200,1876.290,1910.420
852,48662.280000,230.351,128.757,-233.957,466.307,175.061,-90.773,-2406.200,1934.290,1081.420
853,48662.333000,159.322,178.241,-350.184,467.239,179.013,-73.761,-510.200,780.290,-174.580
854,48662.360000,203.715,150.974,-175.843,461.937,187.464,-81.448,-1041.200,-543.710,-610.580
855,48662.408000,266.852,-8.584,-83.663,456.681,204.121,-74.966,128.800,192.290,-632.580
856,48662.447000,239.229,39.890,-80.658,446.137,214.726,-67.705,-548.200,186.290,-534.580
857,48662.459000,251.067,-22.722,-78.654,442.651,228.025,-57.354,-167.200,398.290,-466.580
858,48662.499000,261.919,-7.574,-26.552,439.172,243.117,-44.960,-553.200,470.290,-497.580
859,48662.539000,251.067,36.860,-14.528,436.577,253.925,-30.716,-179.200,443.290,-555.580
860,48662.579000,238.243,60.087,-3.507,427.791,258.456,-23.646,-51.200,304.290,-429.580
861,48662.620000,254.027,34.840,-20.540,425.174,263.887,-15.534,-258.200,174.290,-315.580
862,48662.659000,250.081,44.939,-18.536,419.897,275.167,-15.185,-123.200,125.290,-319.580
863,48662.699000,249.094,34.840,-18.536,416.389,274.466,-9.261,-216.200,80.290,-348.580
864,48662.719000,233.310,54.028,-9.519,410.239,280.650,-5.108,-98.200,26.290,-319.580
865,48662.758000,240.216,54.028,5.511,404.959,292.770,-5.725,-336.200,-95.710,-298.580
866,48662.798000,230.351,93.412,-11.523,401.440,298.843,-5.539,-328.200,-183.710,-220.580
867,48662.839000,241.202,42.919,-50.599,397.039,296.292,-3.650,-271.200,-152.710,-198.580
868,48662.880000,243.175,69.176,-28.556,397.938,305.954,0.639,-467.200,-120.710,-190.580
869,48662.922000,236.270,64.126,-44.587,397.074,305.254,6.571,-557.200,-64.710,-120.580
870,48662.942000,245.148,56.047,-40.579,394.454,306.346,14.542,-690.200,-73.710,-120.580
871,48662.980000,250.081,65.136,-12.524,392.709,309.957,19.618,-568.200,-135.710,-123.580
872,48663.25000,249.094,64.126,-46.591,392.722,312.674,23.679,-449.200,-18.710,-63.580
873,48663.62000,241.202,78.264,-32.564,390.987,314.662,32.675,-255.200,35.290,-71.580
874,48663.99000,254.027,50.998,-17.534,389.229,307.801,35.425,-248.200,54.290,9.420
875,48663.140000,244.162,56.047,-11.523,389.225,310.349,33.522,296.800,27.290,24.420
876,48663.182000,226.405,88.363,-13.526,389.208,306.736,28.440,249.800,79.290,9.420
877,48663.199000,222.459,66.146,-1.503,389.206,307.576,27.474,569.800,191.290,-14.580
878,48663.239000,237.256,67.156,4.509,390.963,312.701,24.667,440.800,106.290,-31.580
879,48663.279000,234.297,73.215,-17.534,387.434,316.086,21.786,231.800,2.290,-50.580
880,48663.319000,255.013,34.840,-33.566,388.319,318.718,22.868,205.800,-56.710,-53.580
881,48663.359000,248.108,49.988,-26.552,386.537,314.208,16.758,315.800,-77.710,-34.580
882,48663.400000,234.297,88.363,-29.558,386.511,317.398,6.931,312.800,-92.710,-32.580
883,48663.423000,249.094,69.176,-30.560,387.385,314.739,4.862,391.800,-73.710,9.420
884,48663.464000,238.243,63.116,-32.564,387.372,316.334,-0.052,428.800,-31.710,14.420
885,48663.499000,247.121,78.264,-12.524,391.745,311.715,-10.117,449.800,-70.710,70.420
886,48663.540000,240.216,87.353,-16.532,389.962,310.649,-17.109,324.800,-138.710,117.420
887,48663.580000,241.202,82.304,-41.581,394.345,311.295,-25.017,242.800,-106.710,146.420
888,48663.620000,234.297,72.205,-38.575,391.692,309.472,-28.064,217.800,-69.710,151.420
889,48663.660000,245.148,67.156,-16.532,394.315,305.833,-34.132,494.800,-54.710,137.420
890,48663.680000,220.486,93.412,-31.562,395.180,302.221,-39.211,366.800,-91.710,131.420
891,48663.728000,254.027,50.998,-38.575,402.197,295.029,-48.359,313.800,-95.710,188.420
892,48663.760000,252.054,35.850,-45.589,402.184,289.736,-51.510,392.800,-92.710,203.420
893,48663.800000,230.351,77.254,-51.601,403.040,289.483,-60.452,474.800,-57.710,241.420
894,48663.839000,253.040,40.899,-36.571,409.177,284.026,-69.546,740.800,-9.710,258.420
895,48663.885000,254.027,45.949,-40.579,410.892,270.641,-82.884,741.800,-55.710,267.420
896,48663.905000,252.054,35.850,-37.573,416.163,265.325,-87.012,903.800,-114.710,330.420
897,48663.944000,256.987,1.515,-58.614,424.035,254.436,-104.221,853.800,-125.710,352.420
898,48663.995000,292.501,-15.653,-62.622,427.510,237.580,-117.665,1247.800,6.290,361.420
899,48664.22000,240.216,27.771,-56.611,431.002,229.517,-126.853,1353.800,100.290,322.420
900,48664.69000,212.593,192.379,-42.583,435.354,211.766,-141.317,1626.800,216.290,28.420
901,48664.120000,177.079,112.600,-45.589,437.996,210.032,-141.364,2160.800,695.290,-265.580
902,48664.150000,183.985,27.771,-60.618,440.611,199.421,-148.651,3130.800,1126.290,-561.580
903,48664.172000,266.852,-84.323,-189.871,444.031,169.962,-178.393,5540.800,299.290,-704.580
904,48664.203000,239.229,32.821,-210.912,431.557,147.014,-222.869,2771.800,-889.710,-196.580
905,48664.243000,241.202,29.791,-168.830,423.541,136.672,-251.034,1131.800,-1783.710,-33.580
906,48664.283000,285.595,37.870,-131.757,389.921,120.567,-298.335,645.800,-2028.710,-207.580
907,48664.323000,242.189,10.604,-122.740,361.605,111.552,-340.424,728.800,-1805.710,-292.580
908,48664.363000,252.054,134.817,-74.646,335.088,110.659,-371.321,818.800,-1507.710,-630.580
909,48664.383000,224.432,72.205,-186.865,313.007,102.324,-389.536,803.800,-1841.710,-753.580
910,48664.423000,280.663,34.840,-220.932,269.737,91.787,-423.778,1387.800,-2156.710,-926.580
911,48664.463000,276.717,48.978,-201.894,209.721,79.445,-460.118,1019.800,-2652.710,-1081.580
912,48664.500000,232.324,18.682,-162.818,142.675,66.399,-490.546,1267.800,-2546.710,-1197.580
913,48664.540000,127.753,77.254,-89.675,91.531,46.928,-503.258,1303.800,-2042.710,-1041.580
914,48664.580000,55.738,72.205,-28.556,72.119,38.849,-512.519,290.800,-1308.710,-889.580
915,48664.625000,39.954,47.968,-22.544,65.081,52.731,-512.091,-758.200,59.290,-662.580
916,48664.652000,124.794,54.028,-47.593,89.778,73.722,-506.366,-958.200,1128.290,-505.580
917,48664.693000,158.335,54.028,-81.659,139.145,96.495,-499.511,-988.200,1992.290,-322.580
918,48664.725000,249.094,148.955,-153.800,172.659,102.066,-487.307,-676.200,1873.290,-87.580
919,48664.795000,196.809,217.625,-497.472,202.630,108.304,-482.044,267.800,987.290,-547.580
920,48664.810000,334.921,7.574,-141.777,191.152,108.042,-491.026,196.800,-495.710,-847.580
921,48664.843000,332.948,-25.751,-148.791,186.725,104.370,-498.110,326.800,-202.710,-740.580
922,48664.890000,300.393,-110.580,-152.798,183.207,108.736,-496.987,590.800,6.290,-545.580
923,48664.919000,312.231,-126.738,-154.802,184.060,93.811,-503.426,861.800,63.290,-272.580
924,48664.940000,267.838,-40.899,-176.845,177.003,85.098,-504.724,241.800,-278.710,-65.580
925,48664.985000,193.850,6.564,-157.808,157.643,101.660,-501.270,-791.200,-651.710,319.420
926,48665.25000,213.580,-6.564,-108.712,149.724,103.475,-498.258,-599.200,-442.710,770.420
927,48665.65000,199.769,45.949,-105.706,147.087,100.086,-495.397,97.800,-33.710,1186.420
928,48665.107000,193.850,72.205,-105.706,156.803,99.478,-486.449,-185.200,461.290,1665.420
929,48665.120000,180.039,102.501,-95.687,184.161,111.176,-472.080,-1611.200,996.290,2190.420
930,48665.160000,176.092,83.314,-109.714,223.037,139.910,-438.254,-2484.200,1315.290,2571.420
931,48665.215000,196.809,87.353,-96.689,257.483,160.632,-411.653,-2934.200,1577.290,2870.420
932,48665.242000,247.121,136.836,-117.730,311.388,176.976,-356.336,-3528.200,1825.290,3268.420
933,48665.282000,252.054,165.112,-134.763,366.224,195.536,-284.062,-4948.200,1553.290,3458.420
934,48665.330000,270.798,160.063,-256.000,404.283,203.358,-223.114,-4876.200,778.290,3150.420
935,48665.343000,161.295,180.260,-338.160,411.406,217.031,-199.809,-3081.200,-624.710,819.420
936,48665.422000,215.553,138.856,38.575,405.265,229.347,-193.471,-1141.200,-198.710,-121.580
937,48665.438000,259.946,91.393,-95.687,401.754,238.949,-191.185,-164.200,-57.710,-333.580
938,48665.463000,147.484,6.564,-194.881,403.547,246.148,-182.009,-696.200,-49.710,78.420
939,48665.503000,157.349,19.692,-176.845,399.180,243.935,-168.192,-1888.200,24.290,373.420
940,48665.544000,212.593,36.860,-115.726,405.416,254.107,-145.997,-2011.200,149.290,381.420
941,48665.587000,231.337,114.619,-60.618,404.611,260.887,-120.954,-300.200,670.290,-402.580
942,48665.607000,256.987,14.643,-82.661,400.232,268.893,-113.758,1262.800,908.290,-517.580
943,48665.647000,235.283,49.988,-77.652,399.388,277.014,-102.574,-68.200,714.290,-213.580
944,48665.713000,243.175,43.929,-50.599,400.323,281.861,-84.540,-482.200,741.290,-198.580
945,48665.728000,293.487,10.604,-52.603,396.860,287.630,-64.504,-580.200,593.290,-89.580
946,48665.762000,248.108,79.274,-44.587,393.385,288.106,-47.619,-449.200,485.290,-70.580
947,48665.804000,229.364,98.462,-62.622,400.471,282.458,-32.884,-352.200,553.290,21.420
948,48665.840000,214.566,-5.554,-12.524,400.515,293.240,-19.626,-718.200,495.290,-21.580
949,48665.868000,246.135,32.821,-1.503,398.793,297.077,-6.598,-953.200,87.290,-180.580
950,48665.904000,238.243,43.929,-10.521,397.058,303.377,1.545,-577.200,-130.710,-148.580
951,48665.944000,254.027,50.998,-70.638,393.531,302.479,0.512,45.800,-83.710,-142.580
952,48665.983000,249.094,65.136,-59.616,391.777,298.250,4.341,-196.200,118.290,-73.580
953,48666.30000,242.189,78.264,-49.597,388.264,300.936,7.396,-5.200,202.290,-14.580
954,48666.64000,227.391,79.274,-28.556,388.289,301.189,16.341,-138.200,206.290,-1.580
955,48666.84000,232.324,78.264,-5.511,388.317,297.159,27.133,-421.200,152.290,28.420
956,48666.127000,256.000,66.146,-9.519,390.090,304.161,29.352,-238.200,76.290,56.420
957,48666.168000,240.216,62.107,-18.536,390.994,304.387,37.306,-327.200,-25.710,35.420
958,48666.202000,239.229,59.077,-36.571,389.230,301.782,37.216,-214.200,-34.710,37.420
959,48666.247000,237.256,72.205,-11.523,389.231,299.206,38.125,-242.200,-11.710,23.420
960,48666.288000,231.337,67.156,-11.523,391.005,296.744,43.016,-273.200,-64.710,-10.580
961,48666.302000,239.229,48.978,-21.542,393.644,294.982,41.974,-131.200,-119.710,-60.580
962,48666.347000,242.189,53.018,-26.552,391.880,299.264,40.122,-258.200,-173.710,-50.580
963,48666.382000,244.162,75.235,-26.552,387.472,299.233,39.114,40.800,-200.710,-64.580
964,48666.424000,251.067,68.166,-47.593,390.995,302.679,38.244,-93.200,-118.710,-7.580
965,48666.464000,243.175,65.136,-42.583,386.585,299.176,37.123,-60.200,-50.710,-15.580
966,48666.504000,242.189,67.156,-31.562,389.215,296.461,33.071,18.800,-27.710,18.420
967,48666.547000,241.202,68.166,-32.564,389.223,296.545,36.053,137.800,-5.710,68.420
968,48666.567000,244.162,72.205,-36.571,390.097,298.198,33.130,222.800,18.290,79.420
969,48666.607000,239.229,65.136,-35.569,395.375,298.985,30.194,189.800,27.290,90.420
970,48666.664000,242.189,64.126,-31.562,397.127,297.166,27.161,333.800,36.290,101.420
971,48666.694000,246.135,71.195,-30.560,396.233,295.316,23.127,330.800,28.290,108.420
972,48666.728000,243.175,63.116,-32.564,399.742,294.310,18.140,449.800,48.290,134.420
973,48666.778000,243.175,60.087,-28.556,401.476,279.386,11.704,478.800,14.290,169.420
974,48666.802000,240.216,65.136,-29.558,403.226,281.851,6.824,397.800,-60.710,198.420
975,48666.823000,240.216,59.077,-27.554,406.719,278.100,-3.216,456.800,-128.710,241.420
976,48666.868000,253.040,74.225,-28.556,414.616,270.908,-12.361,411.800,-232.710,301.420
977,48666.908000,245.148,45.949,-36.571,413.705,268.022,-22.388,443.800,-273.710,350.420
978,48666.949000,246.135,41.909,-43.585,418.085,265.196,-30.409,257.800,-343.710,313.420
979,48666.983000,243.175,35.850,-56.611,421.577,259.708,-40.506,195.800,-346.710,269.420
980,48667.28000,243.175,42.919,-51.601,424.182,254.164,-52.593,271.800,-371.710,269.420
981,48667.44000,247.121,38.880,-53.605,427.659,240.781,-65.925,548.800,-252.710,107.420
982,48667.85000,239.229,37.870,-59.616,426.762,242.347,-71.835,1123.800,-137.710,-30.580
983,48667.124000,235.283,19.692,-63.624,429.344,244.333,-93.609,1606.800,-31.710,-209.580
984,48667.165000,251.067,12.623,-67.632,423.111,241.945,-116.545,2100.800,78.290,-420.580
985,48667.208000,256.000,-12.623,-71.640,421.287,238.748,-137.507,2199.800,132.290,-538.580
986,48667.275000,256.000,-5.554,-74.646,416.836,229.671,-151.718,2207.800,197.290,-584.580
987,48667.293000,252.054,-1.515,-85.667,414.148,224.906,-166.776,1562.800,292.290,-414.580
988,48667.305000,226.405,-2.525,-93.683,411.478,222.915,-175.786,1144.800,157.290,-252.580
989,48667.345000,219.499,-0.505,-96.689,413.225,218.463,-179.897,653.800,54.290,-114.580
990,48667.399000,226.405,14.643,-104.704,409.688,223.500,-185.703,550.800,-68.710,-78.580
991,48667.433000,228.378,0.505,-97.691,411.425,216.360,-192.880,799.800,-53.710,-31.580
992,48667.483000,234.297,17.673,-102.701,407.873,208.320,-201.096,810.800,-12.710,-61.580
993,48667.509000,231.337,26.761,-84.665,405.208,202.073,-207.265,528.800,-11.710,-13.580
994,48667.529000,248.108,68.166,9.519,406.079,195.941,-209.447,466.800,150.290,-36.580
995,48667.602000,242.189,68.166,-81.659,414.034,197.069,-200.448,16.800,508.290,-14.580
996,48667.618000,246.135,12.623,-51.601,414.049,202.389,-196.304,84.800,357.290,-91.580
997,48667.674000,247.121,17.673,-67.632,413.189,204.322,-189.293,84.800,306.290,-100.580
998,48667.690000,246.135,3.535,-53.605,416.730,207.937,-184.199,5.800,280.290,-57.580
999,48667.735000,252.054,6.564,-45.589,413.207,204.491,-183.329,-16.200,183.290,-71.580
1000,48667.785000,249.094,11.613,-46.591,414.113,208.189,-175.262,-77.200,125.290,-121.580
1001,48667.794000,252.054,25.751,-45.589,412.352,209.924,-175.212,-43.200,82.290,-118.580
1002,48667.828000,248.108,23.732,-53.605,412.365,212.640,-171.152,-69.200,85.290,-107.580
1003,48667.863000,249.094,23.732,-54.607,415.005,216.058,-173.018,-21.200,108.290,-88.580
1004,48667.904000,246.135,16.663,-46.591,412.378,217.933,-168.001,-59.200,97.290,-97.580
1005,48667.944000,247.121,24.742,-47.593,411.501,219.696,-166.954,-100.200,77.290,-105.580
1006,48667.984000,249.094,29.791,-36.571,413.273,225.830,-164.763,-45.200,53.290,-104.580
1007,48668.4000,245.148,24.742,-39.577,411.506,222.328,-165.875,-101.200,-16.710,-105.580
1008,48668.44000,246.135,29.791,-40.579,406.236,232.825,-162.572,-85.200,-64.710,-109.580
1009,48668.85000,243.175,27.771,-45.589,408.872,230.167,-164.636,-69.200,-101.710,-102.580
1010,48668.125000,243.175,24.742,-53.605,404.460,229.239,-166.666,-98.200,-107.710,-106.580
1011,48668.165000,248.108,35.850,-57.613,405.338,231.787,-168.567,-114.200,-75.710,-99.580
1012,48668.214000,244.162,31.811,-56.611,401.831,239.709,-164.349,-93.200,-28.710,-87.580
1013,48668.262000,248.108,33.830,-54.607,400.065,241.388,-166.286,-118.200,21.290,-79.580
1014,48668.280000,247.121,40.899,-51.601,398.311,244.915,-164.191,-68.200,43.290,-76.580
1015,48668.310000,244.162,38.880,-44.587,399.209,245.085,-158.225,-92.200,44.290,-58.580
1016,48668.347000,245.148,39.890,-41.581,398.318,242.395,-161.294,-59.200,2.290,-60.580
1017,48668.387000,245.148,40.899,-47.593,398.322,247.603,-161.125,-46.200,-20.710,-50.580
1018,48668.427000,245.148,37.870,-50.599,397.450,249.423,-158.090,-19.200,-22.710,-39.580
1019,48668.467000,245.148,39.890,-51.601,395.681,251.073,-161.021,-11.200,-7.710,-29.580
1020,48668.487000,243.175,40.899,-45.589,396.561,253.650,-161.928,-21.200,-11.710,-20.580
1021,48668.539000,245.148,39.890,-48.595,394.798,244.157,-160.255,-41.200,-31.710,-20.580
1022,48668.574000,245.148,43.929,-47.593,393.924,249.393,-159.095,-36.200,-42.710,-11.580
1023,48668.609000,245.148,42.919,-50.599,396.559,242.422,-160.306,-38.200,-38.710,-3.580
1024,48668.644000,245.148,40.899,-50.599,396.560,251.914,-161.984,-19.200,-37.710,-0.580
1025,48668.685000,245.148,41.909,-52.603,396.557,251.886,-162.978,-24.200,-28.710,2.420
1026,48668.725000,246.135,40.899,-50.599,393.921,253.676,-160.942,-17.200,-18.710,6.420
1027,48668.745000,244.162,41.909,-47.593,396.554,251.858,-163.972,3.800,-20.710,9.420
1028,48668.785000,242.189,43.929,-50.599,396.559,254.490,-162.893,-9.200,-32.710,9.420
1029,48668.827000,244.162,40.899,-52.603,392.143,247.486,-165.121,-10.200,-37.710,11.420
1030,48668.869000,242.189,43.929,-51.601,394.785,245.752,-165.169,-3.200,-36.710,20.420
1031,48668.905000,246.135,36.860,-53.605,391.256,245.693,-167.168,-0.200,-28.710,23.420
1032,48668.945000,245.148,40.899,-53.605,394.790,249.252,-164.062,11.800,-14.710,25.420
1033,48668.965000,244.162,38.880,-53.605,394.792,250.988,-164.006,20.800,3.290,34.420
1034,48669.10000,244.162,39.890,-51.601,394.788,249.224,-165.056,32.800,10.290,41.420
1035,48669.50000,244.162,39.890,-48.595,396.547,249.197,-166.044,22.800,6.290,46.420
1036,48669.84000,245.148,36.860,-49.597,396.549,244.914,-164.197,7.800,-14.710,49.420
1037,48669.132000,247.121,36.860,-52.603,396.536,242.197,-168.257,23.800,-16.710,46.420
1038,48669.165000,244.162,36.860,-53.605,397.423,243.122,-166.238,28.800,-10.710,40.420
