Sample, Time, ACCX, ACCY, ACCZ, MAGX, MAGY, MAGZ, GYRX, GYRY, GYRZ
0,48532.325000,244.162,42.919,-55.609,401.115,271.497,-113.670,-0.200,-20.710,-1.580
1,48532.365000,243.175,42.919,-55.609,403.759,273.235,-113.605,8.800,-17.710,4.420
2,48532.386000,243.175,41.909,-55.609,402.866,267.942,-116.759,2.800,-14.710,9.420
3,48532.431000,244.162,41.909,-55.609,406.392,271.417,-116.635,-1.200,-9.710,8.420
4,48532.465000,243.175,39.890,-56.611,401.108,266.261,-114.833,5.800,-3.710,10.420
5,48532.505000,244.162,41.909,-55.609,401.983,269.649,-117.700,-0.200,6.290,19.420
6,48532.551000,245.148,39.890,-53.605,403.748,262.791,-114.937,4.800,4.290,19.420
7,48532.590000,243.175,40.899,-56.611,404.642,272.396,-112.637,2.800,7.290,21.420
8,48532.604000,243.175,40.899,-55.609,404.632,269.707,-115.703,7.800,16.290,22.420
9,48532.646000,242.189,40.899,-54.607,403.759,273.235,-113.605,5.800,12.290,25.420
10,48532.689000,246.135,40.899,-54.607,408.147,262.738,-116.911,10.800,11.290,34.420
11,48532.727000,243.175,38.880,-55.609,408.158,265.426,-113.845,9.800,8.290,37.420
12,48532.769000,243.175,36.860,-54.607,404.628,261.056,-114.991,22.800,-2.710,38.420
13,48532.809000,249.094,37.870,-50.599,409.914,261.927,-114.946,8.800,-18.710,35.420
14,48532.851000,245.148,33.830,-51.601,408.147,261.870,-116.939,56.800,-38.710,32.420
15,48532.869000,243.175,41.909,-53.605,403.736,260.942,-118.969,34.800,-60.710,44.420
16,48532.911000,242.189,41.909,-55.609,401.968,257.441,-120.082,31.800,-81.710,59.420
17,48532.945000,244.162,39.890,-59.616,405.489,260.859,-121.945,35.800,-63.710,77.420
18,48532.985000,248.108,36.860,-58.614,409.889,250.474,-121.275,45.800,-46.710,96.420
19,48533.25000,247.121,35.850,-61.620,411.651,258.231,-123.004,63.800,-9.710,108.420
20,48533.66000,245.148,25.751,-63.624,413.414,256.525,-122.061,73.800,7.290,115.420
21,48533.86000,230.351,29.791,-56.611,416.928,254.707,-125.087,46.800,-23.710,112.420
22,48533.136000,248.108,31.811,-58.614,415.160,250.338,-126.228,26.800,-8.710,116.420
23,48533.165000,240.216,27.771,-60.618,414.274,243.393,-126.456,75.800,-5.710,110.420
24,48533.205000,237.256,21.712,-58.614,414.277,242.553,-125.490,71.800,-30.710,111.420
25,48533.247000,244.162,18.682,-52.603,418.667,238.104,-129.593,128.800,-86.710,98.420
26,48533.287000,246.135,21.712,-53.605,418.663,236.339,-130.643,83.800,-143.710,80.420
27,48533.326000,252.054,27.771,-56.611,416.001,237.876,-137.552,67.800,-149.710,65.420
28,48533.351000,244.162,19.692,-74.646,416.876,241.264,-140.419,37.800,-80.710,54.420
29,48533.389000,245.148,17.673,-69.636,417.754,236.925,-140.557,53.800,-43.710,49.420
30,48533.429000,244.162,15.653,-67.632,415.113,236.083,-139.599,32.800,-17.710,30.420
31,48533.480000,241.202,21.712,-66.630,418.636,234.350,-139.644,28.800,18.290,17.420
32,48533.510000,243.175,20.702,-63.624,419.508,229.954,-141.770,12.800,23.290,21.420
33,48533.550000,244.162,18.682,-65.628,423.038,227.437,-138.862,17.800,37.290,14.420
34,48533.586000,243.175,17.673,-61.620,424.804,236.958,-139.540,12.800,49.290,4.420
35,48533.606000,242.189,19.692,-63.624,421.282,235.248,-138.614,-12.200,36.290,1.420
36,48533.654000,245.148,22.722,-64.626,421.287,234.436,-136.654,-8.200,44.290,2.420
37,48533.690000,242.189,18.682,-65.628,419.530,237.067,-135.581,-3.200,40.290,5.420
38,48533.731000,248.108,21.712,-63.624,420.407,231.860,-135.748,-4.200,53.290,15.420
39,48533.766000,243.175,15.653,-64.626,421.295,229.341,-132.847,25.800,72.290,21.420
40,48533.806000,242.189,16.663,-65.628,424.822,234.552,-132.667,12.800,78.290,20.420
41,48533.826000,246.135,20.702,-59.616,421.306,229.454,-128.872,-2.200,93.290,27.420
42,48533.866000,247.121,18.682,-62.622,425.715,231.221,-127.807,12.800,122.290,30.420
43,48533.906000,245.148,14.643,-61.620,426.604,230.438,-124.851,29.800,142.290,32.420
44,48533.955000,246.135,15.653,-61.620,428.371,233.940,-123.739,43.800,165.290,26.420
45,48533.985000,242.189,20.702,-54.607,423.966,226.181,-122.019,40.800,188.290,35.420
46,48534.25000,246.135,18.682,-49.597,425.746,230.663,-116.902,46.800,178.290,47.420
47,48534.67000,245.148,15.653,-43.585,431.032,223.779,-115.123,27.800,135.290,45.420
48,48534.87000,249.094,13.633,-35.569,430.146,224.590,-117.085,20.800,53.290,26.420
49,48534.134000,247.121,18.682,-38.575,429.281,227.334,-112.034,11.800,-5.710,13.420
50,48534.167000,248.108,12.623,-49.597,429.274,221.230,-113.225,8.800,-44.710,3.420
51,48534.206000,247.121,12.623,-51.601,428.390,228.957,-115.956,39.800,-48.710,1.420
52,48534.245000,241.202,12.623,-54.607,426.623,222.012,-116.187,61.800,-51.710,3.420
53,48534.292000,247.121,19.692,-48.595,431.013,221.006,-121.171,47.800,-49.710,5.420
54,48534.306000,248.108,14.643,-47.593,425.734,226.238,-120.025,21.800,-59.710,2.420
55,48534.346000,248.108,14.643,-43.585,427.496,227.108,-119.991,28.800,-99.710,-8.580
56,48534.387000,246.135,13.633,-45.589,424.838,228.673,-125.907,21.800,-125.710,-31.580
57,48534.430000,248.108,19.692,-55.609,427.482,226.967,-124.961,-37.200,-123.710,-34.580
58,48534.467000,246.135,12.623,-59.616,426.596,227.778,-126.923,14.800,-103.710,-35.580
59,48534.507000,245.148,13.633,-60.618,426.586,221.646,-129.108,22.800,-96.710,-36.580
60,48534.550000,250.081,21.712,-62.622,423.055,226.738,-132.926,-49.200,-45.710,-51.580
61,48534.574000,244.162,17.673,-66.630,425.701,224.193,-131.014,-15.200,-7.710,-28.580
62,48534.607000,250.081,14.643,-59.616,423.951,232.928,-128.751,1.800,24.290,-21.580
63,48534.646000,248.108,16.663,-55.609,423.068,232.899,-129.747,-19.200,52.290,-44.580
64,48534.687000,242.189,16.663,-57.613,423.951,232.060,-128.779,-41.200,59.290,-45.580
65,48534.726000,248.108,20.702,-55.609,422.194,235.558,-127.678,-63.200,60.290,-41.580
66,48534.767000,245.148,16.663,-54.607,419.554,231.273,-125.839,-47.200,57.290,-43.580
67,48534.787000,246.135,21.712,-52.603,420.435,235.585,-126.690,-37.200,41.290,-42.580
68,48534.836000,249.094,21.712,-50.599,422.200,232.171,-124.809,-23.200,31.290,-43.580
69,48534.871000,244.162,18.682,-55.609,420.437,233.878,-125.752,-19.200,29.290,-43.580
70,48534.911000,246.135,22.722,-53.605,423.981,241.833,-120.518,-29.200,30.290,-44.580
71,48534.952000,245.148,23.732,-53.605,421.340,240.991,-119.560,-11.200,37.290,-32.580
72,48534.986000,246.135,22.722,-52.603,422.225,242.756,-118.507,-20.200,35.290,-29.580
73,48535.9000,247.121,20.702,-51.601,419.586,244.518,-117.466,-18.200,32.290,-33.580
74,48535.51000,247.121,23.732,-50.599,420.466,239.339,-116.638,-13.200,22.290,-38.580
75,48535.102000,247.121,24.742,-53.605,420.462,245.331,-119.422,-15.200,16.290,-41.580
76,48535.126000,245.148,25.751,-50.599,419.588,246.254,-117.409,-10.200,13.290,-39.580
77,48535.166000,248.108,28.781,-50.599,417.827,243.677,-116.506,-15.200,15.290,-37.580
78,48535.207000,249.094,25.751,-52.603,421.355,246.312,-115.416,-7.200,24.290,-38.580
79,48535.249000,244.162,25.751,-49.597,420.468,241.943,-116.553,-6.200,15.290,-40.580
80,48535.269000,245.148,26.761,-48.595,415.195,248.100,-113.391,-15.200,3.290,-45.580
81,48535.315000,246.135,27.771,-51.601,414.299,241.910,-117.567,-14.200,2.290,-42.580
82,48535.356000,245.148,27.771,-53.605,415.182,241.939,-116.570,-22.200,1.290,-42.580
83,48535.397000,248.108,27.771,-50.599,416.078,249.836,-113.332,-10.200,0.290,-38.580
84,48535.427000,246.135,31.811,-51.601,416.956,249.809,-114.323,-9.200,-2.710,-30.580
85,48535.491000,245.148,26.761,-51.601,417.842,253.310,-113.214,-19.200,-8.710,-27.580
86,48535.497000,247.121,30.801,-48.595,416.074,252.384,-115.236,-16.200,-27.710,-26.580
87,48535.527000,245.148,33.830,-48.595,414.310,254.091,-116.179,-8.200,-40.710,-24.580
88,48535.566000,245.148,29.791,-52.603,413.434,252.410,-114.250,-13.200,-45.710,-22.580
89,48535.610000,249.094,31.811,-53.605,414.311,247.203,-114.416,-17.200,-36.710,-19.580
90,48535.651000,244.162,30.801,-54.607,410.790,254.116,-115.196,-5.200,-32.710,-18.580
91,48535.691000,246.135,29.791,-52.603,412.541,254.873,-119.138,-18.200,-31.710,-20.580
92,48535.736000,245.148,32.821,-53.605,413.428,255.798,-117.119,-20.200,-30.710,-20.580
93,48535.752000,245.148,32.821,-51.601,410.783,256.636,-118.094,-19.200,-31.710,-17.580
94,48535.786000,243.175,32.821,-53.605,410.786,257.532,-117.072,-24.200,-35.710,-15.580
95,48535.826000,247.121,28.781,-53.605,408.136,254.870,-119.152,-42.200,-41.710,-13.580
96,48535.872000,246.135,32.821,-54.607,412.536,252.241,-120.217,-31.200,-38.710,-13.580
97,48535.922000,246.135,33.830,-53.605,414.306,259.214,-118.992,-28.200,-42.710,-17.580
98,48535.951000,247.121,35.850,-51.601,414.309,259.242,-117.998,-45.200,-51.710,-16.580
99,48535.989000,245.148,33.830,-54.607,410.777,256.579,-120.081,-30.200,-59.710,-8.580
100,48536.15000,243.175,32.821,-56.611,407.252,254.841,-120.149,-21.200,-53.710,0.420
101,48536.50000,247.121,33.830,-58.614,410.771,255.655,-122.097,0.800,-41.710,1.420
102,48536.97000,242.189,32.821,-59.616,408.125,251.313,-122.247,35.800,-24.710,3.420
103,48536.135000,246.135,32.821,-56.611,406.359,258.171,-125.009,28.800,-7.710,11.420
104,48536.174000,245.148,31.811,-58.614,410.766,253.023,-123.176,32.800,3.290,5.420
105,48536.209000,243.175,32.821,-58.614,411.650,257.363,-123.032,35.800,8.290,3.420
106,48536.230000,245.148,33.830,-56.611,409.883,257.306,-125.026,27.800,15.290,6.420
107,48536.270000,246.135,33.830,-54.607,409.001,256.437,-125.057,25.800,19.290,8.420
108,48536.324000,244.162,30.801,-56.611,408.120,252.125,-124.206,10.800,16.290,7.420
109,48536.352000,246.135,33.830,-54.607,410.762,255.570,-125.079,21.800,8.290,8.420
110,48536.416000,246.135,33.830,-56.611,415.171,253.026,-123.162,39.800,15.290,10.420
111,48536.470000,244.162,31.811,-55.609,413.415,257.393,-122.033,36.800,20.290,15.420
112,48536.500000,244.162,33.830,-54.607,413.412,256.497,-123.055,17.800,8.290,16.420
113,48536.510000,245.148,31.811,-52.603,411.651,253.920,-122.151,-1.200,-5.710,16.420
114,48536.532000,244.162,31.811,-54.607,409.878,254.674,-126.104,2.800,-17.710,13.420
115,48536.569000,243.175,30.801,-56.611,409.013,253.106,-120.200,0.800,-21.710,13.420
116,48536.610000,245.148,30.801,-57.613,409.879,252.098,-125.195,-2.200,-15.710,14.420
117,48536.647000,245.148,30.801,-56.611,410.764,253.863,-124.142,0.800,-10.710,20.420
118,48536.705000,244.162,31.811,-57.613,410.763,248.683,-123.317,9.800,-8.710,16.420
119,48536.714000,246.135,29.791,-56.611,413.400,252.072,-126.177,8.800,-7.710,19.420
120,48536.749000,246.135,30.801,-56.611,413.405,254.704,-125.099,14.800,-8.710,19.420
121,48536.790000,246.135,30.801,-57.613,415.162,252.941,-126.143,20.800,4.290,21.420
122,48536.830000,243.175,29.791,-57.613,411.639,250.363,-125.245,26.800,9.290,26.420
123,48536.874000,245.148,30.801,-55.609,411.632,244.259,-126.436,4.800,14.290,33.420
124,48536.916000,244.162,29.791,-56.611,412.519,245.184,-124.418,-2.200,18.290,39.420
125,48536.950000,244.162,28.781,-56.611,412.514,245.128,-126.405,5.800,20.290,42.420
126,48536.970000,246.135,28.781,-55.609,408.991,242.549,-125.507,3.800,22.290,46.420
127,48537.10000,244.162,27.771,-54.607,413.400,244.317,-124.443,0.800,12.290,46.420
128,48537.47000,247.121,25.751,-55.609,418.691,248.689,-123.291,-0.200,9.290,44.420
129,48537.87000,244.162,25.751,-55.609,417.799,237.376,-124.654,6.800,10.290,42.420
130,48537.127000,247.121,26.761,-54.607,419.568,242.613,-123.485,20.800,14.290,42.420
131,48537.167000,245.148,25.751,-55.609,418.689,240.905,-122.551,17.800,14.290,43.420
132,48537.187000,246.135,23.732,-54.607,419.568,239.169,-122.604,11.800,12.290,47.420
133,48537.230000,247.121,23.732,-52.603,420.452,242.642,-122.489,21.800,9.290,47.420
134,48537.270000,247.121,24.742,-52.603,420.450,243.482,-123.454,19.800,3.290,46.420
135,48537.312000,248.108,22.722,-54.607,422.216,241.803,-121.517,32.800,1.290,41.420
136,48537.357000,249.094,24.742,-55.609,417.809,239.196,-121.616,30.800,8.290,41.420
137,48537.395000,245.148,20.702,-56.611,421.319,235.614,-125.693,65.800,28.290,25.420
138,48537.440000,240.216,19.692,-56.611,421.327,238.275,-123.621,-10.200,17.290,38.420
139,48537.449000,251.067,24.742,-54.607,420.444,236.538,-123.680,-13.200,29.290,47.420
140,48537.496000,241.202,20.702,-53.605,420.450,233.150,-120.811,44.800,39.290,49.420
141,48537.531000,244.162,16.663,-52.603,423.975,234.889,-120.743,-2.200,21.290,43.420
142,48537.604000,251.067,23.732,-52.603,424.860,235.786,-119.718,17.800,33.290,44.420
143,48537.631000,243.175,17.673,-52.603,424.842,230.437,-124.857,29.800,25.290,43.420
144,48537.657000,251.067,15.653,-48.595,423.089,227.944,-120.971,-3.200,-8.710,42.420
145,48537.692000,245.148,16.663,-52.603,423.965,227.889,-122.956,6.800,-14.710,39.420
146,48537.740000,246.135,17.673,-50.599,426.611,225.343,-121.044,31.800,-26.710,34.420
147,48537.757000,244.162,17.673,-53.605,427.492,233.099,-122.776,22.800,-32.710,37.420
148,48537.797000,244.162,15.653,-53.605,428.371,230.496,-122.857,2.800,-36.710,38.420
149,48537.830000,247.121,17.673,-54.607,424.841,228.701,-124.913,-3.200,-45.710,41.420
150,48537.870000,248.108,15.653,-52.603,429.251,228.760,-122.911,21.800,-47.710,35.420
151,48537.914000,252.054,19.692,-56.611,425.722,226.126,-124.001,-9.200,-20.710,45.420
152,48537.929000,245.148,13.633,-57.613,428.359,220.891,-125.155,13.800,-5.710,42.420
153,48537.976000,248.108,10.604,-55.609,430.122,219.185,-124.212,-9.200,-0.710,38.420
154,48538.14000,247.121,16.663,-54.607,428.364,224.392,-124.049,-2.200,-5.710,37.420
155,48538.49000,244.162,13.633,-52.603,428.356,225.175,-127.002,-1.200,-8.710,37.420
156,48538.89000,246.135,15.653,-51.601,431.005,225.233,-125.006,-16.200,-31.710,38.420
157,48538.135000,240.216,11.613,-54.607,429.221,222.431,-132.053,-5.200,-71.710,30.420
158,48538.149000,245.148,12.623,-52.603,427.468,219.938,-128.168,-0.200,-96.710,31.420
159,48538.195000,244.162,16.663,-52.603,429.212,214.591,-133.301,7.800,-118.710,29.420
160,48538.234000,243.175,11.613,-52.603,430.098,220.667,-133.101,-24.200,-143.710,30.420
161,48538.275000,254.027,6.564,-55.609,430.095,220.639,-134.095,-23.200,-182.710,22.420
162,48538.309000,253.040,4.544,-57.613,426.545,220.383,-143.051,2.800,-202.710,8.420
163,48538.350000,251.067,12.623,-61.620,426.532,213.355,-146.258,-22.200,-222.710,21.420
164,48538.389000,248.108,7.574,-64.626,422.998,219.287,-151.042,-55.200,-188.710,23.420
165,48538.409000,250.081,15.653,-58.614,423.880,212.400,-149.277,-41.200,-205.710,18.420
166,48538.455000,254.027,4.544,-56.611,422.983,220.854,-156.949,-71.200,-295.710,-5.580
167,48538.489000,251.067,5.554,-68.634,419.428,213.654,-166.131,89.800,-358.710,-37.580
168,48538.531000,244.162,33.830,-69.636,416.775,215.276,-170.059,-98.200,-377.710,-86.580
169,48538.571000,250.081,10.604,-50.599,414.129,222.133,-172.824,-266.200,-226.710,-5.580
170,48538.611000,240.216,9.594,-48.595,422.061,219.591,-170.895,-578.200,21.290,68.420
171,48538.651000,237.256,16.663,-54.607,422.990,230.402,-156.639,-484.200,321.290,138.420
172,48538.670000,240.216,27.771,-57.613,433.614,229.209,-137.777,-502.200,615.290,160.420
173,48538.712000,237.256,3.535,-66.630,436.285,221.737,-126.095,-337.200,778.290,175.420
174,48538.756000,253.040,-3.535,-37.573,445.154,218.023,-104.342,-213.200,990.290,165.420
175,48538.815000,258.960,33.830,-234.959,451.349,218.309,-94.382,586.800,153.290,-88.580
176,48538.830000,220.486,-8.584,-90.677,449.580,223.403,-98.195,195.800,202.290,21.420
177,48538.891000,222.459,12.623,-67.632,450.490,225.422,-88.197,-222.200,161.290,57.420
178,48538.912000,228.378,22.722,-68.634,447.871,223.069,-79.344,-39.200,366.290,32.420
179,48538.935000,230.351,4.544,-80.658,447.879,215.398,-74.628,-13.200,424.290,36.420
180,48538.975000,219.499,35.850,-132.759,451.426,219.070,-67.547,-106.200,312.290,47.420
181,48539.41000,242.189,13.633,-138.771,447.877,215.370,-75.622,317.800,-179.710,108.420
182,48539.57000,216.540,16.663,-182.857,447.855,223.768,-85.280,374.800,-601.710,-191.580
183,48539.100000,203.715,34.840,-183.859,435.425,220.226,-118.203,650.800,-1180.710,-262.580
184,48539.135000,226.405,39.890,-173.840,415.953,229.642,-152.715,184.800,-1769.710,-289.580
185,48539.160000,248.108,42.919,-143.781,385.002,227.596,-193.593,80.800,-2015.710,-364.580
186,48539.199000,232.324,25.751,-55.609,370.844,234.722,-217.239,53.800,-2001.710,-382.580
187,48539.232000,129.726,-105.531,-13.526,344.363,239.347,-237.033,-259.200,-1298.710,-252.580
188,48539.275000,210.620,29.791,30.560,334.654,240.879,-243.966,434.800,7.290,-111.580
189,48539.315000,441.464,139.866,27.554,346.182,239.912,-217.149,-429.200,1392.290,50.420
190,48539.355000,315.191,-107.550,-27.554,353.240,235.718,-212.298,1348.800,1001.290,-314.580
191,48539.376000,221.472,62.107,-132.759,351.424,230.870,-230.335,2588.800,145.290,-750.580
192,48539.410000,213.580,39.890,-252.994,333.719,214.501,-256.741,733.800,-1371.710,-339.580
193,48539.457000,234.297,-19.692,-159.812,312.530,232.122,-277.089,-859.200,-1630.710,-66.580
194,48539.492000,195.823,-12.623,-124.744,289.611,239.720,-283.867,-1506.200,-1549.710,275.420
195,48539.546000,265.865,-78.264,75.648,294.052,250.421,-273.576,-1429.200,-95.710,589.420
196,48539.581000,296.447,52.008,-64.626,296.755,270.837,-257.017,-1426.200,-131.710,209.420
197,48539.611000,240.216,65.136,-102.701,294.103,269.883,-260.035,188.800,-24.710,-119.580
198,48539.637000,223.445,3.535,-162.818,293.204,267.977,-266.058,315.800,-232.710,-83.580
199,48539.670000,200.755,29.791,-188.869,287.026,264.416,-269.172,13.800,-253.710,27.420
200,48539.710000,182.012,50.998,-158.810,290.545,265.230,-271.121,-179.200,-211.710,106.420
201,48539.750000,218.513,35.850,-121.738,286.128,260.803,-274.257,23.800,-276.710,18.420
202,48539.795000,241.202,21.712,-111.718,281.699,253.658,-281.454,115.800,-434.710,-65.580
203,48539.842000,246.135,54.028,-132.759,270.198,249.727,-297.507,223.800,-647.710,-192.580
204,48539.880000,239.229,59.077,-140.775,261.383,265.176,-302.992,188.800,-743.710,-308.580
205,48539.899000,210.620,47.968,-100.697,252.541,267.435,-314.862,-143.200,-587.710,-148.580
206,48539.932000,206.674,29.791,-81.659,251.682,273.680,-308.705,-491.200,50.290,-131.580
207,48539.974000,197.796,10.604,-89.675,267.565,273.945,-299.708,1.800,856.290,58.420
208,48540.11000,198.782,25.751,-99.695,279.032,270.650,-293.820,69.800,1406.290,262.420
209,48540.56000,215.553,24.742,-115.726,316.117,271.522,-263.884,-388.200,1915.290,452.420
210,48540.91000,231.337,26.761,-119.734,355.001,268.450,-220.167,-690.200,2416.290,684.420
211,48540.117000,257.973,45.949,-162.818,392.162,261.459,-161.688,-874.200,2449.290,808.420
212,48540.154000,219.499,94.422,-215.922,408.993,257.221,-128.010,-542.200,2049.290,678.420
213,48540.196000,191.877,91.393,-225.941,426.704,251.247,-94.386,162.800,1154.290,217.420
214,48540.236000,155.376,77.254,-264.016,426.713,259.955,-93.110,939.800,513.290,-477.580
215,48540.274000,197.796,-30.801,-132.759,417.858,267.254,-110.775,1492.800,32.290,-628.580
216,48540.321000,240.216,108.560,-144.783,416.088,263.724,-112.882,-58.200,-44.710,-187.580
217,48540.356000,248.108,79.274,-45.589,414.351,267.420,-104.823,-723.200,152.290,-113.580
218,48540.376000,259.946,27.771,-41.581,414.382,278.062,-96.534,-311.200,155.290,-139.580
219,48540.416000,248.108,16.663,-50.599,412.664,283.663,-82.456,-691.200,164.290,-205.580
220,48540.451000,273.757,26.761,-44.587,410.917,288.982,-78.317,-89.200,85.290,-188.580
221,48540.494000,225.418,71.195,-45.589,408.274,292.424,-79.207,-266.200,64.290,-35.580
222,48540.534000,251.067,35.850,-43.585,407.408,289.988,-73.331,-133.200,65.290,-75.580
223,48540.574000,237.256,50.998,-30.560,406.530,290.016,-72.339,-196.200,32.290,-119.580
224,48540.596000,241.202,71.195,-46.591,406.541,297.884,-70.098,-157.200,-55.710,-59.580
225,48540.631000,232.324,21.712,-59.616,405.656,299.563,-72.032,52.800,-2.710,-43.580
226,48540.671000,251.067,64.126,-64.626,405.672,302.308,-66.978,-172.200,88.290,-22.580
227,48540.711000,244.162,74.225,-54.607,406.559,298.921,-64.106,-126.200,229.290,4.420
228,48540.751000,242.189,40.899,-37.573,403.055,294.804,-56.307,-126.200,313.290,8.420
229,48540.792000,249.094,68.166,0.501,405.722,301.079,-49.144,-196.200,252.290,-25.580
230,48540.832000,235.283,53.018,-17.534,406.612,297.720,-45.278,-108.200,80.290,-10.580
231,48540.852000,242.189,56.047,-9.519,405.734,297.748,-44.287,-105.200,-26.710,-27.580
232,48540.892000,241.202,41.909,-20.540,403.975,297.775,-43.299,-138.200,-90.710,-6.580
233,48540.936000,246.135,72.205,-21.542,404.859,302.984,-43.127,-125.200,-140.710,-41.580
234,48540.976000,247.121,64.126,-36.571,404.841,297.635,-48.266,8.800,-128.710,-2.580
235,48541.16000,239.229,59.077,-31.562,403.955,298.446,-50.228,-4.200,-138.710,16.420
236,48541.51000,239.229,58.067,-29.558,403.954,304.465,-52.019,-49.200,-169.710,4.420
237,48541.71000,246.135,72.205,-33.566,404.828,302.674,-54.060,-142.200,-211.710,61.420
238,48541.111000,229.364,2.525,-68.634,404.815,299.957,-58.121,-98.200,-168.710,14.420
239,48541.156000,250.081,91.393,-52.603,405.703,301.750,-56.073,-213.200,-69.710,-54.580
240,48541.192000,246.135,54.028,-53.605,403.070,303.569,-53.044,-74.200,63.290,13.420
241,48541.232000,242.189,54.028,-59.616,404.849,303.739,-47.075,-399.200,204.290,9.420
242,48541.272000,256.987,70.185,-47.593,405.745,302.173,-41.165,-37.200,313.290,-33.580
243,48541.316000,236.270,49.988,-11.523,404.886,304.105,-34.154,-48.200,341.290,-7.580
244,48541.332000,230.351,62.107,8.517,401.371,301.611,-30.274,116.800,160.290,-35.580
245,48541.375000,238.243,72.205,-12.524,401.375,302.507,-29.252,131.800,31.290,-69.580
246,48541.415000,254.027,45.949,-29.558,401.364,311.018,-34.934,102.800,0.290,-44.580
247,48541.456000,250.081,78.264,-35.569,401.365,308.442,-34.024,275.800,38.290,-23.580
248,48541.492000,252.054,59.077,-41.581,403.128,309.312,-33.991,30.800,120.290,23.420
249,48541.537000,244.162,76.245,-27.554,404.012,305.897,-32.113,-16.200,189.290,58.420
250,48541.563000,243.175,53.018,-20.540,404.029,306.066,-26.149,83.800,177.290,70.420
251,48541.599000,237.256,57.057,-4.509,405.780,299.935,-28.328,49.800,120.290,52.420
252,48541.634000,239.229,47.968,3.507,403.139,298.225,-27.399,131.800,21.290,47.420
253,48541.675000,246.135,58.067,-21.542,404.881,298.029,-34.351,282.800,-61.710,50.420
254,48541.715000,242.189,58.067,-11.523,405.754,298.813,-37.302,175.800,-96.710,71.420
255,48541.755000,240.216,61.097,-10.521,407.502,295.230,-41.384,298.800,-157.710,68.420
256,48541.795000,239.229,65.136,-26.552,404.847,293.379,-45.425,134.800,-273.710,80.420
257,48541.815000,244.162,53.018,-34.568,407.460,295.675,-56.265,200.800,-321.710,112.420
258,48541.855000,241.202,69.176,-12.524,411.819,287.472,-70.419,181.800,-403.710,116.420
259,48541.895000,247.121,69.176,-15.530,410.908,281.142,-79.564,225.800,-596.710,208.420
260,48541.935000,267.838,33.830,-31.562,415.274,281.619,-93.437,196.800,-721.710,229.420
261,48541.975000,330.975,-4.544,-46.591,414.348,277.724,-108.461,219.800,-715.710,165.420
262,48542.15000,317.164,21.712,-43.585,409.889,272.873,-126.506,190.800,-670.710,121.420
263,48542.34000,324.069,30.801,-59.616,414.253,268.170,-139.554,162.800,-553.710,128.420
264,48542.75000,174.119,105.531,-114.724,411.591,257.640,-143.876,-240.200,-607.710,-96.580
265,48542.115000,140.578,3.535,-63.624,409.840,261.195,-140.787,-64.200,211.290,-65.580
266,48542.157000,174.119,15.653,-58.614,414.286,266.772,-127.683,889.800,1067.290,131.420
267,48542.197000,192.863,37.870,-118.732,431.086,258.781,-104.057,567.800,1448.290,218.420
268,48542.237000,190.890,33.830,-127.750,439.075,256.802,-82.250,-15.200,1338.290,419.420
269,48542.278000,219.499,214.596,-260.008,446.173,256.446,-64.365,-767.200,333.290,-197.580
270,48542.296000,272.771,45.949,-41.581,448.807,247.740,-65.632,-175.200,119.290,352.420
271,48542.339000,252.054,4.544,-111.718,450.575,244.354,-62.757,-512.200,-120.710,201.420
272,48542.374000,229.364,39.890,-150.795,450.548,238.921,-70.877,270.800,-392.710,-24.580
273,48542.412000,259.946,28.781,-140.775,439.916,236.585,-91.840,372.800,-867.710,-150.580
274,48542.454000,224.432,-1.515,-164.822,430.136,241.725,-124.473,781.800,-1162.710,-236.580
275,48542.494000,248.108,25.751,-184.861,407.970,243.744,-175.121,961.800,-1587.710,-365.580
276,48542.514000,232.324,27.771,-149.793,383.167,238.930,-222.028,1287.800,-1858.710,-382.580
277,48542.554000,235.283,43.929,-133.761,357.539,233.811,-249.087,968.800,-1908.710,-362.580
278,48542.594000,231.337,46.959,-109.714,323.954,227.536,-286.139,551.800,-1833.710,-298.580
279,48542.635000,215.553,27.771,-49.597,300.982,220.824,-308.276,10.800,-1333.710,9.420
280,48542.676000,178.066,25.751,-60.618,292.156,221.517,-314.240,-215.200,-605.710,320.420
281,48542.717000,192.863,93.412,42.583,294.823,231.236,-307.958,-532.200,267.290,359.420
282,48542.759000,362.543,192.379,-92.681,311.628,234.500,-284.959,-1250.200,359.290,421.420
283,48542.779000,292.501,3.535,-62.622,316.105,248.143,-262.656,-152.200,891.290,14.420
284,48542.819000,295.461,-15.653,-84.665,326.674,240.366,-261.882,974.800,808.290,-154.580
285,48542.857000,277.703,-76.245,-89.675,327.551,231.715,-261.167,616.800,419.290,-121.580
286,48542.895000,260.933,7.574,-64.626,328.420,226.423,-264.315,640.800,22.290,-31.580
287,48542.936000,253.040,35.850,-54.607,325.744,224.376,-275.312,-274.200,-473.710,109.420
288,48542.976000,280.663,42.919,-66.630,316.905,222.352,-285.336,-125.200,-942.710,-13.580
289,48543.20000,290.528,48.978,-78.654,300.997,229.589,-305.012,64.800,-1195.710,-371.580
290,48543.34000,264.879,35.850,-134.763,280.700,235.255,-318.795,79.800,-1199.710,-432.580
291,48543.75000,233.310,45.949,-93.683,266.554,232.162,-335.822,-34.200,-867.710,-195.580
292,48543.115000,212.593,20.702,-81.659,265.701,250.531,-330.264,-790.200,-127.710,-34.580
293,48543.155000,189.904,15.653,-99.695,282.498,258.022,-311.100,-937.200,770.290,299.420
294,48543.194000,192.863,18.682,-115.726,304.570,261.961,-295.014,-1062.200,1440.290,481.420
295,48543.234000,195.823,31.811,-128.751,344.353,275.437,-248.771,-1214.200,1940.290,687.420
296,48543.259000,211.607,42.919,-166.826,385.035,272.732,-192.128,-1114.200,2365.290,901.420
297,48543.299000,213.580,59.077,-241.973,421.321,264.929,-131.693,-977.200,2220.290,923.420
298,48543.339000,187.931,75.235,-241.973,433.735,256.263,-101.151,-283.200,1660.290,580.420
299,48543.376000,165.241,64.126,-210.912,442.612,250.898,-76.472,441.800,1013.290,-94.580
300,48543.416000,168.200,43.929,-190.873,439.104,257.084,-72.311,1132.800,678.290,-402.580
301,48543.456000,199.769,1.515,-110.716,432.058,270.882,-74.865,428.800,-4.710,-668.580
302,48543.496000,214.566,100.481,-77.652,428.490,273.033,-90.694,953.800,370.290,-441.580
303,48543.516000,315.191,66.146,-13.526,430.278,277.600,-82.596,-80.200,354.290,24.420
304,48543.556000,275.730,-40.899,-43.585,430.322,279.758,-67.631,-888.200,357.290,141.420
305,48543.596000,233.310,-9.594,-29.558,431.238,281.833,-55.645,-196.200,262.290,-158.580
306,48543.639000,243.175,102.501,2.505,430.391,284.746,-44.630,-413.200,218.290,-187.580
307,48543.679000,254.027,60.087,-17.534,425.995,284.827,-41.663,-224.200,204.290,-136.580
308,48543.719000,254.027,52.008,-12.524,432.185,285.925,-33.663,-465.200,52.290,-87.580
309,48543.739000,246.135,49.988,-29.558,425.153,285.221,-27.751,-389.200,-47.710,-14.580
310,48543.780000,251.067,40.899,-43.585,422.529,291.436,-22.593,-309.200,-39.710,-22.580
311,48543.815000,248.108,30.801,-45.589,426.932,292.279,-23.544,-51.200,14.290,-32.580
312,48543.855000,247.121,45.949,10.521,421.637,291.323,-26.571,115.800,-55.710,-95.580
313,48543.900000,234.297,53.018,-25.550,420.753,295.606,-28.421,-149.200,-136.710,-22.580
314,48543.940000,248.108,80.284,-38.575,420.750,290.398,-28.590,-10.200,-118.710,-17.580
315,48543.980000,242.189,68.166,-42.583,426.927,289.647,-24.623,-331.200,-42.710,13.420
316,48543.997000,253.040,28.781,-30.560,426.055,298.354,-23.350,18.800,63.290,-59.580
317,48544.40000,246.135,62.107,-21.542,420.768,295.746,-23.451,-44.200,31.290,-27.580
318,48544.80000,235.283,50.998,-1.503,421.651,298.351,-23.364,-49.200,-49.710,-9.580
319,48544.139000,249.094,41.909,-42.583,422.531,300.928,-24.271,-29.200,-93.710,-15.580
320,48544.157000,241.202,62.107,-28.556,424.286,295.693,-25.428,-18.200,-73.710,-9.580
321,48544.197000,245.148,35.850,-37.573,419.879,293.085,-25.527,-44.200,-62.710,-20.580
322,48544.224000,243.175,76.245,-23.546,421.639,297.370,-27.368,-87.200,-114.710,-62.580
323,48544.256000,243.175,57.057,-36.571,421.634,294.738,-28.446,-13.200,-105.710,-1.580
324,48544.297000,246.135,40.899,-40.579,419.864,298.964,-32.287,-52.200,-76.710,34.420
325,48544.337000,244.162,69.176,-31.562,422.514,301.627,-30.206,2.800,-53.710,27.420
326,48544.380000,237.256,52.008,-36.571,420.749,297.285,-30.352,-191.200,-32.710,24.420
327,48544.421000,247.121,68.166,-43.585,418.116,299.104,-27.323,-299.200,34.290,-13.580
328,48544.456000,251.067,71.195,-32.564,421.653,297.511,-22.398,-74.200,120.290,-30.580
329,48544.477000,245.148,50.998,-22.544,422.561,300.369,-13.366,-428.200,125.290,51.420
330,48544.517000,241.202,56.047,-20.540,422.563,298.662,-12.428,-0.200,136.290,107.420
331,48544.557000,246.135,66.146,-9.519,426.967,297.797,-12.442,-24.200,52.290,107.420
332,48544.597000,242.189,45.949,-23.546,425.207,296.088,-11.510,-7.200,52.290,94.420
333,48544.637000,249.094,56.047,-26.552,426.101,295.361,-6.566,-17.200,74.290,72.420
334,48544.676000,250.081,56.047,-23.546,426.978,293.598,-7.613,-42.200,86.290,91.420
335,48544.716000,251.067,48.978,-24.548,426.977,284.106,-5.935,20.800,97.290,128.420
336,48544.736000,248.108,52.008,-24.548,431.388,281.590,-3.024,65.800,144.290,154.420
337,48544.776000,247.121,52.008,-16.532,430.508,282.457,-2.999,186.800,155.290,171.420
338,48544.816000,244.162,50.998,2.505,433.155,276.467,-0.205,84.800,88.290,191.420
339,48544.857000,243.175,40.899,0.501,437.549,277.226,-4.139,252.800,-32.710,188.420
340,48544.897000,247.121,48.978,-1.503,441.050,273.559,-11.197,361.800,-156.710,159.420
341,48544.936000,251.067,21.712,-38.575,442.790,266.448,-17.381,271.800,-172.710,159.420
342,48544.957000,258.960,23.732,-31.562,441.883,262.750,-25.447,350.800,-183.710,123.420
343,48544.997000,260.933,53.018,31.562,446.258,260.735,-35.429,268.800,-467.710,142.420
344,48545.37000,271.784,29.791,71.640,448.814,252.976,-64.469,586.800,-1087.710,274.420
345,48545.77000,347.746,73.215,-20.540,446.958,244.290,-95.539,387.800,-1165.710,-87.580
346,48545.117000,290.528,57.057,-81.659,444.288,257.810,-108.018,74.800,-944.710,-256.580
347,48545.157000,256.987,-10.604,-68.634,441.623,258.450,-115.950,-134.200,-596.710,7.420
348,48545.197000,158.335,-29.791,-48.595,442.539,255.345,-103.139,-142.200,512.290,232.420
349,48545.217000,175.106,3.535,-121.738,453.180,247.434,-76.551,34.800,1062.290,424.420
350,48545.257000,159.322,36.860,-157.808,462.032,235.795,-59.026,-86.200,1111.290,480.420
351,48545.297000,271.784,104.521,-189.871,465.586,227.484,-46.376,228.800,-11.710,195.420
352,48545.337000,257.973,32.821,-21.542,468.227,228.326,-47.333,-14.200,47.290,181.420
353,48545.377000,268.825,41.909,-71.640,467.352,228.381,-45.348,82.800,195.290,10.420
354,48545.424000,252.054,9.594,-144.783,464.677,230.645,-57.199,741.800,-553.710,-154.580
355,48545.445000,226.405,16.663,-165.824,460.192,233.297,-85.924,718.800,-875.710,-118.580
356,48545.477000,237.256,12.623,-193.879,446.856,232.076,-128.705,904.800,-1583.710,-392.580
357,48545.517000,217.526,52.008,-188.869,422.901,229.529,-187.451,1167.800,-1987.710,-422.580
358,48545.557000,205.688,60.087,-181.855,389.269,228.823,-242.196,650.800,-2249.710,-392.580
359,48545.599000,182.012,28.781,-152.798,362.763,230.619,-270.026,171.800,-2109.710,-326.580
360,48545.641000,154.389,39.890,-122.740,333.593,231.348,-304.851,338.800,-1722.710,-156.580
361,48545.679000,149.457,59.077,-108.712,305.352,234.265,-323.713,-50.200,-1182.710,-110.580
362,48545.701000,199.769,25.751,-36.571,290.353,234.028,-331.713,-66.200,-730.710,79.420
363,48545.741000,209.634,77.254,-56.611,285.969,231.646,-323.861,-679.200,292.290,232.420
364,48545.794000,372.408,7.574,-48.595,301.892,236.618,-301.802,-431.200,1350.290,501.420
365,48545.829000,405.950,17.673,-37.573,316.916,233.664,-283.976,-304.200,1060.290,58.420
366,48545.857000,324.069,-64.126,-13.526,327.489,227.652,-282.151,675.800,572.290,-161.580
367,48545.897000,288.555,26.761,-30.560,329.245,231.041,-285.015,730.800,-39.710,-260.580
368,48545.917000,309.272,52.008,-89.675,314.224,224.559,-299.175,233.800,-819.710,-387.580
369,48545.957000,309.272,26.761,-119.734,299.212,236.250,-314.732,219.800,-945.710,-612.580
370,48545.997000,245.148,41.909,-83.663,285.057,236.516,-335.621,406.800,-899.710,-439.580
371,48546.39000,203.715,12.623,-71.640,282.448,250.627,-327.228,-771.200,-56.710,-264.580
372,48546.82000,161.295,12.623,-77.652,294.799,249.097,-320.287,-336.200,751.290,67.420
373,48546.122000,157.349,20.702,-113.722,323.075,256.851,-292.141,-667.200,1505.290,400.420
374,48546.161000,181.025,20.702,-135.765,367.283,267.952,-238.018,-1588.200,2303.290,780.420
375,48546.181000,208.647,27.771,-183.859,409.748,265.445,-174.412,-1345.200,2431.290,1022.420
376,48546.226000,247.121,101.491,-228.947,425.701,250.903,-137.099,-730.200,2021.290,828.420
377,48546.267000,187.931,163.093,-263.014,445.197,252.912,-97.251,-344.200,1107.290,254.420
378,48546.307000,198.782,-20.702,-153.800,440.798,257.277,-96.131,243.800,-164.710,-598.580
379,48546.360000,184.971,21.712,-55.609,433.703,258.529,-112.994,1292.800,194.290,-547.580
380,48546.376000,198.782,68.166,-143.781,434.593,270.682,-112.597,41.800,228.290,-332.580
381,48546.422000,190.890,23.732,-125.746,432.842,274.237,-109.508,26.800,309.290,-82.580
382,48546.442000,420.748,6.564,2.505,432.866,267.575,-99.794,29.800,446.290,-10.580
383,48546.480000,184.971,49.988,-18.536,429.393,282.722,-85.412,-623.200,343.290,-344.580
384,48546.522000,242.189,69.176,-22.544,427.674,291.767,-72.215,-151.200,270.290,-290.580
385,48546.562000,262.906,44.939,-26.552,425.911,286.586,-71.396,-235.200,197.290,-219.580
386,48546.597000,253.040,76.245,-34.568,420.649,291.988,-64.286,-302.200,81.290,-187.580
387,48546.644000,240.216,52.008,-31.562,423.302,294.678,-61.212,-136.200,30.290,-62.580
388,48546.665000,239.229,74.225,-50.599,422.419,294.649,-62.208,-231.200,-64.710,-14.580
389,48546.702000,245.148,48.978,-37.573,425.953,300.784,-60.012,-168.200,-8.710,-13.580
390,48546.740000,250.081,63.116,-34.568,419.795,298.288,-56.141,-222.200,-26.710,-38.580
391,48546.780000,238.243,66.146,-15.530,421.564,303.526,-54.972,-270.200,-99.710,-56.580
392,48546.820000,244.162,66.146,-40.579,418.916,304.335,-56.940,-130.200,-131.710,-18.580
393,48546.862000,244.162,50.998,-75.648,423.319,298.291,-56.129,-185.200,-55.710,19.420
394,48546.902000,244.162,61.097,-54.607,421.576,300.195,-50.115,-119.200,89.290,-13.580
395,48546.922000,242.189,63.116,-52.603,419.825,307.194,-47.908,-85.200,154.290,-6.580
396,48546.962000,240.216,72.205,-28.556,418.958,307.334,-42.941,-113.200,143.290,-4.580
397,48547.2000,238.243,50.998,-19.538,420.725,306.523,-40.976,-27.200,96.290,-2.580
398,48547.37000,234.297,57.057,-20.540,416.332,307.501,-36.986,-181.200,-27.710,-4.580
399,48547.77000,242.189,54.028,-29.558,420.719,303.023,-42.082,88.800,-109.710,3.420
400,48547.119000,240.216,54.028,-47.593,419.839,299.579,-41.204,-64.200,-119.710,-6.580
401,48547.139000,249.094,44.939,-52.603,416.310,303.832,-44.056,8.800,-85.710,-12.580
402,48547.179000,240.216,59.077,-61.620,415.434,307.331,-42.952,-104.200,17.290,-47.580
403,48547.225000,245.148,73.215,-27.554,416.314,302.152,-42.125,-94.200,35.290,-46.580
404,48547.257000,249.094,66.146,-33.566,415.442,303.104,-39.118,-111.200,58.290,-27.580
405,48547.300000,241.202,57.057,-35.569,416.329,306.605,-38.008,-147.200,53.290,-64.580
406,48547.340000,247.121,77.254,-28.556,414.583,309.348,-32.960,14.800,63.290,-28.580
407,48547.381000,240.216,90.383,-18.536,414.581,306.744,-33.044,-95.200,26.290,46.420
408,48547.402000,246.135,58.067,-26.552,419.885,308.653,-27.007,15.800,13.290,144.420
409,48547.442000,234.297,68.166,-26.552,418.982,302.408,-33.171,45.800,-20.710,120.420
410,48547.481000,240.216,65.136,-21.542,422.499,300.618,-35.204,38.800,-21.710,86.420
411,48547.522000,244.162,70.185,-33.566,422.497,304.901,-37.051,-18.200,-31.710,60.420
412,48547.562000,254.027,63.116,-41.581,419.857,304.928,-36.065,196.800,-14.710,35.420
413,48547.597000,246.135,53.018,-33.566,424.254,302.271,-38.123,96.800,14.290,68.420
414,48547.617000,244.162,62.107,-47.593,424.248,294.458,-38.377,108.800,79.290,128.420
415,48547.657000,254.027,53.018,-46.591,427.772,290.149,-37.512,154.800,165.290,100.420
416,48547.704000,241.202,60.087,-32.564,427.779,296.253,-36.321,134.800,168.290,83.420
417,48547.744000,241.202,56.047,-5.511,429.543,291.971,-34.469,140.800,67.290,105.420
418,48547.789000,238.243,52.008,-4.509,434.814,290.966,-39.449,121.800,-90.710,120.420
419,48547.824000,236.270,41.909,-23.546,432.159,289.983,-43.462,183.800,-224.710,93.420
420,48547.882000,247.121,70.185,-24.548,436.526,284.441,-55.543,218.800,-405.710,104.420
421,48547.890000,247.121,48.978,-14.528,434.722,273.685,-67.814,333.800,-505.710,152.420
422,48547.919000,251.067,49.988,-6.513,436.422,269.623,-88.793,459.800,-695.710,144.420
423,48547.960000,270.798,35.850,8.517,434.598,273.314,-111.518,299.800,-1061.710,33.420
424,48548.1000,362.543,5.554,-46.591,429.257,264.151,-128.713,178.800,-1103.710,28.420
425,48548.41000,325.056,7.574,-91.679,427.442,267.927,-148.457,298.800,-753.710,-142.580
426,48548.81000,183.985,55.037,-148.791,421.235,270.972,-163.272,647.800,-542.710,-280.580
427,48548.119000,146.497,72.205,-113.722,411.520,268.135,-171.340,408.800,-266.710,-185.580
428,48548.139000,150.443,24.742,-90.677,417.701,271.724,-167.231,73.800,295.290,121.420
429,48548.180000,132.686,-4.544,-108.712,423.015,265.122,-155.513,-10.200,673.290,351.420
430,48548.220000,131.699,83.314,-128.751,438.039,253.544,-135.980,-285.200,898.290,527.420
431,48548.260000,115.915,160.063,-289.065,452.231,250.201,-101.289,-788.200,1140.290,512.420
432,48548.300000,286.582,88.363,-236.963,454.882,250.287,-98.298,-292.200,19.290,149.420
433,48548.340000,305.326,12.623,-14.528,459.309,245.336,-89.508,313.800,540.290,151.420
434,48548.361000,330.975,-55.037,-23.546,462.851,243.800,-82.596,26.800,250.290,156.420
435,48548.399000,280.663,-8.584,-72.642,460.209,241.222,-81.695,110.800,165.290,40.420
436,48548.439000,182.998,54.028,-230.951,459.323,241.165,-83.685,282.800,-199.710,32.420
437,48548.479000,196.809,12.623,-256.000,450.431,241.210,-112.509,672.800,-1200.710,-269.580
438,48548.520000,185.958,62.107,-264.016,430.012,238.778,-167.268,1412.800,-1886.710,-364.580
439,48548.560000,155.376,63.116,-231.953,400.769,239.642,-227.906,741.800,-2307.710,-322.580
440,48548.600000,129.726,53.018,-187.867,360.986,236.497,-276.792,294.800,-2411.710,-161.580
441,48548.620000,108.023,60.087,-150.795,335.352,230.453,-305.867,136.800,-2109.710,-88.580
442,48548.666000,130.713,58.067,-117.730,303.573,231.518,-328.773,-168.200,-1619.710,-5.580
443,48548.701000,153.403,47.968,-99.695,281.534,233.069,-334.751,-644.200,-694.710,99.420
444,48548.744000,117.888,31.811,-121.738,275.393,244.518,-328.442,-726.200,-182.710,137.420
445,48548.784000,373.395,15.653,-84.665,290.430,258.924,-310.052,-826.200,1419.290,2.420
446,48548.824000,442.451,-5.554,-56.611,308.126,263.141,-284.041,-152.200,1506.290,7.420
447,48548.844000,328.015,-42.919,-61.620,323.142,255.791,-268.343,383.800,1136.290,52.420
448,48548.884000,311.245,-27.771,-48.595,329.300,240.199,-267.837,500.800,371.290,35.420
449,48548.924000,267.838,1.515,-31.562,324.893,241.036,-268.817,14.800,-346.710,61.420
450,48548.964000,296.447,36.860,-37.573,319.568,242.374,-282.692,-96.200,-880.710,-7.580
451,48549.2000,318.150,48.978,-101.699,301.906,245.382,-298.539,186.800,-1273.710,-351.580
452,48549.42000,230.351,61.097,-152.798,283.331,246.344,-325.378,617.800,-1241.710,-531.580
453,48549.85000,181.025,33.830,-85.667,268.313,243.335,-339.426,376.800,-793.710,-388.580
454,48549.105000,159.322,59.077,-74.646,272.727,247.734,-337.283,-676.200,449.290,-119.580
455,48549.161000,131.699,11.613,-87.671,295.704,262.259,-314.892,-683.200,1336.290,96.420
456,48549.182000,152.416,11.613,-129.753,335.472,270.415,-272.794,-783.200,2119.290,354.420
457,48549.222000,205.688,23.732,-181.855,377.033,267.682,-217.142,-663.200,2631.290,505.420
458,48549.326000,241.202,66.146,-217.926,404.446,271.320,-181.189,-194.200,2475.290,493.420
459,48549.341000,241.202,81.294,-227.945,428.352,265.633,-137.605,-75.200,1849.290,385.420
460,48549.349000,221.472,53.018,-196.885,439.883,257.807,-108.032,34.800,955.290,149.420
461,48549.362000,187.931,156.024,-226.943,439.912,269.288,-100.709,328.800,463.290,-359.580
462,48549.404000,205.688,-17.673,-53.605,433.724,263.906,-106.861,454.800,-140.710,-307.580
463,48549.445000,218.513,98.462,-120.736,433.721,259.566,-107.002,6.800,173.290,-226.580
464,48549.486000,216.540,49.988,-81.659,429.353,274.572,-97.592,-273.200,430.290,-40.580
465,48549.520000,358.597,8.584,-24.548,438.191,267.105,-85.890,-110.200,593.290,130.420
466,48549.574000,222.459,26.761,-48.595,434.716,272.761,-69.830,-368.200,477.290,-110.580
467,48549.582000,226.405,80.284,-24.548,438.290,282.734,-54.600,-352.200,662.290,-32.580
468,48549.626000,258.960,39.890,-28.556,439.209,281.393,-40.739,-365.200,620.290,-35.580
469,48549.660000,257.973,6.564,-19.538,436.627,287.163,-20.700,-506.200,449.290,-115.580
470,48549.700000,248.108,40.899,-7.515,433.121,291.641,-15.601,-54.200,268.290,-125.580
471,48549.740000,240.216,52.008,6.513,434.883,284.754,-13.833,286.800,140.290,-101.580
472,48549.780000,245.148,63.116,2.505,431.345,284.611,-18.814,254.800,9.290,-95.580
473,48549.800000,244.162,72.205,0.501,432.229,293.263,-19.523,77.800,-28.710,-71.580
474,48549.846000,241.202,42.919,-11.523,429.581,296.649,-22.401,6.800,-49.710,-28.580
475,48549.881000,248.108,39.890,-22.544,426.056,294.910,-22.469,-10.200,-86.710,-61.580
476,48549.921000,252.054,56.047,-15.530,426.929,295.695,-25.419,-57.200,-119.710,-66.580
477,48549.961000,251.067,69.176,-12.524,424.279,290.457,-26.591,39.800,-73.710,-43.580
478,48550.5000,242.189,101.491,24.548,423.398,289.588,-26.622,-172.200,-62.710,-19.580
479,48550.45000,240.216,57.057,4.509,427.816,300.063,-24.282,-377.200,-60.710,64.420
480,48550.60000,240.216,55.037,-25.550,428.715,298.525,-17.378,-287.200,-47.710,52.420
481,48550.107000,252.054,29.791,-25.550,431.367,299.480,-14.359,-150.200,-60.710,23.420
482,48550.141000,246.135,44.939,-23.546,427.828,294.156,-18.515,-116.200,-62.710,16.420
483,48550.185000,243.175,52.008,-9.519,427.831,297.628,-18.403,50.800,-46.710,-29.580
484,48550.221000,247.121,58.067,-21.542,424.310,294.210,-16.539,-39.200,-39.710,-73.580
485,48550.265000,244.162,39.890,-24.548,426.063,294.127,-19.515,-62.200,-53.710,-96.580
486,48550.304000,233.310,87.353,-19.538,426.066,297.599,-19.402,-200.200,-60.710,-114.580
487,48550.326000,246.135,64.126,-9.519,421.671,303.728,-17.231,-98.200,-82.710,-66.580
488,48550.364000,248.108,64.126,-21.542,423.428,303.673,-19.214,-112.200,-122.710,-42.580
489,48550.410000,247.121,46.959,-26.552,420.776,303.587,-22.204,-62.200,-105.710,4.420
490,48550.442000,247.121,61.097,-19.538,421.662,302.776,-20.241,-52.200,-65.710,-7.580
491,48550.484000,246.135,60.087,-19.538,420.774,300.115,-22.317,-42.200,-77.710,12.420
492,48550.526000,243.175,61.097,-18.536,424.291,302.637,-25.202,-18.200,-111.710,-3.580
493,48550.546000,241.202,54.028,-23.546,426.931,306.054,-27.069,143.800,-128.710,-15.580
494,48550.581000,250.081,60.087,-36.571,423.390,305.883,-33.044,129.800,-124.710,-28.580
495,48550.624000,243.175,64.126,-15.530,424.259,305.771,-37.017,-10.200,-86.710,-28.580
496,48550.664000,241.202,56.047,-16.532,422.500,301.486,-35.175,-22.200,-95.710,-33.580
497,48550.704000,250.081,43.929,-30.560,420.731,299.692,-37.225,190.800,-96.710,-66.580
498,48550.744000,248.108,73.215,-49.597,418.959,301.314,-41.150,55.800,-34.710,-23.580
499,48550.782000,245.148,63.116,-54.607,420.718,304.731,-43.020,239.800,88.290,25.420
500,48550.802000,249.094,70.185,-15.530,421.609,299.665,-38.216,147.800,142.290,50.420
501,48550.849000,236.270,84.323,-23.546,422.484,302.185,-41.111,34.800,109.290,112.420
502,48550.882000,237.256,73.215,-7.515,426.891,301.348,-40.131,132.800,36.290,147.420
503,48550.922000,247.121,54.028,-24.548,426.889,295.300,-39.334,91.800,-42.710,176.420
504,48550.964000,239.229,54.028,-5.511,429.520,294.322,-43.329,248.800,-102.710,167.420
505,48551.6000,248.108,58.067,0.501,431.263,288.106,-48.490,245.800,-280.710,148.420
506,48551.26000,257.973,52.008,14.528,433.857,279.873,-63.644,210.800,-609.710,177.420
507,48551.66000,286.582,14.643,26.552,433.799,281.018,-84.460,15.800,-1115.710,225.420
508,48551.107000,357.611,5.554,-15.530,434.607,274.266,-108.508,-126.200,-1334.710,191.420
509,48551.144000,264.879,28.781,-112.720,436.348,275.778,-116.398,-878.200,-935.710,405.420
510,48551.186000,127.753,74.225,-109.714,431.064,270.623,-114.596,-780.200,-546.710,465.420
511,48551.222000,171.160,35.850,-65.628,441.681,259.882,-96.043,-953.200,145.290,547.420
512,48551.262000,174.119,14.643,-68.634,454.053,243.906,-78.648,366.800,1015.290,644.420
513,48551.282000,184.971,38.880,-125.746,465.553,228.014,-58.274,556.800,1203.290,559.420
514,48551.324000,297.434,114.619,-193.879,468.227,231.769,-48.214,210.800,337.290,95.420
515,48551.366000,256.987,-7.574,-21.542,469.119,231.883,-44.236,193.800,432.290,188.420
516,48551.406000,226.405,17.673,-145.785,469.126,222.475,-39.576,96.800,161.290,172.420
517,48551.446000,185.958,91.393,-198.888,469.092,229.025,-53.265,22.800,-605.710,-85.580
518,48551.495000,216.540,-4.544,-147.789,463.746,224.118,-73.301,301.800,-1152.710,-91.580
519,48551.504000,214.566,45.949,-196.885,449.521,228.860,-119.864,827.800,-1576.710,-379.580
520,48551.542000,205.688,78.264,-189.871,427.341,230.738,-175.481,686.800,-2051.710,-535.580
521,48551.586000,189.904,75.235,-178.849,393.733,239.750,-223.953,117.800,-2179.710,-559.580
522,48551.625000,165.241,81.294,-164.822,357.505,248.984,-264.482,99.800,-2050.710,-553.580
523,48551.665000,172.146,59.077,-149.793,330.150,252.826,-281.326,199.800,-1673.710,-523.580
524,48551.704000,163.268,28.781,-92.681,298.367,258.146,-307.073,194.800,-1181.710,-457.580
525,48551.747000,167.214,16.663,-36.571,286.920,261.638,-306.003,-171.200,-291.710,-70.580
526,48551.767000,409.896,37.870,43.585,294.908,266.547,-285.959,-851.200,1099.290,258.420
527,48551.817000,486.844,58.067,-40.579,309.927,266.980,-271.002,117.800,1272.290,219.420
528,48551.850000,332.948,-30.801,-23.546,322.316,264.949,-251.168,80.800,1021.290,203.420
529,48551.884000,273.757,4.544,7.515,327.583,259.604,-256.290,737.800,146.290,-233.580
530,48551.924000,289.541,15.653,-53.605,317.849,258.306,-271.258,660.800,-593.710,-451.580
531,48551.965000,298.420,49.988,-103.703,308.106,255.188,-289.264,645.800,-1006.710,-535.580
532,48552.5000,275.730,9.594,-61.620,289.546,254.583,-310.196,135.800,-881.710,-279.580
533,48552.25000,243.175,25.751,-58.614,287.783,260.602,-311.992,-305.200,-149.710,-195.580
534,48552.65000,188.917,2.525,-79.656,302.799,265.319,-298.882,-364.200,623.290,113.420
535,48552.105000,165.241,43.929,-107.710,335.495,271.508,-264.815,-820.200,1641.290,515.420
536,48552.154000,167.214,14.643,-172.838,359.400,279.596,-224.756,-1919.200,2157.290,777.420
537,48552.212000,189.904,76.245,-209.910,400.974,276.137,-164.163,-1226.200,2183.290,1012.420
538,48552.229000,203.715,109.570,-219.930,425.760,266.138,-119.723,-356.200,1718.290,715.420
539,48552.242000,195.823,59.077,-212.916,439.041,259.908,-95.058,25.800,1319.290,244.420
540,48552.284000,219.499,25.751,-166.826,445.243,254.231,-81.321,1082.800,994.290,-288.580
541,48552.324000,234.297,14.643,-93.683,433.768,262.621,-91.015,903.800,-51.710,-542.580
542,48552.364000,216.540,97.452,-102.701,434.634,265.056,-96.891,1003.800,364.290,-250.580
543,48552.404000,252.054,38.880,-49.597,433.761,268.584,-94.793,-233.200,205.290,16.420
544,48552.445000,322.096,38.880,-12.524,433.789,267.998,-84.882,-277.200,294.290,-127.580
545,48552.485000,227.391,41.909,-49.597,432.044,271.609,-79.806,-91.200,195.290,-139.580
546,48552.505000,239.229,69.176,-39.577,426.792,283.143,-70.512,-318.200,203.290,-128.580
547,48552.545000,249.094,26.761,-35.569,425.935,284.236,-62.535,-233.200,177.290,-108.580
548,48552.585000,242.189,40.899,-25.550,425.939,282.556,-60.603,-323.200,124.290,-196.580
549,48552.625000,245.148,63.116,-13.526,420.673,293.081,-56.307,-152.200,12.290,-206.580
550,48552.665000,236.270,72.205,-11.523,419.796,294.844,-55.259,-110.200,-48.710,-121.580
551,48552.705000,246.135,81.294,-33.566,418.027,297.363,-58.162,-252.200,-116.710,-49.580
552,48552.729000,253.040,67.156,-44.587,417.164,298.399,-52.174,-219.200,-87.710,8.420
553,48552.762000,248.108,34.840,-55.609,422.452,290.675,-49.428,-311.200,-85.710,27.420
554,48552.802000,243.175,41.909,-55.609,417.173,295.040,-48.311,-312.200,-44.710,-26.580
555,48552.845000,255.013,37.870,-37.573,419.820,297.674,-47.224,-16.200,-6.710,-111.580
556,48552.885000,235.283,85.333,-27.554,418.940,298.541,-47.198,-190.200,-57.710,-69.580
557,48552.926000,252.054,72.205,-45.589,418.941,303.721,-48.023,59.800,-63.710,-13.580
558,48552.966000,248.108,46.959,-64.626,418.949,302.937,-45.070,-97.200,43.290,10.420
559,48552.986000,243.175,62.107,-52.603,417.199,300.473,-40.190,-78.200,189.290,-16.580
560,48553.26000,252.054,64.126,-52.603,417.222,307.586,-34.001,-127.200,293.290,-12.580
561,48553.66000,246.135,56.047,-36.571,417.236,300.839,-27.269,-58.200,342.290,-3.580
562,48553.106000,236.270,74.225,0.501,417.257,301.904,-20.284,-206.200,264.290,-4.580
563,48553.152000,232.324,60.087,-1.503,417.270,296.865,-14.489,-91.200,120.290,6.420
564,48553.186000,245.148,47.968,-17.534,418.161,306.442,-13.183,-62.200,-51.710,-12.580
565,48553.206000,247.121,26.761,-34.568,416.393,306.385,-15.176,-29.200,-38.710,-42.580
566,48553.246000,256.987,59.077,-26.552,411.980,302.853,-17.291,155.800,-109.710,-132.580
567,48553.286000,235.283,94.422,-30.560,411.095,304.532,-19.225,-0.200,-97.710,-108.580
568,48553.326000,238.243,75.235,-19.538,408.461,305.483,-16.224,-123.200,-29.710,-45.580
569,48553.369000,242.189,74.225,-20.540,413.749,303.779,-15.269,-116.200,44.290,-3.580
570,48553.404000,242.189,96.442,-10.521,414.633,312.431,-15.979,-143.200,33.290,53.420
571,48553.444000,245.148,57.057,-33.566,414.645,309.968,-11.094,-225.200,25.290,139.420
572,48553.464000,243.175,64.126,-27.554,415.530,307.421,-9.187,-287.200,-78.710,97.420
573,48553.504000,241.202,43.929,-10.521,421.700,308.322,-8.145,-151.200,-134.710,53.420
574,48553.544000,246.135,60.087,-21.542,415.520,301.289,-11.372,-73.200,-129.710,33.420
575,48553.584000,245.148,50.998,-34.568,418.157,297.790,-12.470,-111.200,-55.710,21.420
576,48553.624000,248.108,48.978,-27.554,415.515,302.100,-13.332,56.800,13.290,4.420
577,48553.664000,250.081,59.077,-27.554,418.157,297.790,-12.470,249.800,66.290,-18.580
578,48553.704000,245.148,66.146,-44.587,419.038,301.235,-13.349,207.800,137.290,14.420
579,48553.724000,240.216,67.156,-19.538,419.929,306.500,-11.189,211.800,130.290,15.420
580,48553.770000,254.027,57.057,-37.573,419.045,306.471,-12.186,115.800,109.290,9.420
581,48553.810000,246.135,61.097,-38.575,416.396,306.413,-14.182,292.800,151.290,35.420
582,48553.844000,242.189,50.998,-14.528,418.169,302.215,-9.348,217.800,159.290,41.420
583,48553.884000,237.256,66.146,0.501,418.156,299.498,-13.408,210.800,41.290,5.420
584,48553.925000,242.189,63.116,-12.524,420.782,299.331,-19.363,182.800,-67.710,27.420
585,48553.945000,247.121,64.126,-15.530,420.775,301.851,-22.260,212.800,-108.710,66.420
586,48553.984000,244.162,66.146,-17.534,421.646,300.031,-25.295,190.800,-116.710,93.420
587,48554.25000,248.108,55.037,-22.544,420.743,297.229,-32.340,144.800,-135.710,112.420
588,48554.65000,249.094,69.176,-39.577,421.617,294.569,-34.410,151.800,-100.710,141.420
589,48554.105000,248.108,61.097,-32.564,425.122,284.911,-38.684,212.800,-36.710,196.420
590,48554.145000,248.108,53.018,-30.560,430.394,281.330,-42.755,190.800,-12.710,240.420
591,48554.185000,245.148,47.968,-28.556,432.136,274.247,-47.944,253.800,-23.710,264.420
592,48554.205000,238.243,32.821,-47.593,439.195,277.808,-44.827,275.800,-17.710,263.420
593,48554.245000,282.636,53.018,-35.569,440.069,271.705,-46.015,202.800,107.290,298.420
594,48554.290000,258.960,47.968,-26.552,445.346,263.869,-47.246,46.800,26.290,330.420
595,48554.330000,205.688,17.673,-126.748,449.715,257.486,-58.362,127.800,-340.710,285.420
596,48554.379000,216.540,101.491,-246.982,442.614,250.058,-75.506,1049.800,-1160.710,-310.580
597,48554.410000,194.836,50.998,-238.967,429.257,256.396,-126.979,1437.800,-1597.710,-447.580
598,48554.430000,194.836,65.136,-179.851,405.308,249.593,-182.884,741.800,-2029.710,-368.580
599,48554.470000,210.620,9.594,-116.728,378.764,257.042,-225.426,-116.200,-1955.710,-150.580
600,48554.507000,228.378,-1.515,-64.626,363.740,261.732,-243.196,-303.200,-1554.710,-56.580
601,48554.547000,261.919,30.801,-13.526,344.321,255.304,-255.382,-131.200,-680.710,56.420
602,48554.587000,284.609,-16.663,7.515,340.808,255.414,-251.418,-172.200,129.290,223.420
603,48554.627000,307.299,32.821,-29.558,351.433,258.533,-233.409,-346.200,737.290,415.420
604,48554.667000,268.825,63.116,-149.793,352.325,254.335,-228.578,4.800,221.290,113.420
605,48554.687000,212.593,54.028,-216.924,351.429,252.457,-233.606,572.800,-371.710,-258.580
606,48554.727000,197.796,22.722,-230.951,334.596,250.647,-266.488,1355.800,-1080.710,-597.580
607,48554.770000,190.890,16.663,-210.912,303.650,240.035,-303.672,1352.800,-1607.710,-514.580
608,48554.810000,177.079,23.732,-155.804,277.140,233.179,-330.790,543.800,-1540.710,-201.580
609,48554.847000,122.821,42.919,-161.816,259.500,230.365,-337.889,-87.200,-1379.710,56.420
610,48554.890000,108.023,10.604,-49.597,246.269,231.054,-343.867,-315.200,-578.710,320.420
611,48554.910000,46.859,42.919,-245.980,257.778,239.382,-325.686,-817.200,837.290,655.420
612,48554.951000,322.096,98.462,-97.691,270.179,254.710,-305.289,-1970.200,365.290,489.420
613,48555.1000,275.730,29.791,-98.693,281.689,263.037,-287.108,-599.200,484.290,455.420
614,48555.30000,312.231,26.761,-98.693,290.522,260.693,-278.219,-67.200,418.290,104.420
615,48555.67000,262.906,-12.623,-106.708,290.503,254.476,-283.386,486.800,118.290,-90.580
616,48555.110000,271.784,-7.574,-67.632,287.845,253.466,-288.392,385.800,-286.710,-84.580
617,48555.150000,288.555,14.643,-60.618,279.879,243.602,-299.660,145.800,-833.710,-49.580
618,48555.170000,328.015,22.722,-84.665,264.844,245.604,-320.496,322.800,-1286.710,-218.580
619,48555.210000,298.420,58.067,-128.751,240.987,240.570,-344.568,743.800,-1163.710,-324.580
620,48555.251000,142.551,68.166,-198.888,227.705,232.997,-366.702,581.800,-810.710,-235.580
621,48555.285000,160.308,79.274,-117.730,225.051,228.570,-369.833,10.800,-22.710,-14.580
622,48555.326000,129.726,-4.544,-129.753,238.288,240.873,-364.427,-963.200,736.290,126.420
623,48555.372000,136.632,-23.732,-114.724,267.443,250.335,-337.215,-752.200,1495.290,212.420
624,48555.386000,130.713,2.525,-142.779,308.930,246.870,-307.405,-260.200,2323.290,296.420
625,48555.432000,157.349,28.781,-196.885,354.878,255.171,-260.318,-442.200,2636.290,386.420
626,48555.466000,169.187,43.929,-245.980,383.157,248.309,-227.681,-892.200,2476.290,501.420
627,48555.506000,212.593,86.343,-256.000,415.013,249.741,-177.883,62.800,2045.290,467.420
628,48555.546000,218.513,48.978,-232.955,430.085,245.530,-143.217,-94.200,1357.290,257.420
629,48555.592000,182.998,162.083,-323.131,439.809,248.450,-132.168,59.800,594.290,-80.580
630,48555.627000,254.027,-18.682,-97.691,436.280,252.703,-135.020,444.800,-138.710,-141.580
631,48555.647000,244.162,35.850,-128.751,431.851,255.051,-143.895,117.800,-184.710,-244.580
632,48555.691000,240.216,36.860,-117.730,427.420,253.926,-152.883,68.800,-406.710,-210.580
633,48555.731000,216.540,23.732,-107.710,413.298,255.370,-162.811,98.800,-444.710,-279.580
634,48555.771000,211.607,12.623,-100.697,408.884,266.482,-168.423,90.800,-323.710,-234.580
635,48555.825000,202.728,9.594,-84.665,408.872,264.633,-172.455,16.800,54.290,-113.580
636,48555.855000,254.027,95.432,-69.636,408.907,263.263,-159.590,-109.200,582.290,-21.580
637,48555.887000,237.256,34.840,-54.607,408.942,267.913,-148.516,125.800,659.290,-205.580
638,48555.907000,265.865,-31.811,-94.685,412.486,268.981,-141.519,478.800,710.290,-21.580
639,48555.955000,298.420,70.185,-41.581,413.380,259.631,-134.869,-459.200,530.290,-68.580
640,48555.987000,239.229,11.613,-60.618,412.572,278.450,-113.408,-406.200,603.290,-126.580
641,48556.27000,256.987,50.998,-35.569,414.368,278.789,-101.475,-361.200,571.290,-172.580
642,48556.69000,242.189,41.909,-63.624,414.431,283.720,-80.462,-455.200,596.290,-152.580
643,48556.109000,259.946,61.097,-42.583,414.469,292.710,-69.248,-120.200,711.290,-144.580
644,48556.129000,241.202,56.047,-44.587,410.987,295.706,-55.260,-251.200,742.290,-129.580
645,48556.171000,237.256,43.929,3.507,410.153,298.760,-39.275,45.800,633.290,-115.580
646,48556.206000,230.351,74.225,36.571,405.765,301.502,-34.236,78.800,306.290,-101.580
647,48556.246000,222.459,83.314,11.523,406.663,298.228,-27.388,-174.200,93.290,-39.580
648,48556.286000,248.108,60.087,-1.503,405.772,296.406,-30.429,-67.200,-5.710,-84.580
649,48556.332000,254.027,63.116,-16.532,403.141,300.829,-27.315,-159.200,-90.710,-98.580
650,48556.372000,253.040,57.057,-16.532,403.146,306.905,-27.118,-52.200,-10.710,-62.580
651,48556.386000,251.067,62.107,-29.558,396.975,306.004,-28.160,-117.200,99.290,-48.580
652,48556.426000,249.094,46.959,-13.526,403.166,303.658,-19.279,-12.200,121.290,-13.580
653,48556.471000,234.297,49.988,-28.556,400.522,302.788,-19.316,43.800,62.290,-13.580
654,48556.509000,257.973,50.998,1.503,400.501,300.855,-26.329,233.800,-77.710,-30.580
655,48556.551000,236.270,71.195,3.507,398.711,297.128,-35.393,327.800,-151.710,-53.580
656,48556.592000,237.256,79.274,-1.503,403.999,308.360,-36.998,205.800,-126.710,-34.580
657,48556.606000,247.121,87.353,1.503,396.056,310.789,-42.902,53.800,-145.710,-17.580
658,48556.646000,246.135,68.166,-13.526,399.585,310.848,-40.903,-176.200,3.290,5.420
659,48556.686000,246.135,61.097,-12.524,400.481,311.857,-35.902,-116.200,0.290,16.420
660,48556.727000,236.270,69.176,-12.524,400.480,310.121,-35.959,-20.200,18.290,41.420
661,48556.767000,240.216,65.136,-12.524,397.821,303.931,-40.140,80.800,34.290,20.420
662,48556.812000,250.081,57.057,-24.548,397.825,301.383,-38.237,26.800,60.290,5.420
663,48556.851000,244.162,58.067,-17.534,398.714,308.356,-37.015,59.800,79.290,-10.580
664,48556.876000,241.202,65.136,-9.519,396.943,303.958,-39.149,91.800,16.290,-24.580
665,48556.911000,247.121,71.195,-9.519,400.463,303.065,-40.160,135.800,-12.710,32.420
666,48556.980000,242.189,69.176,-12.524,398.703,309.111,-40.962,197.800,10.290,66.420
667,48556.996000,242.189,66.146,-14.528,403.086,302.002,-47.137,277.800,30.290,50.420
668,48557.30000,244.162,48.978,-6.513,401.318,305.388,-50.012,314.800,20.290,72.420
669,48557.76000,240.216,64.126,7.515,402.188,299.256,-52.194,291.800,-39.710,37.420
670,48557.90000,247.121,61.097,2.505,404.817,303.429,-58.008,310.800,-230.710,13.420
671,48557.130000,243.175,57.057,-28.556,404.779,300.459,-71.013,302.800,-291.710,27.420
672,48557.172000,245.148,61.097,-34.568,404.763,298.582,-76.039,161.800,-274.710,20.420
673,48557.207000,246.135,55.037,-26.552,403.843,295.611,-89.047,270.800,-256.710,52.420
674,48557.275000,251.067,53.018,-37.573,403.839,293.847,-90.098,116.800,-259.710,65.420
675,48557.301000,241.202,64.126,-44.587,400.300,291.968,-95.135,-11.200,-243.710,94.420
676,48557.344000,241.202,55.037,-33.566,404.681,287.434,-102.219,3.800,-241.710,151.420
677,48557.374000,244.162,63.116,-26.552,405.544,281.217,-107.383,-44.200,-316.710,168.420
678,48557.389000,252.054,42.919,-24.548,409.943,285.476,-110.209,92.800,-428.710,172.420
679,48557.437000,263.892,40.899,-16.532,409.897,280.714,-125.259,16.800,-679.710,154.420
680,48557.474000,295.461,-0.505,-30.560,408.964,275.026,-142.327,135.800,-795.710,148.420
681,48557.509000,308.285,24.742,-79.656,402.749,271.099,-158.363,172.800,-838.710,19.420
682,48557.550000,237.256,39.890,-122.740,399.197,266.503,-167.460,-151.200,-776.710,136.420
683,48557.572000,165.241,53.018,-159.812,402.711,261.241,-169.606,-753.200,-681.710,424.420
684,48557.612000,154.389,39.890,-116.728,402.723,266.534,-166.455,-798.200,-120.710,523.420
685,48557.652000,159.322,36.860,-103.703,412.424,253.718,-159.889,221.800,413.290,528.420
686,48557.692000,253.040,63.116,-69.636,419.486,246.976,-153.134,236.800,622.290,508.420
687,48557.732000,238.243,90.383,-148.791,429.227,241.442,-134.415,-618.200,476.290,232.420
688,48557.777000,274.744,-42.919,-49.597,432.774,243.406,-126.396,114.800,394.290,137.420
689,48557.807000,247.121,42.919,-116.728,432.767,240.746,-128.469,607.800,306.290,-84.580
690,48557.834000,243.175,24.742,-113.722,425.714,244.996,-131.332,97.800,-166.710,-139.580
691,48557.876000,220.486,27.771,-148.791,423.903,236.761,-146.500,872.800,-425.710,-188.580
692,48557.919000,219.499,32.821,-169.832,413.264,236.077,-170.388,856.800,-737.710,-324.580
693,48557.947000,206.674,30.801,-191.875,395.567,242.191,-199.043,661.800,-1255.710,-314.580
694,48557.990000,204.701,47.968,-182.857,374.324,240.322,-233.927,230.800,-1578.710,-257.580
695,48558.30000,203.715,48.978,-176.845,352.251,242.403,-251.804,-59.200,-1721.710,-205.580
696,48558.71000,199.769,36.860,-147.789,325.753,247.727,-277.534,-55.200,-1649.710,-188.580
697,48558.91000,196.809,32.821,-136.767,302.794,247.175,-296.492,43.800,-1465.710,-254.580
698,48558.131000,179.052,15.653,-67.632,278.953,244.887,-315.509,215.800,-1189.710,-238.580
699,48558.171000,169.187,10.604,-76.650,268.392,251.011,-313.359,-678.200,-44.710,153.420
700,48558.225000,306.312,-3.535,-6.513,278.128,258.357,-299.187,-697.200,1022.290,284.420
701,48558.252000,413.842,90.383,-34.568,293.137,253.526,-286.387,709.800,670.290,150.420
702,48558.294000,327.029,-22.722,-24.548,301.079,249.361,-280.539,144.800,561.290,163.420
703,48558.313000,294.474,-13.633,-38.575,302.830,245.805,-283.627,155.800,9.290,72.420
704,48558.354000,278.690,6.564,-77.652,297.509,240.284,-294.747,-35.200,-740.710,-168.580
705,48558.390000,271.784,30.801,-125.746,279.859,243.405,-306.618,-0.200,-1017.710,-281.580
706,48558.428000,242.189,36.860,-108.712,264.850,249.104,-319.390,-66.200,-1039.710,-263.580
707,48558.469000,203.715,24.742,-111.718,257.785,252.373,-326.257,-163.200,-478.710,-203.580
708,48558.525000,183.985,23.732,-112.720,259.549,258.422,-327.048,174.800,110.290,-42.580
709,48558.549000,170.173,38.880,-122.740,270.996,252.355,-327.209,191.800,631.290,118.420
710,48558.574000,148.470,32.821,-128.751,292.194,253.773,-308.228,-621.200,1264.290,316.420
711,48558.612000,154.389,32.821,-133.761,325.769,260.803,-275.123,-661.200,1716.290,438.420
712,48558.651000,186.944,50.998,-156.806,347.871,259.872,-247.279,-814.200,2078.290,491.420
713,48558.709000,197.796,59.077,-175.843,381.482,259.513,-199.519,-824.200,2161.290,519.420
714,48558.736000,227.391,80.284,-194.881,407.159,262.535,-154.654,-469.200,1920.290,363.420
715,48558.771000,210.620,62.107,-188.869,419.590,260.926,-119.912,-107.200,1469.290,82.420
716,48558.790000,232.324,21.712,-203.898,418.726,264.538,-114.833,391.800,486.290,-458.580
717,48558.859000,258.960,-62.107,-43.585,415.188,272.150,-121.548,625.800,-97.710,-374.580
718,48558.875000,245.148,16.663,-126.748,412.518,266.715,-129.677,524.800,9.290,-276.580
719,48558.909000,262.906,80.284,-82.661,412.532,277.187,-127.351,-184.200,59.290,-188.580
720,48558.957000,277.703,27.771,-64.626,409.905,275.618,-121.452,-47.200,246.290,-160.580
721,48558.999000,240.216,16.663,-78.654,408.161,281.834,-116.291,-215.200,302.290,-174.580
722,48559.52000,238.243,86.343,-32.564,408.186,284.663,-108.256,-103.200,323.290,-215.580
723,48559.60000,238.243,49.988,-29.558,405.577,295.331,-98.981,-253.200,331.290,-180.580
724,48559.100000,246.135,98.462,-16.532,402.964,298.215,-88.966,-212.200,256.290,-182.580
725,48559.132000,237.256,66.146,-13.526,397.681,297.371,-88.017,-301.200,103.290,-57.580
726,48559.175000,236.270,90.383,-32.564,401.224,297.571,-81.048,-394.200,56.290,-20.580
727,48559.222000,252.054,45.949,-31.562,402.126,302.080,-74.941,-154.200,-5.710,-8.580
728,48559.249000,244.162,53.018,-37.573,401.258,300.484,-70.031,-380.200,-61.710,-20.580
729,48559.270000,246.135,43.929,-51.601,402.146,306.589,-68.837,-218.200,-37.710,-23.580
730,48559.310000,249.094,31.811,-59.616,404.787,303.987,-68.913,-102.200,60.290,-50.580
731,48559.351000,237.256,85.333,-49.597,399.515,307.568,-64.841,-17.200,143.290,-82.580
732,48559.397000,253.040,62.107,-41.581,400.411,312.021,-60.722,-21.200,207.290,-14.580
733,48559.431000,228.378,73.215,-29.558,403.068,313.032,-55.716,-46.200,224.290,-19.580
734,48559.511000,244.162,78.264,-16.532,401.305,306.983,-54.925,-76.200,161.290,24.420
735,48559.542000,239.229,54.028,-9.519,399.547,304.434,-53.027,-63.200,89.290,25.420
736,48559.551000,236.270,76.245,-3.507,401.322,307.152,-48.961,-52.200,-49.710,28.420
737,48559.575000,242.189,66.146,-27.554,401.327,309.784,-47.883,-50.200,-100.710,33.420
738,48559.612000,248.108,59.077,-31.562,400.447,311.519,-47.829,-134.200,-100.710,27.420
739,48559.655000,243.175,67.156,-33.566,399.558,308.858,-49.905,-173.200,-110.710,26.420
740,48559.696000,241.202,61.097,-45.589,399.563,311.491,-48.826,-220.200,-63.710,23.420
741,48559.730000,253.040,62.107,-46.591,400.451,309.840,-45.898,-252.200,37.290,-47.580
742,48559.750000,245.148,65.136,-16.532,403.115,310.907,-38.904,-305.200,69.290,-25.580
743,48559.795000,239.229,76.245,-16.532,400.489,315.386,-33.802,-411.200,29.290,38.420
744,48559.835000,244.162,65.136,-14.528,402.263,312.056,-28.939,-202.200,5.290,103.420
745,48559.872000,241.202,53.018,-9.519,404.911,311.246,-26.971,-22.200,-43.710,98.420
746,48559.912000,242.189,65.136,-14.528,406.666,310.323,-28.981,124.800,-62.710,82.420
747,48559.951000,248.108,54.028,-35.569,404.881,301.473,-35.232,51.800,-46.710,81.420
748,48559.991000,251.067,55.037,-42.583,406.642,299.738,-35.283,66.800,73.290,58.420
749,48560.26000,246.135,72.205,-29.558,406.659,297.331,-28.410,95.800,193.290,65.420
750,48560.55000,246.135,66.146,-27.554,408.426,296.521,-26.445,-6.200,209.290,110.420
751,48560.96000,244.162,48.978,-18.536,407.556,299.209,-23.381,195.800,198.290,70.420
752,48560.139000,239.229,66.146,-7.515,411.956,300.024,-25.327,319.800,141.290,110.420
753,48560.172000,244.162,50.998,3.507,412.824,290.420,-27.622,298.800,13.290,132.420
754,48560.216000,238.243,55.037,5.511,412.805,287.647,-33.670,312.800,-167.710,83.420
755,48560.232000,241.202,49.988,-8.517,419.825,289.106,-43.530,347.800,-313.710,67.420
756,48560.275000,241.202,49.988,-0.501,417.144,286.134,-56.544,304.800,-567.710,38.420
757,48560.314000,235.283,54.028,12.524,417.970,284.732,-75.453,366.800,-843.710,38.420
758,48560.355000,264.879,70.185,11.523,412.593,279.515,-106.422,198.800,-1278.710,147.420
759,48560.395000,292.501,78.264,-39.577,413.371,270.746,-140.466,490.800,-1431.710,388.420
760,48560.435000,342.813,-43.929,-115.726,412.452,268.643,-153.446,66.800,-979.710,90.420
761,48560.476000,301.380,43.929,-106.708,407.115,263.820,-170.501,-144.200,-971.710,116.420
762,48560.490000,220.486,59.077,-119.734,408.852,265.304,-179.384,-292.200,-587.710,185.420
763,48560.531000,198.782,30.801,-100.697,406.252,265.724,-164.484,-1192.200,-222.710,243.420
764,48560.574000,150.443,9.594,-148.791,413.305,265.786,-162.473,-78.200,169.290,314.420
765,48560.615000,125.780,67.156,-134.763,420.381,260.893,-151.686,211.800,453.290,229.420
766,48560.651000,128.740,24.742,-141.777,430.974,255.946,-142.876,-158.200,507.290,429.420
767,48560.692000,277.703,81.294,-142.779,434.493,242.117,-141.328,138.800,114.290,297.420
768,48560.732000,274.744,10.604,-87.671,435.394,242.315,-134.367,47.800,458.290,98.420
769,48560.753000,209.634,-8.584,-168.830,436.292,242.485,-128.401,310.800,373.290,-106.580
770,48560.804000,226.405,83.314,-183.859,430.981,243.095,-137.335,492.800,-226.710,-175.580
771,48560.832000,197.796,18.682,-207.906,419.457,241.515,-162.248,907.800,-725.710,-215.580
772,48560.872000,199.769,35.850,-214.920,399.081,236.061,-201.217,1423.800,-1218.710,-375.580
773,48560.914000,194.836,62.107,-198.888,382.268,241.336,-228.903,748.800,-1697.710,-447.580
774,48560.965000,182.012,82.304,-192.877,349.564,239.374,-266.806,298.800,-1836.710,-376.580
775,48560.974000,191.877,62.107,-150.795,316.882,241.081,-297.638,172.800,-1736.710,-362.580
776,48561.17000,192.863,41.909,-102.701,286.869,242.176,-319.544,445.800,-1281.710,-336.580
777,48561.59000,188.917,23.732,-43.585,272.741,233.232,-328.816,401.800,-793.710,-196.580
778,48561.94000,193.850,36.860,-149.793,272.749,235.892,-326.744,-559.200,307.290,221.420
779,48561.136000,353.665,122.698,-111.718,291.327,249.602,-302.408,-1203.200,1300.290,299.420
780,48561.176000,345.773,-17.673,-31.562,294.008,251.706,-289.422,-275.200,422.290,346.420
781,48561.219000,333.935,-32.821,-72.642,293.120,249.913,-291.469,488.800,350.290,-254.580
782,48561.237000,306.312,25.751,-75.648,289.555,235.713,-302.864,918.800,-249.710,-510.580
783,48561.276000,278.690,47.968,-86.669,278.937,234.386,-318.829,566.800,-625.710,-445.580
784,48561.320000,290.528,-3.535,-63.624,268.313,224.380,-335.076,720.800,-484.710,-279.580
785,48561.354000,226.405,3.535,-78.654,270.047,220.656,-344.128,514.800,29.290,-123.580
786,48561.394000,183.985,28.781,-91.679,275.340,219.008,-341.186,-237.200,576.290,64.420
787,48561.436000,166.227,46.959,-108.712,302.732,235.356,-315.743,-999.200,1193.290,271.420
788,48561.456000,181.025,41.909,-113.722,338.106,251.377,-271.418,-1662.200,2016.290,547.420
789,48561.496000,210.620,23.732,-161.816,379.693,260.966,-209.408,-1702.200,2323.290,716.420
790,48561.535000,208.647,107.550,-224.939,400.041,251.494,-176.881,-689.200,2201.290,718.420
791,48561.581000,188.917,81.294,-247.984,420.404,247.343,-140.210,-107.200,1351.290,94.420
792,48561.622000,134.659,216.615,-295.076,424.859,257.317,-124.977,456.800,798.290,-286.580
793,48561.659000,243.175,-52.008,-157.808,417.784,262.210,-135.764,306.800,-325.710,-206.580
794,48561.696000,216.540,50.998,-160.814,416.885,261.172,-141.759,-384.200,-204.710,-60.580
795,48561.716000,232.324,48.978,-90.677,418.672,268.315,-134.570,-304.200,-9.710,-97.580
796,48561.761000,283.622,9.594,-71.640,416.052,271.982,-127.509,112.800,364.290,-109.580
797,48561.796000,258.960,55.037,-74.646,416.945,273.831,-123.474,-330.200,348.290,-17.580
798,48561.836000,243.175,7.574,-70.638,417.862,275.906,-111.488,-210.200,408.290,-77.580
799,48561.876000,229.364,53.018,-49.597,417.882,272.659,-103.649,-511.200,370.290,-102.580
800,48561.917000,257.973,32.821,-24.548,414.409,284.363,-88.386,-516.200,295.290,-159.580
801,48561.937000,248.108,56.047,-7.515,416.203,289.854,-78.272,-268.200,156.290,-188.580
802,48561.989000,234.297,72.205,-23.546,409.146,295.784,-83.067,-120.200,-47.710,-130.580
803,48562.17000,237.256,90.383,-45.589,407.385,289.763,-81.282,-135.200,-46.710,-72.580
804,48562.81000,238.243,50.998,-64.626,411.810,294.275,-75.163,-383.200,-28.710,-26.580
805,48562.99000,249.094,30.801,-60.618,408.299,296.121,-71.143,-157.200,63.290,-93.580
806,48562.132000,245.148,36.860,-41.581,409.190,297.943,-68.102,-129.200,24.290,-104.580
807,48562.180000,240.216,88.363,-23.546,407.434,305.753,-67.854,-64.200,-18.710,-110.580
808,48562.195000,243.175,49.988,-65.628,408.324,307.574,-64.813,-141.200,-20.710,-38.580
809,48562.235000,246.135,72.205,-57.613,403.050,307.683,-60.854,-119.200,81.290,-22.580
810,48562.277000,242.189,55.037,-53.605,405.697,306.005,-58.914,-111.200,177.290,25.420
811,48562.317000,243.175,56.047,-24.548,408.358,302.733,-52.061,-86.200,199.290,3.420
812,48562.357000,240.216,66.146,-9.519,404.835,301.022,-51.135,-90.200,103.290,33.420
813,48562.404000,237.256,69.176,-14.528,407.483,307.100,-50.929,17.800,-0.710,14.420
814,48562.432000,235.283,49.988,-22.544,405.718,299.315,-50.195,-49.200,-125.710,-36.580
815,48562.452000,245.148,77.254,-21.542,407.469,300.072,-54.136,34.800,-175.710,-58.580
816,48562.497000,245.148,44.939,-57.613,401.302,306.955,-55.919,-71.200,-151.710,-37.580
817,48562.537000,250.081,56.047,-61.620,403.946,304.381,-55.001,-27.200,-1.710,-52.580
818,48562.577000,251.067,61.097,-39.577,399.539,306.085,-55.953,50.800,48.290,-69.580
819,48562.617000,236.270,80.284,-34.568,398.669,313.085,-53.742,-88.200,22.290,-96.580
820,48562.657000,229.364,82.304,0.501,397.786,309.612,-53.858,-95.200,-84.710,-121.580
821,48562.677000,244.162,69.176,-29.558,398.663,312.161,-55.758,-51.200,-161.710,-41.580
822,48562.712000,243.175,68.166,-67.632,399.544,312.161,-55.755,-160.200,-49.710,36.420
823,48562.752000,242.189,85.333,-48.595,397.787,314.792,-54.683,-186.200,80.290,52.420
824,48562.797000,231.337,56.047,-23.546,402.203,315.776,-50.665,-92.200,132.290,116.420
825,48562.837000,237.256,63.116,-18.536,401.324,310.624,-48.849,41.800,22.290,92.420
826,48562.872000,242.189,67.156,-46.591,400.447,308.076,-46.948,114.800,43.290,110.420
827,48562.914000,249.094,46.959,-42.583,403.078,303.653,-50.062,104.800,94.290,73.420
828,48562.941000,244.162,53.018,-39.577,404.850,302.031,-46.137,44.800,154.290,82.420
829,48562.974000,245.148,54.028,-47.593,409.255,306.346,-46.976,49.800,208.290,91.420
830,48563.12000,243.175,44.939,-40.579,409.282,308.336,-37.974,130.800,238.290,57.420
831,48563.54000,241.202,71.195,-22.544,411.044,304.893,-37.088,10.800,195.290,77.420
832,48563.92000,239.229,43.929,-7.515,411.928,300.610,-35.238,64.800,88.290,85.420
833,48563.135000,247.121,55.037,-24.548,409.270,296.155,-39.363,110.800,-33.710,50.420
834,48563.155000,249.094,68.166,-38.575,412.782,295.177,-43.355,336.800,26.290,44.420
835,48563.195000,246.135,64.126,-28.556,413.658,295.122,-45.340,193.800,55.290,67.420
836,48563.241000,248.108,63.116,-14.528,414.540,289.971,-43.519,126.800,18.290,91.420
837,48563.296000,249.094,65.136,-27.554,417.184,295.152,-44.335,93.800,-7.710,150.420
838,48563.322000,238.243,67.156,-10.521,418.054,291.596,-47.426,146.800,-71.710,180.420
839,48563.361000,233.310,49.988,10.521,421.559,285.382,-52.582,97.800,-250.710,215.420
840,48563.394000,252.054,61.097,11.523,424.153,280.593,-68.617,244.800,-584.710,240.420
841,48563.415000,264.879,39.890,11.523,422.333,273.981,-87.704,229.800,-933.710,243.420
842,48563.461000,293.487,8.584,-20.540,424.899,266.335,-112.769,332.800,-1211.710,19.420
843,48563.495000,349.719,8.584,-73.644,422.200,262.326,-131.774,-85.200,-1000.710,50.420
844,48563.535000,207.661,35.850,-131.757,417.755,265.372,-146.585,262.800,-717.710,-19.580
845,48563.575000,152.416,84.323,-118.732,418.633,265.344,-147.576,-377.200,-304.710,302.420
846,48563.615000,195.823,37.870,-71.640,420.406,256.835,-141.888,-817.200,284.290,476.420
847,48563.635000,182.012,-0.505,-103.703,433.668,253.011,-124.096,-228.200,771.290,561.420
848,48563.675000,220.486,26.761,-106.708,444.307,240.760,-97.649,-67.200,1060.290,510.420
849,48563.716000,315.191,110.580,-213.918,453.137,226.320,-87.166,216.800,322.290,126.420
850,48563.757000,211.607,71.195,-77.652,451.395,238.583,-82.802,102.800,363.290,4.420
851,48563.796000,232.324,86.343,-185.863,448.738,241.884,-88.661,536.800,-435.710,-432.580
852,48563.847000,187.931,27.771,-205.902,434.530,245.927,-129.288,2179.800,-1039.710,-419.580
853,48563.886000,220.486,47.968,-210.912,412.352,243.522,-183.059,1055.800,-1792.710,-483.580
854,48563.895000,192.863,52.008,-200.892,378.734,246.401,-233.715,260.800,-2350.710,-394.580
855,48563.935000,179.052,56.047,-171.836,353.103,244.698,-262.649,107.800,-2409.710,-385.580
856,48563.975000,145.511,60.087,-159.812,315.131,254.968,-297.193,115.800,-2202.710,-396.580
857,48564.16000,131.699,40.899,-85.667,278.946,253.426,-320.197,238.800,-1533.710,-349.580
858,48564.62000,93.225,1.515,-44.587,267.476,253.248,-326.198,-22.200,-385.710,-95.580
859,48564.95000,385.233,35.850,84.665,267.480,247.257,-323.413,500.800,330.290,139.420
860,48564.115000,486.844,24.742,-27.554,281.630,255.558,-306.218,-194.200,764.290,-72.580
861,48564.156000,368.462,30.801,-55.609,281.620,246.850,-307.493,944.800,474.290,-490.580
862,48564.196000,331.961,54.028,-73.644,274.523,236.874,-322.735,1384.800,71.290,-689.580
863,48564.236000,266.852,56.047,-120.736,268.319,228.748,-333.941,736.800,-314.710,-618.580
864,48564.274000,266.852,1.515,-85.667,261.243,236.217,-345.637,397.800,-399.710,-356.580
865,48564.315000,213.580,13.633,-87.671,261.238,233.585,-346.716,-253.200,-68.710,-124.580
866,48564.356000,188.917,0.505,-86.669,273.626,249.640,-331.260,-875.200,539.290,160.420
867,48564.382000,171.160,7.574,-91.679,299.212,251.761,-318.200,-1220.200,1071.290,479.420
868,48564.416000,169.187,18.682,-117.730,323.119,263.321,-278.029,-1492.200,1778.290,793.420
869,48564.455000,170.173,34.840,-163.820,357.625,266.547,-226.178,-1397.200,2039.290,973.420
870,48564.494000,180.039,102.501,-230.951,398.299,267.201,-173.398,-1256.200,1838.290,985.420
871,48564.581000,202.728,87.353,-223.937,418.656,250.058,-136.156,-647.200,1253.290,587.420
872,48564.645000,208.647,71.195,-209.910,422.240,259.276,-116.978,-360.200,886.290,236.420
873,48564.653000,229.364,67.156,-243.977,423.117,257.513,-118.026,68.800,193.290,-358.580
874,48564.679000,255.013,15.653,-10.521,421.373,258.548,-112.040,687.800,521.290,-206.580
875,48564.695000,260.933,1.515,-77.652,422.271,266.474,-107.808,-168.200,285.290,-146.580
876,48564.717000,278.690,17.673,-56.611,421.404,266.614,-102.841,-28.200,309.290,-107.580
877,48564.757000,241.202,62.107,-37.573,418.789,269.469,-93.820,-252.200,278.290,-169.580
878,48564.800000,234.297,24.742,-46.591,415.293,280.948,-86.507,-133.200,244.290,-126.580
879,48564.837000,244.162,56.047,-34.568,415.317,279.466,-77.619,-312.200,185.290,-173.580
880,48564.857000,230.351,84.323,-24.548,411.822,287.500,-69.425,-428.200,195.290,-210.580
881,48564.897000,262.906,54.028,-34.568,412.731,291.226,-60.364,-391.200,181.290,-161.580
882,48564.942000,257.973,45.949,-28.556,409.223,297.413,-56.203,-359.200,183.290,-202.580
883,48564.975000,245.148,56.047,-26.552,406.589,294.051,-52.349,-154.200,109.290,-161.580
884,48565.15000,244.162,52.008,-52.603,403.958,298.474,-49.234,-100.200,87.290,-86.580
885,48565.56000,243.175,54.028,-37.573,402.214,299.510,-43.248,-130.200,89.290,-81.580
886,48565.76000,248.108,30.801,-54.607,404.858,301.248,-43.184,52.800,142.290,-91.580
887,48565.121000,230.351,101.491,-15.530,401.349,305.698,-39.079,148.800,194.290,-132.580
888,48565.156000,233.310,63.116,-17.534,399.602,310.149,-34.968,-40.200,166.290,-81.580
889,48565.196000,242.189,78.264,-14.528,399.606,311.913,-33.917,-113.200,76.290,-74.580
890,48565.236000,247.121,68.166,-32.564,396.969,312.836,-31.910,-63.200,120.290,-27.580
891,48565.277000,247.121,72.205,-29.558,397.866,315.581,-26.853,-73.200,131.290,35.420
892,48565.320000,239.229,58.067,-25.550,398.755,311.354,-23.015,-6.200,195.290,43.420
893,48565.341000,244.162,69.176,-8.517,401.407,307.997,-19.144,-82.200,149.290,75.420
894,48565.375000,232.324,61.097,16.532,400.527,309.732,-19.090,113.800,9.290,0.420
895,48565.415000,249.094,52.008,-21.542,400.516,306.176,-22.185,35.800,-61.710,12.420
896,48565.455000,241.202,78.264,-15.530,401.406,310.573,-20.053,9.800,-34.710,39.420
897,48565.496000,251.067,47.968,-50.599,404.043,310.518,-22.033,-89.200,29.290,60.420
898,48565.536000,250.081,55.037,-23.546,399.646,305.420,-18.240,-50.200,102.290,43.420
899,48565.576000,251.067,65.136,11.523,399.646,301.108,-17.387,6.800,130.290,19.420
900,48565.602000,238.243,45.949,-15.530,401.420,302.958,-13.349,18.800,78.290,-62.580
901,48565.636000,238.243,82.304,11.523,400.546,303.882,-11.336,-134.200,-7.710,-18.580
902,48565.676000,254.027,57.057,-25.550,403.185,310.743,-14.084,-97.200,-41.710,42.420
903,48565.716000,252.054,66.146,-18.536,402.314,308.251,-10.196,-12.200,37.290,69.420
904,48565.756000,237.256,64.126,-4.509,404.954,309.093,-11.153,43.800,43.290,63.420
905,48565.796000,243.175,54.028,4.509,404.074,305.648,-10.275,186.800,-11.710,40.420
906,48565.816000,246.135,61.097,-17.534,404.054,298.564,-15.470,109.800,-44.710,51.420
907,48565.856000,245.148,58.067,-19.538,407.574,300.246,-17.390,139.800,-25.710,23.420
908,48565.902000,247.121,57.057,-13.526,406.689,298.481,-18.443,100.800,14.290,3.420
909,48565.937000,243.175,59.077,-13.526,406.680,298.397,-21.425,145.800,25.290,25.420
910,48565.977000,245.148,65.136,-12.524,404.920,304.443,-22.227,48.800,21.290,46.420
911,48566.21000,246.135,57.057,-16.532,405.799,302.708,-22.280,166.800,23.290,99.420
912,48566.61000,247.121,65.136,-12.524,405.796,298.368,-22.421,101.800,23.290,116.420
913,48566.76000,248.108,57.057,-11.523,409.309,298.258,-26.386,255.800,4.290,113.420
914,48566.116000,246.135,37.870,-13.526,412.815,290.335,-30.603,222.800,-53.710,108.420
915,48566.156000,248.108,58.067,-12.524,415.448,288.517,-33.633,127.800,-110.710,92.420
916,48566.200000,241.202,66.146,-5.511,418.075,290.086,-39.531,153.800,-165.710,125.420
917,48566.241000,246.135,58.067,-7.515,417.168,284.652,-47.655,300.800,-242.710,222.420
918,48566.281000,249.094,43.929,15.530,422.423,280.902,-57.689,116.800,-438.710,214.420
919,48566.301000,257.973,45.949,38.575,417.982,274.513,-68.834,185.800,-835.710,183.420
920,48566.339000,274.744,50.998,0.501,419.672,268.630,-92.851,-242.200,-1177.710,190.420
921,48566.376000,323.083,4.544,-62.622,422.271,263.030,-106.926,-409.200,-1053.710,268.420
922,48566.421000,232.324,1.515,-127.750,418.689,256.416,-126.019,-251.200,-987.710,274.420
923,48566.456000,243.175,24.742,-97.691,416.025,262.237,-134.776,-834.200,-852.710,244.420
924,48566.497000,209.634,28.781,-83.663,421.293,261.203,-140.750,124.800,-474.710,269.420
925,48566.537000,204.701,33.830,-72.642,422.153,252.383,-145.999,274.800,-107.710,169.420
926,48566.557000,198.782,19.692,-58.614,426.572,249.083,-140.134,179.800,450.290,143.420
927,48566.605000,209.634,25.751,-78.654,434.560,244.501,-118.411,-35.200,828.290,191.420
928,48566.638000,202.728,19.692,-111.718,440.742,235.183,-110.750,185.800,986.290,255.420
929,48566.677000,282.636,74.225,-152.798,444.298,236.363,-99.777,668.800,176.290,-180.580
930,48566.717000,233.310,12.623,-91.679,443.410,231.126,-100.943,131.800,209.290,32.420
931,48566.756000,222.459,45.949,-173.840,439.856,231.682,-111.859,399.800,-144.710,-121.580
932,48566.777000,269.811,-1.515,-130.755,436.293,240.777,-127.463,272.800,-811.710,-150.580
933,48566.817000,234.297,43.929,-194.881,418.595,240.843,-155.322,696.800,-1300.710,-299.580
934,48566.861000,204.701,32.821,-197.886,394.684,242.162,-200.040,376.800,-1781.710,-332.580
935,48566.899000,190.890,43.929,-163.820,364.633,247.202,-235.721,-62.200,-2106.710,-246.580
936,48566.936000,180.039,23.732,-143.781,337.237,244.601,-265.682,-260.200,-1906.710,-232.580
937,48566.976000,156.362,24.742,-114.724,319.579,248.506,-280.507,-12.200,-1322.710,-123.580
938,48567.20000,150.443,66.146,-165.824,299.276,247.229,-294.516,-337.200,-1006.710,-41.580
939,48567.41000,198.782,18.682,-127.750,290.480,261.139,-293.099,-531.200,-626.710,126.420
940,48567.81000,204.701,18.682,-97.691,289.602,262.034,-292.080,-383.200,-117.710,418.420
941,48567.120000,209.634,21.712,-96.689,291.387,262.261,-284.123,-638.200,-46.710,566.420
942,48567.164000,361.557,32.821,5.511,297.606,271.396,-267.919,-1058.200,374.290,344.420
943,48567.202000,360.570,30.801,-78.654,302.937,271.851,-251.999,-421.200,236.290,-51.580
944,48567.242000,286.582,-16.663,-68.634,299.380,262.047,-261.266,778.800,-169.710,-230.580
945,48567.282000,293.487,23.732,-111.718,294.933,265.065,-277.070,565.800,-506.710,-223.580
946,48567.302000,253.040,21.712,-161.816,284.329,267.323,-288.946,0.800,-815.710,-355.580
947,48567.343000,216.540,4.544,-129.753,270.211,273.975,-298.706,-326.200,-784.710,-163.580
948,48567.377000,198.782,2.525,-90.677,266.716,286.322,-291.365,-1011.200,-112.710,-113.580
949,48567.417000,168.200,-4.544,-93.683,284.340,282.079,-288.468,461.800,940.290,140.420
950,48567.460000,155.376,26.761,-129.753,301.979,266.778,-277.985,768.800,1670.290,198.420
951,48567.502000,157.349,50.998,-157.808,337.286,260.592,-252.255,266.800,2214.290,216.420
952,48567.520000,168.200,50.998,-180.853,371.776,261.941,-205.430,-330.200,2539.290,396.420
953,48567.557000,207.661,86.343,-235.961,405.376,253.713,-159.911,22.800,2357.290,388.420
954,48567.603000,199.769,93.412,-232.955,413.371,258.678,-137.879,100.800,1709.290,194.420
955,48567.640000,215.553,97.452,-297.080,419.582,261.709,-122.866,267.800,549.290,-493.580
956,48567.680000,224.432,-25.751,-13.526,412.521,265.875,-128.711,738.800,96.290,-401.580
957,48567.727000,242.189,50.998,-134.763,409.005,265.957,-125.741,-244.200,287.290,-158.580
958,48567.757000,256.000,86.343,-56.611,407.257,268.672,-121.686,-212.200,336.290,-228.580
959,48567.777000,252.054,26.761,-69.636,409.933,272.456,-110.632,64.800,420.290,-132.580
960,48567.818000,233.310,61.097,-41.581,407.324,276.236,-99.595,-498.200,386.290,-151.580
961,48567.862000,243.175,32.821,-51.601,406.477,287.773,-90.286,-227.200,376.290,-148.580
962,48567.911000,249.094,61.097,-35.569,405.631,288.110,-78.362,-281.200,326.290,-190.580
963,48567.942000,243.175,58.067,-37.573,403.885,294.298,-74.195,-138.200,290.290,-153.580
964,48567.982000,237.256,59.077,-27.554,400.387,298.860,-66.114,-67.200,238.290,-146.580
965,48568.1000,242.189,72.205,-18.536,400.401,299.001,-61.145,-39.200,142.290,-115.580
966,48568.43000,257.973,44.939,-52.603,399.528,298.217,-58.194,-106.200,176.290,-49.580
967,48568.77000,244.162,42.919,-16.532,399.545,302.698,-53.083,-69.200,194.290,-90.580
968,48568.123000,246.135,54.028,-1.503,396.031,304.516,-50.057,141.800,166.290,-118.580
969,48568.162000,237.256,73.215,-33.566,396.034,307.988,-49.944,78.800,90.290,-87.580
970,48568.203000,237.256,66.146,-27.554,391.639,309.805,-46.920,75.800,118.290,-62.580
971,48568.244000,248.108,65.136,-39.577,392.519,305.494,-46.064,26.800,164.290,-53.580
972,48568.257000,252.054,67.156,-38.575,391.644,305.550,-44.079,92.800,326.290,25.420
973,48568.306000,244.162,54.028,-19.538,393.418,303.088,-39.189,106.800,329.290,31.420
974,48568.340000,226.405,91.393,28.556,393.434,308.409,-35.044,-31.200,183.290,3.420
975,48568.380000,230.351,83.314,14.528,394.315,304.965,-34.160,-21.200,-23.710,81.420
976,48568.421000,246.135,47.968,-12.524,398.719,308.412,-35.027,-2.200,-81.710,22.420
977,48568.463000,254.027,49.988,-25.550,396.952,309.223,-36.992,-129.200,-122.710,-12.580
978,48568.480000,242.189,54.028,-30.560,395.190,309.221,-36.998,-2.200,-113.710,-18.580
979,48568.523000,256.000,58.067,-48.595,393.422,311.740,-39.901,44.800,-40.710,-40.580
980,48568.558000,242.189,66.146,-24.548,393.414,304.767,-41.120,28.800,30.290,-33.580
981,48568.605000,244.162,80.284,13.526,394.296,305.636,-41.089,79.800,-25.710,-8.580
982,48568.643000,243.175,63.116,-23.546,394.298,309.108,-40.976,-34.200,-5.710,40.420
983,48568.682000,244.162,66.146,-8.517,396.066,310.034,-38.955,-94.200,-19.710,55.420
984,48568.721000,240.216,62.107,-12.524,390.761,302.077,-44.195,32.800,-38.710,65.420
985,48568.743000,244.162,71.195,-20.540,395.184,307.429,-39.042,-93.200,-50.710,75.420
986,48568.783000,245.148,64.126,-25.550,396.051,300.401,-42.246,54.800,-16.710,88.420
987,48568.825000,250.081,61.097,-20.540,399.582,302.196,-40.191,-112.200,-1.710,89.420
988,48568.865000,249.094,62.107,-21.542,400.456,296.961,-41.351,-46.200,6.290,110.420
989,48568.898000,245.148,66.146,-13.526,403.117,302.311,-36.204,-83.200,69.290,94.420
990,48568.940000,225.418,85.333,3.507,406.641,298.870,-35.311,-315.200,42.290,127.420
991,48568.960000,250.081,35.850,-19.538,411.046,287.674,-32.681,-349.200,-88.710,174.420
992,48568.998000,255.013,52.008,-22.544,412.816,287.760,-29.694,-294.200,-169.710,172.420
993,48569.40000,247.121,35.850,-23.546,414.576,285.157,-29.773,-282.200,-176.710,188.420
994,48569.100000,252.054,46.959,-17.534,411.929,279.079,-29.978,-33.200,-165.710,189.420
995,48569.118000,244.162,48.978,-17.534,418.081,271.187,-33.194,-69.200,-204.710,175.420
996,48569.160000,245.148,39.890,-25.550,421.586,272.728,-40.083,-58.200,-228.710,207.420
997,48569.205000,247.121,36.860,-35.569,423.346,277.013,-41.925,38.800,-244.710,210.420
998,48569.218000,249.094,36.860,-36.571,425.077,269.817,-51.090,116.800,-222.710,171.420
999,48569.260000,245.148,47.968,-19.538,426.831,267.158,-53.156,66.800,-248.710,148.420
1000,48569.318000,249.094,77.254,-16.532,429.438,260.774,-64.278,212.800,-350.710,236.420
1001,48569.341000,253.040,30.801,-23.546,431.168,251.842,-73.499,171.800,-507.710,407.420
1002,48569.396000,254.027,13.633,-50.599,437.295,243.696,-85.660,104.800,-558.710,332.420
1003,48569.428000,252.054,6.564,-65.628,438.133,235.519,-98.831,139.800,-472.710,246.420
1004,48569.463000,249.094,30.801,-59.616,439.869,234.399,-107.799,366.800,-325.710,130.420
1005,48569.487000,253.040,27.771,-53.605,441.592,231.430,-120.799,154.800,-336.710,74.420
1006,48569.521000,256.000,29.791,-68.634,441.582,229.609,-123.837,-0.200,-312.710,70.420
1007,48569.585000,245.148,-4.544,-84.665,438.929,231.231,-127.765,178.800,-136.710,11.420
1008,48569.600000,233.310,8.584,-90.677,438.910,227.590,-133.841,490.800,-53.710,-117.580
1009,48569.641000,217.526,52.008,-85.667,439.786,218.071,-133.154,205.800,-15.710,-29.580
1010,48569.681000,229.364,41.909,-80.658,440.662,225.770,-136.873,-203.200,-87.710,-3.580
1011,48569.701000,228.378,-4.544,-82.661,436.249,229.995,-140.722,312.800,-108.710,-191.580
1012,48569.761000,228.378,6.564,-88.673,430.925,228.757,-153.688,1247.800,-50.710,-379.580
1013,48569.790000,231.337,15.653,-94.685,430.886,225.786,-166.694,1159.800,-39.710,-344.580
1014,48569.826000,239.229,25.751,-95.687,428.213,222.899,-176.726,731.800,-37.710,-230.580
1015,48569.865000,238.243,20.702,-98.693,422.050,220.347,-174.843,32.800,-135.710,-30.580
1016,48569.902000,236.270,4.544,-95.687,423.798,220.207,-179.806,-163.200,-252.710,21.420
1017,48569.945000,242.189,-5.554,-89.675,417.618,225.242,-185.621,-168.200,-306.710,19.420
1018,48569.970000,237.256,0.505,-90.677,414.075,222.466,-191.680,73.800,-320.710,-22.580
1019,48570.8000,236.270,2.525,-91.679,408.770,222.265,-198.655,214.800,-310.710,-36.580
1020,48570.42000,240.216,9.594,-93.683,406.982,222.010,-207.606,248.800,-281.710,-8.580
1021,48570.87000,239.229,6.564,-90.677,399.924,222.760,-211.576,215.800,-224.710,1.420
1022,48570.125000,237.256,8.584,-83.663,395.505,218.304,-215.706,247.800,-167.710,10.420
1023,48570.162000,235.283,11.613,-81.659,399.881,211.138,-223.869,281.800,-86.710,32.420
1024,48570.188000,233.310,14.643,-79.656,394.591,208.502,-224.964,220.800,29.290,72.420
1025,48570.222000,232.324,24.742,-76.650,399.884,210.299,-222.903,99.800,146.290,96.420
1026,48570.311000,233.310,25.751,-73.644,401.664,208.761,-215.996,-119.200,265.290,118.420
1027,48570.328000,237.256,22.722,-66.630,405.216,212.489,-206.927,-168.200,415.290,100.420
1028,48570.345000,237.256,24.742,-62.622,410.529,211.039,-197.027,-33.200,485.290,18.420
1029,48570.408000,241.202,21.712,-92.681,414.065,208.578,-192.131,227.800,447.290,-76.580
1030,48570.423000,244.162,-36.860,-94.685,415.815,204.155,-195.248,466.800,94.290,-160.580
1031,48570.440000,253.040,-27.771,-68.634,411.411,205.020,-195.234,1027.800,263.290,-250.580
1032,48570.486000,250.081,28.781,-80.658,412.279,205.747,-200.172,219.800,124.290,-98.580
1033,48570.520000,242.189,3.535,-70.638,414.928,206.674,-198.148,-40.200,115.290,-92.580
1034,48570.560000,241.202,20.702,-73.644,411.412,205.888,-195.206,90.800,126.290,-121.580
1035,48570.606000,229.364,10.604,-72.642,413.185,210.313,-192.077,30.800,108.290,-124.580
1036,48570.666000,236.270,20.702,-70.638,406.136,207.704,-192.185,-77.200,68.290,-96.580
1037,48570.703000,237.256,22.722,-69.636,408.789,209.527,-189.138,-75.200,70.290,-110.580
1038,48570.722000,241.202,17.673,-71.640,411.432,213.840,-189.983,-21.200,110.290,-99.580
1039,48570.762000,244.162,13.633,-72.642,408.806,214.007,-184.028,-6.200,138.290,-96.580
1040,48570.798000,244.162,22.722,-69.636,411.456,220.114,-182.828,-18.200,159.290,-100.580
1041,48570.821000,262.906,-2.525,-64.626,412.347,225.379,-180.668,-78.200,191.290,-93.580
1042,48570.870000,260.933,8.584,-58.614,407.964,228.176,-173.641,-140.200,151.290,-125.580
1043,48570.902000,247.121,29.791,-51.601,406.215,230.892,-169.586,-143.200,113.290,-139.580
1044,48570.926000,242.189,28.781,-47.593,407.091,227.392,-170.690,-124.200,34.290,-118.580
1045,48570.976000,240.216,28.781,-55.609,402.695,236.097,-169.429,-136.200,-16.710,-115.580
1046,48571.21000,244.162,32.821,-59.616,408.875,238.818,-165.348,-132.200,-35.710,-105.580
1047,48571.66000,244.162,30.801,-58.614,400.945,244.832,-167.165,-131.200,-31.710,-91.580
1048,48571.102000,248.108,32.821,-63.624,401.828,246.569,-167.105,-107.200,-16.710,-86.580
1049,48571.123000,244.162,33.830,-60.618,400.954,248.361,-165.064,-67.200,9.290,-77.580
1050,48571.146000,243.175,35.850,-59.616,401.833,245.757,-165.146,-12.200,30.290,-68.580
1051,48571.192000,245.148,36.860,-56.611,399.190,246.623,-165.126,19.800,35.290,-63.580
1052,48571.222000,246.135,35.850,-56.611,397.436,244.971,-162.206,19.800,29.290,-52.580
1053,48571.280000,245.148,37.870,-56.611,399.200,251.888,-162.969,4.800,17.290,-45.580
1054,48571.312000,247.121,37.870,-56.611,400.089,254.549,-160.894,-14.200,17.290,-45.580
1055,48571.341000,244.162,39.890,-53.605,399.211,255.444,-159.875,-32.200,6.290,-48.580
1056,48571.381000,241.202,39.890,-54.607,395.687,255.442,-159.886,-27.200,-26.710,-47.580
1057,48571.408000,242.189,41.909,-56.611,397.439,249.311,-162.066,-19.200,-39.710,-41.580
1058,48571.442000,245.148,40.899,-60.618,393.027,247.515,-164.124,-17.200,-31.710,-30.580
1059,48571.521000,243.175,40.899,-58.614,390.394,256.221,-162.857,-21.200,-26.710,-28.580
1060,48571.536000,244.162,41.909,-57.613,393.041,254.544,-160.917,-49.200,-36.710,-27.580
1061,48571.576000,242.189,38.880,-60.618,393.917,259.668,-163.727,-41.200,-45.710,-24.580
1062,48571.606000,244.162,41.909,-59.616,393.044,262.327,-161.657,-33.200,-43.710,-23.580
1063,48571.626000,243.175,41.909,-61.620,393.918,260.536,-163.699,-29.200,-33.710,-19.580
1064,48571.671000,243.175,41.909,-61.620,393.036,259.667,-163.730,-21.200,-13.710,-16.580
1065,48571.706000,242.189,42.919,-60.618,392.152,263.082,-165.608,-11.200,-0.710,-15.580
1066,48571.741000,242.189,40.899,-60.618,392.144,255.242,-166.855,-17.200,7.290,-17.580
