Sample, Time, ACCX, ACCY, ACCZ, MAGX, MAGY, MAGZ, GYRX, GYRY, GYRZ
0,48798.156000,237.037,3.507,91.287,441.792,-224.167,238.165,-156.150,-46.370,42.070
1,48798.173000,229.053,0.501,93.271,443.771,-221.355,236.279,-122.150,-32.370,36.070
2,48798.217000,233.045,0.501,93.271,444.653,-227.094,233.170,-84.150,-18.370,15.070
3,48798.251000,236.039,0.501,96.248,440.829,-223.314,235.236,-88.150,7.630,11.070
4,48798.292000,240.031,0.501,94.264,439.835,-225.166,237.150,-121.150,16.630,18.070
5,48798.332000,237.037,-0.501,88.310,440.776,-227.070,236.115,-117.150,48.630,7.070
6,48798.371000,235.041,1.503,90.295,441.741,-227.135,233.164,-153.150,69.630,-50.930
7,48798.418000,233.045,5.511,88.310,441.645,-233.755,232.980,-206.150,18.630,-28.930
8,48798.451000,227.057,-4.509,92.279,440.739,-229.093,231.140,-180.150,82.630,-62.930
9,48798.471000,235.041,-10.521,89.302,439.695,-233.887,229.038,-192.150,0.630,-52.930
10,48798.512000,242.027,-6.513,99.225,435.856,-231.079,230.093,-174.150,55.630,19.070
11,48798.557000,247.018,-13.526,97.240,433.769,-240.668,225.889,-174.150,113.630,29.070
12,48798.596000,233.045,-14.528,99.225,427.922,-242.589,227.793,-180.150,134.630,-29.930
13,48798.636000,222.066,-14.528,84.341,433.809,-238.619,231.847,-147.150,190.630,-54.930
14,48798.676000,222.066,-26.552,87.318,431.977,-231.081,232.054,-65.150,58.630,-152.930
15,48798.712000,232.047,-26.552,84.341,435.840,-232.051,229.083,45.850,-11.370,-171.930
16,48798.760000,240.031,-33.566,85.333,432.001,-229.243,230.138,10.850,-4.370,-19.930
17,48798.775000,248.016,-29.558,77.395,436.825,-231.092,229.111,-13.150,-94.370,73.070
18,48798.815000,243.025,-31.562,74.419,434.901,-230.121,231.102,72.850,-11.370,52.070
19,48798.858000,234.043,-22.544,82.357,436.772,-234.848,229.990,122.850,21.630,73.070
20,48798.896000,233.045,-7.515,81.364,430.993,-232.041,232.026,161.850,-46.370,54.070
21,48798.931000,250.012,9.519,95.256,431.993,-230.109,233.065,43.850,-3.370,29.070
22,48798.971000,232.047,-3.507,87.318,434.891,-231.014,233.044,-25.150,-35.370,10.070
23,48799.11000,220.070,-10.521,94.264,433.940,-229.242,229.158,-29.150,-35.370,-0.930
24,48799.56000,222.066,-15.530,87.318,436.854,-229.174,230.148,14.850,-111.370,-9.930
25,48799.76000,231.049,-7.515,92.279,437.825,-229.160,230.150,76.850,-82.370,-41.930
26,48799.118000,232.047,3.507,100.217,440.731,-229.198,227.203,58.850,-86.370,-76.930
27,48799.155000,239.033,10.521,107.163,442.713,-226.334,227.286,42.850,-44.370,-88.930
28,48799.192000,231.049,16.532,116.093,443.739,-222.537,227.393,-57.150,-26.370,-84.930
29,48799.232000,227.057,-2.505,101.209,449.543,-223.480,224.426,-18.150,-120.370,-67.930
30,48799.275000,233.045,-6.513,99.225,447.560,-226.344,224.343,22.850,-116.370,-40.930
31,48799.315000,239.033,-2.505,89.302,452.549,-216.845,223.632,154.850,-85.370,-57.930
32,48799.351000,232.047,17.534,85.333,451.539,-219.669,224.535,35.850,-13.370,18.070
33,48799.372000,231.049,6.513,87.318,449.539,-223.532,222.457,97.850,79.630,-2.930
34,48799.417000,230.051,13.526,90.295,449.643,-216.807,226.579,35.850,70.630,-84.930
35,48799.458000,233.045,21.542,86.326,451.679,-210.187,225.783,8.850,56.630,-94.930
36,48799.495000,248.016,9.519,89.302,453.573,-213.837,229.619,-11.150,78.630,-57.930
37,48799.532000,236.039,2.505,88.310,456.528,-210.932,230.689,66.850,113.630,-75.930
38,48799.578000,233.045,12.524,93.271,455.536,-212.758,233.587,27.850,44.630,-52.930
39,48799.613000,231.049,13.526,84.341,454.678,-205.180,234.780,75.850,47.630,-45.930
40,48799.655000,232.047,12.524,84.341,452.711,-207.073,235.708,58.850,19.630,-41.930
41,48799.675000,238.035,17.534,90.295,450.738,-209.044,233.682,51.850,17.630,-23.930
42,48799.713000,241.029,17.534,86.326,454.748,-200.426,235.896,29.850,33.630,-1.930
43,48799.756000,230.051,16.532,88.310,453.800,-199.389,239.857,-11.150,36.630,-65.930
44,48799.797000,231.049,18.536,88.310,450.909,-197.618,236.951,-6.150,-25.370,-65.930
45,48799.837000,231.049,11.523,89.302,452.823,-199.482,236.902,-0.150,-4.370,-31.930
46,48799.878000,233.045,13.526,84.341,456.692,-200.372,236.884,-1.150,-48.370,-21.930
47,48799.917000,225.060,15.530,86.326,454.750,-200.400,236.880,3.850,7.630,19.070
48,48799.957000,235.041,16.532,89.302,456.605,-206.099,234.758,-22.150,-65.370,13.070
49,48799.972000,238.035,12.524,88.310,457.586,-205.192,232.817,18.850,-60.370,25.070
50,48800.12000,237.037,12.524,86.326,455.699,-201.437,232.918,16.850,1.630,33.070
51,48800.52000,232.047,16.532,93.271,451.805,-202.411,233.868,21.850,-47.370,10.070
52,48800.92000,234.043,12.524,86.326,455.638,-205.298,229.860,54.850,-56.370,36.070
53,48800.142000,240.031,15.530,93.271,457.544,-208.029,232.738,58.850,-15.370,38.070
54,48800.173000,237.037,14.528,90.295,456.601,-206.151,232.789,71.850,-15.370,21.070
55,48800.213000,229.053,11.523,91.287,456.591,-207.044,234.731,114.850,-31.370,23.070
56,48800.233000,244.023,9.519,93.271,458.668,-197.587,234.014,97.850,-33.370,15.070
57,48800.279000,235.041,11.523,87.318,460.580,-199.477,232.981,152.850,-20.370,-4.930
58,48800.316000,228.055,12.524,86.326,458.639,-199.504,232.977,92.850,-1.370,22.070
59,48800.356000,231.049,12.524,87.318,455.709,-201.305,237.840,89.850,-13.370,11.070
60,48800.393000,233.045,10.521,89.302,459.676,-195.550,238.991,61.850,-25.370,23.070
61,48800.433000,234.043,10.521,82.357,449.830,-205.170,237.723,30.850,-19.370,20.070
62,48800.473000,235.041,14.528,90.295,457.765,-193.660,240.024,28.850,-7.370,17.070
63,48800.513000,243.025,5.511,79.380,458.657,-198.506,234.972,1.850,-28.370,7.070
64,48800.533000,240.031,10.521,85.333,457.745,-194.685,237.044,16.850,28.630,1.070
65,48800.578000,236.039,18.536,85.333,460.517,-204.126,235.803,-25.150,6.630,-1.930
66,48800.616000,241.029,16.532,83.349,455.776,-196.603,236.987,-24.150,7.630,-7.930
67,48800.656000,241.029,14.528,79.380,458.619,-201.290,236.862,-60.150,17.630,-16.930
68,48800.696000,229.053,15.530,93.271,457.763,-193.686,239.039,-42.150,79.630,-39.930
69,48800.737000,232.047,9.519,90.295,459.676,-195.550,238.991,-20.150,3.630,-29.930
70,48800.773000,230.051,13.526,93.271,461.590,-197.414,238.942,-42.150,6.630,-25.930
71,48800.813000,229.053,11.523,93.271,457.692,-198.441,237.923,-6.150,-27.370,-26.930
72,48800.833000,230.051,13.526,89.302,457.704,-197.522,236.965,-1.150,-2.370,-13.930
73,48800.878000,232.047,18.536,89.302,459.637,-197.599,233.032,-84.150,-60.370,1.070
74,48800.917000,234.043,17.534,90.295,459.672,-195.603,237.022,-69.150,-28.370,12.070
75,48800.958000,241.029,13.526,88.310,460.533,-202.393,229.949,-100.150,-126.370,0.070
76,48801.0,236.039,11.523,82.357,459.613,-198.677,228.084,-127.150,-134.370,-25.930
77,48801.33000,236.039,17.534,82.357,466.398,-198.712,223.176,-108.150,-110.370,-28.930
78,48801.78000,242.027,14.528,79.380,462.452,-202.655,219.125,-142.150,-78.370,16.070
79,48801.118000,235.041,14.528,87.318,465.403,-199.803,218.226,-64.150,-1.370,-7.930
80,48801.138000,236.039,13.526,81.364,464.425,-200.683,221.151,-75.150,-48.370,-6.930
81,48801.179000,244.023,13.526,84.341,464.415,-200.815,216.229,-41.150,-18.370,1.070
82,48801.213000,237.037,10.521,86.326,467.352,-198.909,215.303,-0.150,9.630,-21.930
83,48801.255000,240.031,11.523,85.333,465.356,-202.719,215.194,-13.150,1.630,-20.930
84,48801.295000,233.045,17.534,86.326,465.409,-198.963,214.315,-17.150,-9.370,-42.930
85,48801.337000,236.039,14.528,85.333,469.291,-198.908,214.323,6.850,36.630,-23.930
86,48801.385000,236.039,14.528,83.349,467.299,-202.665,216.182,-30.150,6.630,15.070
87,48801.426000,239.033,15.530,78.388,466.368,-199.868,215.275,-98.150,28.630,2.070
88,48801.433000,234.043,18.536,82.357,462.346,-209.406,214.019,-142.150,13.630,1.070
89,48801.478000,240.031,5.511,82.357,464.415,-200.815,216.229,-132.150,-2.370,20.070
90,48801.520000,246.020,5.511,80.372,467.122,-214.171,209.961,-116.150,-3.370,1.070
91,48801.553000,245.021,8.517,80.372,463.283,-211.362,211.016,-70.150,20.630,-23.930
92,48801.598000,235.041,6.513,78.388,464.304,-207.619,209.154,-86.150,3.630,-22.930
93,48801.637000,238.035,9.519,82.357,468.199,-206.644,208.204,-71.150,-11.370,-36.930
94,48801.678000,240.031,9.519,81.364,464.238,-212.321,210.007,-56.150,-2.370,-34.930
95,48801.717000,239.033,9.519,82.357,465.328,-203.849,208.277,-60.150,4.630,-25.930
96,48801.738000,241.029,11.523,84.341,465.230,-210.495,207.109,-54.150,10.630,-28.930
97,48801.780000,238.035,7.515,82.357,467.293,-201.983,206.365,-0.150,3.630,-15.930
98,48801.815000,238.035,8.517,78.388,465.257,-208.603,207.161,-42.150,2.630,-8.930
99,48801.854000,235.041,11.523,82.357,468.199,-206.644,208.204,-12.150,-15.370,-10.930
100,48801.895000,237.037,8.517,80.372,466.257,-206.672,208.200,-11.150,-3.370,4.070
101,48801.935000,242.027,8.517,83.349,467.201,-208.549,208.150,15.850,1.630,3.070
102,48801.981000,237.037,8.517,87.318,467.214,-207.604,208.176,94.850,29.630,18.070
103,48802.15000,238.035,10.521,80.372,466.328,-201.917,209.316,48.850,-13.370,28.070
104,48802.35000,235.041,7.515,85.333,465.238,-210.389,211.046,106.850,20.630,24.070
105,48802.80000,237.037,9.519,83.349,468.238,-204.595,214.163,89.850,2.630,42.070
106,48802.125000,239.033,11.523,83.349,461.391,-208.448,215.028,135.850,13.630,50.070
107,48802.160000,238.035,10.521,83.349,462.377,-207.462,216.041,110.850,23.630,78.070
108,48802.200000,237.037,8.517,84.341,466.278,-206.409,218.044,170.850,5.630,64.070
109,48802.240000,239.033,9.519,83.349,466.339,-202.547,221.102,148.850,28.630,72.070
110,48802.280000,236.039,10.521,84.341,461.395,-209.156,223.861,141.850,20.630,69.070
111,48802.318000,237.037,8.517,83.349,459.566,-201.592,225.052,185.850,23.630,76.070
112,48802.342000,238.035,13.526,81.364,459.499,-206.294,225.904,126.850,11.630,78.070
113,48802.376000,234.043,10.521,87.318,456.562,-208.201,226.830,157.850,35.630,74.070
114,48802.418000,237.037,7.515,82.357,457.550,-207.188,228.827,98.850,3.630,92.070
115,48802.460000,236.039,9.519,84.341,455.629,-206.191,231.803,114.850,19.630,73.070
116,48802.500000,238.035,12.524,84.341,457.574,-206.111,233.775,86.850,-1.370,55.070
117,48802.535000,239.033,5.511,82.357,454.717,-202.370,233.874,85.850,-20.370,54.070
118,48802.575000,243.025,7.515,82.357,458.588,-203.234,234.841,73.850,-17.370,26.070
119,48802.620000,243.025,9.519,84.341,454.668,-206.073,236.722,77.850,28.630,5.070
120,48802.638000,232.047,11.523,82.357,454.691,-204.235,234.806,15.850,24.630,1.070
121,48802.700000,234.043,12.524,84.341,451.764,-205.248,233.789,-9.150,16.630,-0.930
122,48802.720000,237.037,9.519,85.333,455.745,-198.547,234.966,-25.150,17.630,10.070
123,48802.760000,237.037,10.521,87.318,449.781,-208.112,233.706,-47.150,12.630,3.070
124,48802.800000,239.033,5.511,88.310,454.650,-207.072,234.727,-25.150,-0.370,0.070
125,48802.840000,237.037,3.507,86.326,453.654,-208.950,235.657,-19.150,8.630,-14.930
126,48802.880000,233.045,9.519,87.318,454.705,-203.289,234.833,-17.150,7.630,-10.930
127,48802.900000,234.043,5.511,83.349,453.658,-208.898,237.626,-13.150,-0.370,10.070
128,48802.940000,238.035,5.511,86.326,454.609,-209.909,234.648,9.850,-6.370,7.070
129,48802.975000,237.037,5.511,85.333,453.615,-211.761,236.562,49.850,29.630,24.070
130,48803.15000,235.041,1.503,86.326,453.721,-204.249,234.804,67.850,22.630,29.070
131,48803.56000,236.039,3.507,87.318,452.733,-206.022,239.671,104.850,19.630,32.070
132,48803.96000,239.033,9.519,86.326,452.780,-203.106,242.703,109.850,43.630,52.070
133,48803.135000,239.033,12.524,81.364,449.799,-207.876,242.566,84.850,63.630,54.070
134,48803.175000,235.041,7.515,87.318,448.903,-203.082,245.648,83.850,57.630,46.070
135,48803.195000,235.041,6.513,85.333,447.854,-208.717,247.457,70.850,39.630,43.070
136,48803.240000,233.045,7.515,87.318,446.037,-200.234,247.690,60.850,22.630,28.070
137,48803.275000,230.051,12.524,87.318,448.809,-209.675,246.448,30.850,-19.370,23.070
138,48803.320000,244.023,7.515,98.233,449.882,-202.963,249.588,79.850,-26.370,-0.930
139,48803.357000,234.043,6.513,84.341,448.833,-208.598,251.396,0.850,5.630,-15.930
140,48803.397000,234.043,10.521,87.318,449.823,-206.798,247.514,11.850,-5.370,-20.930
141,48803.439000,238.035,1.503,93.271,448.909,-203.003,248.601,-45.150,-3.370,-65.930
142,48803.480000,227.057,7.515,86.326,448.945,-200.245,245.727,-69.150,-23.370,-86.930
143,48803.500000,228.055,7.515,88.310,445.984,-203.990,248.569,-110.150,-8.370,-68.930
144,48803.538000,226.058,6.513,89.302,447.038,-197.515,242.849,-180.150,-42.370,-88.930
145,48803.581000,233.045,6.513,92.279,450.793,-206.023,240.652,-169.150,-56.370,-80.930
146,48803.621000,236.039,2.505,88.310,456.741,-197.430,240.901,-192.150,-16.370,-92.930
147,48803.661000,234.043,9.519,90.295,457.511,-210.760,236.597,-171.150,-48.370,-104.930
148,48803.701000,225.060,10.521,87.318,455.703,-201.384,234.887,-194.150,-42.370,-83.930
149,48803.741000,245.021,4.509,85.333,461.403,-209.051,227.798,-257.150,-143.370,-95.930
150,48803.781000,230.051,8.517,83.349,458.538,-205.415,223.960,-205.150,-69.370,-47.930
151,48803.801000,235.041,5.511,75.411,464.382,-203.547,220.087,-254.150,-139.370,-0.930
152,48803.841000,248.016,21.542,80.372,457.433,-213.310,211.935,-308.150,-187.370,5.070
153,48803.881000,255.002,22.544,79.380,464.255,-210.561,205.138,-305.150,-175.370,-61.930
154,48803.921000,244.023,10.521,80.372,468.057,-215.392,199.108,-322.150,-42.370,-80.930
155,48803.961000,236.039,9.519,86.326,472.945,-212.565,196.244,-221.150,2.630,-128.930
156,48803.996000,235.041,2.505,80.372,469.083,-211.596,199.216,-163.150,-12.370,-133.930
157,48804.43000,233.045,14.528,81.364,474.945,-207.941,191.458,-225.150,-55.370,-73.930
158,48804.80000,243.025,10.521,81.364,472.027,-208.062,188.499,-244.150,-43.370,-49.930
159,48804.99000,236.039,13.526,81.364,476.877,-208.046,186.541,-305.150,-46.370,-59.930
160,48804.137000,243.025,6.513,72.434,474.790,-217.635,182.336,-310.150,-54.370,-31.930
161,48804.177000,241.029,-1.503,80.372,475.819,-213.024,177.548,-163.150,-0.370,-95.930
162,48804.217000,241.029,8.517,80.372,474.752,-219.658,177.362,-97.150,-1.370,-48.930
163,48804.257000,243.025,20.540,75.411,475.817,-213.051,176.564,-121.150,-16.370,51.070
164,48804.298000,239.033,12.524,81.364,471.818,-220.750,173.392,-123.150,2.630,3.070
165,48804.337000,246.020,26.552,72.434,475.787,-214.207,168.663,-285.150,-116.370,-20.930
166,48804.377000,245.021,17.534,62.512,476.553,-227.590,162.390,-380.150,-126.370,16.070
167,48804.432000,249.014,11.523,58.543,480.471,-224.016,152.660,-497.150,-128.370,8.070
168,48804.448000,222.066,6.513,60.527,477.486,-228.838,150.553,-555.150,1.630,45.070
169,48804.477000,197.115,10.521,58.543,479.273,-237.716,135.555,-768.150,-277.370,79.070
170,48804.521000,231.049,-17.534,66.481,478.234,-241.696,128.558,-472.150,-39.370,70.070
171,48804.557000,250.012,-117.730,83.349,480.252,-236.836,132.631,72.850,253.630,-169.930
172,48804.597000,253.006,-34.568,91.287,479.324,-233.986,133.692,345.850,41.630,-250.930
173,48804.637000,264.982,28.556,89.302,481.425,-223.451,137.923,343.850,-232.370,-86.930
174,48804.683000,344.827,7.515,72.434,482.386,-224.331,139.867,246.850,26.630,-34.930
175,48804.697000,214.082,-37.573,70.450,488.466,-207.883,151.155,579.850,229.630,-425.930
176,48804.737000,178.152,6.513,60.527,494.325,-205.804,155.157,535.850,-242.370,-338.930
177,48804.777000,238.035,53.605,33.736,495.469,-193.576,152.548,333.850,-259.370,-4.930
178,48804.818000,240.031,51.601,48.620,495.384,-199.276,151.406,253.850,49.630,-41.930
179,48804.858000,239.033,35.569,56.558,499.375,-192.443,157.504,163.850,24.630,-90.930
180,48804.902000,223.064,30.560,51.597,498.349,-196.240,157.397,-6.150,20.630,59.070
181,48804.942000,229.053,27.554,53.581,491.602,-192.659,153.551,-158.150,-117.370,232.070
182,48804.962000,238.035,51.601,52.589,491.383,-207.001,147.250,-274.150,-67.370,241.070
183,48805.2000,250.012,57.613,81.364,488.501,-205.125,148.281,-263.150,146.630,132.070
184,48805.42000,241.029,-1.503,93.271,484.481,-215.397,154.874,-47.150,288.630,-18.930
185,48805.77000,317.879,-79.656,167.690,484.655,-204.706,165.991,496.850,554.630,-113.930
186,48805.117000,187.135,-46.591,122.047,482.744,-205.100,187.616,771.850,276.630,205.070
187,48805.157000,195.119,36.571,74.419,476.938,-204.184,189.599,747.850,-213.370,429.070
188,48805.197000,252.008,73.644,83.349,472.057,-206.905,196.400,557.850,76.630,433.070
189,48805.241000,273.965,99.695,76.403,465.135,-216.326,201.045,168.850,9.630,344.070
190,48805.257000,291.930,51.601,40.682,470.998,-212.672,193.287,-229.150,-107.370,50.070
191,48805.298000,272.967,-8.517,75.411,466.137,-214.369,203.068,-52.150,545.630,-355.930
192,48805.338000,243.025,-3.507,74.419,468.216,-204.885,203.335,-354.150,45.630,-210.930
193,48805.378000,213.084,28.556,33.736,465.196,-212.465,204.103,-345.150,379.630,-61.930
194,48805.418000,227.057,37.573,67.473,463.243,-213.412,205.057,-785.150,328.630,62.070
195,48805.459000,261.988,21.542,38.698,462.033,-229.580,201.654,-867.150,150.630,-26.930
196,48805.497000,289.934,-11.523,60.527,463.985,-227.872,193.836,-874.150,335.630,-138.930
197,48805.538000,246.020,-13.526,64.496,459.945,-238.408,190.586,-658.150,283.630,-223.930
198,48805.558000,228.055,7.515,62.512,457.053,-237.425,193.559,-507.150,238.630,-202.930
199,48805.598000,218.074,-20.540,73.426,462.853,-238.419,188.623,-265.150,34.630,-176.930
200,48805.638000,214.082,-8.517,79.380,462.889,-235.661,185.749,-268.150,-131.370,-93.930
201,48805.678000,214.082,2.505,110.140,461.786,-244.291,181.573,-6.150,-118.370,73.070
202,48805.718000,200.109,-1.503,141.891,462.892,-234.847,180.854,69.850,-198.370,75.070
203,48805.762000,221.068,-5.511,152.806,470.486,-244.641,163.873,-226.150,-502.370,-154.930
204,48805.804000,207.096,-54.607,135.938,473.586,-230.652,155.414,240.850,-472.370,-300.930
205,48805.841000,240.031,-72.642,117.085,478.293,-239.384,144.360,189.850,-661.370,219.070
206,48805.861000,246.020,-18.536,55.566,474.377,-241.409,141.346,393.850,-210.370,389.070
207,48805.901000,225.060,43.585,57.550,476.320,-240.594,135.470,177.850,-425.370,380.070
208,48805.940000,194.121,40.579,21.829,475.302,-243.524,132.436,68.850,-236.370,75.070
209,48805.988000,149.209,18.536,91.287,473.273,-250.065,136.185,-128.150,326.630,171.070
210,48806.23000,246.020,-87.671,164.713,469.365,-251.985,137.109,370.850,-245.370,51.070
211,48806.70000,327.860,3.507,59.535,475.318,-242.552,133.447,152.850,-509.370,-582.930
212,48806.99000,233.045,33.566,48.620,477.373,-233.384,121.902,123.850,-531.370,-137.930
213,48806.141000,302.908,-35.569,69.457,484.069,-239.172,113.884,236.850,-318.370,227.070
214,48806.161000,315.883,-29.558,73.426,476.258,-242.172,111.820,-18.150,-111.370,194.070
215,48806.203000,228.055,9.519,56.558,481.080,-244.808,116.673,268.850,222.630,118.070
216,48806.238000,189.131,8.517,61.519,473.227,-251.432,120.410,168.850,-210.370,98.070
217,48806.286000,210.090,-20.540,34.729,480.186,-239.988,120.740,449.850,-135.370,-191.930
218,48806.318000,280.951,43.585,57.550,484.173,-232.447,118.005,200.850,-289.370,-346.930
219,48806.358000,308.897,78.654,81.364,487.052,-235.138,121.870,-378.150,345.630,62.070
220,48806.403000,246.020,-8.517,75.411,478.296,-236.286,118.872,-706.150,379.630,57.070
221,48806.420000,233.045,-28.556,86.326,479.200,-240.974,119.727,-515.150,207.630,3.070
222,48806.463000,256.000,-22.544,50.605,476.199,-246.768,116.610,-269.150,33.630,102.070
223,48806.502000,248.016,-7.515,35.721,472.244,-252.365,121.366,44.850,155.630,348.070
224,48806.541000,232.047,-2.505,61.519,469.230,-259.866,125.086,-27.150,185.630,346.070
225,48806.578000,217.076,-6.513,41.674,465.265,-265.595,124.920,-169.150,67.630,318.070
226,48806.624000,212.086,-21.542,46.636,458.247,-280.874,122.516,-249.150,-66.370,323.070
227,48806.666000,246.020,-43.585,37.705,460.221,-278.115,118.662,-149.150,-40.370,134.070
228,48806.709000,224.062,-45.589,56.558,457.246,-282.805,121.477,19.850,120.630,-0.930
229,48806.725000,212.086,-38.575,43.659,456.419,-273.284,124.692,-23.150,-39.370,-21.930
230,48806.758000,288.936,-48.595,83.349,460.357,-270.208,131.669,381.850,379.630,-335.930
231,48806.798000,296.920,43.585,128.000,459.465,-265.362,136.720,-232.150,435.630,-8.930
232,48806.838000,223.064,31.562,114.109,454.260,-289.176,132.115,-892.150,435.630,188.070
233,48806.882000,188.133,-70.638,46.636,455.348,-279.970,122.537,-661.150,-161.370,-129.930
234,48806.924000,258.994,-44.587,105.178,460.143,-283.736,120.473,-668.150,286.630,-298.930
235,48806.958000,290.932,-18.536,51.597,468.084,-270.598,112.983,-623.150,52.630,-546.930
236,48807.22000,285.942,-47.593,56.558,466.135,-270.731,109.041,-464.150,236.630,-88.930
237,48807.31000,232.047,-66.630,79.380,467.139,-268.747,112.049,-330.150,478.630,154.070
238,48807.58000,225.060,-85.667,106.171,462.062,-284.760,116.513,-315.150,345.630,151.070
239,48807.98000,216.078,-30.560,94.264,460.213,-278.982,121.589,-170.150,319.630,-59.930
240,48807.138000,199.111,-36.571,97.240,463.256,-271.112,131.649,272.850,213.630,-333.930
241,48807.183000,214.082,-30.560,76.403,462.395,-264.322,138.721,646.850,66.630,-182.930
242,48807.224000,238.035,3.507,87.318,469.196,-264.147,141.689,659.850,-383.370,151.070
243,48807.264000,275.961,-18.536,72.434,470.155,-265.052,142.649,613.850,-102.370,-69.930
244,48807.305000,230.051,-22.544,87.318,470.346,-253.363,155.761,642.850,101.630,-256.930
245,48807.319000,172.164,-31.562,116.093,472.508,-239.728,169.914,809.850,215.630,40.070
246,48807.360000,162.183,-32.564,96.248,465.726,-240.427,182.670,669.850,354.630,230.070
247,48807.406000,138.230,3.507,106.171,463.807,-240.165,193.494,581.850,44.630,201.070
248,48807.441000,181.146,50.599,115.101,459.942,-239.983,202.345,444.850,30.630,209.070
249,48807.480000,343.828,25.550,106.171,463.707,-247.599,198.205,81.850,-388.370,167.070
250,48807.520000,360.795,9.519,90.295,463.689,-247.836,189.346,-199.150,-194.370,194.070
251,48807.560000,280.951,-25.550,67.473,464.657,-247.087,181.500,-299.150,-218.370,-54.930
252,48807.600000,245.021,13.526,79.380,469.638,-237.693,176.851,-12.150,-160.370,-360.930
253,48807.619000,213.084,33.566,85.333,476.489,-233.027,171.091,-143.150,-286.370,-281.930
254,48807.664000,232.047,11.523,82.357,480.371,-232.211,164.235,-154.150,-213.370,-121.930
255,48807.704000,220.070,-39.577,89.302,482.273,-234.994,165.144,109.850,170.630,-112.930
256,48807.745000,208.094,-6.513,115.101,481.409,-228.256,170.248,164.850,33.630,-168.930
257,48807.784000,247.018,-6.513,149.829,483.341,-229.122,172.195,431.850,-10.370,98.070
258,48807.822000,232.047,-16.532,114.109,481.547,-220.323,184.240,765.850,86.630,123.070
259,48807.859000,210.090,45.589,101.209,484.518,-216.446,186.320,738.850,-227.370,82.070
260,48807.879000,264.982,60.618,85.333,484.546,-214.555,186.373,616.850,-297.370,163.070
261,48807.920000,283.945,49.597,75.411,480.652,-216.291,194.187,533.850,80.630,202.070
262,48807.968000,235.041,38.575,47.628,481.790,-205.664,202.353,248.850,146.630,-119.930
263,48808.3000,222.066,60.618,74.419,482.703,-209.459,201.265,47.850,78.630,-104.930
264,48808.44000,235.041,48.595,69.457,480.817,-205.704,201.367,-235.150,35.630,45.070
265,48808.101000,237.037,26.552,47.628,480.669,-215.292,196.182,-526.150,66.630,81.070
266,48808.124000,225.060,15.530,74.419,478.565,-225.880,189.982,-629.150,126.630,52.070
267,48808.171000,220.070,11.523,49.612,475.635,-226.158,181.117,-826.150,-4.370,112.070
268,48808.193000,218.074,24.548,72.434,478.395,-235.757,173.969,-890.150,-45.370,87.070
269,48808.221000,253.006,-14.528,68.465,476.150,-254.305,152.794,-1061.150,-431.370,118.070
270,48808.261000,274.963,-73.644,94.264,478.142,-249.025,137.206,-810.150,-197.370,-2.930
271,48808.301000,282.947,-64.626,82.357,481.983,-251.045,130.271,-475.150,4.630,-214.930
272,48808.347000,209.092,-27.554,93.271,476.279,-243.431,135.391,70.850,190.630,-308.930
273,48808.380000,200.109,-22.544,99.225,482.048,-247.131,135.298,173.850,-65.370,-113.930
274,48808.421000,227.057,-6.513,70.450,482.115,-242.429,134.445,170.850,-168.370,0.070
275,48808.464000,256.000,8.517,71.442,484.977,-245.330,130.435,211.850,-229.370,23.070
276,48808.480000,257.996,-33.566,51.597,487.987,-238.643,131.610,220.850,-92.370,12.070
277,48808.532000,252.008,-4.509,72.434,489.019,-234.768,134.670,296.850,-11.370,-124.930
278,48808.577000,255.002,19.538,70.450,487.141,-230.908,138.709,280.850,-41.370,-87.930
279,48808.604000,241.029,3.507,61.519,492.073,-225.218,136.908,298.850,-12.370,-66.930
280,48808.645000,241.029,17.534,70.450,489.108,-229.776,144.645,231.850,109.630,-65.930
281,48808.685000,229.053,42.583,58.543,491.110,-225.887,147.708,33.850,60.630,16.070
282,48808.726000,207.096,25.550,63.504,487.102,-234.479,146.478,-130.150,7.630,89.070
283,48808.768000,229.053,8.517,108.155,489.130,-228.725,148.609,-66.150,132.630,108.070
284,48808.782000,288.936,-58.614,133.953,479.384,-232.435,156.358,320.850,204.630,35.070
285,48808.828000,284.943,-67.632,158.760,482.454,-223.435,173.335,721.850,725.630,-48.930
286,48808.865000,203.103,-2.505,152.806,473.704,-226.815,192.899,842.850,365.630,86.070
287,48808.904000,170.168,43.585,83.349,473.791,-221.850,201.889,678.850,-121.370,429.070
288,48808.952000,216.078,21.542,47.628,466.837,-233.215,204.512,456.850,-229.370,488.070
289,48808.981000,285.942,28.556,79.380,461.911,-238.064,202.402,365.850,13.630,232.070
290,48809.22000,275.961,17.534,66.481,464.951,-230.221,211.478,446.850,72.630,-89.930
291,48809.62000,230.051,12.524,75.411,461.195,-222.501,219.555,274.850,286.630,-13.930
292,48809.82000,206.097,33.566,72.434,456.226,-230.975,223.245,-34.150,213.630,201.070
293,48809.122000,241.029,13.526,72.434,454.280,-231.055,221.273,-356.150,-11.370,136.070
294,48809.161000,245.021,20.540,75.411,455.088,-241.601,215.079,-623.150,187.630,-65.930
295,48809.201000,221.068,-13.526,82.357,452.124,-244.611,210.072,-704.150,150.630,-129.930
296,48809.241000,220.070,-19.538,97.240,458.819,-251.187,207.933,-581.150,149.630,-132.930
297,48809.281000,239.033,-16.532,108.155,453.853,-258.085,199.864,-469.150,-84.370,-16.930
298,48809.326000,248.016,-11.523,93.271,452.016,-250.627,197.118,-214.150,-83.370,-3.930
299,48809.367000,225.060,3.507,115.101,456.904,-247.800,194.254,-36.150,-260.370,-84.930
300,48809.381000,217.076,17.534,89.302,459.764,-249.966,182.395,55.850,-469.370,-15.930
301,48809.422000,240.031,42.583,134.946,457.870,-247.078,185.423,179.850,-64.370,52.070
302,48809.462000,218.074,0.501,142.884,456.923,-245.253,183.505,80.850,-180.370,-167.930
303,48809.502000,155.197,-8.517,83.349,466.677,-241.438,179.693,25.850,-157.370,-468.930
304,48809.542000,162.183,-25.550,45.643,472.646,-230.271,170.178,126.850,-676.370,-390.930
305,48809.582000,307.899,-58.614,87.318,480.484,-222.309,145.822,132.850,-984.370,-240.930
306,48809.622000,324.866,-40.579,36.713,488.298,-217.734,136.126,58.850,-731.370,-157.930
307,48809.662000,262.986,6.513,56.558,487.307,-218.772,133.145,88.850,-157.370,113.070
308,48809.682000,255.002,-19.538,65.488,489.221,-220.636,133.096,213.850,-30.370,270.070
309,48809.722000,256.998,-21.542,59.535,483.278,-229.177,134.816,230.850,3.630,148.070
310,48809.762000,229.053,4.509,21.829,481.502,-218.618,141.992,359.850,50.630,-66.930
311,48809.801000,255.002,13.526,62.512,480.518,-220.339,148.828,273.850,332.630,-126.930
312,48809.847000,256.998,-3.507,59.535,480.655,-211.644,155.955,145.850,187.630,-85.930
313,48809.889000,229.053,3.507,63.504,476.730,-215.323,161.748,98.850,220.630,-15.930
314,48809.922000,219.072,20.540,74.419,477.756,-212.288,168.719,-107.150,341.630,34.070
315,48809.942000,230.051,35.569,92.279,475.689,-220.853,167.494,-390.150,3.630,-17.930
316,48809.983000,235.041,61.620,59.535,477.644,-219.118,160.660,-726.150,-2.370,16.070
317,48810.29000,278.955,12.524,63.504,480.351,-231.712,147.527,-848.150,-143.370,132.070
318,48810.63000,264.982,-13.526,66.481,473.534,-232.098,136.686,-746.150,49.630,46.070
319,48810.103000,245.021,-23.546,60.527,472.329,-247.426,129.372,-588.150,11.630,166.070
320,48810.146000,234.043,-33.566,53.581,468.480,-245.511,132.370,-417.150,142.630,275.070
321,48810.186000,230.051,-17.534,51.597,465.446,-253.275,126.247,-301.150,69.630,259.070
322,48810.223000,235.041,-2.505,56.558,460.498,-259.937,127.037,-313.150,107.630,168.070
323,48810.242000,235.041,-15.530,56.558,461.430,-261.973,121.080,-304.150,35.630,98.070
324,48810.283000,238.035,-34.568,52.589,456.464,-269.633,119.875,-247.150,-41.370,7.070
325,48810.326000,249.014,-19.538,66.481,461.329,-268.645,118.927,-213.150,187.630,-0.930
326,48810.381000,216.078,-27.554,76.403,464.178,-272.491,114.891,-202.150,-45.370,-63.930
327,48810.406000,209.092,-57.613,74.419,460.408,-264.955,116.077,-33.150,-150.370,-163.930
328,48810.446000,262.986,-28.556,82.357,461.292,-270.668,113.953,144.850,-85.370,-60.930
329,48810.486000,282.947,24.548,106.171,462.331,-265.926,114.086,-196.150,-50.370,111.070
330,48810.523000,243.025,-14.528,94.264,460.323,-269.894,108.071,-573.150,110.630,184.070
331,48810.546000,245.021,-42.583,73.426,458.271,-276.725,100.992,-561.150,140.630,-0.930
332,48810.586000,226.058,-33.566,104.186,456.298,-278.696,98.967,-435.150,388.630,-193.930
333,48810.626000,241.029,-47.593,85.333,460.142,-281.452,99.880,-370.150,74.630,-143.930
334,48810.666000,256.000,-70.638,68.465,458.226,-279.615,98.945,-125.150,304.630,139.070
335,48810.706000,238.035,-41.581,66.481,462.046,-284.209,101.774,-106.150,70.630,154.070
336,48810.746000,233.045,-11.523,94.264,454.226,-288.863,108.517,-118.150,446.630,4.070
337,48810.787000,210.090,-49.597,67.473,459.280,-275.450,112.833,32.850,171.630,-215.930
338,48810.827000,246.020,-39.577,88.310,461.204,-277.943,124.570,390.850,296.630,-106.930
339,48810.847000,223.064,-28.556,80.372,462.403,-263.455,135.795,760.850,55.630,-102.930
340,48810.887000,236.039,5.511,71.442,464.331,-265.135,142.636,917.850,-107.370,38.070
341,48810.927000,247.018,-1.503,59.535,462.559,-254.523,151.781,794.850,-66.370,7.070
342,48810.967000,231.049,-2.505,90.295,462.550,-256.178,160.588,651.850,36.630,-164.930
343,48811.8000,212.086,-5.511,96.248,468.643,-238.023,165.037,547.850,-124.370,-298.930
344,48811.47000,222.066,-8.517,111.132,471.606,-235.013,170.044,419.850,-106.370,-272.930
345,48811.82000,211.088,-17.534,132.961,470.774,-227.093,184.033,342.850,433.630,-215.930
346,48811.127000,142.222,1.503,176.620,472.874,-216.559,188.264,460.850,13.630,-42.930
347,48811.148000,180.148,15.530,128.992,472.900,-214.694,187.333,269.850,-353.370,203.070
348,48811.188000,336.842,0.501,40.682,481.489,-222.609,169.422,-7.150,-599.370,124.070
349,48811.223000,317.879,29.558,66.481,481.529,-220.560,175.381,295.850,121.630,-174.930
350,48811.269000,243.025,25.550,89.302,484.572,-211.141,172.697,238.850,-92.370,-191.930
351,48811.311000,223.064,38.575,76.403,484.620,-208.225,175.729,278.850,-96.370,-191.930
352,48811.344000,229.053,34.568,81.364,491.528,-199.750,171.058,157.850,-118.370,-152.930
353,48811.383000,229.053,21.542,81.364,489.624,-197.754,176.029,124.850,40.630,-8.930
354,48811.423000,221.068,21.542,91.287,487.703,-196.757,179.004,215.850,153.630,84.070
355,48811.443000,257.996,25.550,89.302,484.775,-198.532,184.851,195.850,165.630,187.070
356,48811.488000,235.041,52.603,80.372,486.723,-199.187,194.673,105.850,357.630,95.070
357,48811.527000,218.074,54.607,75.411,479.840,-205.797,198.412,-131.150,153.630,-110.930
358,48811.567000,219.072,50.599,74.419,486.746,-197.348,192.757,-189.150,-147.370,-176.930
359,48811.607000,232.047,38.575,62.512,482.806,-200.451,184.795,-423.150,-231.370,20.070
360,48811.647000,233.045,32.564,43.659,483.690,-205.402,175.806,-594.150,-90.370,66.070
361,48811.687000,215.080,18.536,74.419,485.464,-215.987,167.646,-655.150,-137.370,69.070
362,48811.728000,232.047,18.536,69.457,489.279,-218.350,147.914,-781.150,-435.370,83.070
363,48811.748000,259.992,19.538,60.527,491.043,-229.067,134.832,-857.150,-425.370,4.070
364,48811.788000,272.967,-51.601,89.302,494.923,-227.515,120.128,-545.150,-170.370,-111.930
365,48811.828000,269.973,-31.562,100.217,494.913,-227.647,115.206,-186.150,11.630,-263.930
366,48811.868000,242.027,-15.530,78.388,501.847,-218.068,116.468,0.850,46.630,-134.930
367,48811.909000,236.039,-4.509,91.287,496.962,-220.842,121.300,141.850,170.630,-72.930
368,48811.943000,230.051,18.536,84.341,495.147,-212.332,122.518,24.850,-1.370,-85.930
369,48811.983000,233.045,26.552,80.372,499.047,-211.279,124.521,201.850,15.630,-127.930
370,48812.29000,230.051,-8.517,79.380,503.010,-205.577,123.702,336.850,-20.370,-119.930
371,48812.43000,219.072,6.513,59.535,502.944,-210.279,124.555,286.850,-297.370,-62.930
372,48812.83000,257.996,30.560,51.597,504.036,-201.780,123.810,340.850,-183.370,-28.930
373,48812.129000,243.025,23.546,58.543,505.029,-200.716,127.775,329.850,67.630,19.070
374,48812.163000,220.070,27.554,73.426,496.246,-204.517,131.589,304.850,63.630,96.070
375,48812.204000,232.047,34.568,64.496,499.221,-200.588,135.638,194.850,-69.370,247.070
376,48812.244000,246.020,48.595,74.419,498.105,-210.924,138.300,66.850,27.630,269.070
377,48812.291000,246.020,8.517,89.302,497.028,-218.450,140.056,56.850,233.630,232.070
378,48812.304000,258.994,6.513,109.147,490.279,-216.419,148.953,241.850,199.630,133.070
379,48812.344000,263.984,11.523,76.403,488.352,-216.262,155.840,129.850,146.630,69.070
380,48812.383000,220.070,42.583,104.186,487.397,-216.065,163.712,103.850,365.630,-27.930
381,48812.429000,225.060,39.577,100.217,487.338,-219.900,161.638,-123.150,28.630,35.070
382,48812.466000,232.047,23.546,87.318,485.397,-219.928,161.634,-42.150,-4.370,17.070
383,48812.506000,246.020,16.532,74.419,488.376,-215.184,160.788,-202.150,-45.370,-0.930
384,48812.546000,236.039,8.517,63.504,481.424,-225.762,157.531,-70.150,55.630,-26.930
385,48812.587000,234.043,9.519,102.202,490.288,-217.075,159.755,161.850,-115.370,89.070
386,48812.608000,231.049,-1.503,80.372,483.450,-220.034,158.677,121.850,-161.370,90.070
387,48812.646000,212.086,-7.515,77.395,487.352,-218.954,161.665,308.850,15.630,128.070
388,48812.686000,196.117,-11.523,79.380,480.491,-223.752,162.503,95.850,-113.370,294.070
389,48812.729000,226.058,27.554,95.256,475.559,-228.681,157.440,55.850,-247.370,329.070
390,48812.769000,250.012,19.538,111.132,473.464,-239.137,156.162,88.850,-130.370,372.070
391,48812.822000,272.967,13.526,118.078,470.519,-241.910,160.014,23.850,139.630,360.070
392,48812.849000,236.039,12.524,93.271,462.634,-250.478,161.730,-396.150,337.630,19.070
393,48812.946000,210.090,15.530,93.271,463.634,-248.546,162.769,-474.150,382.630,-45.930
394,48812.953000,175.158,-1.503,76.403,464.577,-250.424,162.718,-249.150,67.630,-199.930
395,48812.969000,260.990,-71.640,64.496,468.546,-243.120,151.125,43.850,-618.370,-253.930
396,48812.992000,286.940,-7.515,48.620,476.301,-242.380,139.355,14.850,-525.370,-67.930
397,48813.26000,261.988,15.530,28.775,475.239,-248.173,135.258,43.850,-239.370,413.070
398,48813.66000,278.955,-49.597,23.814,470.351,-250.238,131.258,-101.150,-67.370,402.070
399,48813.106000,231.049,-20.540,70.450,460.499,-260.699,133.901,-11.150,126.630,81.070
400,48813.148000,204.101,-13.526,49.612,465.378,-258.765,132.979,-5.150,63.630,-9.930
401,48813.188000,256.998,-44.587,124.031,460.603,-253.974,138.023,136.850,53.630,-29.930
402,48813.208000,275.961,-39.577,50.605,463.476,-255.982,132.070,-260.150,-66.370,53.070
403,48813.248000,257.996,-37.573,60.527,464.383,-260.617,134.893,220.850,228.630,24.070
404,48813.288000,209.092,-4.509,60.527,465.420,-257.451,146.786,191.850,160.630,9.070
405,48813.336000,231.049,5.511,39.690,460.553,-258.465,146.750,34.850,185.630,127.070
406,48813.369000,228.055,41.581,77.395,461.478,-262.102,151.568,-160.150,267.630,79.070
407,48813.404000,206.097,25.550,69.457,458.536,-263.300,143.661,-436.150,56.630,-224.930
408,48813.444000,227.057,-24.548,88.310,461.537,-256.744,139.914,-436.150,-174.370,-348.930
409,48813.488000,272.967,-54.607,60.527,469.362,-251.250,129.261,-242.150,-223.370,-384.930
410,48813.508000,248.016,-24.548,54.574,470.404,-246.482,130.379,-47.150,125.630,-107.930
411,48813.549000,262.986,2.505,72.434,467.393,-253.169,129.204,-174.150,57.630,-78.930
412,48813.589000,242.027,5.511,62.512,472.349,-245.640,125.487,-291.150,20.630,-213.930
413,48813.629000,234.043,-24.548,78.388,477.263,-241.710,128.556,-61.150,103.630,-255.930
414,48813.669000,232.047,3.507,69.457,478.385,-231.295,128.847,51.850,40.630,-221.930
415,48813.716000,241.029,3.507,69.457,476.333,-238.887,128.633,157.850,-51.370,85.070
416,48813.749000,251.010,-5.511,47.628,478.310,-236.102,125.763,74.850,-96.370,257.070
417,48813.769000,255.002,14.528,61.519,473.243,-251.222,128.284,-84.150,82.630,226.070
418,48813.809000,238.035,4.509,83.349,467.496,-246.471,132.341,-154.150,242.630,48.070
419,48813.849000,239.033,-10.521,108.155,474.198,-252.180,127.276,-340.150,83.630,-106.930
420,48813.898000,261.988,-10.521,88.310,472.382,-243.670,128.493,-211.150,122.630,12.070
421,48813.931000,247.018,-19.538,96.248,467.380,-254.115,129.178,-206.150,213.630,48.070
422,48813.971000,254.004,-5.511,77.395,464.519,-251.187,134.172,-221.150,316.630,-14.930
423,48814.6000,236.039,-2.505,75.411,465.364,-259.711,132.953,-193.150,246.630,-27.930
424,48814.51000,226.058,-25.550,63.504,464.497,-253.000,137.073,-100.150,182.630,148.070
425,48814.72000,215.080,-32.564,82.357,463.427,-260.447,141.782,68.850,198.630,281.070
426,48814.106000,219.072,-21.542,79.380,454.513,-273.625,148.285,212.850,-4.370,271.070
427,48814.147000,224.062,-29.558,83.349,455.542,-269.776,150.361,275.850,-39.370,194.070
428,48814.194000,237.037,-29.558,84.341,450.715,-267.980,149.420,324.850,-151.370,168.070
429,48814.231000,248.016,-35.569,94.264,451.579,-275.479,151.180,245.850,-123.370,167.070
430,48814.271000,244.023,-29.558,97.240,449.693,-271.724,151.281,129.850,-2.370,174.070
431,48814.311000,233.045,-35.569,89.302,447.644,-279.290,152.051,96.850,-124.370,139.070
432,48814.352000,245.021,-44.587,70.450,446.667,-280.144,155.960,212.850,-127.370,62.070
433,48814.371000,241.029,-25.550,74.419,448.689,-274.469,155.137,273.850,76.630,29.070
434,48814.407000,219.072,-26.552,82.357,448.756,-270.528,161.149,261.850,171.630,-88.930
435,48814.448000,223.064,-21.542,103.194,452.596,-274.098,166.958,107.850,228.630,-147.930
436,48814.486000,227.057,-14.528,98.233,447.869,-266.391,175.033,54.850,242.630,-215.930
437,48814.553000,192.125,-8.517,90.295,452.838,-258.678,178.207,-149.150,95.630,-160.930
438,48814.568000,224.062,-38.575,85.333,454.810,-255.946,173.368,58.850,-206.370,-307.930
439,48814.611000,233.045,-3.507,99.225,471.504,-241.712,166.907,227.850,-376.370,-487.930
440,48814.651000,255.002,9.519,117.085,474.555,-232.188,168.160,21.850,7.630,-348.930
441,48814.672000,245.021,32.564,145.860,475.491,-234.932,171.036,-136.150,209.630,121.070
442,48814.706000,180.148,-9.519,83.349,464.694,-243.541,172.746,-51.150,38.630,303.070
443,48814.748000,220.070,2.505,61.519,469.533,-243.657,165.866,-231.150,-192.370,77.070
444,48814.788000,325.864,45.589,118.078,466.556,-248.373,167.697,-24.150,180.630,90.070
445,48814.829000,242.027,25.550,100.217,470.431,-248.424,163.767,-135.150,-87.370,-44.930
446,48814.877000,265.980,-20.540,69.457,471.368,-250.380,160.764,-281.150,-181.370,-288.930
447,48814.911000,208.094,-7.515,78.388,475.447,-236.272,156.245,-78.150,12.630,-189.930
448,48814.952000,212.086,5.511,52.589,477.287,-242.156,147.232,-213.150,-210.370,19.070
449,48814.966000,196.117,2.505,71.442,479.074,-252.583,144.978,-227.150,-50.370,179.070
450,48815.7000,229.053,-10.521,78.388,474.173,-255.567,141.936,-306.150,-221.370,155.070
451,48815.47000,242.027,-9.519,96.248,475.202,-250.957,137.147,-79.150,-122.370,77.070
452,48815.87000,254.004,-12.524,104.186,475.147,-253.978,130.178,-25.150,-276.370,133.070
453,48815.128000,277.957,-24.548,114.109,474.171,-254.832,134.087,181.850,-5.370,59.070
454,48815.168000,249.014,-31.562,123.039,477.053,-256.709,133.056,358.850,10.630,-83.930
455,48815.208000,227.057,-13.526,93.271,478.095,-252.702,141.038,437.850,-29.370,-191.930
456,48815.228000,220.070,1.503,86.326,482.080,-245.948,144.184,435.850,-26.370,-206.930
457,48815.267000,235.041,12.524,73.426,484.202,-233.601,145.514,257.850,-119.370,-67.930
458,48815.312000,264.982,-21.542,77.395,485.153,-235.374,149.401,283.850,-87.370,-51.930
459,48815.352000,252.008,-21.542,63.504,484.379,-222.096,151.736,417.850,2.630,-134.930
460,48815.387000,233.045,27.554,56.558,488.301,-219.992,157.703,347.850,23.630,-111.930
461,48815.427000,255.002,32.564,49.612,487.419,-214.253,160.812,241.850,-52.370,-60.930
462,48815.467000,239.033,9.519,72.434,486.425,-216.866,169.590,326.850,351.630,-70.930
463,48815.507000,204.101,28.556,76.403,482.502,-220.520,176.367,254.850,364.630,9.070
464,48815.528000,194.121,32.564,70.450,483.555,-215.593,183.391,-85.150,12.630,303.070
465,48815.571000,201.107,57.613,69.457,475.680,-222.507,176.300,-304.150,-272.370,414.070
466,48815.612000,268.975,42.583,86.326,477.424,-235.010,167.103,-442.150,-75.370,322.070
467,48815.647000,304.904,-75.648,156.775,472.544,-237.731,173.904,320.850,425.630,-183.930
468,48815.691000,246.020,-59.616,145.860,472.755,-225.017,189.996,433.850,242.630,-102.930
469,48815.732000,171.166,2.505,119.070,468.850,-226.884,192.888,420.850,-60.370,78.070
470,48815.772000,190.129,35.569,80.372,473.741,-224.031,191.009,97.850,-267.370,178.070
471,48815.811000,249.014,32.564,56.558,473.597,-232.805,180.928,-34.150,-262.370,182.070
472,48815.828000,270.971,6.513,57.550,473.644,-229.128,177.096,-23.150,-152.370,53.070
473,48815.868000,257.996,7.515,82.357,471.659,-232.018,176.029,132.850,-48.370,3.070
474,48815.907000,269.973,-0.501,68.465,475.613,-227.209,177.153,58.850,-129.370,-30.930
475,48815.947000,227.057,24.548,70.450,474.536,-234.735,178.909,47.850,101.630,-20.930
476,48815.987000,209.092,33.566,76.403,476.585,-227.169,178.139,-264.150,163.630,74.070
477,48816.28000,216.078,25.550,65.488,474.453,-239.647,171.887,-533.150,-159.370,148.070
478,48816.67000,252.008,-5.511,48.620,472.384,-247.477,162.813,-543.150,-39.370,63.070
479,48816.108000,250.012,-5.511,63.504,468.416,-252.471,154.799,-624.150,-16.370,-53.930
480,48816.128000,263.984,-43.585,80.372,473.248,-253.453,150.845,-420.150,149.630,-89.930
481,48816.168000,257.996,-51.601,85.333,470.424,-247.741,153.950,-150.150,193.630,-158.930
482,48816.208000,243.025,-2.505,57.550,469.511,-243.946,155.038,-114.150,160.630,-125.930
483,48816.248000,232.047,19.538,77.395,470.490,-243.827,158.977,-38.150,189.630,-124.930
484,48816.288000,230.051,-2.505,68.465,474.437,-239.097,157.148,-128.150,-19.370,-101.930
485,48816.328000,230.051,-4.509,68.465,479.345,-235.245,157.264,-5.150,-54.370,-77.930
486,48816.368000,249.014,0.501,78.388,474.506,-234.369,157.280,99.850,-30.370,34.070
487,48816.413000,244.023,7.515,91.287,476.329,-242.773,160.000,196.850,-26.370,101.070
488,48816.433000,252.008,5.511,89.302,470.564,-239.020,162.062,335.850,19.630,97.070
489,48816.472000,230.051,20.540,85.333,469.688,-233.202,168.124,463.850,34.630,134.070
490,48816.513000,206.097,30.560,85.333,466.720,-237.814,173.892,364.850,-154.370,234.070
491,48816.553000,215.080,14.528,106.171,468.618,-240.649,172.833,501.850,-266.370,205.070
492,48816.593000,264.982,-10.521,136.930,463.780,-239.746,173.834,546.850,-352.370,167.070
493,48816.633000,249.014,21.542,77.395,468.631,-239.704,172.859,219.850,-239.370,67.070
494,48816.673000,172.164,26.552,61.519,469.516,-245.416,170.735,-58.150,-88.370,-245.930
495,48816.692000,151.205,-15.530,75.411,476.553,-227.590,162.390,24.850,-243.370,-355.930
496,48816.733000,272.967,-59.616,71.442,481.424,-225.000,150.667,-2.150,-649.370,-276.930
497,48816.781000,281.949,-54.607,51.597,485.447,-214.675,146.043,-7.150,-100.370,-343.930
498,48816.808000,252.008,12.524,68.465,485.396,-217.643,141.042,-45.150,-311.370,-27.930
499,48816.849000,265.980,-19.538,49.612,481.507,-217.016,131.217,103.850,-311.370,275.070
500,48816.888000,309.895,-67.632,50.605,479.417,-227.419,131.908,272.850,-45.370,159.070
501,48816.934000,251.010,15.530,35.721,487.329,-217.721,137.109,301.850,-7.370,-167.930
502,48816.973000,225.060,66.630,32.744,489.271,-218.455,143.977,317.850,205.630,-194.930
503,48816.993000,251.010,11.523,65.488,486.452,-212.691,149.050,136.850,232.630,40.070
504,48817.39000,242.027,-24.548,65.488,481.603,-213.468,157.873,77.850,290.630,91.070
505,48817.73000,225.060,0.501,68.465,481.536,-218.170,158.726,182.850,26.630,60.070
506,48817.111000,256.000,54.607,87.318,482.534,-217.027,165.645,121.850,252.630,-73.930
507,48817.153000,250.012,55.609,90.295,482.619,-211.326,166.787,-362.150,150.630,58.070
508,48817.192000,243.025,1.503,51.597,476.601,-224.674,165.422,-302.150,-4.370,87.070
509,48817.233000,263.984,13.526,70.450,475.598,-226.632,163.399,-362.150,21.630,149.070
510,48817.273000,253.006,-4.509,57.550,468.644,-237.235,159.157,-470.150,178.630,230.070
511,48817.293000,241.029,-10.521,60.527,466.605,-243.909,157.985,-343.150,237.630,260.070
512,48817.333000,228.055,-1.503,62.512,458.791,-247.722,160.816,-436.150,164.630,305.070
513,48817.368000,224.062,-4.509,50.605,450.821,-261.229,154.526,-418.150,81.630,250.070
514,48817.408000,233.045,-27.554,48.620,451.734,-265.024,153.438,-317.150,71.630,230.070
515,48817.448000,231.049,-53.605,44.651,449.779,-265.997,153.408,-221.150,151.630,186.070
516,48817.491000,210.090,-27.554,68.465,447.756,-271.698,153.246,-209.150,29.630,37.070
517,48817.533000,233.045,-27.554,62.512,450.685,-269.898,148.383,-190.150,-207.370,-145.930
518,48817.573000,297.918,-26.552,72.434,453.612,-268.123,142.535,-326.150,-11.370,-344.930
519,48817.593000,240.031,-5.511,121.054,452.748,-261.386,147.639,-436.150,563.630,-245.930
520,48817.633000,205.099,-68.634,125.023,455.656,-261.397,145.677,-564.150,70.630,-129.930
521,48817.673000,260.990,-67.632,100.217,456.577,-264.326,141.662,-128.150,11.630,-68.930
522,48817.713000,274.963,21.542,82.357,456.526,-267.294,136.662,-222.150,-66.370,126.070
523,48817.753000,256.998,6.513,65.488,454.534,-271.051,138.521,-156.150,244.630,98.070
524,48817.791000,219.072,-38.575,81.364,453.563,-271.065,138.519,-50.150,63.630,-34.930
525,48817.831000,239.033,-46.591,73.426,455.455,-274.741,141.371,210.850,-54.370,-80.930
526,48817.851000,227.057,-49.597,69.457,458.479,-266.347,135.708,81.850,-250.370,24.070
527,48817.891000,267.977,-39.577,69.457,459.403,-270.011,139.542,206.850,105.630,-64.930
528,48817.931000,236.039,-17.534,97.240,460.517,-260.462,142.760,117.850,-18.370,-76.930
529,48817.971000,204.101,-44.587,37.705,457.513,-267.070,144.538,397.850,-31.370,-149.930
530,48818.11000,167.173,0.501,86.326,467.457,-251.565,153.839,326.850,93.630,-169.930
531,48818.58000,178.152,23.546,77.395,472.352,-247.898,147.064,270.850,-532.370,-340.930
532,48818.89000,230.051,1.503,104.186,481.256,-235.613,142.503,237.850,-196.370,-311.930
533,48818.129000,235.041,0.501,98.233,477.230,-245.965,146.142,-120.150,134.630,393.070
534,48818.149000,284.943,-30.560,86.326,471.381,-247.912,147.062,-15.150,155.630,587.070
535,48818.194000,282.947,-42.583,85.333,464.376,-263.007,151.548,47.850,116.630,367.070
536,48818.234000,284.943,-0.501,79.380,459.586,-259.188,155.581,398.850,44.630,249.070
537,48818.274000,270.971,28.556,99.225,462.441,-262.955,154.497,328.850,-342.370,113.070
538,48818.314000,285.942,14.528,55.566,463.528,-254.536,150.799,76.850,-263.370,-228.930
539,48818.363000,236.039,12.524,52.589,473.258,-252.560,148.903,16.850,19.630,-356.930
540,48818.391000,236.039,15.530,63.504,474.217,-253.466,149.863,-142.150,-13.370,-201.930
541,48818.431000,225.060,-8.517,56.558,474.348,-244.088,147.173,-146.150,65.630,-117.930
542,48818.451000,232.047,-6.513,51.597,478.156,-248.840,144.097,-108.150,55.630,-111.930
543,48818.491000,212.086,14.528,41.674,474.297,-247.057,142.172,-213.150,50.630,80.070
544,48818.533000,213.084,13.526,63.504,472.287,-251.812,142.037,-300.150,2.630,153.070
545,48818.573000,258.994,-54.607,145.860,472.330,-248.949,143.100,14.850,192.630,47.070
546,48818.628000,278.955,-59.616,143.876,471.347,-249.882,144.056,355.850,-128.370,-71.930
547,48818.649000,260.990,-17.534,79.380,473.407,-242.184,148.208,411.850,-67.370,-104.930
548,48818.689000,256.998,-11.523,83.349,475.480,-233.541,152.386,376.850,15.630,-256.930
549,48818.729000,251.010,4.509,44.651,483.363,-225.760,156.551,280.850,0.630,-371.930
550,48818.751000,244.023,15.530,46.636,483.444,-220.874,162.588,206.850,248.630,-420.930
551,48818.793000,247.018,16.532,74.419,490.496,-203.625,167.998,92.850,270.630,-419.930
552,48818.838000,219.072,10.521,42.667,489.571,-200.749,170.044,-48.150,132.630,-382.930
553,48818.873000,211.088,35.569,52.589,496.585,-185.523,170.479,-124.150,68.630,-303.930
554,48818.927000,213.084,42.583,56.558,494.593,-189.280,172.338,-188.150,89.630,-99.930
555,48818.952000,213.084,8.517,60.527,495.564,-189.267,172.340,-231.150,25.630,101.070
556,48818.992000,221.068,51.601,86.326,492.394,-206.461,166.939,-472.150,-24.370,298.070
557,48819.36000,253.006,13.526,91.287,486.419,-216.184,159.773,-618.150,-115.370,394.070
558,48819.56000,286.940,-14.528,127.008,484.378,-223.645,164.480,351.850,607.630,102.070
559,48819.96000,285.942,-13.526,168.682,476.729,-216.872,174.492,73.850,161.630,-130.930
560,48819.131000,243.025,15.530,120.062,475.861,-210.949,184.491,405.850,335.630,-93.930
561,48819.172000,214.082,-11.523,143.876,476.942,-204.131,191.568,337.850,87.630,94.070
562,48819.212000,202.105,5.511,82.357,477.757,-214.572,189.311,308.850,-176.370,158.070
563,48819.252000,245.021,32.564,58.543,477.911,-204.905,197.449,436.850,-25.370,51.070
564,48819.292000,217.076,29.558,64.496,473.928,-212.394,202.153,476.850,148.630,79.070
565,48819.321000,215.080,21.542,79.380,475.999,-203.777,205.347,196.850,-46.370,121.070
566,48819.356000,221.068,19.538,71.442,472.054,-208.481,208.160,199.850,77.630,117.070
567,48819.396000,207.096,28.556,88.310,464.302,-207.645,208.170,-47.150,-7.370,247.070
568,48819.436000,209.092,13.526,65.488,466.061,-219.963,205.863,-123.150,-196.370,277.070
569,48819.476000,242.027,15.530,57.550,463.103,-222.133,196.945,-269.150,-243.370,307.070
570,48819.516000,257.996,7.515,56.558,465.846,-232.731,187.803,-413.150,-189.370,125.070
571,48819.552000,234.043,-4.509,81.364,462.898,-234.768,183.807,-407.150,-89.370,107.070
572,48819.592000,278.955,-28.556,112.124,466.694,-239.678,174.824,-474.150,-50.370,132.070
573,48819.612000,257.996,-32.564,74.419,462.735,-244.567,170.747,-316.150,-56.370,33.070
574,48819.653000,249.014,-24.548,80.372,463.619,-250.280,168.622,-164.150,-55.370,11.070
575,48819.692000,231.049,-2.505,70.450,460.658,-253.263,164.600,-67.150,-179.370,83.070
576,48819.736000,254.004,4.509,77.395,463.493,-258.055,160.537,-144.150,-209.370,146.070
577,48819.774000,258.994,-0.501,74.419,459.614,-257.296,155.633,-87.150,-80.370,147.070
578,48819.816000,249.014,-33.566,98.233,462.543,-256.257,157.635,223.850,70.630,62.070
579,48819.857000,240.031,18.536,83.349,457.643,-260.003,161.457,240.850,-29.370,128.070
580,48819.891000,251.010,27.554,101.209,457.699,-256.982,168.426,336.850,231.630,155.070
581,48819.929000,212.086,9.519,98.233,449.844,-264.393,178.043,395.850,192.630,107.070
582,48819.959000,204.101,20.540,106.171,446.128,-253.836,186.199,236.850,122.630,18.070
583,48820.7000,240.031,22.544,103.194,450.903,-259.388,188.020,91.850,-98.370,-123.930
584,48820.37000,211.088,5.511,82.357,454.903,-250.901,185.312,2.850,-67.370,-428.930
585,48820.71000,154.199,-10.521,76.403,464.700,-243.462,175.699,-91.150,-448.370,-581.930
586,48820.117000,262.986,-57.613,68.465,473.641,-227.631,162.384,26.850,-825.370,-303.930
587,48820.156000,268.975,-68.634,65.488,479.473,-225.921,152.605,7.850,-334.370,-97.930
588,48820.194000,266.979,-23.546,73.426,477.560,-223.269,146.774,-13.150,-474.370,-81.930
589,48820.216000,272.967,-12.524,39.690,480.397,-227.274,136.831,133.850,-304.370,-24.930
590,48820.259000,258.994,-7.515,44.651,477.548,-223.427,140.868,257.850,-44.370,67.070
591,48820.293000,232.047,16.532,48.620,480.488,-221.495,140.927,230.850,32.630,42.070
592,48820.333000,231.049,29.558,47.628,477.484,-228.103,142.705,165.850,92.630,-27.930
593,48820.373000,233.045,28.556,58.543,480.417,-227.011,146.675,-63.150,53.630,104.070
594,48820.416000,238.035,4.509,37.705,478.502,-225.173,145.739,-219.150,123.630,249.070
595,48820.457000,259.992,-3.507,98.233,473.438,-240.240,150.229,-354.150,210.630,90.070
596,48820.496000,254.004,-1.503,87.318,473.515,-234.646,147.434,-332.150,87.630,-123.930
597,48820.514000,249.014,-9.519,70.450,468.687,-232.849,146.493,-213.150,279.630,-169.930
598,48820.557000,256.998,26.552,67.473,466.718,-234.768,146.436,-405.150,110.630,40.070
599,48820.618000,236.039,-0.501,75.411,465.669,-240.403,148.245,-492.150,230.630,105.070
600,48820.637000,228.055,-35.569,73.426,459.759,-246.212,146.106,-86.150,60.630,-20.930
601,48820.672000,231.049,-22.544,55.566,466.602,-242.412,143.272,-23.150,-62.370,39.070
602,48820.712000,226.058,2.505,55.566,467.492,-248.046,144.101,-81.150,82.630,186.070
603,48820.752000,224.062,-3.507,63.504,460.540,-258.623,140.844,-141.150,-106.370,300.070
604,48820.773000,242.027,-28.556,47.628,458.610,-256.970,133.018,-165.150,-246.370,227.070
605,48820.819000,249.014,-27.554,35.721,459.461,-264.653,127.888,-147.150,-54.370,117.070
606,48820.852000,232.047,-8.517,74.419,454.506,-272.181,131.604,-63.150,19.630,113.070
607,48820.892000,241.029,-63.624,75.411,457.531,-263.761,126.926,146.850,-185.370,-5.930
608,48820.939000,226.058,-28.556,47.628,456.433,-272.338,124.718,-158.150,-132.370,159.070
609,48820.973000,237.037,-21.542,52.589,454.535,-268.741,118.913,-63.150,-211.370,20.070
610,48821.13000,288.936,-38.575,58.543,458.450,-265.954,115.063,-76.150,-75.370,-162.930
611,48821.71000,277.957,-6.513,83.349,457.455,-268.595,122.856,-115.150,547.630,-18.930
612,48821.78000,234.043,-50.599,76.403,453.521,-272.379,124.712,-59.150,84.630,-1.930
613,48821.113000,264.982,-31.562,83.349,459.388,-269.434,125.787,-95.150,122.630,7.070
614,48821.156000,246.020,-40.579,82.357,453.503,-273.378,122.717,-122.150,24.630,93.070
615,48821.196000,282.947,-17.534,42.667,454.505,-271.420,124.740,-148.150,111.630,69.070
616,48821.241000,219.072,-9.519,75.411,449.541,-279.842,130.399,-145.150,559.630,49.070
617,48821.286000,202.105,-22.544,85.333,451.504,-278.763,134.367,-145.150,142.630,-66.930
618,48821.323000,229.053,-54.607,52.589,447.651,-277.662,142.260,82.850,371.630,-183.930
619,48821.357000,223.064,-17.534,89.302,451.685,-267.205,142.558,116.850,61.630,-226.930
620,48821.374000,230.051,-7.515,64.496,456.530,-268.003,145.494,106.850,135.630,-174.930
621,48821.412000,225.060,-9.519,64.496,460.564,-257.546,145.792,97.850,-107.370,-165.930
622,48821.452000,231.049,-4.509,54.574,463.458,-258.503,143.803,8.850,-178.370,-309.930
623,48821.493000,212.086,-19.538,61.519,468.482,-246.246,140.218,15.850,-115.370,-286.930
624,48821.537000,202.105,-23.546,118.078,475.350,-241.369,142.332,100.850,12.630,-230.930
625,48821.577000,220.070,-10.521,137.922,472.511,-236.630,144.427,-89.150,229.630,-64.930
626,48821.623000,205.099,40.579,122.047,469.424,-248.911,146.047,-171.150,270.630,443.070
627,48821.662000,233.045,-10.521,60.527,466.421,-254.732,141.946,-468.150,-366.370,232.070
628,48821.677000,342.830,13.526,70.450,468.348,-254.127,128.195,-317.150,-387.370,-173.930
629,48821.713000,312.889,31.562,93.271,467.281,-260.760,128.009,-14.150,54.630,-49.930
630,48821.753000,290.932,-21.542,50.605,474.249,-248.450,125.412,-35.150,-68.370,-103.930
631,48821.798000,250.012,-16.532,58.543,474.237,-250.131,133.234,132.850,342.630,-165.930
632,48821.833000,211.088,1.503,66.481,478.204,-244.375,134.385,-26.150,81.630,-21.930
633,48821.873000,197.115,3.507,50.605,473.235,-252.850,138.075,-19.150,75.630,134.070
634,48821.923000,187.135,-7.515,61.519,471.276,-253.875,136.076,-70.150,-66.370,249.070
635,48821.956000,208.094,17.534,62.512,468.159,-266.552,122.931,-322.150,-272.370,362.070
636,48821.982000,253.006,-8.517,114.109,460.292,-273.360,119.778,-204.150,-217.370,314.070
637,48822.17000,323.867,-128.751,113.116,459.360,-270.564,118.870,254.850,-108.370,75.070
638,48822.57000,248.016,-47.593,86.326,460.447,-263.667,128.900,513.850,306.630,-194.930
639,48822.104000,239.033,57.613,81.364,465.264,-266.383,130.800,333.850,-162.370,-200.930
640,48822.139000,274.963,-1.503,72.434,472.243,-253.153,127.245,191.850,-189.370,-222.930
641,48822.176000,270.971,-25.550,72.434,477.076,-254.870,131.140,255.850,-39.370,-360.930
642,48822.218000,261.988,-7.515,65.488,485.134,-234.849,133.678,305.850,20.630,-442.930
643,48822.238000,238.035,6.513,36.713,486.188,-229.923,140.702,267.850,274.630,-320.930
644,48822.279000,209.092,8.517,64.496,489.329,-216.169,158.795,332.850,424.630,-325.930
645,48822.314000,199.111,9.519,77.395,486.456,-214.161,164.747,534.850,351.630,-304.930
646,48822.354000,217.076,39.577,87.318,485.689,-201.566,176.900,346.850,163.630,55.070
647,48822.398000,234.043,37.573,94.264,482.608,-213.768,181.473,29.850,163.630,237.070
648,48822.438000,229.053,12.524,92.279,479.686,-214.703,183.409,56.850,73.630,54.070
649,48822.479000,251.010,21.542,100.217,477.753,-214.625,187.343,216.850,-6.370,-23.930
650,48822.517000,256.998,21.542,117.085,476.005,-202.175,194.571,469.850,232.630,-42.930
651,48822.539000,256.998,-2.505,117.085,474.115,-199.995,206.432,513.850,319.630,29.070
652,48822.574000,223.064,23.546,106.171,471.290,-195.071,215.417,317.850,257.630,-37.930
653,48822.614000,205.099,34.568,98.233,474.243,-192.955,222.366,385.850,211.630,-90.930
654,48822.657000,217.076,32.564,94.264,471.383,-190.027,227.361,314.850,134.630,98.070
655,48822.706000,225.060,18.536,81.364,465.616,-187.062,235.302,326.850,161.630,103.070
656,48822.733000,226.058,43.585,85.333,463.661,-188.797,242.136,154.850,60.630,144.070
657,48822.773000,227.057,36.571,86.326,463.640,-190.609,245.036,106.850,116.630,178.070
658,48822.813000,217.076,27.554,92.279,459.647,-198.229,244.818,40.850,81.630,199.070
659,48822.833000,215.080,36.571,73.426,454.776,-199.296,242.813,-147.150,-54.370,175.070
660,48822.879000,228.055,14.528,78.388,452.719,-206.968,239.645,-188.150,-127.370,115.070
661,48822.919000,231.049,13.526,74.419,455.511,-214.623,234.519,-193.150,-183.370,116.070
662,48822.954000,215.080,8.517,78.388,456.456,-215.713,228.588,-189.150,-192.370,267.070
663,48823.2000,213.084,-3.507,97.240,456.387,-219.680,221.593,-119.150,-241.370,310.070
664,48823.36000,223.064,9.519,124.031,454.323,-227.430,215.472,92.850,-380.370,287.070
665,48823.76000,231.049,4.509,109.147,456.168,-233.261,208.427,193.850,-574.370,176.070
666,48823.118000,225.060,11.523,102.202,458.174,-227.796,199.730,356.850,-588.370,-80.930
667,48823.138000,218.074,25.550,80.372,465.077,-218.612,186.227,-158.150,-581.370,-109.930
668,48823.189000,222.066,28.556,78.388,471.813,-221.590,177.303,-150.150,-317.370,-295.930
669,48823.219000,244.023,-53.605,72.434,476.816,-209.597,163.874,175.850,-857.370,-258.930
670,48823.259000,325.864,-69.636,54.574,481.679,-207.874,155.078,362.850,-606.370,80.070
671,48823.299000,312.889,26.552,64.496,480.660,-211.591,157.924,522.850,-119.370,353.070
672,48823.339000,275.961,23.546,40.682,478.596,-220.103,158.667,205.850,42.630,506.070
673,48823.379000,254.004,16.532,54.574,467.753,-232.389,164.209,-122.150,201.630,538.070
674,48823.419000,216.078,-16.532,66.481,463.652,-247.548,164.764,-331.150,309.630,284.070
675,48823.439000,208.094,-25.550,69.457,455.892,-246.818,160.837,-414.150,16.630,-38.930
676,48823.479000,221.068,-23.546,57.550,460.818,-241.207,156.083,-472.150,-62.370,-183.930
677,48823.519000,244.023,-15.530,60.527,464.653,-243.306,146.195,-449.150,-156.370,-80.930
678,48823.559000,258.994,-22.544,29.767,465.598,-244.396,140.265,-520.150,41.630,-37.930
679,48823.606000,230.051,-33.566,57.550,466.423,-253.944,136.066,-252.150,62.630,-165.930
680,48823.636000,258.994,-22.544,47.628,471.455,-241.582,136.418,-48.150,81.630,-256.930
681,48823.676000,259.992,36.571,66.481,469.457,-246.180,142.189,-183.150,189.630,-31.930
682,48823.719000,233.045,4.509,62.512,468.493,-246.115,145.140,-74.150,227.630,68.070
683,48823.739000,248.016,-27.554,68.465,469.455,-246.968,148.068,87.850,110.630,6.070
684,48823.779000,240.031,13.526,57.550,468.567,-241.307,148.224,-82.150,72.630,39.070
685,48823.819000,234.043,-29.558,57.550,463.659,-245.159,148.109,102.850,10.630,137.070
686,48823.854000,242.027,-12.524,47.628,461.737,-244.162,151.084,71.850,-1.370,214.070
687,48823.896000,232.047,4.509,49.612,458.619,-258.387,150.683,-40.150,-72.370,255.070
688,48823.936000,241.029,-6.513,27.783,458.664,-254.736,145.867,-151.150,-190.370,170.070
689,48823.974000,262.986,-12.524,41.674,456.621,-261.462,142.726,-259.150,75.630,-12.930
690,48823.994000,239.033,-11.523,55.566,456.654,-258.731,138.867,-338.150,-49.370,-37.930
691,48824.39000,230.051,-61.620,54.574,463.379,-262.601,131.886,-132.150,-103.370,-66.930
692,48824.79000,245.021,-38.575,62.512,463.444,-257.926,130.049,-170.150,-36.370,-27.930
693,48824.119000,296.920,14.528,74.419,461.442,-261.815,126.986,-236.150,32.630,15.070
694,48824.154000,254.004,-28.556,73.426,455.494,-270.408,126.737,-517.150,193.630,42.070
695,48824.197000,248.016,-25.550,58.543,461.314,-270.378,124.781,-435.150,327.630,-81.930
696,48824.238000,243.025,-21.542,72.434,457.472,-267.596,124.852,-409.150,131.630,-87.930
697,48824.279000,257.996,-62.622,33.736,455.566,-264.866,121.973,-236.150,-36.370,-132.930
698,48824.299000,250.012,-71.640,77.395,455.535,-267.571,126.816,223.850,142.630,-96.930
699,48824.344000,280.951,-71.640,120.062,465.381,-257.951,128.084,320.850,-175.370,-121.930
700,48824.379000,251.010,-83.663,53.581,467.364,-255.087,128.167,560.850,-505.370,-141.930
701,48824.419000,241.029,-27.554,10.915,473.269,-250.118,134.217,747.850,194.630,9.070
702,48824.467000,120.265,39.577,86.326,471.411,-245.994,148.099,757.850,287.630,-399.930
703,48824.501000,67.368,94.685,72.434,477.512,-227.734,156.486,486.850,116.630,-305.930
704,48824.542000,201.107,136.767,118.078,481.193,-239.501,138.460,-1118.150,-692.370,202.070
705,48824.582000,493.536,-111.718,28.775,473.329,-243.972,116.683,-670.150,-471.370,300.070
706,48824.602000,249.014,-73.644,50.605,474.268,-247.425,128.392,279.850,460.630,-24.930
707,48824.641000,310.893,12.524,109.147,469.516,-241.583,137.399,387.850,20.630,136.070
708,48824.681000,287.938,51.601,-10.915,472.410,-243.302,142.274,127.850,-17.370,-152.930
709,48824.721000,227.057,34.568,41.674,478.484,-226.933,150.608,119.850,392.630,-483.930
710,48824.762000,191.127,5.511,37.705,480.382,-229.769,149.549,-202.150,160.630,-353.930
711,48824.796000,226.058,18.536,29.767,486.237,-226.981,144.718,-383.150,16.630,-147.930
712,48824.837000,243.025,17.534,27.783,487.224,-225.995,145.731,-632.150,154.630,-139.930
713,48824.887000,225.060,12.524,27.783,485.304,-224.210,142.826,-593.150,246.630,-14.930
714,48824.901000,210.090,-0.501,57.550,479.281,-237.611,139.493,-811.150,301.630,263.070
715,48824.939000,293.926,-40.579,136.930,473.461,-237.640,141.449,-522.150,359.630,-2.930
716,48824.984000,199.111,-25.550,130.977,477.238,-244.337,136.351,-593.150,-93.370,-88.930
717,48825.19000,240.031,17.534,79.380,476.273,-244.271,139.302,-492.150,358.630,78.070
718,48825.59000,226.058,21.542,118.078,474.369,-241.515,137.409,-487.150,255.630,-149.930
719,48825.99000,243.025,-20.540,140.899,478.124,-249.262,128.347,-304.150,104.630,-229.930
720,48825.138000,218.074,-19.538,125.023,478.222,-242.616,129.516,-189.150,-103.370,-167.930
721,48825.178000,227.057,20.540,128.000,478.257,-239.858,126.642,239.850,-86.370,-37.930
722,48825.199000,268.975,-4.509,123.039,483.091,-240.814,123.672,124.850,-318.370,-23.930
723,48825.239000,271.969,-44.587,101.209,483.244,-230.385,124.946,346.850,-110.370,-157.930
724,48825.278000,239.033,-55.609,97.240,486.253,-225.247,138.865,491.850,319.630,-112.930
725,48825.317000,195.119,-62.622,41.674,483.457,-218.406,148.886,606.850,163.630,-70.930
726,48825.357000,189.131,-14.528,62.512,487.480,-210.391,163.870,999.850,46.630,-79.930
727,48825.399000,259.992,26.552,71.442,482.611,-211.432,162.850,640.850,-349.370,33.070
728,48825.439000,258.994,1.503,19.845,487.600,-202.694,169.003,727.850,18.630,40.070
729,48825.461000,218.074,38.575,63.504,481.848,-199.545,183.835,639.850,238.630,139.070
730,48825.501000,212.086,35.569,67.473,477.989,-198.523,188.775,407.850,106.630,313.070
731,48825.542000,217.076,46.591,78.388,477.842,-208.872,190.454,81.850,-61.370,318.070
732,48825.577000,255.002,71.640,68.465,475.880,-209.924,187.470,-190.150,-218.370,202.070
733,48825.617000,268.975,-2.505,64.496,472.831,-218.660,180.337,-195.150,-81.370,97.070
734,48825.666000,246.020,-1.503,93.271,468.028,-214.999,178.464,18.850,29.630,59.070
735,48825.697000,242.027,23.546,114.109,472.780,-222.390,182.200,-84.150,106.630,75.070
736,48825.753000,259.992,10.521,131.969,467.062,-215.722,187.294,429.850,202.630,-80.930
737,48825.761000,212.086,-39.577,146.853,462.290,-211.666,200.186,674.850,232.630,-64.930
738,48825.802000,136.234,10.521,71.442,464.334,-204.940,203.327,580.850,-264.370,351.070
739,48825.842000,249.014,22.544,50.605,462.186,-218.390,196.064,175.850,-558.370,642.070
740,48825.877000,299.914,35.569,57.550,465.019,-223.209,191.017,46.850,-281.370,457.070
741,48825.917000,265.980,22.544,52.589,467.775,-232.861,181.901,-354.150,-299.370,-124.930
742,48825.962000,269.973,-9.519,70.450,465.914,-227.241,181.070,-268.150,19.630,-87.930
743,48826.1000,275.961,-6.513,72.434,459.967,-235.834,180.821,-307.150,398.630,106.070
744,48826.39000,226.058,-11.523,73.426,456.185,-229.979,189.830,-309.150,601.630,35.070
745,48826.62000,236.039,30.560,73.426,453.139,-239.423,191.530,-508.150,407.630,-176.930
746,48826.102000,233.045,3.507,50.605,457.945,-242.271,188.508,-756.150,240.630,-276.930
747,48826.137000,219.072,-22.544,48.620,453.039,-245.334,182.513,-847.150,129.630,-153.930
748,48826.181000,291.930,-29.558,74.419,456.895,-246.383,176.588,-794.150,277.630,-318.930
749,48826.221000,248.016,-12.524,93.271,453.977,-246.503,173.629,-501.150,232.630,-399.930
750,48826.257000,226.058,-5.511,86.326,457.942,-240.774,173.795,-440.150,113.630,-215.930
751,48826.301000,224.062,-23.546,76.403,461.831,-239.879,169.892,-51.150,-26.370,-43.930
752,48826.341000,227.057,0.501,79.380,465.699,-240.008,163.010,-50.150,-355.370,-14.930
753,48826.374000,264.982,35.569,117.085,465.705,-239.168,159.099,449.850,-77.370,-10.930
754,48826.402000,234.043,-13.526,123.039,464.764,-238.025,166.998,542.850,-261.370,26.070
755,48826.444000,215.080,17.534,86.326,467.670,-238.063,164.051,425.850,-279.370,86.070
756,48826.477000,198.113,51.601,103.194,460.795,-243.807,164.863,152.850,-3.370,-54.930
757,48826.524000,174.160,-15.530,113.116,469.723,-230.444,165.250,26.850,-50.370,-212.930
758,48826.557000,285.942,-88.673,103.194,475.469,-235.221,160.209,262.850,-334.370,-336.930
759,48826.597000,299.914,-56.611,101.209,477.659,-218.146,161.671,315.850,-14.370,-89.930
760,48826.643000,236.039,5.511,102.202,471.746,-225.531,171.292,271.850,150.630,290.070
761,48826.657000,240.031,-9.519,71.442,467.914,-222.617,176.284,196.850,115.630,145.070
762,48826.697000,215.080,2.505,75.411,469.818,-225.374,178.178,153.850,34.630,58.070
763,48826.737000,186.136,2.505,40.682,466.834,-230.196,176.072,260.850,-206.370,104.070
764,48826.783000,208.094,-5.511,62.512,471.816,-220.776,172.408,222.850,-279.370,34.070
765,48826.823000,230.051,19.538,78.388,475.701,-219.933,166.536,155.850,-342.370,-161.930
766,48826.858000,247.018,33.566,84.341,477.655,-218.199,159.702,25.850,-353.370,-288.930
767,48826.898000,288.936,58.614,114.109,480.667,-210.724,154.997,-305.150,-128.370,-6.930
768,48826.918000,278.955,49.597,100.217,478.513,-224.254,144.781,-734.150,39.630,106.070
769,48826.962000,247.018,-9.519,92.279,480.429,-225.330,138.853,-665.150,106.630,71.070
770,48827.31000,218.074,-63.624,69.457,478.305,-237.703,136.538,-374.150,-7.370,138.070
771,48827.46000,207.096,-62.622,65.488,472.492,-236.867,135.568,223.850,-52.370,320.070
772,48827.79000,246.020,-14.528,34.729,471.330,-250.881,142.061,239.850,44.630,382.070
773,48827.119000,232.047,18.536,63.504,465.547,-248.887,148.992,105.850,193.630,205.070
774,48827.158000,209.092,12.524,80.372,463.467,-258.398,147.740,-145.150,92.630,153.070
775,48827.198000,258.994,-57.613,102.202,457.688,-255.591,149.776,-189.150,-3.370,14.070
776,48827.218000,231.049,-47.593,72.434,461.596,-253.671,148.852,-47.150,69.630,96.070
777,48827.264000,204.101,-20.540,30.760,456.688,-257.522,148.737,240.850,-29.370,176.070
778,48827.298000,263.984,-1.503,90.295,459.612,-257.323,154.649,513.850,-37.370,5.070
779,48827.339000,276.959,-1.503,124.031,456.718,-256.366,156.638,497.850,-153.370,152.070
780,48827.379000,276.959,59.616,63.504,455.788,-254.304,163.579,176.850,78.630,180.070
781,48827.421000,217.076,7.515,92.279,454.793,-256.944,171.373,122.850,227.630,15.070
782,48827.462000,222.066,-21.542,94.264,458.750,-251.320,167.602,22.850,-67.370,-166.930
783,48827.502000,223.064,-6.513,59.535,454.873,-251.296,170.547,327.850,-34.370,-187.930
784,48827.522000,243.025,-8.517,75.411,460.835,-241.758,170.822,234.850,-64.370,-75.930
785,48827.563000,278.955,-14.528,58.543,457.946,-240.722,175.764,208.850,193.630,32.070
786,48827.603000,249.014,-16.532,80.372,455.049,-240.579,182.648,195.850,221.630,-2.930
787,48827.654000,238.035,-16.532,67.473,453.112,-241.315,191.477,177.850,107.630,-22.930
788,48827.682000,235.041,-2.505,61.519,457.935,-243.164,190.450,202.850,91.630,-5.930
789,48827.719000,197.115,-7.515,56.558,454.138,-238.280,198.448,310.850,106.630,-148.930
790,48827.762000,210.090,29.558,83.349,458.256,-222.884,206.752,361.850,246.630,-176.930
791,48827.802000,236.039,36.571,139.907,459.253,-221.767,212.687,288.850,169.630,-138.930
792,48827.821000,263.984,21.542,112.124,455.445,-217.015,215.763,212.850,-19.370,-279.930
793,48827.863000,234.043,15.530,98.233,452.665,-208.440,219.932,54.850,187.630,-25.930
794,48827.902000,210.090,5.511,102.202,454.581,-211.039,227.731,24.850,257.630,212.070
795,48827.944000,209.092,-2.505,111.132,449.588,-219.829,219.610,-180.150,-213.370,193.070
796,48827.978000,257.996,8.517,97.240,452.431,-224.516,219.484,-192.150,161.630,114.070
797,48828.19000,237.037,8.517,116.093,451.476,-223.557,220.493,-219.150,203.630,152.070
798,48828.71000,199.111,15.530,96.248,444.503,-235.947,220.136,-219.150,-48.370,58.070
799,48828.99000,226.058,4.509,71.442,446.448,-235.105,215.245,-284.150,-177.370,-19.930
800,48828.119000,253.006,-10.521,84.341,453.334,-227.681,206.611,-54.150,-60.370,-82.930
801,48828.159000,244.023,-26.552,82.357,450.212,-241.959,204.241,-186.150,-230.370,147.070
802,48828.203000,253.006,-40.579,71.442,450.269,-237.389,198.467,-187.150,-257.370,273.070
803,48828.243000,240.031,-30.560,58.543,452.104,-244.113,193.365,131.850,-286.370,143.070
804,48828.281000,254.004,-18.536,60.527,452.994,-249.746,194.193,224.850,-202.370,100.070
805,48828.323000,246.020,6.513,70.450,449.109,-249.828,193.201,190.850,4.630,128.070
806,48828.359000,238.035,3.507,67.473,447.272,-243.130,197.318,194.850,107.630,109.070
807,48828.384000,238.035,-25.550,85.333,450.179,-243.930,201.235,170.850,-7.370,-20.930
808,48828.419000,248.016,-19.538,74.419,446.312,-243.013,202.238,104.850,0.630,-36.930
809,48828.459000,225.060,-6.513,73.426,453.150,-240.053,203.315,181.850,-46.370,16.070
810,48828.499000,219.072,-12.524,77.395,454.163,-236.415,197.517,113.850,-209.370,-44.930
811,48828.539000,219.072,-0.501,78.388,459.028,-235.427,196.569,98.850,-255.370,-69.930
812,48828.579000,227.057,3.507,84.341,458.992,-236.662,185.715,-198.150,-366.370,8.070
813,48828.627000,260.990,-4.509,98.233,465.690,-242.424,178.680,-303.150,-23.370,-135.930
814,48828.661000,182.144,17.534,111.132,461.932,-234.729,185.773,-122.150,508.630,-138.930
815,48828.681000,105.294,8.517,68.465,456.024,-241.273,191.483,-186.150,219.630,476.070
816,48828.723000,269.973,5.511,96.248,452.791,-261.594,175.175,-593.150,-678.370,738.070
817,48828.763000,483.556,20.540,55.566,451.675,-268.859,151.364,-300.150,-889.370,202.070
818,48828.803000,312.889,-10.521,27.783,452.595,-272.575,153.229,85.850,88.630,-227.930
819,48828.843000,229.053,-9.519,55.566,457.637,-259.320,151.639,-133.150,-44.370,-355.930
820,48828.897000,226.058,40.579,51.597,464.418,-260.170,151.627,-324.150,73.630,-334.930
821,48828.922000,209.092,18.536,35.721,461.493,-259.608,138.851,-718.150,-96.370,-44.930
822,48828.961000,250.012,-52.603,47.628,465.256,-267.249,133.727,-559.150,182.630,35.070
823,48828.981000,248.016,-34.568,74.419,461.371,-267.331,132.734,-456.150,124.630,47.070
824,48829.23000,260.990,-13.526,63.504,462.226,-274.961,129.573,-354.150,175.630,28.070
825,48829.61000,251.010,-28.556,95.256,462.397,-263.534,132.842,-65.150,184.630,-176.930
826,48829.116000,253.006,-13.526,66.481,460.462,-263.483,135.791,-54.150,107.630,-211.930
827,48829.143000,247.018,-20.540,56.558,464.454,-255.863,136.009,-20.150,155.630,-187.930
828,48829.183000,255.002,-44.587,78.388,466.364,-258.541,140.856,166.850,221.630,-183.930
829,48829.219000,242.027,-21.542,79.380,463.500,-256.427,150.746,218.850,279.630,-133.930
830,48829.261000,227.057,-20.540,76.403,464.613,-247.666,159.844,324.850,214.630,-157.930
831,48829.283000,239.033,-6.513,71.442,467.676,-237.984,167.004,356.850,163.630,-150.930
832,48829.322000,237.037,13.526,58.543,471.581,-236.878,170.976,297.850,119.630,-137.930
833,48829.362000,222.066,21.542,66.481,471.730,-227.264,177.145,173.850,112.630,-94.930
834,48829.402000,216.078,25.550,64.496,471.714,-228.236,176.134,-14.150,26.630,-39.930
835,48829.444000,212.086,33.566,59.535,471.750,-225.478,173.260,-272.150,-140.370,46.070
836,48829.486000,233.045,24.548,65.488,464.703,-241.887,163.940,-412.150,-191.370,175.070
837,48829.526000,279.953,-47.593,114.109,468.501,-247.532,162.805,-133.150,-31.370,132.070
838,48829.566000,292.928,-56.611,151.814,467.607,-242.712,166.872,269.850,251.630,-124.930
839,48829.586000,208.094,-15.530,126.016,467.801,-230.996,180.969,441.850,364.630,-140.930
840,48829.626000,165.177,17.534,95.256,469.697,-234.620,185.789,275.850,-11.370,-9.930
841,48829.664000,218.074,18.536,73.426,469.754,-230.049,180.015,-7.150,-322.370,86.070
842,48829.706000,246.020,11.523,69.457,471.634,-233.883,176.961,13.850,-115.370,86.070
843,48829.746000,255.002,22.544,67.473,470.639,-234.974,172.011,-73.150,-241.370,193.070
844,48829.786000,275.961,3.507,70.450,467.696,-236.959,169.983,-30.150,-95.370,-14.930
845,48829.826000,262.986,8.517,87.318,466.818,-230.406,168.197,54.850,-82.370,-103.930
846,48829.866000,242.027,22.544,58.543,471.637,-232.308,165.201,-92.150,-35.370,-92.930
847,48829.899000,229.053,14.528,69.457,467.772,-231.365,167.188,-152.150,259.630,-69.930
848,48829.922000,202.105,16.532,57.550,471.549,-238.061,162.090,-535.150,-42.370,26.070
849,48829.988000,221.068,21.542,36.713,468.552,-243.041,154.078,-858.150,-187.370,160.070
850,48830.4000,274.963,1.503,58.543,466.459,-251.948,140.056,-987.150,64.630,52.070
851,48830.46000,276.959,-29.558,81.364,468.309,-257.699,135.965,-731.150,241.630,-218.930
852,48830.91000,226.058,-33.566,71.442,472.198,-256.804,132.062,-631.150,223.630,-238.930
853,48830.127000,220.070,-23.546,114.109,465.425,-255.088,129.147,-405.150,270.630,-155.930
854,48830.141000,234.043,-27.554,108.155,467.435,-250.332,129.283,-315.150,-3.370,17.070
855,48830.188000,249.014,-19.538,88.310,467.230,-264.490,129.872,-103.150,191.630,-41.930
856,48830.222000,238.035,-17.534,96.248,466.442,-252.158,132.181,8.850,136.630,-54.930
857,48830.261000,225.060,-21.542,96.248,469.317,-254.901,134.077,186.850,80.630,-2.930
858,48830.302000,228.055,-3.507,91.287,469.431,-247.283,136.256,247.850,-46.370,63.070
859,48830.358000,238.035,-11.523,88.310,465.460,-253.853,140.001,408.850,-111.370,80.070
860,48830.384000,245.021,-1.503,87.318,465.555,-248.021,146.065,442.850,-172.370,98.070
861,48830.426000,243.025,17.534,89.302,463.517,-254.668,145.877,410.850,-142.370,100.070
862,48830.446000,247.018,-1.503,103.194,464.632,-245.119,149.095,585.850,-94.370,76.070
863,48830.486000,242.027,-6.513,112.124,463.726,-241.980,160.984,788.850,-35.370,61.070
864,48830.524000,210.090,15.530,71.442,460.772,-245.645,166.779,595.850,12.630,119.070
865,48830.563000,202.105,30.560,77.395,457.968,-238.909,172.863,433.850,-116.370,187.070
866,48830.603000,198.113,21.542,84.341,458.943,-238.843,174.834,403.850,-171.370,115.070
867,48830.643000,211.088,-10.521,91.287,462.737,-244.541,171.731,242.850,-206.370,-64.930
868,48830.683000,217.076,-1.503,88.310,463.874,-233.153,173.034,270.850,-16.370,-126.930
869,48830.729000,189.131,-14.528,85.333,461.943,-232.287,171.087,122.850,-362.370,-70.930
870,48830.744000,257.996,-34.568,64.496,461.874,-236.254,164.091,56.850,-559.370,10.070
871,48830.784000,285.942,4.509,33.736,470.680,-229.853,151.497,18.850,-512.370,17.070
872,48830.823000,284.943,3.507,73.426,472.532,-234.817,141.526,-126.150,-251.370,68.070
873,48830.868000,286.940,-37.573,65.488,468.742,-228.306,139.734,-0.150,-9.370,-29.930
874,48830.903000,244.023,4.509,59.535,470.577,-235.790,141.496,-22.150,-49.370,-13.930
875,48830.952000,244.023,20.540,44.651,470.664,-230.064,143.623,27.850,127.630,59.070
876,48830.993000,235.041,5.511,75.411,463.867,-230.948,149.488,-46.150,246.630,35.070
877,48831.27000,242.027,2.505,73.426,472.591,-231.743,150.464,-199.150,44.630,-84.930
878,48831.47000,237.037,8.517,62.512,462.853,-233.825,148.423,-376.150,30.630,-39.930
879,48831.82000,245.021,1.503,78.388,467.671,-235.753,144.443,-493.150,85.630,3.070
880,48831.123000,256.998,-10.521,55.566,466.647,-238.761,138.456,-475.150,-3.370,36.070
881,48831.173000,253.006,-12.524,58.543,469.429,-247.310,135.272,-474.150,123.630,100.070
882,48831.208000,245.021,-5.511,46.636,463.499,-254.143,130.154,-405.150,50.630,57.070
883,48831.242000,243.025,-7.515,69.457,456.673,-256.183,128.118,-438.150,176.630,84.070
884,48831.282000,224.062,-14.528,56.558,456.498,-267.663,122.881,-346.150,123.630,146.070
885,48831.323000,231.049,-22.544,63.504,455.641,-260.059,125.058,-323.150,128.630,153.070
886,48831.343000,245.021,-11.523,75.411,450.627,-270.661,119.837,-486.150,78.630,71.070
887,48831.387000,247.018,-34.568,75.411,455.527,-266.915,116.015,-623.150,199.630,-68.930
888,48831.427000,237.037,-50.599,59.535,455.389,-275.610,108.887,-630.150,84.630,-103.930
889,48831.467000,222.066,-42.583,78.388,453.508,-271.015,105.078,-324.150,119.630,-100.930
890,48831.508000,232.047,-25.550,83.349,454.388,-276.780,100.984,-430.150,-119.370,-22.930
891,48831.542000,257.996,-12.524,79.380,453.341,-280.866,90.049,-587.150,-50.370,41.070
892,48831.582000,241.029,-52.603,66.481,455.284,-280.051,84.173,-417.150,-22.370,14.070
893,48831.602000,249.014,-44.587,79.380,456.325,-275.283,85.291,-276.150,177.630,0.070
894,48831.642000,245.021,-23.546,87.318,452.285,-285.818,82.041,-377.150,74.630,20.070
895,48831.682000,247.018,-21.542,75.411,457.270,-276.372,79.361,-284.150,213.630,-78.930
896,48831.722000,222.066,-33.566,83.349,454.210,-286.002,74.170,-354.150,70.630,-60.930
897,48831.762000,230.051,-58.614,55.566,458.183,-279.406,71.409,-264.150,-78.370,-21.930
898,48831.803000,245.021,-41.581,69.457,456.171,-284.188,70.289,-19.150,70.630,-47.930
899,48831.848000,224.062,-23.546,52.589,458.226,-276.543,72.473,27.850,53.630,-117.930
900,48831.882000,243.025,-32.564,66.481,461.133,-277.342,76.390,164.850,20.630,-157.930
901,48831.902000,257.996,-28.556,74.419,464.163,-269.630,80.544,259.850,148.630,-162.930
902,48831.942000,248.016,-36.571,88.310,461.228,-272.272,89.318,361.850,175.630,-76.930
903,48831.994000,243.025,-12.524,89.302,462.334,-263.589,95.463,287.850,73.630,77.070
904,48832.28000,240.031,-5.511,82.357,462.248,-270.077,100.200,265.850,30.630,55.070
905,48832.69000,229.053,-36.571,78.388,458.470,-263.407,104.314,303.850,-49.370,61.070
906,48832.103000,241.029,-25.550,69.457,462.333,-265.138,108.207,349.850,-26.370,70.070
907,48832.149000,223.064,-19.538,66.481,460.421,-263.248,109.240,359.850,-152.370,90.070
908,48832.183000,237.037,-44.587,57.550,465.280,-263.100,112.203,302.850,-157.370,65.070
909,48832.203000,238.035,-42.583,78.388,465.251,-265.018,111.166,217.850,-78.370,-35.930
910,48832.251000,238.035,-36.571,90.295,468.263,-258.305,113.325,291.850,-59.370,-147.930
911,48832.284000,226.058,-57.613,90.295,469.338,-251.566,117.448,500.850,-93.370,-343.930
912,48832.324000,201.107,-17.534,156.775,477.286,-239.872,126.640,362.850,262.630,-313.930
913,48832.378000,201.107,21.542,168.682,474.306,-244.641,126.502,3.850,7.630,115.070
914,48832.407000,187.135,12.524,111.132,469.348,-252.196,129.234,148.850,23.630,398.070
915,48832.447000,200.109,-32.564,48.620,466.348,-257.990,126.117,142.850,-341.370,390.070
916,48832.488000,308.897,12.524,72.434,469.295,-255.191,123.249,288.850,-261.370,154.070
917,48832.503000,294.924,48.595,85.333,466.372,-256.913,131.065,328.850,3.630,43.070
918,48832.544000,240.031,15.530,51.597,472.233,-254.046,129.188,224.850,-110.370,-70.930
919,48832.586000,249.014,-0.501,75.411,470.288,-254.887,134.079,225.850,159.630,-111.930
920,48832.627000,248.016,32.564,77.395,470.231,-258.696,132.989,-90.150,105.630,138.070
921,48832.667000,223.064,-10.521,62.512,470.085,-268.258,128.789,-307.150,58.630,137.070
922,48832.708000,239.033,-40.579,96.248,466.291,-262.560,131.892,19.850,233.630,-59.930
923,48832.749000,247.018,-36.571,90.295,465.374,-259.579,137.875,254.850,183.630,-0.930
924,48832.784000,241.029,-5.511,86.326,464.588,-247.982,148.032,380.850,135.630,-58.930
925,48832.804000,246.020,2.505,79.380,466.495,-250.712,150.910,299.850,-35.370,-154.930
926,48832.847000,256.998,-11.523,73.426,471.525,-239.138,157.142,371.850,62.630,-220.930
927,48832.887000,238.035,-11.523,73.426,474.429,-239.963,160.075,463.850,107.630,-179.930
928,48832.927000,229.053,-1.503,67.473,475.597,-227.419,169.278,454.850,56.630,-52.930
929,48832.967000,240.031,-2.505,65.488,473.623,-230.940,179.997,513.850,133.630,11.070
930,48833.7000,236.039,16.532,76.403,472.833,-219.395,188.185,535.850,127.630,16.070
931,48833.48000,217.076,22.544,72.434,470.817,-224.991,191.961,485.850,64.630,103.070
932,48833.83000,216.078,26.552,62.512,463.204,-215.461,199.098,429.850,-10.370,242.070
933,48833.103000,236.039,36.571,75.411,463.966,-229.658,197.721,27.850,-123.370,305.070
934,48833.148000,248.016,14.528,96.248,467.864,-227.870,191.876,-65.150,-219.370,235.070
935,48833.183000,282.947,-45.589,155.783,464.927,-229.776,192.801,303.850,49.630,34.070
936,48833.223000,224.062,-9.519,122.047,463.090,-223.840,203.783,464.850,211.630,-73.930
937,48833.268000,199.111,17.534,111.132,461.206,-220.820,211.733,390.850,138.630,-95.930
938,48833.308000,200.109,24.548,83.349,458.377,-215.949,218.749,224.850,32.630,4.070
939,48833.344000,210.090,30.560,82.357,462.088,-226.559,208.624,-137.150,-330.370,183.070
940,48833.364000,261.988,24.548,56.558,464.055,-223.905,200.832,-189.150,-473.370,136.070
941,48833.424000,269.973,-1.503,75.411,465.976,-224.902,197.857,-23.150,19.630,57.070
942,48833.468000,241.029,10.521,74.419,463.044,-225.968,194.871,-99.150,-23.370,7.070
943,48833.489000,228.055,7.515,73.426,465.929,-227.818,194.825,-70.150,-29.370,32.070
944,48833.538000,225.060,12.524,74.419,465.844,-233.518,193.682,-199.150,-47.370,90.070
945,48833.566000,231.049,4.509,64.496,463.924,-231.733,190.778,-269.150,-122.370,119.070
946,48833.606000,236.039,1.503,61.519,459.904,-239.722,176.779,-464.150,-142.370,124.070
947,48833.646000,250.012,-11.523,61.519,464.672,-244.592,168.782,-540.150,-211.370,105.070
948,48833.668000,257.996,-23.546,68.465,465.411,-259.866,162.457,-520.150,-171.370,-61.930
949,48833.709000,258.994,-22.544,83.349,466.453,-253.549,150.831,-371.150,-125.370,-131.930
950,48833.749000,251.010,-31.562,85.333,468.481,-247.034,146.098,-230.150,-138.370,-135.930
951,48833.786000,243.025,-33.566,95.256,470.450,-245.115,146.154,82.850,0.630,-60.930
952,48833.826000,258.994,-42.583,101.209,469.477,-245.917,152.032,335.850,102.630,-31.930
953,48833.866000,225.060,-2.505,72.434,468.585,-241.071,157.083,466.850,110.630,103.070
954,48833.906000,234.043,12.524,72.434,463.595,-251.357,163.674,283.850,120.630,144.070
955,48833.946000,242.027,0.501,73.426,465.676,-242.608,171.790,221.850,136.630,79.070
956,48833.966000,234.043,-7.515,79.380,459.833,-244.477,175.663,88.850,110.630,-3.930
957,48834.6000,237.037,-21.542,82.357,463.739,-243.344,180.619,215.850,89.630,21.070
958,48834.44000,237.037,-10.521,83.349,461.743,-247.916,187.373,368.850,51.630,91.070
959,48834.86000,240.031,-0.501,72.434,458.981,-238.343,193.537,447.850,20.630,92.070
960,48834.126000,240.031,1.503,77.395,458.883,-244.988,192.368,413.850,0.630,67.070
961,48834.169000,244.023,11.523,71.442,460.062,-231.525,200.613,370.850,-29.370,55.070
962,48834.211000,245.021,16.532,69.457,458.981,-239.104,200.401,246.850,-5.370,64.070
963,48834.244000,253.006,16.532,75.411,455.189,-233.380,204.488,93.850,50.630,81.070
964,48834.266000,247.018,15.530,77.395,453.203,-237.058,209.300,-1.150,72.630,45.070
965,48834.306000,251.010,19.538,78.388,454.221,-233.367,205.470,-68.150,35.630,11.070
966,48834.344000,239.033,26.552,77.395,452.256,-235.233,207.382,-114.150,29.630,-19.930
967,48834.388000,237.037,16.532,73.426,452.281,-233.368,206.451,-52.150,-8.370,-86.930
968,48834.427000,223.064,3.507,89.302,455.091,-240.026,203.319,15.850,-18.370,-105.930
969,48834.468000,226.058,12.524,101.209,450.285,-237.179,206.341,48.850,-45.370,-13.930
970,48834.507000,256.000,-12.524,114.109,456.170,-232.473,202.548,84.850,-122.370,31.070
971,48834.557000,231.049,-1.503,88.310,451.385,-228.575,209.533,94.850,142.630,56.070
972,48834.564000,214.082,8.517,90.295,449.366,-234.224,211.340,53.850,83.630,94.070
973,48834.611000,195.119,25.550,76.403,452.263,-234.367,204.456,-107.150,-366.370,25.070
974,48834.648000,213.084,12.524,57.550,454.193,-234.497,198.554,-43.150,-326.370,-80.930
975,48834.701000,229.053,-24.548,85.333,454.185,-234.603,194.616,69.850,-158.370,-231.930
976,48834.736000,239.033,-38.575,70.450,461.134,-223.290,190.025,50.850,-347.370,-192.930
977,48834.771000,277.957,-20.540,58.543,461.138,-222.476,185.129,95.850,-182.370,-58.930
978,48834.811000,281.949,-12.524,65.488,465.977,-223.353,185.113,25.850,-91.370,75.070
979,48834.831000,258.994,-14.528,64.496,465.814,-234.674,185.781,-47.150,-0.370,-26.930
980,48834.871000,247.018,-9.519,68.465,459.155,-225.341,185.046,-36.150,171.630,28.070
981,48834.918000,227.057,-12.524,76.403,462.869,-237.447,189.634,16.850,167.630,105.070
982,48834.958000,221.068,-2.505,71.442,456.116,-235.468,196.563,-44.150,120.630,83.070
983,48834.996000,236.039,8.517,66.481,456.165,-231.764,193.715,-146.150,-7.370,13.070
984,48835.29000,248.016,9.519,69.457,455.163,-233.722,191.692,-232.150,37.630,-32.930
985,48835.69000,253.006,2.505,77.395,453.106,-241.394,188.524,-341.150,84.630,-54.930
986,48835.109000,246.020,-8.517,75.411,457.112,-232.828,188.769,-391.150,110.630,-75.930
987,48835.131000,235.041,-3.507,83.349,455.041,-241.445,185.575,-397.150,123.630,-74.930
988,48835.178000,237.037,-14.528,76.403,457.966,-239.697,178.743,-403.150,5.630,-95.930
989,48835.206000,254.004,-15.530,74.419,458.905,-241.627,176.724,-290.150,75.630,-118.930
990,48835.246000,250.012,-13.526,77.395,457.003,-238.844,175.814,-237.150,144.630,-76.930
991,48835.292000,243.025,-8.517,76.403,455.929,-246.344,178.555,-178.150,157.630,-74.930
992,48835.326000,237.037,-9.519,83.349,450.240,-236.996,177.822,-100.150,205.630,-51.930
993,48835.367000,237.037,-15.530,79.380,455.035,-241.524,182.622,-15.150,161.630,-27.930
994,48835.407000,236.039,-19.538,78.388,452.202,-236.706,187.669,18.850,175.630,5.070
995,48835.427000,238.035,-12.524,74.419,449.195,-243.340,188.463,92.850,114.630,30.070
996,48835.467000,241.029,-13.526,71.442,449.284,-237.587,191.574,96.850,82.630,-0.930
997,48835.507000,242.027,-10.521,74.419,451.222,-238.374,196.474,197.850,113.630,-3.930
998,48835.557000,247.018,-6.513,81.364,444.394,-241.201,200.318,229.850,121.630,100.070
999,48835.586000,229.053,-10.521,84.341,446.463,-233.372,209.392,243.850,149.630,147.070
1000,48835.631000,215.080,-3.507,93.271,441.632,-232.390,213.345,248.850,87.630,93.070
1001,48835.666000,238.035,-2.505,87.318,443.532,-235.199,213.270,158.850,-18.370,96.070
1002,48835.706000,241.029,-5.511,94.264,438.706,-234.138,220.177,211.850,60.630,82.070
1003,48835.732000,223.064,0.501,106.171,438.744,-232.115,225.151,181.850,41.630,92.070
1004,48835.773000,224.062,-14.528,91.287,436.777,-234.008,226.079,219.850,-5.370,99.070
1005,48835.807000,227.057,-14.528,100.217,439.748,-230.131,228.159,372.850,-40.370,81.070
1006,48835.846000,234.043,-11.523,94.264,437.762,-233.810,232.971,422.850,-61.370,104.070
1007,48835.887000,240.031,-2.505,93.271,435.917,-227.979,240.016,429.850,-58.370,116.070
1008,48835.932000,233.045,3.507,90.295,435.010,-224.105,244.056,419.850,-37.370,120.070
1009,48835.986000,229.053,6.513,91.287,441.784,-225.033,241.091,364.850,-32.370,125.070
1010,48836.13000,239.033,2.505,95.256,436.927,-225.916,245.977,295.850,-26.370,71.070
1011,48836.29000,242.027,0.501,88.310,439.922,-220.962,253.005,278.850,34.630,40.070
1012,48836.71000,232.047,3.507,91.287,436.034,-221.858,256.908,264.850,70.630,21.070
1013,48836.107000,230.051,4.509,94.264,437.164,-211.337,261.137,269.850,92.630,10.070
1014,48836.152000,231.049,4.509,96.248,434.178,-216.946,264.910,250.850,35.630,10.070
1015,48836.193000,233.045,5.511,91.287,433.354,-207.372,270.093,260.850,45.630,6.070
1016,48836.234000,224.062,10.521,95.256,437.219,-208.315,268.106,254.850,65.630,-4.930
1017,48836.271000,227.057,10.521,95.256,434.414,-201.606,273.206,216.850,-45.370,9.070
1018,48836.311000,239.033,8.517,92.279,434.390,-203.444,275.122,235.850,-29.370,16.070
1019,48836.331000,237.037,11.523,98.233,436.459,-194.853,277.332,224.850,12.630,8.070
1020,48836.381000,229.053,11.523,92.279,438.371,-197.505,283.163,190.850,11.630,10.070
1021,48836.411000,233.045,6.513,98.233,439.409,-192.789,282.312,193.850,-32.370,3.070
1022,48836.461000,233.045,9.519,91.287,435.503,-194.683,284.220,204.850,32.630,-2.930
1023,48836.488000,234.043,14.528,94.264,440.496,-185.131,285.478,167.850,32.630,-2.930
1024,48836.532000,230.051,16.532,98.233,434.595,-190.809,288.261,141.850,36.630,0.070
1025,48836.568000,227.057,14.528,100.217,434.725,-182.219,291.451,117.850,22.630,-20.930
1026,48836.588000,229.053,16.532,96.248,434.754,-180.301,292.488,89.850,-6.370,-24.930
1027,48836.627000,228.055,20.540,99.225,438.502,-189.676,293.217,99.850,14.630,-46.930
1028,48836.667000,224.062,18.536,97.240,443.433,-183.987,291.416,66.850,-27.370,-49.930
1029,48836.713000,227.057,25.550,106.171,439.692,-174.533,293.640,17.850,13.630,-28.930
1030,48836.752000,228.055,23.546,102.202,442.471,-183.895,295.351,85.850,-8.370,2.070
1031,48836.792000,225.060,20.540,112.124,439.653,-177.343,294.545,91.850,-27.370,31.070
1032,48836.831000,231.049,19.538,98.233,439.690,-174.559,292.656,81.850,-70.370,57.070
1033,48836.878000,241.029,15.530,92.279,441.577,-178.314,292.554,164.850,8.630,79.070
1034,48836.893000,235.041,21.542,85.333,441.557,-180.100,296.439,210.850,-7.370,62.070
1035,48836.929000,238.035,30.560,78.388,442.640,-172.495,297.636,146.850,18.630,70.070
1036,48836.976000,231.049,33.566,82.357,442.648,-172.389,301.573,129.850,8.630,54.070
1037,48837.7000,241.029,30.560,88.310,442.671,-170.551,299.657,100.850,-58.370,9.070
1038,48837.53000,243.025,25.550,84.341,444.507,-178.036,301.420,83.850,-18.370,-5.930
1039,48837.104000,236.039,24.548,87.318,440.679,-174.308,301.517,98.850,57.630,-3.930
1040,48837.127000,228.055,31.562,92.279,438.804,-169.634,300.660,80.850,76.630,12.070
1041,48837.172000,232.047,30.560,92.279,435.938,-166.786,302.702,19.850,45.630,22.070
1042,48837.193000,231.049,29.558,95.256,437.871,-167.625,305.632,34.850,57.630,3.070
1043,48837.243000,230.051,31.562,94.264,436.956,-163.856,305.736,28.850,13.630,21.070
1044,48837.271000,237.037,26.552,91.287,436.962,-163.777,308.689,57.850,25.630,36.070
1045,48837.309000,233.045,30.560,92.279,433.008,-168.586,307.565,61.850,27.630,35.070
1046,48837.353000,228.055,32.564,94.264,435.958,-166.522,312.545,81.850,19.630,55.070
1047,48837.394000,232.047,24.548,96.248,432.081,-166.498,315.490,116.850,35.630,89.070
1048,48837.434000,234.043,25.550,96.248,435.009,-165.485,316.507,158.850,35.630,74.070
1049,48837.469000,226.058,26.552,98.233,431.048,-171.161,318.309,165.850,71.630,98.070
1050,48837.488000,228.055,20.540,97.240,431.144,-164.542,318.494,147.850,31.630,136.070
1051,48837.534000,226.058,21.542,100.217,425.260,-169.247,322.287,165.850,46.630,140.070
1052,48837.574000,228.055,22.544,94.264,428.203,-167.262,324.315,96.850,25.630,146.070
1053,48837.613000,232.047,18.536,104.186,420.346,-173.939,326.083,128.850,43.630,172.070
1054,48837.648000,231.049,16.532,97.240,419.379,-173.900,328.050,91.850,6.630,146.070
1055,48837.688000,230.051,17.534,101.209,416.463,-173.994,326.075,101.850,18.630,115.070
1056,48837.729000,225.060,12.524,103.194,418.485,-169.080,332.117,69.850,-28.370,117.070
1057,48837.769000,238.035,11.523,96.248,415.502,-173.876,330.995,62.850,-10.370,105.070
1058,48837.797000,232.047,16.532,95.256,416.524,-170.132,329.133,-30.150,63.630,91.070
1059,48837.832000,217.076,14.528,100.217,412.476,-181.535,328.809,-112.150,-8.370,43.070
1060,48837.872000,228.055,10.521,99.225,412.512,-178.777,325.935,-180.150,-105.370,-0.930
1061,48837.912000,229.053,6.513,102.202,412.433,-183.637,320.882,-219.150,-92.370,-10.930
1062,48837.952000,230.051,6.513,100.217,412.472,-180.826,319.977,-234.150,-106.370,-16.930
1063,48837.992000,231.049,7.515,99.225,415.246,-189.480,312.855,-242.150,-97.370,-31.930
1064,48838.32000,238.035,7.515,94.264,418.164,-188.598,308.950,-293.150,-61.370,-28.930
1065,48838.72000,237.037,-1.503,97.240,417.071,-197.096,309.696,-238.150,9.630,-51.930
1066,48838.93000,235.041,-0.501,100.217,418.089,-193.405,305.866,-211.150,47.630,-68.930
1067,48838.133000,235.041,2.505,98.233,417.949,-202.888,304.618,-189.150,89.630,-54.930
1068,48838.173000,243.025,-0.501,98.233,415.051,-201.984,304.638,-151.150,164.630,-50.930
1069,48838.213000,237.037,-5.511,93.271,411.192,-200.961,309.578,-101.150,284.630,-8.930
1070,48838.253000,225.060,-3.507,101.209,406.400,-197.169,312.627,-55.150,246.630,13.070
1071,48838.294000,216.078,-0.501,105.178,401.429,-205.669,315.333,-9.150,173.630,38.070
1072,48838.328000,220.070,0.501,108.155,400.421,-208.467,317.220,-9.150,42.630,43.070
1073,48838.348000,224.062,-2.505,99.225,400.474,-204.711,316.341,-15.150,-12.370,34.070
1074,48838.388000,227.057,0.501,98.233,398.488,-207.628,314.290,-42.150,-71.370,27.070
1075,48838.428000,231.049,-1.503,97.240,399.525,-202.912,313.439,-9.150,-71.370,24.070
1076,48838.477000,232.047,-1.503,98.233,401.352,-210.503,311.264,-64.150,-55.370,10.070
1077,48838.537000,230.051,-1.503,101.209,406.302,-203.814,311.458,-82.150,-19.370,-12.930
1078,48838.554000,231.049,-3.507,100.217,401.413,-205.880,307.458,-117.150,-29.370,-16.930
1079,48838.601000,233.045,-3.507,97.240,405.270,-207.690,308.398,-106.150,-20.370,-14.930
1080,48838.634000,232.047,-7.515,102.202,404.280,-208.728,305.416,-124.150,-32.370,-17.930
1081,48838.654000,233.045,-5.511,98.233,405.242,-208.820,301.481,-119.150,-11.370,-24.930
1082,48838.689000,226.058,-5.511,101.209,403.223,-214.468,303.288,-131.150,-15.370,-25.930
1083,48838.731000,227.057,-6.513,103.194,405.236,-208.899,298.528,-139.150,-68.370,-32.930
1084,48838.776000,237.037,-5.511,97.240,405.124,-216.490,297.333,-125.150,-41.370,-32.930
1085,48838.813000,233.045,-8.517,102.202,405.193,-211.762,297.464,-96.150,-20.370,-38.930
1086,48838.853000,233.045,-7.515,99.225,407.048,-217.461,295.342,-94.150,-36.370,-2.930
1087,48838.894000,230.051,-10.521,98.233,410.974,-214.543,296.413,-67.150,-1.370,2.070
1088,48838.933000,227.057,-6.513,101.209,407.999,-218.472,292.365,-36.150,10.630,-2.930
1089,48838.967000,228.055,-5.511,102.202,409.962,-217.393,296.332,-45.150,-28.370,-7.930
1090,48838.994000,233.045,-4.509,97.240,406.971,-222.294,291.273,-44.150,-40.370,-8.930
1091,48839.34000,234.043,-5.511,97.240,410.934,-216.592,290.455,-63.150,-12.370,-11.930
1092,48839.71000,232.047,-8.517,97.240,407.951,-221.388,289.332,-72.150,13.630,-35.930
1093,48839.111000,230.051,-6.513,97.240,409.007,-215.674,290.477,-59.150,18.630,-40.930
1094,48839.151000,234.043,-7.515,100.217,409.948,-217.578,289.442,-71.150,23.630,-39.930
1095,48839.191000,233.045,-9.519,99.225,410.007,-213.742,291.516,-34.150,40.630,-53.930
1096,48839.233000,231.049,-9.519,97.240,413.722,-225.061,290.224,-1.150,46.630,-14.930
1097,48839.261000,230.051,-8.517,99.225,412.848,-218.456,290.406,9.850,58.630,-19.930
1098,48839.303000,225.060,-4.509,102.202,411.866,-219.389,291.362,8.850,24.630,-52.930
1099,48839.331000,228.055,-4.509,99.225,412.930,-212.782,290.564,-20.150,-15.370,-46.930
1100,48839.373000,229.053,-2.505,98.233,410.962,-214.701,290.507,-51.150,-28.370,-42.930
1101,48839.409000,230.051,-4.509,99.225,411.881,-218.417,292.373,-58.150,-52.370,-67.930
1102,48839.449000,230.051,-3.507,99.225,415.770,-217.521,288.470,-44.150,-59.370,-53.930
1103,48839.493000,234.043,-4.509,101.209,416.837,-210.888,288.656,-47.150,-57.370,-44.930
1104,48839.541000,232.047,-4.509,98.233,416.709,-219.452,286.450,2.850,10.630,-49.930
1105,48839.561000,225.060,-5.511,101.209,415.893,-209.011,288.707,41.850,1.630,-48.930
1106,48839.601000,229.053,-3.507,96.248,420.745,-208.968,287.732,81.850,-27.370,-32.930
1107,48839.634000,234.043,-4.509,96.248,418.831,-207.104,287.781,88.850,-9.370,-11.930
1108,48839.682000,231.049,-0.501,97.240,420.698,-212.645,291.564,120.850,-0.370,-5.930
1109,48839.711000,229.053,-2.505,100.217,420.760,-207.996,288.743,141.850,-15.370,-12.930
1110,48839.751000,228.055,-0.501,96.248,418.912,-202.218,293.819,155.850,-44.370,2.070
1111,48839.792000,227.057,2.505,98.233,423.822,-198.341,294.918,162.850,-49.370,29.070
1112,48839.821000,232.047,4.509,102.202,419.992,-194.640,294.031,192.850,-33.370,29.070
1113,48839.854000,236.039,4.509,97.240,421.857,-200.207,296.830,201.850,-39.370,34.070
1114,48839.894000,231.049,6.513,100.217,422.910,-194.519,296.990,185.850,-17.370,29.070
1115,48839.936000,230.051,10.521,100.217,426.756,-197.249,298.888,168.850,-29.370,23.070
1116,48839.977000,235.041,5.511,95.256,423.983,-187.807,300.130,177.850,-20.370,16.070
1117,48840.14000,234.043,9.519,99.225,422.989,-189.660,302.044,171.850,31.630,14.070
1118,48840.62000,228.055,11.523,99.225,427.856,-188.645,302.080,156.850,9.630,8.070
1119,48840.96000,229.053,13.526,97.240,421.995,-191.512,303.958,150.850,-9.370,-0.930
1120,48840.117000,234.043,11.523,93.271,426.949,-184.771,306.121,143.850,-21.370,-15.930
1121,48840.151000,229.053,20.540,101.209,426.937,-185.690,307.079,130.850,0.630,-28.930
1122,48840.192000,229.053,17.534,94.264,428.031,-177.166,307.318,81.850,-31.370,-37.930
1123,48840.233000,236.039,16.532,99.225,430.872,-181.879,306.208,75.850,-38.370,-51.930
1124,48840.274000,234.043,13.526,93.271,431.938,-176.034,312.274,77.850,-28.370,-59.930
1125,48840.312000,227.057,24.548,94.264,429.053,-174.184,312.320,44.850,7.630,-72.930
1126,48840.353000,227.057,27.554,93.271,433.960,-170.359,311.451,-10.150,-33.370,-94.930
1127,48840.393000,235.041,22.544,93.271,432.898,-176.152,307.354,-38.150,-12.370,-105.930
1128,48840.412000,234.043,25.550,96.248,436.897,-168.452,310.526,-35.150,31.630,-86.930
1129,48840.452000,233.045,20.540,96.248,434.897,-172.315,308.448,-58.150,0.630,-95.930
1130,48840.493000,226.058,24.548,91.287,437.893,-166.574,309.596,-99.150,-1.370,-81.930
