Sample, Time, ACCX, ACCY, ACCZ, MAGX, MAGY, MAGZ, GYRX, GYRY, GYRZ
0,48532.321000,234.043,0.501,88.310,450.372,-232.975,222.196,-39.150,-19.370,-0.930
1,48532.357000,237.037,0.501,87.318,448.529,-226.356,223.361,-40.150,-12.370,-1.930
2,48532.401000,238.035,1.503,91.287,450.461,-227.222,225.307,-45.150,-9.370,-4.930
3,48532.440000,234.043,-0.501,88.310,452.402,-227.194,225.311,-24.150,3.630,-8.930
4,48532.480000,236.039,0.501,89.302,447.476,-232.044,223.201,-21.150,5.630,-9.930
5,48532.520000,234.043,2.505,87.318,451.353,-232.068,220.256,-28.150,1.630,-9.930
6,48532.561000,237.037,-0.501,91.287,450.406,-231.005,225.202,-16.150,-2.370,-13.930
7,48532.597000,238.035,-0.501,88.310,448.565,-224.360,227.351,-13.150,9.630,-13.930
8,48532.634000,235.041,-0.501,88.310,454.308,-229.164,221.325,-16.150,27.630,-17.930
9,48532.662000,235.041,-0.501,89.302,453.373,-227.181,225.313,-12.150,-0.370,-17.930
10,48532.711000,235.041,-1.503,91.287,456.131,-237.568,224.045,3.850,11.630,-25.930
11,48532.742000,236.039,-1.503,88.310,455.383,-222.425,225.449,12.850,-2.370,-17.930
12,48532.782000,234.043,0.501,88.310,451.408,-229.047,227.225,3.850,8.630,-14.930
13,48532.824000,234.043,0.501,94.264,453.453,-221.533,224.487,1.850,-2.370,-24.930
14,48532.860000,231.049,-0.501,91.287,454.353,-226.274,223.373,-19.150,-5.370,-39.930
15,48532.900000,232.047,1.503,92.279,458.320,-220.519,224.523,-24.150,-41.370,-49.930
16,48532.920000,228.055,-1.503,89.302,455.267,-230.069,222.285,-15.150,-50.370,-56.930
17,48532.960000,240.031,-1.503,93.271,462.183,-221.489,221.552,-48.150,-29.370,-49.930
18,48533.0,237.037,-4.509,89.302,456.351,-222.438,224.467,43.850,20.630,-53.930
19,48533.41000,231.049,5.511,96.248,461.244,-219.558,223.571,46.850,-41.370,-74.930
20,48533.80000,237.037,8.517,90.295,460.246,-221.463,223.517,46.850,-15.370,-67.930
21,48533.120000,225.060,12.524,87.318,464.234,-213.896,221.767,37.850,36.630,-29.930
22,48533.159000,239.033,9.519,89.302,463.305,-211.073,221.844,30.850,-6.370,-29.930
23,48533.199000,236.039,11.523,86.326,465.258,-210.887,227.754,57.850,31.630,-10.930
24,48533.219000,230.051,13.526,85.333,462.234,-218.520,226.553,66.850,41.630,14.070
25,48533.269000,230.051,14.528,88.310,457.377,-219.403,231.438,74.850,19.630,56.070
26,48533.304000,234.043,14.528,87.318,457.456,-213.782,229.627,54.850,-10.370,78.070
27,48533.345000,238.035,14.528,83.349,458.422,-213.820,227.661,63.850,-8.370,56.070
28,48533.382000,239.033,19.538,84.341,463.289,-212.806,227.697,68.850,-44.370,22.070
29,48533.422000,239.033,13.526,82.357,462.317,-212.846,226.711,67.850,-51.370,31.070
30,48533.461000,237.037,16.532,86.326,464.329,-208.064,227.831,82.850,-22.370,4.070
31,48533.504000,236.039,17.534,85.333,463.346,-208.997,228.787,72.850,-14.370,6.070
32,48533.517000,237.037,12.524,87.318,463.399,-205.241,227.908,80.850,-33.370,6.070
33,48533.559000,238.035,13.526,89.302,464.248,-213.712,228.657,63.850,-18.370,11.070
34,48533.601000,231.049,13.526,92.279,466.270,-208.037,227.835,45.850,-22.370,0.070
35,48533.641000,235.041,10.521,89.302,461.325,-214.672,229.609,54.850,-18.370,10.070
36,48533.684000,239.033,10.521,91.287,458.456,-211.850,230.666,39.850,-23.370,8.070
37,48533.734000,235.041,9.519,88.310,460.439,-208.986,230.749,53.850,11.630,5.070
38,48533.761000,235.041,7.515,93.271,461.484,-204.165,233.836,62.850,15.630,-7.930
39,48533.801000,240.031,6.513,88.310,469.165,-209.755,232.710,77.850,2.630,-10.930
40,48533.821000,232.047,14.528,88.310,461.461,-206.004,235.752,53.850,37.630,1.070
41,48533.861000,238.035,7.515,88.310,464.329,-208.826,234.695,68.850,20.630,-34.930
42,48533.909000,241.029,10.521,87.318,464.432,-202.127,237.832,87.850,60.630,-34.930
43,48533.957000,238.035,12.524,82.357,461.443,-207.763,240.621,77.850,107.630,-10.930
44,48533.979000,231.049,9.519,85.333,457.674,-200.200,242.792,92.850,122.630,-10.930
45,48534.19000,231.049,21.542,82.357,458.610,-202.945,245.668,56.850,114.630,-33.930
46,48534.62000,235.041,19.538,92.279,458.596,-203.890,245.642,19.850,72.630,-25.930
47,48534.82000,235.041,15.530,83.349,456.667,-203.760,251.544,-5.150,64.630,-3.930
48,48534.127000,229.053,19.538,93.271,460.536,-204.650,251.526,-40.150,54.630,-23.930
49,48534.162000,230.051,16.532,85.333,455.771,-198.205,247.763,-41.150,0.630,-16.930
50,48534.201000,241.029,8.517,87.318,458.707,-197.087,252.717,-3.150,25.630,39.070
51,48534.247000,228.055,13.526,81.364,459.577,-203.745,250.566,-7.150,11.630,32.070
52,48534.281000,229.053,15.530,89.302,454.800,-198.219,247.761,9.850,-65.370,41.070
53,48534.321000,238.035,17.534,90.295,455.718,-201.961,248.642,7.850,-54.370,38.070
54,48534.362000,234.043,19.538,88.310,457.700,-199.097,248.725,2.850,-21.370,41.070
55,48534.382000,228.055,18.536,93.271,456.694,-201.107,244.733,-34.150,-71.370,38.070
56,48534.424000,240.031,13.526,93.271,456.582,-208.699,243.538,-28.150,-68.370,43.070
57,48534.462000,237.037,13.526,89.302,458.555,-206.727,245.563,-15.150,-45.370,46.070
58,48534.502000,228.055,16.532,93.271,458.523,-208.671,243.542,-1.150,-18.370,35.070
59,48534.544000,239.033,12.524,91.287,460.502,-205.859,241.656,5.850,-43.370,50.070
60,48534.582000,238.035,13.526,91.287,456.598,-207.727,244.548,31.850,-11.370,26.070
61,48534.620000,237.037,13.526,89.302,459.553,-204.822,245.618,34.850,-6.370,25.070
62,48534.660000,235.041,11.523,92.279,452.672,-210.645,243.477,47.850,8.630,29.070
63,48534.681000,233.045,12.524,92.279,455.657,-205.823,245.583,2.850,-5.370,22.070
64,48534.720000,231.049,13.526,89.302,455.600,-209.632,244.494,-6.150,-9.370,14.070
65,48534.761000,240.031,10.521,89.302,452.664,-211.512,246.404,-31.150,7.630,-13.930
66,48534.810000,233.045,8.517,93.271,455.517,-215.305,244.336,-51.150,6.630,-16.930
67,48534.845000,232.047,8.517,90.295,453.731,-204.878,246.590,-16.150,10.630,-15.930
68,48534.885000,237.037,7.515,92.279,455.570,-211.549,243.457,-17.150,12.630,-22.930
69,48534.925000,228.055,8.517,87.318,456.598,-207.727,244.548,-15.150,45.630,-5.930
70,48534.960000,235.041,7.515,90.295,457.520,-211.416,247.398,-20.150,14.630,-13.930
71,48534.980000,235.041,10.521,91.287,452.637,-213.403,246.351,-5.150,38.630,0.070
72,48535.36000,232.047,7.515,90.295,451.735,-208.688,246.481,-1.150,29.630,-7.930
73,48535.65000,229.053,7.515,89.302,449.741,-212.472,247.356,4.850,15.630,-9.930
74,48535.105000,235.041,7.515,93.271,454.608,-211.458,247.392,12.850,3.630,-2.930
75,48535.146000,233.045,7.515,89.302,452.725,-207.650,249.462,38.850,13.630,11.070
76,48535.180000,236.039,8.517,91.287,451.670,-213.364,248.318,43.850,21.630,18.070
77,48535.222000,232.047,9.519,90.295,451.782,-205.772,249.513,43.850,19.630,11.070
78,48535.264000,231.049,10.521,94.264,454.680,-206.677,249.492,52.850,18.630,24.070
79,48535.284000,234.043,8.517,90.295,449.886,-202.910,251.556,55.850,-1.370,33.070
80,48535.331000,232.047,10.521,92.279,452.674,-211.380,251.325,48.850,12.630,30.070
81,48535.365000,234.043,9.519,93.271,449.778,-210.449,252.330,38.850,7.630,41.070
82,48535.409000,230.051,7.515,92.279,449.792,-209.504,252.356,26.850,10.630,31.070
83,48535.442000,233.045,9.519,92.279,447.853,-209.505,253.337,26.850,8.630,40.070
84,48535.485000,234.043,7.515,93.271,445.925,-208.587,253.359,-2.150,-3.370,41.070
85,48535.530000,233.045,7.515,91.287,443.054,-205.791,253.432,-14.150,1.630,30.070
86,48535.560000,232.047,6.513,93.271,447.825,-211.396,253.284,-13.150,-8.370,24.070
87,48535.580000,232.047,7.515,93.271,446.866,-210.490,252.324,-27.150,-8.370,23.070
88,48535.625000,235.041,8.517,93.271,448.776,-212.407,250.307,-25.150,-9.370,4.070
89,48535.665000,236.039,5.511,92.279,445.827,-215.232,252.190,-25.150,-4.370,3.070
90,48535.705000,233.045,8.517,94.264,445.880,-211.476,251.311,-67.150,-0.370,0.070
91,48535.746000,235.041,6.513,88.310,446.841,-212.355,253.256,-44.150,12.630,-5.930
92,48535.780000,232.047,6.513,95.256,446.846,-211.515,249.345,-79.150,6.630,-4.930
93,48535.820000,229.053,6.513,92.279,444.838,-216.244,250.193,-86.150,5.630,-16.930
94,48535.840000,237.037,5.511,93.271,446.827,-212.540,246.365,-82.150,-8.370,-23.930
95,48535.880000,234.043,5.511,93.271,444.799,-219.055,251.099,-94.150,8.630,-25.930
96,48535.925000,232.047,5.511,93.271,445.722,-221.957,248.069,-116.150,6.630,-27.930
97,48535.964000,233.045,4.509,95.256,448.729,-215.323,247.275,-114.150,12.630,-31.930
98,48536.5000,231.049,4.509,95.256,450.625,-218.185,245.231,-122.150,-4.370,-40.930
99,48536.45000,236.039,3.507,100.217,448.668,-219.184,244.216,-74.150,0.630,-43.930
100,48536.91000,233.045,-2.505,95.256,447.750,-215.442,243.335,8.850,0.630,1.070
101,48536.129000,227.057,-0.501,92.279,450.554,-222.939,244.115,56.850,-8.370,9.070
102,48536.159000,232.047,2.505,95.256,448.687,-218.160,247.196,119.850,-30.370,21.070
103,48536.181000,236.039,7.515,93.271,446.744,-218.213,246.207,158.850,-1.370,41.070
104,48536.225000,231.049,6.513,93.271,447.778,-214.312,250.252,119.850,8.630,51.070
105,48536.272000,230.051,7.515,93.271,444.787,-219.974,252.057,146.850,6.630,36.070
106,48536.306000,235.041,6.513,94.264,446.839,-212.382,252.271,133.850,-10.370,43.070
107,48536.346000,232.047,4.509,94.264,448.700,-218.002,253.102,151.850,-6.370,65.070
108,48536.401000,233.045,4.509,91.287,445.880,-212.237,258.175,177.850,-21.370,57.070
109,48536.426000,236.039,6.513,94.264,444.903,-212.330,255.220,154.850,-15.370,46.070
110,48536.445000,231.049,10.521,88.310,445.882,-212.211,259.160,96.850,-17.370,26.070
111,48536.486000,234.043,14.528,96.248,440.982,-215.196,256.118,13.850,-19.370,8.070
112,48536.526000,234.043,10.521,92.279,443.015,-208.601,254.337,-6.150,-13.370,-14.930
113,48536.564000,231.049,8.517,96.248,445.972,-205.671,256.391,-44.150,-15.370,-20.930
114,48536.605000,235.041,6.513,87.318,446.902,-208.494,256.314,-41.150,-36.370,-27.930
115,48536.641000,232.047,6.513,97.240,445.953,-206.695,253.412,-13.150,-18.370,-15.930
116,48536.692000,234.043,5.511,90.295,445.939,-207.641,253.385,2.850,-45.370,-21.930
117,48536.736000,232.047,10.521,96.248,447.868,-208.533,254.347,2.850,-38.370,-1.930
118,48536.744000,237.037,5.511,89.302,448.874,-205.761,251.475,36.850,-49.370,-6.930
119,48536.785000,233.045,9.519,91.287,452.745,-206.625,252.441,8.850,-33.370,-20.930
120,48536.825000,235.041,10.521,92.279,453.700,-207.584,251.433,-6.150,-34.370,-31.930
121,48536.865000,237.037,10.521,89.302,450.814,-205.760,250.495,-32.150,-24.370,-31.930
122,48536.910000,237.037,9.519,87.318,450.794,-206.785,247.516,-47.150,-10.370,-41.930
123,48536.945000,237.037,6.513,88.310,450.819,-204.920,246.584,-59.150,5.630,-41.930
124,48536.991000,234.043,10.521,85.333,449.741,-212.472,247.356,-87.150,-3.370,-52.930
125,48537.22000,233.045,11.523,88.310,452.753,-205.759,249.515,-80.150,25.630,-58.930
126,48537.41000,232.047,10.521,91.287,457.524,-211.364,249.367,-86.150,-24.370,-46.930
127,48537.81000,241.029,6.513,86.326,457.679,-200.148,244.761,-53.150,-10.370,-38.930
128,48537.121000,232.047,6.513,89.302,456.625,-205.835,244.601,-15.150,0.630,-36.930
129,48537.161000,229.053,13.526,91.287,457.624,-203.930,244.656,-38.150,-33.370,-41.930
130,48537.211000,239.033,8.517,88.310,460.380,-214.344,242.403,-10.150,-29.370,-39.930
131,48537.245000,234.043,8.517,87.318,455.747,-199.282,242.815,-7.150,-25.370,-21.930
132,48537.285000,230.051,18.536,90.295,459.547,-204.901,242.665,-16.150,-32.370,-57.930
133,48537.326000,238.035,15.530,90.295,458.623,-201.238,238.831,-28.150,-56.370,-45.930
134,48537.360000,242.027,11.523,85.333,458.582,-204.075,238.752,-10.150,2.630,-53.930
135,48537.386000,234.043,15.530,87.318,459.639,-198.334,240.880,-37.150,-13.370,-86.930
136,48537.428000,232.047,16.532,88.310,462.520,-200.237,238.865,-18.150,-11.370,-55.930
137,48537.464000,235.041,13.526,87.318,459.647,-197.468,237.954,-3.150,-3.370,-22.930
138,48537.505000,242.027,13.526,83.349,468.326,-201.153,236.882,11.850,-7.370,-34.930
139,48537.559000,228.055,14.528,84.341,461.590,-197.414,238.942,32.850,8.630,-8.930
140,48537.597000,238.035,16.532,85.333,466.473,-195.428,239.989,19.850,-38.370,-11.930
141,48537.625000,241.029,16.532,84.341,463.583,-193.657,237.083,24.850,-24.370,-32.930
142,48537.647000,230.051,19.538,87.318,466.528,-191.645,240.094,21.850,6.630,-15.930
143,48537.686000,238.035,15.530,90.295,463.655,-188.876,239.183,2.850,-37.370,-24.930
144,48537.724000,238.035,16.532,84.341,465.567,-190.766,238.150,16.850,-14.370,-22.930
145,48537.770000,232.047,18.536,84.341,464.551,-193.669,236.100,-12.150,-12.370,-11.930
146,48537.814000,231.049,16.532,89.302,468.493,-189.779,238.182,-0.150,-2.370,-20.930
147,48537.845000,237.037,18.536,84.341,470.395,-192.562,239.092,-8.150,-23.370,-11.930
148,48537.885000,239.033,21.542,86.326,468.501,-188.912,235.256,-33.150,-11.370,-20.930
149,48537.907000,242.027,19.538,84.341,464.512,-196.480,237.006,-27.150,3.630,-29.930
150,48537.945000,237.037,20.540,82.357,467.548,-187.928,237.249,-38.150,6.630,-38.930
151,48537.987000,234.043,23.546,85.333,467.491,-191.737,236.159,-51.150,-0.370,-46.930
152,48538.36000,238.035,21.542,85.333,469.462,-189.791,237.200,-47.150,13.630,-44.930
153,48538.62000,238.035,23.546,81.364,469.371,-195.571,233.105,-113.150,5.630,-47.930
154,48538.116000,228.055,24.548,88.310,471.401,-189.790,236.220,-80.150,8.630,-52.930
155,48538.142000,230.051,22.544,82.357,470.369,-193.666,233.159,-118.150,-11.370,-25.930
156,48538.189000,241.029,19.538,82.357,474.342,-187.070,230.399,-108.150,-13.370,-17.930
157,48538.212000,238.035,18.536,81.364,470.349,-194.690,230.180,-100.150,14.630,0.070
158,48538.247000,230.051,22.544,84.341,475.240,-191.837,228.300,-146.150,0.630,4.070
159,48538.282000,230.051,22.544,86.326,473.255,-194.728,227.233,-97.150,-23.370,-5.930
160,48538.322000,246.020,14.528,83.349,474.242,-193.742,228.246,-143.150,-68.370,-1.930
161,48538.369000,235.041,19.538,84.341,471.210,-201.480,223.107,-102.150,24.630,4.070
162,48538.402000,236.039,18.536,84.341,472.292,-193.875,224.304,-137.150,-63.370,-32.930
163,48538.442000,235.041,18.536,88.310,474.112,-201.571,218.192,-54.150,-29.370,-36.930
164,48538.491000,227.057,15.530,88.310,473.237,-194.965,218.374,-45.150,-41.370,7.070
165,48538.504000,243.025,18.536,83.349,479.018,-197.746,217.323,-36.150,-94.370,45.070
166,48538.546000,238.035,19.538,88.310,476.090,-198.759,216.306,-4.150,-27.370,51.070
167,48538.586000,240.031,15.530,83.349,477.059,-198.771,215.324,14.850,-80.370,25.070
168,48538.626000,243.025,24.548,75.411,474.145,-198.839,214.333,0.850,-36.370,28.070
169,48538.672000,239.033,17.534,81.364,477.972,-202.566,214.236,-17.150,6.630,-18.930
170,48538.722000,239.033,16.532,85.333,472.148,-202.649,214.224,-32.150,10.630,-22.930
171,48538.744000,233.045,15.530,78.388,474.046,-205.485,213.165,-154.150,-64.370,24.070
172,48538.800000,229.053,23.546,96.248,473.103,-203.607,213.215,-36.150,34.630,33.070
173,48538.809000,254.004,1.503,108.155,478.908,-204.549,210.248,0.850,-34.370,4.070
174,48538.849000,255.002,1.503,101.209,477.750,-217.723,212.830,85.850,186.630,-52.930
175,48538.885000,227.057,28.556,81.364,475.163,-196.671,224.231,49.850,318.630,-137.930
176,48538.929000,213.084,20.540,100.217,470.294,-198.473,230.075,85.850,275.630,-191.930
177,48538.969000,239.033,9.519,97.240,470.401,-191.722,235.181,176.850,346.630,-58.930
178,48539.35000,243.025,44.587,106.171,465.548,-192.552,242.035,18.850,302.630,112.070
179,48539.67000,246.020,20.540,99.225,465.589,-190.476,248.978,40.850,276.630,-67.930
180,48539.87000,214.082,46.591,86.326,458.834,-188.523,254.922,-30.150,241.630,-140.930
181,48539.109000,195.119,54.607,83.349,458.868,-186.553,257.928,-201.150,224.630,-128.930
182,48539.149000,203.103,40.579,87.318,454.863,-195.092,258.667,-213.150,158.630,-76.930
183,48539.189000,218.074,13.526,104.186,456.844,-192.254,257.766,-155.150,121.630,-16.930
184,48539.227000,208.094,39.577,87.318,457.707,-199.779,258.542,-396.150,-35.370,118.070
185,48539.269000,165.177,58.614,68.465,451.790,-205.667,253.450,-513.150,163.630,295.070
186,48539.309000,194.121,22.544,154.791,443.748,-224.716,251.923,-336.150,214.630,326.070
187,48539.344000,361.793,-99.695,135.938,441.891,-218.282,246.197,82.850,-221.370,-29.930
188,48539.384000,240.031,-29.558,143.876,438.123,-213.003,268.961,447.850,1211.630,-276.930
189,48539.404000,128.250,62.622,123.039,436.302,-205.334,274.089,98.850,-438.370,205.070
190,48539.446000,218.074,16.532,67.473,432.179,-220.783,263.816,-169.150,-431.370,383.070
191,48539.495000,270.971,5.511,79.380,434.168,-217.078,259.988,-165.150,-27.370,74.070
192,48539.529000,235.041,-25.550,90.295,436.038,-221.805,258.876,-235.150,162.630,-37.930
193,48539.569000,219.072,-24.548,153.798,433.105,-223.658,261.771,-50.150,141.630,-61.930
194,48539.605000,241.029,-19.538,119.070,440.752,-230.458,250.775,-60.150,-497.370,139.070
195,48539.650000,241.029,-9.519,87.318,441.749,-227.791,243.965,50.850,-346.370,130.070
196,48539.664000,242.027,9.519,73.426,444.692,-225.045,239.129,-127.150,-428.370,-49.930
197,48539.704000,247.018,1.503,77.395,450.453,-228.089,228.234,-206.150,-111.370,-146.930
198,48539.745000,225.060,4.509,121.054,453.383,-227.049,230.235,-128.150,-16.370,-138.930
199,48539.790000,223.064,-16.532,142.884,453.384,-226.261,224.355,20.850,-133.370,-6.930
200,48539.825000,216.078,-1.503,120.062,448.535,-226.278,226.314,112.850,-14.370,53.070
201,48539.864000,223.064,21.542,121.054,452.292,-234.760,225.101,92.850,-63.370,85.070
202,48539.907000,231.049,2.505,94.264,452.383,-228.980,229.196,163.850,-68.370,148.070
203,48539.954000,244.023,12.524,94.264,451.353,-232.829,227.120,241.850,-48.370,132.070
204,48539.969000,241.029,12.524,95.256,453.300,-232.723,230.077,143.850,-83.370,-59.930
205,48540.5000,228.055,-6.513,102.202,451.502,-223.215,233.289,324.850,30.630,-82.930
206,48540.59000,233.045,-1.503,91.287,450.575,-220.366,234.351,303.850,-39.370,37.070
207,48540.85000,239.033,16.532,85.333,447.705,-218.331,241.288,413.850,150.630,56.070
208,48540.129000,215.080,29.558,83.349,447.772,-214.391,247.299,328.850,65.630,89.070
209,48540.170000,214.082,34.568,70.450,447.691,-220.038,248.125,191.850,-211.370,206.070
210,48540.210000,231.049,25.550,60.527,450.646,-216.372,242.331,128.850,-330.370,259.070
211,48540.259000,241.029,16.532,66.481,449.540,-225.055,236.186,117.850,-309.370,135.070
212,48540.276000,230.051,24.548,60.527,455.379,-222.478,223.480,-80.150,-521.370,109.070
213,48540.310000,231.049,25.550,110.140,454.288,-230.188,218.346,77.850,-407.370,57.070
214,48540.350000,235.041,23.546,126.016,459.247,-221.846,209.734,109.850,-576.370,-101.930
215,48540.390000,252.008,12.524,91.287,467.990,-220.094,199.961,25.850,-520.370,-158.930
216,48540.430000,208.094,1.503,66.481,472.853,-218.371,191.165,-295.150,-109.370,-259.930
217,48540.474000,322.869,-21.542,71.442,476.845,-209.989,184.519,-5.150,-513.370,-230.930
218,48540.509000,345.825,-31.562,90.295,471.915,-214.892,180.440,-341.150,68.630,140.070
219,48540.549000,218.074,-20.540,43.659,469.805,-226.319,178.152,-36.150,-115.370,253.070
220,48540.569000,182.144,-37.573,54.574,468.840,-225.493,174.239,96.850,-399.370,106.070
221,48540.605000,201.107,12.524,86.326,476.632,-222.730,167.443,87.850,-345.370,-138.930
222,48540.651000,369.778,100.697,96.248,476.514,-229.639,156.431,-507.150,-440.370,-13.930
223,48540.685000,287.938,-13.526,63.504,476.378,-239.069,157.152,-531.150,490.630,208.070
224,48540.731000,223.064,-24.548,80.372,464.664,-244.697,164.845,-498.150,490.630,158.070
225,48540.765000,223.064,-4.509,46.636,462.681,-247.562,164.762,-581.150,310.630,159.070
226,48540.807000,234.043,-24.548,45.643,452.902,-252.480,162.641,-356.150,304.630,17.070
227,48540.847000,238.035,-12.524,65.488,454.820,-254.291,164.561,-358.150,240.630,4.070
228,48540.867000,231.049,-13.526,53.581,450.882,-258.129,164.448,-410.150,195.630,24.070
229,48540.909000,242.027,-31.562,81.364,454.755,-258.967,166.399,-238.150,313.630,-38.930
230,48540.950000,238.035,-29.558,81.364,448.862,-263.777,166.255,-210.150,99.630,-4.930
231,48540.990000,240.031,-20.540,76.403,451.794,-262.712,169.240,-153.150,192.630,7.070
232,48541.31000,229.053,-29.558,78.388,450.753,-267.480,168.122,-171.150,179.630,-35.930
233,48541.65000,221.068,-17.534,87.318,449.910,-258.930,170.326,-130.150,107.630,-36.930
234,48541.105000,248.016,-21.542,71.442,447.778,-272.170,170.938,44.850,63.630,-104.930
235,48541.150000,215.080,-47.593,112.124,445.027,-261.678,176.143,179.850,499.630,-275.930
236,48541.174000,238.035,11.523,97.240,453.007,-248.039,187.355,269.850,285.630,-490.930
237,48541.206000,258.994,25.550,105.178,455.264,-227.811,200.709,304.850,441.630,-399.930
238,48541.246000,275.961,10.521,97.240,449.393,-232.332,211.393,55.850,427.630,130.070
239,48541.286000,219.072,32.564,104.186,444.566,-231.298,217.315,-131.150,265.630,145.070
240,48541.326000,187.135,6.513,117.085,446.462,-234.160,215.271,-231.150,60.630,-42.930
241,48541.370000,174.160,-13.526,105.178,446.441,-234.423,205.428,-357.150,-188.370,-210.930
242,48541.410000,192.125,-13.526,104.186,454.091,-241.957,202.280,-266.150,-161.370,-251.930
243,48541.465000,256.000,-9.519,92.279,457.201,-227.075,191.880,-156.150,-304.370,-183.930
244,48541.472000,279.953,-1.503,67.473,460.110,-227.060,190.902,55.850,-113.370,-65.930
245,48541.512000,252.008,7.515,90.295,459.073,-231.776,191.752,-145.150,-37.370,53.070
246,48541.546000,236.039,4.509,81.364,460.987,-232.878,184.840,-152.150,39.630,16.070
247,48541.592000,225.060,-12.524,97.240,457.065,-235.744,185.737,-154.150,-15.370,48.070
248,48541.629000,218.074,-20.540,82.357,458.012,-237.569,187.655,75.850,-65.370,88.070
249,48541.670000,233.045,-21.542,81.364,455.982,-243.349,184.540,181.850,-170.370,133.070
250,48541.710000,234.043,-8.517,84.341,457.033,-237.688,183.716,179.850,-115.370,108.070
251,48541.730000,226.058,-14.528,76.403,458.970,-237.713,181.751,187.850,-201.370,-11.930
252,48541.770000,233.045,-6.513,85.333,465.804,-234.806,180.860,157.850,-189.370,-76.930
253,48541.810000,242.027,-9.519,83.349,466.714,-238.654,177.803,105.850,-187.370,-107.930
254,48541.850000,244.023,-16.532,87.318,466.918,-224.496,177.214,160.850,-52.370,-124.930
255,48541.890000,228.055,-19.538,99.225,471.712,-228.262,175.150,184.850,-187.370,-66.930
256,48541.930000,232.047,-14.528,105.178,473.714,-223.612,171.348,127.850,-172.370,66.070
257,48541.970000,249.014,26.552,140.899,472.693,-227.355,173.210,108.850,-1.370,144.070
258,48542.10000,245.021,-24.548,119.070,468.858,-225.256,183.098,458.850,231.630,83.070
259,48542.36000,257.996,-29.558,103.194,464.080,-222.040,199.900,717.850,507.630,79.070
260,48542.70000,206.097,21.542,85.333,453.502,-217.830,221.639,883.850,686.630,257.070
261,48542.110000,254.004,58.614,82.357,451.445,-227.024,232.200,447.850,114.630,473.070
262,48542.151000,262.986,39.577,62.512,446.734,-218.345,241.286,456.850,295.630,92.070
263,48542.191000,217.076,24.548,68.465,449.599,-222.742,251.988,257.850,276.630,-111.930
264,48542.231000,197.115,31.562,69.457,447.753,-216.938,258.048,54.850,203.630,-0.930
265,48542.271000,214.082,32.564,126.016,444.863,-215.928,262.005,82.850,139.630,6.070
266,48542.311000,255.002,-18.536,108.155,441.045,-211.308,260.160,206.850,-102.370,24.070
267,48542.332000,261.988,-16.532,124.031,444.008,-208.298,265.167,372.850,116.630,-28.930
268,48542.367000,234.043,30.560,90.295,442.206,-199.604,273.275,343.850,132.630,-87.930
269,48542.406000,231.049,38.575,102.202,445.140,-198.512,277.244,298.850,13.630,-78.930
270,48542.446000,219.072,19.538,90.295,442.283,-194.771,277.344,204.850,-142.370,-163.930
271,48542.487000,220.070,35.569,83.349,450.172,-185.389,270.733,198.850,-210.370,-100.930
272,48542.527000,232.047,40.579,81.364,458.847,-189.127,267.692,102.850,-257.370,-16.930
273,48542.567000,214.082,45.589,86.326,461.876,-180.654,264.982,1.850,-207.370,6.070
274,48542.607000,199.111,41.581,97.240,455.917,-189.405,258.827,-12.150,-206.370,100.070
275,48542.630000,198.113,35.569,103.194,459.819,-187.564,254.951,-192.150,-216.370,213.070
276,48542.679000,212.086,41.581,96.248,458.667,-199.136,246.758,-243.150,-358.370,208.070
277,48542.711000,196.117,37.573,87.318,457.543,-208.816,238.618,-275.150,-181.370,340.070
278,48542.752000,305.903,-33.566,100.217,450.575,-220.366,234.351,-318.150,-76.370,533.070
279,48542.792000,359.797,-67.632,128.000,445.667,-224.978,241.099,-273.150,897.630,236.070
280,48542.834000,275.961,-39.577,94.264,433.836,-239.799,258.372,-171.150,653.630,73.070
281,48542.869000,199.111,-18.536,124.031,428.069,-237.596,273.178,228.850,503.630,8.070
282,48542.910000,233.045,-25.550,115.101,425.210,-233.881,272.293,-61.150,39.630,9.070
283,48542.931000,221.068,28.556,89.302,429.136,-230.201,266.500,-128.150,-288.370,-128.930
284,48542.971000,206.097,46.591,110.140,433.908,-235.019,260.472,-190.150,-182.370,-304.930
285,48543.14000,205.099,10.521,122.047,437.879,-229.211,263.591,8.850,-103.370,-343.930
286,48543.56000,219.072,-10.521,90.295,446.552,-231.452,245.839,-267.150,-616.370,45.070
287,48543.90000,248.016,17.534,77.395,447.532,-229.784,237.034,-180.150,-306.370,155.070
288,48543.130000,275.961,6.513,108.155,447.459,-234.565,234.934,-143.150,-87.370,-58.930
289,48543.174000,225.060,0.501,88.310,452.459,-224.147,233.265,-15.150,-5.370,-137.930
290,48543.207000,246.020,11.523,89.302,451.457,-226.105,231.242,1.850,-30.370,-177.930
291,48543.227000,253.006,14.528,100.217,456.428,-218.366,235.400,82.850,117.630,-246.930
292,48543.272000,236.039,16.532,80.372,457.383,-219.324,234.391,-9.150,57.630,-152.930
293,48543.311000,204.101,20.540,82.357,451.550,-220.299,236.321,39.850,51.630,-117.930
294,48543.352000,202.105,9.519,78.388,461.246,-220.293,231.420,-39.150,-301.370,-83.930
295,48543.391000,239.033,0.501,65.488,461.368,-211.809,230.672,118.850,-186.370,83.070
296,48543.431000,238.035,26.552,74.419,462.223,-219.439,227.511,-13.150,-174.370,236.070
297,48543.471000,245.021,13.526,74.419,451.555,-218.698,225.546,64.850,-69.370,334.070
298,48543.511000,222.066,1.503,100.217,449.459,-229.941,230.148,248.850,21.630,427.070
299,48543.531000,234.043,-3.507,136.930,442.549,-238.443,233.834,395.850,-16.370,400.070
300,48543.571000,250.012,-15.530,127.008,448.483,-230.795,234.057,150.850,-353.370,71.070
301,48543.612000,190.129,67.632,103.194,448.514,-228.090,229.214,40.850,25.630,-195.930
302,48543.652000,176.156,52.603,63.504,454.388,-223.516,220.499,-292.150,-367.370,-365.930
303,48543.692000,211.088,-8.517,75.411,463.155,-219.926,208.810,-320.150,-499.370,-260.930
304,48543.732000,364.788,-63.624,68.465,465.056,-221.186,195.991,-261.150,-469.370,-54.930
305,48543.782000,239.033,-11.523,61.519,462.001,-231.524,199.633,-99.150,145.630,156.070
306,48543.809000,195.119,-15.530,60.527,461.103,-225.996,194.867,-104.150,-266.370,143.070
307,48543.835000,215.080,-6.513,80.372,464.936,-228.121,183.995,62.850,-443.370,-4.930
308,48543.869000,286.940,30.560,61.519,467.826,-228.370,173.173,-147.150,-364.370,-60.930
309,48543.907000,269.973,27.554,93.271,468.749,-231.272,170.143,-386.150,95.630,111.070
310,48543.947000,256.000,-1.503,82.357,467.552,-246.495,166.767,-595.150,107.630,98.070
311,48544.0,246.020,-1.503,73.426,465.552,-250.357,164.689,-662.150,187.630,79.070
312,48544.34000,219.072,-40.579,52.589,462.636,-250.451,162.714,-544.150,139.630,101.070
313,48544.74000,232.047,-23.546,49.612,458.633,-258.203,157.574,-149.150,-100.370,119.070
314,48544.89000,230.051,-16.532,66.481,457.657,-258.296,154.619,-120.150,-86.370,102.070
315,48544.141000,250.012,-25.550,35.721,456.589,-264.168,147.568,24.850,-155.370,97.070
316,48544.172000,264.982,-35.569,65.488,453.623,-268.753,154.321,177.850,310.630,22.070
317,48544.212000,227.057,-30.560,70.450,458.508,-267.501,163.217,151.850,189.630,-18.930
318,48544.259000,252.008,-6.513,66.481,456.740,-256.076,167.466,134.850,345.630,20.070
319,48544.292000,227.057,-15.530,89.302,455.689,-262.499,175.154,2.850,277.630,34.070
320,48544.332000,224.062,-29.558,67.473,450.903,-258.627,181.156,47.850,112.630,-138.930
321,48544.374000,249.014,-4.509,99.225,453.896,-253.699,187.199,81.850,348.630,-365.930
322,48544.394000,226.058,26.552,107.163,452.133,-242.195,194.402,-18.150,406.630,-405.930
323,48544.431000,249.014,16.532,92.279,453.171,-238.241,200.415,-124.150,365.630,-349.930
324,48544.472000,248.016,10.521,128.992,451.320,-232.489,204.506,-342.150,472.630,-170.930
325,48544.512000,226.058,-1.503,86.326,456.034,-241.142,196.405,-545.150,-124.370,-78.930
326,48544.552000,225.060,-8.517,110.140,455.992,-243.217,189.462,-571.150,30.630,-144.930
327,48544.592000,215.080,-17.534,96.248,460.835,-243.280,184.550,-672.150,-6.370,-104.930
328,48544.632000,194.121,-30.560,88.310,458.844,-245.489,173.666,-450.150,-108.370,-253.930
329,48544.671000,245.021,-10.521,88.310,465.731,-238.064,165.031,-187.150,-278.370,-388.930
330,48544.691000,306.901,0.501,88.310,467.662,-238.930,166.978,-185.150,212.630,-30.930
331,48544.731000,233.045,-16.532,92.279,468.649,-237.944,167.990,-305.150,256.630,80.070
332,48544.771000,241.029,-10.521,80.372,466.478,-253.995,169.507,-77.150,174.630,138.070
333,48544.810000,230.051,-25.550,79.380,456.889,-246.462,173.635,-45.150,168.630,217.070
334,48544.852000,200.109,-42.583,80.372,458.656,-258.675,175.266,247.850,79.630,199.070
335,48544.892000,213.084,-36.571,70.450,456.785,-253.948,176.378,349.850,-189.370,125.070
336,48544.939000,228.055,-8.517,69.457,458.766,-251.110,175.476,335.850,-322.370,55.070
337,48544.972000,243.025,-8.517,82.357,462.706,-247.246,176.574,178.850,-169.370,-227.930
338,48544.992000,234.043,0.501,98.233,469.616,-238.744,172.888,273.850,-309.370,-322.930
339,48545.32000,230.051,-7.515,128.992,475.559,-230.204,171.168,440.850,-178.370,-243.930
340,48545.72000,202.105,-5.511,132.961,475.513,-233.881,175.000,381.850,-124.370,319.070
341,48545.112000,199.111,-5.511,86.326,475.489,-235.720,176.916,437.850,-193.370,621.070
342,48545.152000,305.903,11.523,76.403,469.594,-240.557,175.788,499.850,-264.370,202.070
343,48545.192000,280.951,39.577,70.450,470.616,-236.813,173.927,344.850,-203.370,81.070
344,48545.232000,233.045,32.564,23.814,472.491,-241.487,174.783,286.850,-22.370,-91.930
345,48545.272000,224.062,45.589,68.465,471.720,-228.157,179.087,151.850,-20.370,-79.930
346,48545.292000,240.031,15.530,62.512,477.409,-236.743,172.956,-29.150,-147.370,15.070
347,48545.332000,263.984,-14.528,107.163,474.676,-225.252,180.157,309.850,90.630,-70.930
348,48545.372000,255.002,-4.509,67.473,480.504,-225.117,182.137,285.850,9.630,-87.930
349,48545.426000,231.049,24.548,78.388,478.655,-220.101,194.077,478.850,299.630,-41.930
350,48545.454000,243.025,13.526,90.295,473.865,-217.043,204.974,383.850,145.630,28.070
351,48545.492000,221.068,17.534,70.450,474.915,-212.169,210.029,330.850,115.630,2.070
352,48545.532000,224.062,19.538,78.388,474.921,-212.090,212.982,275.850,82.630,3.070
353,48545.574000,239.033,30.560,74.419,471.070,-210.201,214.996,92.850,38.630,106.070
354,48545.594000,240.031,22.544,70.450,469.139,-210.097,219.913,47.850,187.630,168.070
355,48545.635000,217.076,19.538,81.364,465.133,-219.424,226.532,22.850,252.630,159.070
356,48545.681000,227.057,27.554,82.357,459.271,-222.291,228.410,-13.150,126.630,191.070
357,48545.715000,235.041,20.540,73.426,455.269,-230.804,230.134,-64.150,237.630,249.070
358,48545.755000,229.053,20.540,88.310,453.279,-235.297,239.841,-201.150,305.630,213.070
359,48545.796000,230.051,-31.562,107.163,447.373,-241.053,239.671,-92.150,191.630,130.070
360,48545.831000,251.010,-46.591,144.868,443.565,-236.301,242.748,23.850,153.630,25.070
361,48545.872000,266.979,-18.536,143.876,441.714,-231.310,253.703,476.850,280.630,-74.930
362,48545.892000,201.107,11.523,115.101,442.843,-221.577,263.812,612.850,20.630,-20.930
363,48545.932000,189.131,36.571,94.264,440.860,-224.441,263.729,377.850,-211.370,66.070
364,48545.972000,195.119,45.589,93.271,446.810,-215.061,258.098,30.850,-350.370,33.070
365,48546.20000,254.004,28.556,70.450,447.648,-223.663,253.926,-110.150,-216.370,15.070
366,48546.54000,266.979,3.507,73.426,450.663,-216.923,257.069,-2.150,79.630,11.070
367,48546.91000,239.033,8.517,94.264,444.762,-221.839,252.988,-193.150,-60.370,-83.930
368,48546.135000,236.039,15.530,75.411,449.678,-217.121,250.177,-77.150,-36.370,-90.930
369,48546.175000,240.031,18.536,81.364,448.597,-224.700,249.964,-170.150,30.630,-92.930
370,48546.195000,216.078,17.534,77.395,451.599,-218.118,247.202,-218.150,-39.370,-108.930
371,48546.235000,222.066,18.536,62.512,452.371,-230.661,237.018,-396.150,-306.370,23.070
372,48546.270000,244.023,9.519,89.302,454.357,-226.983,232.206,-178.150,-195.370,32.070
373,48546.310000,249.014,12.524,74.419,458.139,-232.838,223.197,-221.150,-255.370,42.070
374,48546.350000,235.041,11.523,61.519,457.180,-231.172,215.373,-275.150,-218.370,42.070
375,48546.390000,226.058,15.530,77.395,457.964,-243.556,211.095,-191.150,-116.370,49.070
376,48546.430000,202.105,5.511,94.264,455.144,-237.031,209.304,1.850,-137.370,76.070
377,48546.482000,207.096,-23.546,133.953,464.711,-245.615,201.213,198.850,-481.370,-38.930
378,48546.490000,256.998,-25.550,97.240,472.737,-226.776,194.865,133.850,-542.370,-465.930
379,48546.530000,175.158,44.587,73.426,473.684,-227.078,183.055,-56.150,-409.370,-336.930
380,48546.585000,256.998,-2.505,36.713,474.693,-222.731,168.424,-37.150,-590.370,-162.930
381,48546.611000,359.797,-33.566,69.457,482.525,-217.920,167.587,-118.150,-186.370,-95.930
382,48546.667000,264.982,-1.503,37.705,481.416,-226.628,160.458,-280.150,45.630,211.070
383,48546.705000,218.074,-13.526,43.659,475.614,-225.660,164.409,-74.150,128.630,235.070
384,48546.735000,214.082,-26.552,69.457,474.577,-230.375,165.260,-50.150,-80.370,166.070
385,48546.755000,252.008,25.550,72.434,476.392,-238.124,157.179,-142.150,-133.370,26.070
386,48546.801000,269.973,27.554,77.395,474.513,-233.502,154.353,-307.150,15.630,64.070
387,48546.835000,256.998,-3.507,74.419,470.387,-249.764,148.976,-515.150,156.630,172.070
388,48546.876000,253.006,-8.517,86.326,466.488,-250.791,147.957,-606.150,182.630,95.070
389,48546.916000,251.010,-15.530,61.519,466.457,-252.735,145.936,-511.150,274.630,67.070
390,48546.956000,237.037,-19.538,70.450,461.515,-259.318,149.679,-363.150,235.630,83.070
391,48546.996000,227.057,-24.548,64.496,464.349,-264.137,144.631,-268.150,135.630,77.070
392,48547.31000,225.060,-21.542,45.643,461.317,-272.636,146.357,-160.150,18.630,43.070
393,48547.51000,251.010,-22.544,55.566,457.474,-269.880,145.444,-116.150,26.630,75.070
394,48547.94000,241.029,-35.569,72.434,457.407,-274.582,146.296,-48.150,246.630,38.070
395,48547.134000,234.043,-22.544,64.496,455.572,-267.859,151.398,-10.150,211.630,-31.930
396,48547.174000,255.002,-25.550,73.426,452.617,-271.524,157.193,-10.150,272.630,-34.930
397,48547.212000,239.033,-25.550,69.457,454.657,-265.612,165.230,86.850,435.630,-138.930
398,48547.260000,224.062,-29.558,101.209,448.885,-263.488,177.083,245.850,485.630,-246.930
399,48547.295000,203.103,7.515,97.240,452.958,-251.743,190.203,229.850,315.630,-231.930
400,48547.342000,269.973,28.556,91.287,452.966,-251.638,194.140,97.850,102.630,-92.930
401,48547.365000,300.912,31.562,110.140,448.017,-258.326,193.946,-311.150,379.630,105.070
402,48547.396000,228.055,-4.509,119.070,443.963,-269.807,190.669,-564.150,117.630,118.070
403,48547.436000,193.123,-35.569,102.202,441.045,-269.928,187.710,-434.150,82.630,40.070
404,48547.475000,181.146,-26.552,109.147,445.816,-274.771,180.698,-457.150,-191.370,-136.930
405,48547.516000,210.090,-17.534,81.364,452.681,-269.159,174.964,-346.150,-362.370,-295.930
406,48547.556000,283.945,-29.558,63.504,458.567,-263.666,165.291,91.850,-201.370,-173.930
407,48547.591000,263.984,-30.560,95.256,462.505,-259.829,165.404,13.850,53.630,-37.930
408,48547.631000,243.025,-4.509,78.388,459.538,-263.653,165.293,-118.150,25.630,-9.930
409,48547.651000,248.016,-15.530,73.426,461.465,-264.571,165.270,-32.150,100.630,106.070
410,48547.691000,228.055,-33.566,78.388,456.592,-265.664,162.281,24.850,63.630,75.070
411,48547.731000,211.088,-29.558,67.473,457.665,-258.952,165.420,229.850,-130.370,-0.930
412,48547.771000,219.072,-26.552,74.419,459.561,-262.575,170.241,413.850,-142.370,-5.930
413,48547.811000,223.064,-20.540,77.395,460.666,-253.158,168.537,426.850,-312.370,0.070
414,48547.857000,226.058,-15.530,80.372,464.491,-256.150,160.592,298.850,-376.370,-86.930
415,48547.892000,248.016,-3.507,73.426,472.413,-244.798,156.986,173.850,-433.370,-67.930
416,48547.932000,236.039,-8.517,87.318,475.262,-248.645,152.950,78.850,-261.370,-61.930
417,48547.955000,219.072,5.511,103.194,479.260,-240.184,149.257,123.850,-317.370,-53.930
418,48547.996000,208.094,-1.503,136.930,475.332,-243.129,147.202,63.850,-198.370,169.070
419,48548.36000,300.912,-30.560,94.264,477.175,-248.986,139.173,173.850,-250.370,231.070
420,48548.91000,226.058,8.517,70.450,478.158,-248.814,145.081,290.850,48.630,-9.930
421,48548.112000,232.047,25.550,45.643,478.268,-241.249,145.292,447.850,-258.370,-134.930
422,48548.152000,288.936,30.560,34.729,483.082,-243.229,139.343,310.850,-285.370,35.070
423,48548.195000,250.012,24.548,47.628,482.172,-239.382,142.399,214.850,52.630,147.070
424,48548.235000,220.070,24.548,38.698,482.168,-240.196,147.295,28.850,-0.370,92.070
425,48548.255000,233.045,25.550,34.729,480.201,-242.088,148.222,-12.150,12.630,100.070
426,48548.295000,231.049,12.524,76.403,478.134,-250.653,146.997,19.850,-33.370,218.070
427,48548.342000,276.959,-47.593,107.163,475.217,-251.534,150.902,205.850,107.630,148.070
428,48548.377000,264.982,-44.587,104.186,476.221,-250.312,160.774,366.850,126.630,-67.930
429,48548.412000,237.037,-11.523,79.380,470.514,-243.511,170.789,512.850,275.630,-93.930
430,48548.452000,215.080,9.519,47.628,474.528,-234.840,174.972,346.850,155.630,-0.930
431,48548.495000,248.016,24.548,18.853,472.569,-236.627,179.837,122.850,-12.370,114.070
432,48548.534000,263.984,23.546,58.543,471.575,-238.480,181.751,76.850,138.630,14.070
433,48548.555000,256.000,15.530,35.721,470.520,-244.194,180.606,-163.150,59.630,-87.930
434,48548.595000,240.031,16.532,55.566,471.611,-236.483,185.741,-21.150,295.630,-67.930
435,48548.635000,234.043,17.534,73.426,468.650,-240.228,188.583,-211.150,289.630,-5.930
436,48548.675000,225.060,6.513,83.349,467.693,-240.058,195.471,-149.150,319.630,-1.930
437,48548.724000,219.072,-0.501,84.341,463.760,-243.842,197.326,-72.150,219.630,57.070
438,48548.757000,231.049,-2.505,71.442,461.699,-252.328,199.054,-322.150,189.630,176.070
439,48548.797000,252.008,-1.503,95.256,450.983,-256.051,206.801,-190.150,564.630,140.070
440,48548.837000,244.023,-57.613,115.101,452.038,-251.099,214.810,-50.150,431.630,-20.930
441,48548.857000,278.955,-56.611,72.434,446.216,-251.155,215.782,183.850,270.630,-107.930
442,48548.897000,235.041,21.542,91.287,444.403,-243.380,224.848,205.850,146.630,-114.930
443,48548.937000,192.125,7.515,67.473,452.009,-253.778,220.637,-53.150,-176.370,-120.930
444,48548.977000,213.084,-10.521,114.109,454.137,-240.590,218.056,131.850,-168.370,-188.930
445,48549.17000,217.076,-11.523,127.008,459.037,-236.844,214.234,189.850,-353.370,-107.930
446,48549.59000,218.074,10.521,66.481,463.855,-238.772,210.254,207.850,-422.370,257.070
447,48549.92000,311.891,-6.513,64.496,463.758,-244.630,203.206,106.850,-310.370,337.070
448,48549.137000,272.967,25.550,87.318,464.922,-232.139,210.441,281.850,145.630,-142.930
449,48549.155000,216.078,15.530,72.434,463.898,-235.909,211.318,161.850,122.630,-109.930
450,48549.197000,227.057,2.505,76.403,462.069,-228.345,212.509,166.850,31.630,-27.930
451,48549.242000,232.047,14.528,78.388,462.992,-232.008,216.343,115.850,-19.370,-158.930
452,48549.274000,218.074,30.560,71.442,463.988,-230.130,215.413,55.850,4.630,-74.930
453,48549.320000,228.055,6.513,75.411,463.982,-230.209,212.460,-86.150,-281.370,51.070
454,48549.365000,241.029,10.521,66.481,464.004,-228.396,209.560,52.850,-59.370,59.070
455,48549.399000,231.049,32.564,72.434,464.975,-228.383,209.562,-32.150,-101.370,128.070
456,48549.439000,241.029,7.515,70.450,464.914,-232.244,206.503,-2.150,-113.370,102.070
457,48549.460000,240.031,2.505,75.411,465.798,-237.957,204.379,-0.150,-136.370,87.070
458,48549.494000,243.025,-5.511,111.132,460.013,-235.229,203.461,117.850,-61.370,180.070
459,48549.534000,278.955,-40.579,130.977,459.022,-236.267,200.480,131.850,-78.370,104.070
460,48549.576000,230.051,26.552,91.287,455.103,-239.868,209.226,53.850,235.630,100.070
461,48549.620000,231.049,36.571,81.364,447.320,-241.737,214.078,-218.150,449.630,100.070
462,48549.654000,212.086,2.505,73.426,440.402,-251.106,220.691,-197.150,546.630,11.070
463,48549.694000,210.090,-47.593,109.147,440.461,-247.270,222.765,-58.150,-78.370,-114.930
464,48549.734000,233.045,-50.599,56.558,447.272,-246.202,223.790,139.850,-216.370,41.070
465,48549.754000,237.037,-12.524,77.395,444.344,-247.215,222.774,131.850,-99.370,191.070
466,48549.794000,249.014,-15.530,62.512,440.475,-246.325,222.792,12.850,-83.370,105.070
467,48549.841000,233.045,-24.548,88.310,445.340,-245.337,221.844,120.850,51.630,2.070
468,48549.876000,219.072,-19.538,78.388,444.279,-251.891,224.611,-1.150,13.630,1.070
469,48549.916000,235.041,-9.519,82.357,444.442,-240.570,223.942,57.850,-20.370,-107.930
470,48549.956000,240.031,-2.505,93.271,446.388,-240.490,225.915,-36.150,17.630,-257.930
471,48549.999000,234.043,24.548,93.271,448.413,-234.001,220.197,-179.150,-69.370,-265.930
472,48550.20000,251.010,30.560,95.256,452.242,-236.940,214.220,-318.150,-61.370,-249.930
473,48550.54000,250.012,-4.509,92.279,451.382,-229.389,214.429,-375.150,152.630,-61.930
474,48550.95000,256.000,-17.534,84.341,449.214,-244.626,211.050,-389.150,43.630,95.070
475,48550.135000,225.060,-7.515,75.411,453.120,-241.971,202.278,-239.150,-118.370,127.070
476,48550.175000,228.055,0.501,85.333,453.020,-248.643,200.125,-256.150,-168.370,64.070
477,48550.231000,226.058,-1.503,87.318,456.883,-249.612,197.154,-232.150,-107.370,-11.930
478,48550.259000,206.097,-2.505,79.380,455.841,-253.619,189.172,-252.150,-153.370,-165.930
479,48550.299000,236.039,-9.519,77.395,460.761,-248.087,181.465,-169.150,-281.370,-361.930
480,48550.320000,261.988,-4.509,66.481,464.672,-245.353,175.646,-218.150,-215.370,-283.930
481,48550.357000,271.969,-0.501,63.504,467.609,-242.686,167.857,-262.150,-186.370,-117.930
482,48550.399000,256.000,-6.513,57.550,470.578,-238.074,162.088,-255.150,-109.370,-53.930
483,48550.445000,254.004,-13.526,61.519,470.501,-242.908,158.019,-223.150,-74.370,-32.930
484,48550.479000,247.018,-15.530,67.473,473.368,-245.756,155.978,-129.150,20.630,44.070
485,48550.516000,231.049,-11.523,58.543,472.452,-241.987,156.081,-77.150,-20.370,107.070
486,48550.564000,236.039,-6.513,60.527,470.385,-250.552,154.856,1.850,-15.370,70.070
487,48550.599000,245.021,-4.509,52.589,468.524,-244.932,154.025,-16.150,-74.370,52.070
488,48550.619000,247.018,-4.509,64.496,467.410,-254.481,150.807,61.850,-67.370,14.070
489,48550.659000,234.043,-15.530,68.465,468.505,-245.957,151.046,100.850,-80.370,-32.930
490,48550.699000,244.023,-19.538,89.302,470.411,-248.687,153.924,189.850,-28.370,-45.930
491,48550.739000,259.992,-5.511,86.326,472.480,-240.096,156.134,119.850,26.630,-30.930
492,48550.777000,256.998,-13.526,69.457,468.483,-248.530,160.810,93.850,95.630,19.070
493,48550.817000,245.021,-18.536,81.364,469.613,-238.009,165.039,180.850,187.630,-29.930
494,48550.857000,241.029,-2.505,83.349,467.611,-242.660,168.841,80.850,157.630,-24.930
495,48550.896000,230.051,-13.526,83.349,464.749,-239.759,172.851,3.850,200.630,75.070
496,48550.917000,221.068,-26.552,78.388,468.557,-245.272,176.639,-40.150,159.630,30.070
497,48550.959000,213.084,-10.521,78.388,462.743,-244.462,174.684,-52.150,8.630,-24.930
498,48551.0,228.055,-0.501,84.341,471.508,-241.659,168.875,-155.150,-94.370,-43.930
499,48551.46000,235.041,-0.501,86.326,469.610,-238.823,169.935,-108.150,-111.370,-76.930
500,48551.80000,228.055,-5.511,123.039,468.602,-241.621,171.822,35.850,263.630,1.070
501,48551.115000,194.121,-16.532,98.233,468.586,-242.593,170.812,122.850,-40.370,152.070
502,48551.160000,232.047,-8.517,75.411,467.584,-245.312,175.652,162.850,127.630,215.070
503,48551.199000,284.943,27.554,72.434,463.668,-248.099,179.503,181.850,10.630,203.070
504,48551.216000,278.955,4.509,56.558,464.688,-245.143,183.521,137.850,87.630,21.070
505,48551.257000,236.039,5.511,76.403,463.795,-241.084,194.452,293.850,228.630,-112.930
506,48551.296000,214.082,9.519,40.682,465.787,-237.327,192.593,113.850,-98.370,-62.930
507,48551.340000,262.986,14.528,98.233,465.660,-246.652,197.251,205.850,205.630,-53.930
508,48551.380000,274.963,-25.550,112.124,464.949,-229.486,203.629,271.850,217.630,-87.930
509,48551.426000,219.072,12.524,78.388,464.965,-229.276,211.504,337.850,185.630,-120.930
510,48551.460000,235.041,53.605,64.496,464.126,-220.673,215.676,171.850,177.630,-66.930
511,48551.497000,239.033,34.568,79.380,460.265,-219.677,219.632,116.850,220.630,-134.930
512,48551.517000,222.066,17.534,79.380,463.252,-214.829,222.723,-46.150,-33.370,-118.930
513,48551.566000,225.060,3.507,71.442,463.156,-221.448,222.538,30.850,52.630,-62.930
514,48551.595000,232.047,13.526,80.372,467.089,-217.664,220.683,3.850,-0.370,-3.930
515,48551.646000,245.021,25.550,78.388,463.112,-224.312,221.475,-44.150,62.630,25.070
516,48551.680000,244.023,24.548,85.333,468.084,-216.573,225.633,-100.150,203.630,16.070
517,48551.725000,213.084,31.562,76.403,460.146,-228.897,228.228,-312.150,259.630,104.070
518,48551.755000,203.103,12.524,79.380,456.279,-227.980,229.230,-373.150,185.630,136.070
519,48551.822000,196.117,-13.526,133.953,452.292,-234.760,225.101,-275.150,174.630,188.070
520,48551.831000,322.869,-63.624,145.860,453.227,-236.742,221.113,-137.150,-234.370,9.070
521,48551.859000,274.963,-5.511,152.806,451.314,-235.640,228.025,407.850,486.630,-270.930
522,48551.899000,159.189,39.577,117.085,446.730,-219.159,246.181,505.850,211.630,-126.930
523,48551.940000,138.230,36.571,96.248,446.701,-221.838,252.008,286.850,-49.370,55.070
524,48551.980000,195.119,17.534,99.225,452.558,-219.024,248.162,5.850,-259.370,162.070
525,48552.20000,267.977,14.528,89.302,452.495,-222.912,244.119,26.850,-77.370,26.070
526,48552.60000,248.016,-1.503,80.372,454.507,-218.130,245.239,-1.150,25.630,29.070
527,48552.100000,231.049,0.501,98.233,448.634,-221.916,248.075,98.850,40.630,26.070
528,48552.121000,244.023,19.538,82.357,452.564,-218.184,244.251,3.850,-123.370,-23.930
529,48552.156000,226.058,22.544,77.395,447.695,-219.224,243.230,135.850,7.630,-84.930
530,48552.196000,220.070,33.566,70.450,457.476,-213.518,239.471,-122.150,-212.370,-83.930
531,48552.236000,220.070,16.532,79.380,457.354,-221.241,233.354,-137.150,-200.370,0.070
532,48552.279000,245.021,13.526,81.364,457.344,-221.373,228.432,-148.150,-257.370,114.070
533,48552.319000,244.023,16.532,97.240,460.167,-227.085,225.327,-62.150,-119.370,141.070
534,48552.359000,229.053,-2.505,97.240,456.308,-225.301,223.403,9.850,-142.370,166.070
535,48552.399000,227.057,0.501,88.310,455.182,-235.769,221.143,3.850,-143.370,202.070
536,48552.419000,244.023,18.536,93.271,454.284,-230.241,216.377,41.850,-51.370,168.070
537,48552.460000,240.031,-20.540,119.070,452.244,-236.914,215.205,86.850,-259.370,-2.930
538,48552.500000,214.082,-1.503,71.442,453.254,-234.090,214.301,38.850,-198.370,42.070
539,48552.540000,216.078,19.538,80.372,456.117,-236.991,210.291,13.850,-146.370,27.070
540,48552.580000,220.070,-2.505,108.155,458.101,-233.339,204.494,-104.150,-212.370,-108.930
541,48552.620000,238.035,-2.505,96.248,460.060,-231.552,199.629,-211.150,-311.370,-202.930
542,48552.660000,232.047,-7.515,71.442,468.811,-228.933,186.930,-215.150,-337.370,-128.930
543,48552.707000,261.988,-23.546,53.581,469.785,-227.344,175.172,-113.150,-514.370,-8.930
544,48552.722000,284.943,-6.513,67.473,468.720,-233.190,169.106,-298.150,-197.370,151.070
545,48552.756000,250.012,-14.528,47.628,469.535,-243.630,166.850,-195.150,16.630,138.070
546,48552.805000,216.078,-13.526,56.558,466.648,-241.807,165.912,-106.150,10.630,82.070
547,48552.840000,222.066,-1.503,73.426,469.545,-242.737,164.908,4.850,-237.370,-11.930
548,48552.880000,248.016,10.521,74.419,468.536,-244.013,153.067,-143.150,-259.370,-109.930
549,48552.921000,283.945,23.546,90.295,469.467,-246.048,147.110,-397.150,-60.370,109.070
550,48552.961000,268.975,-16.532,77.395,469.267,-259.392,142.805,-514.150,183.630,226.070
551,48553.1000,260.990,-14.528,80.372,463.488,-256.585,144.840,-647.150,307.630,187.070
552,48553.21000,234.043,-12.524,56.558,460.460,-265.032,148.534,-475.150,486.630,23.070
553,48553.61000,234.043,-19.538,67.473,458.478,-267.896,148.451,-320.150,369.630,5.070
554,48553.99000,231.049,-12.524,66.481,454.556,-270.762,149.349,-277.150,217.630,4.070
555,48553.141000,218.074,-17.534,55.566,458.443,-270.654,151.326,-287.150,95.630,43.070
556,48553.181000,238.035,-32.564,61.519,454.389,-282.136,148.048,-234.150,126.630,78.070
557,48553.221000,231.049,-45.589,73.426,451.548,-277.423,149.158,-107.150,184.630,-11.930
558,48553.261000,231.049,-41.581,71.442,448.687,-274.495,154.153,32.850,100.630,-102.930
559,48553.281000,234.043,-24.548,83.349,448.760,-269.714,156.253,94.850,113.630,-161.930
560,48553.321000,245.021,-14.528,82.357,452.566,-275.254,159.057,-6.150,22.630,-132.930
561,48553.362000,264.982,-7.515,93.271,448.687,-275.257,161.017,-180.150,342.630,-42.930
562,48553.397000,260.990,-6.513,104.186,442.901,-273.316,165.979,-392.150,639.630,169.070
563,48553.437000,201.107,-7.515,126.016,440.854,-281.617,174.598,-403.150,618.630,141.070
564,48553.477000,189.131,-32.564,100.217,438.891,-282.696,170.630,-297.150,55.630,-166.930
565,48553.517000,211.088,3.507,89.302,445.724,-279.028,162.875,-338.150,-235.370,-258.930
566,48553.557000,239.033,-29.558,77.395,449.573,-280.182,153.013,-308.150,-305.370,-262.930
567,48553.577000,240.031,-35.569,93.271,453.560,-272.641,150.278,-164.150,-24.370,-290.930
568,48553.617000,224.062,-33.566,81.364,457.462,-270.800,146.402,-77.150,-243.370,-208.930
569,48553.657000,251.010,-19.538,87.318,461.515,-258.557,142.815,152.850,-115.370,-123.930
570,48553.697000,243.025,-20.540,79.380,460.509,-260.567,138.823,91.850,-144.370,-127.930
571,48553.737000,239.033,-14.528,89.302,468.429,-250.002,141.097,201.850,-96.370,-163.930
572,48553.777000,220.070,-23.546,69.457,473.173,-257.499,140.897,386.850,-246.370,-18.930
573,48553.817000,252.008,-26.552,65.488,468.514,-244.302,142.239,490.850,-196.370,-3.930
574,48553.857000,253.006,-7.515,61.519,470.430,-246.140,143.175,510.850,-84.370,-86.930
575,48553.877000,240.031,-8.517,73.426,476.386,-238.203,154.226,593.850,102.630,-34.930
576,48553.919000,237.037,-9.519,83.349,473.431,-241.868,160.020,430.850,-21.370,45.070
577,48553.959000,242.027,-0.501,82.357,469.637,-236.171,163.123,327.850,-77.370,31.070
578,48554.6000,245.021,-9.519,80.372,469.767,-227.581,166.313,337.850,2.630,37.070
579,48554.39000,232.047,-3.507,87.318,467.666,-238.877,168.946,293.850,-101.370,78.070
580,48554.79000,240.031,-2.505,98.233,475.610,-226.474,169.305,279.850,-69.370,29.070
581,48554.119000,241.029,-2.505,110.140,473.632,-229.286,171.190,215.850,-51.370,24.070
582,48554.159000,238.035,-8.517,105.178,473.589,-232.149,170.127,169.850,-35.370,27.070
583,48554.179000,231.049,-12.524,128.000,476.501,-232.869,176.997,213.850,143.630,-49.930
584,48554.219000,235.041,-7.515,112.124,470.776,-227.067,185.018,300.850,256.630,14.070
585,48554.259000,255.002,-14.528,107.163,470.937,-217.295,197.093,481.850,598.630,-4.930
586,48554.297000,224.062,18.536,98.233,463.277,-212.964,221.791,707.850,706.630,19.070
587,48554.337000,206.097,44.587,84.341,454.601,-210.775,237.575,382.850,452.630,276.070
588,48554.381000,237.037,48.595,35.721,459.341,-219.086,242.270,185.850,11.630,170.070
589,48554.424000,260.990,24.548,60.527,455.441,-220.900,247.131,153.850,196.630,-31.930
590,48554.464000,211.088,29.558,79.380,452.672,-211.406,250.341,23.850,115.630,25.070
591,48554.484000,196.117,39.577,75.411,448.782,-212.328,253.260,5.850,4.630,74.070
592,48554.522000,220.070,10.521,118.078,451.631,-216.174,249.223,30.850,-11.370,93.070
593,48554.562000,258.994,-0.501,125.023,453.553,-217.933,253.112,12.850,-104.370,61.070
594,48554.602000,252.008,1.503,136.930,450.633,-218.841,256.032,351.850,247.630,9.070
595,48554.642000,224.062,19.538,111.132,447.869,-209.294,261.211,334.850,266.630,-69.930
596,48554.682000,215.080,36.571,123.039,444.126,-201.389,276.179,500.850,280.630,-36.930
597,48554.722000,224.062,25.550,103.194,443.160,-201.350,278.146,190.850,-32.370,19.070
598,48554.764000,206.097,35.569,88.310,441.234,-200.406,279.152,220.850,27.630,-19.930
599,48554.784000,203.103,19.538,81.364,444.079,-205.066,280.011,33.850,-41.370,112.070
600,48554.830000,242.027,15.530,101.209,440.167,-207.039,278.966,-47.150,-8.370,173.070
601,48554.862000,243.025,35.569,97.240,438.320,-200.473,278.162,-73.150,53.630,121.070
602,48554.904000,220.070,24.548,101.209,438.246,-206.042,281.941,-182.150,134.630,108.070
603,48554.945000,192.125,23.546,90.295,435.145,-218.508,276.671,-205.150,92.630,212.070
604,48554.984000,238.035,-11.523,111.132,433.096,-226.074,277.441,-592.150,-33.370,342.070
605,48555.24000,266.979,-53.605,111.132,430.936,-240.444,271.136,-313.150,155.630,95.070
606,48555.62000,257.996,-23.546,85.333,428.942,-244.228,272.011,-188.150,-34.370,58.070
607,48555.96000,222.066,-10.521,106.171,426.051,-242.457,269.105,-2.150,104.630,-47.930
608,48555.124000,202.105,-3.507,130.977,427.134,-234.852,270.302,15.850,-142.370,-94.930
609,48555.164000,204.101,-1.503,109.147,430.987,-235.953,262.409,17.850,-469.370,-109.930
610,48555.204000,200.109,7.515,118.078,435.794,-238.012,253.507,104.850,-363.370,44.070
611,48555.245000,236.039,5.511,110.140,444.510,-238.152,243.682,-129.150,-577.370,177.070
612,48555.287000,271.969,-13.526,101.209,447.410,-238.269,237.782,-2.150,-357.370,55.070
613,48555.320000,257.996,-7.515,101.209,451.312,-236.428,233.905,152.850,-203.370,-102.930
614,48555.340000,225.060,-3.507,96.248,450.392,-232.712,232.040,228.850,-174.370,-54.930
615,48555.380000,235.041,2.505,92.279,457.155,-234.559,230.032,218.850,-107.370,-30.930
616,48555.425000,228.055,22.544,78.388,452.389,-228.901,232.149,21.850,-167.370,-20.930
617,48555.460000,218.074,38.575,92.279,458.250,-226.035,230.271,-88.150,-106.370,-7.930
618,48555.500000,238.035,23.546,63.504,455.162,-236.794,218.164,-456.150,-317.370,15.070
619,48555.549000,236.039,19.538,83.349,462.986,-231.326,206.526,-269.150,-161.370,-74.930
620,48555.584000,243.025,17.534,83.349,465.766,-239.901,202.357,-390.150,-286.370,-7.930
621,48555.622000,247.018,-3.507,97.240,461.891,-239.089,199.423,-217.150,-130.370,40.070
622,48555.640000,267.977,-18.536,81.364,466.650,-244.852,193.369,-192.150,0.630,-75.930
623,48555.685000,232.047,15.530,83.349,466.654,-244.799,195.337,-104.150,98.630,-91.930
624,48555.725000,240.031,8.517,90.295,464.738,-242.962,194.402,-87.150,139.630,-26.930
625,48555.765000,227.057,5.511,80.372,466.729,-239.992,198.422,51.850,30.630,-34.930
626,48555.806000,225.060,6.513,78.388,461.807,-244.789,198.280,27.850,-38.370,46.070
627,48555.841000,228.055,7.515,93.271,464.817,-238.102,199.455,141.850,-119.370,67.070
628,48555.890000,243.025,2.505,99.225,462.795,-243.016,193.413,182.850,-268.370,42.070
629,48555.924000,237.037,-0.501,91.287,462.807,-242.097,192.455,263.850,-231.370,116.070
630,48555.944000,248.016,-6.513,105.178,460.862,-242.938,197.346,324.850,17.630,181.070
631,48555.982000,246.020,7.515,89.302,460.907,-240.048,199.394,17.850,34.630,19.070
632,48556.22000,231.049,19.538,79.380,459.948,-239.904,205.298,-169.150,365.630,-131.930
633,48556.64000,256.998,5.511,90.295,454.172,-237.071,208.318,-311.150,492.630,-84.930
634,48556.104000,247.018,-26.552,72.434,449.226,-244.468,216.957,-272.150,504.630,-69.930
635,48556.144000,239.033,-25.550,69.457,442.373,-249.161,221.733,-278.150,358.630,42.070
636,48556.186000,239.033,-10.521,71.442,438.450,-252.814,228.510,-169.150,452.630,119.070
637,48556.220000,227.057,-48.595,74.419,429.639,-258.506,232.271,-67.150,462.630,122.070
638,48556.240000,193.123,-16.532,92.279,427.753,-255.512,239.236,-76.150,262.630,134.070
639,48556.280000,227.057,-11.523,86.326,421.823,-262.346,234.118,-186.150,2.630,108.070
640,48556.320000,234.043,-14.528,102.202,425.767,-258.429,237.185,-58.150,-29.370,7.070
641,48556.366000,243.025,-33.566,103.194,422.835,-259.495,234.199,-61.150,-19.370,11.070
642,48556.400000,228.055,-42.583,107.163,421.841,-261.348,236.113,72.850,113.630,86.070
643,48556.444000,225.060,-31.562,123.039,421.784,-265.156,235.023,152.850,53.630,97.070
644,48556.482000,217.076,-33.566,114.109,415.988,-264.109,241.928,137.850,49.630,52.070
645,48556.529000,225.060,-33.566,104.186,413.090,-263.966,248.812,307.850,95.630,68.070
646,48556.545000,225.060,-28.556,103.194,411.237,-258.241,251.919,146.850,142.630,19.070
647,48556.586000,209.092,-1.503,104.186,409.239,-262.077,250.826,113.850,91.630,-47.930
648,48556.620000,241.029,4.509,115.101,408.388,-254.394,255.956,80.850,57.630,-39.930
649,48556.660000,232.047,35.569,128.000,408.278,-261.959,255.745,-231.150,86.630,33.070
650,48556.700000,219.072,-2.505,129.984,412.155,-261.983,252.800,-377.150,83.630,-9.930
651,48556.741000,195.119,-37.573,123.039,412.048,-268.734,247.694,-343.150,-30.370,-65.930
652,48556.780000,203.103,-32.564,103.194,418.906,-263.989,244.887,-201.150,-226.370,-103.930
653,48556.820000,229.053,-23.546,96.248,420.860,-262.254,238.053,-0.150,-274.370,-164.930
654,48556.840000,252.008,-16.532,90.295,428.651,-259.518,230.274,-19.150,-242.370,-150.930
655,48556.886000,232.047,-29.558,102.202,427.633,-262.448,227.240,10.850,-67.370,-89.930
656,48556.950000,231.049,-26.552,109.147,429.576,-262.394,228.228,26.850,-196.370,5.070
657,48556.967000,232.047,-25.550,98.233,430.606,-257.784,223.440,56.850,-185.370,16.070
658,48557.5000,234.043,-30.560,81.364,433.563,-254.853,225.494,219.850,-152.370,71.070
659,48557.45000,219.072,-32.564,83.349,434.488,-257.729,223.448,378.850,-186.370,82.070
660,48557.85000,218.074,-34.568,81.364,435.508,-254.773,227.467,481.850,-341.370,60.070
661,48557.124000,234.043,-16.532,82.357,441.367,-251.932,224.605,550.850,-337.370,136.070
662,48557.159000,239.033,-4.509,56.558,444.418,-241.647,218.994,335.850,-500.370,93.070
663,48557.181000,262.986,2.505,73.426,442.475,-241.701,218.006,332.850,-205.370,8.070
664,48557.221000,244.023,-26.552,67.473,444.404,-241.831,212.104,230.850,-238.370,-18.930
665,48557.269000,239.033,-3.507,81.364,446.422,-236.970,216.177,137.850,-64.370,-69.930
666,48557.304000,249.014,12.524,90.295,452.291,-233.237,211.372,-122.150,-165.370,-160.930
667,48557.346000,245.021,-1.503,90.295,458.084,-235.098,209.363,-211.150,-38.370,-149.930
668,48557.382000,234.043,-5.511,94.264,458.034,-238.040,205.347,-317.150,7.630,-114.930
669,48557.404000,220.070,-3.507,107.163,462.942,-233.428,198.598,-418.150,-171.370,-142.930
670,48557.444000,241.029,-4.509,92.279,462.862,-238.314,192.560,-253.150,-119.370,-117.930
671,48557.481000,231.049,-24.548,119.070,467.794,-233.385,197.624,-95.150,104.630,-88.930
672,48557.524000,252.008,-12.524,89.302,461.913,-237.277,196.522,157.850,229.630,12.070
673,48557.566000,245.021,24.548,80.372,458.982,-239.865,207.265,21.850,252.630,208.070
674,48557.606000,267.977,29.558,63.504,457.064,-238.816,212.209,69.850,335.630,22.070
675,48557.646000,234.043,29.558,76.403,455.172,-236.662,223.085,85.850,299.630,-239.930
676,48557.686000,228.055,6.513,70.450,458.251,-225.247,224.392,151.850,69.630,-222.930
677,48557.706000,232.047,-6.513,81.364,457.330,-222.319,228.406,346.850,194.630,-103.930
678,48557.746000,251.010,-7.515,112.124,459.390,-215.382,239.422,452.850,172.630,-22.930
679,48557.795000,228.055,7.515,100.217,452.617,-215.189,250.236,484.850,266.630,10.070
680,48557.821000,216.078,20.540,97.240,450.889,-201.714,260.444,428.850,227.630,4.070
681,48557.879000,242.027,33.566,89.302,453.781,-203.459,264.334,313.850,198.630,-8.930
682,48557.914000,226.058,33.566,94.264,454.752,-204.206,271.201,214.850,118.630,-65.930
683,48557.941000,226.058,30.560,82.357,450.068,-192.875,273.475,197.850,103.630,-104.930
684,48557.984000,227.057,22.544,90.295,452.051,-190.772,280.422,209.850,105.630,-62.930
685,48558.5000,225.060,26.552,93.271,445.337,-185.221,279.582,77.850,61.630,51.070
686,48558.44000,233.045,31.562,97.240,444.278,-191.749,283.333,30.850,123.630,37.070
687,48558.86000,221.068,17.534,98.233,441.445,-186.930,288.380,26.850,214.630,-1.930
688,48558.125000,190.129,17.534,88.310,438.458,-192.540,292.153,-111.150,203.630,130.070
689,48558.166000,195.119,23.546,81.364,438.411,-195.456,289.121,-225.150,0.630,231.070
690,48558.206000,210.090,21.542,107.163,436.312,-205.964,285.875,-294.150,-45.370,422.070
691,48558.241000,270.971,-33.566,131.969,428.225,-227.903,282.300,-278.150,-198.370,390.070
692,48558.281000,318.877,-40.579,134.946,428.176,-230.845,278.284,-147.150,-83.370,53.070
693,48558.307000,290.932,-15.530,149.829,426.490,-214.507,289.555,440.850,328.630,-282.930
694,48558.347000,190.129,33.566,117.085,429.550,-204.878,294.746,361.850,168.630,-166.930
695,48558.384000,172.164,34.568,118.078,428.609,-202.974,295.781,129.850,-14.370,-80.930
696,48558.422000,211.088,24.548,102.202,434.436,-202.077,290.898,-106.150,-295.370,-27.930
697,48558.462000,240.031,25.550,94.264,430.504,-205.075,286.873,-155.150,-95.370,47.070
698,48558.507000,239.033,19.538,100.217,433.357,-208.868,284.805,-256.150,-40.370,-19.930
699,48558.560000,236.039,12.524,104.186,432.343,-211.745,283.740,-131.150,-1.370,-139.930
700,48558.587000,229.053,24.548,94.264,440.203,-205.042,282.956,-189.150,5.630,-121.930
701,48558.606000,234.043,27.554,94.264,439.155,-209.890,278.885,-217.150,0.630,-117.930
702,48558.645000,224.062,14.528,84.341,443.046,-208.968,275.966,-223.150,18.630,-114.930
703,48558.685000,214.082,9.519,75.411,439.988,-218.571,271.760,-211.150,-131.370,-94.930
704,48558.723000,214.082,2.505,71.442,442.088,-207.275,269.127,25.850,-306.370,-31.930
705,48558.766000,218.074,-3.507,73.426,444.874,-215.009,261.047,288.850,-443.370,197.070
706,48558.817000,203.103,1.503,77.395,449.784,-209.609,248.419,444.850,-755.370,418.070
707,48558.849000,230.051,-0.501,97.240,452.589,-216.319,243.319,584.850,-807.370,432.070
708,48558.898000,249.014,8.517,65.488,456.448,-216.580,231.515,430.850,-670.370,333.070
709,48558.920000,262.986,41.581,81.364,456.332,-224.224,228.351,460.850,-497.370,314.070
710,48558.942000,294.924,34.568,116.093,460.281,-218.705,220.643,177.850,-471.370,148.070
711,48558.992000,256.998,12.524,81.364,462.061,-229.212,215.435,-165.150,-79.370,98.070
712,48559.29000,224.062,11.523,81.364,457.231,-227.442,213.509,-363.150,203.630,-73.930
713,48559.62000,198.113,-15.530,71.442,460.163,-225.614,209.630,-410.150,71.630,-352.930
714,48559.102000,273.965,-31.562,54.574,467.132,-213.278,208.018,-321.150,-79.370,-279.930
715,48559.147000,262.986,-26.552,47.628,463.955,-231.339,205.543,-172.150,159.630,-9.930
716,48559.168000,228.055,-12.524,57.550,461.131,-224.866,201.784,-325.150,-53.370,151.070
717,48559.207000,226.058,-17.534,46.636,457.111,-234.377,201.513,-285.150,61.630,168.070
718,48559.251000,261.988,-5.511,89.302,458.107,-232.498,200.583,-268.150,123.630,68.070
719,48559.284000,270.971,23.546,82.357,454.987,-246.750,199.198,-590.150,259.630,165.070
720,48559.331000,222.066,-13.526,63.504,448.214,-245.796,203.147,-361.150,375.630,64.070
721,48559.366000,216.078,-38.575,94.264,447.078,-257.157,202.829,-283.150,146.630,-17.930
722,48559.406000,254.004,-21.542,69.457,445.206,-252.456,202.957,-201.150,111.630,-16.930
723,48559.447000,245.021,-15.530,78.388,441.223,-259.183,200.796,-193.150,281.630,-34.930
724,48559.467000,229.053,-19.538,75.411,443.176,-258.998,206.706,-241.150,272.630,-33.930
725,48559.528000,233.045,-29.558,85.333,437.358,-259.002,209.647,-142.150,277.630,-39.930
726,48559.553000,233.045,-25.550,77.395,435.380,-261.813,211.533,-132.150,306.630,-21.930
727,48559.582000,225.060,-13.526,91.287,432.456,-263.535,219.349,-127.150,269.630,12.070
728,48559.629000,234.043,-13.526,87.318,431.582,-256.929,219.531,-165.150,216.630,-39.930
729,48559.669000,238.035,-18.536,84.341,432.565,-256.758,225.439,0.850,279.630,-136.930
730,48559.704000,213.084,-34.568,103.194,430.706,-251.873,232.457,10.850,387.630,-257.930
731,48559.743000,203.103,1.503,104.186,432.768,-244.149,237.594,-82.150,172.630,-390.930
732,48559.764000,258.994,42.583,114.109,437.692,-239.325,238.720,-192.150,169.630,-471.930
733,48559.807000,258.994,8.517,138.915,434.750,-241.284,237.677,-533.150,234.630,-202.930
734,48559.849000,206.097,-9.519,108.155,433.624,-250.991,228.552,-719.150,102.630,-66.930
735,48559.915000,196.117,-29.558,95.256,435.547,-251.201,219.697,-530.150,-103.370,-147.930
736,48559.930000,207.096,-20.540,106.171,443.394,-244.656,213.007,-361.150,-177.370,-252.930
737,48559.966000,256.000,-21.542,90.295,448.220,-244.955,199.236,-292.150,-308.370,-273.930
738,48560.6000,259.992,-10.521,102.202,450.088,-250.470,204.004,-138.150,126.630,-110.930
739,48560.48000,240.031,-3.507,96.248,454.089,-241.983,201.296,-243.150,73.630,-97.930
740,48560.69000,235.041,-15.530,101.209,452.059,-248.525,205.045,-185.150,234.630,-50.930
741,48560.104000,228.055,-25.550,92.279,451.120,-246.595,207.064,-51.150,129.630,84.070
742,48560.147000,222.066,-32.564,87.318,445.229,-251.379,207.905,2.850,36.630,147.070
743,48560.189000,210.090,-29.558,68.465,444.349,-244.852,205.134,236.850,-166.370,51.070
744,48560.223000,220.070,-12.524,78.388,448.159,-249.578,203.042,268.850,-265.370,-25.930
745,48560.269000,233.045,-5.511,62.512,456.997,-241.995,199.333,122.850,-307.370,-133.930
746,48560.304000,218.074,-0.501,82.357,462.856,-239.154,196.471,115.850,-400.370,-250.930
747,48560.348000,208.094,18.536,109.147,469.654,-237.483,184.726,27.850,-520.370,-190.930
748,48560.369000,223.064,31.562,119.070,474.546,-233.081,170.103,-238.150,-713.370,168.070
749,48560.408000,211.088,-18.536,118.078,475.350,-242.892,156.061,-154.150,-433.370,503.070
750,48560.455000,308.897,-65.628,92.279,471.381,-247.912,147.062,-16.150,-455.370,122.070
751,48560.484000,257.996,-16.532,96.248,474.332,-245.060,146.162,355.850,113.630,21.070
752,48560.525000,276.959,47.593,94.264,473.301,-250.458,156.830,298.850,84.630,247.070
753,48560.576000,298.916,34.568,59.535,471.437,-245.652,160.895,134.850,150.630,50.070
754,48560.608000,236.039,5.511,76.403,470.504,-244.404,172.732,336.850,340.630,-250.930
755,48560.645000,210.090,12.524,71.442,471.598,-235.880,172.971,77.850,199.630,-209.930
756,48560.678000,212.086,24.548,62.512,475.546,-231.911,178.006,86.850,152.630,-106.930
757,48560.726000,256.000,-31.562,104.186,474.649,-227.905,186.968,405.850,109.630,-47.930
758,48560.749000,260.990,-22.544,94.264,470.831,-224.807,198.851,586.850,252.630,14.070
759,48560.789000,229.053,24.548,77.395,467.933,-224.664,205.736,486.850,272.630,64.070
760,48560.826000,228.055,34.568,81.364,468.077,-215.890,215.816,452.850,211.630,-7.930
761,48560.875000,217.076,23.546,77.395,461.342,-212.913,224.740,336.850,87.630,-54.930
762,48560.909000,229.053,25.550,72.434,466.235,-210.033,223.845,251.850,23.630,30.070
763,48560.950000,231.049,26.552,80.372,461.335,-214.541,234.531,240.850,120.630,74.070
764,48560.967000,234.043,17.534,85.333,462.376,-209.772,235.649,189.850,63.630,41.070
765,48561.11000,238.035,24.548,92.279,457.533,-209.709,240.560,170.850,147.630,72.070
766,48561.47000,229.053,28.556,81.364,460.439,-210.509,244.477,7.850,148.630,110.070
767,48561.87000,222.066,21.542,75.411,453.561,-217.066,250.185,7.850,378.630,160.070
768,48561.130000,216.078,8.517,135.938,443.935,-213.079,263.067,400.850,530.630,261.070
769,48561.170000,249.014,-64.626,154.791,434.153,-220.334,279.570,645.850,399.630,381.070
770,48561.205000,238.035,-6.513,127.008,428.500,-209.751,289.691,657.850,316.630,221.070
771,48561.245000,197.115,43.585,127.008,427.597,-206.586,302.564,703.850,28.630,108.070
772,48561.270000,187.135,42.583,79.380,431.454,-207.634,296.640,219.850,-417.370,215.070
773,48561.306000,255.002,38.575,90.295,432.371,-210.616,290.657,35.850,-231.370,202.070
774,48561.348000,264.982,18.536,98.233,434.387,-205.020,286.881,-35.150,-185.370,-64.930
775,48561.389000,214.082,7.515,86.326,437.224,-209.785,283.803,-94.150,-123.370,-40.930
776,48561.430000,241.029,27.554,96.248,438.141,-212.767,277.820,-166.150,-128.370,14.070
777,48561.470000,256.998,25.550,89.302,443.926,-214.733,271.873,-237.150,-162.370,-133.930
778,48561.516000,235.041,18.536,78.388,443.988,-210.084,269.052,-129.150,16.630,-116.930
779,48561.530000,215.080,17.534,82.357,442.973,-212.987,267.002,-314.150,-178.370,-82.930
780,48561.575000,208.094,17.534,54.574,453.632,-213.073,258.165,-265.150,-424.370,45.070
781,48561.611000,218.074,13.526,74.419,451.533,-222.820,248.054,-237.150,-388.370,154.070
782,48561.647000,239.033,6.513,75.411,449.461,-229.915,231.132,-277.150,-499.370,216.070
783,48561.690000,256.000,-12.524,82.357,454.198,-236.729,221.115,-272.150,-332.370,215.070
784,48561.730000,242.027,0.501,102.202,455.168,-235.954,214.253,-92.150,-204.370,200.070
785,48561.770000,265.980,9.519,122.047,451.256,-237.926,213.207,-11.150,-211.370,129.070
786,48561.810000,260.990,-5.511,111.132,457.033,-240.760,210.188,-113.150,-52.370,64.070
787,48561.830000,230.051,18.536,80.372,454.058,-244.689,206.139,-77.150,50.630,-69.930
788,48561.870000,215.080,16.532,93.271,452.209,-238.911,211.214,-261.150,245.630,-212.930
789,48561.905000,206.097,2.505,89.302,453.991,-249.390,206.992,-588.150,180.630,-273.930
790,48561.945000,194.121,-44.587,65.488,456.099,-237.228,201.432,-317.150,-303.370,-374.930
791,48561.991000,268.975,-36.571,54.574,461.948,-233.758,186.784,-253.150,-384.370,-140.930
792,48562.30000,270.971,-16.532,63.504,458.963,-238.580,184.678,-303.150,-20.370,98.070
793,48562.84000,244.023,-3.507,59.535,460.821,-243.465,177.660,-247.150,-118.370,86.070
794,48562.106000,247.018,-28.556,59.535,460.654,-254.838,176.359,-190.150,-41.370,11.070
795,48562.126000,242.027,-3.507,87.318,462.697,-247.351,172.637,-273.150,42.630,-38.930
796,48562.169000,245.021,9.519,75.411,458.699,-255.050,169.465,-326.150,-21.370,-11.930
797,48562.210000,252.008,-11.523,87.318,459.689,-253.251,165.582,-379.150,100.630,55.070
798,48562.248000,272.967,-30.560,96.248,455.669,-262.762,165.311,-449.150,159.630,96.070
799,48562.291000,240.031,-13.526,82.357,451.806,-261.031,161.418,-596.150,286.630,42.070
800,48562.331000,201.107,-32.564,74.419,445.834,-271.463,163.085,-414.150,403.630,32.070
801,48562.366000,201.107,-22.544,83.349,447.766,-271.567,158.167,-370.150,26.630,105.070
802,48562.406000,213.084,-16.532,58.543,445.655,-282.233,149.015,-244.150,-344.370,16.070
803,48562.426000,229.053,-22.544,36.713,450.592,-275.703,143.303,-147.150,-324.370,-54.930
804,48562.472000,266.979,-34.568,57.550,455.432,-275.819,136.423,86.850,-91.370,-21.930
805,48562.511000,253.006,-49.597,76.403,455.461,-273.901,137.460,51.850,77.630,-31.930
806,48562.551000,246.020,-34.568,57.550,455.375,-280.389,142.197,112.850,44.630,-52.930
807,48562.591000,244.023,-21.542,70.450,453.668,-265.102,149.505,302.850,256.630,-80.930
808,48562.631000,221.068,-40.579,74.419,452.650,-269.554,160.199,394.850,205.630,-108.930
809,48562.671000,203.103,-3.507,108.155,450.916,-256.159,167.454,218.850,235.630,-173.930
810,48562.706000,294.924,42.583,90.295,456.679,-260.699,171.272,-32.150,154.630,-94.930
811,48562.726000,269.973,-10.521,128.992,452.781,-262.487,177.117,-200.150,436.630,38.070
812,48562.770000,193.123,-26.552,126.016,451.702,-270.040,177.889,-340.150,87.630,33.070
813,48562.811000,186.136,-29.558,117.085,446.976,-260.784,173.220,-336.150,-131.370,-48.930
814,48562.852000,208.094,-30.560,93.271,452.712,-265.693,163.257,-246.150,-186.370,-209.930
815,48562.887000,256.000,-15.530,83.349,457.645,-259.215,155.577,-229.150,-191.370,-128.930
816,48562.928000,259.992,-15.530,49.612,459.610,-257.349,153.665,-130.150,-61.370,-121.930
817,48562.967000,234.043,-9.519,87.318,459.566,-260.212,152.601,-164.150,-131.370,-100.930
818,48563.15000,255.002,-14.528,46.636,466.435,-254.547,148.836,-174.150,65.630,-109.930
819,48563.27000,238.035,-39.577,91.287,465.481,-253.589,149.845,-209.150,113.630,-122.930
820,48563.67000,207.096,-14.528,75.411,460.596,-255.602,147.813,-139.150,-132.370,-145.930
821,48563.116000,225.060,-16.532,65.488,468.367,-254.652,143.918,97.850,-193.370,-216.930
822,48563.150000,256.998,-37.573,57.550,472.432,-241.489,139.373,372.850,-278.370,-166.930
823,48563.190000,270.971,-6.513,53.581,477.358,-236.640,141.484,498.850,-169.370,-77.930
824,48563.231000,256.000,8.517,65.488,477.452,-230.808,147.548,480.850,20.630,13.070
825,48563.266000,247.018,3.507,75.411,477.417,-233.566,150.422,324.850,51.630,38.070
826,48563.291000,248.016,-9.519,70.450,480.365,-231.528,154.418,204.850,47.630,20.070
827,48563.342000,242.027,0.501,98.233,479.326,-237.031,161.148,-151.150,85.630,57.070
828,48563.371000,214.082,-0.501,79.380,480.345,-233.314,158.303,-93.150,97.630,42.070
829,48563.410000,230.051,4.509,116.093,475.465,-235.274,158.240,-47.150,32.630,7.070
830,48563.450000,217.076,13.526,117.085,469.645,-235.304,160.197,-55.150,65.630,143.070
831,48563.490000,186.136,-27.554,85.333,470.446,-246.691,157.914,-46.150,-4.370,269.070
832,48563.530000,246.020,-17.534,81.364,465.499,-253.352,158.704,189.850,35.630,299.070
833,48563.570000,299.914,45.589,76.403,473.234,-255.160,157.683,47.850,-166.370,93.070
834,48563.590000,256.998,7.515,60.527,467.542,-246.626,161.845,168.850,9.630,-149.930
835,48563.630000,253.006,-2.505,69.457,475.296,-247.436,162.819,150.850,-42.370,-189.930
836,48563.670000,241.029,32.564,61.519,479.373,-234.116,164.180,138.850,-17.370,-217.930
837,48563.711000,237.037,28.556,62.512,482.326,-231.237,164.265,121.850,147.630,-176.930
838,48563.751000,256.998,-10.521,108.155,476.642,-222.599,172.365,260.850,253.630,-225.930
839,48563.798000,226.058,-12.524,85.333,481.512,-222.319,180.250,352.850,138.630,-153.930
840,48563.832000,225.060,36.571,56.558,477.783,-212.707,188.380,246.850,141.630,12.070
841,48563.880000,248.016,19.538,76.403,476.828,-212.510,196.253,248.850,213.630,-43.930
842,48563.888000,213.084,22.544,69.457,477.871,-207.716,198.355,170.850,49.630,-93.930
843,48563.937000,220.070,12.524,64.496,475.962,-205.799,200.372,149.850,73.630,23.070
844,48563.984000,257.996,13.526,79.380,476.848,-212.247,206.096,154.850,138.630,140.070
845,48564.11000,240.031,15.530,77.395,472.950,-214.035,211.941,122.850,230.630,220.070
846,48564.50000,244.023,34.568,66.481,467.065,-218.741,215.735,-7.150,167.630,224.070
847,48564.90000,225.060,16.532,98.233,465.170,-216.640,224.643,84.850,495.630,94.070
848,48564.130000,223.064,-50.599,162.729,455.491,-216.409,238.403,360.850,555.630,128.070
849,48564.171000,249.014,-56.611,177.612,449.723,-214.232,252.225,734.850,186.630,204.070
850,48564.191000,223.064,10.521,119.070,443.031,-208.391,262.212,700.850,59.630,290.070
851,48564.239000,201.107,59.616,46.636,445.922,-210.162,265.118,343.850,-192.370,281.070
852,48564.276000,227.057,53.605,95.256,445.841,-215.809,265.945,179.850,-72.370,141.070
853,48564.309000,260.990,6.513,107.163,448.873,-207.310,264.219,121.850,-124.370,-51.930
854,48564.351000,226.058,-0.501,95.256,443.994,-209.244,265.141,243.850,9.630,81.070
855,48564.391000,233.045,23.546,107.163,443.002,-211.070,268.039,18.850,-5.370,158.070
856,48564.436000,236.039,32.564,97.240,442.975,-212.961,267.986,75.850,141.630,-3.930
857,48564.476000,203.103,34.568,85.333,440.104,-210.165,268.059,-133.150,34.630,-5.930
858,48564.502000,220.070,29.558,67.473,441.941,-216.863,263.942,-250.150,-147.370,-3.930
859,48564.527000,238.035,27.554,80.372,440.962,-216.982,260.002,-313.150,-147.370,19.070
860,48564.567000,247.018,9.519,90.295,441.832,-222.879,250.987,-365.150,-206.370,10.070
861,48564.630000,247.018,2.505,89.302,445.675,-224.873,245.037,-214.150,-33.370,56.070
862,48564.647000,248.016,-1.503,107.163,442.694,-229.642,244.899,-140.150,74.630,70.070
863,48564.689000,233.045,-1.503,104.186,437.700,-239.220,242.657,-88.150,52.630,74.070
864,48564.732000,224.062,6.513,112.124,439.688,-236.277,245.693,-94.150,55.630,98.070
865,48564.774000,221.068,-4.509,116.093,437.802,-232.522,245.794,-18.150,-44.370,12.070
866,48564.787000,205.099,21.542,96.248,439.625,-240.165,241.650,-124.150,-203.370,-12.930
867,48564.832000,211.088,14.528,110.140,442.545,-238.495,231.866,-274.150,-314.370,-44.930
868,48564.872000,204.101,-15.530,95.256,445.466,-236.800,223.065,-250.150,-394.370,-204.930
869,48564.912000,211.088,-12.524,97.240,449.377,-233.304,210.382,-273.150,-489.370,-224.930
870,48564.953000,287.938,-15.530,71.442,462.034,-228.792,195.775,-174.150,-580.370,-176.930
871,48564.988000,277.957,-6.513,76.403,459.069,-231.829,189.784,-256.150,-17.370,-63.930
872,48565.30000,256.000,-11.523,81.364,461.834,-242.137,191.469,-292.150,72.630,102.070
873,48565.51000,239.033,-12.524,84.341,456.874,-248.956,186.353,-287.150,150.630,122.070
874,48565.91000,228.055,-12.524,84.341,458.888,-244.148,188.457,-181.150,112.630,62.070
875,48565.128000,242.027,-18.536,81.364,452.054,-247.055,189.348,-129.150,193.630,-0.930
876,48565.170000,234.043,4.509,95.256,450.090,-248.921,191.260,-329.150,216.630,-0.930
877,48565.211000,248.016,1.503,105.178,449.978,-256.512,190.065,-491.150,239.630,-17.930
878,48565.252000,230.051,-20.540,95.256,443.218,-253.851,187.177,-596.150,206.630,-55.930
879,48565.300000,242.027,-28.556,86.326,444.055,-262.479,182.021,-492.150,142.630,-28.930
880,48565.333000,224.062,-37.573,75.411,442.128,-261.561,182.043,-300.150,199.630,62.070
881,48565.348000,221.068,-43.585,78.388,441.071,-268.063,186.778,-41.150,87.630,163.070
882,48565.388000,224.062,-37.573,84.341,434.217,-271.994,184.690,114.850,39.630,185.070
883,48565.429000,249.014,-36.571,89.302,433.137,-280.334,191.342,205.850,81.630,181.070
884,48565.471000,239.033,-37.573,111.132,433.308,-269.669,201.475,369.850,431.630,166.070
885,48565.511000,219.072,-38.575,108.155,424.522,-275.045,217.048,455.850,461.630,206.070
886,48565.551000,213.084,-20.540,101.209,417.828,-269.992,232.915,591.850,418.630,92.070
887,48565.590000,212.086,-17.534,101.209,414.035,-265.817,249.746,607.850,344.630,-58.930
888,48565.639000,195.119,-4.509,118.078,410.361,-252.423,257.981,392.850,224.630,-69.930
889,48565.652000,272.967,46.591,107.163,411.347,-251.437,258.994,119.850,197.630,-145.930
890,48565.690000,241.029,-2.505,146.853,410.413,-250.215,269.846,14.850,365.630,74.070
891,48565.730000,195.119,-6.513,133.953,402.490,-260.806,266.587,-403.150,120.630,60.070
892,48565.770000,175.158,-13.526,127.008,406.396,-258.913,264.680,-206.150,-58.370,-107.930
893,48565.810000,204.101,-31.562,111.132,412.153,-262.009,251.816,-229.150,-360.370,-118.930
894,48565.850000,222.066,-16.532,123.039,413.172,-258.292,248.970,-72.150,-368.370,-216.930
895,48565.905000,236.039,-1.503,97.240,420.970,-254.689,238.264,-141.150,-388.370,-236.930
896,48565.932000,230.051,-1.503,124.031,431.744,-247.157,231.606,-167.150,-234.370,-251.930
897,48565.952000,228.055,-12.524,115.101,440.473,-246.351,221.807,-309.150,-234.370,-299.930
898,48565.993000,244.023,-26.552,102.202,439.441,-250.226,218.747,-122.150,-37.370,-193.930
899,48566.35000,228.055,-42.583,107.163,443.389,-245.496,216.918,-60.150,-33.370,-20.930
900,48566.70000,220.070,-30.560,81.364,445.316,-246.414,216.896,115.850,-190.370,-11.930
901,48566.110000,226.058,-13.526,82.357,449.362,-235.038,216.235,240.850,-241.370,-98.930
902,48566.150000,234.043,-5.511,87.318,448.430,-232.241,215.328,254.850,-234.370,-173.930
903,48566.190000,248.016,-1.503,96.248,458.111,-233.207,209.416,241.850,-208.370,-161.930
904,48566.235000,234.043,6.513,106.171,457.296,-222.766,211.672,172.850,-74.370,-74.930
905,48566.255000,236.039,10.521,102.202,464.080,-222.802,206.764,-8.150,-192.370,-38.930
906,48566.295000,256.998,15.530,116.093,461.113,-226.625,206.653,69.850,9.630,0.070
907,48566.341000,195.119,2.505,91.287,459.241,-222.686,213.645,169.850,406.630,303.070
908,48566.370000,161.185,-26.552,121.054,453.286,-232.907,223.187,354.850,41.630,504.070
909,48566.427000,215.080,-26.552,126.016,450.398,-231.110,221.265,258.850,-387.370,211.070
910,48566.459000,288.936,44.587,79.380,452.299,-233.132,215.310,161.850,-295.370,35.070
911,48566.492000,254.004,38.575,72.434,454.168,-238.646,220.078,138.850,-68.370,-12.930
912,48566.532000,231.049,-2.505,99.225,461.049,-232.062,215.354,186.850,-194.370,-188.930
913,48566.552000,233.045,-5.511,79.380,467.105,-215.930,214.830,342.850,-134.370,-149.930
914,48566.594000,236.039,24.548,87.318,468.017,-220.513,219.622,323.850,28.630,17.070
915,48566.633000,226.058,24.548,83.349,466.246,-209.114,222.887,160.850,-77.370,-7.930
916,48566.672000,230.051,35.569,91.287,471.092,-209.151,218.959,149.850,-115.370,-60.930
917,48566.712000,261.988,16.532,83.349,465.321,-205.477,218.068,4.850,-113.370,-53.930
918,48566.758000,236.039,19.538,93.271,468.252,-204.411,221.054,157.850,109.630,-121.930
919,48566.792000,237.037,25.550,87.318,471.100,-209.045,222.897,51.850,70.630,4.070
920,48566.833000,242.027,27.554,85.333,468.286,-202.441,224.059,18.850,90.630,-90.930
921,48566.855000,214.082,43.585,81.364,470.259,-200.469,226.085,-98.150,124.630,-125.930
922,48566.901000,220.070,39.577,87.318,471.241,-199.536,225.129,-225.150,24.630,-58.930
923,48566.930000,247.018,12.524,75.411,470.170,-206.222,222.974,-252.150,161.630,-21.930
924,48566.978000,224.062,23.546,94.264,467.207,-209.993,224.831,-355.150,198.630,-8.930
925,48567.13000,218.074,27.554,76.403,463.291,-212.018,221.817,-396.150,154.630,4.070
926,48567.55000,239.033,-0.501,83.349,463.285,-212.859,225.728,-396.150,206.630,93.070
927,48567.95000,252.008,-12.524,76.403,456.300,-226.168,226.330,-439.150,465.630,94.070
928,48567.113000,190.129,11.523,97.240,450.487,-226.880,238.104,-403.150,625.630,136.070
929,48567.166000,209.092,-12.524,117.085,446.423,-239.254,236.769,-552.150,30.630,326.070
930,48567.196000,277.957,-22.544,177.612,442.441,-245.981,234.608,-205.150,51.630,188.070
931,48567.236000,227.057,1.503,148.837,440.442,-249.818,233.514,13.850,152.630,-115.930
932,48567.270000,173.162,16.532,116.093,445.478,-237.403,235.835,199.850,-41.370,-181.930
933,48567.311000,196.117,9.519,114.109,448.327,-241.250,231.799,57.850,-466.370,52.070
934,48567.351000,230.051,-1.503,105.178,449.382,-234.774,226.079,53.850,-494.370,105.070
935,48567.397000,285.942,-21.542,92.279,453.170,-240.551,220.023,216.850,-210.370,5.070
936,48567.411000,222.066,5.511,95.256,451.359,-231.989,223.209,293.850,65.630,59.070
937,48567.454000,222.066,2.505,101.209,450.372,-233.736,229.060,290.850,-39.370,81.070
938,48567.496000,246.020,15.530,84.341,447.458,-233.804,228.070,207.850,-7.370,66.070
939,48567.537000,225.060,25.550,78.388,449.437,-231.753,233.048,145.850,-12.370,23.070
940,48567.597000,220.070,25.550,70.450,450.388,-232.764,230.071,10.850,-105.370,38.070
941,48567.627000,228.055,19.538,73.426,453.217,-237.635,223.055,-121.150,-334.370,114.070
942,48567.655000,237.037,16.532,101.209,450.270,-239.673,219.059,-63.150,-249.370,138.070
943,48567.695000,239.033,-13.526,91.287,448.310,-239.938,210.196,85.850,-287.370,112.070
944,48567.730000,242.027,-5.511,89.302,449.269,-240.843,211.156,141.850,-249.370,152.070
945,48567.751000,244.023,-9.519,125.023,453.148,-240.841,209.195,242.850,-149.370,102.070
946,48567.791000,237.037,-2.505,120.062,447.251,-245.704,207.083,82.850,-188.370,-26.930
947,48567.841000,235.041,29.558,101.209,451.203,-240.921,207.222,-176.150,71.630,-53.930
948,48567.882000,220.070,24.548,121.054,450.116,-248.579,204.057,-470.150,237.630,-150.930
949,48567.913000,226.058,-31.562,100.217,452.104,-244.874,200.229,-503.150,39.630,-242.930
950,48567.956000,236.039,-43.585,76.403,451.074,-247.962,191.289,-312.150,-44.370,-128.930
951,48567.996000,250.012,-21.542,52.589,451.045,-249.879,190.252,-138.150,-63.370,75.070
952,48568.16000,252.008,-13.526,68.465,452.063,-246.950,193.286,-149.150,51.630,160.070
953,48568.51000,248.016,-37.573,75.411,449.032,-254.661,189.132,-185.150,88.630,125.070
954,48568.93000,238.035,-27.554,66.481,444.089,-261.270,191.890,42.850,38.630,38.070
955,48568.135000,225.060,-12.524,84.341,446.144,-253.625,194.074,12.850,37.630,92.070
956,48568.176000,251.010,-5.511,94.264,443.109,-262.177,193.831,-64.150,3.630,127.070
957,48568.211000,249.014,-17.534,103.194,437.257,-264.151,193.766,-161.150,152.630,104.070
958,48568.260000,234.043,-23.546,99.225,437.167,-270.691,196.535,-79.150,205.630,170.070
959,48568.295000,225.060,-41.581,100.217,431.365,-269.723,200.486,-35.150,165.630,153.070
960,48568.313000,234.043,-31.562,108.155,429.410,-271.457,207.320,38.850,290.630,101.070
961,48568.355000,195.119,-17.534,105.178,423.559,-273.431,207.255,-79.150,120.630,147.070
962,48568.395000,205.099,-26.552,82.357,424.470,-277.253,205.183,-86.150,-142.370,158.070
963,48568.437000,220.070,-32.564,92.279,421.468,-283.073,201.082,140.850,-243.370,77.070
964,48568.475000,246.020,-39.577,71.442,428.337,-277.408,197.317,193.850,-358.370,1.070
965,48568.517000,258.994,-17.534,102.202,425.437,-277.291,203.217,284.850,-88.370,-34.930
966,48568.552000,250.012,-24.548,94.264,429.420,-270.564,205.378,249.850,128.630,-64.930
967,48568.592000,226.058,-16.532,117.085,421.525,-280.025,209.036,20.850,254.630,-12.930
968,48568.616000,222.066,-21.542,107.163,428.448,-271.366,211.255,-42.150,206.630,-16.930
969,48568.651000,223.064,-20.540,117.085,422.659,-269.452,215.233,-144.150,238.630,6.070
970,48568.697000,211.088,-21.542,121.054,425.493,-275.032,217.050,-208.150,92.630,26.070
971,48568.737000,203.103,-33.566,94.264,423.459,-280.865,211.966,-127.150,-3.370,-37.930
972,48568.777000,223.064,-23.546,95.256,427.420,-275.188,210.164,-83.150,-136.370,-121.930
973,48568.818000,245.021,-33.566,88.310,429.375,-274.215,210.194,-37.150,-23.370,-183.930
974,48568.858000,235.041,-29.558,95.256,430.399,-270.445,209.317,-14.150,-13.370,-160.930
975,48568.872000,247.018,-17.534,108.155,431.413,-267.568,210.382,-38.150,103.630,-145.930
976,48568.915000,211.088,-13.526,104.186,434.450,-258.990,211.610,-173.150,156.630,-112.930
977,48568.955000,219.072,-1.503,108.155,436.181,-273.200,209.250,-279.150,104.630,-74.930
978,48569.1000,234.043,-22.544,100.217,434.198,-275.303,202.303,-444.150,-42.370,-131.930
979,48569.33000,246.020,-23.546,92.279,437.138,-272.609,195.498,-471.150,-0.370,-181.930
980,48569.78000,230.051,-35.569,91.287,440.147,-265.161,189.808,-440.150,41.630,-113.930
981,48569.121000,224.062,-34.568,85.333,440.045,-271.859,186.671,-382.150,43.630,-95.930
982,48569.155000,224.062,-41.581,81.364,441.072,-267.275,180.899,-190.150,-34.370,-145.930
983,48569.175000,231.049,-41.581,91.287,444.992,-264.436,179.017,-159.150,-25.370,-223.930
984,48569.212000,224.062,-32.564,74.419,448.867,-264.486,175.088,-84.150,-130.370,-304.930
985,48569.275000,228.055,-33.566,67.473,457.634,-262.418,177.127,159.850,-155.370,-333.930
986,48569.312000,228.055,-55.609,78.388,462.633,-252.027,174.474,327.850,-306.370,-305.930
987,48569.336000,259.992,2.505,107.163,472.545,-236.943,168.025,192.850,-203.370,-150.930
988,48569.377000,256.998,37.573,110.140,472.408,-246.400,167.761,71.850,-239.370,126.070
989,48569.417000,223.064,-40.579,85.333,472.469,-242.538,170.820,164.850,-66.370,224.070
990,48569.457000,218.074,-16.532,108.155,473.461,-240.712,167.921,381.850,129.630,4.070
991,48569.477000,241.029,50.599,128.992,471.626,-234.750,179.887,313.850,167.630,37.070
992,48569.516000,234.043,58.614,100.217,467.697,-238.482,183.711,34.850,-14.370,17.070
993,48569.558000,240.031,-3.507,84.341,474.570,-232.765,181.915,201.850,-59.370,-181.930
994,48569.602000,241.029,2.505,94.264,478.399,-236.466,182.802,83.850,-251.370,-162.930
995,48569.636000,237.037,26.552,79.380,481.417,-228.151,174.186,-12.150,-74.370,-123.930
996,48569.675000,237.037,19.538,85.333,482.341,-231.814,178.020,32.850,185.630,-151.930
997,48569.739000,210.090,19.538,94.264,482.547,-218.391,185.279,-56.150,58.630,-147.930
998,48569.755000,224.062,19.538,92.279,482.543,-218.444,183.310,14.850,-9.370,-72.930
999,48569.783000,248.016,11.523,93.271,486.320,-225.901,185.076,40.850,50.630,-12.930
1000,48569.818000,240.031,13.526,96.248,485.406,-222.106,186.164,96.850,39.630,-22.930
1001,48569.858000,241.029,12.524,92.279,478.616,-222.150,188.119,140.850,67.630,-32.930
1002,48569.905000,233.045,16.532,91.287,484.509,-218.101,195.126,177.850,95.630,-27.930
1003,48569.932000,228.055,28.556,96.248,477.797,-212.523,195.270,146.850,77.630,-10.930
1004,48569.972000,230.051,17.534,96.248,480.758,-209.540,199.293,131.850,72.630,-16.930
1005,48570.17000,230.051,12.524,95.256,476.907,-207.651,201.306,177.850,66.630,-0.930
1006,48570.57000,229.053,10.521,97.240,479.827,-207.504,205.249,178.850,80.630,34.070
1007,48570.77000,230.051,14.528,100.217,477.839,-211.209,209.077,216.850,68.630,24.070
1008,48570.118000,234.043,17.534,98.233,477.970,-202.593,213.252,259.850,76.630,50.070
1009,48570.165000,224.062,19.538,98.233,478.869,-208.121,218.017,281.850,70.630,43.070
1010,48570.202000,230.051,20.540,102.202,476.033,-203.329,222.080,304.850,41.630,68.070
1011,48570.237000,230.051,20.540,92.279,474.136,-201.255,230.004,295.850,56.630,74.070
1012,48570.277000,233.045,22.544,99.225,474.179,-198.391,231.067,308.850,42.630,84.070
1013,48570.322000,227.057,27.554,97.240,466.326,-205.016,234.804,292.850,38.630,118.070
1014,48570.356000,223.064,26.552,95.256,468.302,-202.991,238.798,256.850,71.630,132.070
1015,48570.377000,220.070,20.540,99.225,464.455,-201.050,242.780,248.850,-17.370,178.070
1016,48570.426000,229.053,21.542,95.256,468.319,-202.781,246.673,225.850,-62.370,204.070
1017,48570.454000,233.045,17.534,98.233,464.416,-203.860,243.685,274.850,-58.370,198.070
1018,48570.493000,242.027,16.532,98.233,461.540,-201.905,247.669,285.850,-91.370,197.070
1019,48570.533000,231.049,22.544,97.240,461.457,-207.579,247.511,235.850,-84.370,153.070
1020,48570.573000,233.045,18.536,99.225,459.518,-207.580,248.492,271.850,-82.370,133.070
1021,48570.613000,229.053,16.532,93.271,457.579,-207.581,249.472,252.850,-74.370,161.070
1022,48570.653000,227.057,16.532,90.295,456.685,-202.762,253.539,239.850,-28.370,197.070
1023,48570.673000,234.043,8.517,96.248,454.633,-210.354,253.324,256.850,1.630,210.070
1024,48570.715000,237.037,4.509,93.271,448.875,-206.522,258.339,258.850,58.630,241.070
1025,48570.757000,227.057,19.538,96.248,449.800,-210.160,263.158,231.850,62.630,235.070
1026,48570.801000,227.057,25.550,96.248,444.912,-212.986,266.022,115.850,74.630,183.070
1027,48570.837000,238.035,7.515,104.186,440.033,-214.920,266.943,-16.150,75.630,89.070
1028,48570.878000,240.031,4.509,104.186,442.000,-213.027,266.016,-81.150,52.630,-28.930
1029,48570.920000,228.055,14.528,96.248,440.974,-216.824,265.908,-178.150,42.630,-90.930
1030,48570.958000,221.068,11.523,102.202,439.029,-216.904,263.936,-241.150,34.630,-63.930
1031,48570.986000,230.051,-1.503,98.233,443.896,-215.890,263.972,-249.150,6.630,-64.930
1032,48571.23000,230.051,-1.503,95.256,439.978,-217.941,259.974,-273.150,-11.370,-64.930
1033,48571.75000,230.051,-8.517,100.217,442.732,-228.381,256.737,-192.150,-33.370,-46.930
1034,48571.95000,233.045,-12.524,99.225,441.785,-226.556,254.819,-106.150,-41.370,-19.930
1035,48571.140000,233.045,-13.526,94.264,442.862,-219.030,253.063,-6.150,15.630,-18.930
1036,48571.173000,226.058,-6.513,97.240,441.822,-223.772,252.930,62.850,-36.370,2.070
1037,48571.216000,251.010,0.501,95.256,445.729,-221.878,251.022,123.850,-84.370,121.070
1038,48571.250000,233.045,0.501,92.279,442.793,-223.758,252.932,93.850,-56.370,140.070
1039,48571.273000,232.047,4.509,90.295,440.858,-223.706,255.881,53.850,-47.370,78.070
1040,48571.315000,236.039,1.503,91.287,437.899,-226.664,252.843,7.850,-37.370,58.070
1041,48571.356000,228.055,-1.503,95.256,443.758,-223.823,249.981,-9.150,-20.370,44.070
1042,48571.397000,229.053,-0.501,94.264,442.671,-231.481,246.815,-36.150,-70.370,25.070
1043,48571.435000,230.051,-0.501,90.295,440.708,-233.321,249.711,-15.150,-40.370,26.070
1044,48571.485000,235.041,-2.505,88.310,439.761,-231.496,247.793,-38.150,-32.370,-0.930
1045,48571.515000,236.039,-0.501,89.302,442.643,-233.372,246.762,-64.150,-6.370,-17.930
1046,48571.538000,233.045,-2.505,93.271,443.712,-226.713,247.933,-91.150,-16.370,-25.930
1047,48571.578000,230.051,-3.507,93.271,437.816,-231.576,245.821,-79.150,-35.370,-37.930
1048,48571.620000,238.035,-1.503,90.295,444.632,-229.667,242.934,-88.150,-21.370,-28.930
1049,48571.660000,237.037,-2.505,92.279,440.722,-231.614,242.874,-57.150,22.630,-16.930
1050,48571.700000,233.045,-3.507,91.287,442.706,-228.723,243.941,-43.150,3.630,-21.930
1051,48571.735000,232.047,-1.503,95.256,441.720,-229.709,242.928,-27.150,24.630,-22.930
