Sample, Time, ACCX, ACCY, ACCZ, MAGX, MAGY, MAGZ, GYRX, GYRY, GYRZ
0,48467.813000,239.294,48.188,66.560,471.559,-149.621,206.144,-7.780,-13.600,-1.060
1,48467.833000,237.328,50.196,65.536,469.664,-149.665,205.146,-1.780,-17.600,-2.060
2,48467.880000,240.276,47.184,64.512,471.554,-149.679,203.159,-0.780,-18.600,-2.060
3,48467.913000,239.294,50.196,63.488,474.385,-150.499,206.130,10.220,-19.600,1.940
4,48467.953000,239.294,48.188,63.488,467.748,-151.503,206.099,14.220,-20.600,2.940
5,48467.998000,239.294,48.188,64.512,469.593,-155.123,207.019,29.220,-21.600,2.940
6,48468.39000,238.311,47.184,62.464,470.573,-152.401,205.089,30.220,-24.600,-2.060
7,48468.53000,240.276,48.188,62.464,472.412,-156.080,203.024,30.220,-16.600,-11.060
8,48468.94000,241.259,48.188,63.488,469.702,-146.917,205.204,22.220,-16.600,-14.060
9,48468.137000,240.276,48.188,63.488,472.489,-150.564,204.136,16.220,-8.600,-23.060
10,48468.177000,239.294,47.184,62.464,469.638,-151.517,204.112,31.220,-2.600,-27.060
11,48468.222000,240.276,45.176,60.416,472.505,-149.608,206.146,28.220,10.400,-36.060
12,48468.263000,241.259,45.176,62.464,470.673,-145.072,205.245,26.220,8.400,-29.060
13,48468.277000,242.242,43.169,62.464,465.954,-144.219,205.256,11.220,15.400,-20.060
14,48468.317000,243.225,44.173,59.392,469.771,-142.258,209.282,12.220,22.400,-18.060
15,48468.355000,245.190,42.165,63.488,472.507,-149.589,207.141,36.220,46.400,-17.060
16,48468.394000,242.242,42.165,63.488,470.680,-144.994,209.225,80.220,68.400,-24.060
17,48468.435000,239.294,45.176,63.488,469.801,-140.367,212.306,98.220,88.400,-28.060
18,48468.477000,242.242,40.157,64.512,474.555,-139.272,218.305,116.220,106.400,-27.060
19,48468.523000,240.276,41.161,71.680,468.028,-132.829,224.400,220.220,139.400,-36.060
20,48468.537000,241.259,44.173,72.704,468.887,-139.230,224.265,235.220,147.400,-42.060
21,48468.577000,235.363,48.188,71.680,468.985,-132.700,230.372,198.220,143.400,-41.060
22,48468.624000,233.397,49.192,70.656,467.183,-126.273,232.495,158.220,154.400,-31.060
23,48468.658000,234.380,51.200,70.656,469.126,-123.343,240.518,134.220,179.400,-33.060
24,48468.698000,237.328,53.208,74.752,463.458,-123.301,246.478,134.220,235.400,-27.060
25,48468.738000,239.294,59.231,73.728,462.554,-121.286,256.466,106.220,312.400,-23.060
26,48468.758000,232.415,66.259,77.824,458.750,-123.090,260.400,126.220,336.400,-9.060
27,48468.798000,232.415,69.271,69.632,454.009,-124.809,269.309,147.220,388.400,-39.060
28,48468.838000,225.536,69.271,78.848,451.322,-114.594,278.474,105.220,401.400,-48.060
29,48468.877000,220.622,74.290,81.920,447.574,-112.675,285.471,17.220,335.400,-66.060
30,48468.917000,225.536,75.294,92.160,443.903,-105.220,294.576,54.220,321.400,-80.060
31,48468.957000,222.587,77.302,99.328,440.139,-104.257,299.565,37.220,271.400,-77.060
32,48468.998000,217.674,83.325,103.424,440.147,-104.159,304.540,77.220,231.400,-91.060
33,48469.25000,216.691,84.329,108.544,436.419,-100.466,308.591,63.220,192.400,-79.060
34,48469.59000,213.743,80.314,108.544,436.474,-96.743,311.655,33.220,102.400,-44.060
35,48469.99000,207.846,83.325,105.472,430.810,-95.883,312.659,30.220,41.400,-28.060
36,48469.145000,213.743,83.325,107.520,433.615,-98.554,314.596,45.220,-22.600,-14.060
37,48469.179000,209.812,81.318,104.448,434.611,-94.877,314.676,23.220,-85.600,-10.060
38,48469.214000,209.812,85.333,98.304,434.540,-99.556,309.603,15.220,-121.600,-9.060
39,48469.239000,214.726,86.337,99.328,438.408,-93.151,306.761,5.220,-144.600,-11.060
40,48469.279000,218.656,83.325,98.304,440.233,-97.766,303.681,-24.780,-179.600,-6.060
41,48469.319000,226.518,86.337,96.256,443.033,-100.496,302.633,-14.780,-175.600,9.940
42,48469.365000,223.570,78.306,92.160,443.948,-102.394,298.615,-15.780,-178.600,37.940
43,48469.394000,222.587,77.302,90.112,448.655,-103.384,291.639,-37.780,-187.600,63.940
44,48469.435000,223.570,74.290,87.040,447.752,-99.810,287.735,-27.780,-199.600,67.940
45,48469.463000,220.622,74.290,83.968,449.602,-102.592,284.694,-7.780,-184.600,55.940
46,48469.498000,229.466,72.282,84.992,451.482,-103.483,284.678,15.220,-174.600,54.940
47,48469.538000,230.449,69.271,82.944,453.251,-111.840,277.541,4.220,-160.600,62.940
48,48469.582000,228.484,67.263,83.968,456.175,-105.409,276.687,-1.780,-134.600,82.940
49,48469.617000,227.501,63.247,81.920,455.085,-115.577,272.491,10.220,-119.600,109.940
50,48469.657000,228.484,62.243,78.848,456.012,-116.559,268.492,29.220,-113.600,127.940
51,48469.695000,232.415,59.231,76.800,456.009,-116.598,266.502,-12.780,-118.600,128.940
52,48469.714000,232.415,58.227,75.776,455.022,-119.398,264.452,-8.780,-128.600,126.940
53,48469.755000,236.345,55.216,75.776,458.727,-124.903,261.356,1.220,-130.600,103.940
54,48469.799000,237.328,54.212,74.752,458.756,-122.252,256.440,-33.780,-135.600,92.940
55,48469.839000,238.311,52.204,71.680,461.606,-121.318,255.469,-42.780,-132.600,74.940
56,48469.885000,239.294,52.204,70.656,458.728,-124.124,254.411,-43.780,-103.600,52.940
57,48469.915000,236.345,52.204,71.680,460.589,-126.009,250.395,-38.780,-87.600,40.940
58,48469.937000,237.328,49.192,70.656,458.644,-129.718,249.318,-53.780,-64.600,26.940
59,48469.979000,237.328,50.196,71.680,460.562,-127.861,249.361,-55.780,-34.600,14.940
60,48470.19000,237.328,49.192,70.656,458.589,-133.441,246.255,-60.780,-16.600,5.940
61,48470.70000,236.345,50.196,74.752,456.711,-132.530,247.266,-55.780,-6.600,1.940
62,48470.98000,235.363,51.200,73.728,456.772,-127.969,246.369,-54.780,9.400,0.940
63,48470.138000,237.328,50.196,75.776,452.852,-138.058,248.138,-64.780,5.400,-1.060
64,48470.178000,236.345,49.192,73.728,459.548,-132.512,246.276,-67.780,9.400,-6.060
65,48470.198000,235.363,51.200,74.752,456.608,-139.898,245.120,-63.780,3.400,-4.060
66,48470.238000,236.345,50.196,76.800,452.911,-133.516,246.245,-71.780,-1.600,-1.060
67,48470.283000,236.345,50.196,76.800,454.812,-132.633,243.283,-86.780,0.400,0.940
68,48470.334000,235.363,48.188,76.800,458.541,-137.086,247.172,-80.780,-1.600,-0.060
69,48470.365000,235.363,48.188,76.800,454.674,-142.711,243.068,-60.780,-9.600,8.940
70,48470.395000,235.363,48.188,77.824,458.534,-137.164,243.192,-63.780,-14.600,6.940
71,48470.415000,234.380,48.188,76.800,452.758,-144.549,244.021,-59.780,-26.600,15.940
72,48470.455000,231.432,47.184,75.776,459.282,-151.790,243.876,-44.780,-32.600,23.940
73,48470.498000,237.328,48.188,75.776,460.327,-144.468,243.039,-36.780,-36.600,25.940
74,48470.538000,235.363,47.184,74.752,459.302,-150.016,240.930,-23.780,-43.600,21.940
75,48470.578000,236.345,48.188,72.704,458.440,-143.655,239.075,-18.780,-43.600,24.940
76,48470.618000,235.363,49.192,72.704,455.528,-149.170,239.948,4.220,-34.600,34.940
77,48470.638000,237.328,48.188,73.728,457.469,-145.500,239.034,10.220,-23.600,38.940
78,48470.680000,236.345,47.184,68.608,453.634,-149.214,238.949,19.220,-24.600,45.940
79,48470.720000,237.328,48.188,69.632,457.460,-146.377,241.005,28.220,-7.600,55.940
80,48470.755000,237.328,47.184,71.680,456.446,-151.029,237.920,55.220,11.400,60.940
81,48470.800000,235.363,46.180,71.680,459.351,-146.371,240.013,84.220,21.400,54.940
82,48470.840000,238.311,46.180,70.656,455.467,-153.731,240.845,118.220,31.400,42.940
83,48470.880000,237.328,48.188,72.704,452.555,-159.246,241.718,143.220,43.400,33.940
84,48470.900000,237.328,46.180,67.584,452.688,-149.987,246.889,167.220,45.400,29.940
85,48470.940000,238.311,49.192,71.680,451.829,-143.586,247.024,150.220,39.400,31.940
86,48470.979000,237.328,48.188,70.656,450.910,-141.747,248.056,132.220,37.400,29.940
87,48471.22000,238.311,52.204,71.680,452.720,-148.077,250.908,101.220,31.400,15.940
88,48471.60000,237.328,52.204,72.704,450.901,-142.624,250.027,91.220,18.400,5.940
89,48471.95000,235.363,52.204,71.680,449.038,-140.758,253.048,68.220,7.400,-4.060
90,48471.115000,237.328,53.208,72.704,450.970,-137.966,254.105,22.220,12.400,-17.060
91,48471.155000,237.328,53.208,74.752,449.024,-141.694,252.033,-19.780,6.400,-21.060
92,48471.199000,236.345,53.208,73.728,446.202,-140.757,255.033,-41.780,2.400,-18.060
93,48471.235000,237.328,52.204,75.776,450.870,-145.295,253.948,-50.780,3.400,-12.060
94,48471.275000,236.345,51.200,73.728,449.884,-148.075,252.893,-64.780,1.400,-8.060
95,48471.315000,235.363,50.196,75.776,449.998,-139.810,254.064,-78.780,-7.600,-4.060
96,48471.335000,237.328,50.196,71.680,447.037,-148.210,247.913,-79.780,-18.600,1.940
97,48471.382000,238.311,50.196,73.728,448.079,-141.687,253.026,-83.780,-19.600,0.940
98,48471.422000,236.345,50.196,72.704,451.822,-144.444,249.989,-68.780,-17.600,-3.060
99,48471.462000,236.345,48.188,73.728,452.757,-145.328,250.967,-64.780,-17.600,-5.060
100,48471.497000,236.345,49.192,72.704,449.928,-144.489,248.991,-70.780,-8.600,-8.060
101,48471.537000,236.345,47.184,71.680,450.836,-147.224,248.934,-63.780,-6.600,-7.060
102,48471.577000,237.328,48.188,74.752,449.879,-148.134,249.908,-49.780,-0.600,-5.060
103,48471.604000,237.328,47.184,74.752,448.923,-148.263,243.936,-45.780,7.400,-6.060
104,48471.637000,235.363,48.188,74.752,451.706,-152.728,247.824,-38.780,10.400,-6.060
105,48471.680000,235.363,49.192,76.800,451.631,-158.225,247.706,-23.780,13.400,-3.060
106,48471.728000,234.380,48.188,75.776,450.811,-149.057,248.895,-11.780,13.400,4.940
107,48471.757000,236.345,47.184,74.752,450.797,-149.992,247.880,7.220,13.400,12.940
108,48471.837000,235.363,47.184,74.752,448.911,-149.939,251.857,-3.780,12.400,8.940
109,48471.845000,235.363,50.196,76.800,447.999,-147.242,249.924,-6.780,13.400,2.940
110,48471.874000,235.363,49.192,74.752,450.736,-154.553,248.778,-19.780,6.400,3.940
111,48471.902000,234.380,50.196,76.800,448.920,-149.062,249.887,-14.780,-2.600,18.940
112,48471.942000,236.345,46.180,74.752,447.987,-148.159,249.905,-40.780,-12.600,25.940
113,48471.982000,237.328,44.173,75.776,445.975,-156.507,245.745,-63.780,-17.600,34.940
114,48472.48000,235.363,45.176,77.824,445.041,-155.603,245.763,-52.780,-11.600,33.940
115,48472.63000,235.363,45.176,75.776,447.908,-153.694,247.797,-40.780,-4.600,21.940
116,48472.83000,235.363,44.173,73.728,444.048,-159.241,247.674,-30.780,5.400,9.940
117,48472.122000,239.294,44.173,76.800,444.125,-153.725,248.786,-32.780,10.400,3.940
118,48472.162000,239.294,43.169,74.752,442.165,-158.389,245.700,-56.780,0.400,-0.060
119,48472.202000,236.345,43.169,75.776,444.982,-160.145,247.656,-87.780,5.400,-13.060
120,48472.242000,236.345,46.180,76.800,445.987,-155.591,245.765,-108.780,-1.600,-23.060
121,48472.277000,236.345,43.169,77.824,445.870,-163.894,242.604,-144.780,-9.600,-30.060
122,48472.303000,235.363,44.173,77.824,446.891,-158.385,242.723,-151.780,-12.600,-32.060
123,48472.337000,238.311,43.169,77.824,446.800,-164.837,240.596,-134.780,-18.600,-37.060
124,48472.379000,236.345,43.169,78.848,448.740,-161.187,238.687,-138.780,-21.600,-41.060
125,48472.429000,237.328,41.161,78.848,446.822,-163.044,238.645,-136.780,-25.600,-47.060
126,48472.474000,236.345,43.169,77.824,449.668,-162.149,235.684,-134.780,-13.600,-53.060
127,48472.503000,236.345,43.169,80.896,447.742,-164.883,237.613,-122.780,-13.600,-51.060
128,48472.518000,235.363,42.165,79.872,450.596,-163.890,239.627,-95.780,-17.600,-45.060
129,48472.559000,234.380,42.165,79.872,446.785,-165.013,231.641,-76.780,-26.600,-27.060
130,48472.599000,236.345,43.169,78.848,445.830,-165.902,233.610,-77.780,-33.600,-17.060
131,48472.643000,234.380,39.153,75.776,451.594,-159.434,232.761,-62.780,-35.600,-7.060
132,48472.683000,236.345,41.161,79.872,451.440,-170.467,230.537,-39.780,-32.600,-7.060
133,48472.723000,234.380,40.157,78.848,451.540,-163.137,230.693,-13.780,-21.600,-9.060
134,48472.763000,236.345,43.169,78.848,451.453,-169.550,230.556,16.220,-8.600,-16.060
135,48472.783000,235.363,42.165,78.848,451.539,-163.157,229.698,38.220,-5.600,-13.060
136,48472.833000,235.363,42.165,77.824,449.644,-163.202,228.700,54.220,-6.600,-2.060
137,48472.860000,237.328,43.169,77.824,451.594,-159.434,232.761,46.220,-5.600,10.940
138,48472.898000,234.380,46.180,76.800,448.637,-167.775,229.595,59.220,-1.600,15.940
139,48472.942000,237.328,43.169,78.848,451.578,-160.389,230.752,45.220,-13.600,18.940
140,48472.995000,238.311,44.173,77.824,448.726,-161.343,230.727,43.220,-19.600,21.940
141,48473.13000,236.345,44.173,75.776,449.612,-165.891,231.626,53.220,-22.600,21.940
142,48473.47000,235.363,44.173,73.728,454.409,-161.209,233.722,65.220,-20.600,12.940
143,48473.78000,236.345,44.173,74.752,453.425,-163.970,233.662,56.220,-14.600,13.940
144,48473.118000,237.328,45.176,75.776,449.683,-160.434,229.753,51.220,-8.600,20.940
145,48473.160000,237.328,47.184,74.752,449.726,-157.627,232.797,40.220,-11.600,22.940
146,48473.200000,236.345,46.180,74.752,452.551,-158.525,231.787,37.220,-7.600,21.940
147,48473.238000,241.259,46.180,73.728,448.745,-160.349,234.727,21.220,-2.600,18.940
148,48473.258000,236.345,48.188,71.680,447.744,-164.084,231.662,14.220,-11.600,10.940
149,48473.298000,238.311,48.188,70.656,448.694,-164.033,233.654,5.220,0.400,-2.060
150,48473.338000,235.363,49.192,73.728,451.492,-166.783,231.610,-23.780,0.400,-0.060
151,48473.378000,237.328,47.184,75.776,451.569,-161.266,232.722,-64.780,0.400,5.940
152,48473.418000,236.345,49.192,75.776,450.546,-166.795,231.608,-65.780,4.400,6.940
153,48473.458000,235.363,46.180,73.728,450.597,-163.111,232.681,-100.780,4.400,20.940
154,48473.478000,237.328,46.180,72.704,454.290,-169.532,229.566,-145.780,13.400,18.940
155,48473.518000,236.345,45.176,77.824,447.636,-171.511,226.530,-164.780,20.400,17.940
156,48473.558000,237.328,41.161,75.776,445.773,-169.645,229.551,-149.780,10.400,17.940
157,48473.608000,236.345,39.153,76.800,451.408,-172.377,226.518,-119.780,18.400,11.940
158,48473.640000,236.345,40.157,77.824,444.786,-172.445,227.501,-107.780,22.400,-5.060
159,48473.682000,235.363,41.161,77.824,450.483,-171.376,231.511,-96.780,22.400,-8.060
160,48473.708000,237.328,41.161,78.848,447.541,-178.781,229.359,-74.780,26.400,-5.060
161,48473.740000,235.363,42.165,79.872,444.713,-177.922,228.379,-63.780,34.400,-4.060
162,48473.784000,235.363,41.161,80.896,446.654,-174.252,227.465,-65.780,29.400,-3.060
163,48473.818000,234.380,40.157,81.920,446.594,-178.794,229.358,-66.780,31.400,2.940
164,48473.860000,234.380,38.149,82.944,447.553,-177.865,229.379,-49.780,25.400,6.940
165,48473.900000,236.345,37.145,81.920,446.543,-182.478,228.285,-43.780,18.400,4.940
166,48473.939000,234.380,37.145,81.920,441.783,-184.412,226.247,-16.780,1.400,4.940
167,48473.959000,232.415,38.149,81.920,439.984,-177.946,230.361,-2.780,-1.600,1.940
168,48473.999000,235.363,38.149,82.944,443.738,-179.806,226.348,0.220,-7.600,6.940
169,48474.39000,236.345,37.145,78.848,442.797,-179.760,229.332,-3.780,-13.600,9.940
170,48474.79000,234.380,35.137,80.896,443.831,-173.334,229.470,-7.780,-6.600,20.940
171,48474.119000,235.363,36.141,82.944,444.613,-185.251,228.223,5.220,-15.600,20.940
172,48474.159000,236.345,38.149,81.920,439.879,-185.333,227.219,15.220,-2.600,15.940
173,48474.187000,240.276,42.165,82.944,440.887,-180.760,226.324,-10.780,6.400,7.940
174,48474.219000,237.328,46.180,81.920,440.792,-188.030,229.153,-7.780,-17.600,-10.060
175,48474.259000,232.415,37.145,75.776,442.829,-177.070,226.405,-22.780,-47.600,-9.060
176,48474.299000,229.466,37.145,78.848,446.616,-177.001,227.407,-33.780,-43.600,3.940
177,48474.339000,230.449,40.157,77.824,445.513,-188.085,223.191,-78.780,12.400,4.940
178,48474.380000,263.862,46.180,77.824,439.939,-180.792,225.327,-166.780,34.400,-13.060
179,48474.402000,275.655,52.204,61.440,441.830,-180.786,224.335,-156.780,47.400,-171.060
180,48474.442000,236.345,47.184,64.512,444.758,-174.316,225.472,73.220,-86.600,-308.060
181,48474.482000,190.157,31.122,69.632,453.300,-171.592,218.580,-186.780,-251.600,-379.060
182,48474.522000,205.881,42.165,144.384,454.302,-167.077,214.699,-297.780,81.400,-406.060
183,48474.561000,228.484,34.133,147.456,458.123,-164.298,213.769,-284.780,15.400,-340.060
184,48474.601000,193.106,34.133,119.808,458.270,-153.343,212.013,156.220,-30.600,-237.060
185,48474.642000,213.743,53.208,87.040,462.130,-147.797,212.137,223.220,-108.600,-126.060
186,48474.662000,222.587,53.208,63.488,465.966,-144.082,212.222,159.220,-166.600,-74.060
187,48474.700000,255.017,59.231,72.704,464.079,-143.269,208.258,-67.780,-14.600,-77.060
188,48474.741000,251.086,46.180,82.944,465.904,-147.883,205.178,-182.780,-8.600,-68.060
189,48474.782000,248.138,54.212,86.016,466.911,-143.309,204.283,-119.780,21.400,-101.060
190,48474.828000,233.397,49.192,87.040,465.927,-146.070,204.222,-306.780,8.400,-214.060
191,48474.862000,204.898,48.188,95.232,466.994,-136.955,201.434,-369.780,23.400,-292.060
192,48474.882000,201.950,38.149,105.472,469.872,-134.150,202.493,-381.780,48.400,-353.060
193,48474.929000,209.812,52.204,113.664,470.951,-124.118,199.724,-238.780,105.400,-428.060
194,48474.964000,230.449,30.118,101.376,470.115,-115.905,198.903,-75.780,92.400,-391.060
195,48475.14000,242.242,77.302,88.064,473.092,-106.550,207.063,209.220,191.400,-497.060
196,48475.44000,242.242,98.384,69.632,475.103,-98.221,210.227,326.220,213.400,-538.060
197,48475.83000,264.845,126.494,58.368,473.427,-82.614,213.541,168.220,127.400,-575.060
198,48475.124000,241.259,121.475,76.800,476.475,-67.820,218.834,-179.780,175.400,-471.060
199,48475.144000,219.639,111.435,81.920,476.573,-60.511,217.995,-254.780,86.400,-355.060
200,48475.192000,208.829,91.357,66.560,478.537,-55.028,216.125,-359.780,-126.600,-176.060
201,48475.224000,203.916,87.341,66.560,480.313,-62.527,206.022,-398.780,-219.600,-132.060
202,48475.264000,201.950,79.310,56.320,483.224,-57.032,204.154,-367.780,-274.600,-114.060
203,48475.304000,234.380,81.318,55.296,487.005,-56.261,194.229,-277.780,-240.600,-86.060
204,48475.352000,222.587,88.345,58.368,488.916,-54.482,190.291,-74.780,-147.600,-106.060
205,48475.365000,258.948,101.396,35.840,489.868,-53.631,186.332,89.220,-221.600,-94.060
206,48475.400000,256.000,100.392,45.056,491.779,-51.852,182.394,35.220,-88.600,-62.060
207,48475.443000,208.829,89.349,56.320,493.711,-49.059,183.451,47.220,-67.600,30.940
208,48475.483000,194.088,98.384,54.272,496.427,-57.384,177.310,-21.780,-160.600,105.940
209,48475.523000,184.261,107.420,54.272,490.691,-61.221,172.247,-187.780,-188.600,195.940
210,48475.563000,303.171,100.392,71.680,494.334,-71.307,169.054,-508.780,41.400,214.940
211,48475.583000,235.363,51.200,100.352,493.271,-80.383,173.832,-286.780,74.400,381.940
212,48475.623000,242.242,88.345,118.784,490.223,-95.956,175.486,23.220,243.400,383.940
213,48475.670000,229.466,75.294,78.848,489.241,-98.697,176.421,214.220,7.400,455.940
214,48475.703000,220.622,80.314,94.208,482.531,-105.938,185.208,64.220,88.400,401.940
215,48475.744000,223.570,58.227,116.736,483.340,-116.003,184.995,149.220,45.400,372.940
216,48475.784000,203.916,44.173,103.424,480.439,-120.621,184.893,190.220,-36.600,294.940
217,48475.824000,204.898,39.153,92.160,481.308,-126.125,183.782,71.220,-14.600,238.940
218,48475.844000,225.536,41.161,89.088,476.594,-125.213,186.778,20.220,19.400,170.940
219,48475.884000,252.069,37.145,86.016,478.374,-133.433,186.606,-43.780,33.400,74.940
220,48475.925000,260.914,38.149,81.920,479.349,-131.549,188.637,-13.780,-4.600,3.940
221,48475.962000,262.879,41.161,71.680,482.215,-129.660,189.676,52.220,16.400,-114.060
222,48476.15000,244.207,37.145,68.608,484.231,-120.493,188.880,178.220,66.400,-126.060
223,48476.49000,213.743,31.122,74.752,480.480,-118.594,194.882,298.220,129.400,-91.060
224,48476.80000,204.898,31.122,84.992,478.601,-118.463,202.839,535.220,326.400,-6.060
225,48476.100000,182.296,42.165,81.920,478.789,-106.260,218.019,668.220,310.400,119.940
226,48476.140000,239.294,56.220,81.920,474.107,-104.198,232.975,816.220,489.400,224.940
227,48476.183000,255.017,92.361,88.064,469.424,-102.155,246.937,1009.220,432.400,291.940
228,48476.224000,208.829,133.522,101.376,464.761,-98.338,257.952,891.220,303.400,303.940
229,48476.265000,202.933,161.631,143.360,461.083,-91.741,270.023,688.220,424.400,209.940
230,48476.285000,156.745,104.408,141.312,452.536,-95.284,281.870,521.220,362.400,301.940
231,48476.324000,180.330,84.329,114.688,450.721,-90.553,290.920,511.220,203.400,399.940
232,48476.360000,215.708,92.361,94.208,444.878,-103.336,296.607,489.220,110.400,411.940
233,48476.403000,228.484,75.294,89.088,448.704,-100.499,298.663,524.220,65.400,416.940
234,48476.443000,229.466,88.345,91.136,441.255,-92.256,303.800,708.220,140.400,338.940
235,48476.483000,200.967,86.337,100.352,441.193,-97.597,311.644,691.220,153.400,323.940
236,48476.523000,196.054,65.255,99.328,433.750,-89.276,320.761,637.220,152.400,391.940
237,48476.542000,188.192,75.294,67.584,433.775,-87.444,320.800,670.220,63.400,382.940
238,48476.582000,198.019,66.259,40.960,431.005,-82.823,324.873,641.220,-20.600,322.940
239,48476.622000,234.380,79.310,51.200,424.416,-80.961,330.871,562.220,259.400,178.940
240,48476.662000,236.345,81.318,45.056,421.626,-78.113,337.890,359.220,352.400,253.940
241,48476.702000,290.395,50.196,100.352,411.160,-83.533,348.700,141.220,514.400,268.940
242,48476.742000,341.497,65.255,99.328,403.574,-86.128,361.564,174.220,420.400,220.940
243,48476.767000,317.912,54.212,110.592,398.851,-86.092,366.531,243.220,265.400,28.940
244,48476.802000,264.845,93.365,100.352,397.188,-69.569,369.864,409.220,136.400,-154.060
245,48476.842000,245.190,105.412,102.400,392.526,-64.972,373.933,389.220,4.400,-248.060
246,48476.887000,164.607,62.243,86.016,397.393,-54.852,373.161,323.220,-162.600,-121.060
247,48476.927000,92.868,85.333,73.728,404.048,-52.094,369.251,330.220,-303.600,-70.060
248,48476.965000,178.365,104.408,90.112,405.093,-44.772,368.414,200.220,-155.600,-59.060
249,48477.5000,210.795,136.533,90.112,404.231,-38.411,366.559,-18.780,-95.600,-107.060
250,48477.25000,248.138,93.365,114.688,403.117,-50.391,363.318,-326.780,-104.600,-40.060
251,48477.62000,255.017,94.369,104.448,408.799,-49.498,358.373,-380.780,-236.600,-36.060
252,48477.102000,235.363,67.263,70.656,417.125,-62.387,349.159,-475.780,-395.600,13.940
253,48477.143000,234.380,79.310,57.344,418.018,-65.318,339.151,-515.780,-396.600,-30.060
254,48477.184000,226.518,85.333,71.680,427.408,-69.891,333.100,-636.780,-347.600,-136.060
255,48477.225000,210.795,105.412,81.920,430.045,-83.771,323.857,-520.780,-270.600,-237.060
256,48477.252000,178.365,103.404,77.824,436.629,-85.691,314.874,-845.780,-331.600,-328.060
257,48477.285000,177.382,96.376,61.440,442.216,-90.529,297.871,-993.780,-408.600,-406.060
258,48477.325000,246.173,90.353,66.560,447.882,-90.590,290.915,-1047.780,-163.600,-550.060
259,48477.365000,241.259,32.125,128.000,450.620,-97.122,282.823,-951.780,-346.600,-225.060
260,48477.405000,214.726,53.208,150.528,451.456,-104.555,276.698,-814.780,-77.600,-250.060
261,48477.447000,223.570,59.231,104.448,453.297,-107.454,267.688,-444.780,-252.600,15.940
262,48477.467000,216.691,74.290,93.184,452.228,-115.829,261.540,-307.780,-133.600,40.940
263,48477.502000,214.726,68.267,86.016,455.912,-122.348,253.450,-254.780,-247.600,133.940
264,48477.542000,210.795,46.180,76.800,453.900,-129.937,241.349,-253.780,-297.600,155.940
265,48477.587000,223.570,65.255,77.824,456.701,-132.647,241.296,-453.780,-166.600,70.940
266,48477.627000,222.587,47.184,83.968,457.491,-142.927,230.137,-508.780,-177.600,98.940
267,48477.667000,226.518,66.259,89.088,460.315,-143.845,228.133,-537.780,-115.600,-13.060
268,48477.714000,213.743,58.227,87.040,458.252,-155.098,215.954,-725.780,-141.600,-96.060
269,48477.722000,204.898,38.149,98.304,462.939,-157.861,211.924,-907.780,-92.600,-126.060
270,48477.763000,197.036,32.125,89.088,457.154,-164.584,199.837,-854.780,-221.600,-167.060
271,48477.804000,221.605,49.192,91.136,460.928,-163.891,185.932,-866.780,-69.600,-354.060
272,48477.843000,234.380,36.141,104.448,461.896,-162.085,183.983,-687.780,63.400,-369.060
273,48477.888000,265.827,43.169,107.520,466.760,-152.004,181.221,-569.780,146.400,-464.060
274,48477.928000,244.207,25.098,95.232,468.737,-145.605,179.370,-475.780,53.400,-468.060
275,48477.954000,263.862,29.114,100.352,468.755,-143.850,175.429,-379.780,135.400,-573.060
276,48477.988000,271.724,57.224,86.016,473.764,-123.613,176.862,-293.780,75.400,-694.060
277,48478.28000,269.758,76.298,66.560,474.874,-111.672,178.112,-166.780,54.400,-745.060
278,48478.68000,260.914,86.337,83.968,480.799,-93.313,176.523,-296.780,30.400,-658.060
279,48478.108000,234.380,78.306,96.256,480.770,-95.184,174.493,-301.780,116.400,-459.060
280,48478.148000,225.536,53.208,84.992,483.684,-89.650,174.616,-320.780,21.400,-226.060
281,48478.168000,211.777,60.235,60.416,482.849,-81.437,173.794,-229.780,-78.600,-113.060
282,48478.208000,215.708,54.212,57.344,483.715,-86.980,170.694,-116.780,-134.600,-42.060
283,48478.248000,214.726,52.204,55.296,489.416,-85.092,169.748,99.220,-102.600,-23.060
284,48478.288000,196.054,67.263,67.584,486.629,-81.445,170.816,308.220,19.400,-60.060
285,48478.323000,213.743,87.341,57.344,490.463,-77.750,169.906,389.220,-28.600,-31.060
286,48478.363000,240.276,86.337,78.848,488.634,-73.175,170.995,128.220,25.400,39.940
287,48478.403000,247.155,94.369,82.944,491.402,-78.596,172.873,34.220,-55.600,216.940
288,48478.423000,246.173,97.380,89.088,485.610,-86.935,171.692,79.220,-58.600,300.940
289,48478.466000,260.914,85.333,70.656,485.469,-97.052,169.487,10.220,-147.600,393.940
290,48478.506000,252.069,77.302,82.944,485.326,-107.188,166.288,-214.780,-153.600,418.940
291,48478.553000,227.501,50.196,101.376,484.209,-119.208,161.057,-256.780,-194.600,436.940
292,48478.588000,229.466,44.173,116.736,484.170,-121.975,160.003,-1.780,-83.600,347.940
293,48478.623000,204.898,31.122,107.520,483.092,-131.227,155.826,17.220,-41.600,174.940
294,48478.651000,202.933,40.157,110.592,481.245,-128.406,160.857,136.220,25.400,98.940
295,48478.685000,236.345,40.157,99.328,483.071,-133.781,165.718,383.220,95.400,85.940
296,48478.727000,233.397,47.184,75.776,481.182,-133.767,167.705,534.220,83.400,113.940
297,48478.766000,262.879,67.263,75.776,480.340,-127.171,177.791,596.220,188.400,80.940
298,48478.808000,244.207,66.259,70.656,478.512,-123.356,186.821,702.220,173.400,111.940
299,48478.848000,210.795,67.263,83.968,477.607,-121.341,196.809,686.220,242.400,96.940
300,48478.883000,208.829,65.255,84.992,473.905,-116.576,208.840,644.220,360.400,198.940
301,48478.904000,208.829,38.149,97.280,469.188,-116.463,217.788,640.220,382.400,340.940
302,48478.944000,217.674,43.169,84.992,462.460,-125.458,230.516,786.220,343.400,421.940
303,48478.985000,232.415,39.153,83.968,461.637,-117.868,244.602,970.220,308.400,516.940
304,48479.34000,265.827,82.322,88.064,456.010,-115.818,259.557,1071.220,345.400,517.940
305,48479.73000,195.071,107.420,109.568,448.412,-119.310,273.396,974.220,213.400,424.940
306,48479.112000,215.708,125.490,145.408,441.962,-108.130,287.549,747.220,490.400,186.940
307,48479.127000,194.088,107.420,146.432,438.141,-111.669,296.420,691.220,316.400,207.940
308,48479.179000,202.933,85.333,109.568,434.434,-106.963,305.466,693.220,70.400,246.940
309,48479.214000,205.881,81.318,81.920,432.699,-95.897,310.673,678.220,-32.600,245.940
310,48479.249000,218.656,80.314,78.848,432.740,-93.109,312.721,702.220,17.400,289.940
311,48479.284000,218.656,87.341,82.944,433.627,-97.638,314.615,602.220,95.400,336.940
312,48479.324000,218.656,88.345,92.160,428.027,-92.957,323.658,636.220,159.400,351.940
313,48479.349000,220.622,81.318,96.256,422.370,-92.018,328.643,397.220,159.400,340.940
314,48479.389000,215.708,73.286,90.112,420.450,-94.675,334.552,359.220,80.400,273.940
315,48479.429000,210.795,74.290,109.568,420.503,-90.971,336.620,359.220,146.400,177.940
316,48479.469000,216.691,78.306,101.376,416.773,-87.298,339.676,431.220,225.400,108.940
317,48479.509000,192.123,70.275,79.872,414.107,-75.309,345.896,520.220,179.400,136.940
318,48479.549000,236.345,94.369,98.304,404.653,-76.096,358.795,532.220,422.400,74.940
319,48479.584000,219.639,87.341,99.328,398.190,-65.053,365.983,321.220,430.400,157.940
320,48479.604000,234.380,80.314,82.944,392.507,-66.727,377.875,220.220,471.400,269.940
321,48479.644000,212.760,50.196,64.512,382.983,-71.413,378.755,44.220,267.400,338.940
322,48479.684000,248.138,71.278,82.944,377.250,-76.750,390.569,90.220,381.400,225.940
323,48479.737000,256.983,65.255,113.664,370.706,-71.282,393.660,273.220,298.400,191.940
324,48479.764000,268.775,87.341,123.904,364.083,-72.130,401.589,367.220,217.400,19.940
325,48479.810000,260.914,86.337,120.832,361.312,-67.528,404.667,312.220,54.400,1.940
326,48479.824000,241.259,88.345,114.688,364.200,-63.826,404.750,181.220,-40.600,26.940
327,48479.869000,199.985,75.294,122.880,363.249,-63.897,401.763,35.220,-249.600,118.940
328,48479.907000,173.451,58.227,97.280,370.786,-65.727,396.762,58.220,-320.600,126.940
329,48479.944000,190.157,48.188,97.280,371.721,-65.851,389.798,-29.780,-277.600,125.940
330,48479.994000,233.397,74.290,100.352,378.353,-64.906,386.844,8.220,-220.600,84.940
331,48480.28000,243.225,65.255,108.544,382.092,-67.702,381.817,57.220,-197.600,63.940
332,48480.48000,246.173,44.173,98.304,384.976,-64.059,378.915,11.220,-268.600,-49.060
333,48480.87000,240.276,45.176,78.848,386.812,-67.776,374.860,1.220,-333.600,-92.060
334,48480.159000,231.432,61.239,78.848,393.451,-65.974,368.940,14.220,-315.600,-103.060
335,48480.198000,241.259,80.314,72.704,400.967,-68.817,358.944,-176.780,-355.600,-218.060
336,48480.214000,213.743,104.408,90.112,405.700,-67.975,352.007,-213.780,-329.600,-271.060
337,48480.248000,206.864,118.463,84.992,415.301,-56.993,345.292,-493.780,-341.600,-371.060
338,48480.288000,192.123,119.467,86.016,420.819,-68.029,339.098,-774.780,-418.600,-399.060
339,48480.308000,161.658,106.416,62.464,428.385,-66.448,321.239,-874.780,-529.600,-374.060
340,48480.349000,296.292,94.369,35.840,439.589,-75.771,305.143,-1306.780,-474.600,-513.060
341,48480.389000,210.795,9.035,86.016,445.984,-90.674,287.927,-1268.780,-574.600,-198.060
342,48480.430000,254.035,50.196,117.760,448.713,-98.082,281.805,-889.780,-293.600,-170.060
343,48480.470000,252.069,52.204,101.376,452.355,-107.408,270.671,-595.780,-236.600,-54.060
344,48480.509000,231.432,76.298,81.920,453.190,-114.862,263.551,-523.780,-171.600,-7.060
345,48480.532000,225.536,45.176,70.656,454.967,-122.341,254.443,-358.780,-331.600,113.940
346,48480.565000,220.622,56.220,63.488,456.802,-126.078,249.393,-327.780,-319.600,103.940
347,48480.605000,234.380,59.231,54.272,462.375,-132.611,239.316,-261.780,-295.600,88.940
348,48480.652000,245.190,64.251,61.440,461.428,-131.864,231.373,-259.780,-146.600,90.940
349,48480.685000,236.345,64.251,57.344,461.232,-145.704,226.105,-370.780,-130.600,55.940
350,48480.725000,227.501,53.208,73.728,460.179,-153.123,221.967,-442.780,51.400,118.940
351,48480.765000,224.553,33.129,83.968,458.239,-156.793,222.881,-357.780,112.400,128.940
352,48480.785000,204.898,41.161,77.824,450.662,-157.731,226.828,-231.780,169.400,140.940
353,48480.825000,211.777,45.176,99.328,445.802,-166.994,224.635,-373.780,230.400,49.940
354,48480.865000,241.259,47.184,114.688,445.829,-165.142,225.669,-522.780,197.400,-74.060
355,48480.910000,241.259,40.157,113.664,444.793,-171.587,224.535,-598.780,120.400,-119.060
356,48480.947000,244.207,51.200,109.568,447.707,-166.053,224.657,-252.780,77.400,-238.060
357,48480.988000,220.622,29.114,80.896,445.827,-165.162,224.674,-146.780,47.400,-259.060
358,48481.9000,237.328,29.114,82.944,443.947,-164.271,224.690,-153.780,129.400,-286.060
359,48481.50000,229.466,29.114,49.152,448.890,-148.653,224.035,8.220,19.400,-345.060
360,48481.90000,319.877,74.290,65.536,450.848,-144.009,226.126,-98.780,273.400,-507.060
361,48481.130000,247.155,50.196,83.968,450.093,-130.240,228.407,-199.780,183.400,-524.060
362,48481.170000,258.948,49.192,95.232,450.092,-131.020,235.353,-348.780,267.400,-440.060
363,48481.210000,243.225,34.133,98.304,452.036,-127.311,236.429,-334.780,157.400,-91.060
364,48481.232000,242.242,30.118,74.752,446.337,-128.399,231.425,-325.780,31.400,-25.060
365,48481.268000,236.345,29.114,67.584,453.919,-127.403,230.462,-161.780,-84.600,4.940
366,48481.305000,223.570,38.149,72.704,452.941,-129.326,226.441,67.220,-101.600,-32.060
367,48481.350000,227.501,52.204,69.632,452.925,-130.281,224.432,-53.780,-86.600,-36.060
368,48481.390000,221.605,50.196,65.536,460.467,-132.052,222.416,-87.780,-203.600,56.940
369,48481.433000,248.138,73.286,58.368,460.307,-143.163,216.212,-184.780,-194.600,74.940
370,48481.469000,264.845,75.294,69.632,461.295,-139.583,211.316,-307.780,-190.600,123.940
371,48481.489000,225.536,71.278,99.328,461.112,-152.507,206.067,-404.780,-131.600,180.940
372,48481.529000,224.553,57.224,120.832,461.935,-160.857,199.923,-633.780,-70.600,235.940
373,48481.569000,211.777,8.031,135.168,459.036,-164.676,193.870,-659.780,-50.600,343.940
374,48481.609000,208.829,-5.020,128.000,455.035,-180.339,191.541,-375.780,13.400,256.940
375,48481.648000,225.536,-3.012,126.976,456.855,-185.791,192.422,-87.780,-8.600,189.940
376,48481.689000,246.173,5.020,103.424,456.867,-184.875,192.442,253.220,-0.600,83.940
377,48481.709000,252.069,29.114,71.680,456.897,-182.984,195.466,525.220,-63.600,23.940
378,48481.749000,263.862,46.180,65.536,459.830,-176.456,199.588,497.220,-9.600,-31.060
379,48481.788000,237.328,30.118,70.656,457.983,-173.635,204.619,554.220,12.400,-2.060
380,48481.829000,247.155,34.133,65.536,455.145,-174.432,212.554,503.220,95.400,14.940
381,48481.870000,237.328,31.122,71.680,456.182,-168.747,221.629,552.220,182.400,81.940
382,48481.910000,212.760,30.118,86.016,454.342,-165.848,230.639,537.220,334.400,144.940
383,48481.930000,181.313,19.075,79.872,449.669,-162.909,243.625,617.220,307.400,181.940
384,48481.969000,185.244,12.047,75.776,441.217,-159.181,252.644,810.220,264.400,367.940
385,48482.9000,298.257,85.333,116.736,438.458,-155.203,270.628,801.220,613.400,308.940
386,48482.50000,183.278,92.361,89.088,430.067,-147.693,285.695,845.220,444.400,282.940
387,48482.90000,243.225,127.498,178.176,423.624,-136.417,304.824,592.220,458.400,82.940
388,48482.130000,189.175,77.302,122.880,418.893,-137.239,312.756,395.220,306.400,23.940
389,48482.170000,186.226,71.278,116.736,416.061,-137.199,316.731,181.220,153.400,8.940
390,48482.190000,213.743,74.290,105.472,420.919,-127.955,317.930,295.220,9.400,5.940
391,48482.230000,227.501,62.243,109.568,418.071,-128.870,319.895,336.220,-12.600,108.940
392,48482.270000,211.777,64.251,106.496,418.028,-132.456,323.798,296.220,-31.600,173.940
393,48482.309000,220.622,63.247,96.256,417.223,-122.352,326.001,353.220,-12.600,204.940
394,48482.350000,218.656,55.216,94.208,418.081,-128.753,325.866,331.220,-34.600,228.940
395,48482.390000,212.760,62.243,102.400,415.401,-117.699,331.070,425.220,40.400,135.940
396,48482.410000,199.002,67.263,104.448,416.388,-114.899,333.121,520.220,-2.600,92.940
397,48482.450000,172.468,75.294,93.184,414.594,-107.615,332.278,430.220,-25.600,25.940
398,48482.490000,199.985,82.322,78.848,420.334,-102.959,332.386,301.220,-77.600,-68.060
399,48482.530000,204.898,76.298,66.560,421.337,-99.204,336.446,335.220,-16.600,-87.060
400,48482.568000,242.242,93.365,106.496,412.902,-93.741,340.528,250.220,193.400,19.940
401,48482.609000,253.052,77.302,118.784,412.957,-90.018,343.591,104.220,259.400,105.940
402,48482.649000,246.173,61.239,106.496,403.355,-101.000,350.306,100.220,305.400,285.940
403,48482.669000,209.812,52.204,101.376,400.542,-99.966,358.281,107.220,307.400,414.940
404,48482.730000,202.933,69.271,82.944,391.061,-101.845,362.205,109.220,289.400,310.940
405,48482.751000,231.432,63.247,81.920,386.202,-111.868,367.953,84.220,400.400,198.940
406,48482.791000,256.000,60.235,96.256,377.761,-107.243,375.996,41.220,176.400,197.940
407,48482.832000,268.775,76.298,117.760,378.634,-112.708,376.875,-9.780,179.400,-3.060
408,48482.870000,252.069,84.329,116.736,374.009,-105.364,381.003,16.220,-83.600,-104.060
409,48482.890000,224.553,53.208,104.448,381.545,-106.433,368.062,-18.780,-284.600,-52.060
410,48482.929000,297.274,39.153,137.216,384.345,-109.164,367.013,-164.780,-276.600,12.940
411,48482.979000,250.104,80.314,155.648,388.047,-114.708,361.927,137.220,-393.600,24.940
412,48483.15000,206.864,51.200,133.120,394.805,-104.582,360.163,291.220,-391.600,-18.060
413,48483.49000,197.036,53.208,93.184,398.515,-109.269,352.112,329.220,-465.600,21.940
414,48483.92000,203.916,59.231,92.160,409.955,-101.966,343.333,199.220,-403.600,5.940
415,48483.112000,234.380,73.286,93.184,416.612,-99.188,340.418,33.220,-288.600,-31.060
416,48483.152000,232.415,66.259,82.944,417.475,-104.770,335.327,-150.780,-146.600,-142.060
417,48483.198000,239.294,64.251,84.992,413.793,-97.452,337.467,-200.780,-11.600,-147.060
418,48483.233000,223.570,58.227,66.560,416.575,-101.157,333.413,-304.780,-20.600,-136.060
419,48483.273000,238.311,54.212,47.104,412.756,-103.916,335.338,-407.780,198.400,-170.060
420,48483.313000,230.449,64.251,57.344,411.836,-102.857,343.317,-308.780,447.400,-238.060
421,48483.353000,238.311,61.239,62.464,403.338,-101.975,347.301,-288.780,537.400,-150.060
422,48483.373000,194.088,93.365,95.232,390.983,-107.381,360.098,-276.780,754.400,-314.060
423,48483.419000,200.967,100.392,103.424,382.537,-103.575,373.097,-415.780,792.400,-347.060
424,48483.453000,178.365,87.341,99.328,370.136,-111.826,380.860,-694.780,501.400,-364.060
425,48483.489000,147.900,77.302,107.520,366.258,-119.128,384.678,-831.780,293.400,-384.060
426,48483.530000,294.326,92.361,128.000,366.115,-129.264,381.478,-763.780,339.400,-433.060
427,48483.570000,167.555,16.063,182.272,362.178,-140.327,380.242,-901.780,205.400,-186.060
428,48483.591000,201.950,22.086,206.848,358.313,-145.932,377.133,-678.780,174.400,-71.060
429,48483.632000,199.985,35.137,181.248,355.396,-151.505,375.021,-227.780,148.400,-102.060
430,48483.671000,150.848,36.141,174.080,356.317,-153.325,374.983,-286.780,8.400,-186.060
431,48483.708000,197.036,40.157,152.576,354.432,-152.493,372.014,-241.780,-39.600,-156.060
432,48483.748000,194.088,46.180,148.480,355.362,-153.435,370.006,-198.780,3.400,-69.060
433,48483.788000,209.812,38.149,164.864,354.288,-162.648,367.819,-278.780,83.400,-34.060
434,48483.808000,198.019,36.141,148.480,353.382,-159.873,369.866,-142.780,81.400,4.940
435,48483.848000,193.106,44.173,146.432,351.336,-170.931,367.639,-154.780,10.400,-55.060
436,48483.888000,186.226,46.180,153.600,351.322,-171.866,366.624,-139.780,-18.600,-99.060
437,48483.928000,173.451,53.208,147.456,351.344,-170.073,364.673,-166.780,-17.600,-139.060
438,48483.979000,161.658,43.169,175.104,354.206,-168.223,363.722,-278.780,37.400,-168.060
439,48484.12000,163.624,43.169,198.656,352.335,-166.455,361.768,-302.780,88.400,-216.060
440,48484.51000,156.745,31.122,161.792,354.180,-169.295,355.742,-206.780,-88.600,-211.060
441,48484.80000,157.727,51.200,180.224,360.889,-162.834,353.900,-220.780,-148.600,-303.060
442,48484.110000,175.417,55.216,179.200,365.638,-161.017,349.967,-127.780,-131.600,-377.060
443,48484.150000,229.466,47.184,169.984,369.494,-155.529,347.106,-68.780,-65.600,-448.060
444,48484.192000,285.482,66.259,175.104,372.459,-146.310,348.301,-76.780,66.400,-571.060
445,48484.232000,206.864,70.275,146.432,378.343,-130.739,344.663,-158.780,-85.600,-681.060
446,48484.280000,210.795,53.208,140.288,385.026,-126.110,342.782,-259.780,-159.600,-553.060
447,48484.288000,221.605,22.086,139.264,389.730,-127.139,333.815,-349.780,-170.600,-335.060
448,48484.332000,209.812,37.145,134.144,393.520,-126.271,328.866,-141.780,-214.600,-166.060
449,48484.374000,215.708,28.110,122.880,397.352,-122.595,326.961,-105.780,-239.600,-74.060
450,48484.414000,218.656,39.153,123.904,400.170,-123.572,321.971,-13.780,-211.600,-27.060
451,48484.449000,199.002,40.157,112.640,403.933,-124.555,315.988,-96.780,-329.600,8.940
452,48484.490000,186.226,53.208,108.544,412.422,-125.534,307.028,-164.780,-425.600,7.940
453,48484.512000,241.259,72.282,140.288,416.120,-131.117,299.952,-326.780,-319.600,-91.060
454,48484.552000,217.674,65.255,161.792,426.511,-131.195,289.025,-365.780,-239.600,-125.060
455,48484.594000,189.175,76.298,188.416,422.585,-141.361,286.813,-343.780,-167.600,-98.060
456,48484.640000,177.382,66.259,168.960,425.388,-143.292,279.814,-376.780,-266.600,-19.060
457,48484.670000,181.313,53.208,168.960,433.954,-138.755,271.966,-250.780,-274.600,0.940
458,48484.713000,188.192,53.208,152.576,440.454,-147.050,264.837,36.220,-282.600,32.940
459,48484.759000,214.726,49.192,144.384,441.468,-141.618,260.975,109.220,-262.600,98.940
460,48484.794000,219.639,45.176,131.072,445.113,-151.685,258.777,263.220,-266.600,190.940
461,48484.809000,244.207,42.165,107.520,443.240,-149.936,255.828,501.220,-280.600,272.940
462,48484.849000,234.380,45.176,88.064,441.417,-144.523,252.956,577.220,-264.600,287.940
463,48484.896000,243.225,55.216,88.064,442.405,-141.723,255.007,592.220,-176.600,244.940
464,48484.929000,248.138,52.204,88.064,444.329,-139.788,259.029,668.220,-98.600,250.940
465,48484.971000,226.518,47.184,88.064,449.100,-136.957,260.091,594.220,-141.600,206.940
466,48484.991000,222.587,44.173,94.208,446.344,-131.400,265.178,722.220,18.400,225.940
467,48485.30000,188.192,26.102,102.400,444.396,-135.928,269.058,664.220,-25.600,277.940
468,48485.74000,188.192,34.133,74.752,445.480,-126.598,277.215,834.220,-30.600,326.940
469,48485.114000,198.019,44.173,76.800,444.516,-128.365,281.155,1006.220,-56.600,432.940
470,48485.154000,227.501,110.431,96.256,438.967,-119.999,291.271,961.220,-67.600,307.940
471,48485.194000,246.173,148.580,152.576,440.057,-109.831,295.467,835.220,245.400,52.940
472,48485.214000,206.864,140.549,152.576,439.164,-106.920,304.480,588.220,211.400,61.940
473,48485.265000,192.123,89.349,118.784,439.284,-98.577,309.631,505.220,82.400,175.940
474,48485.295000,198.019,84.329,89.088,431.760,-95.831,314.651,368.220,36.400,254.940
475,48485.333000,216.691,77.302,81.920,431.652,-104.018,317.461,543.220,107.400,251.940
476,48485.372000,216.691,84.329,77.824,429.959,-90.164,324.715,552.220,37.400,268.940
477,48485.419000,221.605,74.290,88.064,428.162,-83.679,329.824,529.220,31.400,320.940
478,48485.453000,228.484,93.365,84.992,426.160,-91.910,331.635,511.220,62.400,221.940
479,48485.473000,221.605,87.341,96.256,423.435,-83.683,332.801,397.220,22.400,249.940
480,48485.520000,197.036,83.325,97.280,425.242,-90.051,333.663,238.220,-48.600,224.940
481,48485.554000,199.985,78.306,131.072,418.616,-90.938,339.602,129.220,145.400,229.940
482,48485.594000,217.674,56.220,126.976,415.814,-88.227,339.655,161.220,144.400,331.940
483,48485.634000,219.639,60.235,123.904,414.789,-94.554,344.492,331.220,181.400,374.940
484,48485.674000,229.466,59.231,118.784,405.370,-91.853,348.514,428.220,220.400,396.940
485,48485.694000,221.605,51.200,103.424,403.390,-99.051,356.315,400.220,201.400,432.940
486,48485.734000,228.484,50.196,94.208,395.792,-101.782,362.214,330.220,256.400,403.940
487,48485.775000,213.743,53.208,75.776,392.943,-102.716,363.184,221.220,136.400,338.940
488,48485.815000,230.449,46.180,59.392,390.151,-99.888,369.208,253.220,155.400,295.940
489,48485.855000,251.086,55.216,64.512,388.179,-106.229,374.044,173.220,153.400,233.940
490,48485.895000,282.534,41.161,76.800,384.460,-101.659,376.125,168.220,94.400,263.940
491,48485.915000,263.862,54.212,90.112,380.603,-107.167,377.991,106.220,135.400,142.940
492,48485.950000,246.173,52.204,81.920,380.667,-102.567,379.084,141.220,15.400,79.940
493,48485.990000,239.294,44.173,53.248,380.662,-102.625,376.098,119.220,-178.600,1.940
494,48486.30000,256.000,48.188,69.632,382.564,-101.723,374.131,67.220,-148.600,-92.060
495,48486.70000,249.121,56.220,83.968,387.319,-99.848,373.183,254.220,-211.600,-198.060
496,48486.110000,246.173,59.231,98.304,390.351,-85.230,369.521,132.220,-160.600,-279.060
497,48486.155000,249.121,67.263,91.136,399.886,-79.648,367.664,-36.780,-234.600,-314.060
498,48486.170000,246.173,62.243,75.776,402.660,-83.450,358.636,-87.780,-323.600,-306.060
499,48486.215000,246.173,55.216,79.872,409.449,-70.654,352.950,-74.780,-327.600,-250.060
500,48486.255000,205.881,56.220,78.848,417.908,-74.304,347.912,-27.780,-407.600,-132.060
501,48486.295000,194.088,60.235,64.512,421.817,-64.332,340.173,3.220,-303.600,-84.060
502,48486.335000,219.639,66.259,70.656,420.817,-68.048,338.103,-102.780,-179.600,-21.060
503,48486.375000,226.518,62.243,57.344,423.584,-72.708,332.040,-185.780,-133.600,-33.060
504,48486.395000,252.069,63.247,65.536,424.541,-71.799,331.066,-231.780,-59.600,-100.060
505,48486.435000,258.948,63.247,72.704,426.405,-73.646,329.040,-231.780,-31.600,-163.060
506,48486.475000,244.207,63.247,60.416,426.302,-81.014,326.894,-415.780,-66.600,-184.060
507,48486.515000,229.466,61.239,61.440,431.967,-81.855,326.884,-487.780,-62.600,-177.060
508,48486.550000,236.345,71.278,65.536,428.099,-87.499,321.785,-477.780,-85.600,-154.060
509,48486.590000,226.518,74.290,73.728,429.940,-91.158,320.716,-471.780,14.400,-212.060
510,48486.630000,206.864,94.369,90.112,429.869,-95.837,315.643,-614.780,20.400,-281.060
511,48486.650000,175.417,98.384,91.136,429.782,-101.470,308.560,-914.780,-82.600,-383.060
512,48486.690000,171.486,94.369,63.488,434.455,-105.170,303.515,-1007.780,-247.600,-363.060
513,48486.730000,267.793,63.247,77.824,434.414,-107.197,293.526,-1287.780,-124.600,-420.060
514,48486.770000,225.536,-36.141,116.736,442.714,-121.938,283.278,-1144.780,-227.600,-88.060
515,48486.810000,262.879,20.078,138.240,439.751,-130.357,276.132,-738.780,8.400,-135.060
516,48486.866000,253.052,42.165,139.264,440.689,-130.442,271.158,-485.780,-44.600,-164.060
517,48486.874000,228.484,74.290,110.592,436.811,-136.964,268.030,-206.780,50.400,-220.060
518,48486.913000,209.812,45.176,97.280,438.752,-133.294,267.116,-231.780,-48.600,-122.060
519,48486.954000,216.691,53.208,94.208,440.497,-143.463,260.934,-558.780,-213.600,-130.060
520,48486.994000,220.622,50.196,83.968,447.079,-145.403,250.957,-512.780,-255.600,-64.060
521,48487.34000,228.484,49.192,79.872,447.054,-146.475,242.977,-452.780,-278.600,-44.060
522,48487.74000,231.432,45.176,83.968,451.704,-151.208,231.942,-540.780,-185.600,-96.060
523,48487.94000,235.363,48.188,90.112,456.478,-147.579,227.053,-455.780,-178.600,-109.060
524,48487.134000,225.536,49.192,107.520,457.283,-157.683,224.850,-378.780,-20.600,-167.060
525,48487.174000,217.674,58.227,106.496,457.320,-154.174,216.967,-346.780,6.400,-209.060
526,48487.214000,213.743,50.196,99.328,458.198,-158.801,213.886,-275.780,-9.600,-192.060
527,48487.251000,219.639,56.220,101.376,458.364,-146.852,216.130,-184.780,49.400,-172.060
528,48487.294000,189.175,42.165,108.544,462.155,-145.964,212.176,-200.780,-8.600,-140.060
529,48487.334000,227.501,37.145,101.376,459.306,-146.898,213.147,-143.780,26.400,-159.060
530,48487.354000,260.914,57.224,91.136,460.405,-135.853,215.373,26.220,140.400,-269.060
531,48487.393000,302.188,73.286,79.872,459.499,-133.858,224.365,211.220,248.400,-357.060
532,48487.441000,270.741,66.259,74.752,461.631,-116.407,225.735,238.220,128.400,-303.060
533,48487.475000,238.311,44.173,62.464,458.836,-113.618,229.768,258.220,9.400,-100.060
534,48487.524000,234.380,36.141,65.536,460.702,-115.445,228.738,170.220,71.400,46.940
535,48487.551000,227.501,43.169,62.464,454.072,-116.370,232.687,115.220,104.400,129.940
536,48487.571000,227.501,48.188,70.656,456.944,-114.403,237.706,191.220,127.400,152.940
537,48487.612000,219.639,48.188,61.440,453.082,-120.749,243.533,189.220,24.400,92.940
538,48487.654000,228.484,61.239,65.536,457.789,-121.739,236.556,73.220,-38.600,35.940
539,48487.694000,226.518,79.310,88.064,454.978,-119.905,238.581,27.220,3.400,10.940
540,48487.746000,245.190,66.259,89.088,453.970,-124.498,238.481,-206.780,-30.600,58.940
541,48487.774000,256.000,80.314,116.736,453.955,-125.434,237.467,-352.780,24.400,179.940
542,48487.823000,257.965,69.271,125.952,449.951,-141.136,233.148,-406.780,25.400,286.940
543,48487.839000,219.639,47.184,123.904,450.881,-142.079,231.140,-482.780,-100.600,247.940
544,48487.876000,201.950,63.247,125.952,449.797,-151.409,222.983,-553.780,-202.600,81.940
545,48487.911000,204.898,65.255,129.024,457.296,-155.987,217.923,-342.780,-160.600,-116.060
546,48487.954000,201.950,52.204,129.024,460.130,-156.008,214.943,-125.780,-115.600,-95.060
547,48487.995000,216.691,35.137,104.448,460.125,-156.067,211.958,22.220,-81.600,-16.060
548,48488.41000,242.242,36.141,77.824,460.045,-161.622,208.856,69.220,-139.600,94.940
549,48488.63000,251.086,44.173,74.752,460.050,-161.564,211.841,183.220,-109.600,140.940
550,48488.96000,245.190,40.157,70.656,460.134,-155.190,209.987,342.220,-86.600,181.940
551,48488.136000,242.242,41.161,59.392,460.002,-165.209,212.758,420.220,-37.600,174.940
552,48488.184000,240.276,37.145,62.464,461.119,-153.189,217.989,439.220,69.400,140.940
553,48488.213000,249.121,36.141,68.608,458.209,-159.444,227.798,520.220,157.400,146.940
554,48488.255000,233.397,37.145,78.848,458.230,-158.430,232.792,571.220,211.400,177.940
555,48488.274000,197.036,18.071,92.160,452.729,-147.199,248.937,635.220,338.400,162.940
556,48488.313000,178.365,21.082,79.872,447.110,-144.272,261.922,604.220,340.400,260.940
557,48488.353000,216.691,34.133,82.944,443.389,-141.262,277.894,840.220,445.400,359.940
558,48488.400000,283.516,46.180,74.752,436.854,-136.456,293.901,1004.220,478.400,415.940
559,48488.435000,209.812,98.384,114.688,427.499,-129.934,305.962,944.220,451.400,283.940
560,48488.475000,215.708,126.494,153.600,422.855,-125.123,320.977,945.220,441.400,28.940
561,48488.520000,193.106,104.408,116.736,416.458,-109.461,330.253,664.220,162.400,29.940
562,48488.537000,171.486,71.278,108.544,418.411,-105.654,336.304,463.220,-15.600,83.940
563,48488.578000,190.157,75.294,93.184,418.507,-98.364,334.470,286.220,-163.600,110.940
564,48488.624000,201.950,94.369,92.160,416.541,-103.866,335.345,204.220,31.400,133.940
565,48488.658000,215.708,72.282,89.088,417.500,-102.938,335.366,85.220,66.400,185.940
566,48488.698000,223.570,77.302,107.520,410.895,-102.031,339.354,130.220,88.400,234.940
567,48488.738000,211.777,74.290,103.424,413.725,-102.871,341.330,118.220,104.400,156.940
568,48488.758000,213.743,63.247,89.088,413.755,-100.980,344.354,338.220,132.400,163.940
569,48488.798000,218.656,61.239,111.616,405.312,-96.375,351.402,482.220,188.400,195.940
570,48488.838000,219.639,62.243,116.736,404.382,-95.432,353.410,412.220,134.400,227.940
571,48488.878000,236.345,70.275,112.640,393.996,-94.517,360.376,536.220,250.400,359.940
572,48488.916000,217.674,61.239,116.736,392.155,-91.638,368.392,403.220,316.400,403.940
573,48488.953000,210.795,49.192,146.432,384.453,-102.517,379.090,134.220,400.400,459.940
574,48488.973000,215.708,55.216,124.928,375.999,-98.809,387.114,171.220,361.400,380.940
575,48489.13000,243.225,60.235,97.280,367.439,-102.507,391.001,153.220,319.400,272.940
576,48489.53000,233.397,35.137,81.920,367.361,-108.803,396.835,105.220,260.400,291.940
577,48489.105000,222.587,34.133,84.992,360.639,-116.200,397.662,-73.780,124.400,270.940
578,48489.135000,232.415,52.204,77.824,351.154,-118.119,399.596,154.220,183.400,265.940
579,48489.175000,251.086,31.122,95.232,350.104,-126.279,404.394,82.220,138.400,241.940
580,48489.218000,262.879,40.157,97.280,351.114,-121.666,405.489,-47.780,-44.600,123.940
581,48489.238000,263.862,65.255,92.160,349.300,-116.155,407.592,49.220,108.400,-144.060
582,48489.278000,225.536,55.216,110.592,351.246,-112.427,409.664,295.220,0.400,-208.060
583,48489.318000,214.726,50.196,106.496,355.112,-106.042,405.827,242.220,-169.600,-149.060
584,48489.353000,215.708,45.176,96.256,359.940,-98.689,404.001,319.220,-218.600,-108.060
585,48489.400000,211.777,46.180,101.376,361.917,-92.290,402.151,424.220,-280.600,-124.060
586,48489.433000,261.896,68.267,112.640,367.822,-75.705,403.508,501.220,-239.600,-86.060
587,48489.458000,201.950,55.216,124.928,375.484,-68.374,398.702,302.220,-279.600,-73.060
588,48489.495000,186.226,58.227,96.256,376.511,-62.027,394.860,316.220,-342.600,-40.060
589,48489.534000,205.881,68.267,101.376,381.352,-53.758,393.054,287.220,-237.600,-5.060
590,48489.574000,219.639,75.294,98.304,381.357,-52.920,389.093,136.220,-154.600,-5.060
591,48489.614000,236.345,63.247,97.280,386.939,-59.355,383.991,-88.780,-238.600,-35.060
592,48489.663000,247.155,61.239,82.944,391.714,-55.706,380.097,-248.780,-252.600,-105.060
593,48489.694000,245.190,49.192,66.560,393.508,-62.231,372.999,-388.780,-282.600,-122.060
594,48489.714000,232.415,47.184,76.800,399.160,-63.228,365.029,-462.780,-209.600,-151.060
595,48489.763000,227.501,48.188,81.920,402.802,-73.314,361.835,-286.780,-257.600,-188.060
596,48489.796000,238.311,57.224,77.824,404.665,-75.180,358.815,-272.780,-200.600,-226.060
597,48489.836000,231.432,82.322,88.064,403.862,-64.277,355.067,-226.780,-133.600,-304.060
598,48489.878000,211.777,92.361,94.208,412.319,-67.946,349.033,-528.780,-175.600,-311.060
599,48489.919000,195.071,99.388,97.280,416.994,-71.626,344.984,-554.780,-154.600,-320.060
600,48489.939000,184.261,96.376,82.944,417.878,-75.415,337.942,-755.780,-253.600,-354.060
601,48489.975000,198.019,97.380,72.704,425.351,-81.845,331.848,-904.780,-222.600,-399.060
602,48490.18000,286.464,89.349,70.656,428.990,-91.210,318.724,-884.780,-327.600,-245.060
603,48490.58000,201.950,43.169,78.848,433.594,-99.568,309.601,-1188.780,-324.600,-290.060
604,48490.109000,209.812,31.122,83.968,439.047,-114.444,294.373,-884.780,-388.600,-242.060
605,48490.138000,243.225,58.227,106.496,440.959,-112.645,291.430,-603.780,-179.600,-267.060
606,48490.158000,232.415,54.212,143.360,443.721,-117.364,282.382,-519.780,115.400,-272.060
607,48490.194000,232.415,64.251,137.216,444.697,-115.461,285.408,-386.780,-5.600,-142.060
608,48490.234000,223.570,70.275,99.328,442.723,-121.061,281.307,-143.780,-45.600,-37.060
609,48490.278000,199.985,54.212,79.872,445.582,-119.249,278.366,-125.780,-193.600,81.940
610,48490.324000,221.605,46.180,92.160,444.511,-127.644,271.223,-199.780,-117.600,119.940
611,48490.363000,228.484,44.173,97.280,444.472,-130.412,270.170,-158.780,-95.600,84.940
612,48490.400000,212.760,32.125,108.544,447.319,-129.517,267.209,-212.780,-31.600,60.940
613,48490.420000,205.881,31.122,131.072,446.255,-137.833,264.047,-196.780,100.400,-15.060
614,48490.458000,222.587,46.180,122.880,446.346,-131.381,266.173,-241.780,113.400,-171.060
615,48490.501000,207.846,65.255,121.856,447.276,-132.324,264.165,-217.780,73.400,-284.060
616,48490.536000,227.501,64.251,137.216,443.503,-131.457,264.178,-423.780,-5.600,-385.060
617,48490.578000,231.432,71.278,118.784,448.337,-123.267,258.392,-357.780,-46.600,-411.060
618,48490.624000,277.620,100.392,100.352,452.235,-114.972,258.574,-340.780,-34.600,-517.060
619,48490.638000,210.795,72.282,81.920,454.270,-104.051,253.837,-436.780,-36.600,-540.060
620,48490.676000,203.916,51.200,74.752,459.967,-102.202,250.900,-297.780,54.400,-477.060
621,48490.715000,206.864,57.224,51.200,460.975,-97.628,250.005,-274.780,31.400,-389.060
622,48490.760000,232.415,56.220,60.416,461.949,-95.744,252.035,-298.780,135.400,-312.060
623,48490.814000,278.603,61.239,86.016,460.167,-88.323,258.159,-355.780,246.400,-250.060
624,48490.836000,245.190,58.227,76.800,460.151,-89.278,256.149,7.220,51.400,-15.060
625,48490.855000,218.656,62.243,53.248,459.253,-85.646,255.230,146.220,-59.600,53.940
626,48490.904000,212.760,74.290,54.272,463.881,-92.952,253.092,116.220,-187.600,82.940
627,48490.935000,208.829,87.341,75.776,462.012,-91.164,252.133,3.220,-223.600,98.940
628,48490.975000,224.553,111.435,79.872,464.828,-92.159,246.148,-204.780,-183.600,210.940
629,48491.20000,267.793,90.353,109.568,468.361,-109.692,236.829,-534.780,-292.600,344.940
630,48491.55000,215.708,56.220,151.552,469.120,-122.642,229.592,-440.780,-117.600,394.940
631,48491.104000,240.276,68.267,148.480,466.137,-132.835,225.392,-404.780,-146.600,318.940
632,48491.119000,228.484,54.212,150.528,467.909,-141.152,220.244,-221.780,-156.600,246.940
633,48491.159000,211.777,56.220,116.736,465.943,-146.655,221.119,24.220,-129.600,159.940
634,48491.199000,222.587,59.231,99.328,466.859,-148.533,218.096,174.220,-135.600,107.940
635,48491.238000,218.656,42.165,82.944,470.599,-151.329,213.069,240.220,-179.600,184.940
636,48491.284000,256.000,43.169,59.392,471.567,-149.523,211.120,249.220,-200.600,226.940
637,48491.320000,256.983,50.196,50.176,470.611,-150.413,213.089,304.220,-125.600,235.940
638,48491.340000,244.207,48.188,58.368,469.600,-155.805,218.940,391.220,-58.600,249.940
639,48491.379000,223.570,43.169,62.464,467.704,-155.869,216.947,325.220,-21.600,289.940
640,48491.418000,222.587,32.125,66.560,465.743,-161.313,220.806,305.220,44.400,301.940
641,48491.460000,221.605,16.063,71.680,464.637,-173.976,229.487,409.220,44.400,331.940
642,48491.500000,247.155,7.027,77.824,458.077,-169.463,230.568,689.220,134.400,255.940
643,48491.540000,219.639,7.027,77.824,457.246,-161.971,239.678,699.220,81.400,213.940
644,48491.579000,216.691,-4.016,93.184,451.548,-164.579,250.555,704.220,181.400,140.940
645,48491.601000,181.313,11.043,73.728,451.824,-145.964,265.871,1002.220,324.400,127.940
646,48491.636000,249.121,78.306,75.776,448.092,-143.070,275.874,1032.220,251.400,111.940
647,48491.683000,237.328,93.365,97.280,445.409,-132.816,287.029,822.220,436.400,-100.060
648,48491.719000,219.639,117.459,108.544,439.068,-113.430,299.368,501.220,227.400,-64.060
649,48491.758000,214.726,84.329,108.544,439.129,-109.629,306.411,400.220,253.400,-32.060
650,48491.800000,215.708,71.278,95.232,433.497,-106.858,311.435,226.220,196.400,-9.060
651,48491.820000,215.708,65.255,95.232,431.666,-103.082,318.475,168.220,162.400,26.940
652,48491.859000,204.898,77.302,103.424,427.849,-105.822,321.395,185.220,119.400,-26.060
653,48491.898000,217.674,79.310,98.304,427.880,-103.912,325.414,152.220,146.400,-33.060
654,48491.940000,218.656,77.302,95.232,429.917,-93.731,329.613,36.220,102.400,-41.060
655,48491.989000,217.674,84.329,95.232,427.052,-95.620,328.574,20.220,71.400,-57.060
656,48492.18000,217.674,76.298,105.472,425.221,-91.065,328.668,35.220,132.400,-34.060
657,48492.38000,209.812,74.290,111.616,423.345,-90.895,338.615,58.220,180.400,32.940
658,48492.76000,201.950,77.302,109.568,419.562,-90.925,339.603,230.220,303.400,117.940
659,48492.116000,212.760,88.345,114.688,413.892,-91.682,351.515,392.220,542.400,174.940
660,48492.161000,246.173,95.373,130.048,399.795,-86.099,365.537,178.220,653.400,195.940
661,48492.196000,242.242,61.239,133.120,383.519,-101.613,379.108,127.220,737.400,409.940
662,48492.239000,217.674,46.180,100.352,371.292,-97.818,394.090,-47.780,540.400,380.940
663,48492.280000,195.071,30.118,107.520,366.408,-109.673,399.799,99.220,487.400,330.940
664,48492.301000,213.743,53.208,95.232,357.938,-106.920,405.812,273.220,369.400,231.940
665,48492.341000,212.760,54.212,109.568,352.361,-100.426,413.900,219.220,255.400,96.940
666,48492.376000,231.432,73.286,122.880,353.283,-102.246,413.862,194.220,111.400,-65.060
667,48492.421000,224.553,82.322,118.784,348.711,-91.198,420.058,91.220,7.400,-104.060
668,48492.465000,218.656,68.267,114.688,349.640,-92.160,417.055,-49.780,-90.600,-96.060
669,48492.498000,217.674,65.255,111.616,351.537,-91.317,412.103,-93.780,-174.600,-72.060
670,48492.519000,208.829,59.231,114.688,353.390,-94.060,411.053,-68.780,-176.600,-68.060
671,48492.571000,214.726,55.216,105.472,358.167,-90.391,408.154,44.220,-174.600,-83.060
672,48492.601000,215.708,61.239,108.544,361.911,-93.128,406.112,125.220,-154.600,-113.060
673,48492.648000,243.225,91.357,132.096,360.106,-86.741,406.245,184.220,43.400,-167.060
674,48492.676000,207.846,88.345,123.904,360.320,-71.147,407.572,428.220,50.400,-109.060
675,48492.719000,185.244,90.353,119.808,358.506,-65.636,409.676,368.220,60.400,-56.060
676,48492.756000,159.693,84.329,116.736,356.586,-68.292,415.584,49.220,32.400,74.940
677,48492.776000,190.157,72.282,133.120,356.498,-74.705,415.448,-128.780,72.400,144.940
678,48492.820000,232.415,71.278,138.240,352.694,-75.749,411.441,-169.780,36.400,133.940
679,48492.868000,239.294,63.247,125.952,351.737,-76.658,412.415,-244.780,-109.600,11.940
680,48492.900000,241.259,64.251,113.664,353.519,-84.080,406.292,-366.780,-138.600,-92.060
681,48492.955000,235.363,53.208,101.376,356.266,-90.514,403.175,-463.780,-214.600,-119.060
682,48492.983000,217.674,41.161,100.352,364.657,-98.802,395.054,-495.780,-188.600,-116.060
683,48492.996000,212.760,42.165,101.376,364.586,-103.481,389.981,-397.780,-204.600,-137.060
684,48493.41000,204.898,55.216,104.448,370.160,-110.774,387.845,-248.780,-118.600,-197.060
685,48493.83000,208.829,59.231,109.568,373.076,-105.220,388.962,-240.780,-112.600,-243.060
686,48493.133000,204.898,82.322,122.880,375.875,-107.190,379.973,-285.780,-97.600,-296.060
687,48493.170000,197.036,101.396,119.808,376.830,-106.301,378.004,-322.780,-112.600,-318.060
688,48493.199000,193.106,91.357,124.928,380.459,-117.322,373.796,-500.780,-193.600,-271.060
689,48493.219000,179.347,84.329,111.616,385.161,-118.371,363.834,-648.780,-372.600,-262.060
690,48493.258000,212.760,51.200,114.688,387.868,-126.813,351.723,-746.780,-462.600,-133.060
691,48493.300000,215.708,9.035,182.272,394.354,-136.043,343.579,-789.780,-195.600,-84.060
692,48493.339000,232.415,23.090,187.392,397.034,-147.097,338.375,-180.780,-48.600,17.940
693,48493.388000,211.777,50.196,156.672,398.046,-141.704,332.523,-3.780,-160.600,-10.060
694,48493.421000,216.691,60.235,142.336,400.909,-139.835,332.567,92.220,-176.600,-107.060
695,48493.463000,204.898,68.267,120.832,402.781,-140.823,327.576,-79.780,-257.600,-125.060
696,48493.488000,204.898,52.204,103.424,407.549,-137.253,319.702,-171.780,-227.600,-47.060
697,48493.521000,202.933,51.200,116.736,408.300,-151.080,314.435,-238.780,-116.600,-22.060
698,48493.564000,205.881,20.078,107.520,411.214,-145.545,314.557,-136.780,-148.600,33.940
699,48493.603000,199.002,34.133,120.832,410.159,-152.984,309.424,-88.780,-58.600,-1.060
700,48493.640000,196.054,25.098,123.904,410.209,-149.320,309.502,127.220,-121.600,-49.060
701,48493.688000,202.933,35.137,110.592,414.086,-142.038,304.690,114.220,-188.600,-101.060
702,48493.709000,214.726,67.263,116.736,419.815,-137.519,297.832,119.220,-305.600,-190.060
703,48493.738000,201.950,42.165,112.640,424.594,-133.052,288.982,-20.780,-406.600,-144.060
704,48493.786000,258.948,73.286,121.856,426.494,-132.169,286.020,-228.780,-207.600,-269.060
705,48493.828000,257.965,76.298,111.616,433.190,-126.624,284.159,-240.780,-128.600,-374.060
706,48493.861000,254.035,81.318,113.664,435.108,-123.987,277.255,-236.780,-24.600,-486.060
707,48493.903000,229.466,72.282,93.184,435.214,-115.820,273.451,-272.780,-115.600,-440.060
708,48493.923000,219.639,69.271,80.896,441.889,-111.288,266.595,-220.780,-147.600,-284.060
709,48493.958000,239.294,47.184,76.800,446.642,-109.433,264.652,-176.780,-112.600,-83.060
710,48494.1000,245.190,39.153,79.872,445.644,-113.129,263.577,-138.780,-87.600,111.940
711,48494.46000,245.190,48.188,76.800,445.539,-120.517,260.436,169.220,-76.600,202.940
712,48494.86000,251.086,49.192,73.728,441.812,-116.805,265.482,386.220,-78.600,290.940
713,48494.123000,240.276,63.247,68.608,444.600,-120.451,264.414,431.220,-143.600,325.940
714,48494.158000,237.328,70.275,66.560,442.650,-124.219,260.353,434.220,-246.600,325.940
715,48494.180000,237.328,65.255,62.464,445.441,-127.826,261.275,333.220,-262.600,337.940
716,48494.225000,211.777,69.271,73.728,448.270,-127.906,255.309,-128.780,-331.600,231.940
717,48494.261000,228.484,65.255,80.896,453.767,-139.955,244.120,-271.780,-317.600,163.940
718,48494.299000,220.622,60.235,100.352,454.523,-152.944,234.893,-649.780,-271.600,144.940
719,48494.349000,216.691,27.106,123.904,454.396,-161.365,225.762,-603.780,-71.600,105.940
720,48494.383000,234.380,29.114,117.760,454.355,-164.153,223.713,-336.780,-41.600,45.940
721,48494.403000,254.035,47.184,106.496,451.486,-166.081,220.684,-132.780,27.400,-60.060
722,48494.443000,244.207,38.149,82.944,459.182,-156.820,220.892,14.220,-92.600,-45.060
723,48494.478000,256.000,50.196,67.584,456.327,-157.812,218.878,66.220,-102.600,-53.060
724,48494.519000,244.207,39.153,58.368,461.033,-159.582,218.847,118.220,-121.600,10.940
725,48494.563000,246.173,31.122,58.368,457.254,-158.794,214.880,67.220,-106.600,49.940
726,48494.600000,245.190,32.125,71.680,459.103,-162.356,218.785,207.220,-71.600,85.940
727,48494.639000,228.484,24.094,50.176,463.919,-155.919,216.940,276.220,-79.600,84.940
728,48494.668000,200.967,9.035,83.968,463.822,-163.209,218.774,143.220,-17.600,84.940
729,48494.703000,214.726,18.071,68.608,463.952,-153.989,221.954,421.220,50.400,157.940
730,48494.743000,229.466,3.012,67.584,459.182,-157.580,228.833,699.220,112.400,183.940
731,48494.783000,228.484,5.020,62.464,459.376,-144.539,240.052,902.220,138.400,70.940
732,48494.828000,269.758,72.282,51.200,455.754,-133.439,248.240,1052.220,124.400,-34.060
733,48494.860000,245.190,123.482,78.848,455.990,-117.592,262.503,1020.220,309.400,-278.060
734,48494.881000,218.656,122.478,112.640,450.558,-100.923,275.780,554.220,382.400,-312.060
735,48494.919000,200.967,112.439,111.616,448.781,-93.443,284.888,358.220,412.400,-217.060
736,48494.962000,202.933,94.369,83.968,450.735,-89.617,291.935,148.220,233.400,-67.060
737,48495.3000,205.881,92.361,81.920,449.805,-88.674,293.943,-17.780,58.400,35.940
738,48495.44000,221.605,80.314,76.800,449.789,-89.629,291.933,-73.780,-107.600,75.940
739,48495.83000,231.432,71.278,71.680,451.576,-96.992,288.795,-63.780,-66.600,66.940
740,48495.103000,229.466,71.278,79.872,453.509,-93.420,282.906,25.220,-78.600,72.940
741,48495.141000,220.622,72.282,72.704,453.532,-92.386,288.896,111.220,-72.600,47.940
742,48495.181000,222.587,82.322,77.824,456.362,-92.447,283.926,137.220,-4.600,-6.060
743,48495.223000,215.708,88.345,78.848,452.669,-86.025,287.041,179.220,19.400,13.940
744,48495.261000,214.726,74.290,80.896,453.589,-87.864,286.008,173.220,25.400,99.940
745,48495.303000,220.622,82.322,78.848,453.594,-87.806,288.994,151.220,85.400,98.940
746,48495.344000,221.605,74.290,89.088,451.651,-91.495,288.912,112.220,161.400,146.940
747,48495.369000,234.380,67.263,77.824,447.890,-90.493,295.890,28.220,194.400,128.940
748,48495.403000,241.259,59.231,80.896,441.271,-90.522,298.864,139.220,298.400,144.940
749,48495.444000,224.553,38.149,74.752,435.560,-94.066,308.726,289.220,263.400,137.940
750,48495.484000,235.363,51.200,65.536,435.679,-85.743,312.882,431.220,195.400,34.940
751,48495.529000,249.121,73.286,48.128,435.684,-85.684,315.867,386.220,123.400,-0.060
752,48495.563000,259.931,67.263,51.200,433.922,-76.489,319.044,87.220,92.400,28.940
753,48495.583000,256.000,80.314,71.680,429.077,-84.797,318.861,-75.780,32.400,-0.060
754,48495.623000,252.069,87.341,63.488,429.163,-78.404,318.002,-30.780,-14.600,-17.060
755,48495.664000,247.155,82.322,63.488,436.746,-77.387,318.035,-90.780,-90.600,-36.060
756,48495.704000,233.397,77.302,57.344,431.952,-82.031,317.929,-274.780,-138.600,-37.060
757,48495.743000,214.726,61.239,67.584,435.605,-90.460,305.819,-345.780,-227.600,21.940
758,48495.790000,226.518,46.180,72.704,438.350,-96.913,301.707,-333.780,-271.600,57.940
759,48495.824000,238.311,37.145,71.680,440.157,-102.502,295.623,-107.780,-243.600,37.940
760,48495.853000,291.378,69.271,77.824,440.257,-95.173,295.780,302.220,-54.600,-42.060
761,48495.881000,252.069,61.239,73.728,445.999,-90.498,296.882,480.220,-50.600,-31.060
762,48495.919000,216.691,55.216,74.752,447.024,-84.950,298.991,682.220,-124.600,11.940
763,48495.965000,188.192,64.251,53.248,442.508,-69.399,301.305,706.220,27.400,34.940
764,48496.1000,216.691,87.341,75.776,444.445,-66.547,305.347,561.220,107.400,111.940
765,48496.43000,243.225,96.376,62.464,438.858,-60.171,307.463,213.220,77.400,54.940
766,48496.63000,261.896,74.290,67.584,444.538,-60.076,308.468,-53.780,-50.600,8.940
767,48496.104000,252.069,51.200,67.584,442.503,-70.237,305.265,-295.780,-119.600,1.940
768,48496.140000,238.311,47.184,61.440,444.291,-76.820,295.181,-521.780,-216.600,-29.060
769,48496.180000,240.276,60.235,49.152,449.967,-76.765,294.196,-436.780,-188.600,-99.060
770,48496.226000,234.380,48.188,39.936,452.773,-78.657,289.187,-233.780,-183.600,-99.060
771,48496.263000,232.415,64.251,58.368,455.658,-74.994,287.280,-137.780,-56.600,-246.060
772,48496.283000,220.622,83.325,62.464,455.707,-71.349,286.363,-112.780,-10.600,-252.060
773,48496.324000,222.587,85.333,56.320,455.693,-72.285,285.348,-154.780,29.400,-212.060
774,48496.364000,236.345,94.369,57.344,454.842,-65.787,290.459,-175.780,120.400,-198.060
775,48496.404000,210.795,102.400,68.608,450.101,-66.726,292.421,-181.780,151.400,-178.060
776,48496.444000,200.967,114.447,66.560,449.163,-65.881,289.454,-239.780,-15.600,-140.060
777,48496.485000,199.002,118.463,49.152,451.053,-65.876,288.462,-316.780,-127.600,-87.060
778,48496.525000,227.501,95.373,51.200,453.773,-74.161,284.311,-579.780,-144.600,-42.060
779,48496.545000,216.691,25.098,96.256,451.589,-94.536,273.928,-917.780,-284.600,171.940
780,48496.580000,222.587,28.110,101.376,454.324,-101.107,263.846,-743.780,-191.600,100.940
781,48496.620000,225.536,40.157,126.976,454.203,-109.450,258.695,-195.780,-112.600,133.940
782,48496.663000,233.397,40.157,99.328,452.239,-114.933,260.564,-71.780,-161.600,117.940
783,48496.703000,234.380,63.247,103.424,449.380,-115.964,256.560,41.220,-113.600,9.940
784,48496.743000,242.242,70.275,90.112,454.105,-115.980,252.588,-12.780,-145.600,41.940
785,48496.763000,234.380,73.286,90.112,457.028,-109.568,250.739,-21.780,-87.600,-27.060
786,48496.804000,233.397,68.267,87.040,456.980,-113.213,251.656,-2.780,-51.600,-15.060
787,48496.845000,218.656,56.220,79.872,456.963,-114.188,248.652,-133.780,-27.600,24.940
788,48496.880000,217.674,56.220,78.848,453.156,-116.031,250.596,-85.780,21.400,40.940
789,48496.920000,218.656,51.200,74.752,456.968,-114.130,251.637,-80.780,60.400,37.940
790,48496.960000,210.795,38.149,68.608,452.106,-123.412,248.448,-89.780,-5.600,24.940
791,48496.980000,203.916,37.145,66.560,450.299,-117.044,247.586,-38.780,-33.600,-15.060
792,48497.20000,224.553,54.212,70.656,454.025,-121.535,249.486,-182.780,-75.600,-128.060
793,48497.60000,248.138,53.208,65.536,457.932,-112.363,247.697,-250.780,169.400,-241.060
794,48497.100000,299.240,67.263,79.872,452.209,-116.044,250.594,-207.780,215.400,-347.060
795,48497.145000,305.136,75.294,73.728,457.103,-104.851,257.802,-205.780,286.400,-469.060
796,48497.185000,246.173,77.302,69.632,455.344,-94.838,256.023,-203.780,181.400,-454.060
797,48497.225000,224.553,61.239,61.440,459.225,-88.277,261.142,-217.780,156.400,-248.060
798,48497.245000,213.743,43.169,69.632,457.270,-92.883,261.041,-123.780,137.400,-49.060
799,48497.283000,209.812,37.145,69.632,453.477,-93.790,264.000,-103.780,71.400,15.940
800,48497.326000,210.795,69.271,63.488,453.532,-90.067,267.063,39.220,27.400,-13.060
801,48497.366000,225.536,67.263,56.320,453.470,-94.648,266.966,-44.780,10.400,-49.060
802,48497.410000,210.795,83.325,48.128,454.452,-91.907,266.031,-96.780,-55.600,-13.060
803,48497.446000,232.415,75.294,61.440,453.524,-90.165,262.088,-317.780,-83.600,85.940
804,48497.471000,246.173,82.322,82.944,453.321,-104.862,259.786,-502.780,-5.600,100.940
805,48497.505000,281.551,92.361,92.160,455.146,-109.476,256.706,-705.780,41.400,186.940
806,48497.545000,237.328,54.212,120.832,454.807,-133.452,248.238,-773.780,-102.600,280.940
807,48497.601000,202.933,59.231,122.880,454.596,-148.247,240.961,-744.780,-159.600,232.940
808,48497.623000,196.054,34.133,113.664,452.641,-152.073,233.914,-696.780,-265.600,134.940
809,48497.664000,204.898,18.071,105.472,457.251,-159.593,220.830,-516.780,-287.600,76.940
810,48497.684000,244.207,21.082,84.992,458.128,-164.239,216.754,54.220,-208.600,27.940
811,48497.724000,247.155,36.141,77.824,462.953,-156.926,212.939,179.220,-208.600,-11.060
812,48497.764000,265.827,53.208,60.416,461.941,-161.558,210.849,222.220,-162.600,-23.060
813,48497.803000,272.706,53.208,53.248,462.898,-160.649,209.875,265.220,-71.600,-9.060
814,48497.844000,254.035,52.204,49.152,466.854,-148.592,215.111,343.220,35.400,13.940
815,48497.889000,226.518,47.184,52.224,465.851,-153.126,217.997,389.220,85.400,103.940
816,48497.924000,225.536,43.169,54.272,463.114,-146.575,227.084,378.220,172.400,131.940
817,48497.941000,222.587,44.173,62.464,458.296,-153.811,234.880,428.220,228.400,164.940
818,48497.986000,209.812,17.067,77.824,458.286,-155.467,243.796,559.220,175.400,232.940
819,48498.30000,212.760,18.071,67.584,454.625,-147.135,250.931,588.220,273.400,225.940
820,48498.80000,206.864,46.180,93.184,450.006,-140.492,265.985,774.220,338.400,206.940
821,48498.104000,265.827,71.278,79.872,441.541,-138.460,281.930,842.220,328.400,191.940
822,48498.145000,233.397,98.384,100.352,436.051,-125.553,290.154,693.220,278.400,109.940
823,48498.173000,241.259,126.494,123.904,431.376,-122.653,301.149,488.220,303.400,2.940
824,48498.205000,206.864,99.388,135.168,428.573,-120.721,308.149,257.220,263.400,32.940
825,48498.246000,207.846,85.333,120.832,426.730,-117.861,315.169,256.220,161.400,77.940
826,48498.289000,206.864,76.298,101.376,424.826,-118.783,316.142,188.220,65.400,133.940
827,48498.324000,214.726,67.263,103.424,423.962,-113.221,320.237,102.220,47.400,130.940
828,48498.365000,203.916,65.255,101.376,425.825,-115.846,325.157,236.220,65.400,151.940
829,48498.406000,209.812,68.267,107.520,422.077,-113.148,325.209,187.220,127.400,195.940
830,48498.426000,210.795,64.251,104.448,413.585,-112.208,332.179,240.220,130.400,211.940
831,48498.466000,214.726,64.251,111.616,414.489,-115.762,337.078,301.220,159.400,204.940
832,48498.503000,205.881,62.243,114.688,406.972,-112.159,339.133,342.220,151.400,190.940
833,48498.543000,207.846,65.255,115.712,406.075,-109.286,346.155,406.220,210.400,182.940
834,48498.588000,216.691,71.278,98.304,404.266,-103.717,351.244,471.220,208.400,174.940
835,48498.623000,218.656,62.243,95.232,399.555,-102.766,356.231,401.220,260.400,242.940
836,48498.651000,224.553,40.157,110.592,389.966,-112.831,362.965,121.220,261.400,323.940
837,48498.683000,257.965,61.239,120.832,384.325,-110.938,369.959,258.220,356.400,308.940
838,48498.728000,246.173,53.208,92.160,374.012,-104.565,375.053,431.220,179.400,240.940
839,48498.766000,245.190,66.259,74.752,376.870,-103.533,379.057,213.220,27.400,78.940
840,48498.806000,249.121,67.263,66.560,376.929,-98.991,377.165,133.220,-74.600,13.940
841,48498.846000,251.086,64.251,69.632,374.963,-104.493,378.039,76.220,-68.600,-26.060
842,48498.866000,240.276,51.200,98.304,381.618,-101.736,374.129,-35.780,-136.600,3.940
843,48498.906000,228.484,32.125,81.920,384.380,-107.214,373.022,32.220,-192.600,58.940
844,48498.949000,256.000,34.133,71.680,384.413,-104.525,370.096,149.220,-60.600,21.940
845,48498.985000,245.190,60.235,107.520,386.363,-100.737,375.152,261.220,-56.600,-9.060
846,48499.23000,233.397,53.208,102.400,387.410,-93.396,375.310,400.220,-57.600,-74.060
847,48499.88000,165.589,59.231,84.992,390.447,-78.720,374.632,513.220,-229.600,-38.060
848,48499.111000,173.451,80.314,77.824,392.356,-76.960,369.699,398.220,-209.600,-71.060
849,48499.144000,208.829,91.357,86.016,395.256,-72.361,368.807,134.220,-162.600,-45.060
850,48499.194000,233.397,90.353,74.752,396.105,-78.879,362.702,-420.780,-223.600,-7.060
851,48499.211000,263.862,70.275,83.968,403.660,-79.734,360.705,-630.780,-189.600,-27.060
852,48499.245000,248.138,46.180,81.920,402.398,-101.909,351.280,-783.780,-219.600,-38.060
853,48499.285000,234.380,41.161,69.632,406.120,-105.680,343.248,-762.780,-143.600,-95.060
854,48499.323000,230.449,44.173,70.656,409.669,-122.257,335.938,-644.780,-100.600,-156.060
855,48499.349000,245.190,66.259,70.656,409.689,-120.483,332.992,-597.780,-116.600,-185.060
856,48499.383000,228.484,64.251,70.656,411.589,-119.601,330.030,-534.780,-45.600,-211.060
857,48499.423000,216.691,71.278,78.848,413.279,-133.493,320.785,-731.780,-56.600,-222.060
858,48499.463000,196.054,71.278,83.968,414.195,-135.372,317.762,-727.780,-5.600,-182.060
859,48499.503000,175.417,58.227,80.896,415.960,-143.768,308.634,-809.780,-121.600,-200.060
860,48499.548000,208.829,54.212,75.776,415.847,-151.253,300.518,-837.780,-119.600,-186.060
861,48499.585000,226.518,-19.075,111.616,413.777,-163.363,291.305,-890.780,-118.600,88.940
862,48499.606000,259.931,-10.039,153.600,410.760,-175.486,282.091,-548.780,9.400,162.940
863,48499.646000,238.311,7.027,138.240,411.541,-187.422,279.849,-150.780,-130.600,120.940
864,48499.686000,225.536,49.192,113.664,416.322,-183.695,279.935,-162.780,-39.600,-30.060
865,48499.726000,209.812,30.118,113.664,414.414,-184.675,277.922,-373.780,-6.600,-109.060
866,48499.766000,214.726,20.078,123.904,414.313,-191.245,269.825,-557.780,-12.600,-150.060
867,48499.806000,230.449,26.102,113.664,415.264,-190.413,264.871,-499.780,-62.600,-150.060
868,48499.826000,225.536,13.051,106.496,419.924,-195.029,259.807,-470.780,-23.600,-122.060
869,48499.874000,220.622,19.075,112.640,417.065,-196.080,254.807,-408.780,-53.600,-152.060
870,48499.906000,216.691,16.063,114.688,423.630,-199.755,249.765,-369.780,-77.600,-163.060
871,48499.946000,211.777,26.102,108.544,423.619,-199.892,242.800,-282.780,-77.600,-199.060
872,48499.989000,207.846,18.071,111.616,426.437,-200.868,237.810,-309.780,-87.600,-180.060
873,48500.28000,222.587,21.082,106.496,426.496,-196.326,235.917,-272.780,-53.600,-195.060
874,48500.46000,229.466,20.078,103.424,429.267,-200.928,232.840,-287.780,147.400,-288.060
875,48500.85000,243.225,19.075,98.304,434.147,-189.891,232.087,-194.780,48.400,-275.060
876,48500.126000,263.862,40.157,77.824,436.153,-181.621,232.266,-102.780,21.400,-420.060
877,48500.164000,264.845,52.204,87.040,438.095,-177.932,232.347,-185.780,94.400,-499.060
878,48500.205000,263.862,50.196,86.016,442.034,-166.849,234.578,46.220,80.400,-416.060
879,48500.246000,237.328,40.157,78.848,446.903,-156.709,234.801,93.220,39.400,-292.060
880,48500.288000,237.328,24.094,80.896,442.216,-153.166,231.886,46.220,37.400,-80.060
881,48500.308000,226.518,32.125,78.848,446.976,-151.232,233.924,170.220,-18.600,52.940
882,48500.348000,229.466,45.176,72.704,446.008,-153.037,235.873,301.220,-83.600,80.940
883,48500.388000,244.207,64.251,70.656,448.911,-148.400,236.971,304.220,-93.600,55.940
884,48500.433000,242.242,71.278,72.704,449.881,-146.575,236.016,109.220,-120.600,50.940
885,48500.469000,230.449,69.271,77.824,451.634,-155.886,226.869,-128.780,-152.600,119.940
886,48500.509000,229.466,47.184,75.776,447.773,-161.433,226.745,-365.780,-177.600,159.940
887,48500.529000,269.758,49.192,82.944,446.733,-167.937,222.627,-333.780,-88.600,181.940
888,48500.569000,228.484,36.141,111.616,449.538,-169.829,217.617,-304.780,-43.600,136.940
889,48500.631000,199.985,19.075,122.880,446.574,-179.028,217.417,-88.780,-26.600,148.940
890,48500.648000,221.605,37.145,125.952,444.660,-180.846,219.365,-63.780,12.400,68.940
891,48500.688000,214.726,38.149,115.712,443.698,-181.814,217.354,75.220,-44.600,63.940
892,48500.729000,242.242,45.176,113.664,445.572,-183.543,221.298,228.220,-18.600,89.940
893,48500.749000,247.155,44.173,97.280,447.546,-177.183,217.458,208.220,-80.600,113.940
894,48500.788000,250.104,45.176,80.896,448.408,-183.545,219.313,205.220,-99.600,123.940
895,48500.828000,255.017,41.161,67.584,447.544,-177.203,216.463,256.220,-109.600,99.940
896,48500.866000,244.207,37.145,58.368,452.259,-178.875,221.407,310.220,-114.600,102.940
897,48500.908000,240.276,34.133,56.320,450.384,-177.925,224.409,324.220,-53.600,138.940
898,48500.954000,247.155,23.090,49.152,447.548,-177.924,226.394,334.220,-30.600,141.940
899,48500.988000,249.121,21.082,53.248,448.517,-176.878,232.385,336.220,37.400,134.940
900,48501.8000,226.518,1.004,74.752,446.622,-177.702,238.333,379.220,183.400,146.940
901,48501.48000,214.726,8.031,72.704,443.782,-178.519,245.274,651.220,202.400,125.940
902,48501.88000,200.967,9.035,83.968,441.096,-168.303,254.439,752.220,207.400,140.940
903,48501.129000,196.054,28.110,99.328,434.498,-168.079,270.348,1104.220,248.400,131.940
904,48501.173000,244.207,80.314,77.824,434.742,-151.374,281.645,906.220,101.400,153.940
905,48501.208000,243.225,102.400,94.208,433.870,-147.429,296.647,675.220,126.400,65.940
906,48501.228000,243.225,111.435,122.880,432.060,-141.099,293.795,497.220,118.400,14.940
907,48501.269000,218.656,85.333,145.408,426.492,-133.728,299.912,286.220,156.400,29.940
908,48501.314000,195.071,61.239,132.096,427.452,-133.560,307.874,56.220,50.400,72.940
909,48501.353000,197.036,53.208,110.592,426.471,-135.522,301.863,32.220,-157.600,85.940
910,48501.385000,203.916,55.216,93.184,432.168,-133.673,298.927,73.220,-238.600,30.940
911,48501.434000,208.829,61.239,77.824,436.918,-131.856,294.994,155.220,-214.600,-52.060
912,48501.469000,232.415,69.271,84.992,435.063,-129.133,295.049,348.220,-98.600,-58.060
913,48501.496000,234.380,64.251,86.016,436.003,-129.198,291.071,75.220,-28.600,7.940
914,48501.525000,224.553,61.239,93.184,437.886,-130.050,293.044,110.220,-12.600,48.940
915,48501.566000,226.518,61.239,97.280,435.074,-128.236,294.074,99.220,-11.600,101.940
916,48501.620000,203.916,62.243,87.040,435.183,-120.030,292.259,190.220,14.400,111.940
917,48501.648000,199.985,58.227,93.184,433.262,-122.706,297.172,189.220,78.400,104.940
918,48501.688000,193.106,59.231,64.512,434.252,-119.867,301.213,184.220,72.400,116.940
919,48501.708000,236.345,58.227,81.920,424.744,-123.598,304.103,149.220,290.400,187.940
920,48501.748000,282.534,32.125,84.992,422.745,-131.790,307.905,-2.780,264.400,317.940
921,48501.786000,292.361,46.180,92.160,417.090,-130.832,313.884,53.220,384.400,218.940
922,48501.828000,311.033,64.251,83.968,414.225,-133.481,320.786,19.220,112.400,149.940
923,48501.868000,271.724,59.231,34.816,413.127,-144.507,319.555,91.220,-9.600,0.940
924,48501.906000,225.536,63.247,45.056,411.390,-133.479,322.771,175.220,40.400,-67.060
925,48501.929000,211.777,38.149,66.560,414.191,-136.190,322.718,67.220,-1.600,-14.060
926,48501.976000,240.276,23.090,72.704,410.476,-130.802,319.843,-141.780,-73.600,49.940
927,48502.10000,276.637,39.153,77.824,414.254,-131.610,322.815,12.220,10.400,-32.060
928,48502.45000,277.620,40.157,80.896,412.413,-127.951,323.885,223.220,5.400,-151.060
929,48502.89000,256.000,50.196,96.256,416.289,-121.449,326.019,283.220,18.400,-295.060
930,48502.130000,252.069,59.231,89.088,421.189,-109.398,330.261,348.220,-55.600,-294.060
931,48502.165000,206.864,63.247,77.824,417.471,-104.049,325.396,392.220,-169.600,-185.060
932,48502.189000,175.417,71.278,75.776,420.432,-94.889,323.606,227.220,-212.600,-139.060
933,48502.226000,205.881,93.365,82.944,428.063,-90.228,322.722,49.220,-158.600,-107.060
934,48502.268000,216.691,94.369,84.992,426.126,-93.080,318.680,-207.780,-65.600,-48.060
935,48502.305000,238.311,83.325,80.896,427.987,-94.965,314.664,-416.780,-88.600,-18.060
936,48502.345000,247.155,62.243,97.280,427.785,-109.643,313.357,-540.780,-99.600,-15.060
937,48502.385000,230.449,49.192,79.872,429.618,-113.399,307.312,-486.780,-153.600,15.940
938,48502.405000,229.466,56.220,78.848,431.415,-119.885,302.203,-461.780,-114.600,-8.060
939,48502.451000,221.605,73.286,75.776,428.591,-118.207,296.267,-250.780,-91.600,-67.060
940,48502.491000,234.380,80.314,69.632,431.319,-126.395,297.091,-264.780,-65.600,-119.060
941,48502.531000,230.449,85.333,76.800,434.214,-121.855,293.213,-291.780,-18.600,-140.060
942,48502.571000,206.864,89.349,77.824,430.359,-126.564,289.129,-495.780,-69.600,-95.060
943,48502.613000,185.244,65.255,73.728,429.295,-134.880,285.967,-709.780,-136.600,-27.060
944,48502.626000,178.365,38.149,75.776,431.936,-147.942,271.767,-949.780,-133.600,-0.060
945,48502.671000,286.464,8.031,118.784,433.590,-164.563,263.459,-929.780,57.400,52.940
946,48502.711000,260.914,-56.220,117.760,427.792,-172.981,258.298,-627.780,-23.600,193.940
947,48502.753000,274.672,-1.004,146.432,429.584,-180.285,258.145,-139.780,117.400,33.940
948,48502.795000,239.294,15.059,111.616,427.723,-178.400,262.161,57.220,-44.600,-34.060
949,48502.829000,230.449,36.141,91.136,427.817,-171.149,258.337,170.220,-111.600,-135.060
950,48502.869000,223.570,43.169,78.848,433.577,-164.719,255.499,40.220,-191.600,-202.060
951,48502.889000,218.656,39.153,77.824,437.346,-165.625,253.496,-57.780,-195.600,-187.060
952,48502.928000,230.449,40.157,70.656,436.392,-165.735,248.519,26.220,-147.600,-171.060
953,48502.969000,227.501,48.188,63.488,444.944,-162.893,247.597,-61.780,-84.600,-167.060
954,48503.9000,246.173,45.176,73.728,446.854,-161.134,242.664,-162.780,-8.600,-179.060
955,48503.51000,232.415,49.192,78.848,446.031,-152.004,241.863,-325.780,-24.600,-213.060
956,48503.91000,233.397,44.173,82.944,450.665,-158.472,235.764,-420.780,-4.600,-241.060
957,48503.111000,216.691,41.161,91.136,447.910,-152.135,233.906,-447.780,9.400,-238.060
958,48503.164000,205.881,44.173,98.304,447.932,-150.342,231.955,-433.780,51.400,-276.060
959,48503.211000,181.313,26.102,106.496,449.819,-150.376,228.973,-379.780,56.400,-229.060
960,48503.230000,172.468,32.125,113.664,450.806,-147.576,231.023,-296.780,120.400,-194.060
961,48503.269000,226.518,48.188,112.640,449.840,-149.362,233.968,-191.780,281.400,-219.060
962,48503.309000,374.910,87.341,97.280,449.055,-138.244,241.165,-119.780,365.400,-325.060
963,48503.361000,276.637,102.400,111.616,446.152,-142.882,240.068,-178.780,234.400,-535.060
964,48503.379000,251.086,81.318,102.400,450.194,-124.431,244.445,-179.780,112.400,-385.060
965,48503.406000,235.363,42.165,77.824,452.071,-125.361,242.439,-289.780,-123.600,115.940
966,48503.446000,210.795,19.075,51.200,451.947,-133.743,235.298,-147.780,-355.600,359.940
967,48503.489000,215.708,35.137,50.176,455.555,-145.779,226.095,54.220,-367.600,340.940
968,48503.536000,219.639,57.224,55.296,454.582,-147.643,225.059,254.220,-273.600,184.940
969,48503.571000,233.397,62.243,75.776,452.713,-145.076,217.154,82.220,-298.600,114.940
970,48503.591000,215.708,60.235,101.376,458.345,-147.847,212.130,-29.780,-244.600,122.940
971,48503.631000,198.019,65.255,88.064,457.323,-152.596,204.071,-134.780,-322.600,78.940
972,48503.670000,234.380,42.165,101.376,463.921,-153.581,196.102,-217.780,-358.600,187.940
973,48503.716000,256.000,47.184,120.832,461.966,-158.186,196.001,-163.780,15.400,35.940
974,48503.760000,261.896,28.110,102.400,463.846,-159.077,195.985,27.220,-59.600,38.940
975,48503.788000,266.810,50.196,74.752,464.804,-158.168,195.011,89.220,-16.600,-28.060
976,48503.811000,266.810,53.208,57.344,467.594,-161.776,195.933,114.220,-66.600,-52.060
977,48503.853000,256.983,48.188,53.248,469.544,-157.229,193.049,147.220,-83.600,-0.060
978,48503.893000,253.052,34.133,41.984,467.696,-154.427,197.085,319.220,-29.600,88.940
979,48503.928000,231.432,25.098,46.080,467.702,-154.349,201.065,444.220,30.400,129.940
980,48503.968000,236.345,26.102,49.152,465.884,-149.657,208.124,608.220,142.400,153.940
981,48504.8000,199.002,11.043,76.800,465.940,-146.694,219.129,710.220,248.400,219.940
982,48504.48000,189.175,13.051,58.368,461.233,-146.464,234.046,976.220,245.400,309.940
983,48504.68000,173.451,19.075,50.176,455.650,-140.808,246.094,1168.220,121.400,379.940
984,48504.111000,290.395,67.263,60.416,450.039,-137.023,256.112,1322.220,261.400,285.940
985,48504.159000,242.242,143.561,81.920,449.273,-125.690,274.256,1200.220,500.400,47.940
986,48504.188000,252.069,113.443,148.480,440.056,-109.851,294.472,681.220,555.400,44.940
987,48504.231000,238.311,74.290,138.240,431.515,-112.556,302.359,358.220,210.400,262.940
988,48504.268000,201.950,58.227,99.328,434.410,-108.776,306.422,407.220,-16.600,297.940
989,48504.294000,200.967,54.212,84.992,431.659,-102.400,306.554,622.220,90.400,138.940
990,48504.340000,198.019,55.216,75.776,428.921,-95.869,314.646,764.220,137.400,137.940
991,48504.374000,204.898,61.239,81.920,429.020,-89.319,321.748,734.220,209.400,81.940
992,48504.409000,215.708,80.314,71.680,425.425,-76.368,330.970,767.220,215.400,77.940
993,48504.463000,221.605,83.325,80.896,420.727,-74.500,335.976,631.220,216.400,63.940
994,48504.493000,221.605,84.329,80.896,418.958,-66.143,343.114,507.220,169.400,75.940
995,48504.530000,232.415,88.345,84.992,418.178,-54.207,345.356,474.220,143.400,108.940
996,48504.550000,212.760,76.298,82.944,414.354,-57.785,352.237,467.220,231.400,137.940
997,48504.590000,192.123,68.267,80.896,410.688,-49.512,356.386,333.220,138.400,188.940
998,48504.638000,223.570,72.282,80.896,406.936,-47.632,361.393,354.220,274.400,215.940
999,48504.671000,236.345,70.275,80.896,401.295,-45.738,368.388,269.220,269.400,206.940
1000,48504.710000,308.084,91.357,67.584,395.670,-42.110,370.446,191.220,268.400,124.940
1001,48504.751000,281.551,64.251,65.536,395.652,-43.864,374.387,132.220,64.400,173.940
1002,48504.771000,270.741,81.318,67.584,392.722,-50.353,372.256,-226.780,-120.600,-61.060
1003,48504.811000,221.605,92.361,66.560,401.272,-47.551,369.344,-193.780,-227.600,-159.060
1004,48504.853000,230.449,66.259,56.320,403.967,-56.889,358.208,-320.780,-344.600,-175.060
1005,48504.888000,262.879,46.180,62.464,414.332,-59.578,354.188,-263.780,-384.600,-176.060
1006,48504.930000,260.914,49.192,68.608,420.138,-49.543,348.442,-136.780,-413.600,-151.060
1007,48504.970000,250.104,56.220,64.512,428.547,-56.078,336.380,36.220,-392.600,-174.060
1008,48504.998000,235.363,65.255,73.728,433.383,-47.867,331.588,191.220,-328.600,-210.060
1009,48505.34000,208.829,53.208,51.200,440.144,-36.942,323.874,312.220,-360.600,-156.060
1010,48505.70000,190.157,73.286,53.248,442.149,-28.672,324.053,376.220,-233.600,-154.060
1011,48505.114000,194.088,99.388,65.536,444.138,-21.357,322.222,406.220,-155.600,-124.060
1012,48505.149000,228.484,111.435,60.416,445.187,-13.217,316.429,169.220,-120.600,-128.060
1013,48505.198000,245.190,114.447,68.608,447.053,-15.043,315.398,55.220,-91.600,-138.060
1014,48505.233000,241.259,111.435,68.608,450.936,-7.684,314.566,-111.780,-147.600,-130.060
1015,48505.253000,223.570,107.420,57.344,452.805,-8.712,307.585,-241.780,-223.600,-52.060
1016,48505.293000,209.812,100.392,51.200,453.652,-15.249,300.484,-339.780,-256.600,0.940
1017,48505.344000,214.726,103.404,50.176,459.248,-20.748,296.397,-423.780,-255.600,27.940
1018,48505.374000,222.587,110.431,52.224,459.076,-32.775,290.173,-470.780,-220.600,28.940
1019,48505.409000,224.553,106.416,51.200,459.987,-34.712,284.165,-492.780,-206.600,16.940
1020,48505.449000,220.622,106.416,52.224,462.769,-38.417,280.112,-538.780,-182.600,4.940
1021,48505.469000,227.501,102.400,47.104,465.487,-46.723,274.966,-570.780,-179.600,30.940
1022,48505.511000,230.449,94.369,36.864,467.182,-60.557,268.706,-599.780,-153.600,34.940
1023,48505.553000,234.380,96.376,48.128,471.843,-65.172,263.642,-552.780,-59.600,71.940
1024,48505.593000,240.276,82.322,43.008,462.136,-82.782,259.274,-610.780,-68.600,125.940
1025,48505.633000,249.121,70.275,41.984,463.893,-92.815,260.058,-660.780,-21.600,131.940
1026,48505.673000,246.173,66.259,38.912,465.679,-100.197,255.925,-617.780,23.400,167.940
1027,48505.711000,233.397,55.216,46.080,463.633,-111.255,253.697,-627.780,40.400,173.940
1028,48505.743000,224.553,42.165,60.416,459.737,-118.751,247.564,-648.780,91.400,133.940
1029,48505.775000,236.345,35.137,67.584,457.637,-134.292,250.214,-587.780,143.400,151.940
1030,48505.809000,245.190,29.114,71.680,455.660,-140.690,252.064,-552.780,143.400,150.940
1031,48505.851000,256.000,17.067,68.608,451.834,-143.528,250.009,-452.780,166.400,139.940
1032,48505.891000,249.121,14.055,69.632,447.883,-155.527,247.758,-391.780,91.400,143.940
1033,48505.935000,243.225,9.035,68.608,444.930,-163.829,246.583,-310.780,54.400,116.940
1034,48505.949000,242.242,14.055,65.536,449.644,-164.741,243.586,-307.780,2.400,59.940
1035,48505.989000,238.311,11.043,69.632,441.944,-174.061,240.393,-266.780,-0.600,11.940
1036,48506.29000,242.242,9.035,71.680,443.817,-175.030,236.396,-184.780,-52.600,18.940
1037,48506.69000,252.069,11.043,70.656,445.746,-172.276,235.463,-206.780,-75.600,5.940
1038,48506.109000,246.173,10.039,62.464,447.478,-183.362,229.262,-139.780,-133.600,12.940
1039,48506.153000,244.207,12.047,58.368,445.684,-176.077,228.420,-25.780,-175.600,10.940
1040,48506.174000,247.155,11.043,53.248,450.395,-177.029,223.433,21.220,-201.600,18.940
1041,48506.214000,243.225,16.063,49.152,449.463,-175.326,217.500,93.220,-236.600,38.940
1042,48506.254000,256.000,18.071,43.008,452.311,-174.411,215.535,127.220,-197.600,27.940
1043,48506.301000,255.017,31.122,51.200,457.065,-172.556,213.592,140.220,-160.600,21.940
1044,48506.335000,251.086,31.122,48.128,456.034,-178.942,215.444,127.220,-52.600,-28.060
1045,48506.376000,247.155,33.129,55.296,460.764,-178.899,214.457,-67.780,17.400,-117.060
1046,48506.410000,234.380,43.169,50.176,456.067,-176.252,212.517,13.220,88.400,-151.060
1047,48506.430000,238.311,40.157,56.320,459.016,-168.768,218.649,12.220,124.400,-143.060
1048,48506.470000,245.190,54.212,64.512,459.103,-162.356,218.785,0.220,116.400,-130.060
1049,48506.510000,245.190,34.133,62.464,455.285,-165.095,221.705,53.220,48.400,-1.060
