Sample, Time, ACCX, ACCY, ACCZ, MAGX, MAGY, MAGZ, GYRX, GYRY, GYRZ
0,48798.165000,228.484,57.224,93.184,446.138,-145.357,253.940,-214.780,324.400,35.940
1,48798.183000,225.536,52.204,94.208,439.444,-150.883,256.796,-192.780,286.400,12.940
2,48798.220000,224.553,55.216,100.352,443.156,-156.310,257.681,-188.780,253.400,12.940
3,48798.260000,222.587,54.212,98.304,433.687,-157.273,261.625,-205.780,232.400,6.940
4,48798.301000,219.639,55.216,106.496,433.694,-157.195,265.605,-247.780,181.400,-12.060
5,48798.342000,218.656,51.200,113.664,434.652,-156.267,265.627,-251.780,130.400,2.940
6,48798.380000,219.639,43.169,116.736,429.863,-160.851,268.506,-265.780,113.400,21.940
7,48798.406000,215.708,42.165,116.736,428.862,-164.587,265.441,-236.780,93.400,32.940
8,48798.440000,218.656,39.153,114.688,427.796,-173.702,268.229,-190.780,86.400,35.940
9,48798.480000,232.415,37.145,110.592,423.979,-175.662,264.203,-167.780,112.400,38.940
10,48798.530000,230.449,42.165,109.568,421.187,-172.834,270.227,-123.780,163.400,17.940
11,48798.560000,224.553,33.129,107.520,418.338,-173.768,271.198,-187.780,185.400,21.940
12,48798.604000,214.726,19.075,109.568,415.311,-187.548,270.900,-222.780,211.400,14.940
13,48798.645000,211.777,18.071,113.664,416.375,-179.232,274.062,-164.780,199.400,33.940
14,48798.665000,212.760,8.031,125.952,411.522,-188.417,275.849,-227.780,211.400,43.940
15,48798.707000,220.622,-1.004,140.288,410.463,-196.674,275.672,-142.780,172.400,41.940
16,48798.747000,224.553,4.016,147.456,404.884,-190.200,282.764,-52.780,132.400,-1.060
17,48798.782000,217.674,8.031,146.432,403.925,-191.128,282.743,10.220,100.400,-38.060
18,48798.823000,206.864,8.031,142.336,403.905,-192.902,285.689,79.220,23.400,-67.060
19,48798.868000,204.898,11.043,140.288,406.930,-179.142,284.991,144.220,-96.600,-58.060
20,48798.883000,211.777,18.071,135.168,408.757,-183.737,282.907,185.220,-133.600,-38.060
21,48798.926000,221.605,28.110,123.904,412.655,-175.442,283.089,231.220,-178.600,-23.060
22,48798.965000,216.691,32.125,124.928,416.474,-172.682,281.164,209.220,-197.600,-18.060
23,48799.6000,216.691,40.157,116.736,418.437,-167.219,278.300,229.220,-211.600,-41.060
24,48799.45000,210.795,47.184,110.592,418.433,-167.258,276.310,168.220,-224.600,-41.060
25,48799.91000,214.726,47.184,108.544,424.180,-161.764,272.456,98.220,-205.600,-46.060
26,48799.121000,223.570,50.196,104.448,425.991,-167.314,268.362,56.220,-170.600,-42.060
27,48799.148000,227.501,48.188,102.400,428.883,-163.573,270.436,-6.780,-64.600,-53.060
28,48799.186000,240.276,54.212,100.352,430.792,-161.813,265.503,-16.780,10.400,-87.060
29,48799.226000,231.432,52.204,106.496,428.869,-164.509,269.421,-40.780,129.400,-112.060
30,48799.262000,223.570,57.224,110.592,428.913,-161.682,273.460,-39.780,187.400,-141.060
31,48799.303000,219.639,56.220,110.592,426.206,-152.480,277.630,8.220,238.400,-130.060
32,48799.341000,207.846,53.208,110.592,424.384,-147.827,282.700,41.220,208.400,-80.060
33,48799.361000,203.916,58.227,121.856,423.460,-146.806,288.688,83.220,195.400,-46.060
34,48799.405000,204.898,61.239,118.784,425.345,-147.639,291.657,86.220,147.400,-14.060
35,48799.446000,211.777,59.231,128.000,420.604,-148.579,293.619,59.220,132.400,22.940
36,48799.488000,207.846,62.243,135.168,420.675,-143.900,298.692,66.220,137.400,39.940
37,48799.527000,212.760,63.247,136.192,416.758,-153.969,301.456,38.220,134.400,28.940
38,48799.598000,209.812,60.235,134.144,417.784,-148.401,304.560,44.220,114.400,14.940
39,48799.607000,203.916,56.220,131.072,416.955,-140.110,307.719,63.220,75.400,19.940
40,48799.624000,202.933,59.231,133.120,420.699,-142.848,305.677,57.220,34.400,26.940
41,48799.677000,207.846,57.224,133.120,414.105,-141.044,308.690,63.220,15.400,22.940
42,48799.701000,210.795,61.239,134.144,415.948,-144.684,308.615,72.220,8.400,20.940
43,48799.750000,207.846,61.239,131.072,414.074,-143.715,312.611,57.220,-10.600,23.940
44,48799.785000,207.846,60.235,135.168,418.754,-147.336,311.546,32.220,-29.600,21.940
45,48799.826000,208.829,61.239,130.048,419.797,-140.034,309.714,20.220,-50.600,12.940
46,48799.846000,203.916,60.235,131.072,418.798,-143.750,307.644,-7.780,-73.600,12.940
47,48799.881000,204.898,61.239,128.000,419.816,-138.279,305.773,11.220,-93.600,3.940
48,48799.926000,206.864,59.231,126.976,424.477,-143.655,308.649,14.220,-81.600,5.940
49,48799.967000,211.777,60.235,131.072,420.680,-143.842,301.677,1.220,-89.600,16.940
50,48800.1000,211.777,61.239,130.048,420.768,-137.429,301.814,35.220,-68.600,18.940
51,48800.47000,209.812,58.227,122.880,420.674,-143.920,297.697,57.220,-80.600,25.940
52,48800.66000,209.812,55.216,121.856,421.612,-144.765,300.664,58.220,-95.600,40.940
53,48800.107000,217.674,58.227,121.856,426.442,-137.393,299.834,99.220,-86.600,45.940
54,48800.145000,216.691,56.220,118.784,426.426,-138.348,297.824,68.220,-71.600,48.940
55,48800.195000,217.674,57.224,118.784,424.495,-141.141,296.767,91.220,-72.600,39.940
56,48800.222000,222.587,55.216,119.808,424.518,-139.328,295.811,85.220,-52.600,34.940
57,48800.264000,217.674,54.212,116.736,426.371,-142.071,294.761,65.220,-33.600,38.940
58,48800.282000,215.708,49.192,115.712,428.314,-138.382,294.842,78.220,-17.600,29.940
59,48800.325000,216.691,51.200,115.712,423.558,-140.276,294.795,108.220,-15.600,17.940
60,48800.365000,214.726,54.212,114.688,426.384,-141.155,294.780,124.220,-13.600,2.940
61,48800.402000,214.726,56.220,114.688,427.435,-133.755,297.923,131.220,-8.600,-16.060
62,48800.442000,217.674,55.216,117.760,427.385,-137.419,297.845,88.220,-21.600,-15.060
63,48800.482000,211.777,58.227,117.760,427.499,-129.155,299.016,74.220,-67.600,-7.060
64,48800.522000,216.691,60.235,117.760,426.448,-136.555,295.873,55.220,-88.600,-2.060
65,48800.547000,219.639,61.239,119.808,433.160,-130.054,296.021,22.220,-127.600,16.940
66,48800.587000,216.691,50.196,119.808,430.257,-134.692,294.924,100.220,-121.600,80.940
67,48800.625000,223.570,50.196,106.496,435.017,-131.979,290.015,121.220,-156.600,72.940
68,48800.663000,210.795,54.212,112.640,433.072,-135.707,287.944,127.220,-124.600,118.940
69,48800.705000,218.656,60.235,108.544,441.658,-130.156,285.091,118.220,-182.600,112.940
70,48800.761000,222.587,59.231,105.472,438.829,-129.317,283.115,117.220,-201.600,104.940
71,48800.768000,221.605,58.227,104.448,442.504,-136.713,276.995,64.220,-217.600,63.940
72,48800.802000,222.587,57.224,103.424,441.593,-133.997,276.057,86.220,-204.600,34.940
73,48800.842000,224.553,53.208,96.256,447.266,-133.980,273.082,71.220,-219.600,1.940
74,48800.887000,227.501,54.212,99.328,450.145,-130.395,267.195,94.220,-182.600,-20.060
75,48800.926000,225.536,60.235,98.304,447.342,-127.704,266.253,168.220,-152.600,-1.060
76,48800.967000,230.449,59.231,90.112,450.228,-124.041,264.346,92.220,-131.600,-24.060
77,48801.2000,225.536,62.243,95.232,449.178,-131.421,262.198,96.220,-119.600,-10.060
78,48801.22000,225.536,62.243,93.184,454.005,-124.088,259.378,66.220,-119.600,-8.060
79,48801.67000,223.570,61.239,87.040,453.971,-126.018,254.363,9.220,-151.600,-21.060
80,48801.107000,226.518,62.243,84.992,456.818,-125.123,251.403,-16.780,-156.600,-29.060
81,48801.147000,231.432,60.235,82.944,459.691,-122.376,249.476,-15.780,-155.600,-34.060
82,48801.182000,232.415,60.235,84.992,462.435,-128.830,245.364,-49.780,-143.600,-33.060
83,48801.230000,234.380,62.243,83.968,461.611,-119.720,243.568,-46.780,-137.600,-48.060
84,48801.243000,232.415,58.227,78.848,466.284,-123.420,238.523,-6.780,-128.600,-36.060
85,48801.282000,227.501,60.235,75.776,464.385,-123.523,234.539,-13.780,-132.600,-45.060
86,48801.325000,230.449,60.235,75.776,466.276,-123.517,233.547,-21.780,-140.600,-44.060
87,48801.365000,233.397,58.227,75.776,471.104,-116.165,231.722,38.220,-108.600,-45.060
88,48801.408000,230.449,62.243,77.824,471.967,-121.747,226.631,34.220,-103.600,-54.060
89,48801.448000,231.432,66.259,73.728,475.866,-113.432,227.808,30.220,-97.600,-76.060
90,48801.467000,234.380,68.267,70.656,474.882,-116.193,227.748,8.220,-74.600,-75.060
91,48801.513000,237.328,66.259,72.704,477.646,-121.652,227.636,-72.780,-58.600,-78.060
92,48801.548000,236.345,66.259,74.752,474.020,-109.831,225.893,-126.780,-51.600,-62.060
93,48801.587000,234.380,65.255,74.752,479.671,-110.848,216.928,-114.780,-61.600,-42.060
94,48801.627000,234.380,66.259,72.704,475.905,-109.904,220.921,-129.780,-37.600,-50.060
95,48801.667000,230.449,63.247,73.728,477.741,-113.621,216.866,-110.780,-35.600,-35.060
96,48801.726000,234.380,61.239,73.728,482.421,-117.243,215.801,-84.780,-33.600,-25.060
97,48801.732000,234.380,64.251,72.704,478.721,-110.900,214.936,-69.780,-35.600,-17.060
98,48801.767000,234.380,64.251,72.704,479.567,-118.216,214.782,-22.780,-36.600,-9.060
99,48801.810000,234.380,65.255,71.680,480.478,-120.933,215.720,21.220,-19.600,-12.060
100,48801.843000,232.415,65.255,71.680,481.485,-116.359,214.824,-11.780,-21.600,-9.060
101,48801.883000,231.432,65.255,73.728,481.483,-116.378,213.829,5.220,-25.600,5.940
102,48801.923000,234.380,65.255,70.656,482.451,-114.573,211.880,35.220,-19.600,12.940
103,48801.948000,236.345,65.255,72.704,479.664,-110.926,212.948,22.220,-15.600,27.940
104,48801.983000,233.397,64.251,70.656,481.519,-113.650,212.892,39.220,-20.600,41.940
105,48802.23000,234.380,64.251,71.680,476.808,-111.938,209.938,59.220,-15.600,46.940
106,48802.68000,234.380,62.243,71.680,476.768,-114.706,208.884,75.220,5.400,42.940
107,48802.108000,232.415,64.251,71.680,479.578,-117.320,213.806,95.220,9.400,52.940
108,48802.148000,232.415,62.243,70.656,479.577,-117.339,212.811,125.220,19.400,45.940
109,48802.168000,234.380,64.251,72.704,480.490,-120.016,215.739,120.220,35.400,31.940
110,48802.208000,233.397,61.239,70.656,473.895,-118.233,217.757,152.220,32.400,37.940
111,48802.248000,235.363,61.239,71.680,475.776,-119.104,218.736,144.220,48.400,25.940
112,48802.292000,231.432,65.255,72.704,475.919,-108.968,221.936,131.220,34.400,32.940
113,48802.325000,232.415,62.243,71.680,477.785,-110.795,220.905,159.220,18.400,52.940
114,48802.366000,230.449,64.251,71.680,473.072,-109.863,224.896,150.220,4.400,51.940
115,48802.421000,234.380,64.251,70.656,473.055,-110.838,221.891,130.220,-5.600,43.940
116,48802.428000,232.415,65.255,73.728,472.076,-113.540,224.816,105.220,10.400,37.940
117,48802.468000,234.380,64.251,74.752,475.754,-121.677,227.633,105.220,23.400,48.940
118,48802.508000,235.363,61.239,71.680,474.015,-110.669,229.854,98.220,34.400,45.940
119,48802.550000,236.345,68.267,71.680,471.106,-116.145,232.717,93.220,41.400,64.940
120,48802.590000,235.363,64.251,73.728,472.075,-114.320,231.762,55.220,18.400,78.940
121,48802.627000,231.432,60.235,71.680,469.149,-120.770,231.621,24.220,-14.600,63.940
122,48802.647000,232.415,59.231,70.656,471.063,-118.952,229.673,-0.780,-21.600,31.940
123,48802.697000,230.449,61.239,71.680,471.154,-112.500,231.800,-14.780,-22.600,8.940
124,48802.732000,235.363,63.247,69.632,475.855,-114.328,228.784,-7.780,-16.600,-12.060
125,48802.768000,238.311,63.247,70.656,464.428,-119.936,230.637,-43.780,8.400,-16.060
126,48802.807000,236.345,63.247,70.656,473.954,-115.231,230.751,-48.780,26.400,-9.060
127,48802.848000,234.380,61.239,68.608,471.106,-116.145,232.717,-45.780,36.400,2.940
128,48802.888000,232.415,62.243,74.752,468.204,-120.763,232.614,-75.780,51.400,7.940
129,48802.908000,234.380,63.247,70.656,472.030,-117.926,234.669,-45.780,35.400,32.940
130,48802.955000,232.415,63.247,73.728,470.023,-126.216,233.495,-26.780,40.400,41.940
131,48802.989000,234.380,62.243,77.824,470.114,-119.764,235.622,-15.780,49.400,46.940
132,48803.32000,233.397,59.231,77.824,464.426,-120.735,236.588,-0.780,32.400,48.940
133,48803.64000,232.415,60.235,75.776,469.091,-125.292,234.508,-45.780,15.400,46.940
134,48803.105000,230.449,53.208,79.872,464.391,-123.445,238.519,-123.780,-0.600,52.940
135,48803.125000,235.363,59.231,73.728,466.237,-126.285,232.494,-23.780,-24.600,76.940
136,48803.168000,235.363,58.227,74.752,465.234,-130.800,236.375,1.220,-14.600,80.940
137,48803.210000,235.363,55.216,74.752,465.206,-132.672,234.345,20.220,-35.600,71.940
138,48803.250000,236.345,55.216,74.752,463.333,-130.923,231.396,-18.780,-42.600,55.940
139,48803.290000,236.345,52.204,76.800,460.462,-133.650,234.318,-94.780,-28.600,44.940
140,48803.328000,238.311,49.192,80.896,463.282,-134.607,230.323,-79.780,-44.600,32.940
141,48803.347000,234.380,42.165,75.776,466.990,-140.073,229.217,-64.780,-57.600,9.940
142,48803.387000,237.328,45.176,74.752,463.232,-138.271,230.245,-70.780,-48.600,-25.060
143,48803.433000,237.328,46.180,72.704,463.258,-135.660,223.338,-93.780,-59.600,-22.060
144,48803.468000,235.363,41.161,74.752,468.875,-140.146,224.245,-129.780,-79.600,-31.060
145,48803.511000,233.397,43.169,75.776,465.094,-139.377,219.283,-84.780,-59.600,-58.060
146,48803.548000,232.415,42.165,71.680,470.823,-135.618,220.366,-118.780,-62.600,-70.060
147,48803.590000,238.311,46.180,76.800,468.838,-142.115,217.241,-158.780,-31.600,-105.060
148,48803.610000,237.328,46.180,75.776,469.858,-136.625,216.365,-118.780,-27.600,-88.060
149,48803.650000,236.345,45.176,73.728,471.700,-140.264,216.290,-140.780,-3.600,-118.060
150,48803.690000,233.397,53.208,75.776,474.582,-136.640,212.393,-79.780,19.400,-142.060
151,48803.730000,235.363,55.216,75.776,473.765,-127.453,214.576,-80.780,22.400,-132.060
152,48803.770000,228.484,60.235,76.800,476.584,-128.409,210.582,-130.780,0.400,-146.060
153,48803.810000,235.363,65.255,75.776,478.505,-126.513,212.614,-105.780,-21.600,-146.060
154,48803.829000,233.397,66.259,75.776,480.443,-122.882,209.710,-89.780,-35.600,-144.060
155,48803.870000,237.328,65.255,77.824,482.343,-121.999,206.748,-90.780,-91.600,-113.060
156,48803.910000,236.345,70.275,73.728,483.309,-120.213,203.804,-115.780,-136.600,-115.060
157,48803.950000,230.449,73.286,66.560,482.347,-121.181,201.792,-126.780,-151.600,-100.060
158,48803.991000,237.328,72.282,64.512,485.142,-123.970,197.759,-156.780,-155.600,-85.060
159,48804.46000,234.380,70.275,67.584,489.892,-122.153,193.826,-187.780,-137.600,-57.060
160,48804.68000,234.380,71.278,66.560,491.792,-121.270,190.863,-202.780,-104.600,-24.060
161,48804.87000,233.397,68.267,70.656,493.639,-124.091,185.833,-183.780,-66.600,-5.060
162,48804.126000,233.397,67.263,71.680,488.915,-123.296,182.859,-164.780,-39.600,15.940
163,48804.166000,232.415,65.255,70.656,488.886,-125.168,180.830,-171.780,-43.600,40.940
164,48804.206000,239.294,57.224,64.512,486.990,-125.232,178.836,-144.780,-40.600,71.940
165,48804.251000,236.345,54.212,62.464,486.926,-129.832,177.744,-85.780,-25.600,84.940
166,48804.286000,246.173,54.212,61.440,487.871,-129.839,176.750,-27.780,-22.600,90.940
167,48804.308000,245.190,51.200,60.416,485.880,-137.173,177.586,6.220,36.400,73.940
168,48804.350000,243.225,61.239,68.608,487.782,-137.031,183.560,64.220,94.400,21.940
169,48804.392000,233.397,60.235,72.704,484.972,-135.198,185.584,54.220,103.400,7.940
170,48804.435000,223.570,58.227,68.608,484.936,-137.926,186.520,13.220,70.400,-17.060
171,48804.466000,204.898,57.224,67.584,485.972,-131.481,187.654,-90.780,58.400,-70.060
172,48804.506000,200.967,60.235,64.512,486.866,-135.153,186.582,-82.780,9.400,-78.060
173,48804.531000,229.466,63.247,60.416,483.143,-130.622,186.673,-160.780,-56.600,-94.060
174,48804.566000,244.207,41.161,67.584,483.128,-131.578,184.663,-276.780,-2.600,22.940
175,48804.606000,266.810,43.169,81.920,484.926,-138.044,180.550,-277.780,29.400,145.940
176,48804.652000,292.361,58.227,95.232,479.107,-149.015,185.281,-20.780,128.400,228.940
177,48804.686000,244.207,40.157,78.848,479.038,-154.433,189.144,110.220,82.400,232.940
178,48804.726000,221.605,38.149,78.848,476.118,-160.806,192.983,120.220,115.400,174.940
179,48804.766000,211.777,38.149,79.872,474.282,-157.088,197.038,162.220,154.400,131.940
180,48804.786000,204.898,44.173,78.848,475.185,-160.662,200.942,200.220,121.400,117.940
181,48804.828000,219.639,45.176,80.896,475.167,-162.416,204.883,200.220,134.400,78.940
182,48804.868000,229.466,43.169,79.872,470.547,-155.013,211.996,87.220,243.400,75.940
183,48804.911000,218.656,56.220,79.872,467.686,-157.623,220.888,115.220,244.400,66.940
184,48804.951000,206.864,52.204,78.848,462.074,-153.079,222.966,-1.780,315.400,-29.060
185,48804.991000,213.743,44.173,76.800,461.061,-158.490,227.822,-84.780,241.400,-84.060
186,48805.11000,234.380,46.180,80.896,462.101,-151.987,231.941,-118.780,152.400,-124.060
187,48805.51000,258.948,53.208,93.184,458.307,-152.914,233.904,-127.780,80.400,-181.060
188,48805.86000,271.724,54.212,89.088,464.051,-147.440,229.056,34.220,36.400,-157.060
189,48805.126000,252.069,50.196,82.944,462.226,-142.826,232.136,247.220,83.400,-84.060
190,48805.166000,210.795,51.200,70.656,459.451,-139.042,240.169,390.220,151.400,-33.060
191,48805.212000,219.639,55.216,67.584,456.664,-136.156,249.178,459.220,180.400,-0.060
192,48805.243000,245.190,66.259,78.848,452.987,-129.559,261.249,509.220,353.400,13.940
193,48805.267000,240.276,68.267,87.040,448.356,-123.052,269.338,493.220,271.400,36.940
194,48805.307000,231.432,67.263,92.160,442.777,-116.578,276.430,419.220,274.400,1.940
195,48805.347000,203.916,75.294,91.136,444.706,-114.584,283.437,275.220,161.400,-98.060
196,48805.393000,203.916,83.325,92.160,442.892,-109.073,285.541,219.220,42.400,-131.060
197,48805.427000,212.760,84.329,95.232,445.819,-102.622,285.683,-91.780,-2.600,-223.060
198,48805.476000,233.397,80.314,113.664,442.001,-105.362,288.603,-101.780,-34.600,-205.060
199,48805.491000,237.328,95.373,108.544,448.677,-100.811,282.742,-199.780,-130.600,-142.060
200,48805.527000,225.536,89.349,106.496,448.569,-108.238,277.610,-369.780,-218.600,-104.060
201,48805.567000,223.570,94.369,90.112,452.318,-110.157,270.613,-381.780,-273.600,-71.060
202,48805.607000,211.777,94.369,94.208,456.079,-111.160,263.634,-281.780,-327.600,-15.060
203,48805.647000,207.846,102.400,109.568,456.898,-119.568,254.505,-383.780,-216.600,-39.060
204,48805.713000,203.916,100.392,112.640,461.630,-118.726,247.567,-387.780,-329.600,-25.060
205,48805.721000,214.726,76.298,105.472,462.530,-121.559,242.535,-428.780,-274.600,-5.060
206,48805.749000,220.622,70.275,112.640,468.068,-130.821,233.394,-467.780,-191.600,94.940
207,48805.807000,225.536,36.141,103.424,461.190,-148.510,223.061,-641.780,-208.600,284.940
208,48805.827000,221.605,16.063,117.760,461.990,-158.673,217.873,-478.780,-43.600,381.940
209,48805.874000,208.829,10.039,117.760,457.864,-183.498,215.349,-284.780,-55.600,389.940
210,48805.909000,197.036,2.008,108.544,457.897,-180.808,212.423,-79.780,-127.600,315.940
211,48805.949000,168.537,-16.063,86.016,453.060,-188.258,209.273,128.220,-213.600,285.940
212,48805.969000,165.589,22.086,63.488,457.774,-189.170,206.277,289.220,-299.600,103.940
213,48806.12000,292.361,44.173,73.728,459.776,-180.939,204.466,235.220,-108.600,-9.060
214,48806.52000,289.413,21.082,96.256,455.980,-181.886,205.435,-17.780,-26.600,146.940
215,48806.88000,275.655,35.137,96.256,453.064,-187.439,204.317,-99.780,132.400,95.940
216,48806.130000,255.017,34.133,90.112,454.027,-186.472,206.329,11.220,87.400,99.940
217,48806.169000,220.622,27.106,70.656,452.989,-193.716,211.146,-8.780,-3.600,79.940
218,48806.197000,220.622,28.110,65.536,451.038,-197.503,206.090,-37.780,-27.600,37.940
219,48806.230000,221.605,14.055,81.920,451.128,-191.051,208.216,-35.780,23.400,48.940
220,48806.272000,216.691,25.098,101.376,447.256,-197.514,208.073,63.220,107.400,37.940
221,48806.307000,250.104,10.039,100.352,442.538,-197.420,216.025,114.220,124.400,98.940
222,48806.352000,256.983,26.102,89.088,446.428,-189.983,219.173,162.220,55.400,75.940
223,48806.387000,265.827,52.204,90.112,445.416,-194.615,217.084,114.220,59.400,-90.060
224,48806.422000,244.207,44.173,83.968,448.370,-186.293,219.254,60.220,-10.600,-197.060
225,48806.451000,237.328,47.184,83.968,450.335,-180.810,217.385,-15.780,-22.600,-242.060
226,48806.491000,222.587,37.145,91.136,450.413,-175.274,219.492,55.220,29.400,-239.060
227,48806.543000,222.587,47.184,93.184,448.572,-171.615,220.562,146.220,60.400,-203.060
228,48806.573000,213.743,46.180,92.160,455.292,-165.017,225.685,257.220,81.400,-156.060
229,48806.612000,205.881,59.231,86.016,452.499,-162.209,230.714,271.220,94.400,-154.060
230,48806.653000,208.829,60.235,91.136,450.621,-161.298,231.725,155.220,72.400,-119.060
231,48806.676000,206.864,42.165,86.016,453.577,-152.957,234.891,137.220,-43.600,11.940
232,48806.712000,220.622,52.204,89.088,452.604,-154.821,233.855,78.220,27.400,15.940
233,48806.752000,243.225,49.192,97.280,451.709,-151.150,234.927,92.220,28.400,64.940
234,48806.788000,263.862,42.165,91.136,450.657,-159.329,238.730,49.220,-2.600,147.940
235,48806.833000,280.568,54.212,82.944,443.069,-160.404,235.712,-172.780,35.400,97.940
236,48806.904000,245.190,49.192,88.064,449.679,-161.252,234.709,-367.780,-26.600,6.940
237,48806.912000,230.449,29.114,76.800,452.477,-164.002,232.665,-426.780,-77.600,-123.060
238,48806.933000,264.845,35.137,86.016,451.494,-165.983,225.659,-553.780,-16.600,-169.060
239,48806.986000,248.138,21.082,115.712,454.314,-166.940,221.664,-552.780,46.400,-154.060
240,48807.12000,259.931,11.043,111.616,455.186,-171.645,214.603,-400.780,7.400,-241.060
241,48807.53000,229.466,48.188,97.280,459.955,-168.834,214.670,-416.780,-95.600,-251.060
242,48807.93000,203.916,20.078,96.256,460.948,-165.196,212.760,-337.780,6.400,-201.060
243,48807.132000,224.553,16.063,98.304,464.623,-172.592,206.640,-311.780,10.400,-66.060
244,48807.151000,233.397,10.039,122.880,462.813,-167.042,210.734,-268.780,196.400,17.940
245,48807.192000,241.259,13.051,132.096,461.830,-170.563,218.614,270.220,319.400,-3.060
246,48807.233000,240.276,28.110,131.072,456.268,-163.114,228.711,546.220,387.400,-57.060
247,48807.272000,209.812,35.137,118.784,456.428,-152.783,241.862,645.220,254.400,-5.060
248,48807.313000,181.313,29.114,98.304,455.626,-143.400,253.996,701.220,152.400,-5.060
249,48807.348000,160.676,37.145,86.016,458.470,-143.304,256.986,659.220,26.400,43.940
250,48807.368000,153.797,39.153,78.848,456.788,-128.554,263.265,827.220,-41.600,65.940
251,48807.416000,190.157,92.361,97.280,455.862,-127.552,268.258,797.220,29.400,-26.060
252,48807.451000,216.691,103.404,102.400,454.101,-118.338,272.430,462.220,109.400,-115.060
253,48807.488000,270.741,125.490,129.024,455.268,-102.654,277.739,281.220,155.400,-154.060
254,48807.528000,262.879,143.561,141.312,455.309,-99.866,279.788,96.220,101.400,-206.060
255,48807.575000,237.328,145.569,118.784,456.371,-91.569,281.955,-215.780,-77.600,-136.060
256,48807.588000,197.036,100.392,105.472,461.917,-99.974,269.849,-557.780,-216.600,18.940
257,48807.632000,192.123,64.251,92.160,462.760,-106.550,260.758,-651.780,-281.600,158.940
258,48807.673000,205.881,60.235,75.776,463.550,-117.609,256.546,-441.780,-248.600,207.940
259,48807.713000,208.829,60.235,75.776,464.376,-125.939,251.396,-276.780,-61.600,202.940
260,48807.753000,233.397,52.204,76.800,461.413,-135.119,252.191,-111.780,231.400,170.940
261,48807.816000,262.879,77.302,70.656,456.698,-134.986,262.134,92.220,372.400,151.940
262,48807.840000,245.190,59.231,79.872,452.941,-133.944,271.102,61.220,662.400,165.940
263,48807.854000,238.311,64.251,100.352,439.602,-142.871,291.780,224.220,806.400,188.940
264,48807.895000,201.950,56.220,106.496,422.629,-140.854,312.685,295.220,863.400,181.940
265,48807.940000,196.054,52.204,116.736,410.321,-143.394,331.511,257.220,880.400,163.940
266,48807.971000,188.192,60.235,143.360,395.324,-134.978,350.566,232.220,766.400,112.940
267,48808.17000,186.226,61.239,154.624,386.890,-130.275,362.589,259.220,710.400,45.940
268,48808.76000,182.296,64.251,158.720,379.327,-131.057,374.497,81.220,503.400,-35.060
269,48808.83000,176.399,64.251,164.864,369.936,-126.485,380.548,37.220,387.400,-110.060
270,48808.111000,172.468,68.267,159.744,369.016,-125.425,388.526,-78.780,239.400,-142.060
271,48808.152000,168.537,68.267,161.792,366.059,-133.766,385.360,-214.780,91.400,-205.060
272,48808.196000,187.209,68.267,172.032,367.052,-130.128,383.450,-310.780,49.400,-216.060
273,48808.229000,195.071,83.325,165.888,368.045,-126.490,381.540,-333.780,-9.600,-297.060
274,48808.276000,202.933,84.329,171.008,372.661,-134.712,379.382,-373.780,-48.600,-341.060
275,48808.309000,188.192,67.263,166.912,377.473,-128.314,375.547,-468.780,-81.600,-295.060
276,48808.329000,184.261,50.196,158.720,379.167,-142.168,368.292,-497.780,-155.600,-114.060
277,48808.370000,181.313,46.180,154.624,380.987,-146.841,362.228,-341.780,-168.600,-30.060
278,48808.416000,191.140,41.161,158.720,382.903,-145.003,361.275,-184.780,-139.600,46.940
279,48808.452000,196.054,54.212,160.768,382.834,-149.662,357.197,25.220,-58.600,58.940
280,48808.493000,196.054,55.216,160.768,381.889,-149.655,358.190,119.220,-36.600,52.940
281,48808.535000,197.036,55.216,158.720,383.828,-146.004,356.282,38.220,-76.600,71.940
282,48808.549000,198.019,50.196,155.648,382.766,-154.301,354.114,-57.780,-99.600,83.940
283,48808.593000,195.071,49.192,154.624,383.658,-158.012,351.053,-75.780,-124.600,103.940
284,48808.633000,194.088,51.200,149.504,388.420,-155.279,347.139,-74.780,-158.600,59.940
285,48808.673000,185.244,42.165,152.576,391.245,-156.177,346.130,-126.780,-168.600,26.940
286,48808.715000,178.365,44.173,143.360,390.224,-160.907,339.065,-60.780,-206.600,-38.060
287,48808.756000,203.916,50.196,144.384,396.899,-156.375,332.209,-56.780,-251.600,-88.060
288,48808.771000,228.484,56.220,144.384,398.743,-159.995,333.129,28.220,-202.600,-90.060
289,48808.812000,227.501,52.204,138.240,401.588,-159.120,329.174,178.220,-127.600,-17.060
290,48808.851000,216.691,51.200,126.976,400.769,-149.951,330.362,283.220,-39.600,107.940
291,48808.893000,199.985,53.208,134.144,393.146,-154.515,336.222,357.220,70.400,222.940
292,48808.935000,187.209,67.263,145.408,392.273,-149.810,343.283,648.220,240.400,247.940
293,48808.983000,199.002,70.275,152.576,387.585,-147.826,354.259,574.220,212.400,249.940
294,48809.11000,198.019,59.231,157.696,383.928,-139.455,363.384,548.220,160.400,248.940
295,48809.31000,189.175,66.259,168.960,381.240,-128.479,364.608,550.220,103.400,213.940
296,48809.77000,187.209,83.325,157.696,382.093,-135.718,368.434,474.220,5.400,145.940
297,48809.111000,191.140,87.341,151.552,374.654,-126.578,372.596,238.220,-52.600,51.940
298,48809.155000,186.226,84.329,147.456,377.565,-121.083,370.728,99.220,-103.600,-1.060
299,48809.196000,182.296,83.325,145.408,383.200,-123.815,367.694,-116.780,-145.600,-41.060
300,48809.236000,198.019,85.333,145.408,385.970,-128.436,363.621,-424.780,-189.600,-82.060
301,48809.256000,207.846,77.302,149.504,387.759,-135.019,353.537,-489.780,-175.600,-85.060
302,48809.296000,208.829,80.314,148.480,389.568,-140.589,348.448,-459.780,-148.600,-68.060
303,48809.334000,203.916,72.282,141.312,386.533,-154.466,343.175,-469.780,-122.600,-52.060
304,48809.383000,183.278,66.259,135.168,396.011,-152.626,337.261,-488.780,-90.600,-61.060
305,48809.411000,197.036,58.227,150.528,392.991,-165.567,333.002,-405.780,-2.600,-10.060
306,48809.451000,174.434,40.157,140.288,391.107,-164.715,331.028,-341.780,20.400,-33.060
307,48809.491000,157.727,2.008,147.456,388.151,-173.056,327.863,-329.780,9.400,91.940
308,48809.511000,168.537,6.024,150.528,385.216,-179.604,322.746,-203.780,22.400,89.940
309,48809.551000,215.708,9.035,152.576,378.552,-183.239,328.626,-27.780,83.400,83.940
310,48809.591000,232.415,22.086,156.672,379.559,-178.665,327.730,19.220,147.400,43.940
311,48809.631000,235.363,41.161,159.744,376.602,-187.786,331.511,47.220,175.400,14.940
312,48809.671000,202.933,35.137,150.528,375.737,-182.224,335.606,6.220,127.400,9.940
313,48809.711000,188.192,25.098,141.312,375.685,-185.908,334.533,-39.780,-2.600,77.940
314,48809.731000,192.123,24.094,144.384,369.952,-189.706,331.460,-9.780,-56.600,162.940
315,48809.776000,203.916,20.078,141.312,370.919,-187.920,328.515,35.220,-73.600,209.940
316,48809.816000,206.864,15.059,135.168,370.795,-197.062,329.315,-19.780,-85.600,234.940
317,48809.856000,205.881,15.059,136.192,367.914,-199.906,326.267,-19.780,-74.600,219.940
318,48809.892000,203.916,6.024,123.904,369.778,-201.752,324.241,-11.780,-112.600,175.940
319,48809.931000,211.777,32.125,140.288,369.717,-206.313,325.138,-46.780,-74.600,66.940
320,48809.952000,207.846,20.078,141.312,366.898,-204.577,322.187,-23.780,-51.600,-40.060
321,48809.993000,214.726,32.125,141.312,370.732,-200.882,321.277,-141.780,1.400,-202.060
322,48810.32000,221.605,38.149,150.528,373.460,-209.070,322.101,-169.780,92.400,-296.060
323,48810.73000,221.605,39.153,155.648,372.705,-195.302,324.382,-338.780,86.400,-336.060
324,48810.118000,193.106,37.145,146.432,379.255,-199.932,317.331,-373.780,23.400,-331.060
325,48810.154000,185.244,33.129,147.456,382.090,-199.933,315.346,-367.780,-31.600,-287.060
326,48810.194000,192.123,32.125,147.456,384.014,-197.238,311.428,-243.780,-54.600,-184.060
327,48810.214000,190.157,25.098,146.432,384.866,-203.716,307.312,-150.780,-78.600,-93.060
328,48810.251000,193.106,25.098,148.480,385.746,-208.324,305.226,-109.780,-72.600,4.940
329,48810.299000,199.985,23.090,146.432,383.018,-200.135,304.402,-45.780,-80.600,44.940
330,48810.334000,199.002,21.082,137.216,386.734,-204.744,300.331,-38.780,-108.600,60.940
331,48810.383000,199.985,15.059,145.408,383.839,-208.524,296.268,-69.780,-116.600,62.940
332,48810.414000,200.967,25.098,142.336,389.577,-203.888,295.380,15.220,-81.600,14.940
333,48810.434000,225.536,37.145,149.504,386.653,-210.319,296.234,36.220,-2.600,-30.060
334,48810.475000,216.691,24.094,152.576,391.392,-209.399,293.276,-92.780,-9.600,-49.060
335,48810.512000,215.708,22.086,146.432,388.592,-206.668,294.325,-160.780,-74.600,-83.060
336,48810.554000,219.639,31.122,129.024,393.210,-214.091,286.217,-298.780,-167.600,-151.060
337,48810.594000,217.674,11.043,144.384,396.110,-209.492,285.324,-431.780,-136.600,-168.060
338,48810.634000,225.536,17.067,144.384,401.741,-211.503,272.359,-475.780,-148.600,-270.060
339,48810.655000,199.985,15.059,149.504,405.516,-211.571,266.396,-415.780,-85.600,-232.060
340,48810.695000,198.019,-7.027,148.480,404.538,-213.493,262.375,-290.780,-145.600,-249.060
341,48810.734000,191.140,9.035,144.384,410.217,-212.639,255.439,-233.780,-223.600,-160.060
342,48810.776000,200.967,-5.020,158.720,412.073,-214.583,248.438,-174.780,-218.600,-66.060
343,48810.816000,210.795,0.000,169.984,417.819,-209.089,244.585,-9.780,-207.600,-18.060
344,48810.861000,220.622,-2.008,160.768,420.591,-213.691,241.507,278.220,-204.600,14.940
345,48810.896000,216.691,-5.020,158.720,427.293,-208.067,243.626,478.220,-206.600,4.940
346,48810.916000,208.829,-2.008,149.504,430.257,-198.868,243.826,647.220,-189.600,-13.060
347,48810.956000,206.864,12.047,131.072,431.258,-195.133,246.891,854.220,-245.600,-12.060
348,48810.996000,199.002,19.075,115.712,437.095,-183.967,252.110,786.220,-291.600,5.940
349,48811.50000,195.071,8.031,98.304,437.296,-169.289,253.418,864.220,-356.600,64.940
350,48811.77000,190.157,15.059,69.632,442.109,-162.892,249.582,858.220,-437.600,97.940
351,48811.116000,208.829,40.157,74.752,449.793,-154.527,250.766,956.220,-300.600,36.940
352,48811.136000,237.328,73.286,89.088,455.675,-139.755,253.079,823.220,-41.600,-47.060
353,48811.177000,244.207,107.420,124.928,451.978,-134.152,261.150,637.220,7.400,-156.060
354,48811.218000,256.983,114.447,129.024,457.937,-113.844,265.569,393.220,36.400,-249.060
355,48811.257000,230.449,103.404,102.400,461.782,-109.252,263.683,156.220,-114.600,-231.060
356,48811.292000,210.795,83.325,86.016,463.657,-110.202,260.682,104.220,-99.600,-189.060
357,48811.334000,209.812,85.333,73.728,464.741,-100.112,260.898,55.220,-93.600,-184.060
358,48811.374000,206.864,87.341,67.584,471.446,-93.690,257.066,98.220,-49.600,-203.060
359,48811.392000,211.777,94.369,70.656,466.846,-84.513,261.233,136.220,0.400,-215.060
360,48811.432000,225.536,96.376,65.536,466.894,-80.868,260.316,176.220,-9.600,-134.060
361,48811.477000,218.656,101.396,70.656,469.847,-72.565,261.492,153.220,13.400,-141.060
362,48811.517000,220.622,106.416,83.968,471.686,-76.244,259.427,-28.780,73.400,-84.060
363,48811.556000,218.656,107.420,84.992,471.736,-73.359,266.451,16.220,91.400,-42.060
364,48811.596000,203.916,105.412,109.568,469.784,-77.926,268.340,-53.780,118.400,-39.060
365,48811.616000,208.829,98.384,110.592,471.746,-72.462,265.476,-188.780,23.400,-37.060
366,48811.659000,208.829,89.349,103.424,469.841,-73.404,265.453,-231.780,-31.600,-69.060
367,48811.696000,213.743,80.314,108.544,470.734,-77.095,263.386,-347.780,-29.600,-109.060
368,48811.737000,214.726,87.341,113.664,468.848,-76.282,259.422,-359.780,-72.600,-114.060
369,48811.777000,210.795,92.361,112.640,474.435,-82.658,257.306,-327.780,-86.600,-153.060
370,48811.817000,226.518,88.345,97.280,473.527,-79.143,250.417,-463.780,-158.600,-139.060
371,48811.837000,226.518,74.290,99.328,474.420,-82.834,248.350,-430.780,-128.600,-90.060
372,48811.877000,222.587,83.325,94.208,476.291,-83.823,243.359,-281.780,-110.600,-27.060
373,48811.918000,221.605,74.290,91.136,475.170,-96.661,243.084,-174.780,-106.600,28.940
374,48811.958000,214.726,73.286,91.136,477.167,-88.489,238.287,-105.780,-27.600,26.940
375,48811.998000,215.708,77.302,96.256,475.212,-93.094,238.187,19.220,44.400,22.940
376,48812.38000,214.726,81.318,99.328,475.222,-92.977,244.157,70.220,111.400,21.940
377,48812.78000,211.777,80.314,106.496,473.377,-89.357,243.237,116.220,147.400,51.940
378,48812.98000,204.898,72.282,103.424,474.221,-97.473,249.033,161.220,100.400,116.940
379,48812.137000,205.881,81.318,100.352,469.568,-91.999,251.132,146.220,54.400,113.940
380,48812.178000,208.829,84.329,97.280,468.572,-95.676,251.052,123.220,38.400,88.940
381,48812.213000,213.743,81.318,101.376,471.444,-93.709,256.071,123.220,19.400,80.940
382,48812.253000,220.622,80.314,99.328,470.485,-94.638,256.050,144.220,27.400,68.940
383,48812.293000,229.466,83.325,100.352,472.414,-91.884,255.117,186.220,40.400,63.940
384,48812.313000,240.276,82.322,103.424,465.764,-94.583,262.012,162.220,73.400,80.940
385,48812.353000,218.656,84.329,104.448,465.798,-91.874,260.081,203.220,54.400,111.940
386,48812.398000,227.501,88.345,105.472,465.831,-89.944,265.095,150.220,108.400,94.940
387,48812.444000,208.829,88.345,110.592,462.015,-92.664,269.010,140.220,84.400,84.940
388,48812.476000,212.760,92.361,114.688,462.033,-91.690,272.015,127.220,108.400,41.940
389,48812.516000,206.864,98.384,120.832,459.108,-98.120,272.868,49.220,89.400,2.940
390,48812.556000,204.898,103.404,121.856,458.254,-91.662,275.988,-24.780,68.400,-16.060
391,48812.576000,207.846,97.380,115.712,459.075,-100.810,275.795,-32.780,-0.600,41.940
392,48812.617000,199.985,93.365,116.736,459.108,-98.120,272.868,-17.780,8.400,83.940
393,48812.656000,185.244,104.408,113.664,457.234,-97.151,276.864,-12.780,24.400,112.940
394,48812.696000,188.192,98.384,107.520,455.277,-101.776,275.768,-86.780,29.400,116.940
395,48812.738000,194.088,98.384,106.496,451.331,-113.717,276.503,-230.780,74.400,132.940
396,48812.778000,215.708,89.349,109.568,449.433,-114.580,280.461,-308.780,122.400,145.940
397,48812.798000,215.708,79.310,102.400,445.559,-121.062,279.322,-451.780,179.400,89.940
398,48812.838000,205.881,63.247,95.232,440.575,-139.467,277.928,-600.780,213.400,74.940
399,48812.878000,214.726,39.153,103.424,435.833,-140.426,278.896,-682.780,302.400,101.940
400,48812.922000,231.432,30.118,113.664,428.055,-156.042,281.536,-548.780,428.400,203.940
401,48812.956000,236.345,14.055,116.736,417.534,-165.184,289.283,-370.780,539.400,260.940
402,48812.994000,232.415,3.012,147.456,408.966,-169.741,296.135,-157.780,607.400,377.940
403,48813.14000,210.795,15.059,154.624,397.505,-178.818,307.861,172.220,587.400,345.940
404,48813.54000,192.123,29.114,149.504,383.282,-182.417,320.694,388.220,435.400,202.940
405,48813.94000,194.088,30.118,144.384,376.755,-176.754,333.735,339.220,321.400,155.940
406,48813.137000,204.898,33.129,145.408,370.102,-179.492,338.640,236.220,224.400,154.940
407,48813.177000,214.726,44.173,141.312,370.071,-182.162,342.562,96.220,181.400,145.940
408,48813.217000,209.812,46.180,142.336,366.351,-177.593,344.643,-51.780,204.400,89.940
409,48813.257000,186.226,43.169,152.576,363.391,-186.752,346.433,-72.780,274.400,57.940
410,48813.277000,186.226,23.090,168.960,353.924,-187.696,351.372,-198.780,273.400,136.940
411,48813.317000,166.572,9.035,161.792,349.979,-199.617,353.101,-120.780,193.400,188.940
412,48813.372000,172.468,12.047,159.744,349.025,-200.487,356.065,-96.780,38.400,193.940
413,48813.399000,171.486,12.047,167.936,348.026,-204.203,353.996,-167.780,-64.600,79.940
414,48813.447000,205.881,25.098,176.128,349.943,-202.345,354.038,-175.780,-59.600,-24.060
415,48813.476000,194.088,16.063,174.080,348.976,-203.372,349.041,-267.780,-52.600,-82.060
416,48813.502000,199.985,27.106,174.080,351.702,-210.819,340.930,-199.780,-69.600,-127.060
417,48813.538000,185.244,21.082,160.768,355.455,-212.680,336.917,-226.780,-156.600,-136.060
418,48813.578000,201.950,16.063,165.888,358.247,-215.508,330.893,-273.780,-218.600,-106.060
419,48813.618000,202.933,11.043,161.792,362.059,-212.826,324.988,-231.780,-224.600,-64.060
420,48813.658000,197.036,8.031,161.792,367.629,-220.178,319.867,-86.780,-157.600,-35.060
421,48813.703000,197.036,20.078,157.696,373.358,-216.419,320.950,77.220,-116.600,-71.060
422,48813.738000,199.002,36.141,147.456,372.487,-210.935,321.065,197.220,-114.600,-143.060
423,48813.758000,199.002,53.208,144.384,377.315,-203.582,319.240,168.220,-110.600,-250.060
424,48813.798000,199.985,50.196,136.192,380.290,-193.487,318.464,125.220,-145.600,-272.060
425,48813.838000,205.881,49.192,137.216,386.035,-188.012,313.616,-162.780,-185.600,-182.060
426,48813.878000,215.708,55.216,138.240,386.941,-190.008,304.623,-342.780,-170.600,-126.060
427,48813.914000,218.656,44.173,135.168,393.484,-195.495,300.538,-375.780,-141.600,-59.060
428,48813.959000,208.829,32.125,146.432,391.543,-198.386,294.505,-424.780,-96.600,7.940
429,48813.979000,207.846,13.051,153.600,393.254,-211.265,290.255,-345.780,-95.600,45.940
430,48814.14000,199.985,10.039,156.672,391.294,-215.929,287.169,-244.780,-89.600,77.940
431,48814.59000,195.071,10.039,157.696,392.239,-215.936,286.176,-33.780,-85.600,64.940
432,48814.94000,188.192,10.039,149.504,394.073,-219.673,281.126,150.220,-146.600,39.940
433,48814.136000,192.123,13.051,145.408,398.921,-211.326,283.300,299.220,-167.600,46.940
434,48814.178000,205.881,20.078,152.576,399.908,-208.526,285.350,349.220,-95.600,53.940
435,48814.197000,205.881,21.082,147.456,398.083,-203.912,288.430,376.220,-132.600,89.940
436,48814.239000,210.795,32.125,136.192,399.970,-203.946,285.448,330.220,-176.600,100.940
437,48814.279000,214.726,29.114,136.192,400.904,-204.849,285.430,151.220,-142.600,111.940
438,48814.319000,206.864,13.051,152.576,401.820,-206.728,282.408,49.220,-134.600,186.940
439,48814.359000,207.846,5.020,144.384,404.714,-202.967,285.476,174.220,-197.600,220.940
440,48814.399000,199.002,-9.035,128.000,405.554,-210.362,281.341,242.220,-233.600,230.940
441,48814.442000,207.846,0.000,128.000,405.586,-207.672,278.414,279.220,-247.600,148.940
442,48814.458000,208.829,5.020,122.880,408.395,-209.525,275.395,266.220,-318.600,102.940
443,48814.506000,211.777,-4.016,126.976,412.271,-202.263,269.588,157.220,-279.600,84.940
444,48814.541000,220.622,-1.004,138.240,415.133,-200.413,268.637,90.220,-174.600,-76.060
445,48814.578000,212.760,-13.051,141.312,419.889,-198.518,268.684,261.220,-194.600,-35.060
446,48814.619000,228.484,4.016,121.856,424.733,-190.210,268.868,387.220,-142.600,-119.060
447,48814.659000,216.691,43.169,89.088,433.363,-181.853,269.059,481.220,-224.600,-163.060
448,48814.681000,193.106,80.314,76.800,435.395,-171.731,270.272,646.220,-236.600,-257.060
449,48814.719000,215.708,94.369,87.040,438.355,-162.571,268.482,478.220,-134.600,-303.060
450,48814.757000,230.449,88.345,105.472,444.206,-149.690,267.770,99.220,-184.600,-279.060
451,48814.798000,256.000,89.349,107.520,445.176,-147.864,266.816,101.220,-129.600,-204.060
452,48814.838000,243.225,89.349,107.520,451.934,-137.738,265.052,17.220,-114.600,-152.060
453,48814.879000,226.518,87.341,106.496,455.666,-141.392,262.990,-30.780,-119.600,-103.060
454,48814.919000,202.933,71.278,108.544,455.685,-139.638,259.049,-99.780,-148.600,-48.060
455,48814.946000,193.106,71.278,108.544,457.639,-134.272,251.209,-137.780,-217.600,-60.060
456,48814.981000,198.019,74.290,93.184,463.296,-135.211,246.224,-134.780,-247.600,-69.060
457,48815.16000,206.864,65.255,84.992,466.018,-142.697,236.123,-121.780,-262.600,-42.060
458,48815.56000,233.397,66.259,95.232,468.936,-136.345,231.289,-140.780,-228.600,-5.060
459,48815.98000,246.173,65.255,90.112,467.037,-136.448,227.305,-133.780,-235.600,74.940
460,48815.138000,249.121,54.212,87.040,469.735,-146.527,225.106,5.220,-149.600,146.940
461,48815.158000,236.345,44.173,79.872,467.839,-146.591,223.112,23.220,-141.600,217.940
462,48815.203000,230.449,43.169,79.872,467.759,-152.146,220.010,94.220,-81.600,231.940
463,48815.238000,232.415,51.200,81.920,466.813,-152.159,220.008,149.220,-0.600,237.940
464,48815.279000,236.345,51.200,88.064,465.848,-153.925,223.948,216.220,6.400,199.940
465,48815.321000,235.363,58.227,89.088,463.906,-157.615,223.866,65.220,34.400,101.940
466,48815.374000,234.380,52.204,91.136,461.070,-157.613,225.851,93.220,45.400,80.940
467,48815.382000,219.639,38.149,99.328,464.794,-162.124,226.756,-48.780,13.400,84.940
468,48815.416000,218.656,34.133,95.232,461.868,-168.575,226.614,-87.780,-47.600,81.940
469,48815.456000,224.553,40.157,73.728,459.915,-172.381,220.562,-58.780,-124.600,63.940
470,48815.509000,228.484,38.149,74.752,465.677,-165.933,218.719,4.220,-116.600,13.940
471,48815.537000,223.570,42.165,80.896,467.501,-170.566,214.644,28.220,-112.600,-36.060
472,48815.579000,214.726,36.141,79.872,469.506,-162.296,214.823,-2.780,-141.600,-76.060
473,48815.621000,261.896,50.196,82.944,471.347,-165.955,213.753,-18.780,-42.600,-184.060
474,48815.649000,262.879,41.161,83.968,470.488,-159.555,213.888,-37.780,-0.600,-159.060
475,48815.679000,279.585,40.157,94.208,468.590,-159.638,210.900,171.220,36.400,-86.060
476,48815.721000,242.242,30.118,76.800,471.575,-149.426,216.095,298.220,110.400,-36.060
477,48815.761000,210.795,51.200,74.752,467.880,-143.803,225.161,391.220,201.400,-57.060
478,48815.804000,210.795,61.239,82.944,467.984,-137.195,235.248,319.220,257.400,-85.060
479,48815.837000,238.311,76.298,93.184,464.200,-138.005,243.182,197.220,315.400,-155.060
480,48815.857000,245.190,66.259,99.328,465.153,-137.915,247.164,188.220,294.400,-116.060
481,48815.902000,242.242,60.235,92.160,457.755,-125.988,253.375,247.220,154.400,-99.060
482,48815.942000,223.570,51.200,77.824,460.716,-117.588,259.526,220.220,61.400,-72.060
483,48815.982000,215.708,63.247,76.800,465.537,-111.093,260.666,207.220,4.400,-123.060
484,48816.23000,209.812,70.275,83.968,463.680,-108.389,259.726,198.220,21.400,-188.060
485,48816.62000,221.605,80.314,84.992,461.842,-104.691,262.786,233.220,24.400,-234.060
486,48816.82000,228.484,80.314,91.136,459.193,-90.967,264.069,94.220,77.400,-227.060
487,48816.117000,239.294,84.329,89.088,464.971,-83.563,264.235,-23.780,-9.600,-230.060
488,48816.157000,242.242,87.341,80.896,463.069,-84.465,266.202,-128.780,-15.600,-170.060
489,48816.197000,222.587,86.337,94.208,463.974,-87.240,264.155,-121.780,-65.600,-76.060
490,48816.237000,221.605,92.361,90.112,466.869,-82.700,260.277,-66.780,-148.600,-6.060
491,48816.277000,209.812,94.369,93.184,465.791,-91.952,256.100,-79.780,-142.600,47.940
492,48816.317000,206.864,97.380,96.256,470.580,-87.367,253.221,-19.780,-154.600,53.940
493,48816.337000,217.674,102.400,91.136,473.297,-95.692,247.080,7.220,-214.600,84.940
494,48816.377000,217.674,101.396,82.944,474.279,-92.951,246.145,-45.780,-229.600,102.940
495,48816.422000,225.536,103.404,75.776,476.105,-96.785,236.120,-77.780,-275.600,124.940
496,48816.462000,221.605,93.365,67.584,478.812,-105.987,231.950,-36.780,-258.600,149.940
497,48816.502000,216.691,92.361,71.680,479.778,-104.201,229.005,-97.780,-196.600,157.940
498,48816.542000,214.726,92.361,71.680,479.682,-110.711,223.893,-59.780,-133.600,95.940
499,48816.562000,247.155,93.365,77.824,476.820,-112.562,224.844,-44.780,31.400,50.940
500,48816.602000,230.449,59.231,92.160,475.805,-117.993,228.706,-221.780,122.400,101.940
501,48816.642000,195.071,32.125,74.752,475.697,-125.420,223.574,-79.780,4.400,126.940
502,48816.679000,195.071,20.078,73.728,471.864,-129.115,224.485,-138.780,-12.600,134.940
503,48816.721000,236.345,29.114,73.728,469.023,-129.172,223.485,-88.780,-8.600,177.940
504,48816.757000,256.983,37.145,79.872,467.018,-137.442,223.306,-147.780,7.400,94.940
505,48816.798000,269.758,40.157,83.968,466.139,-132.815,226.387,65.220,81.400,67.940
506,48816.818000,263.862,61.239,81.920,464.148,-140.150,227.222,7.220,90.400,29.940
507,48816.858000,242.242,62.243,77.824,467.001,-139.177,228.242,-52.780,72.400,-2.060
508,48816.901000,232.415,43.169,74.752,464.205,-136.407,231.281,-14.780,53.400,73.940
509,48816.948000,230.449,16.063,79.872,458.425,-143.831,230.119,-103.780,12.400,294.940
510,48816.981000,229.466,26.102,75.776,453.415,-164.087,227.692,-0.780,-11.600,364.940
511,48817.22000,227.501,24.094,70.656,452.560,-157.648,229.817,106.220,34.400,337.940
512,48817.42000,236.345,37.145,80.896,450.601,-163.072,234.672,197.220,62.400,209.940
513,48817.81000,233.397,40.157,80.896,447.806,-160.283,238.705,275.220,103.400,106.940
514,48817.121000,254.035,38.149,77.824,443.951,-165.771,241.567,196.220,90.400,80.940
515,48817.162000,245.190,52.204,91.136,445.005,-158.332,246.700,-11.780,144.400,-48.060
516,48817.201000,242.242,59.231,98.304,442.084,-164.724,249.543,59.220,147.400,-127.060
517,48817.242000,239.294,63.247,94.208,442.209,-155.563,249.738,-121.780,85.400,-207.060
518,48817.262000,223.570,61.239,95.232,446.021,-153.661,250.779,-229.780,69.400,-213.060
519,48817.302000,221.605,52.204,100.352,442.248,-152.795,250.792,-203.780,40.400,-171.060
520,48817.342000,212.760,53.208,95.232,444.186,-149.164,247.888,-148.780,-10.600,-122.060
521,48817.383000,207.846,52.204,105.472,447.012,-150.042,247.874,-181.780,6.400,-88.060
522,48817.422000,206.864,50.196,99.328,446.016,-153.719,247.794,-48.780,-38.600,-44.060
523,48817.471000,201.950,47.184,90.112,447.967,-149.153,245.905,-85.780,-65.600,-13.060
524,48817.498000,209.812,40.157,89.088,445.945,-158.398,242.721,-161.780,-52.600,16.940
525,48817.521000,229.466,39.153,93.184,447.834,-158.412,240.734,-176.780,-17.600,50.940
526,48817.562000,246.173,53.208,78.848,448.708,-163.097,234.668,-161.780,-86.600,63.940
527,48817.602000,258.948,47.184,66.560,447.717,-165.936,230.628,-337.780,-137.600,15.940
528,48817.642000,265.827,44.173,72.704,448.654,-166.040,224.659,-583.780,-112.600,-26.060
529,48817.682000,267.793,39.153,76.800,448.545,-173.467,219.528,-662.780,-50.600,-38.060
530,48817.722000,257.965,17.067,96.256,447.512,-179.113,212.444,-700.780,-13.600,-47.060
531,48817.742000,239.294,11.043,100.352,452.154,-184.723,203.379,-594.780,6.400,-63.060
532,48817.786000,243.225,5.020,109.568,452.168,-183.787,204.394,-344.780,87.400,-56.060
533,48817.821000,225.536,-4.016,114.688,453.038,-189.291,203.283,-133.780,89.400,-77.060
534,48817.861000,221.605,2.008,113.664,455.005,-184.549,210.350,60.220,96.400,-73.060
535,48817.899000,220.622,7.027,112.640,454.990,-185.485,209.335,224.220,37.400,-49.060
536,48817.941000,223.570,11.043,104.448,456.059,-177.110,215.483,264.220,-20.600,10.940
537,48817.981000,211.777,3.012,94.208,454.202,-174.406,214.543,353.220,-52.600,75.940
538,48818.1000,185.244,4.016,83.968,458.941,-174.265,218.531,408.220,-34.600,103.940
539,48818.44000,196.054,22.086,91.136,457.136,-168.637,226.606,564.220,60.400,69.940
540,48818.78000,194.088,38.149,75.776,458.161,-163.089,228.715,706.220,14.400,90.940
541,48818.124000,204.898,59.231,75.776,455.498,-151.061,236.924,740.220,83.400,-109.060
542,48818.163000,251.086,96.376,77.824,456.508,-146.448,238.018,569.220,20.400,-278.060
543,48818.203000,272.706,99.388,87.040,459.549,-131.733,239.330,317.220,59.400,-350.060
544,48818.223000,282.534,109.427,92.160,465.312,-126.044,245.428,166.220,57.400,-306.060
545,48818.263000,265.827,92.361,83.968,464.553,-112.314,245.719,105.220,66.400,-184.060
546,48818.303000,223.570,70.275,82.944,462.619,-115.906,250.613,87.220,97.400,-39.060
547,48818.349000,219.639,58.227,80.896,463.556,-116.771,252.585,80.220,72.400,17.940
548,48818.379000,216.691,63.247,79.872,462.725,-108.499,254.749,108.220,81.400,10.940
549,48818.419000,210.795,64.251,83.968,466.525,-107.514,255.770,140.220,63.400,-59.060
550,48818.439000,206.864,74.290,87.040,464.673,-104.751,257.816,146.220,49.400,-162.060
551,48818.479000,199.002,83.325,89.088,462.939,-93.685,263.022,54.220,36.400,-246.060
552,48818.521000,199.985,84.329,91.136,464.831,-93.660,263.025,-124.780,-0.600,-284.060
553,48818.563000,235.363,88.345,87.040,464.812,-94.654,259.025,-235.780,-58.600,-272.060
554,48818.603000,244.207,68.267,94.208,470.621,-84.580,255.270,-127.780,-22.600,-173.060
555,48818.644000,249.121,62.243,91.136,474.395,-85.426,256.252,70.220,45.400,-181.060
556,48818.684000,233.397,88.345,87.040,468.913,-71.662,261.510,289.220,81.400,-135.060
557,48818.704000,210.795,95.373,90.112,470.747,-76.178,263.406,192.220,55.400,-90.060
558,48818.746000,217.674,103.404,89.088,474.579,-72.503,261.500,27.220,0.400,-78.060
559,48818.787000,213.743,104.408,93.184,471.845,-65.153,264.637,-101.780,-6.600,-61.060
560,48818.828000,206.864,97.380,99.328,473.670,-69.767,261.557,-183.780,-13.600,-45.060
561,48818.862000,199.002,86.337,101.376,470.781,-73.469,261.474,-283.780,-16.600,-15.060
562,48818.899000,199.002,87.341,96.256,473.617,-73.471,259.489,-368.780,-60.600,-22.060
563,48818.921000,200.967,86.337,90.112,477.370,-75.331,255.477,-343.780,-73.600,-43.060
564,48818.962000,200.967,78.306,87.040,477.267,-82.699,253.330,-261.780,-66.600,-112.060
565,48819.16000,218.656,97.380,86.016,477.290,-80.886,252.374,-210.780,-57.600,-233.060
566,48819.44000,239.294,99.388,87.040,480.174,-77.243,249.472,-175.780,-41.600,-266.060
567,48819.84000,252.069,79.310,82.944,476.451,-72.712,249.563,-175.780,7.400,-179.060
568,48819.126000,258.948,86.337,97.280,476.475,-70.899,248.607,-51.780,86.400,-81.060
569,48819.162000,237.328,92.361,91.136,474.635,-67.221,250.672,88.220,185.400,-32.060
570,48819.182000,203.916,98.384,97.280,470.929,-62.495,260.713,304.220,333.400,-34.060
571,48819.222000,189.175,96.376,110.592,469.128,-56.828,270.778,231.220,373.400,-0.060
572,48819.262000,186.226,96.376,111.616,463.394,-62.185,281.596,339.220,317.400,86.940
573,48819.302000,186.226,97.380,118.784,457.798,-56.685,285.684,419.220,271.400,124.940
574,48819.342000,189.175,106.416,121.856,457.874,-51.949,293.742,463.220,193.400,149.940
575,48819.384000,184.261,117.459,115.712,452.240,-49.197,297.770,407.220,76.400,150.940
576,48819.404000,193.106,96.376,110.592,454.156,-47.359,296.818,257.220,-2.600,183.940
577,48819.444000,196.054,113.443,120.832,454.087,-52.778,300.681,145.220,-42.600,169.940
578,48819.489000,199.002,110.431,116.736,444.552,-57.601,294.596,94.220,-53.600,171.940
579,48819.524000,203.916,100.392,112.640,448.362,-55.719,294.642,40.220,-99.600,212.940
580,48819.561000,228.484,98.384,107.520,454.933,-59.335,292.585,-45.780,-189.600,243.940
581,48819.623000,241.259,97.380,104.448,451.881,-74.186,284.308,-141.780,-212.600,244.940
582,48819.629000,230.449,96.376,109.568,455.593,-78.834,278.246,-190.780,-237.600,273.940
583,48819.662000,223.570,88.345,101.376,454.489,-89.938,273.035,-212.780,-279.600,326.940
584,48819.708000,217.674,79.310,97.280,459.014,-104.611,268.751,-229.780,-283.600,369.940
585,48819.744000,215.708,77.302,92.160,459.861,-111.149,261.651,-244.780,-343.600,358.940
586,48819.783000,226.518,79.310,78.848,461.549,-125.061,251.411,-234.780,-382.600,314.940
587,48819.824000,234.380,66.259,67.584,465.257,-129.767,242.364,-218.780,-375.600,290.940
588,48819.866000,224.553,66.259,61.440,463.176,-142.774,234.127,-186.780,-296.600,267.940
589,48819.886000,239.294,62.243,57.344,461.250,-144.729,229.110,-117.780,-235.600,222.940
590,48819.923000,227.501,46.180,70.656,460.079,-160.452,221.811,-214.780,-150.600,187.940
591,48819.962000,238.311,47.184,88.064,463.913,-156.757,220.901,-235.780,6.400,97.940
592,48820.9000,218.656,30.118,94.208,459.990,-166.885,220.679,-117.780,20.400,96.940
593,48820.46000,202.933,0.000,88.064,459.117,-161.420,219.800,-74.780,52.400,67.940
594,48820.84000,237.328,21.082,88.064,458.149,-163.226,221.749,-94.780,92.400,4.940
595,48820.106000,252.069,31.122,81.920,455.239,-168.721,223.617,45.220,97.400,-27.060
596,48820.144000,260.914,41.161,91.136,453.451,-161.358,226.755,11.220,132.400,-100.060
597,48820.184000,244.207,45.176,98.304,451.551,-162.241,229.717,-19.780,93.400,-99.060
598,48820.224000,237.328,43.169,89.088,450.597,-163.111,232.681,-7.780,11.400,-28.060
599,48820.262000,230.449,31.122,81.920,447.802,-159.562,228.774,32.220,-7.600,37.940
600,48820.303000,215.708,24.094,86.016,447.778,-161.375,229.730,-12.780,-40.600,81.940
601,48820.342000,225.536,28.110,77.824,450.576,-164.125,227.687,57.220,-103.600,113.940
602,48820.362000,223.570,43.169,79.872,450.562,-165.060,226.672,62.220,-64.600,80.940
603,48820.404000,215.708,47.184,79.872,452.417,-167.784,226.617,248.220,-59.600,49.940
604,48820.451000,243.225,68.267,73.728,448.694,-164.033,233.654,56.220,-95.600,-37.060
605,48820.484000,258.948,66.259,76.800,452.478,-163.223,225.719,-144.780,-46.600,-38.060
606,48820.523000,249.121,42.165,84.992,453.291,-172.469,220.551,-364.780,-75.600,29.940
607,48820.566000,243.225,39.153,77.824,449.487,-173.513,216.544,-368.780,-60.600,62.940
608,48820.582000,236.345,51.200,77.824,451.348,-175.399,212.528,-314.780,-5.600,27.940
609,48820.639000,234.380,47.184,79.872,449.366,-181.856,211.393,-281.780,56.400,2.940
610,48820.661000,228.484,31.122,90.112,447.491,-180.906,214.395,-205.780,85.400,37.940
611,48820.701000,206.864,28.110,90.112,447.452,-183.674,213.341,2.220,100.400,112.940
612,48820.754000,230.449,30.118,88.064,442.625,-191.007,216.162,103.220,136.400,133.940
613,48820.782000,216.691,25.098,90.112,440.819,-185.399,223.241,94.220,90.400,134.940
614,48820.803000,227.501,19.075,83.968,436.950,-191.823,225.088,103.220,22.400,162.940
615,48820.847000,223.570,27.106,79.872,438.726,-200.082,222.925,160.220,58.400,160.940
616,48820.887000,228.484,9.035,87.040,434.048,-196.441,224.985,100.220,45.400,163.940
617,48820.932000,238.311,24.094,86.016,435.885,-200.918,228.871,124.220,50.400,120.940
618,48820.962000,229.466,32.125,92.160,429.353,-194.535,231.981,66.220,88.400,39.940
619,48821.2000,250.104,14.055,94.208,429.287,-199.934,236.839,-6.780,62.400,39.940
620,48821.42000,258.948,23.090,88.064,430.278,-196.315,233.934,-92.780,-54.600,36.940
621,48821.66000,264.845,21.082,83.968,432.137,-198.220,228.923,-216.780,-69.600,-25.060
622,48821.108000,265.827,26.102,87.040,432.121,-199.175,226.913,-167.780,-77.600,-80.060
623,48821.143000,259.931,29.114,82.944,433.904,-206.596,220.790,-299.780,-112.600,-112.060
624,48821.184000,228.484,9.035,92.160,435.826,-203.921,215.877,-510.780,-90.600,-115.060
625,48821.224000,237.328,5.020,83.968,440.558,-203.079,208.939,-469.780,-134.600,-80.060
626,48821.262000,229.466,2.008,88.064,441.282,-218.757,202.639,-489.780,-102.600,-51.060
627,48821.288000,220.622,-6.024,92.160,443.215,-215.185,196.750,-367.780,-96.600,-53.060
628,48821.331000,229.466,-14.055,94.208,445.063,-217.986,192.714,-193.780,-74.600,-37.060
629,48821.366000,240.276,-5.020,91.136,447.031,-212.465,192.835,-76.780,-51.600,-21.060
630,48821.414000,237.328,-7.027,99.328,443.283,-209.766,192.887,69.220,38.400,-85.060
631,48821.442000,230.449,-3.012,97.280,448.986,-207.859,192.936,282.220,42.400,-89.060
632,48821.487000,199.985,1.004,82.944,449.068,-202.284,197.033,301.220,-64.600,-90.060
633,48821.524000,208.829,20.078,73.728,453.940,-192.105,199.246,375.220,-30.600,-88.060
634,48821.546000,216.691,23.090,71.680,454.879,-192.950,202.214,419.220,23.400,-52.060
635,48821.584000,216.691,37.145,68.608,458.860,-179.061,207.488,557.220,-37.600,-143.060
636,48821.632000,247.155,78.306,71.680,459.905,-172.499,214.592,421.220,122.400,-311.060
637,48821.664000,259.931,82.322,88.064,460.014,-165.072,219.723,348.220,187.400,-347.060
638,48821.702000,277.620,89.349,101.376,458.354,-148.509,225.047,59.220,201.400,-419.060
639,48821.742000,245.190,72.282,108.544,461.237,-145.645,229.090,-82.780,196.400,-349.060
640,48821.762000,230.449,76.298,103.424,465.179,-134.523,233.311,38.220,96.400,-221.060
641,48821.813000,213.743,71.278,92.160,464.233,-134.536,233.310,47.220,43.400,-140.060
642,48821.842000,199.002,66.259,96.256,467.102,-132.607,236.339,17.220,-8.600,-106.060
643,48821.882000,189.175,75.294,90.112,471.780,-136.249,234.279,100.220,-81.600,-103.060
644,48821.926000,196.054,70.275,83.968,469.063,-127.164,232.479,129.220,-80.600,-108.060
645,48821.967000,219.639,71.278,91.136,468.138,-125.383,230.526,79.220,-45.600,-132.060
646,48821.984000,224.553,69.271,87.040,473.925,-117.102,228.722,134.220,-128.600,-82.060
647,48822.26000,260.914,74.290,65.536,475.915,-109.787,226.891,174.220,-141.600,-62.060
648,48822.66000,266.810,65.255,84.992,478.734,-111.523,229.842,-17.780,9.400,78.940
649,48822.119000,259.931,62.243,89.088,477.646,-121.652,227.636,25.220,17.400,131.940
650,48822.148000,246.173,62.243,76.800,475.734,-123.451,230.579,130.220,42.400,120.940
651,48822.206000,230.449,60.235,94.208,473.882,-120.688,232.624,-23.780,115.400,0.940
652,48822.227000,231.432,67.263,96.256,471.118,-115.229,232.736,-5.780,119.400,-74.060
653,48822.247000,203.916,63.247,87.040,474.983,-109.624,235.845,47.220,2.400,-148.060
654,48822.296000,196.054,64.251,75.776,476.883,-108.741,232.883,-38.780,-66.600,-165.060
655,48822.323000,212.760,57.224,78.848,481.658,-105.872,235.935,-142.780,-78.600,-136.060
656,48822.377000,231.432,66.259,72.704,479.796,-103.226,232.010,-47.780,-4.600,-246.060
657,48822.407000,232.415,81.318,73.728,479.023,-90.432,231.286,164.220,83.400,-341.060
658,48822.447000,223.570,93.365,81.920,480.093,-82.038,238.429,243.220,189.400,-380.060
659,48822.473000,226.518,86.337,83.968,481.071,-80.115,242.450,128.220,202.400,-290.060
660,48822.519000,234.380,90.353,88.064,479.322,-70.764,253.587,193.220,216.400,-202.060
661,48822.548000,224.553,94.369,98.304,475.631,-64.323,257.698,440.220,286.400,-147.060
662,48822.583000,210.795,114.447,90.112,470.138,-51.455,263.931,462.220,225.400,-116.060
663,48822.623000,200.967,116.455,99.328,468.380,-42.202,270.093,455.220,244.400,-100.060
664,48822.666000,196.054,114.447,102.400,468.445,-38.362,279.127,437.220,189.400,-23.060
665,48822.708000,197.036,121.475,101.376,461.892,-33.771,284.188,449.220,155.400,23.940
666,48822.728000,199.985,121.475,98.304,459.152,-26.499,283.344,450.220,98.400,44.940
667,48822.768000,200.967,128.502,97.280,465.829,-22.708,285.424,453.220,51.400,47.940
668,48822.808000,198.019,136.533,99.328,461.104,-22.692,289.396,373.220,26.400,66.940
669,48822.847000,202.933,140.549,99.328,456.382,-21.878,287.417,290.220,-16.600,116.940
670,48822.901000,200.967,139.545,104.448,460.147,-23.601,290.370,163.220,-23.600,194.940
671,48822.934000,200.967,136.533,102.400,461.985,-27.300,287.310,39.220,-113.600,295.940
672,48822.943000,194.088,134.525,94.208,463.797,-32.830,284.211,-131.780,-269.600,382.940
673,48822.991000,195.071,117.459,82.944,465.472,-47.678,272.956,-314.780,-373.600,402.940
674,48823.26000,215.708,105.412,74.752,467.197,-58.841,262.775,-472.780,-369.600,372.940
675,48823.66000,221.605,79.310,72.704,469.786,-76.367,254.449,-596.780,-317.600,375.940
676,48823.107000,213.743,62.243,75.776,468.604,-92.987,248.125,-494.780,-184.600,334.940
677,48823.147000,207.846,61.239,71.680,467.473,-105.942,241.880,-483.780,-160.600,331.940
678,48823.177000,215.708,45.176,73.728,469.295,-110.595,236.811,-462.780,-157.600,287.940
679,48823.207000,246.173,38.149,61.440,464.248,-132.821,227.378,-448.780,-156.600,265.940
680,48823.247000,288.430,46.180,74.752,465.205,-131.912,226.405,-274.780,-5.600,219.940
681,48823.288000,278.603,44.173,81.920,464.081,-144.789,224.140,-195.780,36.400,219.940
682,48823.328000,259.931,35.137,72.704,460.284,-145.736,225.108,16.220,96.400,275.940
683,48823.368000,258.948,45.176,63.488,453.559,-153.932,231.887,97.220,223.400,260.940
684,48823.408000,236.345,53.208,47.104,450.704,-155.704,236.818,-7.780,251.400,186.940
685,48823.427000,221.605,45.176,60.416,441.201,-159.376,242.693,-286.780,367.400,120.940
686,48823.473000,226.518,31.122,68.608,436.338,-170.218,253.396,-506.780,446.400,172.940
687,48823.508000,208.829,8.031,93.184,425.728,-185.013,253.066,-596.780,482.400,250.940
688,48823.553000,210.795,8.031,106.496,416.147,-194.222,256.834,-622.780,566.400,266.940
689,48823.587000,224.553,15.059,106.496,410.355,-203.321,263.595,-492.780,496.400,240.940
690,48823.624000,213.743,-9.035,129.024,402.642,-214.337,267.327,-538.780,399.400,216.940
691,48823.658000,240.276,-19.075,134.144,395.935,-220.779,270.164,-293.780,284.400,202.940
692,48823.688000,222.587,-12.047,134.144,389.162,-231.840,270.913,-143.780,208.400,131.940
693,48823.728000,223.570,-5.020,137.216,390.139,-229.937,273.939,10.220,167.400,9.940
694,48823.768000,216.691,0.000,131.072,386.448,-223.496,278.049,145.220,112.400,-44.060
695,48823.808000,211.777,4.016,130.048,388.358,-222.496,281.057,209.220,137.400,-97.060
696,48823.857000,215.708,10.039,136.192,384.725,-212.293,290.221,293.220,192.400,-108.060
697,48823.884000,205.881,19.075,134.144,384.746,-211.280,295.216,324.220,185.400,-112.060
698,48823.904000,206.864,23.090,130.048,384.829,-205.685,300.308,299.220,175.400,-107.060
699,48823.957000,214.726,32.125,130.048,383.929,-202.852,305.340,255.220,155.400,-95.060
700,48823.988000,212.760,33.129,118.784,380.227,-197.307,310.426,187.220,116.400,-87.060
701,48824.28000,210.795,28.110,116.736,382.073,-200.908,312.341,12.220,80.400,-83.060
702,48824.73000,224.553,23.090,123.904,383.201,-187.991,316.596,0.220,104.400,-82.060
703,48824.108000,229.466,34.133,125.952,381.233,-193.513,316.476,-96.780,170.400,-141.060
704,48824.128000,228.484,27.106,126.976,380.379,-187.054,319.596,-214.780,151.400,-167.060
705,48824.176000,222.587,24.094,140.288,384.132,-189.694,322.529,-250.780,154.400,-217.060
706,48824.206000,230.449,11.043,151.552,377.581,-184.304,321.640,-327.780,127.400,-244.060
707,48824.248000,225.536,13.051,175.104,375.587,-191.678,320.485,-230.780,298.400,-274.060
708,48824.293000,209.812,8.031,183.296,379.429,-187.885,324.550,-202.780,207.400,-156.060
709,48824.327000,198.019,7.027,198.656,380.318,-192.395,327.439,-36.780,113.400,-5.060
710,48824.353000,203.916,7.027,193.536,376.566,-190.515,332.447,145.220,199.400,161.940
711,48824.388000,151.831,-6.024,164.864,369.998,-186.860,336.494,500.220,174.400,393.940
712,48824.427000,100.729,-8.031,113.664,369.099,-184.786,349.467,785.220,-16.600,524.940
713,48824.469000,115.470,13.051,91.136,372.080,-174.613,352.672,914.220,-226.600,484.940
714,48824.509000,167.555,38.149,94.208,368.386,-168.211,354.792,902.220,-282.600,239.940
715,48824.544000,261.896,106.416,109.568,375.172,-156.214,355.057,694.220,-95.600,-31.060
716,48824.591000,287.447,101.396,151.552,375.373,-142.316,363.310,187.220,20.400,-390.060
717,48824.611000,273.689,84.329,154.624,374.484,-137.806,360.421,-119.780,186.400,-462.060
718,48824.649000,215.708,63.247,145.408,375.500,-133.135,364.500,-124.780,159.400,-404.060
719,48824.689000,186.226,60.235,140.288,375.541,-130.347,366.549,-108.780,20.400,-244.060
720,48824.729000,179.347,66.259,139.264,380.306,-127.576,364.626,-41.780,-41.600,-181.060
721,48824.771000,180.330,71.278,131.072,383.142,-127.577,362.641,-27.780,-65.600,-182.060
722,48824.818000,172.468,80.314,118.784,389.886,-118.387,359.862,-81.780,-139.600,-214.060
723,48824.826000,184.261,79.310,121.856,392.667,-122.111,354.814,-217.780,-199.600,-247.060
724,48824.868000,185.244,97.380,115.712,399.308,-120.289,349.889,-364.780,-230.600,-314.060
725,48824.909000,235.363,94.369,128.000,401.206,-119.426,345.932,-500.780,-211.600,-338.060
726,48824.948000,212.760,70.275,116.736,406.810,-124.068,338.879,-628.780,-207.600,-258.060
727,48824.987000,213.743,81.318,138.240,408.584,-131.587,327.781,-512.780,-146.600,-243.060
728,48825.27000,181.313,85.333,147.456,416.082,-136.185,321.726,-466.780,-109.600,-204.060
729,48825.47000,199.002,83.325,160.768,417.063,-133.463,319.796,-463.780,-75.600,-138.060
730,48825.88000,191.140,62.243,169.984,414.156,-138.140,316.708,-438.780,-11.600,-59.060
731,48825.126000,195.071,54.212,169.984,416.818,-150.948,315.445,-338.780,41.400,10.940
732,48825.167000,196.054,53.208,172.032,414.951,-149.140,315.481,-151.780,140.400,51.940
733,48825.208000,213.743,44.173,166.912,407.292,-156.433,322.277,11.220,177.400,65.940
734,48825.248000,200.967,48.188,145.408,409.283,-149.098,321.441,199.220,159.400,58.940
735,48825.288000,173.451,56.220,147.456,408.377,-147.103,330.434,222.220,92.400,46.940
736,48825.306000,169.520,64.251,148.480,402.719,-145.404,327.478,169.220,2.400,73.940
737,48825.346000,191.140,57.224,155.648,406.481,-147.167,328.441,36.220,-19.600,136.940
738,48825.388000,183.278,60.235,155.648,402.597,-154.526,329.273,1.220,-44.600,164.940
739,48825.428000,181.313,57.224,165.888,401.607,-157.365,325.232,-16.780,-121.600,201.940
740,48825.468000,186.226,52.204,153.600,406.358,-155.529,322.295,-47.780,-216.600,218.940
741,48825.509000,191.140,44.173,142.336,406.182,-167.595,314.081,-115.780,-303.600,226.940
742,48825.531000,198.019,37.145,133.120,408.051,-168.623,307.099,-143.780,-350.600,221.940
743,48825.571000,214.726,34.133,138.240,413.569,-179.658,300.904,-203.780,-290.600,179.940
744,48825.606000,217.674,24.094,134.144,411.556,-187.247,288.804,-188.780,-280.600,179.940
745,48825.646000,225.536,21.082,133.120,413.479,-184.551,284.886,-134.780,-280.600,126.940
746,48825.691000,230.449,24.094,128.000,417.217,-187.367,278.864,-96.780,-259.600,73.940
747,48825.746000,226.518,28.110,125.952,418.078,-192.968,272.778,-12.780,-214.600,36.940
748,48825.774000,202.933,11.043,98.304,418.996,-194.827,270.751,189.220,-199.600,82.940
749,48825.791000,229.466,22.086,115.712,419.012,-193.872,272.760,244.220,-22.600,112.940
750,48825.831000,231.432,37.145,122.880,414.236,-197.540,275.659,441.220,109.400,35.940
751,48825.872000,219.639,38.149,116.736,411.607,-182.803,281.937,458.220,164.400,4.940
752,48825.912000,234.380,43.169,118.784,410.669,-182.718,286.910,329.220,195.400,-5.060
753,48825.951000,230.449,50.196,115.712,410.746,-177.961,295.963,122.220,91.400,-34.060
754,48825.988000,223.570,48.188,99.328,407.951,-174.412,292.056,-18.780,-52.600,-66.060
755,48826.9000,225.536,57.224,93.184,413.679,-170.673,292.144,-119.780,-90.600,-117.060
756,48826.51000,220.622,47.184,92.160,413.634,-173.499,288.105,-320.780,-58.600,-113.060
757,48826.91000,223.570,42.165,90.112,414.512,-178.145,284.029,-376.780,5.400,-81.060
758,48826.131000,240.276,31.122,110.592,413.459,-185.565,279.891,-455.780,-12.600,-53.060
759,48826.169000,232.415,40.157,129.024,414.391,-186.488,278.878,-399.780,7.400,-43.060
760,48826.214000,236.345,34.133,125.952,414.370,-187.502,273.883,-312.780,-20.600,-15.060
761,48826.244000,237.328,36.141,135.168,416.159,-194.845,271.741,-304.780,40.400,5.940
762,48826.272000,206.864,37.145,141.312,414.245,-196.663,273.688,-223.780,40.400,15.940
763,48826.311000,216.691,42.165,143.360,413.184,-204.940,272.516,-103.780,102.400,-2.060
764,48826.349000,204.898,26.102,147.456,407.524,-204.041,275.511,-147.780,95.400,39.940
765,48826.391000,226.518,25.098,152.576,404.696,-203.182,274.530,-31.780,110.400,0.940
766,48826.431000,206.864,12.047,147.456,405.611,-205.840,278.453,121.220,79.400,-28.060
767,48826.467000,163.624,16.063,137.216,402.872,-199.327,285.550,221.220,39.400,-83.060
768,48826.492000,181.313,30.118,133.120,404.827,-194.722,285.651,268.220,21.400,-123.060
769,48826.527000,195.071,31.122,142.336,404.823,-195.540,290.607,189.220,93.400,-103.060
770,48826.572000,223.570,32.125,147.456,404.853,-193.650,293.631,57.220,67.400,-55.060
771,48826.612000,213.743,36.141,144.384,401.132,-189.099,294.717,28.220,106.400,-12.060
772,48826.651000,210.795,39.153,148.480,400.112,-194.589,295.594,37.220,133.400,17.940
773,48826.692000,186.226,36.141,149.504,399.235,-189.943,299.670,15.220,127.400,50.940
774,48826.712000,166.572,23.090,154.624,394.482,-191.799,301.612,-45.780,117.400,106.940
775,48826.752000,162.641,18.071,153.600,392.544,-195.430,304.516,7.220,42.400,155.940
776,48826.792000,169.520,25.098,141.312,388.743,-196.435,302.500,75.220,-72.600,164.940
777,48826.838000,202.933,30.118,137.216,388.654,-202.867,301.368,35.220,-106.600,158.940
778,48826.867000,237.328,34.133,136.192,389.536,-207.455,300.277,-2.780,-122.600,126.940
779,48826.907000,246.173,49.192,125.952,390.554,-201.985,298.406,-46.780,-92.600,19.940
780,48826.927000,243.225,49.192,132.096,394.195,-212.090,294.218,-206.780,-43.600,-78.060
781,48826.977000,228.484,45.176,128.000,391.353,-212.167,292.223,-260.780,-14.600,-125.060
782,48827.23000,191.140,26.102,128.000,391.412,-207.625,290.330,-319.780,55.400,-52.060
783,48827.48000,193.106,17.067,141.312,389.367,-218.663,289.098,-193.780,170.400,44.940
784,48827.89000,187.209,10.039,140.288,385.680,-212.183,295.198,34.220,195.400,145.940
785,48827.128000,197.036,16.063,131.072,381.833,-217.574,303.034,215.220,213.400,200.940
786,48827.173000,208.829,34.133,139.264,373.337,-216.673,308.014,158.220,237.400,206.940
787,48827.193000,206.864,28.110,146.432,367.606,-221.211,313.877,57.220,219.400,215.940
788,48827.237000,188.192,7.027,155.648,361.909,-223.060,316.813,-14.780,251.400,265.940
789,48827.273000,191.140,15.059,179.200,354.184,-234.972,321.521,67.220,254.400,257.940
790,48827.313000,196.054,11.043,176.128,349.556,-227.667,323.659,106.220,150.400,196.940
791,48827.348000,240.276,23.090,178.176,348.594,-229.394,329.589,146.220,122.400,190.940
792,48827.388000,208.829,4.016,174.080,341.874,-236.772,331.411,98.220,116.400,194.940
793,48827.409000,202.933,6.024,166.912,339.052,-235.835,334.411,105.220,81.400,145.940
794,48827.451000,188.192,1.004,152.576,338.093,-236.763,334.390,88.220,44.400,92.940
795,48827.491000,197.036,1.004,159.744,334.310,-236.794,335.378,25.220,57.400,16.940
796,48827.531000,203.916,12.047,155.648,332.470,-233.115,337.443,118.220,60.400,-64.060
797,48827.572000,200.967,25.098,153.600,333.470,-229.399,339.513,129.220,54.400,-135.060
798,48827.611000,199.002,20.078,150.528,333.489,-228.405,343.513,17.220,15.400,-161.060
799,48827.648000,194.088,12.047,148.480,336.398,-222.929,340.650,-33.780,-5.600,-105.060
800,48827.671000,176.399,7.027,150.528,339.112,-232.053,340.459,-46.780,-28.600,21.940
801,48827.708000,174.434,4.016,159.744,339.126,-231.117,341.474,14.220,-46.600,97.940
802,48827.749000,165.589,2.008,165.888,338.202,-229.337,339.521,131.220,-78.600,114.940
803,48827.791000,199.002,21.082,167.936,335.409,-226.528,344.550,274.220,-75.600,52.940
804,48827.831000,207.846,16.063,191.488,338.357,-218.284,342.741,238.220,-45.600,26.940
805,48827.872000,190.157,34.133,179.200,340.313,-213.659,343.837,268.220,-64.600,-51.060
806,48827.904000,181.313,44.173,171.008,339.469,-206.323,344.986,214.220,-94.600,-163.060
807,48827.932000,172.468,59.231,166.912,343.217,-209.022,344.934,61.220,-112.600,-252.060
808,48827.973000,197.036,47.184,171.008,349.947,-200.767,341.141,-71.780,-143.600,-250.060
809,48828.14000,190.157,32.125,144.384,354.620,-204.467,336.096,-155.780,-213.600,-181.060
810,48828.53000,204.898,20.078,145.408,359.366,-202.689,330.173,-292.780,-218.600,-68.060
811,48828.94000,206.864,21.082,145.408,360.183,-211.896,326.995,-190.780,-187.600,-26.060
812,48828.108000,215.708,30.118,143.360,370.659,-206.359,322.155,-30.780,-114.600,-60.060
813,48828.148000,218.656,34.133,140.288,369.773,-201.811,321.256,46.220,-45.600,-102.060
814,48828.197000,208.829,45.176,148.480,369.698,-207.308,321.138,-32.780,5.400,-106.060
815,48828.232000,199.985,32.125,148.480,371.719,-198.082,323.327,-69.780,-2.600,-20.060
816,48828.283000,196.054,18.071,143.360,370.700,-202.793,317.258,-51.780,-85.600,145.940
817,48828.312000,200.967,2.008,136.192,371.586,-207.341,318.157,-47.780,-150.600,254.940
818,48828.348000,205.881,5.020,134.144,368.628,-215.702,313.996,56.220,-188.600,309.940
819,48828.368000,217.674,2.008,137.216,368.614,-216.638,312.981,62.220,-178.600,288.940
820,48828.412000,218.656,1.004,137.216,373.251,-223.066,308.873,163.220,-170.600,219.940
821,48828.448000,211.777,-6.024,135.168,372.356,-219.395,309.944,125.220,-165.600,153.940
822,48828.494000,209.812,-11.043,140.288,373.228,-224.879,309.829,129.220,-157.600,106.940
823,48828.534000,204.898,-11.043,137.216,376.062,-224.900,306.849,194.220,-165.600,60.940
824,48828.573000,207.846,-2.008,132.096,373.388,-212.989,309.087,284.220,-87.600,9.940
825,48828.593000,194.088,5.020,141.312,380.088,-207.404,309.216,351.220,-44.600,-3.060
826,48828.629000,179.347,8.031,105.472,381.105,-202.714,314.291,347.220,-196.600,26.940
827,48828.676000,169.520,35.137,97.280,385.922,-196.258,313.441,378.220,-157.600,-4.060
828,48828.717000,254.035,81.318,119.808,387.000,-187.006,317.618,515.220,21.400,-96.060
829,48828.752000,285.482,81.318,144.384,380.417,-184.306,319.655,116.220,126.400,-256.060
830,48828.792000,288.430,87.341,151.552,388.007,-183.212,323.668,-99.780,184.400,-320.060
831,48828.832000,230.449,60.235,138.240,385.269,-175.901,324.814,-214.780,126.400,-267.060
832,48828.852000,193.106,25.098,130.048,392.874,-173.091,322.896,-253.780,26.400,-98.060
833,48828.891000,184.261,44.173,118.784,389.060,-175.012,320.860,-222.780,-71.600,-118.060
834,48828.936000,197.036,63.247,118.784,395.653,-176.835,316.852,-105.780,-104.600,-304.060
835,48828.969000,217.674,63.247,122.880,394.802,-169.577,314.022,-169.780,-81.600,-400.060
836,48829.11000,220.622,64.251,130.048,400.549,-164.064,311.163,-297.780,-76.600,-405.060
837,48829.49000,220.622,58.227,124.928,404.321,-164.170,303.210,-331.780,-124.600,-317.060
838,48829.69000,220.622,43.169,125.952,410.905,-166.870,301.173,-309.780,-62.600,-153.060
839,48829.109000,219.639,38.149,135.168,409.983,-165.050,301.210,-207.780,-14.600,-11.060
840,48829.152000,213.743,49.192,137.216,412.651,-177.020,295.986,-63.780,-10.600,-21.060
841,48829.214000,212.760,52.204,130.048,409.066,-162.412,296.292,-4.780,-15.600,-28.060
842,48829.229000,204.898,56.220,126.976,412.744,-170.549,299.108,-21.780,-51.600,-15.060
843,48829.277000,201.950,52.204,133.120,412.741,-170.588,297.118,-52.780,-31.600,14.940
844,48829.292000,207.846,49.192,135.168,412.792,-166.904,298.191,-76.780,-59.600,51.940
845,48829.332000,202.933,42.165,135.168,411.739,-174.323,294.053,-85.780,-43.600,96.940
846,48829.378000,201.950,36.141,133.120,409.881,-171.639,292.118,-95.780,-40.600,94.940
847,48829.413000,195.071,35.137,132.096,414.582,-173.467,289.102,-75.780,-46.600,28.940
848,48829.453000,202.933,47.184,140.288,415.491,-176.203,289.045,-63.780,-63.600,-68.060
849,48829.494000,207.846,47.184,138.240,414.493,-179.900,287.970,-40.780,-127.600,-138.060
850,48829.534000,222.587,49.192,134.144,420.266,-172.554,285.151,-156.780,-154.600,-198.060
851,48829.554000,237.328,39.153,134.144,423.056,-175.402,278.132,-132.780,-167.600,-151.060
852,48829.594000,215.708,22.086,129.024,425.033,-169.003,276.282,-58.780,-103.600,-40.060
853,48829.633000,197.036,19.075,132.096,426.836,-175.410,275.154,20.220,17.400,52.940
854,48829.674000,198.019,41.161,129.024,425.936,-172.577,280.186,239.220,112.400,43.940
855,48829.714000,207.846,44.173,135.168,421.309,-165.252,283.319,305.220,182.400,1.940
856,48829.754000,226.518,58.227,134.144,420.439,-160.527,291.375,347.220,158.400,-72.060
857,48829.774000,228.484,55.216,135.168,416.723,-155.919,295.447,281.220,115.400,-120.060
858,48829.814000,214.726,54.212,124.928,423.507,-144.720,301.663,244.220,27.400,-136.060
859,48829.854000,203.916,58.227,120.832,418.739,-147.512,302.591,199.220,-31.600,-160.060
860,48829.894000,190.157,70.275,121.856,421.697,-138.391,298.811,188.220,-90.600,-200.060
861,48829.937000,185.244,78.306,121.856,429.319,-134.607,299.897,56.220,-133.600,-270.060
862,48829.976000,195.071,88.345,132.096,430.383,-125.511,296.114,-76.780,-120.600,-333.060
863,48830.13000,206.864,92.361,126.976,432.375,-117.397,288.332,-259.780,-210.600,-359.060
864,48830.39000,215.708,87.341,125.952,437.138,-114.664,284.419,-406.780,-268.600,-353.060
865,48830.77000,215.708,78.306,111.616,446.542,-117.541,271.441,-469.780,-345.600,-298.060
866,48830.121000,218.656,74.290,101.376,453.201,-113.965,262.576,-451.780,-361.600,-223.060
867,48830.156000,222.587,74.290,103.424,455.071,-114.973,256.589,-390.780,-280.600,-173.060
868,48830.191000,214.726,73.286,108.544,456.845,-122.492,245.491,-234.780,-197.600,-117.060
869,48830.231000,220.622,83.325,108.544,458.784,-118.841,243.582,-156.780,-128.600,-48.060
870,48830.251000,216.691,78.306,115.712,462.430,-128.888,242.379,-153.780,-44.600,32.940
871,48830.291000,211.777,79.310,128.000,459.640,-125.281,241.457,-30.780,11.400,162.940
872,48830.338000,207.846,82.322,131.072,455.792,-129.912,241.353,26.220,21.400,222.940
873,48830.378000,215.708,80.314,133.120,457.552,-139.905,244.127,102.220,30.400,261.940
874,48830.414000,205.881,78.306,132.096,456.608,-139.898,245.120,212.220,6.400,300.940
875,48830.454000,208.829,69.271,133.120,451.828,-143.606,246.029,218.220,-30.600,316.940
876,48830.474000,218.656,64.251,133.120,448.955,-146.353,247.955,279.220,-40.600,310.940
877,48830.513000,204.898,47.184,129.024,445.048,-155.525,249.743,261.220,-35.600,306.940
878,48830.552000,195.071,42.165,119.808,445.021,-157.377,248.709,270.220,-79.600,274.940
879,48830.593000,195.071,41.161,107.520,441.142,-163.918,244.586,248.220,-82.600,207.940
880,48830.633000,192.123,38.149,102.400,442.018,-169.344,247.456,205.220,-88.600,137.940
881,48830.673000,191.140,29.114,88.064,441.211,-159.259,248.664,134.220,-138.600,71.940
882,48830.713000,220.622,30.118,89.088,443.002,-166.583,247.516,45.220,-17.600,55.940
883,48830.739000,243.225,32.125,104.448,437.404,-161.102,250.608,7.220,109.400,72.940
884,48830.774000,259.931,36.141,103.424,435.440,-166.585,252.478,68.220,240.400,87.940
885,48830.813000,254.035,45.176,114.688,428.885,-162.014,256.544,-2.780,334.400,37.940
886,48830.871000,251.086,47.184,116.736,421.320,-162.815,267.457,-33.780,376.400,-3.060
887,48830.893000,228.484,36.141,108.544,419.466,-160.852,275.453,-135.780,368.400,-26.060
888,48830.938000,206.864,33.129,120.832,411.823,-166.410,277.313,-136.780,346.400,-20.060
889,48830.954000,213.743,42.165,117.760,411.846,-165.377,283.302,31.220,232.400,-29.060
890,48830.996000,207.846,46.180,123.904,411.867,-164.363,288.297,-61.780,188.400,-30.060
891,48831.36000,211.777,52.204,129.024,407.059,-169.942,287.177,-141.780,138.400,-35.060
892,48831.76000,215.708,58.227,129.024,406.167,-166.231,290.238,-156.780,120.400,-72.060
893,48831.112000,211.777,56.220,133.120,404.160,-174.521,289.064,-301.780,145.400,-95.060
894,48831.153000,216.691,57.224,143.360,403.244,-172.643,292.087,-307.780,162.400,-103.060
895,48831.202000,206.864,46.180,139.264,404.128,-177.211,291.991,-271.780,131.400,-79.060
896,48831.217000,200.967,41.161,141.312,403.191,-176.346,290.019,-296.780,88.400,-33.060
897,48831.257000,197.036,37.145,138.240,399.341,-180.996,288.919,-260.780,0.400,28.940
898,48831.304000,195.071,36.141,137.216,399.285,-184.739,284.861,-202.780,-30.600,52.940
899,48831.332000,195.071,31.122,131.072,400.115,-193.011,282.697,-159.780,-38.600,65.940
900,48831.381000,215.708,38.149,131.072,398.194,-194.907,280.664,-217.780,-16.600,42.940
901,48831.416000,218.656,44.173,131.072,401.019,-195.805,279.655,-307.780,29.400,27.940
902,48831.436000,204.898,31.122,129.024,395.199,-206.016,276.445,-414.780,86.400,67.940
903,48831.481000,201.950,15.059,139.264,395.045,-217.049,274.221,-522.780,131.400,111.940
904,48831.517000,209.812,9.035,144.384,393.024,-226.274,272.032,-486.780,161.400,131.940
905,48831.557000,217.674,12.047,145.408,388.229,-230.937,270.931,-462.780,174.400,80.940
906,48831.597000,204.898,-4.016,150.528,384.404,-233.755,269.871,-462.780,141.400,43.940
907,48831.637000,211.777,-1.004,147.456,383.421,-235.736,262.865,-400.780,97.400,8.940
908,48831.657000,203.916,-1.004,143.360,383.279,-245.872,259.665,-425.780,54.400,-41.060
909,48831.697000,207.846,-5.020,141.312,386.084,-247.764,254.656,-467.780,48.400,-67.060
910,48831.737000,204.898,-3.012,143.360,386.088,-246.946,249.700,-531.780,87.400,-124.060
911,48831.784000,196.054,-5.020,157.696,385.000,-257.094,246.498,-462.780,136.400,-178.060
912,48831.812000,183.278,-18.071,164.864,386.976,-250.695,244.648,-386.780,140.400,-175.060
913,48831.857000,193.106,-24.094,171.008,388.791,-256.206,242.544,-230.780,99.400,-133.060
914,48831.897000,196.054,-23.090,168.960,388.882,-249.754,244.671,-101.780,39.400,-98.060
915,48831.917000,203.916,-16.063,165.888,387.859,-255.283,243.557,43.220,-5.600,-79.060
916,48831.957000,211.777,-18.071,167.936,388.946,-245.154,245.764,218.220,-44.600,-39.060
917,48831.997000,211.777,-8.031,162.816,387.060,-245.101,249.741,263.220,-33.600,-30.060
918,48832.37000,209.812,-6.024,164.864,389.965,-240.444,251.833,425.220,-3.600,-66.060
919,48832.72000,197.036,-7.027,163.840,392.899,-233.896,256.950,460.220,-6.600,-106.060
920,48832.112000,194.088,0.000,165.888,397.743,-226.368,264.080,514.220,-53.600,-133.060
921,48832.143000,185.244,6.024,166.912,397.862,-218.044,268.236,521.220,-106.600,-165.060
922,48832.172000,182.296,10.039,162.816,402.709,-209.698,270.410,518.220,-141.600,-168.060
923,48832.212000,181.313,20.078,152.576,413.313,-195.740,274.701,478.220,-210.600,-151.060
924,48832.253000,188.192,13.051,146.432,413.333,-193.966,271.755,357.220,-258.600,-39.060
925,48832.293000,199.002,3.012,145.408,415.352,-184.761,272.949,376.220,-253.600,97.940
926,48832.333000,209.812,24.094,133.120,417.257,-183.819,272.971,528.220,-205.600,229.940
927,48832.354000,173.451,55.216,114.688,419.234,-177.421,271.121,576.220,-139.600,173.940
928,48832.401000,177.382,70.275,109.568,419.310,-172.684,279.179,517.220,-112.600,73.940
929,48832.436000,203.916,94.369,134.144,423.220,-163.472,279.381,358.220,18.400,-56.060
930,48832.491000,224.553,82.322,135.168,422.270,-164.303,284.335,235.220,49.400,-72.060
931,48832.518000,232.415,70.275,142.336,424.164,-164.259,285.334,141.220,107.400,15.940
932,48832.553000,204.898,66.259,141.312,423.360,-154.135,288.532,194.220,76.400,91.940
933,48832.601000,217.674,62.243,136.192,422.259,-165.960,293.252,203.220,21.400,119.940
934,48832.616000,204.898,71.278,132.096,422.450,-152.179,295.535,219.220,-12.600,45.940
935,48832.656000,198.019,74.290,128.000,424.274,-156.813,291.460,187.220,-80.600,-56.060
936,48832.697000,192.123,73.286,118.784,424.321,-153.187,289.548,100.220,-112.600,-119.060
937,48832.743000,221.605,65.255,120.832,426.376,-141.253,289.805,-1.780,-95.600,-116.060
938,48832.778000,221.605,59.231,129.024,431.054,-144.894,287.745,-97.780,-85.600,-36.060
939,48832.813000,225.536,57.224,135.168,429.172,-144.022,286.766,-38.780,-7.600,76.940
940,48832.841000,209.812,55.216,131.072,430.056,-148.590,286.671,-6.780,18.400,124.940
941,48832.876000,204.898,51.200,130.048,427.084,-157.887,281.495,3.220,29.400,147.940
942,48832.917000,201.950,51.200,134.144,424.239,-158.762,285.451,103.220,11.400,142.940
943,48832.954000,203.916,53.208,136.192,423.358,-154.155,287.537,129.220,-14.600,129.940
944,48833.1000,200.967,52.204,131.072,425.188,-158.711,287.443,155.220,-64.600,127.940
945,48833.51000,201.950,52.204,131.072,426.179,-155.872,291.483,173.220,-92.600,124.940
946,48833.58000,202.933,51.200,132.096,429.908,-159.564,287.431,188.220,-126.600,115.940
947,48833.98000,201.950,47.184,135.168,423.348,-155.052,288.512,156.220,-147.600,85.940
948,48833.141000,214.726,56.220,138.240,424.200,-161.530,284.397,138.220,-184.600,46.940
949,48833.178000,224.553,50.196,135.168,431.878,-153.243,281.601,130.220,-223.600,17.940
950,48833.218000,220.622,37.145,123.904,431.848,-155.134,278.577,155.220,-224.600,38.940
951,48833.257000,209.812,43.169,115.712,437.624,-147.750,277.748,225.220,-185.600,53.940
952,48833.297000,214.726,43.169,112.640,437.571,-151.453,275.680,310.220,-107.600,108.940
953,48833.318000,210.795,48.188,116.736,434.769,-148.742,275.733,299.220,-17.600,80.940
954,48833.353000,218.656,64.251,121.856,435.824,-141.303,280.866,322.220,-8.600,16.940
955,48833.427000,223.570,66.259,119.808,436.759,-142.187,281.843,356.220,-11.600,-39.060
956,48833.444000,215.708,64.251,108.544,437.804,-134.865,281.006,328.220,-83.600,-69.060
957,48833.478000,211.777,66.259,107.520,438.877,-125.672,282.198,247.220,-166.600,-81.060
958,48833.532000,207.846,74.290,101.376,444.598,-122.010,278.306,205.220,-228.600,-58.060
959,48833.541000,207.846,73.286,103.424,447.443,-121.135,274.350,130.220,-241.600,-70.060
960,48833.576000,212.760,79.310,100.352,453.129,-119.423,264.449,17.220,-257.600,-67.060
961,48833.614000,211.777,78.306,102.400,454.024,-123.094,263.377,-39.780,-261.600,-63.060
962,48833.654000,225.536,78.306,99.328,456.879,-121.322,258.446,-124.780,-261.600,-53.060
963,48833.698000,229.466,66.259,95.232,457.823,-120.569,249.512,-221.780,-301.600,26.940
964,48833.759000,234.380,59.231,91.136,465.271,-128.831,243.379,-236.780,-303.600,83.940
965,48833.774000,232.415,55.216,91.136,467.156,-128.124,231.461,-282.780,-325.600,134.940
966,48833.794000,235.363,56.220,87.040,467.873,-143.881,221.181,-121.780,-292.600,155.940
967,48833.834000,235.363,49.192,81.920,468.790,-145.760,218.158,12.220,-263.600,168.940
968,48833.874000,235.363,46.180,75.776,464.016,-148.629,215.106,193.220,-181.600,183.940
969,48833.914000,238.311,49.192,71.680,468.817,-143.128,212.246,292.220,-137.600,168.940
970,48833.954000,231.432,51.200,64.512,469.737,-144.968,211.214,284.220,-136.600,169.940
971,48833.994000,233.397,50.196,65.536,471.622,-145.800,214.183,254.220,-80.600,155.940
972,48834.19000,243.225,51.200,68.608,466.804,-152.256,215.033,257.220,-33.600,157.940
973,48834.58000,241.259,49.192,73.728,464.033,-147.654,218.111,246.220,-5.600,163.940
974,48834.94000,243.225,45.176,66.560,461.080,-155.957,216.935,272.220,48.400,135.940
975,48834.157000,239.294,50.196,72.704,462.083,-152.202,220.995,307.220,105.400,137.940
976,48834.177000,239.294,48.188,74.752,464.051,-147.440,229.056,349.220,84.400,126.940
977,48834.219000,242.242,56.220,74.752,457.386,-151.094,233.942,285.220,98.400,109.940
978,48834.247000,239.294,61.239,75.776,456.435,-151.925,238.896,398.220,108.400,113.940
979,48834.274000,240.276,63.247,75.776,449.941,-142.793,242.065,400.220,77.400,63.940
980,48834.314000,237.328,71.278,74.752,450.919,-140.870,246.086,378.220,62.400,47.940
981,48834.354000,227.501,80.314,70.656,451.799,-146.257,250.945,311.220,31.400,25.940
982,48834.397000,226.518,79.310,66.560,452.923,-133.379,253.210,185.220,-4.600,14.940
983,48834.437000,221.605,73.286,73.728,453.846,-135.180,254.168,45.220,-22.600,23.940
984,48834.477000,234.380,78.306,77.824,448.051,-143.558,250.997,-165.780,-11.600,-12.060
985,48834.497000,243.225,71.278,76.800,449.024,-141.694,252.033,-205.780,24.400,-5.060
986,48834.538000,223.570,61.239,86.016,452.659,-152.638,251.805,-278.780,64.400,-27.060
987,48834.579000,221.605,49.192,86.016,448.045,-144.396,254.958,-254.780,95.400,-7.060
988,48834.619000,207.846,26.102,90.112,447.938,-151.804,250.822,-317.780,130.400,12.940
989,48834.658000,201.950,28.110,84.992,443.173,-154.575,252.745,-208.780,68.400,2.940
990,48834.703000,209.812,34.133,83.968,441.333,-150.897,254.810,-136.780,65.400,-18.060
991,48834.724000,237.328,26.102,91.136,438.377,-159.238,251.644,-110.780,82.400,-4.060
992,48834.759000,256.000,30.118,93.184,440.248,-161.006,253.598,-52.780,28.400,24.940
993,48834.799000,263.862,38.149,92.160,440.280,-158.317,250.672,16.220,27.400,22.940
994,48834.838000,245.190,36.141,86.016,434.631,-156.520,252.691,6.220,-55.600,43.940
995,48834.879000,232.415,33.129,79.872,439.207,-167.510,249.480,-41.780,-114.600,49.940
996,48834.921000,226.518,31.122,70.656,441.182,-161.130,246.635,-82.780,-148.600,52.940
997,48834.961000,224.553,32.125,70.656,438.248,-167.678,241.518,-118.780,-124.600,68.940
998,48834.977000,228.484,32.125,80.896,441.989,-170.455,237.486,-157.780,-100.600,68.940
999,48835.23000,237.328,37.145,79.872,441.077,-167.758,235.552,-173.780,-91.600,43.940
1000,48835.58000,244.207,35.137,79.872,438.138,-175.125,235.391,-160.780,-20.600,30.940
1001,48835.97000,239.294,30.118,79.872,439.068,-176.067,233.383,-241.780,-3.600,2.940
1002,48835.139000,240.276,32.125,79.872,435.201,-181.692,229.279,-207.780,-36.600,-36.060
1003,48835.181000,235.363,30.118,81.920,437.990,-185.319,229.206,-297.780,-44.600,-57.060
1004,48835.201000,239.294,29.114,83.968,439.016,-178.991,224.369,-297.780,-35.600,-73.060
1005,48835.239000,246.173,25.098,80.896,438.904,-186.457,217.248,-236.780,-68.600,-18.060
1006,48835.281000,240.276,19.075,79.872,441.700,-189.226,214.209,-266.780,-84.600,-8.060
1007,48835.321000,241.259,15.059,78.848,442.708,-184.653,213.313,-72.780,-110.600,24.940
1008,48835.356000,238.311,14.055,75.776,444.513,-191.041,213.180,12.220,-136.600,18.940
1009,48835.396000,241.259,17.067,77.824,444.531,-189.287,209.239,111.220,-164.600,35.940
1010,48835.416000,243.225,20.078,76.800,444.615,-182.913,207.385,258.220,-217.600,91.940
1011,48835.456000,239.294,11.043,81.920,447.421,-184.805,202.376,271.220,-214.600,137.940
1012,48835.496000,245.190,40.157,70.656,447.342,-190.341,200.269,441.220,-236.600,154.940
1013,48835.541000,238.311,20.078,63.488,444.607,-183.010,202.410,435.220,-255.600,121.940
1014,48835.581000,240.276,26.102,56.320,453.170,-179.272,200.513,318.220,-232.600,28.940
1015,48835.619000,240.276,24.094,55.296,453.092,-184.808,198.406,265.220,-198.600,-0.060
1016,48835.661000,249.121,27.106,51.200,453.129,-182.060,198.464,242.220,-164.600,-8.060
1017,48835.681000,247.155,30.118,54.272,456.908,-182.088,194.491,234.220,-151.600,-4.060
1018,48835.721000,248.138,31.122,44.032,456.958,-178.423,194.569,191.220,-180.600,-12.060
1019,48835.763000,241.259,37.145,40.960,458.946,-171.128,191.743,75.220,-164.600,-38.060
1020,48835.796000,248.138,25.098,34.816,464.606,-172.027,188.748,89.220,-96.600,-61.060
1021,48835.839000,247.155,32.125,41.984,468.480,-165.545,189.887,107.220,-126.600,-84.060
1022,48835.876000,248.138,36.141,39.936,469.425,-165.552,188.893,158.220,-13.600,-77.060
1023,48835.903000,252.069,35.137,40.960,467.548,-164.622,190.900,183.220,6.400,-65.060
1024,48835.947000,241.259,36.141,40.960,464.649,-169.220,191.792,226.220,24.400,-50.060
1025,48835.998000,244.207,37.145,48.128,465.741,-159.033,196.984,206.220,36.400,-53.060
1026,48836.23000,244.207,40.157,44.032,470.533,-154.409,196.095,271.220,14.400,-48.060
1027,48836.58000,241.259,43.169,41.984,469.565,-156.215,198.044,230.220,-5.600,-25.060
1028,48836.97000,244.207,41.161,44.032,469.668,-148.847,200.190,211.220,8.400,-34.060
1029,48836.142000,241.259,40.157,39.936,472.566,-145.047,205.249,198.220,1.400,-36.060
1030,48836.161000,247.155,48.188,43.008,472.561,-145.106,202.263,166.220,24.400,-68.060
1031,48836.196000,243.225,48.188,44.032,471.734,-136.795,206.418,117.220,66.400,-89.060
1032,48836.244000,241.259,50.196,47.104,471.735,-136.775,207.413,147.220,77.400,-93.060
1033,48836.291000,242.242,53.208,51.200,472.788,-129.356,211.551,159.220,131.400,-107.060
1034,48836.319000,241.259,49.192,52.224,474.732,-126.426,219.573,101.220,126.400,-88.060
1035,48836.367000,239.294,57.224,51.200,469.007,-130.127,221.475,177.220,115.400,-76.060
1036,48836.397000,238.311,59.231,51.200,472.912,-121.754,225.638,198.220,138.400,-70.060
1037,48836.429000,237.328,60.235,53.248,470.092,-120.797,229.632,177.220,113.400,-57.060
1038,48836.463000,239.294,60.235,53.248,470.192,-113.468,229.788,155.220,81.400,-42.060
1039,48836.497000,240.276,59.231,52.224,470.250,-109.706,234.842,114.220,64.400,-48.060
1040,48836.556000,242.242,60.235,50.176,473.091,-109.649,235.842,121.220,58.400,-56.060
1041,48836.577000,238.311,63.247,54.272,473.132,-106.861,237.890,111.220,68.400,-64.060
1042,48836.603000,237.328,61.239,52.224,472.224,-104.106,238.942,77.220,71.400,-59.060
1043,48836.647000,238.311,62.243,51.200,469.380,-104.981,242.898,65.220,71.400,-60.060
1044,48836.716000,234.380,63.247,51.200,472.294,-99.447,243.020,36.220,42.400,-59.060
1045,48836.733000,231.432,69.271,50.176,474.215,-97.551,245.053,41.220,6.400,-45.060
1046,48836.761000,238.311,61.239,53.248,474.175,-100.319,243.999,100.220,19.400,-48.060
1047,48836.803000,240.276,67.263,48.128,475.230,-92.880,249.132,154.220,39.400,-80.060
1048,48836.841000,239.294,64.251,49.152,472.377,-93.853,248.113,255.220,92.400,-86.060
1049,48836.861000,239.294,70.275,53.248,470.673,-80.896,256.343,316.220,188.400,-84.060
1050,48836.901000,235.363,78.306,59.392,470.734,-77.095,263.386,343.220,244.400,-64.060
1051,48836.939000,231.432,81.318,60.416,465.152,-70.659,268.488,306.220,256.400,-52.060
1052,48836.978000,231.432,87.341,56.320,462.336,-69.663,274.473,250.220,213.400,-34.060
1053,48837.17000,235.363,93.365,62.464,463.372,-63.978,283.547,166.220,179.400,-13.060
1054,48837.62000,230.449,93.365,64.512,458.566,-69.538,283.422,78.220,115.400,16.940
1055,48837.86000,227.501,90.353,62.464,460.491,-66.823,280.499,-10.780,34.400,36.940
1056,48837.121000,226.518,83.325,58.368,459.562,-65.861,283.502,-31.780,-2.600,50.940
1057,48837.159000,230.449,81.318,57.344,461.389,-70.455,281.417,-28.780,-21.600,65.940
1058,48837.202000,233.397,84.329,60.416,459.509,-69.564,281.433,-49.780,-38.600,79.940
1059,48837.237000,235.363,81.318,62.464,461.280,-78.662,283.232,-46.780,-12.600,77.940
1060,48837.291000,235.363,80.314,63.488,458.466,-76.867,283.266,-52.780,4.400,64.940
1061,48837.324000,229.466,77.302,65.536,456.611,-74.143,283.321,-17.780,-8.600,72.940
1062,48837.341000,237.328,76.298,62.464,458.425,-79.654,281.217,10.220,-20.600,83.940
1063,48837.388000,232.415,74.290,60.416,456.480,-83.363,280.141,19.220,-26.600,90.940
1064,48837.437000,236.345,74.290,61.440,456.504,-81.551,279.185,48.220,-32.600,100.940
1065,48837.459000,234.380,69.271,60.416,458.234,-93.435,278.934,91.220,-34.600,105.940
1066,48837.498000,230.449,68.267,59.392,457.302,-92.512,279.947,87.220,-33.600,107.940
1067,48837.543000,236.345,66.259,59.392,453.613,-85.272,278.107,105.220,-17.600,113.940
1068,48837.568000,233.397,66.259,63.488,453.495,-94.355,281.892,123.220,5.400,128.940
1069,48837.616000,238.311,64.251,61.440,451.690,-87.967,282.025,84.220,-1.600,143.940
1070,48837.643000,241.259,63.247,62.464,448.817,-90.714,283.951,66.220,5.400,143.940
1071,48837.683000,238.311,58.227,61.440,450.606,-98.057,281.809,-1.780,3.400,147.940
1072,48837.724000,236.345,66.259,65.536,446.813,-98.965,284.768,-30.780,33.400,210.940
1073,48837.758000,233.397,47.184,72.704,444.810,-107.216,285.584,-189.780,69.400,216.940
1074,48837.784000,235.363,50.196,65.536,446.565,-117.268,285.372,-189.780,54.400,210.940
1075,48837.821000,236.345,46.180,61.440,443.708,-118.280,282.363,-110.780,34.400,181.940
1076,48837.861000,240.276,47.184,61.440,435.102,-124.825,281.216,-121.780,68.400,168.940
1077,48837.901000,243.225,49.192,63.488,436.900,-132.071,284.048,-159.780,19.400,153.940
1078,48837.941000,242.242,41.161,63.488,436.833,-136.710,280.966,-276.780,-37.600,126.940
1079,48837.981000,241.259,34.133,62.464,437.636,-146.833,277.767,-334.780,-81.600,105.940
1080,48838.21000,239.294,29.114,60.416,433.827,-147.936,270.776,-360.780,-94.600,70.940
1081,48838.41000,242.242,27.106,59.392,439.436,-152.520,266.708,-366.780,-86.600,34.940
1082,48838.81000,241.259,26.102,57.344,436.453,-162.713,262.508,-340.780,-80.600,18.940
1083,48838.122000,246.173,24.094,57.344,437.403,-161.882,257.554,-315.780,-54.600,-31.060
1084,48838.162000,246.173,23.090,62.464,436.441,-162.850,255.543,-314.780,-58.600,-26.060
1085,48838.202000,245.190,23.090,63.488,435.365,-172.082,252.361,-281.780,-49.600,-27.060
1086,48838.242000,246.173,25.098,62.464,440.080,-172.975,250.359,-235.780,-28.600,-36.060
1087,48838.262000,246.173,19.075,60.416,434.358,-175.876,246.311,-212.780,-16.600,-28.060
1088,48838.303000,246.173,22.086,59.392,438.208,-171.226,247.410,-171.780,1.400,-22.060
1089,48838.343000,242.242,22.086,63.488,434.337,-177.669,248.262,-145.780,34.400,-17.060
1090,48838.383000,242.242,23.090,67.584,437.145,-179.523,245.243,-116.780,73.400,-21.060
1091,48838.423000,241.259,20.078,66.560,432.487,-174.108,244.356,-216.780,15.400,-46.060
1092,48838.479000,241.259,21.082,64.512,433.430,-174.134,242.368,-224.780,33.400,-63.060
1093,48838.502000,238.311,25.098,64.512,432.441,-177.733,246.268,-155.780,92.400,-73.060
1094,48838.521000,241.259,27.106,66.560,433.351,-180.450,247.206,-103.780,135.400,-74.060
1095,48838.571000,241.259,24.094,75.776,431.548,-174.042,248.335,-147.780,65.400,-66.060
1096,48838.603000,242.242,27.106,77.824,430.546,-177.778,245.270,-219.780,2.400,-49.060
1097,48838.643000,242.242,23.090,71.680,432.401,-180.501,245.215,-217.780,-15.600,-59.060
1098,48838.678000,243.225,29.114,67.584,437.164,-177.768,241.301,-212.780,9.400,-77.060
1099,48838.726000,242.242,30.118,71.680,437.089,-183.265,241.184,-170.780,36.400,-74.060
1100,48838.756000,239.294,25.098,78.848,436.077,-187.897,239.095,-210.780,43.400,-76.060
1101,48838.786000,243.225,28.110,78.848,434.306,-178.800,237.297,-174.780,31.400,-70.060
1102,48838.822000,242.242,22.086,71.680,433.324,-181.542,238.231,-149.780,-1.600,-56.060
1103,48838.862000,236.345,25.098,71.680,435.243,-179.665,239.269,-89.780,2.400,-53.060
1104,48838.903000,238.311,22.086,75.776,438.992,-182.344,240.212,-69.780,-6.600,-45.060
1105,48838.942000,238.311,29.114,76.800,434.217,-185.233,236.165,-63.780,-46.600,-29.060
1106,48838.961000,240.276,24.094,74.752,439.964,-179.719,233.307,-63.780,-66.600,-23.060
1107,48839.3000,240.276,25.098,77.824,438.913,-187.119,230.164,-99.780,-92.600,-23.060
1108,48839.47000,239.294,28.110,71.680,440.804,-187.114,229.172,-85.780,-114.600,-37.060
1109,48839.79000,237.328,17.067,71.680,441.808,-182.579,226.286,-75.780,-107.600,-76.060
1110,48839.119000,243.225,26.102,68.608,443.667,-184.484,221.275,-70.780,-90.600,-79.060
1111,48839.164000,246.173,27.106,68.608,445.519,-187.247,219.230,-42.780,-99.600,-47.060
1112,48839.202000,236.345,29.114,74.752,447.538,-178.041,220.423,-15.780,-76.600,-30.060
1113,48839.222000,238.311,28.110,72.704,449.426,-178.074,217.442,-74.780,-75.600,-68.060
1114,48839.269000,242.242,28.110,65.536,448.446,-180.017,212.426,-78.780,-84.600,-98.060
1115,48839.312000,242.242,25.098,64.512,452.289,-175.445,209.545,-115.780,-70.600,-130.060
1116,48839.339000,243.225,25.098,63.488,451.330,-176.373,209.524,-119.780,1.400,-137.060
1117,48839.382000,239.294,31.122,68.608,455.228,-168.078,209.706,-78.780,101.400,-205.060
1118,48839.424000,241.259,29.114,74.752,452.405,-167.160,211.711,21.220,71.400,-225.060
1119,48839.452000,238.311,44.173,68.608,454.302,-167.077,214.699,42.220,37.400,-205.060
1120,48839.481000,238.311,38.149,68.608,459.172,-156.937,214.922,91.220,2.400,-145.060
1121,48839.523000,236.345,40.157,67.584,459.221,-153.272,215.000,56.220,-3.600,-121.060
1122,48839.563000,236.345,45.176,69.632,455.386,-156.987,214.915,33.220,-24.600,-102.060
1123,48839.603000,237.328,46.180,70.656,459.309,-146.859,215.137,75.220,-7.600,-79.060
1124,48839.643000,238.311,47.184,68.608,462.084,-151.422,214.049,91.220,-2.600,-66.060
1125,48839.684000,240.276,49.192,69.632,464.058,-145.822,218.150,112.220,-5.600,-37.060
1126,48839.699000,236.345,50.196,69.632,461.307,-139.447,218.281,149.220,-5.600,-28.060
1127,48839.739000,236.345,49.192,66.560,462.165,-145.847,218.146,177.220,1.400,-13.060
1128,48839.786000,235.363,52.204,65.536,466.004,-142.094,220.221,202.220,9.400,12.940
1129,48839.823000,236.345,55.216,63.488,467.052,-134.732,221.374,234.220,9.400,10.940
1130,48839.868000,239.294,53.208,62.464,466.993,-139.274,223.267,237.220,0.400,23.940
1131,48839.904000,239.294,52.204,61.440,467.034,-136.487,225.315,242.220,2.400,25.940
1132,48839.924000,239.294,58.227,59.392,465.210,-131.853,229.390,235.220,19.400,21.940
1133,48839.964000,239.294,57.224,63.488,464.312,-128.220,228.471,223.220,21.400,15.940
1134,48840.3000,239.294,58.227,62.464,465.285,-126.356,229.507,213.220,28.400,1.940
1135,48840.48000,238.311,58.227,61.440,467.254,-121.594,237.568,190.220,38.400,-8.060
1136,48840.84000,238.311,60.235,63.488,463.418,-125.309,237.483,183.220,48.400,-27.060
1137,48840.126000,238.311,59.231,65.536,469.198,-117.885,238.645,140.220,58.400,-36.060
1138,48840.146000,238.311,57.224,60.416,467.264,-120.698,236.593,160.220,65.400,-64.060
1139,48840.181000,230.449,63.247,68.608,464.511,-115.121,242.675,202.220,126.400,-103.060
1140,48840.227000,239.294,72.282,70.656,466.527,-106.715,249.819,71.220,118.400,-100.060
1141,48840.261000,234.380,70.275,70.656,466.499,-108.586,247.790,23.220,61.400,-85.060
1142,48840.306000,232.415,67.263,70.656,465.533,-110.372,250.735,-65.780,-4.600,-54.060
1143,48840.342000,232.415,68.267,69.632,465.619,-103.979,249.876,-77.780,-17.600,-34.060
1144,48840.387000,231.432,69.271,71.680,464.610,-108.572,249.777,-74.780,-26.600,-31.060
1145,48840.402000,232.415,64.251,66.560,468.413,-106.768,245.843,-48.780,-24.600,-38.060
1146,48840.444000,232.415,66.259,67.584,469.410,-103.091,245.922,10.220,14.400,-46.060
1147,48840.496000,231.432,66.259,70.656,466.588,-102.153,248.922,40.220,11.400,-48.060
1148,48840.524000,231.432,72.282,69.632,470.411,-99.355,248.987,43.220,8.400,-52.060
