Sample, Time, ACCX, ACCY, ACCZ, MAGX, MAGY, MAGZ, GYRX, GYRY, GYRZ
0,48119.126000,239.294,47.184,65.536,458.657,-128.802,249.338,-1.780,-1.600,-10.060
1,48119.148000,238.311,48.188,66.560,460.607,-124.255,246.453,6.220,2.400,-16.060
2,48119.226000,238.311,48.188,65.536,457.807,-121.524,247.502,8.220,-0.600,-14.060
3,48119.240000,238.311,49.192,66.560,458.714,-124.280,246.450,5.220,-1.600,-14.060
4,48119.261000,238.311,49.192,67.584,461.594,-121.455,248.504,-3.780,-4.600,-5.060
5,48119.301000,239.294,47.184,66.560,460.555,-127.939,245.380,-7.780,-8.600,0.940
6,48119.340000,239.294,48.188,66.560,462.551,-120.546,247.530,-1.780,-8.600,-0.060
7,48119.360000,242.242,48.188,66.560,459.594,-129.666,251.310,-3.780,-12.600,1.940
8,48119.400000,237.328,47.184,66.560,460.609,-124.235,247.449,-6.780,-9.600,5.940
9,48119.440000,239.294,47.184,65.536,462.437,-128.810,246.359,1.220,-8.600,8.940
10,48119.480000,237.328,47.184,65.536,462.442,-128.752,249.344,-5.780,-9.600,8.940
11,48119.521000,239.294,49.192,66.560,459.657,-124.306,244.462,-16.780,-5.600,5.940
12,48119.561000,240.276,46.180,62.464,459.670,-123.390,244.481,-1.780,-9.600,8.940
13,48119.581000,241.259,45.176,62.464,459.689,-122.396,248.481,-5.780,-3.600,6.940
14,48119.621000,239.294,46.180,66.560,460.496,-132.480,247.273,-5.780,1.400,1.940
15,48119.661000,239.294,45.176,64.512,459.648,-125.183,246.432,17.220,12.400,-7.060
16,48119.701000,239.294,46.180,62.464,457.688,-129.847,243.346,-1.780,24.400,-11.060
17,48119.749000,240.276,48.188,63.488,458.732,-123.305,249.455,-27.780,19.400,-13.060
18,48119.781000,241.259,45.176,64.512,460.645,-121.506,246.512,-46.780,25.400,-16.060
19,48119.822000,240.276,44.173,65.536,456.777,-127.911,249.354,-54.780,42.400,-21.060
20,48119.850000,239.294,44.173,65.536,458.698,-126.014,251.386,-54.780,46.400,-29.060
21,48119.880000,240.276,44.173,62.464,455.879,-124.278,248.435,-33.780,56.400,-39.060
22,48119.921000,240.276,47.184,69.632,454.046,-120.521,254.480,-50.780,63.400,-44.060
23,48119.961000,234.380,45.176,73.728,456.848,-123.232,254.427,-28.780,53.400,-42.060
24,48120.10000,236.345,47.184,69.632,457.785,-124.097,256.399,-14.780,44.400,-53.060
25,48120.50000,236.345,49.192,71.680,456.796,-126.916,253.354,-19.780,38.400,-53.060
26,48120.63000,237.328,49.192,72.704,456.899,-119.548,255.500,-31.780,29.400,-48.060
27,48120.106000,237.328,49.192,68.608,454.960,-123.199,257.409,-29.780,23.400,-43.060
28,48120.140000,238.311,48.188,69.632,455.960,-119.483,259.478,-53.780,30.400,-46.060
29,48120.180000,237.328,45.176,68.608,459.767,-117.640,257.534,-55.780,26.400,-40.060
30,48120.220000,237.328,47.184,69.632,456.862,-122.297,255.441,-30.780,36.400,-49.060
31,48120.260000,236.345,49.192,72.704,456.968,-114.890,259.578,-54.780,44.400,-60.060
32,48120.280000,235.363,48.188,69.632,456.917,-118.574,258.505,-53.780,37.400,-69.060
33,48120.320000,239.294,45.176,71.680,455.999,-116.715,260.532,-30.780,56.400,-72.060
34,48120.360000,238.311,47.184,75.776,454.056,-120.404,260.451,-46.780,44.400,-66.060
35,48120.407000,237.328,49.192,74.752,457.948,-112.947,264.594,-49.780,49.400,-60.060
36,48120.440000,228.484,53.208,83.968,454.993,-121.269,262.423,20.220,55.400,-64.060
37,48120.481000,234.380,57.224,88.064,457.003,-112.940,265.587,13.220,64.400,-56.060
38,48120.521000,228.484,60.235,93.184,456.035,-114.746,267.536,-1.780,24.400,-36.060
39,48120.541000,225.536,60.235,88.064,454.105,-117.519,267.475,39.220,1.400,-11.060
40,48120.582000,223.570,57.224,89.088,454.202,-110.229,265.641,49.220,-26.600,5.940
41,48120.622000,223.570,57.224,83.968,453.259,-110.203,267.629,40.220,-62.600,11.940
42,48120.663000,228.484,54.212,79.872,457.016,-112.024,265.607,52.220,-82.600,28.940
43,48120.702000,231.432,53.208,77.824,459.880,-110.154,265.651,87.220,-70.600,35.940
44,48120.743000,240.276,50.196,78.848,457.993,-109.341,261.687,88.220,-86.600,30.940
45,48120.762000,240.276,50.196,73.728,455.102,-113.063,260.608,127.220,-93.600,24.940
46,48120.803000,240.276,45.176,68.608,460.860,-106.672,255.780,66.220,-144.600,24.940
47,48120.843000,240.276,47.184,60.416,465.502,-113.042,254.656,93.220,-129.600,8.940
48,48120.883000,240.276,48.188,63.488,463.592,-114.042,251.648,110.220,-133.600,-4.060
49,48120.922000,242.242,44.173,59.392,465.634,-103.023,251.886,163.220,-131.600,-16.060
50,48120.963000,246.173,48.188,57.344,468.458,-103.941,249.881,113.220,-117.600,-38.060
51,48120.990000,241.259,50.196,58.368,469.441,-101.180,249.942,90.220,-111.600,-53.060
52,48121.23000,238.311,53.208,62.464,472.324,-97.556,246.044,59.220,-63.600,-73.060
53,48121.61000,248.138,57.224,64.512,473.220,-101.208,245.968,41.220,-59.600,-77.060
54,48121.101000,237.328,57.224,60.416,476.062,-101.132,247.963,66.220,-75.600,-69.060
55,48121.141000,230.449,62.243,61.440,476.195,-91.113,245.193,102.220,-21.600,-112.060
56,48121.181000,220.622,68.267,63.488,477.118,-92.913,246.150,131.220,-38.600,-96.060
57,48121.221000,222.587,69.271,62.464,481.999,-81.857,246.393,138.220,-26.600,-67.060
58,48121.241000,234.380,74.290,66.560,481.942,-86.379,249.280,186.220,19.400,-24.060
59,48121.281000,238.311,79.310,67.584,480.049,-86.404,249.277,201.220,25.400,10.940
60,48121.321000,239.294,77.302,60.416,476.380,-78.170,251.436,185.220,-8.600,47.940
61,48121.364000,237.328,76.298,57.344,479.212,-78.210,247.461,136.220,-36.600,50.940
62,48121.400000,235.363,76.298,52.224,478.246,-79.997,250.405,76.220,-27.600,41.940
63,48121.441000,232.415,74.290,55.296,479.237,-76.378,247.500,47.220,-13.600,32.940
64,48121.461000,231.432,71.278,55.296,478.253,-79.139,247.440,35.220,-0.600,14.940
65,48121.501000,236.345,71.278,57.344,474.504,-76.460,246.497,18.220,25.400,8.940
66,48121.541000,241.259,67.263,60.416,475.373,-82.744,252.332,-42.780,51.400,17.940
67,48121.581000,238.311,65.255,58.368,475.335,-85.492,252.273,-26.780,42.400,22.940
68,48121.621000,236.345,66.259,57.344,476.397,-77.195,254.441,38.220,54.400,-8.060
69,48121.662000,232.415,62.243,60.416,477.298,-80.789,257.350,65.220,58.400,-10.060
70,48121.683000,231.432,63.247,61.440,474.495,-78.097,256.408,120.220,65.400,-9.060
71,48121.741000,235.363,63.247,65.536,474.529,-76.167,261.422,205.220,124.400,-16.060
72,48121.760000,235.363,61.239,69.632,474.634,-68.780,264.564,335.220,97.400,-16.060
73,48121.800000,239.294,62.243,62.464,469.058,-61.506,265.705,467.220,55.400,-61.060
74,48121.840000,234.380,76.298,59.392,470.092,-55.841,273.784,527.220,85.400,15.940
75,48121.880000,233.397,81.318,56.320,471.101,-51.248,273.883,459.220,87.400,48.940
76,48121.925000,230.449,84.329,54.272,472.034,-52.931,280.811,288.220,131.400,81.940
77,48121.951000,231.432,80.314,60.416,469.150,-56.574,283.713,211.220,68.400,115.940
78,48121.984000,232.415,70.275,61.440,469.198,-52.929,282.796,227.220,-9.600,87.940
79,48122.24000,233.397,71.278,56.320,468.322,-47.504,279.927,160.220,-65.600,75.940
80,48122.72000,236.345,73.286,58.368,470.211,-48.297,284.886,149.220,-64.600,77.940
81,48122.105000,238.311,70.275,52.224,471.172,-46.569,278.956,92.220,-46.600,68.940
82,48122.155000,237.328,68.267,54.272,468.236,-53.897,280.785,27.220,-24.600,63.940
83,48122.161000,237.328,62.243,50.176,468.338,-46.548,281.936,79.220,-9.600,69.940
84,48122.201000,235.363,65.255,51.200,467.272,-54.884,277.779,40.220,-8.600,24.940
85,48122.241000,237.328,65.255,51.200,471.120,-50.253,277.883,35.220,-7.600,12.940
86,48122.281000,237.328,67.263,51.200,470.177,-50.227,279.872,56.220,-2.600,10.940
87,48122.322000,238.311,64.251,51.200,469.170,-54.801,280.767,39.220,6.400,-1.060
88,48122.371000,239.294,66.259,51.200,470.116,-54.788,280.769,10.220,6.400,-3.060
89,48122.384000,237.328,66.259,50.176,472.095,-48.370,279.914,51.220,0.400,-14.060
90,48122.422000,238.311,66.259,53.248,464.515,-49.347,281.871,2.220,14.400,-24.060
91,48122.463000,237.328,68.267,57.344,465.452,-50.211,283.843,31.220,21.400,-27.060
92,48122.501000,235.363,70.275,56.320,467.417,-44.729,281.974,16.220,13.400,-41.060
93,48122.541000,235.363,71.278,56.320,464.492,-51.160,282.827,10.220,25.400,-45.060
94,48122.581000,232.415,75.294,57.344,466.474,-44.702,283.962,13.220,25.400,-35.060
95,48122.601000,229.466,72.282,55.296,466.488,-43.766,284.977,6.220,16.400,-19.060
96,48122.641000,232.415,75.294,58.368,467.386,-47.399,285.895,-33.780,21.400,-5.060
97,48122.681000,233.397,73.286,57.344,465.572,-41.888,287.999,-28.780,32.400,10.940
98,48122.721000,237.328,74.290,59.392,466.500,-42.850,284.996,-40.780,21.400,13.940
99,48122.761000,236.345,75.294,60.416,461.685,-49.287,286.841,-41.780,20.400,13.940
100,48122.801000,233.397,74.290,57.344,464.519,-49.308,283.861,-20.780,14.400,26.940
101,48122.841000,233.397,68.267,54.272,464.572,-45.604,285.929,-26.780,-8.600,23.940
102,48122.861000,234.380,71.278,57.344,463.590,-48.346,286.864,-48.780,-1.600,22.940
103,48122.901000,234.380,72.282,55.296,468.348,-46.431,287.907,-29.780,-19.600,16.940
104,48122.945000,234.380,73.286,55.296,467.298,-53.812,285.759,-79.780,-10.600,6.940
105,48122.985000,234.380,74.290,56.320,467.287,-54.709,286.734,-123.780,-17.600,3.940
106,48123.26000,234.380,73.286,55.296,465.440,-51.128,283.824,-206.780,-17.600,7.940
107,48123.62000,234.380,72.282,57.344,467.272,-55.664,284.725,-257.780,-18.600,4.940
108,48123.83000,236.345,68.267,59.392,463.467,-56.708,280.718,-232.780,-23.600,15.940
109,48123.123000,236.345,64.251,59.392,470.981,-60.350,276.673,-291.780,-45.600,1.940
110,48123.164000,235.363,67.263,59.392,464.326,-63.108,280.583,-259.780,-47.600,-3.060
111,48123.204000,236.345,68.267,55.296,466.087,-72.323,276.411,-212.780,-33.600,-16.060
112,48123.245000,233.397,66.259,62.464,462.336,-69.663,274.473,-210.780,-38.600,-24.060
113,48123.285000,233.397,66.259,61.440,470.760,-76.022,271.366,-172.780,-56.600,-29.060
114,48123.305000,237.328,64.251,57.344,467.023,-72.427,270.443,-164.780,-60.600,-29.060
115,48123.345000,236.345,67.263,55.296,471.746,-72.462,265.476,-195.780,-74.600,-31.060
116,48123.385000,235.363,65.255,57.344,468.843,-77.100,264.378,-148.780,-86.600,-8.060
117,48123.425000,235.363,64.251,57.344,471.688,-76.224,260.422,-174.780,-97.600,-21.060
118,48123.471000,239.294,67.263,56.320,469.719,-81.766,259.307,-169.780,-77.600,-19.060
119,48123.504000,237.328,63.247,55.296,470.587,-87.289,257.201,-112.780,-58.600,-3.060
120,48123.552000,235.363,62.243,56.320,472.537,-82.742,254.317,-115.780,-52.600,8.940
121,48123.565000,238.311,61.239,56.320,471.480,-90.980,255.135,-103.780,-35.600,14.940
122,48123.605000,239.294,57.224,56.320,473.408,-88.226,254.202,-78.780,-12.600,29.940
123,48123.645000,238.311,59.231,57.344,469.585,-91.025,254.136,-105.780,-11.600,32.940
124,48123.685000,238.311,58.227,55.296,470.519,-91.928,254.119,-84.780,0.400,37.940
125,48123.725000,238.311,57.224,61.440,468.671,-89.127,258.154,-37.780,30.400,13.940
126,48123.765000,240.276,56.220,58.368,471.469,-91.877,256.110,-36.780,38.400,12.940
127,48123.792000,240.276,56.220,58.368,472.409,-91.942,252.132,-14.780,27.400,27.940
128,48123.826000,240.276,56.220,56.320,468.568,-96.495,256.008,18.220,10.400,27.940
129,48123.866000,238.311,57.224,58.368,471.494,-90.045,256.149,-3.780,9.400,23.940
130,48123.906000,238.311,59.231,55.296,468.568,-96.495,256.008,-51.780,-3.600,20.940
131,48123.956000,236.345,56.220,57.344,469.512,-96.502,255.014,-66.780,-2.600,11.940
132,48123.983000,240.276,59.231,59.392,470.488,-94.599,258.040,-74.780,4.400,-0.060
133,48124.7000,239.294,58.227,59.392,472.324,-98.316,253.985,-102.780,-13.600,0.940
134,48124.44000,240.276,56.220,55.296,465.741,-95.616,256.022,-132.780,-11.600,0.940
135,48124.91000,239.294,55.216,63.488,466.618,-100.263,251.946,-141.780,-5.600,20.940
136,48124.124000,241.259,54.212,62.464,466.602,-101.218,249.937,-123.780,-0.600,26.940
137,48124.164000,236.345,52.204,63.488,464.671,-104.011,248.880,-105.780,-13.600,32.940
138,48124.260000,236.345,52.204,61.440,467.545,-101.244,247.948,-68.780,3.400,20.940
139,48124.316000,238.311,49.192,62.464,465.556,-108.559,249.779,-51.780,21.400,15.940
140,48124.322000,239.294,51.200,66.560,468.439,-105.695,253.823,-47.780,19.400,14.940
141,48124.354000,236.345,50.196,67.584,468.450,-104.799,252.847,-21.780,26.400,21.940
142,48124.367000,237.328,49.192,64.512,461.699,-114.067,251.645,-2.780,25.400,20.940
143,48124.384000,236.345,48.188,64.512,462.633,-114.971,251.627,-4.780,20.400,23.940
144,48124.444000,237.328,50.196,67.584,464.654,-105.745,253.816,-3.780,-0.600,28.940
145,48124.474000,241.259,51.200,64.512,462.727,-108.480,255.744,19.220,-0.600,23.940
146,48124.486000,239.294,51.200,65.536,462.686,-111.267,253.695,6.220,-9.600,13.940
147,48124.542000,237.328,49.192,62.464,466.493,-109.424,251.751,17.220,-15.600,7.940
148,48124.567000,238.311,50.196,60.416,464.627,-107.597,252.782,18.220,-12.600,5.940
149,48124.651000,239.294,51.200,63.488,465.584,-106.688,251.808,3.220,-2.600,5.940
150,48124.715000,238.311,51.200,63.488,463.653,-109.481,250.751,28.220,0.400,1.940
151,48124.771000,240.276,51.200,62.464,464.588,-110.365,251.728,26.220,4.400,-3.060
152,48124.859000,239.294,53.208,62.464,466.493,-109.424,251.751,3.220,11.400,-8.060
153,48124.882000,239.294,53.208,61.440,464.477,-118.591,252.548,-2.780,3.400,0.940
154,48124.941000,238.311,54.212,63.488,462.733,-107.642,251.783,7.220,9.400,-1.060
155,48125.6000,238.311,53.208,62.464,464.666,-104.829,253.835,0.220,14.400,-3.060
156,48125.6000,236.345,53.208,62.464,464.626,-107.617,251.787,0.220,16.400,-2.060
157,48125.21000,240.276,55.216,63.488,459.887,-108.537,254.744,1.220,21.400,2.940
158,48125.61000,237.328,57.224,63.488,465.625,-103.901,253.857,-1.780,21.400,1.940
159,48125.95000,236.345,53.208,63.488,462.674,-112.183,253.676,-7.780,17.400,7.940
160,48125.144000,239.294,53.208,65.536,463.666,-109.325,258.711,-8.780,16.400,7.940
161,48125.172000,237.328,54.212,65.536,465.509,-112.964,258.637,-25.780,12.400,10.940
162,48125.197000,237.328,53.208,66.560,460.758,-114.021,254.629,-17.780,9.400,9.940
163,48125.221000,239.294,54.212,66.560,461.781,-108.492,255.742,-11.780,8.400,12.940
164,48125.257000,236.345,54.212,64.512,463.678,-108.409,258.731,-12.780,5.400,11.940
165,48125.257000,237.328,52.204,64.512,458.815,-117.711,254.547,1.220,4.400,4.940
166,48125.314000,240.276,53.208,67.584,461.795,-107.557,256.757,3.220,5.400,3.940
167,48125.379000,239.294,53.208,65.536,462.732,-108.421,258.729,13.220,5.400,6.940
168,48125.402000,237.328,52.204,66.560,460.772,-113.085,255.643,17.220,12.400,5.940
169,48125.448000,236.345,53.208,68.608,458.947,-108.471,258.723,26.220,7.400,6.940
170,48125.467000,235.363,53.208,66.560,455.112,-112.186,258.638,29.220,7.400,3.940
171,48125.481000,240.276,52.204,67.584,459.902,-107.582,256.754,22.220,8.400,1.940
172,48125.534000,237.328,51.200,68.608,461.684,-115.782,257.576,18.220,13.400,1.940
173,48125.569000,236.345,52.204,68.608,459.861,-111.149,261.651,27.220,-0.600,-8.060
174,48125.615000,237.328,53.208,66.560,459.906,-107.543,258.744,31.220,-2.600,-14.060
175,48125.652000,235.363,55.216,65.536,459.834,-113.000,260.617,32.220,-0.600,-16.060
176,48125.677000,236.345,53.208,68.608,465.626,-104.661,261.797,19.220,-5.600,-11.060
177,48125.722000,237.328,54.212,66.560,461.837,-104.750,259.801,9.220,-8.600,-12.060
178,48125.746000,237.328,54.212,68.608,461.823,-105.685,258.786,10.220,-2.600,-13.060
179,48125.772000,238.311,54.212,65.536,458.889,-112.993,261.610,8.220,-3.600,-12.060
180,48125.834000,236.345,55.216,65.536,464.691,-103.776,260.820,5.220,-7.600,-8.060
181,48125.859000,235.363,54.212,65.536,459.873,-110.232,261.670,21.220,-4.600,-3.060
182,48125.904000,237.328,53.208,66.560,458.924,-110.284,259.679,8.220,0.400,-1.060
183,48125.954000,237.328,52.204,64.512,461.827,-105.646,260.776,-11.780,-4.600,4.940
184,48125.983000,236.345,44.173,65.536,462.723,-109.298,260.700,-40.780,-15.600,27.940
185,48126.7000,228.484,39.153,64.512,460.913,-102.969,257.848,-105.780,-77.600,2.940
186,48126.40000,233.397,43.169,49.152,465.541,-110.274,255.710,-108.780,-119.600,-47.060
187,48126.52000,244.207,32.125,43.008,464.644,-105.862,247.846,-229.780,-196.600,-55.060
188,48126.76000,259.931,25.098,53.248,468.348,-111.387,243.755,-397.780,-211.600,-68.060
189,48126.102000,259.931,21.082,55.296,472.109,-112.390,236.777,-439.780,-209.600,-107.060
190,48126.126000,258.948,19.075,52.224,472.954,-118.947,228.681,-430.780,-172.600,-123.060
191,48126.164000,251.086,14.055,48.128,477.711,-116.272,221.783,-413.780,-125.600,-133.060
192,48126.201000,247.155,40.157,39.936,478.624,-118.969,223.716,-461.780,-11.600,-160.060
193,48126.236000,233.397,37.145,27.648,480.438,-124.480,221.612,-407.780,23.400,-167.060
194,48126.261000,248.138,58.227,37.888,478.614,-119.846,225.687,-250.780,236.400,-313.060
195,48126.309000,261.896,77.302,48.128,475.903,-111.463,234.813,-147.780,377.400,-437.060
196,48126.341000,247.155,74.290,48.128,473.215,-101.267,242.983,-52.780,363.400,-431.060
197,48126.384000,234.380,83.325,52.224,476.246,-87.429,246.266,-188.780,353.400,-465.060
198,48126.422000,221.605,88.345,57.344,474.400,-84.608,251.296,-260.780,266.400,-423.060
199,48126.441000,218.656,80.314,56.320,476.361,-79.924,255.377,-342.780,142.400,-387.060
200,48126.484000,216.691,102.400,59.392,472.642,-75.354,257.458,-343.780,118.400,-382.060
201,48126.521000,219.639,102.400,78.848,476.431,-75.265,259.455,-352.780,65.400,-336.060
202,48126.565000,198.019,114.447,92.160,479.334,-70.628,260.553,-354.780,-0.600,-319.060
203,48126.621000,202.933,127.498,100.352,479.430,-63.338,258.719,-357.780,51.400,-321.060
204,48126.645000,200.967,125.490,96.256,479.275,-74.390,255.499,-404.780,-108.600,-189.060
205,48126.687000,204.898,124.486,84.992,483.136,-68.063,248.677,-432.780,-295.600,-21.060
206,48126.715000,207.846,111.435,81.920,486.792,-76.454,238.558,-327.780,-432.600,77.940
207,48126.747000,250.104,112.439,90.112,484.746,-86.751,228.389,-294.780,-475.600,220.940
208,48126.790000,230.449,99.388,102.400,482.820,-88.706,223.372,-49.780,-260.600,232.940
209,48126.821000,202.933,59.231,82.944,487.388,-99.794,215.185,-97.780,-280.600,339.940
210,48126.879000,204.898,44.173,67.584,489.085,-113.608,209.921,-142.780,-311.600,376.940
211,48126.907000,250.104,25.098,80.896,484.206,-123.865,203.727,-84.780,-156.600,372.940
212,48126.921000,285.482,17.067,75.776,479.413,-128.489,204.616,142.220,-18.600,357.940
213,48126.964000,273.689,25.098,67.584,478.395,-133.959,206.488,352.220,25.400,253.940
214,48127.4000,242.242,24.094,55.296,478.405,-133.842,212.458,509.220,33.400,203.940
215,48127.41000,210.795,29.114,54.272,478.304,-141.951,219.248,568.220,24.400,152.940
216,48127.99000,203.916,17.067,53.248,471.798,-133.734,222.397,571.220,32.400,217.940
217,48127.124000,207.846,11.043,69.632,468.961,-134.512,231.328,746.220,121.400,330.940
218,48127.145000,223.570,8.031,55.296,467.098,-133.426,241.295,785.220,31.400,344.940
219,48127.182000,233.397,10.039,68.608,461.405,-135.216,247.216,1020.220,155.400,314.940
220,48127.217000,287.447,84.329,97.280,455.968,-119.385,264.454,1239.220,344.400,210.940
221,48127.260000,261.896,109.427,103.424,451.283,-117.362,277.420,914.220,191.400,28.940
222,48127.314000,264.845,123.482,109.568,453.367,-104.316,287.647,659.220,193.400,-121.060
223,48127.346000,212.760,127.498,114.688,453.574,-89.579,291.940,471.220,158.400,-174.060
224,48127.382000,199.985,123.482,122.880,447.942,-86.809,296.964,196.220,111.400,-109.060
225,48127.396000,186.226,120.471,121.856,446.922,-92.298,297.840,-17.780,55.400,-53.060
226,48127.436000,191.140,108.424,117.760,447.908,-89.518,298.895,-179.780,7.400,5.940
227,48127.486000,208.829,124.486,107.520,446.024,-88.666,296.921,-245.780,-14.600,-32.060
228,48127.525000,215.708,122.478,105.472,445.959,-93.285,294.833,-404.780,30.400,-102.060
229,48127.560000,220.622,122.478,87.040,446.857,-96.918,295.752,-557.780,100.400,-199.060
230,48127.600000,211.777,106.416,72.704,444.864,-104.272,295.593,-744.780,157.400,-194.060
231,48127.621000,162.641,42.165,62.464,445.669,-113.616,285.449,-1094.780,10.400,-105.060
232,48127.669000,205.881,42.165,103.424,441.630,-132.028,283.062,-955.780,102.400,6.940
233,48127.701000,253.052,43.169,179.200,438.693,-139.375,283.895,-795.780,376.400,85.940
234,48127.747000,242.242,31.122,165.888,434.848,-143.966,285.781,-236.780,373.400,192.940
235,48127.776000,247.155,38.149,154.624,429.049,-153.164,287.566,-76.780,38.400,306.940
236,48127.816000,234.380,23.090,120.832,431.775,-161.371,287.396,-5.780,-266.600,455.940
237,48127.836000,212.760,-1.004,74.752,429.698,-173.560,274.203,86.220,-405.600,511.940
238,48127.876000,237.328,-9.035,51.200,432.463,-178.240,267.145,27.220,-365.600,479.940
239,48127.922000,248.138,-38.149,74.752,433.176,-194.815,261.820,-147.780,-222.600,422.940
240,48127.980000,264.845,-36.141,55.296,429.477,-188.472,260.955,262.220,-75.600,256.940
241,48128.10000,268.775,-23.090,63.488,429.392,-194.846,262.808,314.220,133.400,100.940
242,48128.40000,267.793,-43.169,80.896,428.623,-183.552,278.962,831.220,280.400,70.940
243,48128.59000,217.674,-4.016,69.632,425.965,-171.465,290.156,1147.220,256.400,-35.060
244,48128.100000,203.916,83.325,83.968,423.501,-145.558,305.623,1424.220,240.400,-249.060
245,48128.145000,240.276,150.588,121.856,421.844,-129.736,319.883,1066.220,349.400,-396.060
246,48128.181000,237.328,108.424,140.288,419.278,-110.418,326.258,477.220,283.400,-354.060
247,48128.222000,228.484,124.486,142.336,421.332,-99.262,333.461,416.220,145.400,-272.060
248,48128.269000,199.985,101.396,95.232,425.196,-93.676,335.575,187.220,-106.600,-109.060
249,48128.297000,201.950,95.373,83.968,426.210,-88.245,331.713,170.220,-188.600,-39.060
250,48128.317000,200.967,88.345,82.944,431.942,-83.687,326.845,54.220,-264.600,9.940
251,48128.357000,198.019,74.290,66.560,437.616,-82.891,316.924,-75.780,-394.600,59.940
252,48128.397000,210.795,82.322,60.416,446.014,-90.322,305.838,-153.780,-416.600,45.940
253,48128.437000,185.244,84.329,59.392,446.947,-90.466,297.879,-75.780,-311.600,-26.060
254,48128.477000,168.537,68.267,51.200,450.785,-85.952,292.013,-39.780,-176.600,-192.060
255,48128.517000,219.639,77.302,40.960,452.698,-84.154,289.070,-72.780,0.400,-282.060
256,48128.545000,244.207,65.255,43.008,450.955,-73.185,289.301,-187.780,179.400,-246.060
257,48128.579000,283.516,33.129,58.368,452.739,-81.366,291.119,-420.780,184.400,-147.060
258,48128.621000,286.464,18.071,39.936,448.923,-83.307,288.088,-425.780,114.400,-62.060
259,48128.661000,291.378,21.082,25.600,447.120,-76.900,289.216,-224.780,203.400,-75.060
260,48128.702000,330.687,60.235,59.392,445.143,-83.299,291.066,-176.780,61.400,70.940
261,48128.742000,283.516,-15.059,20.480,445.997,-89.758,287.946,-303.780,-138.600,-13.060
262,48128.763000,231.432,34.133,30.720,451.715,-86.135,282.064,-267.780,-215.600,-180.060
263,48128.802000,218.656,28.110,34.816,454.544,-86.215,276.099,-301.780,-295.600,-223.060
264,48128.840000,256.000,9.035,40.960,453.584,-86.383,268.136,-335.780,-235.600,-268.060
265,48128.881000,271.724,18.071,55.296,462.068,-88.201,263.137,-321.780,-206.600,-248.060
266,48128.921000,262.879,18.071,68.608,463.999,-84.648,256.253,-266.780,-201.600,-275.060
267,48128.961000,239.294,34.133,38.912,466.895,-80.088,253.371,74.220,-169.600,-211.060
268,48129.1000,268.775,60.235,59.392,471.662,-77.297,252.442,117.220,73.400,-195.060
269,48129.21000,231.432,89.349,54.272,472.787,-64.419,254.707,254.220,-29.600,-71.060
270,48129.61000,222.587,122.478,51.200,472.767,-66.193,257.654,95.220,12.400,-101.060
271,48129.101000,253.052,109.427,36.864,475.658,-61.692,251.786,-130.780,-43.600,-57.060
272,48129.141000,259.931,105.412,46.080,475.613,-65.298,254.693,-348.780,-35.600,-62.060
273,48129.189000,240.276,91.357,56.320,478.429,-67.073,255.654,-382.780,10.400,-196.060
274,48129.219000,221.605,94.369,26.624,480.368,-63.423,253.745,-290.780,-88.600,-175.060
275,48129.245000,208.829,96.376,21.504,476.512,-68.151,248.666,-453.780,-92.600,-139.060
276,48129.281000,209.812,101.396,50.176,484.072,-68.948,249.655,-445.780,-55.600,-97.060
277,48129.321000,207.846,121.475,80.896,480.133,-80.030,247.424,-494.780,34.400,-51.060
278,48129.361000,220.622,129.506,98.304,478.219,-81.848,249.371,-448.780,104.400,-12.060
279,48129.421000,186.226,96.376,81.920,479.151,-82.772,248.358,-419.780,-62.600,120.940
280,48129.466000,186.226,94.369,73.728,477.977,-98.534,239.069,-576.780,-199.600,124.940
281,48129.472000,294.326,87.341,73.728,478.829,-105.013,234.954,-550.780,-107.600,44.940
282,48129.502000,212.760,4.016,94.208,477.734,-115.239,227.773,-387.780,-356.600,262.940
283,48129.542000,262.879,51.200,101.376,476.611,-128.097,226.503,-254.780,-118.600,198.940
284,48129.582000,265.827,36.141,93.184,471.776,-135.528,224.348,-111.780,-47.600,200.940
285,48129.621000,247.155,42.165,76.800,471.785,-134.650,222.377,4.220,9.400,154.940
286,48129.661000,223.570,35.137,63.488,474.502,-143.735,224.177,38.220,-81.600,82.940
287,48129.701000,214.726,34.133,59.392,475.550,-136.374,225.330,101.220,1.400,65.940
288,48129.721000,208.829,34.133,68.608,469.753,-145.552,228.110,214.220,81.400,76.940
289,48129.761000,206.864,24.094,73.728,466.007,-143.594,237.098,329.220,223.400,120.940
290,48129.800000,199.985,19.075,80.896,464.187,-138.921,243.163,380.220,191.400,196.940
291,48129.840000,186.226,10.039,62.464,457.647,-134.174,256.184,726.220,173.400,265.940
292,48129.882000,195.071,25.098,67.584,448.215,-133.169,267.133,945.220,211.400,313.940
293,48129.934000,279.585,71.278,107.520,443.596,-126.525,282.187,1025.220,384.400,382.940
294,48129.944000,306.119,131.514,162.816,438.945,-121.793,293.222,891.220,446.400,256.940
295,48129.984000,257.965,140.549,195.584,428.664,-114.269,310.276,572.220,478.400,127.940
296,48130.24000,195.071,131.514,180.224,422.047,-114.279,314.244,231.220,254.400,34.940
297,48130.64000,179.347,123.482,175.104,422.914,-120.582,319.084,-167.780,-77.600,35.940
298,48130.104000,154.779,100.392,184.320,429.487,-123.399,311.077,-322.780,-192.600,67.940
299,48130.149000,167.555,118.463,153.600,432.269,-127.104,307.024,-351.780,-317.600,92.940
300,48130.189000,188.192,114.447,122.880,435.819,-142.901,292.768,-425.780,-297.600,69.940
301,48130.209000,224.553,107.420,94.208,436.643,-151.251,286.624,-647.780,-146.600,54.940
302,48130.244000,201.950,36.141,84.992,433.664,-160.625,277.468,-835.780,-73.600,212.940
303,48130.290000,200.967,-7.027,74.752,433.424,-177.292,268.161,-936.780,-173.600,303.940
304,48130.325000,223.570,-25.098,84.992,434.134,-193.127,253.900,-666.780,-105.600,268.940
305,48130.365000,269.758,-3.012,122.880,430.256,-199.648,250.772,-301.780,-35.600,309.940
306,48130.399000,265.827,-30.118,130.048,424.482,-207.013,252.596,-27.780,9.400,206.940
307,48130.419000,264.845,-2.008,106.496,429.262,-203.306,251.687,165.220,6.400,59.940
308,48130.470000,212.760,-11.043,90.112,428.308,-204.176,254.651,279.220,-97.600,78.940
309,48130.504000,209.812,-6.024,77.824,433.064,-202.281,254.699,290.220,-182.600,89.940
310,48130.604000,211.777,-23.090,82.944,430.240,-200.603,248.762,158.220,-127.600,163.940
311,48130.619000,215.708,-33.129,94.208,431.149,-203.339,248.705,169.220,-82.600,159.940
312,48130.642000,220.622,-27.106,54.272,434.056,-198.662,251.793,415.220,-97.600,47.940
313,48130.649000,255.017,-11.043,56.320,434.098,-195.855,254.837,383.220,51.400,1.940
314,48130.679000,271.724,-40.157,59.392,428.473,-193.006,263.841,574.220,174.400,28.940
315,48130.724000,261.896,-14.055,58.368,432.421,-181.807,272.042,1131.220,193.400,-93.060
316,48130.759000,227.501,68.267,53.248,432.786,-156.759,288.490,1215.220,325.400,-313.060
317,48130.805000,319.877,129.506,86.016,429.250,-140.026,303.760,944.220,443.400,-429.060
318,48130.846000,233.397,106.416,117.760,431.451,-117.916,309.207,366.220,254.400,-410.060
319,48130.880000,200.967,80.314,106.496,432.509,-110.438,316.331,284.220,191.400,-252.060
320,48130.900000,184.261,67.263,69.632,434.491,-103.980,317.466,287.220,-32.600,-83.060
321,48130.979000,195.071,84.329,72.704,435.589,-92.955,318.697,245.220,-77.600,-27.060
322,48131.3000,199.002,78.306,77.824,437.464,-93.904,315.695,195.220,-124.600,-7.060
323,48131.24000,212.760,86.337,73.728,436.436,-99.492,311.596,71.220,-111.600,-32.060
324,48131.65000,212.760,100.392,88.064,442.234,-90.314,308.816,28.220,-101.600,-56.060
325,48131.111000,201.950,87.341,84.992,446.077,-85.742,305.935,40.220,-102.600,-33.060
326,48131.126000,206.864,96.376,84.992,444.106,-91.303,303.825,33.220,-141.600,-20.060
327,48131.167000,179.347,85.333,89.088,448.008,-82.189,299.051,18.220,-99.600,-41.060
328,48131.200000,161.658,70.275,72.704,452.628,-89.592,291.938,0.220,-168.600,-79.060
329,48131.240000,223.570,91.357,54.272,453.701,-80.399,293.130,-17.780,-12.600,-55.060
330,48131.280000,265.827,66.259,65.536,449.798,-88.752,289.962,-273.780,139.400,-19.060
331,48131.320000,294.326,40.157,88.064,444.091,-91.478,294.869,-298.780,267.400,165.940
332,48131.340000,306.119,25.098,74.752,441.209,-95.102,298.766,-284.780,251.400,209.940
333,48131.386000,271.724,2.008,54.272,435.452,-100.713,296.649,-168.780,192.400,216.940
334,48131.420000,252.069,0.000,51.200,435.350,-108.841,302.444,-35.780,58.400,125.940
335,48131.465000,264.845,20.078,48.128,435.411,-104.280,301.546,34.220,8.400,-14.060
336,48131.505000,246.173,24.094,39.936,435.404,-104.358,297.566,-95.780,-92.600,-149.060
337,48131.545000,246.173,25.098,44.032,434.412,-107.217,292.531,-133.780,-138.600,-173.060
338,48131.585000,249.121,23.090,32.768,441.030,-107.207,288.562,-133.780,-170.600,-159.060
339,48131.605000,240.276,28.110,40.960,442.915,-107.260,284.585,-291.780,-121.600,-148.060
340,48131.649000,231.432,27.106,28.672,450.501,-105.445,278.667,-233.780,-245.600,-145.060
341,48131.681000,237.328,24.094,27.648,451.517,-99.994,275.801,-312.780,-296.600,-107.060
342,48131.720000,251.086,29.114,40.960,459.927,-106.529,263.739,-370.780,-333.600,-103.060
343,48131.761000,258.948,20.078,44.032,459.960,-103.059,253.866,-364.780,-458.600,-166.060
344,48131.804000,271.724,3.012,66.560,468.471,-102.245,242.955,-399.780,-473.600,-217.060
345,48131.824000,255.017,7.027,46.080,476.033,-100.704,223.106,-239.780,-515.600,-244.060
346,48131.864000,265.827,36.141,35.840,482.570,-107.029,222.981,-38.780,-453.600,-250.060
347,48131.904000,271.724,48.188,57.344,487.490,-92.445,216.336,426.220,-14.600,-198.060
348,48131.944000,248.138,64.251,50.176,485.627,-90.579,219.357,331.220,-186.600,-109.060
349,48131.986000,232.415,103.404,32.768,490.485,-81.336,220.556,157.220,-0.600,-190.060
350,48132.21000,247.155,110.431,26.624,490.464,-83.129,222.507,87.220,47.400,-185.060
351,48132.64000,219.639,84.329,44.032,492.486,-73.884,225.691,-77.780,18.400,-171.060
352,48132.84000,215.708,97.380,58.368,490.672,-68.373,227.795,-233.780,134.400,-269.060
353,48132.124000,209.812,94.369,43.008,494.485,-66.452,229.830,-208.780,-4.600,-178.060
354,48132.164000,210.795,76.298,28.672,491.642,-66.548,226.840,-337.780,5.400,-149.060
355,48132.216000,208.829,94.369,51.200,492.518,-71.974,229.710,-238.780,-16.600,-103.060
356,48132.240000,235.363,131.514,81.920,492.593,-66.477,229.827,-216.780,88.400,-115.060
357,48132.285000,201.950,119.467,79.872,493.428,-74.690,230.648,-184.780,-20.600,-13.060
358,48132.305000,192.123,112.439,74.752,489.668,-72.908,230.680,-187.780,-60.600,42.940
359,48132.345000,201.950,111.435,67.584,488.663,-76.683,225.625,-471.780,-65.600,66.940
360,48132.382000,246.173,86.337,52.224,490.398,-87.749,220.419,-412.780,-65.600,84.940
361,48132.435000,256.000,58.227,65.536,487.427,-97.026,216.239,-100.780,-241.600,259.940
362,48132.466000,227.501,62.243,58.368,490.191,-102.485,216.127,-115.780,-137.600,185.940
363,48132.507000,258.948,47.184,75.776,486.329,-108.051,215.008,-280.780,13.400,249.940
364,48132.527000,249.121,54.212,70.656,486.106,-124.522,215.652,-254.780,75.400,256.940
365,48132.561000,255.017,37.145,62.464,481.304,-130.023,218.511,-9.780,78.400,193.940
366,48132.601000,231.432,40.157,55.296,477.474,-133.679,221.412,39.220,43.400,163.940
367,48132.641000,196.054,26.102,59.392,477.543,-129.020,225.490,166.220,96.400,156.940
368,48132.694000,201.950,21.082,56.320,474.661,-132.644,229.387,242.220,126.400,175.940
369,48132.730000,215.708,1.004,70.656,468.973,-134.376,238.293,384.220,246.400,230.940
370,48132.765000,227.501,-9.035,60.416,460.396,-139.809,247.117,561.220,233.400,241.940
371,48132.785000,239.294,15.059,60.416,455.775,-133.186,261.176,862.220,262.400,128.940
372,48132.825000,259.931,40.157,65.536,455.994,-118.313,272.434,1182.220,396.400,32.940
373,48132.865000,268.775,94.369,90.112,452.324,-111.618,289.480,996.220,257.400,-91.060
374,48132.901000,291.378,114.447,128.000,446.050,-87.594,304.901,795.220,372.400,-254.060
375,48132.942000,231.432,143.561,133.120,445.194,-81.934,313.972,420.220,264.400,-366.060
376,48132.989000,178.365,121.475,135.168,438.823,-63.659,316.341,72.220,81.400,-202.060
377,48133.9000,154.779,118.463,145.408,437.877,-63.672,316.339,-97.780,-49.600,-69.060
378,48133.62000,155.762,123.482,140.288,443.501,-67.300,314.281,-183.780,-160.600,-42.060
379,48133.85000,173.451,134.525,145.408,447.173,-74.736,306.171,-211.780,-202.600,-18.060
380,48133.125000,192.123,136.533,146.432,450.059,-71.073,304.264,-235.780,-221.600,-7.060
381,48133.166000,199.985,143.561,131.072,450.888,-78.584,294.159,-282.780,-216.600,-2.060
382,48133.207000,205.881,145.569,108.544,455.521,-85.071,287.065,-433.780,-136.600,-33.060
383,48133.246000,228.484,133.522,95.232,453.582,-88.722,288.974,-664.780,37.400,-48.060
384,48133.265000,208.829,97.380,98.304,452.447,-101.716,280.739,-1003.780,-35.600,155.940
385,48133.301000,193.106,13.051,77.824,455.074,-116.474,273.466,-755.780,-149.600,300.940
386,48133.342000,254.035,3.012,58.368,453.823,-138.532,270.011,-494.780,-179.600,423.940
387,48133.381000,258.948,9.035,77.824,453.629,-151.572,258.792,-424.780,-176.600,368.940
388,48133.421000,253.052,6.024,109.568,449.874,-149.732,261.810,-84.780,-10.600,210.940
389,48133.468000,246.173,11.043,84.992,451.732,-151.656,255.804,0.220,-47.600,74.940
390,48133.486000,230.449,11.043,65.536,450.698,-158.081,255.665,47.220,-78.600,37.940
391,48133.526000,217.674,11.043,66.560,452.675,-151.683,253.815,162.220,-32.600,26.940
392,48133.566000,234.380,15.059,67.584,448.879,-152.629,254.784,208.220,31.400,10.940
393,48133.606000,256.983,11.043,73.728,452.621,-156.166,258.693,108.220,132.400,15.940
394,48133.646000,264.845,13.051,67.584,453.714,-145.959,264.879,81.220,337.400,-43.060
395,48133.686000,239.294,27.106,71.680,446.150,-146.760,275.792,176.220,614.400,-215.060
396,48133.706000,222.587,26.102,52.224,437.927,-127.263,295.093,239.220,776.400,-311.060
397,48133.744000,221.605,54.212,64.512,428.677,-114.113,318.236,652.220,956.400,-332.060
398,48133.790000,229.466,66.259,72.704,421.293,-102.030,332.407,284.220,803.400,-360.060
399,48133.826000,213.743,119.467,103.424,407.257,-92.666,352.478,309.220,854.400,-360.060
400,48133.866000,266.810,153.600,168.960,397.978,-81.388,373.592,46.220,945.400,-307.060
401,48133.910000,187.209,107.420,158.720,386.643,-81.304,385.513,86.220,660.400,-130.060
402,48133.951000,158.710,85.333,138.240,379.176,-74.795,395.587,46.220,463.400,2.940
403,48133.966000,167.555,82.322,131.072,374.452,-74.780,399.559,16.220,284.400,123.940
404,48134.6000,158.710,79.310,121.856,369.689,-77.513,403.472,29.220,203.400,111.940
405,48134.46000,184.261,102.400,139.264,367.675,-86.660,405.263,-59.780,181.400,3.940
406,48134.106000,190.157,105.412,145.408,363.910,-85.696,410.252,-154.780,134.400,-60.060
407,48134.127000,184.261,100.392,143.360,362.011,-85.799,406.268,-244.780,73.400,-66.060
408,48134.166000,163.624,108.424,150.528,363.836,-90.414,403.189,-239.780,8.400,-31.060
409,48134.186000,151.831,101.396,155.648,360.991,-90.529,399.203,-188.780,-4.600,33.940
410,48134.226000,132.177,85.333,128.000,361.865,-95.974,401.078,-137.780,-132.600,92.940
411,48134.266000,154.779,94.369,152.576,360.800,-104.310,396.921,-220.780,45.400,73.940
412,48134.307000,202.933,71.278,160.768,360.671,-113.511,394.735,-255.780,124.400,87.940
413,48134.348000,249.121,45.176,159.744,353.153,-109.927,395.795,-180.780,196.400,133.940
414,48134.386000,318.894,26.102,180.224,349.301,-115.376,400.647,-219.780,470.400,228.940
415,48134.426000,227.501,-2.008,132.096,335.886,-128.279,405.325,-234.780,518.400,363.940
416,48134.446000,185.244,1.004,115.712,322.627,-130.111,414.218,-59.780,393.400,307.940
417,48134.486000,178.365,10.039,108.544,318.731,-138.386,415.031,-13.780,187.400,114.940
418,48134.540000,199.985,24.094,136.192,315.977,-132.050,413.173,-82.780,103.400,-93.060
419,48134.567000,250.104,8.031,154.624,316.908,-133.753,419.106,-146.780,27.400,-127.060
420,48134.605000,231.432,24.094,158.720,321.634,-133.749,416.129,-124.780,-97.600,-132.060
421,48134.646000,199.985,30.118,146.432,328.197,-137.462,409.097,-238.780,-437.600,-227.060
422,48134.667000,186.226,35.137,138.240,340.515,-134.805,396.242,-285.780,-621.600,-302.060
423,48134.712000,198.019,14.055,142.336,357.439,-141.247,383.199,-436.780,-715.600,-280.060
424,48134.748000,218.656,1.004,146.432,365.909,-143.220,370.239,-282.780,-738.600,-188.060
425,48134.787000,216.691,3.012,133.120,382.022,-139.636,355.420,-122.780,-765.600,-130.060
426,48134.827000,252.069,13.051,114.688,396.132,-144.283,342.412,-31.780,-645.600,-74.060
427,48134.869000,222.587,29.114,97.280,404.718,-137.972,331.618,127.220,-467.600,-17.060
428,48134.889000,218.656,43.169,82.944,408.473,-139.813,328.600,331.220,-317.600,-41.060
429,48134.929000,237.328,75.294,86.016,408.680,-125.077,332.893,358.220,19.400,-169.060
430,48134.970000,265.827,88.345,95.232,408.810,-115.857,336.073,336.220,216.400,-223.060
431,48135.10000,229.466,88.345,104.448,407.927,-112.049,344.110,167.220,224.400,-270.060
432,48135.44000,201.950,108.424,108.544,402.362,-104.638,352.216,-26.780,234.400,-314.060
433,48135.94000,186.226,86.337,104.448,404.268,-103.697,352.239,-154.780,141.400,-213.060
434,48135.125000,179.347,86.337,104.448,402.423,-100.077,351.319,-227.780,33.400,-78.060
435,48135.149000,174.434,106.416,130.048,398.463,-112.953,351.039,-262.780,52.400,-77.060
436,48135.184000,179.347,115.451,143.360,401.368,-108.296,353.132,-274.780,2.400,-49.060
437,48135.227000,170.503,94.369,132.096,400.193,-124.838,350.789,-227.780,-207.600,50.940
438,48135.267000,196.054,89.349,119.808,405.904,-121.293,340.926,-277.780,-335.600,67.940
439,48135.305000,284.499,75.294,145.408,408.560,-134.179,335.683,-316.780,-246.600,73.940
440,48135.345000,212.760,35.137,147.456,412.263,-139.704,331.592,-312.780,-187.600,137.940
441,48135.367000,216.691,42.165,146.432,407.495,-141.736,324.579,-328.780,-112.600,138.940
442,48135.407000,245.190,36.141,151.552,408.237,-156.440,321.283,-258.780,6.400,156.940
443,48135.445000,221.605,31.122,133.120,401.630,-155.553,324.276,-202.780,18.400,101.940
444,48135.485000,212.760,20.078,131.072,404.317,-166.528,323.052,-244.780,30.400,80.940
445,48135.527000,188.192,12.047,114.688,401.432,-170.191,324.959,-153.780,46.400,105.940
446,48135.567000,190.157,9.035,115.712,399.411,-179.417,322.771,-89.780,81.400,110.940
447,48135.609000,198.019,11.043,115.712,393.805,-174.794,328.829,80.220,176.400,109.940
448,48135.629000,192.123,5.020,117.760,385.216,-181.144,337.632,228.220,241.400,106.940
449,48135.669000,177.382,-3.012,131.072,382.556,-169.076,347.832,290.220,269.400,152.940
450,48135.709000,199.985,3.012,137.216,378.763,-169.984,350.791,488.220,255.400,223.940
451,48135.749000,208.829,45.176,158.720,372.184,-168.005,362.759,584.220,370.400,184.940
452,48135.789000,234.380,86.337,197.632,363.850,-155.973,374.938,612.220,255.400,140.940
453,48135.829000,229.466,95.373,189.440,358.273,-149.479,383.025,383.220,249.400,55.940
454,48135.849000,205.881,120.471,211.968,351.707,-145.805,388.067,179.220,201.400,-62.060
455,48135.889000,177.382,107.420,209.920,352.691,-143.044,388.127,13.220,38.400,-82.060
456,48135.929000,142.987,92.361,181.248,350.684,-151.334,386.953,-150.780,-139.600,10.940
457,48135.969000,140.038,73.286,174.080,354.399,-155.962,381.887,-269.780,-187.600,91.940
458,48136.4000,139.056,62.243,164.864,356.234,-159.679,377.832,-272.780,-206.600,129.940
459,48136.44000,152.814,63.247,171.008,355.180,-167.119,372.699,-266.780,-75.600,130.940
460,48136.64000,175.417,54.212,182.272,360.781,-172.560,371.597,-245.780,51.400,136.940
461,48136.110000,194.088,51.200,175.104,356.010,-175.390,370.535,-258.780,105.400,131.940
462,48136.145000,207.846,42.165,157.696,350.156,-188.311,369.256,-274.780,39.400,61.940
463,48136.185000,204.898,15.059,148.480,351.106,-187.480,364.302,-429.780,-9.600,-7.060
464,48136.225000,190.157,-5.020,148.480,354.769,-195.792,358.163,-468.780,-20.600,-48.060
465,48136.270000,212.760,7.027,183.296,347.038,-207.782,358.891,-417.780,120.400,-68.060
466,48136.310000,211.777,1.004,187.392,346.165,-202.317,358.011,-95.780,182.400,-99.060
467,48136.330000,197.036,-1.004,190.464,351.882,-199.474,359.075,15.220,52.400,-88.060
468,48136.370000,194.088,1.004,161.792,354.592,-208.637,356.895,185.220,-111.600,-44.060
469,48136.409000,190.157,5.020,144.384,356.751,-189.335,359.298,306.220,-250.600,14.940
470,48136.445000,187.209,3.012,115.712,362.397,-191.170,355.289,406.220,-333.600,66.940
471,48136.486000,206.864,8.031,109.568,371.974,-182.780,356.476,438.220,-282.600,78.940
472,48136.526000,221.605,1.004,116.736,370.183,-175.457,357.624,333.220,51.400,55.940
473,48136.546000,225.536,2.008,117.760,365.462,-175.402,363.586,453.220,301.400,28.940
474,48136.586000,245.190,3.012,117.760,357.123,-164.189,380.721,594.220,521.400,3.940
475,48136.626000,231.432,48.188,143.360,344.222,-141.051,402.082,828.220,840.400,-56.060
476,48136.666000,190.157,70.275,132.096,335.890,-129.000,415.256,725.220,770.400,-137.060
477,48136.709000,152.814,121.475,159.744,320.028,-114.262,430.466,621.220,677.400,-310.060
478,48136.769000,158.710,143.561,174.080,312.715,-96.721,442.764,275.220,596.400,-318.060
479,48136.775000,139.056,119.467,187.392,304.197,-97.613,449.695,18.220,471.400,-228.060
480,48136.810000,122.349,108.424,196.608,301.424,-93.031,451.778,-66.780,244.400,-69.060
481,48136.850000,136.107,100.392,198.656,296.708,-92.138,453.779,-62.780,126.400,-14.060
482,48136.885000,145.935,88.345,187.392,297.592,-96.706,453.683,1.220,-16.600,30.940
483,48136.925000,152.814,98.384,187.392,300.501,-91.231,450.820,80.220,-164.600,20.940
484,48136.965000,156.745,110.431,189.440,307.048,-96.659,449.720,122.220,-199.600,-34.060
485,48137.5000,157.727,110.431,172.032,312.865,-85.727,442.998,12.220,-292.600,9.940
486,48137.30000,155.762,99.388,157.696,312.824,-88.515,440.950,-69.780,-345.600,61.940
487,48137.69000,142.987,102.400,152.576,325.058,-92.231,429.948,-85.780,-348.600,64.940
488,48137.112000,142.987,94.369,126.976,329.742,-95.034,423.927,-157.780,-435.600,57.940
489,48137.146000,191.140,90.353,152.576,339.156,-97.794,416.920,-225.780,-240.600,19.940
490,48137.195000,198.019,87.341,163.840,336.171,-108.007,411.725,-300.780,-51.600,9.940
491,48137.230000,199.985,78.306,171.008,337.103,-108.930,410.712,-294.780,25.400,95.940
492,48137.259000,214.726,44.173,166.912,338.855,-119.022,408.511,-381.780,40.400,213.940
493,48137.289000,210.795,13.051,156.672,333.959,-131.013,407.254,-370.780,-62.600,344.940
494,48137.329000,210.795,-3.012,150.528,332.774,-147.672,398.940,-265.780,-207.600,419.940
495,48137.369000,214.726,5.020,143.360,333.561,-158.771,392.737,-144.780,-266.600,381.940
496,48137.409000,211.777,13.051,136.192,337.336,-158.838,386.774,-30.780,-313.600,168.940
497,48137.446000,223.570,0.000,137.216,343.952,-158.848,381.810,-89.780,-340.600,110.940
498,48137.466000,232.415,-1.004,130.048,350.541,-160.710,375.812,-62.780,-368.600,78.940
499,48137.506000,234.380,-2.008,115.712,359.939,-164.425,366.795,-20.780,-388.600,37.940
500,48137.551000,224.553,-8.031,108.544,361.872,-160.852,360.906,2.220,-369.600,17.940
501,48137.591000,206.864,-6.024,99.328,367.475,-165.495,353.853,71.220,-376.600,-20.060
502,48137.631000,204.898,2.008,99.328,376.048,-160.880,349.986,84.220,-378.600,-104.060
503,48137.666000,210.795,6.024,99.328,386.561,-152.594,345.205,61.220,-354.600,-210.060
504,48137.714000,212.760,14.055,83.968,391.314,-149.979,335.321,154.220,-393.600,-354.060
505,48137.735000,255.017,44.173,100.352,402.791,-140.706,333.546,-25.780,-201.600,-534.060
506,48137.770000,258.948,18.071,109.568,407.634,-131.639,325.789,-249.780,-246.600,-541.060
507,48137.810000,246.173,27.106,106.496,416.305,-119.714,321.082,-284.780,-323.600,-561.060
508,48137.850000,242.242,46.180,101.376,423.920,-115.248,310.248,-310.780,-358.600,-586.060
509,48137.890000,240.276,57.224,93.184,431.638,-103.414,301.559,-189.780,-283.600,-594.060
510,48137.930000,253.052,69.271,112.640,438.293,-100.656,297.649,-104.780,-131.600,-548.060
511,48137.950000,246.173,74.290,109.568,440.380,-86.811,301.926,-37.780,-48.600,-383.060
512,48137.990000,202.933,92.361,103.424,440.428,-83.166,301.009,91.220,45.400,-218.060
513,48138.27000,198.019,111.435,112.640,439.521,-80.411,302.060,80.220,157.400,-171.060
514,48138.70000,209.812,107.420,97.280,444.314,-76.547,309.112,43.220,97.400,-126.060
515,48138.109000,211.777,110.431,97.280,443.359,-77.436,311.081,51.220,116.400,-157.060
516,48138.150000,198.019,109.427,96.256,440.662,-67.338,314.276,-5.780,107.400,-181.060
517,48138.195000,185.244,110.431,95.232,442.469,-73.706,315.138,-49.780,121.400,-158.060
518,48138.210000,181.313,102.400,99.328,440.694,-65.428,318.295,-195.780,71.400,-116.060
519,48138.250000,192.123,113.443,111.616,437.823,-68.155,321.217,-237.780,24.400,-66.060
520,48138.291000,194.088,121.475,122.880,435.893,-70.928,321.155,-328.780,10.400,-21.060
521,48138.330000,204.898,130.510,137.216,433.845,-82.006,317.932,-327.780,-16.600,5.940
522,48138.370000,185.244,131.514,146.432,436.609,-87.465,317.820,-345.780,-4.600,31.940
523,48138.406000,205.881,91.357,135.168,437.450,-94.840,314.681,-471.780,-211.600,261.940
524,48138.426000,169.520,64.251,120.832,438.147,-112.371,307.346,-276.780,-338.600,317.940
525,48138.470000,228.484,62.243,117.760,441.866,-116.180,297.324,-53.780,-295.600,340.940
526,48138.510000,248.138,32.125,151.552,439.768,-130.922,294.023,55.220,-149.600,359.940
527,48138.546000,228.484,39.153,139.264,436.954,-129.127,294.057,167.220,-163.600,336.940
528,48138.587000,235.363,37.145,136.192,436.890,-133.727,292.965,158.220,-209.600,260.940
529,48138.627000,236.345,39.153,118.784,435.884,-137.521,286.915,181.220,-187.600,179.940
530,48138.646000,228.484,41.161,101.376,442.458,-141.099,286.848,192.220,-196.600,117.940
531,48138.692000,222.587,41.161,91.136,439.626,-140.278,283.878,85.220,-114.600,21.940
532,48138.727000,218.656,38.149,90.112,438.598,-146.645,286.725,63.220,-74.600,25.940
533,48138.767000,213.743,29.114,92.160,437.711,-142.116,284.830,53.220,6.400,34.940
534,48138.810000,219.639,25.098,92.160,435.773,-145.747,287.734,49.220,46.400,72.940
535,48138.849000,215.708,23.090,81.920,433.848,-148.462,290.657,131.220,14.400,89.940
536,48138.889000,203.916,12.047,92.160,431.133,-140.118,297.793,221.220,166.400,123.940
537,48138.909000,205.881,9.035,113.664,428.257,-143.664,305.671,463.220,180.400,153.940
538,48138.949000,195.071,34.133,121.856,425.508,-137.269,306.797,628.220,111.400,155.940
539,48138.989000,274.672,96.376,156.672,416.186,-128.037,316.927,703.220,201.400,92.940
540,48139.29000,277.620,109.427,179.200,417.235,-121.436,326.020,472.220,182.400,23.940
541,48139.69000,241.259,122.478,177.152,414.478,-115.899,330.113,467.220,28.400,-131.060
542,48139.109000,193.106,104.408,151.552,418.390,-106.668,331.309,286.220,-116.600,-52.060
543,48139.127000,169.520,63.247,132.096,421.243,-105.695,332.329,87.220,-203.600,80.940
544,48139.169000,162.641,69.271,128.000,423.038,-112.200,326.225,68.220,-188.600,103.940
545,48139.209000,169.520,68.267,134.144,423.036,-112.219,325.230,220.220,-89.600,102.940
546,48139.255000,185.244,98.384,136.192,422.206,-103.948,327.394,320.220,-53.600,28.940
547,48139.289000,198.019,98.384,138.240,421.272,-103.044,327.412,245.220,-44.600,-46.060
548,48139.329000,202.933,107.420,133.120,424.208,-95.716,325.583,207.220,-95.600,-77.060
549,48139.349000,204.898,112.439,140.288,426.213,-87.446,325.762,61.220,-79.600,-50.060
550,48139.389000,197.036,112.439,133.120,427.966,-97.518,324.556,-64.780,-145.600,-0.060
551,48139.429000,196.054,93.365,132.096,433.682,-93.915,317.679,-157.780,-141.600,51.940
552,48139.469000,196.054,98.384,113.664,434.511,-102.207,314.519,-198.780,-178.600,3.940
553,48139.509000,203.916,99.388,102.400,435.435,-103.227,308.531,-226.780,-121.600,-48.060
554,48139.561000,228.484,81.318,95.232,436.389,-102.357,305.567,-276.780,-148.600,-103.060
555,48139.591000,228.484,69.271,78.848,443.858,-108.826,297.484,-388.780,-218.600,-123.060
556,48139.611000,211.777,51.200,100.352,445.768,-107.067,292.551,-421.780,-251.600,-40.060
557,48139.662000,259.931,48.188,118.784,445.659,-114.493,287.419,-411.780,-11.600,42.940
558,48139.691000,233.397,44.173,120.832,447.498,-117.412,277.413,-254.780,-72.600,110.940
559,48139.731000,221.605,31.122,129.024,445.519,-123.830,278.269,-143.780,-48.600,121.940
560,48139.769000,223.570,41.161,98.304,449.275,-125.671,275.251,-20.780,-236.600,157.940
561,48139.812000,220.622,33.129,78.848,451.004,-136.796,267.060,25.220,-329.600,210.940
562,48139.832000,219.639,12.047,74.752,456.720,-133.193,260.182,5.220,-386.600,254.940
563,48139.873000,245.190,9.035,70.656,458.405,-147.144,247.952,166.220,-355.600,285.940
564,48139.917000,237.328,5.020,69.632,458.377,-149.015,245.923,219.220,-358.600,277.940
565,48139.952000,251.086,9.035,64.512,463.133,-147.120,245.971,501.220,-83.600,102.940
566,48140.2000,255.017,2.008,66.560,462.348,-135.243,245.228,449.220,-61.600,19.940
567,48140.40000,274.672,30.118,53.248,466.256,-126.830,251.380,794.220,48.400,-5.060
568,48140.71000,269.758,42.165,37.888,470.228,-113.818,258.625,829.220,11.400,-179.060
569,48140.91000,243.225,100.392,61.440,469.516,-97.223,264.945,1137.220,86.400,-323.060
570,48140.130000,210.795,103.404,64.512,471.595,-83.475,264.246,561.220,-3.600,-456.060
571,48140.170000,214.726,111.435,83.968,474.651,-67.805,267.568,158.220,129.400,-449.060
572,48140.215000,199.002,100.392,87.040,474.705,-64.102,269.637,-162.780,92.400,-288.060
573,48140.249000,192.123,102.400,52.224,475.834,-51.166,274.887,-11.780,116.400,-200.060
574,48140.289000,204.898,111.435,49.152,475.872,-48.417,274.945,148.220,118.400,-223.060
575,48140.309000,209.812,114.447,51.200,478.822,-40.154,274.131,50.220,39.400,-185.060
576,48140.349000,218.656,124.486,82.944,473.183,-37.461,275.174,13.220,55.400,-151.060
577,48140.390000,226.518,119.467,57.344,480.761,-36.504,272.222,-292.780,-84.600,-109.060
578,48140.432000,221.605,113.443,54.272,476.906,-41.212,268.138,-187.780,-107.600,-1.060
579,48140.470000,197.036,123.482,87.040,476.867,-43.980,267.084,-193.780,-91.600,18.940
580,48140.510000,197.036,120.471,76.800,480.605,-46.796,261.062,-343.780,-127.600,67.940
581,48140.529000,203.916,114.447,67.584,478.543,-58.809,256.825,-179.780,-92.600,98.940
582,48140.569000,221.605,96.376,75.776,480.490,-54.300,251.950,-299.780,-84.600,131.940
583,48140.610000,231.432,78.306,65.536,481.272,-66.217,250.703,-254.780,-54.600,179.940
584,48140.649000,251.086,72.282,71.680,475.548,-69.918,252.605,-178.780,124.400,200.940
585,48140.689000,247.155,66.259,78.848,471.702,-74.529,253.496,-341.780,131.400,164.940
586,48140.729000,218.656,46.180,58.368,470.688,-79.181,250.412,-491.780,-25.600,102.940
587,48140.774000,311.033,43.169,3.072,467.732,-88.282,255.187,-226.780,263.400,48.940
588,48140.800000,301.205,6.024,9.216,469.555,-92.916,251.112,-308.780,-7.600,218.940
589,48140.835000,274.672,54.212,28.672,467.551,-100.406,243.987,-260.780,-46.600,-60.060
590,48140.869000,247.155,45.176,50.176,469.425,-101.375,239.991,-113.780,-272.600,-71.060
591,48140.915000,205.881,26.102,30.720,476.087,-97.760,233.115,-635.780,-340.600,-148.060
592,48140.950000,246.173,32.125,35.840,482.556,-107.965,221.967,-456.780,-335.600,-139.060
593,48140.989000,244.207,19.075,56.320,485.478,-100.793,212.177,-425.780,-340.600,-217.060
594,48141.10000,256.983,38.149,51.200,493.003,-102.760,200.211,-277.780,-311.600,-316.060
595,48141.50000,242.242,50.196,66.560,496.907,-93.626,196.433,1.220,-253.600,-353.060
596,48141.92000,259.931,56.220,37.888,496.945,-90.098,189.545,65.220,-309.600,-387.060
597,48141.132000,275.655,84.329,44.032,502.859,-72.636,188.931,348.220,-85.600,-339.060
598,48141.172000,254.035,88.345,40.960,502.918,-68.095,187.038,454.220,-70.600,-151.060
599,48141.212000,225.536,109.427,27.648,508.765,-56.032,191.282,498.220,-8.600,-55.060
600,48141.237000,225.536,114.447,17.408,505.022,-53.275,194.319,438.220,37.400,29.940
601,48141.284000,235.363,113.443,20.480,508.773,-55.934,196.258,257.220,64.400,55.940
602,48141.309000,223.570,102.400,19.456,506.832,-59.604,197.171,42.220,-27.600,59.940
603,48141.355000,229.466,108.424,15.360,504.049,-55.919,200.230,44.220,30.400,33.940
604,48141.395000,208.829,107.420,35.840,503.057,-59.537,203.135,44.220,60.400,30.940
605,48141.430000,222.587,105.412,29.696,504.986,-56.783,202.202,-40.780,80.400,49.940
606,48141.471000,206.864,114.447,63.488,500.212,-60.413,207.091,4.220,164.400,115.940
607,48141.491000,208.829,119.467,75.776,495.289,-75.036,211.745,-20.780,153.400,215.940
608,48141.534000,206.864,117.459,62.464,495.214,-80.533,211.628,-92.780,9.400,288.940
609,48141.574000,215.708,110.431,58.368,494.095,-93.352,212.348,-154.780,-32.600,340.940
610,48141.611000,211.777,81.318,62.464,491.161,-99.880,208.227,-110.780,-194.600,432.940
611,48141.654000,227.501,56.220,36.864,487.285,-106.382,206.093,16.220,-42.600,454.940
612,48141.702000,281.551,49.192,46.080,484.239,-121.935,208.742,-66.780,-44.600,500.940
613,48141.711000,253.052,12.047,60.416,476.529,-132.132,207.519,-383.780,35.400,417.940
614,48141.751000,258.948,7.027,72.704,476.351,-144.997,205.255,-391.780,104.400,315.940
615,48141.802000,261.896,7.027,63.488,473.417,-152.305,208.079,-315.780,101.400,174.940
616,48141.831000,254.035,7.027,36.864,473.309,-160.492,210.889,-15.780,91.400,55.940
617,48141.871000,251.086,10.039,48.128,472.426,-155.924,210.985,-19.780,74.400,-20.060
618,48141.915000,229.466,-1.004,52.224,467.619,-161.483,210.859,-89.780,-29.600,-117.060
619,48141.955000,220.622,-3.012,43.008,472.407,-157.678,214.926,199.220,-12.600,-124.060
620,48141.975000,235.363,-3.012,61.440,468.766,-147.572,219.114,336.220,114.400,-132.060
621,48142.29000,218.656,3.012,52.224,470.694,-145.598,225.127,539.220,90.400,-97.060
622,48142.54000,235.363,-2.008,37.888,467.127,-130.775,236.378,727.220,260.400,-108.060
623,48142.95000,245.190,56.220,79.872,465.395,-120.450,250.520,974.220,310.400,-68.060
624,48142.135000,291.378,91.357,78.848,459.982,-102.806,266.802,891.220,356.400,-176.060
625,48142.175000,249.121,127.498,125.952,458.337,-86.067,281.081,771.220,391.400,-291.060
626,48142.227000,214.726,146.573,122.880,454.746,-72.297,285.347,562.220,273.400,-484.060
627,48142.242000,177.382,121.475,117.760,452.990,-63.024,292.504,273.220,90.400,-398.060
628,48142.274000,171.486,126.494,116.736,456.956,-50.090,295.769,76.220,15.400,-301.060
629,48142.315000,172.468,123.482,111.616,457.856,-52.923,290.737,-109.780,-94.600,-129.060
630,48142.357000,183.278,128.502,118.784,462.633,-49.255,287.838,-133.780,-151.600,-107.060
631,48142.390000,199.985,131.514,115.712,456.942,-50.246,287.809,-156.780,-105.600,-162.060
632,48142.411000,178.365,108.424,106.496,464.553,-46.598,281.930,-419.780,-266.600,-197.060
633,48142.451000,188.192,123.482,109.568,465.541,-43.019,277.034,-484.780,-210.600,-362.060
634,48142.491000,197.036,130.510,89.088,472.212,-38.526,268.188,-264.780,-147.600,-380.060
635,48142.531000,203.916,123.482,88.064,472.182,-40.417,265.164,-294.780,-39.600,-380.060
636,48142.571000,220.622,150.588,95.232,473.138,-39.528,263.195,-478.780,-33.600,-332.060
637,48142.611000,233.397,109.427,59.392,475.993,-37.755,258.264,-813.780,-183.600,-104.060
638,48142.655000,200.967,70.275,86.016,473.836,-56.279,248.914,-874.780,-249.600,99.940
639,48142.675000,259.931,63.247,116.736,482.255,-62.696,242.822,-930.780,-77.600,91.940
640,48142.712000,255.017,76.298,118.784,480.182,-76.385,246.507,-522.780,127.400,86.940
641,48142.755000,244.207,66.259,123.904,478.286,-76.449,244.513,-218.780,254.400,103.940
642,48142.795000,244.207,60.235,87.040,474.543,-73.692,247.550,123.220,79.400,149.940
643,48142.835000,222.587,37.145,64.512,477.296,-80.048,248.414,440.220,3.400,263.940
644,48142.880000,244.207,47.184,52.224,472.532,-82.801,251.332,392.220,16.400,287.940
645,48142.909000,240.276,57.224,52.224,474.510,-77.162,257.423,408.220,45.400,190.940
646,48142.936000,238.311,44.173,44.032,474.543,-75.232,262.437,571.220,164.400,135.940
647,48142.976000,208.829,43.169,55.296,468.886,-74.293,267.422,572.220,146.400,137.940
648,48143.16000,241.259,86.337,67.584,470.939,-63.157,273.630,980.220,301.400,76.940
649,48143.56000,224.553,110.431,71.680,464.399,-58.411,286.651,810.220,299.400,47.940
650,48143.96000,218.656,165.647,125.952,460.925,-36.337,294.078,547.220,309.400,-70.060
651,48143.116000,196.054,133.522,120.832,457.994,-43.606,298.893,208.220,243.400,47.940
652,48143.156000,181.313,115.451,94.208,456.214,-35.386,299.065,164.220,70.400,162.940
653,48143.199000,184.261,99.388,82.944,458.049,-39.883,301.956,102.220,-97.600,382.940
654,48143.232000,201.950,94.369,74.752,459.766,-51.924,293.745,13.220,-269.600,332.940
655,48143.272000,230.449,85.333,57.344,459.683,-57.518,288.653,147.220,-115.600,261.940
656,48143.330000,224.553,92.361,75.776,462.567,-53.874,285.750,72.220,-168.600,203.940
657,48143.351000,234.380,93.365,72.704,465.352,-57.540,283.687,-22.780,-152.600,150.940
658,48143.371000,209.812,89.349,73.728,466.228,-62.206,278.616,-68.780,-158.600,98.940
659,48143.411000,196.054,87.341,69.632,466.199,-64.078,276.587,-56.780,-167.600,56.940
660,48143.451000,198.019,90.353,60.416,467.052,-70.556,272.472,-32.780,-137.600,60.940
661,48143.501000,199.002,84.329,67.584,467.127,-64.280,265.643,-60.780,-78.600,-0.060
662,48143.531000,215.708,95.373,52.224,469.951,-65.197,263.638,-30.780,-56.600,-38.060
663,48143.571000,238.311,88.345,63.488,471.868,-63.340,263.681,-46.780,84.400,-88.060
664,48143.591000,251.086,72.282,56.320,465.211,-66.117,266.596,-198.780,128.400,-108.060
665,48143.631000,251.086,62.243,63.488,466.194,-63.376,265.661,-322.780,197.400,-35.060
666,48143.671000,235.363,37.145,50.176,461.278,-77.142,267.350,-383.780,173.400,44.940
667,48143.717000,335.601,70.275,74.752,455.648,-74.351,273.369,-441.780,283.400,163.940
668,48143.751000,278.603,10.039,43.008,460.227,-85.302,272.148,-449.780,42.400,230.940
669,48143.791000,244.207,24.094,46.080,457.171,-100.972,268.826,-267.780,-73.600,171.940
670,48143.811000,237.328,54.212,20.480,456.293,-95.566,264.961,-89.780,-87.600,-2.060
671,48143.851000,227.501,52.204,25.600,460.018,-99.297,258.919,-155.780,-144.600,-90.060
672,48143.905000,241.259,42.165,24.576,462.945,-92.847,259.061,-189.780,-235.600,-98.060
673,48143.935000,256.983,27.106,19.456,462.919,-93.919,251.081,-272.780,-354.600,-88.060
674,48143.975000,253.052,29.114,36.864,470.382,-100.466,239.017,-346.780,-363.600,-24.060
675,48144.16000,261.896,29.114,40.960,473.154,-104.288,228.993,-192.780,-325.600,-77.060
676,48144.54000,250.104,27.106,43.008,482.704,-96.991,221.206,-234.780,-325.600,-130.060
677,48144.74000,263.862,37.145,40.960,478.876,-99.847,218.155,-178.780,-154.600,-170.060
678,48144.114000,263.862,44.173,48.128,485.495,-99.819,215.182,-57.780,-161.600,-55.060
679,48144.161000,245.190,5.020,19.456,484.585,-97.102,214.244,284.220,-87.600,69.940
680,48144.199000,213.743,74.290,18.432,484.549,-99.831,215.180,418.220,-50.600,77.940
681,48144.232000,249.121,77.302,33.792,480.929,-88.712,224.363,651.220,213.400,-28.060
682,48144.282000,270.741,102.400,15.360,479.069,-86.807,229.374,175.220,76.400,-125.060
683,48144.297000,252.069,84.329,51.200,481.990,-81.195,233.477,10.220,163.400,-197.060
684,48144.336000,236.345,100.392,61.440,482.973,-79.213,240.483,-1.780,5.400,-182.060
685,48144.376000,215.708,87.341,37.888,480.192,-74.729,237.590,-45.780,19.400,-161.060
686,48144.416000,208.829,99.388,48.128,477.317,-77.495,238.522,14.220,21.400,-78.060
687,48144.461000,201.950,118.463,91.136,476.347,-79.320,239.476,2.220,66.400,-54.060
688,48144.496000,163.624,140.549,114.688,477.327,-77.378,244.492,-88.780,56.400,10.940
689,48144.541000,198.019,100.392,70.656,477.279,-81.023,245.409,-189.780,-7.600,101.940
690,48144.556000,221.605,97.380,81.920,475.183,-95.745,243.103,-680.780,-100.600,275.940
691,48144.604000,296.292,64.251,64.512,475.892,-112.360,235.788,-543.780,-17.600,304.940
692,48144.632000,258.948,27.106,80.896,470.166,-116.080,236.695,-276.780,-42.600,226.940
693,48144.679000,267.793,34.133,80.896,473.948,-116.069,234.712,-172.780,-112.600,143.940
694,48144.712000,271.724,33.129,76.800,473.850,-123.378,235.551,-167.780,-57.600,102.940
695,48144.752000,233.397,36.141,61.440,468.113,-127.215,230.487,-146.780,-147.600,-8.060
696,48144.777000,224.553,32.125,56.320,472.901,-122.650,226.613,-18.780,-151.600,-143.060
697,48144.816000,208.829,37.145,55.296,476.645,-125.388,224.571,34.220,-103.600,-206.060
698,48144.856000,207.846,35.137,48.128,478.594,-120.860,220.692,92.220,-49.600,-203.060
699,48144.896000,219.639,27.106,61.440,480.637,-110.601,228.870,110.220,23.400,-180.060
700,48144.936000,211.777,13.051,60.416,477.776,-112.432,230.816,165.220,63.400,-115.060
701,48144.977000,215.708,24.094,64.512,477.956,-99.548,234.075,418.220,95.400,-18.060
702,48144.997000,235.363,51.200,67.584,477.008,-101.119,247.965,525.220,154.400,-43.060
703,48145.51000,245.190,86.337,93.184,471.477,-90.240,246.199,687.220,169.400,-63.060
704,48145.72000,293.344,148.580,119.808,466.967,-75.390,259.439,603.220,311.400,-275.060
705,48145.112000,260.914,161.631,126.976,467.159,-62.369,269.662,587.220,275.400,-363.060
706,48145.152000,208.829,148.580,143.360,464.441,-54.064,274.808,98.220,134.400,-292.060
707,48145.192000,165.589,120.471,114.688,463.576,-48.502,278.904,-143.780,8.400,-116.060
708,48145.239000,167.555,124.486,112.640,468.256,-52.123,277.839,-245.780,-39.600,19.940
709,48145.259000,168.537,115.451,113.664,466.164,-66.027,270.578,-258.780,-98.600,157.940
710,48145.299000,188.192,121.475,116.736,468.105,-62.357,269.664,-136.780,-59.600,148.940
711,48145.339000,203.916,122.478,121.856,466.070,-72.518,266.461,-69.780,-25.600,168.940
712,48145.392000,204.898,111.435,117.760,467.062,-69.659,271.496,31.220,46.400,103.940
713,48145.414000,212.760,114.447,93.184,464.200,-71.510,272.447,73.220,36.400,40.940
714,48145.454000,240.276,123.482,66.560,467.995,-70.583,270.483,-204.780,79.400,-92.060
715,48145.480000,229.466,94.369,60.416,464.133,-76.149,269.365,-475.780,-5.600,-165.060
716,48145.520000,225.536,73.286,91.136,463.121,-80.781,267.275,-706.780,36.400,-217.060
717,48145.554000,234.380,3.012,101.376,463.063,-85.303,270.163,-395.780,202.400,-13.060
718,48145.594000,240.276,82.322,118.784,460.284,-81.559,276.206,-22.780,396.400,-6.060
719,48145.639000,207.846,64.251,115.712,461.196,-84.256,278.139,-34.780,280.400,-4.060
720,48145.675000,229.466,61.239,77.824,458.339,-86.048,282.076,98.220,-9.600,80.940
721,48145.700000,226.518,61.239,73.728,460.287,-81.520,278.196,52.220,-169.600,185.940
722,48145.739000,223.570,51.200,76.800,462.925,-96.160,276.894,20.220,-140.600,262.940
723,48145.797000,231.432,30.118,77.824,462.020,-92.606,271.995,71.220,-121.600,218.940
724,48145.839000,244.207,26.102,72.704,462.966,-92.593,271.997,162.220,49.400,207.940
725,48145.856000,223.570,35.137,72.704,461.989,-95.276,275.917,379.220,157.400,154.940
726,48145.894000,241.259,54.212,71.680,456.389,-90.595,284.960,455.220,277.400,59.940
727,48145.945000,217.674,82.322,60.416,454.628,-81.380,289.132,444.220,110.400,5.940
728,48145.965000,231.432,106.416,80.896,450.806,-84.939,297.008,439.220,335.400,-149.060
729,48146.0,245.190,122.478,109.568,447.117,-78.478,302.113,156.220,436.400,-192.060
730,48146.40000,244.207,123.482,117.760,439.676,-70.898,320.167,-159.780,739.400,-169.060
731,48146.74000,198.019,107.420,125.952,433.058,-71.687,331.081,-244.780,587.400,-69.060
732,48146.119000,191.140,89.349,87.040,418.905,-69.847,341.046,-310.780,615.400,70.940
733,48146.157000,188.192,84.329,68.608,408.394,-78.873,354.763,-112.780,844.400,38.940
734,48146.179000,198.019,65.255,73.728,402.803,-74.074,369.776,-64.780,994.400,-6.060
735,48146.219000,178.365,105.412,114.688,377.217,-78.680,385.555,-250.780,906.400,-126.060
736,48146.259000,173.451,75.294,144.384,372.556,-74.844,397.565,-227.780,558.400,-108.060
737,48146.299000,161.658,106.416,160.768,365.856,-81.208,404.382,-193.780,280.400,-120.060
738,48146.335000,143.969,113.443,171.008,363.102,-74.852,403.519,-32.780,100.400,-99.060
739,48146.379000,136.107,115.451,165.888,363.113,-73.955,402.543,-51.780,21.400,-30.060
740,48146.416000,140.038,118.463,158.720,364.881,-83.092,402.351,-154.780,-74.600,32.940
741,48146.439000,152.814,105.412,138.240,366.778,-82.248,397.399,-342.780,-92.600,72.940
742,48146.479000,178.365,71.278,137.216,365.646,-95.203,391.154,-466.780,-40.600,92.940
743,48146.519000,196.054,63.247,143.360,368.314,-107.173,385.930,-424.780,15.400,109.940
744,48146.560000,239.294,49.192,181.248,361.733,-104.454,388.962,-434.780,242.400,153.940
745,48146.600000,302.188,55.216,182.272,352.142,-114.539,394.701,-179.780,434.400,134.940
746,48146.639000,219.639,15.059,163.840,348.237,-123.692,397.484,-215.780,49.400,249.940
747,48146.657000,199.985,29.114,150.528,350.982,-130.145,393.372,-208.780,-98.600,214.940
748,48146.696000,205.881,43.169,129.024,352.794,-135.676,390.273,-53.780,-180.600,102.940
749,48146.739000,222.587,40.157,123.904,359.493,-129.332,382.461,0.220,-328.600,-18.060
750,48146.779000,233.397,31.122,122.880,364.197,-130.361,373.494,-74.780,-426.600,-31.060
751,48146.817000,213.743,31.122,106.496,371.707,-134.042,367.459,-133.780,-491.600,-60.060
752,48146.859000,216.691,30.118,98.304,383.071,-132.255,357.568,-124.780,-431.600,-82.060
753,48146.876000,218.656,33.129,104.448,385.831,-136.994,347.525,-27.780,-381.600,-53.060
754,48146.916000,235.363,35.137,102.400,391.611,-128.790,341.740,-40.780,-349.600,-30.060
755,48146.956000,232.415,29.114,100.352,395.333,-132.561,333.708,15.220,-393.600,-29.060
756,48146.996000,244.207,34.133,86.016,401.937,-133.487,328.725,33.220,-427.600,-10.060
757,48147.39000,239.294,40.157,83.968,408.594,-129.930,318.864,-2.780,-366.600,-39.060
758,48147.79000,229.466,35.137,86.016,416.140,-130.883,311.893,-155.780,-440.600,-119.060
759,48147.115000,240.276,36.141,91.136,417.979,-133.802,301.887,-60.780,-365.600,-159.060
760,48147.136000,240.276,19.075,92.160,422.765,-129.256,297.018,-75.780,-360.600,-202.060
761,48147.176000,240.276,33.129,97.280,434.203,-122.752,294.189,-41.780,-308.600,-238.060
762,48147.219000,254.035,39.153,96.256,439.853,-123.769,285.224,88.220,-242.600,-202.060
763,48147.259000,238.311,36.141,106.496,439.861,-122.911,282.258,-70.780,-217.600,-143.060
764,48147.299000,209.812,57.224,110.592,446.535,-119.159,282.348,67.220,-158.600,-87.060
765,48147.350000,199.002,47.184,96.256,445.705,-110.108,277.566,182.220,-196.600,19.940
766,48147.360000,204.898,89.349,100.352,452.339,-109.143,275.607,215.220,-62.600,-66.060
767,48147.439000,243.225,102.400,96.256,452.369,-107.252,278.632,190.220,17.400,-113.060
768,48147.455000,235.363,87.341,108.544,447.628,-108.192,280.594,-42.780,-40.600,-128.060
769,48147.476000,225.536,83.325,96.256,450.567,-100.825,280.755,-100.780,-51.600,-121.060
770,48147.516000,199.985,69.271,93.184,450.504,-105.406,280.657,-35.780,-91.600,-42.060
771,48147.556000,196.054,69.271,84.992,457.079,-108.203,273.645,-42.780,-106.600,-17.060
772,48147.576000,199.985,80.314,86.016,458.068,-105.384,276.690,-32.780,-144.600,-20.060
773,48147.616000,191.140,99.388,116.736,456.117,-109.171,271.634,-16.780,-70.600,-81.060
774,48147.656000,194.088,104.408,115.712,459.887,-110.076,269.631,-131.780,-173.600,-78.060
775,48147.696000,191.140,87.341,95.232,462.801,-103.762,262.807,-56.780,-303.600,7.940
776,48147.739000,207.846,78.306,83.968,459.902,-107.582,256.754,-18.780,-355.600,90.940
777,48147.784000,251.086,59.231,87.040,462.622,-115.867,252.603,-52.780,-279.600,171.940
778,48147.816000,267.793,59.231,102.400,465.364,-122.360,246.501,-217.780,-20.600,198.940
779,48147.842000,248.138,48.188,104.448,460.503,-132.402,251.253,-320.780,69.400,131.940
780,48147.876000,264.845,46.180,108.544,461.463,-131.454,252.269,-296.780,206.400,39.940
781,48147.916000,261.896,38.149,97.280,454.803,-134.270,253.194,-192.780,238.400,-6.060
782,48147.957000,234.380,40.157,73.728,450.042,-137.763,265.048,-86.780,364.400,-25.060
783,48147.997000,225.536,41.161,65.536,449.184,-132.123,273.124,-112.780,510.400,-127.060
784,48148.40000,208.829,30.118,79.872,440.573,-140.266,283.879,-160.780,543.400,-150.060
785,48148.60000,189.175,33.129,82.944,431.231,-132.808,296.954,-150.780,619.400,-163.060
786,48148.100000,194.088,25.098,89.088,422.660,-138.183,308.763,-45.780,628.400,-104.060
787,48148.140000,193.106,19.075,99.328,418.007,-133.470,318.803,127.220,650.400,-50.060
788,48148.180000,199.002,40.157,121.856,403.894,-129.622,337.762,247.220,711.400,-33.060
789,48148.220000,198.019,45.176,145.408,393.608,-122.157,351.831,189.220,617.400,71.940
790,48148.260000,203.916,79.310,169.984,377.485,-126.638,367.626,337.220,611.400,81.940
791,48148.301000,244.207,104.408,210.944,375.764,-115.416,380.792,200.220,644.400,56.940
792,48148.316000,177.382,131.514,217.088,363.415,-119.984,389.628,14.220,476.400,-152.060
793,48148.367000,130.211,114.447,215.040,359.744,-112.529,398.733,-91.780,358.400,-162.060
794,48148.396000,101.712,85.333,222.208,351.170,-117.163,401.606,-264.780,251.400,49.940
795,48148.436000,91.885,79.310,233.472,349.102,-130.014,401.329,-218.780,129.400,124.940
796,48148.476000,104.660,82.322,235.520,346.313,-126.387,401.402,-104.780,35.400,107.940
797,48148.522000,107.608,90.353,225.280,346.285,-128.259,399.373,-60.780,-79.600,27.940
798,48148.536000,133.159,97.380,208.896,348.123,-131.957,396.313,-112.780,-117.600,-13.060
799,48148.576000,154.779,94.369,185.344,352.762,-138.366,393.200,-205.780,-79.600,-37.060
800,48148.622000,182.296,82.322,162.816,351.835,-136.604,390.252,-349.780,-17.600,-49.060
801,48148.664000,190.157,30.118,159.744,352.588,-150.412,385.981,-506.780,-7.600,29.940
802,48148.700000,187.209,15.059,164.864,352.467,-158.755,380.830,-353.780,-9.600,127.940
803,48148.741000,208.829,17.067,177.152,347.728,-159.675,383.787,-144.780,143.400,72.940
804,48148.761000,195.071,47.184,209.920,342.901,-167.008,386.608,3.220,225.400,-33.060
805,48148.806000,176.399,25.098,195.584,342.036,-161.446,390.704,53.220,86.400,110.940
806,48148.841000,149.866,19.075,158.720,342.033,-161.485,388.714,112.220,-146.600,216.940
807,48148.880000,161.658,18.071,144.384,345.828,-160.557,386.750,172.220,-326.600,280.940
808,48148.922000,194.088,4.016,157.696,347.651,-165.191,382.675,189.220,-186.600,288.940
809,48148.957000,198.019,5.020,156.672,349.579,-162.437,381.742,304.220,-6.600,236.940
810,48149.0,203.916,-5.020,147.456,344.795,-166.963,387.606,378.220,81.400,191.940
811,48149.21000,197.036,17.067,144.384,341.163,-156.760,396.770,582.220,220.400,126.940
812,48149.56000,190.157,47.184,138.240,337.539,-145.680,403.963,733.220,242.400,81.940
813,48149.102000,200.967,78.306,148.480,334.894,-132.677,415.177,677.220,262.400,51.940
814,48149.142000,174.434,122.478,186.368,329.493,-113.338,424.532,632.220,366.400,-56.060
815,48149.182000,169.520,132.518,204.800,323.996,-101.288,435.721,431.220,406.400,-81.060
816,48149.222000,158.710,119.467,206.848,316.406,-103.162,438.654,146.220,242.400,39.940
817,48149.242000,147.900,92.361,186.368,316.392,-104.098,437.639,61.220,17.400,134.940
818,48149.282000,150.848,76.298,158.720,320.216,-101.280,438.700,18.220,-195.600,181.940
819,48149.336000,157.727,76.298,153.600,322.979,-105.979,430.647,-70.780,-299.600,105.940
820,48149.357000,178.365,77.302,158.720,333.389,-105.062,423.719,-86.780,-275.600,33.940
821,48149.397000,191.140,83.325,165.888,336.137,-111.476,421.598,-86.780,-169.600,-21.060
822,48149.437000,182.296,83.325,167.936,338.011,-112.446,417.601,-71.780,-138.600,-30.060
823,48149.457000,167.555,92.361,161.792,340.832,-113.383,414.601,-39.780,-157.600,-10.060
824,48149.497000,140.038,82.322,151.552,348.444,-109.716,409.717,-98.780,-258.600,46.940
825,48149.543000,148.883,90.353,153.600,350.274,-113.511,401.682,-108.780,-296.600,55.940
826,48149.577000,152.814,69.271,143.360,357.809,-115.361,395.686,-178.780,-262.600,78.940
827,48149.617000,166.572,59.231,142.336,357.728,-120.936,391.589,-256.780,-293.600,56.940
828,48149.660000,202.933,50.196,139.264,363.262,-130.237,380.458,-353.780,-256.600,61.940
829,48149.701000,219.639,29.114,152.576,365.102,-133.136,371.448,-269.780,-190.600,125.940
830,48149.721000,254.035,23.090,169.984,367.761,-145.983,368.194,-168.780,-96.600,165.940
831,48149.761000,264.845,12.047,157.696,365.931,-141.427,368.288,8.220,-31.600,221.940
832,48149.801000,224.553,8.031,138.240,364.972,-142.356,368.267,120.220,-167.600,211.940
833,48149.841000,221.605,22.086,125.952,366.866,-141.551,361.325,229.220,-274.600,96.940
834,48149.901000,205.881,49.192,104.448,378.250,-138.750,356.428,249.220,-371.600,-25.060
835,48149.927000,224.553,39.153,96.256,383.063,-132.353,352.593,133.220,-379.600,-56.060
836,48149.941000,243.225,39.153,94.208,386.769,-137.079,342.551,-7.780,-310.600,-11.060
837,48149.981000,230.449,31.122,96.256,389.631,-135.228,341.600,-37.780,-172.600,62.940
838,48150.25000,218.656,33.129,99.328,394.361,-135.185,340.613,-30.780,-126.600,67.940
839,48150.57000,222.587,42.165,99.328,394.294,-139.825,337.531,33.220,-119.600,47.940
840,48150.97000,223.570,43.169,100.352,398.154,-134.278,337.654,-53.780,-148.600,-30.060
841,48150.137000,228.484,35.137,103.424,401.899,-136.236,328.667,-95.780,-188.600,-43.060
842,48150.161000,223.570,38.149,91.136,402.828,-137.198,325.664,-144.780,-235.600,-51.060
843,48150.202000,237.328,38.149,91.136,407.471,-142.788,317.594,-319.780,-234.600,-105.060
844,48150.237000,241.259,44.173,86.016,414.098,-141.902,311.655,-432.780,-263.600,-169.060
845,48150.277000,233.397,31.122,98.304,415.879,-149.342,304.537,-373.780,-189.600,-190.060
846,48150.317000,229.466,26.102,107.520,421.572,-147.552,298.616,-448.780,-190.600,-153.060
847,48150.357000,229.466,6.024,108.544,422.381,-156.838,291.457,-384.780,-186.600,-132.060
848,48150.404000,228.484,9.035,112.640,423.310,-157.800,288.454,-100.780,-109.600,-86.060
849,48150.424000,252.069,27.106,113.664,427.172,-152.234,289.573,21.220,-35.600,-48.060
850,48150.464000,217.674,31.122,108.544,427.134,-154.982,289.514,121.220,-33.600,-21.060
851,48150.509000,193.106,25.098,76.800,427.264,-145.002,284.753,261.220,-136.600,44.940
852,48150.544000,222.587,56.220,76.800,432.057,-141.138,291.805,303.220,-12.600,-20.060
853,48150.584000,250.104,74.290,93.184,430.205,-138.376,293.851,271.220,162.400,-164.060
854,48150.624000,250.104,75.294,104.448,429.303,-135.562,297.888,186.220,160.400,-185.060
855,48150.644000,226.518,73.286,113.664,430.384,-126.271,304.055,57.220,160.400,-200.060
856,48150.684000,194.088,65.255,102.400,424.647,-130.888,305.937,-19.780,85.400,-165.060
857,48150.724000,198.019,72.282,94.208,426.659,-122.540,310.097,-47.780,71.400,-177.060
858,48150.769000,195.071,89.349,119.808,428.580,-120.643,312.129,-87.780,59.400,-214.060
859,48150.803000,186.226,98.384,130.048,425.732,-121.558,314.095,27.220,43.400,-193.060
860,48150.844000,192.123,95.373,130.048,424.925,-111.473,315.303,41.220,-14.600,-140.060
861,48150.889000,194.088,104.408,130.048,429.625,-113.321,311.292,31.220,-132.600,-50.060
862,48150.904000,220.622,106.416,129.024,429.600,-115.153,311.253,-113.780,-101.600,3.940
863,48150.944000,225.536,75.294,119.808,431.400,-121.600,308.134,-168.780,-76.600,40.940
864,48150.984000,226.518,55.216,131.072,429.498,-122.502,310.102,-280.780,49.400,46.940
865,48151.22000,211.777,33.129,128.000,425.575,-132.629,309.880,-352.780,112.400,90.940
866,48151.65000,226.518,36.141,138.240,423.659,-134.467,310.833,-221.780,198.400,86.940
867,48151.99000,235.363,43.169,137.216,415.002,-145.456,316.554,-219.780,218.400,61.940
868,48151.119000,211.777,36.141,136.192,413.984,-150.927,318.425,-110.780,231.400,38.940
869,48151.160000,187.209,31.122,125.952,410.243,-148.150,322.457,-94.780,99.400,45.940
870,48151.205000,194.088,28.110,120.832,409.272,-149.995,322.417,-63.780,0.400,68.940
871,48151.240000,201.950,29.114,118.784,406.380,-153.736,320.344,63.220,17.400,94.940
872,48151.280000,202.933,19.075,117.760,404.500,-153.605,328.301,160.220,106.400,140.940
873,48151.327000,207.846,21.082,124.928,399.802,-151.737,333.307,286.220,195.400,171.940
874,48151.342000,212.760,29.114,120.832,392.153,-158.153,338.132,332.220,193.400,148.940
875,48151.382000,206.864,27.106,135.168,389.472,-147.099,343.337,280.220,184.400,113.940
876,48151.424000,202.933,31.122,141.312,384.718,-149.734,352.225,442.220,240.400,65.940
877,48151.484000,189.175,43.169,139.264,386.747,-140.411,359.389,384.220,29.400,33.940
878,48151.509000,232.415,76.298,173.056,380.251,-131.299,361.563,343.220,96.400,50.940
879,48151.542000,232.415,98.384,189.440,378.367,-131.226,366.535,199.220,133.400,-19.060
880,48151.582000,183.278,113.443,195.584,377.499,-125.703,368.640,102.220,4.400,-183.060
881,48151.604000,153.797,102.400,182.272,383.216,-122.860,369.704,1.220,-45.600,-162.060
882,48151.639000,137.090,79.310,173.056,381.149,-135.711,369.427,-186.780,-69.600,9.940
883,48151.684000,146.917,86.337,178.176,385.010,-129.384,362.605,-205.780,-114.600,43.940
884,48151.729000,145.935,87.341,183.296,384.986,-131.197,363.561,-139.780,-115.600,17.940
885,48151.762000,162.641,89.349,178.176,385.801,-140.424,359.387,-107.780,-121.600,-1.060
886,48151.801000,180.330,84.329,173.056,388.621,-141.381,355.393,-202.780,-76.600,27.940
887,48151.824000,174.434,75.294,159.744,391.492,-138.653,352.471,-217.780,-33.600,26.940
888,48151.864000,191.140,71.278,151.552,387.594,-146.948,352.289,-201.780,51.400,-7.060
889,48151.905000,187.209,57.224,143.360,385.739,-144.225,352.344,-241.780,86.400,-24.060
890,48151.940000,196.054,40.157,146.432,385.639,-151.554,352.188,-210.780,120.400,-0.060
891,48151.980000,193.106,26.102,141.312,384.670,-153.379,353.142,-35.780,62.400,17.940
892,48152.21000,207.846,39.153,139.264,384.716,-149.754,351.230,32.220,14.400,38.940
893,48152.41000,251.086,41.161,148.480,382.777,-153.404,353.139,-0.780,65.400,55.940
894,48152.86000,244.207,28.110,152.576,380.883,-153.449,352.140,-31.780,73.400,67.940
895,48152.121000,222.587,36.141,151.552,379.901,-156.190,353.075,-29.780,80.400,25.940
896,48152.161000,205.881,33.129,141.312,380.864,-155.203,356.082,41.220,12.400,-13.060
897,48152.200000,188.192,30.118,125.952,381.845,-152.481,354.152,50.220,-87.600,-10.060
898,48152.241000,203.916,26.102,128.000,385.635,-152.373,357.144,-1.780,-110.600,13.940
899,48152.281000,203.916,17.067,129.024,384.693,-151.567,352.186,40.220,-81.600,26.940
900,48152.301000,205.881,25.098,137.216,383.770,-149.766,351.228,158.220,32.400,26.940
901,48152.341000,209.812,28.110,138.240,380.991,-146.022,357.272,312.220,186.400,9.940
902,48152.380000,213.743,33.129,142.336,377.342,-136.774,364.426,368.220,261.400,-17.060
903,48152.424000,212.760,32.125,135.168,376.538,-127.430,374.570,414.220,296.400,-24.060
904,48152.480000,210.795,26.102,125.952,374.618,-130.087,380.478,405.220,396.400,-17.060
905,48152.503000,218.656,44.173,129.024,363.370,-123.590,392.535,496.220,637.400,-43.060
906,48152.525000,201.950,53.208,123.904,349.432,-106.916,411.768,559.220,799.400,-70.060
907,48152.565000,165.589,74.290,119.808,337.328,-93.979,425.950,569.220,710.400,-89.060
908,48152.605000,126.280,133.522,175.104,323.432,-73.739,440.285,522.220,642.400,-241.060
909,48152.645000,142.987,155.608,194.560,315.114,-59.973,447.528,135.220,558.400,-328.060
910,48152.681000,129.228,126.494,208.896,310.432,-57.150,454.544,-71.780,296.400,-238.060
911,48152.721000,150.848,133.522,199.680,305.663,-59.961,454.477,-264.780,72.400,-198.060
912,48152.761000,156.745,127.498,181.248,310.308,-66.292,455.344,-371.780,-70.600,-201.060
913,48152.789000,152.814,111.435,173.056,313.050,-72.784,449.242,-345.780,-131.600,-189.060
914,48152.825000,149.866,104.408,160.768,320.615,-72.743,446.270,-278.780,-163.600,-111.060
915,48152.865000,150.848,102.400,169.984,326.288,-72.726,443.295,-229.780,-139.600,-29.060
916,48152.904000,148.883,90.353,175.104,326.133,-83.779,440.076,-164.780,-141.600,38.940
917,48152.944000,141.021,111.435,179.200,328.044,-81.999,436.138,-55.780,-96.600,101.940
918,48152.985000,130.211,109.427,177.152,329.866,-86.653,431.068,22.220,-151.600,153.940
919,48153.5000,129.228,105.412,182.272,334.494,-93.958,428.930,-76.780,-196.600,223.940
920,48153.45000,142.987,83.325,188.416,335.484,-90.359,425.030,-5.780,-259.600,266.940
921,48153.85000,142.987,84.329,186.368,337.340,-92.303,418.029,45.220,-265.600,259.940
922,48153.122000,200.967,69.271,182.272,341.963,-99.667,412.906,-91.780,-321.600,299.940
923,48153.162000,200.967,55.216,172.032,352.152,-114.422,400.671,-135.780,-460.600,275.940
924,48153.202000,204.898,36.141,145.408,358.763,-114.491,392.722,-123.780,-549.600,260.940
925,48153.221000,233.397,41.161,117.760,366.203,-122.851,381.614,-39.780,-573.600,184.940
926,48153.261000,245.190,21.082,111.616,374.749,-119.308,369.767,-88.780,-505.600,199.940
927,48153.306000,247.155,17.067,107.520,380.303,-127.615,362.636,-50.780,-421.600,158.940
928,48153.346000,250.104,26.102,102.400,386.005,-124.947,354.744,-2.780,-393.600,73.940
929,48153.381000,239.294,37.145,88.064,395.457,-124.959,347.795,-25.780,-374.600,13.940
930,48153.427000,215.708,34.133,83.968,399.233,-125.006,342.827,-142.780,-372.600,-75.060
931,48153.461000,230.449,40.157,77.824,403.870,-130.675,330.777,-180.780,-391.600,-81.060
932,48153.481000,238.311,37.145,78.848,412.325,-134.364,323.749,-271.780,-383.600,-94.060
933,48153.527000,239.294,33.129,82.944,414.162,-137.302,312.748,-354.780,-342.600,-104.060
934,48153.561000,243.225,30.118,78.848,423.655,-133.746,300.902,-235.780,-374.600,-97.060
935,48153.601000,233.397,21.082,80.896,425.500,-136.587,294.876,-266.780,-370.600,-83.060
936,48153.641000,245.190,13.051,77.824,434.853,-143.908,288.767,-207.780,-352.600,-118.060
937,48153.687000,248.138,16.063,77.824,439.684,-135.756,280.990,-14.780,-330.600,-101.060
938,48153.712000,276.637,26.102,99.328,441.481,-142.242,275.881,34.220,-171.600,-22.060
939,48153.748000,259.931,43.169,106.496,440.629,-135.763,279.997,118.220,10.400,26.940
940,48153.782000,246.173,32.125,97.280,438.786,-132.124,280.071,215.220,-31.600,61.940
941,48153.822000,205.881,60.235,72.704,441.625,-132.086,280.076,366.220,155.400,-119.060
942,48153.869000,246.173,92.361,75.776,438.933,-122.709,293.202,390.220,252.400,-146.060
943,48153.902000,206.864,71.278,79.872,436.104,-122.629,299.168,137.220,150.400,-130.060
944,48153.947000,209.812,82.322,96.256,435.226,-118.762,310.190,24.220,232.400,-139.060
945,48153.986000,201.950,73.286,84.992,434.285,-117.937,306.227,-68.780,102.400,-89.060
946,48154.2000,199.002,72.282,91.136,431.489,-115.167,309.266,-107.780,123.400,-67.060
947,48154.44000,207.846,83.325,102.400,431.410,-121.483,314.105,-21.780,59.400,-29.060
948,48154.82000,208.829,94.369,121.856,426.775,-114.255,312.262,-23.780,38.400,-21.060
949,48154.122000,201.950,90.353,106.496,428.589,-119.766,310.158,-10.780,-136.600,-0.060
950,48154.164000,183.278,93.365,113.664,428.641,-116.082,311.232,53.220,-114.600,-23.060
951,48154.185000,232.415,59.231,140.288,427.680,-117.030,310.215,-107.780,-90.600,58.940
952,48154.225000,241.259,60.235,140.288,428.500,-126.199,309.027,-222.780,-158.600,66.940
953,48154.265000,224.553,64.251,131.072,429.345,-132.755,300.931,-131.780,-153.600,-16.060
954,48154.306000,240.276,32.125,135.168,431.299,-128.169,300.037,-188.780,-128.600,24.940
955,48154.346000,256.000,39.153,131.072,430.212,-138.298,297.831,-120.780,-90.600,-2.060
956,48154.386000,229.466,46.180,119.808,432.990,-142.822,298.733,-40.780,-81.600,-88.060
957,48154.409000,200.967,49.192,101.376,436.978,-128.074,301.042,124.220,-74.600,-201.060
958,48154.442000,194.088,44.173,95.232,436.018,-129.023,300.026,155.220,-42.600,-187.060
959,48154.483000,191.140,39.153,93.184,437.077,-120.765,300.203,134.220,-40.600,-123.060
960,48154.530000,192.123,27.106,109.568,436.184,-117.074,302.270,98.220,0.400,-27.060
961,48154.570000,208.829,30.118,108.544,433.343,-117.131,301.270,374.220,22.400,84.940
962,48154.604000,208.829,35.137,115.712,431.498,-114.290,307.295,451.220,34.400,128.940
963,48154.624000,205.881,69.271,136.192,432.479,-112.328,313.306,713.220,34.400,173.940
964,48154.664000,241.259,116.455,153.600,427.898,-101.397,313.532,645.220,6.400,95.940
965,48154.704000,234.380,130.510,155.648,429.915,-92.991,320.677,536.220,-24.600,6.940
966,48154.744000,213.743,147.576,165.888,428.060,-90.267,320.732,303.220,-8.600,-51.060
967,48154.784000,194.088,146.573,162.816,429.977,-88.410,320.774,45.220,-64.600,-25.060
968,48154.831000,164.607,113.443,151.552,429.897,-93.965,317.672,-330.780,-191.600,10.940
969,48154.866000,151.831,104.408,149.504,439.275,-99.454,311.601,-368.780,-239.600,17.940
970,48154.884000,164.607,83.325,135.168,435.452,-101.493,303.595,-346.780,-269.600,-4.060
971,48154.932000,186.226,90.353,124.928,445.841,-101.589,291.673,-264.780,-226.600,-62.060
972,48154.966000,201.950,94.369,103.424,442.029,-103.491,290.632,-293.780,-213.600,-106.060
973,48155.20000,234.380,94.369,109.568,442.870,-110.866,287.492,-364.780,-77.600,-137.060
974,48155.46000,235.363,69.271,95.232,446.685,-108.165,282.582,-472.780,-88.600,-64.060
975,48155.86000,221.605,43.169,97.280,447.484,-118.347,276.399,-359.780,-52.600,49.940
976,48155.106000,250.104,38.149,129.024,447.421,-122.928,276.301,-322.780,39.400,180.940
977,48155.142000,241.259,59.231,126.976,449.228,-129.296,277.163,-5.780,72.400,179.940
978,48155.184000,220.622,52.204,129.024,444.514,-128.384,280.159,136.220,131.400,104.940
979,48155.225000,216.691,49.192,118.784,440.709,-130.208,283.099,128.220,-0.600,136.940
980,48155.262000,201.950,27.106,99.328,441.612,-133.002,280.057,73.220,-94.600,209.940
981,48155.302000,206.864,20.078,90.112,440.549,-141.319,276.894,17.220,-162.600,266.940
982,48155.350000,232.415,13.051,84.992,444.355,-139.475,274.950,39.220,-143.600,293.940
983,48155.371000,244.207,11.043,87.040,442.320,-149.636,271.747,70.220,-42.600,236.940
984,48155.411000,251.086,16.063,92.160,442.324,-149.597,273.737,274.220,57.400,106.940
985,48155.445000,238.311,19.075,84.992,444.373,-138.501,277.955,332.220,109.400,-16.060
986,48155.487000,234.380,32.125,79.872,441.663,-130.098,288.076,538.220,205.400,-111.060
987,48155.526000,209.812,60.235,78.848,440.749,-128.200,292.093,591.220,144.400,-135.060
988,48155.566000,230.449,64.251,69.632,439.052,-114.386,297.358,621.220,110.400,-142.060
989,48155.586000,261.896,134.525,114.688,442.131,-97.682,306.670,703.220,296.400,-220.060
990,48155.630000,241.259,127.498,102.400,439.522,-81.171,310.001,473.220,165.400,-169.060
991,48155.675000,214.726,121.475,97.280,441.469,-78.202,320.014,439.220,141.400,-15.060
992,48155.704000,195.071,84.329,97.280,436.782,-74.658,317.098,106.220,44.400,178.940
993,48155.750000,201.950,75.294,82.944,433.767,-87.541,315.825,35.220,-82.600,218.940
994,48155.785000,215.708,70.275,84.992,433.840,-82.064,314.947,140.220,-70.600,173.940
995,48155.805000,227.501,87.341,83.968,434.788,-82.032,315.944,428.220,1.400,76.940
996,48155.845000,227.501,84.329,76.800,435.823,-75.587,317.077,351.220,-16.600,45.940
997,48155.885000,222.587,104.408,84.992,436.839,-70.916,321.157,266.220,36.400,44.940
998,48155.927000,210.795,98.384,93.184,434.920,-72.793,320.119,144.220,46.400,84.940
999,48155.967000,200.967,108.424,104.448,433.964,-73.682,322.088,65.220,41.400,161.940
1000,48156.9000,189.175,92.361,100.352,433.002,-74.650,320.077,-6.780,-6.600,185.940
1001,48156.49000,194.088,82.322,83.968,431.004,-82.063,316.932,-98.780,-107.600,210.940
1002,48156.69000,204.898,85.333,89.088,430.817,-95.805,316.640,-178.780,-75.600,189.940
1003,48156.104000,221.605,75.294,97.280,430.846,-93.154,311.723,-188.780,-104.600,241.940
1004,48156.144000,241.259,40.157,89.088,430.630,-108.767,309.401,-244.780,-37.600,192.940
1005,48156.187000,264.845,32.125,86.016,429.738,-104.296,304.522,-137.780,-77.600,244.940
1006,48156.226000,271.724,24.094,87.040,427.665,-117.206,301.260,-77.780,-108.600,300.940
1007,48156.269000,263.862,27.106,74.752,428.564,-120.059,295.233,-85.780,-156.600,272.940
1008,48156.289000,254.035,30.118,67.584,429.455,-123.769,292.171,-121.780,-232.600,189.940
1009,48156.327000,237.328,33.129,57.344,434.105,-129.282,288.082,-156.780,-220.600,92.940
1010,48156.369000,233.397,34.133,58.368,433.967,-138.599,279.926,-204.780,-191.600,-17.060
1011,48156.419000,238.311,26.102,67.584,439.765,-129.421,277.146,-294.780,-110.600,-47.060
1012,48156.449000,239.294,27.106,62.464,438.632,-142.396,269.906,-387.780,-140.600,-36.060
1013,48156.499000,254.035,12.047,58.368,438.591,-145.184,267.857,-428.780,-99.600,-17.060
1014,48156.529000,256.983,13.051,54.272,441.457,-142.515,261.951,-334.780,-121.600,10.940
1015,48156.548000,254.035,11.043,62.464,443.251,-149.040,254.852,-338.780,-85.600,-15.060
1016,48156.589000,253.052,9.035,68.608,446.081,-149.100,249.882,-177.780,-131.600,-75.060
1017,48156.624000,248.138,17.067,57.344,449.867,-149.050,249.888,2.220,-93.600,-107.060
1018,48156.663000,241.259,19.075,57.344,449.937,-143.611,247.020,62.220,-74.600,-129.060
1019,48156.705000,233.397,24.094,60.416,448.117,-138.159,246.139,96.220,-131.600,-116.060
1020,48156.747000,240.276,35.137,56.320,451.923,-136.335,243.200,152.220,-131.600,-84.060
1021,48156.767000,243.225,36.141,57.344,450.975,-136.367,242.203,69.220,-125.600,-41.060
1022,48156.807000,246.173,41.161,61.440,456.643,-136.410,236.243,-37.780,-109.600,-52.060
1023,48156.844000,238.311,49.192,60.416,459.533,-132.688,237.321,-7.780,-99.600,-90.060
1024,48156.890000,235.363,51.200,64.512,457.598,-135.520,234.274,-37.780,-27.600,-162.060
1025,48156.930000,238.311,53.208,71.680,462.485,-124.405,237.501,-38.780,-2.600,-200.060
1026,48156.976000,236.345,58.227,77.824,466.188,-129.930,233.411,-110.780,-14.600,-173.060
1027,48156.985000,232.415,59.231,77.824,460.626,-121.721,235.566,55.220,-15.600,-101.060
1028,48157.25000,230.449,56.220,73.728,468.212,-119.906,229.648,111.220,-25.600,-40.060
1029,48157.66000,237.328,60.235,68.608,465.367,-120.781,233.604,102.220,-41.600,49.940
1030,48157.109000,236.345,60.235,73.728,465.345,-122.575,235.555,122.220,-31.600,113.940
1031,48157.149000,231.432,60.235,72.704,466.354,-117.981,235.654,247.220,-25.600,144.940
1032,48157.186000,232.415,58.227,66.560,461.513,-126.250,237.461,274.220,-29.600,186.940
1033,48157.229000,227.501,58.227,68.608,463.483,-120.709,238.576,307.220,11.400,201.940
1034,48157.249000,228.484,59.231,71.680,462.471,-126.101,244.428,347.220,26.400,168.940
1035,48157.289000,238.311,60.235,65.536,461.514,-127.010,245.402,316.220,20.400,138.940
1036,48157.329000,240.276,62.243,64.512,460.610,-124.216,248.444,249.220,21.400,96.940
1037,48157.369000,237.328,59.231,62.464,461.578,-122.410,246.494,158.220,44.400,40.940
1038,48157.409000,239.294,54.212,59.392,456.898,-118.788,247.559,114.220,37.400,21.940
1039,48157.446000,238.311,46.180,60.416,456.010,-115.039,252.611,43.220,54.400,10.940
1040,48157.467000,241.259,42.165,59.392,458.798,-118.685,251.543,-58.780,82.400,4.940
1041,48157.510000,237.328,44.173,61.440,455.912,-122.348,253.450,-49.780,96.400,-3.060
1042,48157.550000,235.363,35.137,62.464,454.092,-117.676,259.514,-67.780,109.400,-15.060
1043,48157.590000,241.259,36.141,64.512,450.241,-122.345,257.420,-87.780,91.400,-26.060
1044,48157.626000,244.207,38.149,63.488,451.148,-125.101,256.368,-98.780,80.400,-35.060
1045,48157.666000,247.155,32.125,64.512,453.022,-126.830,260.312,-126.780,67.400,-40.060
1046,48157.689000,246.173,32.125,58.368,452.060,-127.797,258.301,-164.780,28.400,-48.060
1047,48157.730000,243.225,29.114,58.368,453.112,-120.397,261.444,-189.780,15.400,-35.060
1048,48157.770000,240.276,26.102,63.488,453.955,-126.973,252.354,-204.780,-39.600,-54.060
1049,48157.811000,244.207,31.122,59.392,453.028,-125.992,256.352,-194.780,-46.600,-76.060
1050,48157.845000,242.242,31.122,61.440,452.039,-128.811,253.306,-187.780,-65.600,-107.060
1051,48157.890000,245.190,33.129,55.296,457.803,-122.343,252.458,-136.780,-107.600,-114.060
1052,48157.931000,247.155,32.125,55.296,456.788,-127.014,248.378,-192.780,-125.600,-119.060
1053,48157.945000,245.190,33.129,57.344,462.409,-130.682,244.330,-73.780,-158.600,-107.060
1054,48157.985000,239.294,37.145,68.608,462.468,-126.140,242.438,-114.780,-82.600,-127.060
1055,48158.26000,236.345,39.153,71.680,463.372,-128.934,239.396,-38.780,-42.600,-141.060
1056,48158.66000,240.276,49.192,73.728,469.190,-118.743,241.610,-43.780,38.400,-151.060
1057,48158.106000,237.328,53.208,76.800,472.069,-115.937,242.669,17.220,74.400,-135.060
1058,48158.145000,236.345,57.224,79.872,466.447,-112.270,246.717,63.220,63.400,-131.060
