Sample, Time, ACCX, ACCY, ACCZ, MAGX, MAGY, MAGZ, GYRX, GYRY, GYRZ
0,47476.568000,244.139,55.827,-43.829,398.256,318.566,-20.914,-74.040,-23.490,-37.020
1,47476.630000,246.116,54.821,-41.837,396.255,312.636,-24.973,-55.040,-20.490,-39.020
2,47476.649000,244.139,55.827,-41.837,398.289,322.406,-22.790,-34.040,-20.490,-38.020
3,47476.685000,245.127,56.833,-39.844,398.289,322.406,-22.790,-12.040,-18.490,-36.020
4,47476.729000,240.185,56.833,-42.833,400.184,318.520,-23.853,-5.040,-16.490,-30.020
5,47476.769000,244.139,58.845,-40.840,394.429,323.339,-22.778,-24.040,-18.490,-21.020
6,47476.820000,244.139,57.839,-41.837,397.347,325.288,-23.709,-25.040,-21.490,-13.020
7,47476.829000,243.151,59.851,-41.837,396.382,325.300,-22.730,-28.040,-6.490,4.980
8,47476.867000,243.151,59.851,-42.833,398.294,323.334,-24.731,-27.040,11.510,17.980
9,47476.908000,242.162,55.827,-41.837,395.389,322.400,-21.816,-20.040,30.510,26.980
10,47476.948000,244.139,59.851,-41.837,395.374,320.501,-19.897,-17.040,37.510,29.980
11,47476.993000,245.127,57.839,-37.852,394.424,322.412,-20.837,-8.040,36.510,35.980
12,47477.28000,242.162,53.815,-35.860,393.470,323.416,-18.856,-0.040,20.510,30.980
13,47477.69000,245.127,53.815,-36.856,396.281,314.642,-21.986,12.960,-16.490,9.980
14,47477.109000,243.151,53.815,-38.848,394.339,314.558,-24.934,7.960,-36.490,-5.020
15,47477.153000,245.127,59.851,-40.840,396.311,317.576,-20.941,32.960,-32.490,-8.020
16,47477.168000,243.151,61.862,-43.829,394.374,317.536,-21.926,26.960,-9.490,5.980
17,47477.208000,244.139,57.839,-45.821,398.279,321.435,-22.812,-1.040,30.510,20.980
18,47477.245000,244.139,55.827,-42.833,397.298,319.527,-20.895,-28.040,75.510,34.980
19,47477.287000,244.139,54.821,-39.844,398.255,317.681,-17.011,-52.040,82.510,39.980
20,47477.337000,245.127,53.815,-31.875,398.295,321.586,-15.944,-68.040,58.510,30.980
21,47477.369000,246.116,52.809,-34.864,396.310,315.807,-13.135,-55.040,32.510,16.980
22,47477.408000,247.104,54.821,-35.860,396.367,321.632,-13.005,-44.040,9.510,-3.020
23,47477.445000,244.139,51.804,-34.864,396.400,324.588,-10.978,-37.040,-2.490,-15.020
24,47477.469000,243.151,56.833,-41.837,400.180,315.845,-13.126,-23.040,14.510,-22.020
25,47477.507000,245.127,61.862,-41.837,396.348,318.806,-9.145,-54.040,58.510,-10.020
26,47477.547000,246.116,58.845,-41.837,398.337,323.744,-6.089,-43.040,137.510,12.980
27,47477.588000,248.093,60.857,-37.852,395.394,318.926,-3.261,-22.040,186.510,21.980
28,47477.629000,248.093,60.857,-39.844,399.221,314.152,-1.397,-43.040,232.510,38.980
29,47477.668000,246.116,57.839,-29.883,399.307,321.143,7.584,-44.040,284.510,55.980
30,47477.708000,243.151,52.809,-19.922,399.252,314.454,12.339,-28.040,284.510,61.980
31,47477.748000,250.069,53.815,-14.942,399.308,318.510,20.274,5.960,261.510,52.980
32,47477.788000,252.046,52.809,-8.965,400.240,313.773,25.074,-18.040,209.510,29.980
33,47477.807000,248.093,47.780,-0.996,399.296,315.749,27.078,-10.040,126.510,-10.020
34,47477.848000,258.965,46.774,-2.988,395.416,314.740,27.047,55.960,42.510,-41.020
35,47477.888000,272.803,41.745,-14.942,395.401,314.589,20.179,283.960,-104.490,-159.020
36,47477.944000,243.151,62.868,1.992,393.537,323.179,14.482,489.960,-261.490,-254.020
37,47477.967000,204.602,81.980,-96.623,389.731,335.201,-10.757,1574.960,-497.490,-544.020
38,47478.7000,224.371,101.092,-86.661,373.316,348.547,-58.547,2499.960,-648.490,-920.020
39,47478.46000,239.197,111.151,-51.798,356.750,346.359,-106.683,1900.960,-754.490,-729.020
40,47478.87000,240.185,67.898,-45.821,344.181,352.472,-132.071,485.960,-911.490,-377.020
41,47478.128000,242.162,31.686,-36.856,338.394,356.105,-140.829,-361.040,-982.490,-54.020
42,47478.150000,232.278,42.750,-19.922,333.582,358.949,-141.756,-939.040,-609.490,209.980
43,47478.190000,223.382,48.786,0.000,341.358,358.484,-122.137,-1391.040,-136.490,573.980
44,47478.227000,258.965,47.780,-11.953,354.903,352.467,-92.822,-1527.040,354.510,818.980
45,47478.274000,252.046,64.880,-38.848,367.385,336.711,-64.707,-1262.040,555.510,798.980
46,47478.309000,241.174,115.175,-56.778,382.915,336.473,-38.201,-1085.040,496.510,616.980
47,47478.349000,226.347,102.098,-66.739,388.671,328.137,-22.684,-727.040,340.510,294.980
48,47478.390000,212.510,65.886,-119.533,388.679,329.971,-27.546,516.960,-47.490,-166.020
49,47478.427000,227.336,55.827,-108.576,385.768,331.626,-39.283,714.960,-266.490,-232.020
50,47478.447000,207.568,-18.609,-83.673,383.831,332.470,-44.172,-10.040,-57.490,219.980
51,47478.487000,274.780,130.263,-42.833,387.608,321.051,-35.592,-699.040,-135.490,161.980
52,47478.528000,250.069,65.886,-31.875,391.566,330.733,-38.310,103.960,-18.490,195.980
53,47478.568000,239.197,68.904,-34.864,391.484,323.786,-45.329,162.960,-180.490,239.980
54,47478.613000,234.255,45.768,-66.739,399.099,312.103,-50.476,-166.040,-330.490,294.980
55,47478.648000,248.093,40.739,-68.732,402.858,301.397,-53.648,139.960,-169.490,248.980
56,47478.688000,252.046,36.715,-78.693,400.999,309.145,-53.480,-25.040,-96.490,146.980
57,47478.739000,250.069,36.715,-82.677,402.962,312.076,-53.410,46.960,131.510,-4.020
58,47478.768000,246.116,54.821,-67.735,401.003,308.303,-47.614,-103.040,246.510,-32.020
59,47478.788000,242.162,52.809,-59.767,405.865,309.472,-40.714,-141.040,358.510,-16.020
60,47478.829000,242.162,41.745,-41.837,403.983,311.719,-25.958,-233.040,379.510,-5.020
61,47478.869000,239.197,47.780,-28.887,403.055,313.845,-17.086,-276.040,344.510,-57.020
62,47478.908000,246.116,42.750,-20.918,403.110,317.901,-9.151,-241.040,227.510,-93.020
63,47478.948000,245.127,51.804,-22.911,399.245,317.906,-7.198,-201.040,59.510,-194.020
64,47478.992000,243.151,50.798,-16.934,397.397,325.762,-2.124,-218.040,-141.490,-260.020
65,47479.30000,247.104,59.851,-26.895,394.464,323.684,-7.080,-143.040,-287.490,-332.020
66,47479.70000,238.208,80.974,-38.848,385.829,332.208,-12.793,-166.040,-320.490,-319.020
67,47479.110000,238.208,78.963,-24.903,383.030,342.859,-12.562,-226.040,-394.490,-277.020
68,47479.132000,246.116,83.992,-20.918,378.206,345.574,-19.377,-229.040,-642.490,-264.020
69,47479.177000,278.734,81.980,-51.798,377.197,344.291,-33.136,-371.040,-756.490,-209.020
70,47479.209000,284.664,74.939,-62.755,373.389,351.891,-38.860,-324.040,-673.490,-78.020
71,47479.250000,246.116,117.187,-71.720,371.386,345.055,-39.996,-571.040,-553.490,13.980
72,47479.287000,215.475,74.939,-85.665,371.485,354.807,-37.818,-229.040,-222.490,-15.020
73,47479.330000,185.822,68.904,-95.626,374.383,354.792,-39.774,-125.040,-95.490,-43.020
74,47479.372000,185.822,60.857,-96.623,372.431,352.853,-38.840,-211.040,-25.490,12.980
75,47479.417000,203.614,31.686,-95.626,372.388,347.157,-33.083,-187.040,52.510,40.980
76,47479.433000,197.683,51.804,-92.638,375.323,350.141,-31.049,132.960,248.510,-40.020
77,47479.468000,202.625,49.792,-93.634,371.463,351.074,-31.037,366.960,314.510,-80.020
78,47479.508000,201.637,100.086,-90.646,370.562,357.861,-30.888,363.960,408.510,-5.020
79,47479.552000,221.405,95.057,-59.767,372.491,355.183,-21.137,-200.040,374.510,166.980
80,47479.588000,252.046,70.916,-35.860,373.400,346.713,-9.555,-112.040,424.510,122.980
81,47479.629000,283.676,71.921,4.981,371.498,349.650,-7.532,453.960,539.510,29.980
82,47479.669000,249.081,136.299,-43.829,375.359,349.601,-11.448,945.960,480.510,-25.020
83,47479.710000,231.290,97.069,-39.844,374.370,347.629,-12.474,110.960,141.510,55.980
84,47479.752000,225.359,74.939,-44.825,378.296,352.607,-8.433,98.960,135.510,123.980
85,47479.772000,234.255,71.921,-46.817,375.255,338.922,-11.685,121.960,171.510,133.980
86,47479.817000,245.127,75.945,-48.809,378.171,339.964,-9.695,103.960,195.510,152.980
87,47479.852000,243.151,84.998,-42.833,378.145,336.189,-4.875,-40.040,204.510,185.980
88,47479.892000,242.162,64.880,-31.875,381.089,339.259,1.083,29.960,215.510,201.980
89,47479.927000,241.174,62.868,-26.895,386.863,335.497,3.954,12.960,189.510,177.980
90,47479.974000,240.185,54.821,-18.926,390.737,334.693,9.828,-37.040,103.510,133.980
91,47480.8000,243.151,59.851,-14.942,393.578,328.853,7.743,-34.040,-8.490,72.980
92,47480.50000,239.197,45.768,-5.977,391.636,328.769,4.795,-27.040,-230.490,-36.020
93,47480.114000,245.127,53.815,-11.953,390.682,332.406,-5.913,15.960,-401.490,-142.020
94,47480.123000,243.151,61.862,-13.946,384.942,340.893,-14.563,-47.040,-658.490,-242.020
95,47480.147000,247.104,80.974,-45.821,379.101,339.607,-26.372,25.960,-768.490,-241.020
96,47480.205000,237.220,80.974,-84.669,373.296,343.067,-42.978,119.960,-696.490,-202.020
97,47480.233000,219.429,74.939,-110.568,372.324,344.784,-52.749,113.960,-465.490,-124.020
98,47480.273000,202.625,79.969,-127.502,372.360,349.530,-57.547,-27.040,-36.490,-14.020
99,47480.310000,219.429,76.951,-98.615,372.360,348.646,-53.644,-112.040,243.510,73.980
100,47480.352000,248.093,86.004,-69.728,376.127,336.256,-45.085,-70.040,417.510,121.980
101,47480.399000,236.232,78.963,-55.782,378.118,340.331,-37.145,-31.040,438.510,136.980
102,47480.433000,240.185,71.921,-48.809,382.029,342.526,-27.281,-107.040,418.510,148.980
103,47480.464000,238.208,58.845,-26.895,386.792,332.174,-14.753,-139.040,323.510,108.980
104,47480.489000,238.208,53.815,-20.918,382.048,340.951,-10.645,-68.040,162.510,35.980
105,47480.532000,238.208,55.827,-13.946,382.035,339.937,-12.629,-52.040,-120.490,-77.020
106,47480.573000,245.127,65.886,-33.868,378.132,337.828,-18.568,58.960,-266.490,-134.020
107,47480.610000,239.197,76.951,-51.798,377.257,348.391,-23.239,115.960,-325.490,-142.020
108,47480.655000,226.347,80.974,-77.696,375.248,343.259,-35.125,84.960,-229.490,-108.020
109,47480.690000,227.336,84.998,-85.665,377.239,348.218,-31.088,-13.040,8.510,-13.020
110,47480.729000,235.243,76.951,-66.739,372.407,349.099,-33.040,-38.040,144.510,45.980
111,47480.749000,242.162,80.974,-52.794,376.293,349.287,-26.163,-15.040,204.510,78.980
112,47480.788000,237.220,75.945,-47.813,377.246,347.398,-24.241,-17.040,190.510,77.980
113,47480.829000,237.220,66.892,-44.825,379.112,338.830,-17.563,-5.040,155.510,57.980
114,47480.869000,241.174,73.933,-44.825,377.200,340.796,-15.562,-38.040,133.510,47.980
115,47480.910000,242.162,70.916,-47.813,382.016,337.995,-12.672,-23.040,140.510,48.980
116,47480.963000,238.208,69.910,-46.817,383.936,336.116,-10.748,36.960,194.510,56.980
117,47480.992000,239.197,62.868,-38.848,381.999,335.191,-7.831,99.960,228.510,74.980
118,47481.48000,239.197,43.756,-33.868,382.067,342.008,-6.699,357.960,277.510,101.980
119,47481.74000,238.208,63.874,-34.864,387.844,340.037,-10.653,641.960,294.510,73.980
120,47481.89000,245.127,94.051,-36.856,389.736,335.245,-8.794,191.960,157.510,53.980
121,47481.129000,239.197,67.898,-26.895,385.831,331.345,-7.908,-31.040,35.510,35.980
122,47481.187000,245.127,58.845,-34.864,384.953,341.001,-9.657,-17.040,-36.490,-11.020
123,47481.208000,241.174,67.898,-37.852,385.913,340.061,-8.695,-50.040,-46.490,-34.020
124,47481.253000,243.151,64.880,-36.856,387.825,338.095,-10.696,-23.040,-46.490,-25.020
125,47481.290000,244.139,65.886,-39.844,385.911,340.924,-13.580,7.960,-22.490,-17.020
126,47481.332000,241.174,67.898,-38.848,383.964,339.028,-10.684,-20.040,-4.490,-1.020
127,47481.369000,239.197,65.886,-31.875,383.006,339.990,-10.664,19.960,8.510,11.980
128,47481.414000,239.197,62.868,-36.856,384.939,339.987,-11.641,45.960,-32.490,6.980
129,47481.434000,244.139,69.910,-42.833,383.986,341.876,-13.563,22.960,-55.490,-9.020
130,47481.470000,237.220,69.910,-38.848,380.069,336.984,-13.679,-48.040,-74.490,-8.020
131,47481.510000,246.116,62.868,-32.872,384.857,332.155,-14.757,-54.040,-80.490,-4.020
132,47481.563000,245.127,69.910,-45.821,380.973,331.104,-16.750,-13.040,-49.490,-2.020
133,47481.595000,239.197,68.904,-41.837,382.966,336.085,-11.732,-63.040,-21.490,16.980
134,47481.629000,238.208,64.880,-38.848,381.952,332.106,-15.745,-36.040,-19.490,18.980
135,47481.674000,240.185,67.898,-38.848,381.950,332.084,-16.726,-37.040,-44.490,17.980
136,47481.725000,241.174,66.892,-35.860,383.918,335.943,-18.598,-8.040,-51.490,25.980
137,47481.747000,237.220,66.892,-40.840,385.884,338.896,-17.547,38.960,-44.490,38.980
138,47481.773000,243.151,64.880,-47.813,383.920,335.965,-17.617,79.960,-29.490,44.980
139,47481.814000,241.174,68.904,-48.809,387.710,328.192,-19.742,58.960,0.510,39.980
140,47481.854000,237.220,68.904,-42.833,386.816,335.928,-20.553,44.960,27.510,60.980
141,47481.893000,244.139,64.880,-42.833,388.666,327.209,-20.743,50.960,60.510,81.980
142,47481.933000,243.151,62.868,-39.844,388.692,329.216,-17.756,27.960,79.510,83.980
143,47481.990000,242.162,62.868,-34.864,386.747,327.342,-13.879,50.960,72.510,75.980
144,47482.12000,242.162,57.839,-37.852,388.661,326.282,-18.802,32.960,39.510,57.980
145,47482.49000,241.174,56.833,-39.844,389.656,328.319,-14.832,45.960,22.510,44.980
146,47482.70000,244.139,58.845,-39.844,392.526,325.392,-16.852,61.960,21.510,27.980
147,47482.117000,245.127,60.857,-38.848,389.619,325.320,-18.821,-2.040,10.510,6.980
148,47482.152000,242.162,58.845,-37.852,395.398,322.486,-17.892,1.960,-4.490,-10.020
149,47482.189000,244.139,63.874,-35.860,392.554,328.304,-16.788,-4.040,-32.490,-24.020
150,47482.230000,241.174,56.833,-31.875,390.575,325.222,-23.725,36.960,-62.490,-35.020
151,47482.275000,243.151,61.862,-37.852,390.624,329.213,-18.733,52.960,-114.490,-61.020
152,47482.314000,243.151,61.862,-35.860,389.587,323.249,-24.751,0.960,-166.490,-86.020
153,47482.350000,245.127,62.868,-36.856,387.789,337.750,-26.395,-16.040,-231.490,-116.020
154,47482.390000,239.197,63.874,-40.840,383.858,332.729,-32.398,-27.040,-267.490,-119.020
155,47482.410000,243.151,66.892,-49.805,385.860,340.428,-36.146,20.960,-274.490,-115.020
156,47482.450000,244.139,73.933,-54.786,379.973,333.424,-43.178,22.960,-273.490,-94.020
157,47482.492000,233.266,70.916,-56.778,378.101,341.928,-52.800,-2.040,-276.490,-73.020
158,47482.532000,239.197,61.862,-68.732,374.172,335.159,-50.017,73.960,-214.490,-59.020
159,47482.574000,227.336,83.992,-79.689,377.143,343.774,-56.684,49.960,-80.490,-20.020
160,47482.609000,226.347,79.969,-78.693,378.092,341.841,-56.725,22.960,22.510,23.980
161,47482.650000,231.290,79.969,-74.708,379.033,338.960,-55.806,5.960,141.510,84.980
162,47482.712000,240.185,70.916,-67.735,379.021,336.198,-49.003,-47.040,209.510,121.980
163,47482.718000,243.151,70.916,-57.774,382.913,337.336,-43.085,-48.040,254.510,134.980
164,47482.752000,241.174,62.868,-50.802,386.762,334.526,-40.198,-71.040,273.510,155.980
165,47482.792000,240.185,63.874,-43.829,388.684,331.783,-33.390,-48.040,263.510,156.980
166,47482.832000,233.266,54.821,-31.875,388.669,329.000,-27.568,-1.040,183.510,138.980
167,47482.875000,242.162,57.839,-31.875,388.620,324.124,-28.657,70.960,122.510,120.980
168,47482.914000,240.185,71.921,-45.821,390.580,326.150,-25.666,-169.040,68.510,128.980
169,47482.954000,244.139,50.798,-43.829,395.436,327.254,-21.708,-128.040,87.510,117.980
170,47482.995000,242.162,57.839,-41.837,396.370,322.538,-15.927,-65.040,118.510,95.980
171,47483.37000,242.162,52.809,-32.872,396.367,321.632,-13.005,-32.040,102.510,88.980
172,47483.52000,242.162,41.745,-25.899,398.328,324.542,-13.917,34.960,21.510,34.980
173,47483.97000,243.151,47.780,-26.895,401.176,319.651,-16.962,20.960,-69.490,-26.020
174,47483.132000,241.174,48.786,-26.895,398.322,325.362,-20.763,24.960,-165.490,-90.020
175,47483.189000,241.174,49.792,-23.907,394.436,325.173,-27.640,39.960,-310.490,-141.020
176,47483.212000,245.127,52.809,-26.895,391.523,325.922,-36.456,69.960,-438.490,-199.020
177,47483.263000,240.185,63.874,-18.926,384.747,327.582,-46.240,-168.040,-602.490,-178.020
178,47483.293000,238.208,77.957,-57.774,383.757,326.472,-52.151,-180.040,-795.490,-198.020
179,47483.330000,237.220,79.969,-93.634,378.957,333.825,-68.669,-32.040,-752.490,-143.020
180,47483.360000,206.579,75.945,-112.560,377.962,333.557,-80.445,19.960,-569.490,-45.020
181,47483.397000,198.672,67.898,-107.580,378.985,341.139,-89.100,103.960,-279.490,66.980
182,47483.430000,199.660,87.010,-109.572,378.922,335.249,-92.173,102.960,-100.490,139.980
183,47483.470000,252.046,68.904,-71.720,380.807,329.508,-89.355,144.960,39.510,323.980
184,47483.512000,219.429,118.193,-111.564,389.458,324.652,-93.367,207.960,60.510,410.980
185,47483.552000,240.185,50.798,-78.693,394.203,315.012,-92.590,-17.040,113.510,592.980
186,47483.593000,249.081,41.745,-77.696,404.729,301.674,-85.999,-191.040,241.510,624.980
187,47483.637000,255.012,52.809,-72.716,412.340,287.316,-80.418,-491.040,146.510,587.980
188,47483.675000,258.965,44.762,-80.685,420.081,284.760,-67.710,-939.040,-72.490,507.980
189,47483.694000,249.081,37.721,-69.728,426.835,280.252,-55.047,-1043.040,-92.490,450.980
190,47483.735000,249.081,21.627,-73.712,431.637,273.805,-41.451,-991.040,-129.490,360.980
191,47483.778000,242.162,29.674,-76.700,436.393,263.388,-31.865,-948.040,-67.490,416.980
192,47483.813000,247.104,19.615,-46.817,438.327,261.638,-24.055,-1127.040,-158.490,337.980
193,47483.855000,218.440,8.550,-36.856,442.128,253.089,-17.372,-983.040,-219.490,279.980
194,47483.890000,184.834,-34.703,-48.809,442.150,255.937,-20.251,-647.040,-685.490,67.980
195,47483.934000,184.834,-18.609,-69.728,443.112,258.535,-34.901,-310.040,-866.490,19.980
196,47483.970000,230.301,79.969,-109.572,442.059,253.305,-51.691,192.960,-632.490,-40.020
197,47483.997000,244.139,-5.532,-137.463,437.180,251.100,-61.556,284.960,-362.490,-73.020
198,47484.32000,247.104,47.780,-150.412,437.242,258.738,-67.271,393.960,-115.490,-215.020
199,47484.80000,270.826,55.827,-122.521,433.405,261.656,-65.253,421.960,297.510,-263.020
200,47484.115000,259.954,65.886,-92.638,432.452,262.660,-63.271,218.960,383.510,-233.020
201,47484.152000,207.568,23.639,-86.661,433.543,273.543,-54.201,-30.040,347.510,-220.020
202,47484.192000,195.707,21.627,-80.685,427.731,271.653,-49.352,169.960,325.510,-220.020
203,47484.233000,198.672,23.639,-79.689,427.783,276.550,-47.282,357.960,213.510,-222.020
204,47484.273000,211.521,33.697,-73.712,426.924,288.148,-48.988,339.960,113.510,-224.020
205,47484.312000,231.290,10.562,-81.681,421.146,292.752,-57.724,662.960,27.510,-334.020
206,47484.334000,233.266,59.851,-91.642,418.261,296.413,-66.474,871.960,25.510,-396.020
207,47484.373000,210.533,23.639,-68.732,412.422,294.263,-73.399,496.960,45.510,-388.020
208,47484.414000,224.371,-24.644,-52.794,400.870,301.745,-81.103,656.960,-101.490,-493.020
209,47484.453000,261.931,78.963,-86.661,394.161,311.085,-94.639,746.960,-9.490,-576.020
210,47484.493000,226.347,54.821,-30.879,381.638,320.283,-112.113,656.960,-495.490,-718.020
211,47484.533000,209.544,84.998,-146.428,365.217,327.415,-133.564,520.960,-791.490,-682.020
212,47484.573000,240.185,130.263,-122.521,356.599,338.743,-144.118,-47.040,-630.490,-505.020
213,47484.612000,188.788,110.145,-166.350,349.825,340.425,-152.921,24.960,-379.490,-236.020
214,47484.654000,214.486,118.193,-147.424,349.866,345.215,-155.756,102.960,66.510,158.980
215,47484.674000,204.602,102.098,-142.444,355.580,335.606,-153.996,87.960,201.510,354.980
216,47484.720000,191.753,88.016,-136.467,367.132,328.125,-146.293,12.960,421.510,594.980
217,47484.754000,238.208,40.739,-121.525,378.590,310.935,-138.805,166.960,511.510,582.980
218,47484.792000,237.220,4.527,-90.646,386.280,305.250,-135.973,350.960,485.510,387.980
219,47484.837000,240.185,68.904,-107.580,391.045,296.688,-130.269,211.960,463.510,352.980
220,47484.873000,224.371,70.916,-79.689,399.751,294.120,-118.539,-399.040,378.510,515.980
221,47484.914000,235.243,25.650,-81.681,409.391,286.835,-101.029,-804.040,202.510,553.980
222,47484.954000,238.208,20.621,-90.646,415.149,279.405,-88.433,-730.040,109.510,430.980
223,47484.974000,247.104,25.650,-80.685,418.999,274.847,-76.758,-753.040,-15.490,366.980
224,47485.14000,242.162,40.739,-72.716,424.814,274.127,-67.936,-1086.040,-198.490,366.980
225,47485.57000,237.220,19.615,-50.802,426.716,270.306,-66.055,-1229.040,-479.490,318.980
226,47485.92000,216.463,31.686,-63.751,428.608,265.513,-64.197,-908.040,-638.490,238.980
227,47485.140000,205.591,13.580,-61.759,429.590,268.306,-70.016,-686.040,-920.490,118.980
228,47485.188000,249.081,-33.697,-102.599,424.642,261.916,-93.705,247.960,-971.490,-68.020
229,47485.215000,226.347,21.627,-154.397,415.926,265.262,-114.243,-184.040,-813.490,-13.020
230,47485.252000,203.614,65.886,-210.179,419.820,269.053,-120.034,-568.040,-387.490,136.980
231,47485.292000,202.625,108.134,-170.335,419.841,270.132,-115.107,-261.040,34.510,-22.020
232,47485.312000,207.568,48.786,-124.514,421.803,271.294,-107.232,132.960,376.510,11.980
233,47485.352000,210.533,29.674,-119.533,425.630,265.636,-101.465,-360.040,299.510,36.980
234,47485.402000,220.417,30.680,-115.549,428.616,271.749,-89.555,173.960,505.510,-26.020
235,47485.450000,264.896,57.839,-106.584,425.693,268.009,-81.799,121.960,501.510,-76.020
236,47485.477000,253.035,49.792,-95.626,427.705,274.048,-72.835,76.960,423.510,-159.020
237,47485.517000,236.232,51.804,-95.626,425.774,273.187,-66.974,100.960,385.510,-180.020
238,47485.558000,234.255,64.880,-71.720,429.773,285.026,-59.838,130.960,280.510,-193.020
239,47485.594000,225.359,52.809,-82.677,426.807,278.224,-59.015,137.960,157.510,-204.020
240,47485.618000,213.498,23.639,-99.611,421.108,288.868,-57.810,188.960,79.510,-222.020
241,47485.659000,208.556,19.615,-100.607,420.197,294.684,-57.683,246.960,90.510,-256.020
242,47485.707000,234.255,54.821,-91.642,416.359,299.350,-64.452,361.960,78.510,-348.020
243,47485.754000,237.220,61.862,-89.650,409.608,302.131,-67.346,146.960,13.510,-358.020
244,47485.780000,228.324,34.703,-97.619,403.919,313.747,-66.120,20.960,4.510,-400.020
245,47485.815000,228.324,13.580,-104.591,395.243,317.481,-68.997,226.960,76.510,-594.020
246,47485.855000,262.919,54.821,-86.661,387.654,332.055,-64.767,68.960,123.510,-666.020
247,47485.893000,360.772,26.656,-25.899,375.177,342.568,-66.521,158.960,-37.490,-894.020
248,47485.934000,387.459,-41.745,-85.665,358.877,359.668,-75.983,242.960,-367.490,-1168.020
249,47485.954000,283.676,-122.216,-223.128,344.562,381.662,-84.351,-361.040,-610.490,-878.020
250,47485.993000,211.521,-102.098,-250.023,345.573,383.851,-73.513,-1016.040,-606.490,-6.020
251,47486.38000,167.042,-59.851,-258.988,353.228,376.073,-77.592,264.960,-408.490,623.980
252,47486.75000,164.077,-132.275,-151.409,357.922,365.937,-99.382,2618.960,-46.490,995.980
253,47486.115000,136.402,39.733,-168.342,386.366,316.641,-147.488,4387.960,908.510,1538.980
254,47486.155000,129.483,124.228,-159.377,414.811,260.312,-162.407,2904.960,1239.510,1616.980
255,47486.195000,156.170,142.334,-128.498,444.463,223.021,-150.424,1629.960,1293.510,1592.980
256,47486.233000,210.533,141.328,-165.354,467.423,192.589,-132.418,489.960,924.510,1306.980
257,47486.254000,228.324,180.558,-127.502,476.956,174.604,-116.126,234.960,650.510,820.980
258,47486.294000,275.768,259.018,-49.805,480.826,171.125,-99.524,-155.040,660.510,233.980
259,47486.335000,353.853,230.853,0.000,488.472,161.492,-99.722,317.960,187.510,-17.020
260,47486.375000,422.054,156.417,4.981,485.682,173.114,-99.470,454.960,-158.490,-435.020
261,47486.416000,342.981,100.086,-84.669,475.120,185.221,-117.856,367.960,-582.490,-521.020
262,47486.453000,286.641,135.293,-93.634,470.315,191.647,-132.433,-156.040,-672.490,-373.020
263,47486.493000,208.556,177.540,-60.763,459.726,197.325,-134.291,-1483.040,-733.490,-133.020
264,47486.533000,178.903,209.729,-30.879,453.247,225.608,-124.851,-2618.040,-643.490,-583.020
265,47486.575000,168.031,152.393,-45.821,445.734,245.317,-107.758,-2799.040,-72.490,-1032.020
266,47486.593000,163.089,146.358,-87.658,432.661,287.558,-78.409,-1677.040,610.510,-1538.020
267,47486.633000,176.927,137.305,-145.432,416.615,322.931,-51.179,-798.040,1038.510,-1920.020
268,47486.673000,232.278,106.122,-140.451,388.050,364.028,-22.869,-764.040,1112.510,-1945.020
269,47486.725000,266.873,41.745,-152.405,360.321,390.658,9.045,-988.040,1189.510,-1737.020
270,47486.759000,296.525,-75.945,-126.506,330.683,421.045,36.135,-485.040,1369.510,-1517.020
271,47486.799000,286.641,-104.110,-170.335,307.647,441.056,29.666,1575.960,1375.510,-1088.020
272,47486.860000,338.039,-276.118,44.825,297.009,448.914,-5.486,3639.960,1370.510,-582.020
273,47486.878000,287.629,168.487,-153.401,297.888,446.313,-35.942,-591.040,-71.490,684.980
274,47486.917000,254.023,131.269,22.911,307.511,433.591,-0.901,-2448.040,-445.490,531.980
275,47486.938000,314.317,10.562,-1.992,316.207,430.052,10.807,259.960,117.510,79.980
276,47486.978000,331.120,111.151,26.895,312.370,432.085,16.728,-585.040,-20.490,110.980
277,47487.18000,336.062,87.010,47.813,318.199,432.379,27.534,-772.040,-71.490,-13.020
278,47487.58000,304.432,31.686,30.879,314.360,434.391,32.474,86.960,-94.490,-131.020
279,47487.98000,256.000,-42.750,-81.681,315.285,431.358,26.525,37.960,-368.490,69.980
280,47487.137000,260.942,-7.544,-126.506,321.042,424.791,34.236,-1379.040,-1182.490,438.980
281,47487.179000,245.127,-14.585,-209.183,339.316,410.731,48.673,-2012.040,-1480.490,776.980
282,47487.217000,249.081,-51.804,-93.634,353.631,393.138,36.544,242.960,-1422.490,861.980
283,47487.242000,249.081,0.503,-88.654,373.654,375.559,-21.663,3005.960,-566.490,1095.980
284,47487.279000,234.255,79.969,-92.638,386.750,342.336,-82.193,4133.960,451.510,1308.980
285,47487.319000,207.568,192.629,-58.770,399.029,315.836,-101.388,2860.960,790.510,1099.980
286,47487.355000,224.371,179.552,-90.646,415.340,303.245,-107.517,1793.960,1030.510,666.980
287,47487.397000,215.475,206.711,-83.673,426.765,284.869,-109.862,2167.960,1123.510,336.980
288,47487.438000,203.614,316.354,-74.708,432.375,265.444,-113.223,1919.960,931.510,136.980
289,47487.483000,216.463,249.965,-125.510,428.522,268.211,-118.073,1406.960,498.510,-363.020
290,47487.517000,233.266,254.994,-119.533,426.614,272.852,-126.800,583.960,-114.490,-248.020
291,47487.558000,236.232,221.800,-84.669,419.935,283.358,-131.484,-835.040,-612.490,-188.020
292,47487.578000,193.730,234.876,-114.553,417.138,294.030,-130.273,-1258.040,-761.490,-432.020
293,47487.615000,174.950,170.499,-145.432,404.722,310.413,-129.935,-2068.040,-1226.490,-500.020
294,47487.657000,181.869,194.640,-116.545,388.413,322.140,-118.922,-2517.040,-1264.490,-615.020
295,47487.698000,208.556,113.163,-112.560,368.449,356.138,-108.403,-2235.040,-1049.490,-791.020
296,47487.738000,229.313,83.992,-88.654,355.142,377.645,-95.205,-1723.040,-749.490,-792.020
297,47487.783000,260.942,44.762,-64.747,341.784,392.508,-75.290,-1653.040,-245.490,-623.020
298,47487.828000,261.931,10.562,-81.681,329.354,400.842,-43.750,-1825.040,11.510,-445.020
299,47487.854000,292.571,-63.874,-100.607,335.235,405.149,-26.971,-1596.040,193.510,-107.020
300,47487.874000,265.884,-89.022,-112.560,334.330,408.376,-12.191,-306.040,136.510,194.980
301,47487.914000,205.591,-51.804,-164.358,346.755,396.481,-29.100,1067.960,-144.490,412.980
302,47487.954000,306.409,45.768,-57.774,360.142,382.784,-40.163,-343.040,-617.490,1211.980
303,47488.0,299.490,121.210,-51.798,374.461,363.465,-42.523,-694.040,-667.490,983.980
304,47488.47000,243.151,56.833,-96.623,384.975,354.421,-61.334,943.960,-278.490,667.980
305,47488.79000,251.058,91.033,-94.630,396.423,339.777,-70.461,81.960,-283.490,682.980
306,47488.119000,222.394,61.862,-93.634,402.127,330.060,-73.607,155.960,-23.490,633.980
307,47488.159000,256.000,68.904,-97.619,409.767,319.499,-71.864,125.960,46.510,607.980
308,47488.200000,247.104,59.851,-89.650,420.271,304.198,-66.297,-410.040,65.510,590.980
309,47488.220000,245.127,53.815,-80.685,427.937,294.759,-57.665,-659.040,60.510,566.980
310,47488.265000,247.104,36.715,-82.677,436.607,288.329,-45.041,-716.040,31.510,504.980
311,47488.315000,232.278,55.827,-74.708,442.389,282.883,-30.439,-889.040,55.510,487.980
312,47488.342000,229.313,50.798,-71.720,444.226,271.403,-23.826,-956.040,69.510,490.980
313,47488.413000,234.255,17.603,-54.786,454.829,264.969,-12.178,-848.040,-22.490,457.980
314,47488.429000,230.301,24.644,-47.813,455.715,254.515,-2.602,-849.040,-149.490,414.980
315,47488.470000,206.579,-1.509,-23.907,460.522,251.628,-3.636,-665.040,-540.490,326.980
316,47488.504000,229.313,45.768,-67.735,465.247,242.679,-15.593,-456.040,-705.490,280.980
317,47488.519000,210.533,3.521,-95.626,468.111,241.456,-28.363,-51.040,-663.490,157.980
318,47488.585000,252.046,46.774,-108.576,462.174,231.324,-45.271,5.960,-567.490,120.980
319,47488.620000,253.035,35.709,-133.479,466.997,230.357,-47.244,282.960,-166.490,75.980
320,47488.660000,242.162,11.568,-135.471,463.147,233.145,-51.113,122.960,83.510,-5.020
321,47488.676000,259.954,25.650,-109.572,467.070,237.218,-44.150,203.960,320.510,-91.020
322,47488.720000,243.151,37.721,-107.580,464.214,240.274,-36.243,178.960,525.510,-134.020
323,47488.760000,216.463,34.703,-96.623,465.164,235.710,-23.593,90.960,620.510,-126.020
324,47488.795000,221.405,47.780,-50.802,458.498,242.828,-5.797,137.960,726.510,-95.020
325,47488.838000,248.093,22.633,-41.837,461.469,247.042,8.032,197.960,672.510,-50.020
326,47488.857000,248.093,29.674,-42.833,460.537,250.010,11.038,641.960,588.510,-108.020
327,47488.897000,257.977,44.762,-51.798,457.639,249.140,16.896,555.960,434.510,-104.020
328,47488.937000,243.151,26.656,-38.848,454.713,246.242,18.787,574.960,325.510,-157.020
329,47488.975000,237.220,19.615,-35.860,455.699,249.078,14.929,671.960,234.510,-181.020
330,47489.20000,258.965,-13.580,-14.942,449.017,258.678,13.167,557.960,56.510,-176.020
331,47489.58000,259.954,26.656,-20.918,449.103,270.069,1.652,773.960,-32.490,-330.020
332,47489.100000,252.046,17.603,-54.786,445.246,272.793,-5.160,560.960,-228.490,-483.020
333,47489.140000,250.069,26.656,-46.817,439.561,287.968,-18.565,425.960,-322.490,-629.020
334,47489.193000,226.347,42.750,-24.903,428.047,301.102,-33.988,241.960,-549.490,-719.020
335,47489.200000,240.185,69.910,-79.689,412.670,316.011,-55.264,144.960,-849.490,-589.020
336,47489.245000,228.324,104.110,-107.580,405.892,318.534,-69.932,180.960,-607.490,-438.020
337,47489.282000,224.371,90.028,-105.588,403.069,328.948,-80.494,142.960,-271.490,-226.020
338,47489.322000,224.371,127.246,-95.626,402.024,321.150,-81.650,248.960,-2.490,-13.020
339,47489.360000,214.486,111.151,-110.568,406.849,320.204,-82.642,90.960,145.510,304.980
340,47489.432000,204.602,115.175,-107.580,405.813,311.608,-75.970,-35.040,253.510,453.980
341,47489.445000,241.174,61.862,-85.665,420.295,307.068,-68.195,53.960,351.510,631.980
342,47489.480000,239.197,32.692,-93.634,428.870,292.676,-64.574,-28.040,348.510,566.980
343,47489.505000,240.185,41.745,-68.732,438.408,275.618,-50.222,-382.040,413.510,486.980
344,47489.540000,248.093,32.692,-67.735,439.381,273.039,-35.568,-406.040,322.510,423.980
345,47489.580000,240.185,36.715,-63.751,445.175,269.471,-23.867,-566.040,229.510,331.980
346,47489.620000,251.058,31.686,-62.755,447.092,265.800,-15.118,-784.040,172.510,297.980
347,47489.663000,244.139,14.585,-37.852,451.891,259.310,-3.484,-708.040,143.510,246.980
348,47489.704000,243.151,18.609,-37.852,453.810,254.777,10.149,-737.040,30.510,253.980
349,47489.754000,244.139,32.692,-36.856,456.586,240.393,16.700,-804.040,-104.490,211.980
350,47489.794000,235.243,7.544,-31.875,457.624,247.242,18.815,-516.040,-195.490,175.980
351,47489.827000,246.116,13.580,-52.794,459.529,244.326,17.774,-173.040,-199.490,85.980
352,47489.847000,250.069,18.609,-73.712,461.403,239.361,11.784,-12.040,-116.490,2.980
353,47489.876000,248.093,24.644,-76.700,464.345,243.295,12.858,125.960,40.510,-51.020
354,47489.918000,254.023,29.674,-74.708,460.426,238.381,11.760,106.960,192.510,-77.020
355,47489.958000,240.185,23.639,-65.743,459.526,243.420,20.696,121.960,289.510,-103.020
356,47490.2000,244.139,20.621,-47.813,457.690,252.268,26.772,225.960,367.510,-143.020
357,47490.42000,247.104,32.692,-40.840,452.911,257.183,31.775,341.960,353.510,-200.020
358,47490.79000,246.116,32.692,-29.883,450.971,256.237,33.711,312.960,318.510,-193.020
359,47490.120000,251.058,27.662,-33.868,447.193,265.886,32.936,548.960,239.510,-251.020
360,47490.140000,253.035,26.656,-30.879,444.303,267.735,30.029,559.960,208.510,-284.020
361,47490.180000,242.162,47.780,-24.903,438.623,280.321,31.277,372.960,55.510,-291.020
362,47490.219000,252.046,32.692,-43.829,435.778,287.887,23.594,450.960,15.510,-336.020
363,47490.259000,247.104,59.851,-46.817,432.871,287.816,21.625,194.960,12.510,-402.020
364,47490.307000,256.988,27.662,-43.829,425.219,296.500,22.782,14.960,8.510,-441.020
365,47490.338000,250.069,40.739,-38.848,414.705,309.945,21.097,50.960,89.510,-624.020
366,47490.377000,251.058,37.721,-11.953,408.043,321.508,20.359,-51.040,-0.490,-750.020
367,47490.421000,258.965,36.715,3.984,396.564,335.850,15.750,27.960,-197.490,-892.020
368,47490.462000,268.849,21.627,-25.899,382.233,356.809,4.417,438.960,-375.490,-980.020
369,47490.482000,388.448,46.774,-26.895,364.958,374.697,-12.874,850.960,-311.490,-1069.020
370,47490.517000,402.286,-61.862,-84.669,345.814,395.846,-13.426,-574.040,-457.490,-1076.020
371,47490.557000,272.803,-56.833,-197.230,343.994,405.730,-4.384,-948.040,-686.490,-177.020
372,47490.601000,246.116,-88.016,-233.089,350.666,398.676,-19.237,326.960,-1077.490,288.980
373,47490.640000,185.822,-70.916,-162.366,361.154,390.258,-53.725,2984.960,-515.490,748.980
374,47490.679000,169.019,31.686,-167.346,375.215,356.139,-111.331,3717.960,227.510,1210.980
375,47490.723000,140.355,130.263,-146.428,395.023,310.966,-144.653,2136.960,195.510,1336.980
376,47490.759000,134.425,77.957,-132.482,414.059,280.863,-154.107,1684.960,530.510,1435.980
377,47490.803000,173.961,69.910,-140.451,433.986,240.350,-152.023,2080.960,901.510,1431.980
378,47490.823000,222.394,168.487,-126.506,452.981,202.804,-146.932,2231.960,1154.510,1126.980
379,47490.863000,218.440,230.853,-89.650,465.432,188.514,-140.358,725.960,939.510,845.980
380,47490.903000,250.069,186.593,-87.658,474.963,169.623,-121.144,-553.040,667.510,657.980
381,47490.939000,256.988,64.880,-176.311,480.750,165.105,-108.484,-1030.040,-16.490,581.980
382,47490.983000,339.027,159.434,52.794,479.855,171.957,-105.392,-651.040,-123.490,-182.020
383,47491.23000,356.819,46.774,6.973,477.007,178.617,-110.153,427.960,-113.490,-319.020
384,47491.59000,313.328,87.010,-64.747,471.218,183.112,-123.795,117.960,-409.490,-274.020
385,47491.102000,259.954,91.033,-38.848,465.430,184.976,-124.746,-923.040,-447.490,-125.020
386,47491.120000,235.243,150.381,-8.965,474.207,191.016,-118.710,-1736.040,-207.490,-131.020
387,47491.163000,219.429,132.275,-56.778,467.697,213.711,-98.606,-2197.040,79.510,-433.020
388,47491.200000,211.521,122.216,-78.693,467.905,230.668,-77.636,-1589.040,310.510,-691.020
389,47491.243000,196.695,146.358,-131.486,458.541,258.211,-56.450,-990.040,430.510,-1197.020
390,47491.279000,198.672,97.069,-161.370,446.206,279.771,-41.288,-989.040,361.510,-1415.020
391,47491.325000,225.359,54.821,-146.428,426.241,312.885,-26.866,-983.040,303.510,-1446.020
392,47491.360000,239.197,15.591,-128.498,409.172,344.193,-7.574,-1099.040,321.510,-1319.020
393,47491.405000,252.046,-44.762,-121.525,394.772,353.048,4.360,-1009.040,453.510,-1227.020
394,47491.439000,250.069,-32.692,-85.665,377.606,375.510,18.552,-41.040,645.510,-1093.020
395,47491.458000,295.537,-186.593,-13.946,361.285,388.877,15.872,1111.960,890.510,-809.020
396,47491.500000,277.745,-56.833,-136.467,352.559,394.769,-21.281,2901.960,866.510,-66.020
397,47491.541000,279.722,88.016,-9.961,362.217,389.426,-3.727,-2044.040,-470.490,709.980
398,47491.581000,374.610,-7.544,30.879,375.751,382.416,24.585,-1530.040,-466.490,256.980
399,47491.623000,339.027,82.986,12.949,372.810,381.137,11.802,882.960,52.510,-267.020
400,47491.663000,327.166,6.538,-1.992,368.990,386.860,8.979,-352.040,-223.490,-231.020
401,47491.703000,318.270,-72.927,-112.560,366.064,383.962,10.870,-74.040,-259.490,-227.020
402,47491.748000,271.815,-59.851,-105.588,361.328,394.573,10.115,43.960,-366.490,-116.020
403,47491.763000,178.903,-36.715,-162.366,364.145,384.979,13.830,-693.040,-580.490,326.980
404,47491.798000,218.440,-18.609,-196.233,375.678,379.072,4.898,431.960,-454.490,590.980
405,47491.841000,236.232,-57.839,-108.576,391.806,355.932,-39.712,2600.960,-166.490,1193.980
406,47491.880000,233.266,70.916,-115.549,406.035,332.234,-64.724,3038.960,211.510,1558.980
407,47491.919000,203.614,99.081,-112.560,421.109,295.039,-86.112,1243.960,129.510,1673.980
408,47491.967000,222.394,86.004,-89.650,446.908,263.147,-91.669,625.960,119.510,1773.980
409,47492.4000,228.324,162.452,-51.798,462.991,225.487,-90.510,534.960,297.510,1474.980
410,47492.44000,255.012,158.428,-17.930,473.382,197.651,-81.299,698.960,475.510,947.980
411,47492.84000,289.606,119.198,-129.494,476.167,185.986,-83.513,962.960,123.510,399.980
412,47492.99000,314.317,244.935,89.650,478.156,192.693,-88.264,357.960,-100.490,-238.020
413,47492.140000,330.131,142.334,-14.942,477.229,197.473,-91.101,278.960,-11.490,-269.020
414,47492.184000,288.618,137.305,-59.767,474.309,197.272,-98.957,264.960,-437.490,-383.020
415,47492.220000,209.544,124.228,-97.619,467.644,210.561,-109.464,-117.040,-479.490,-424.020
416,47492.260000,188.788,180.558,-61.759,462.857,216.274,-112.289,-771.040,-338.490,-550.020
417,47492.302000,170.996,176.534,-97.619,451.591,250.271,-105.674,-1546.040,-336.490,-947.020
418,47492.340000,155.181,133.281,-134.475,439.289,277.440,-100.194,-1218.040,-256.490,-1264.020
419,47492.381000,180.880,139.316,-154.397,418.330,309.401,-93.645,-1146.040,-293.490,-1484.020
420,47492.423000,231.290,112.157,-147.424,403.979,325.764,-93.312,-1359.040,-407.490,-1565.020
421,47492.443000,256.988,58.845,-143.440,382.134,364.662,-79.746,-1577.040,-462.490,-1464.020
422,47492.483000,274.780,-9.556,-119.533,359.100,381.178,-68.640,-1423.040,-348.490,-1142.020
423,47492.523000,280.710,-26.656,-89.650,340.042,407.548,-52.405,-1190.040,-92.490,-881.020
424,47492.564000,273.792,-96.063,-96.623,332.501,425.228,-39.279,-801.040,22.510,-384.020
425,47492.600000,259.954,-148.369,-81.681,333.371,417.255,-49.261,303.960,-72.490,-41.020
426,47492.640000,236.232,4.527,-128.498,337.137,411.899,-73.889,1723.960,33.510,462.980
427,47492.685000,285.652,123.222,-52.794,347.503,386.459,-88.161,-593.040,-555.490,1016.980
428,47492.729000,332.108,106.122,-50.802,364.865,380.846,-86.287,-622.040,-575.490,1109.980
429,47492.756000,303.444,111.151,-61.759,377.259,365.133,-100.339,582.960,-316.490,881.980
430,47492.784000,240.185,81.980,-120.529,394.485,346.770,-104.633,-71.040,-290.490,993.980
431,47492.823000,223.382,27.662,-121.525,404.914,324.587,-103.142,-274.040,-41.490,799.980
432,47492.867000,255.012,59.851,-102.599,416.410,312.165,-99.471,140.960,221.510,611.980
433,47492.902000,250.069,61.862,-93.634,419.279,307.469,-93.685,-240.040,238.510,564.980
434,47492.947000,239.197,31.686,-82.677,426.042,303.931,-81.001,-567.040,155.510,529.980
435,47492.980000,240.185,59.851,-78.693,438.618,301.400,-69.263,-734.040,90.510,480.980
436,47493.33000,233.266,58.845,-80.685,445.228,282.308,-57.905,-850.040,60.510,477.980
437,47493.59000,229.313,42.750,-73.712,449.998,272.905,-46.335,-968.040,55.510,553.980
438,47493.79000,227.336,36.715,-54.786,456.776,270.382,-31.667,-849.040,-12.490,546.980
439,47493.125000,223.382,8.550,-52.794,464.437,261.784,-28.900,-495.040,-50.490,427.980
440,47493.163000,228.324,-4.527,-34.864,466.363,260.832,-28.917,-278.040,-341.490,252.980
441,47493.215000,223.382,42.750,-71.720,469.199,254.949,-32.964,-52.040,-453.490,173.980
442,47493.248000,256.988,31.686,-93.634,469.074,245.823,-50.819,75.960,-379.490,100.980
443,47493.284000,256.000,11.568,-96.623,468.110,247.605,-57.646,46.960,-314.490,56.980
444,47493.325000,244.139,21.627,-120.529,470.080,251.485,-58.537,225.960,-35.490,-55.020
445,47493.364000,227.336,33.697,-119.533,464.299,254.298,-60.448,226.960,207.510,-110.020
446,47493.383000,247.104,28.668,-87.658,467.224,255.427,-54.532,314.960,392.510,-132.020
447,47493.425000,226.347,36.715,-80.685,467.205,252.600,-50.673,480.960,476.510,-147.020
448,47493.465000,225.359,40.739,-66.739,462.429,257.537,-44.689,571.960,525.510,-118.020
449,47493.502000,245.127,20.621,-39.844,464.415,261.569,-38.711,650.960,459.510,-81.020
450,47493.544000,255.012,23.639,-49.805,462.445,258.573,-41.724,819.960,370.510,-62.020
451,47493.589000,252.046,25.650,-61.759,463.375,254.699,-41.808,528.960,260.510,-53.020
452,47493.628000,249.081,11.568,-44.825,456.666,261.407,-42.654,448.960,183.510,-108.020
453,47493.663000,245.127,1.509,-23.907,459.538,259.386,-47.596,643.960,-78.490,-254.020
454,47493.704000,252.046,15.591,-68.732,452.852,270.711,-59.127,490.960,-153.490,-323.020
455,47493.725000,238.208,24.644,-48.809,448.953,269.509,-67.988,274.960,-190.490,-387.020
456,47493.765000,237.220,41.745,-52.794,444.254,286.635,-81.347,431.960,-414.490,-488.020
457,47493.805000,233.266,67.898,-75.704,434.558,287.210,-95.084,42.960,-609.490,-400.020
458,47493.845000,240.185,65.886,-103.595,425.918,296.575,-106.662,-23.040,-470.490,-281.020
459,47493.898000,217.452,99.081,-128.498,428.844,299.472,-108.553,-6.040,-167.490,-80.020
460,47493.955000,234.255,92.039,-97.619,429.799,297.605,-105.650,-154.040,121.510,218.980
461,47493.969000,229.313,51.804,-97.619,434.605,292.949,-98.879,-198.040,198.510,367.980
462,47494.5000,236.232,37.721,-83.673,443.221,281.599,-89.306,-399.040,251.510,409.980
463,47494.25000,255.012,34.703,-82.677,443.194,276.054,-76.680,-480.040,231.510,393.980
464,47494.62000,259.954,35.709,-78.693,449.982,275.386,-65.894,-790.040,198.510,379.980
465,47494.103000,234.255,37.721,-73.712,455.779,270.092,-44.424,-1120.040,172.510,398.980
466,47494.163000,238.208,9.556,-62.755,460.575,262.696,-29.869,-896.040,141.510,292.980
467,47494.234000,240.185,24.644,-56.778,462.544,264.808,-22.953,-550.040,184.510,209.980
468,47494.248000,239.197,29.674,-42.833,465.344,252.409,-14.396,-581.040,58.510,189.980
469,47494.275000,232.278,-0.503,-34.864,465.336,249.690,-5.631,-490.040,-63.490,167.980
470,47494.308000,239.197,15.591,-42.833,467.306,253.571,-6.521,-118.040,-153.490,52.980
471,47494.344000,247.104,16.597,-58.770,468.223,249.568,-12.492,71.960,-177.490,-8.020
472,47494.366000,255.012,20.621,-79.689,465.311,249.453,-16.423,146.960,-105.490,-64.020
473,47494.404000,244.139,31.686,-86.661,466.335,255.288,-16.292,228.960,125.510,-120.020
474,47494.448000,253.035,31.686,-72.716,463.407,252.368,-15.382,244.960,266.510,-114.020
475,47494.483000,240.185,27.662,-59.767,463.477,258.323,-9.366,208.960,346.510,-134.020
476,47494.534000,239.197,36.715,-47.813,459.691,265.254,-1.374,214.960,387.510,-148.020
477,47494.561000,247.104,34.703,-40.840,459.724,267.325,4.556,301.960,420.510,-152.020
478,47494.603000,250.069,38.727,-41.837,455.870,268.323,7.512,285.960,385.510,-153.020
479,47494.644000,252.046,30.680,-41.837,454.028,276.243,15.529,287.960,368.510,-169.020
480,47494.684000,248.093,40.739,-31.875,448.223,275.302,19.418,266.960,340.510,-185.020
481,47494.704000,246.116,21.627,-20.918,447.345,284.074,21.572,361.960,275.510,-266.020
482,47494.744000,251.058,36.715,-25.899,443.511,287.898,20.669,324.960,180.510,-329.020
483,47494.784000,250.069,39.733,-31.875,438.695,290.699,17.779,238.960,119.510,-393.020
484,47494.825000,248.093,35.709,-35.860,429.188,307.174,21.066,42.960,95.510,-499.020
485,47494.866000,254.023,37.721,-26.895,425.476,322.735,24.346,73.960,121.510,-619.020
486,47494.905000,248.093,35.709,-12.949,411.092,336.142,22.652,66.960,51.510,-834.020
487,47494.945000,245.127,36.715,4.981,399.615,350.506,19.024,109.960,-119.490,-1001.020
488,47494.983000,257.977,65.886,-27.891,382.364,368.632,12.525,271.960,-248.490,-1078.020
489,47495.5000,351.876,63.874,-24.903,361.188,381.779,1.985,511.960,-228.490,-993.020
490,47495.43000,391.413,-33.697,-27.891,341.133,408.744,1.561,-448.040,-179.490,-1220.020
491,47495.83000,297.514,-35.709,-165.354,332.526,416.663,12.506,-794.040,-535.490,-518.020
492,47495.121000,256.000,-12.574,-260.981,335.346,407.975,13.299,-382.040,-1213.490,178.980
493,47495.163000,284.664,-140.322,-145.432,339.151,411.789,-35.641,2304.960,-828.490,474.980
494,47495.205000,207.568,21.627,-128.498,350.407,385.624,-83.270,3736.960,-198.490,921.980
495,47495.243000,183.846,135.293,-129.494,366.476,356.637,-128.990,2730.960,129.510,1148.980
496,47495.286000,148.263,50.798,-140.451,386.495,329.327,-144.264,1563.960,174.510,1114.980
497,47495.321000,159.135,43.756,-143.440,404.484,292.290,-159.758,2258.960,674.510,1223.980
498,47495.343000,173.961,123.222,-128.498,425.366,252.541,-167.461,2500.960,993.510,1169.980
499,47495.385000,187.799,143.340,-118.537,439.561,218.831,-162.295,1590.960,1109.510,1047.980
500,47495.425000,212.510,216.770,-88.654,452.073,209.526,-149.727,531.960,1016.510,905.980
501,47495.465000,254.023,161.446,-105.588,467.467,196.537,-129.389,-248.040,705.510,656.980
502,47495.505000,325.189,372.684,-59.767,474.151,186.075,-122.742,448.960,229.510,476.980
503,47495.543000,350.888,71.921,9.961,473.273,193.962,-116.685,-1117.040,-212.490,-53.020
504,47495.581000,365.714,105.116,3.984,471.292,190.858,-124.603,248.960,-180.490,-114.020
505,47495.625000,314.317,137.305,-46.817,466.570,202.483,-123.375,-293.040,-333.490,-170.020
506,47495.643000,255.012,103.104,-105.588,463.727,209.186,-126.174,-1050.040,-599.490,-232.020
507,47495.686000,180.880,103.104,-85.665,457.943,211.092,-125.163,-1252.040,-430.490,-241.020
508,47495.727000,157.158,152.393,-80.685,455.313,237.450,-116.738,-1658.040,-242.490,-783.020
509,47495.762000,152.216,75.945,-118.537,445.885,259.966,-103.510,-1554.040,-130.490,-1065.020
510,47495.808000,181.869,53.815,-146.428,429.728,288.112,-96.054,-905.040,102.510,-1211.020
511,47495.848000,232.278,16.597,-151.409,416.484,316.394,-83.687,-728.040,151.510,-1277.020
512,47495.888000,230.301,2.515,-139.455,395.505,345.528,-73.278,-725.040,113.510,-1219.020
513,47495.924000,249.081,-39.733,-103.595,380.193,361.062,-66.100,-640.040,138.510,-1079.020
514,47495.965000,245.127,-35.709,-118.537,372.554,369.875,-59.056,-157.040,310.510,-814.020
515,47495.986000,313.328,-108.134,-43.829,361.020,378.414,-62.814,510.960,426.510,-564.020
516,47496.28000,302.456,-17.603,-113.556,359.108,383.896,-77.406,1351.960,747.510,142.980
517,47496.68000,285.652,103.104,-60.763,367.726,375.200,-79.542,28.960,-59.490,521.980
518,47496.108000,255.012,109.139,-66.739,379.154,355.961,-77.003,-771.040,-495.490,881.980
519,47496.148000,253.035,146.358,-30.879,392.540,340.494,-80.260,-518.040,-667.490,801.980
520,47496.189000,203.614,184.582,-8.965,399.228,333.592,-88.245,-76.040,-475.490,561.980
521,47496.224000,174.950,284.165,13.946,397.349,337.629,-80.314,-1642.040,-443.490,-80.020
522,47496.263000,174.950,208.723,-13.946,396.559,351.643,-60.391,-1916.040,-97.490,-400.020
523,47496.304000,213.498,161.446,-31.875,390.979,368.717,-31.585,-1529.040,349.510,-758.020
524,47496.324000,205.591,72.927,-66.739,379.485,374.105,-2.069,-1199.040,502.510,-710.020
525,47496.364000,246.116,40.739,-143.440,369.991,387.193,23.698,-1518.040,343.510,-470.020
526,47496.406000,262.919,-116.181,-146.428,367.249,402.785,27.961,-629.040,-129.490,-549.020
527,47496.446000,194.718,-106.122,-213.167,366.272,407.090,3.538,1851.960,-686.490,19.980
528,47496.495000,255.012,65.886,-79.689,377.695,395.726,-32.974,-119.040,-1101.490,993.980
529,47496.525000,328.154,167.481,-51.798,397.769,372.472,-40.313,-1207.040,-1195.490,1002.980
530,47496.566000,237.220,84.998,-120.529,403.367,356.455,-65.173,1304.960,-478.490,630.980
531,47496.609000,231.290,89.022,-123.518,418.715,346.553,-81.051,356.960,-322.490,892.980
532,47496.631000,253.035,50.798,-111.564,429.199,330.173,-80.412,-250.040,-87.490,861.980
533,47496.668000,254.023,37.721,-106.584,437.738,311.919,-75.896,64.960,159.510,655.980
534,47496.720000,244.139,64.880,-94.630,443.519,308.222,-70.082,-120.040,349.510,562.980
535,47496.748000,232.278,49.792,-78.693,455.028,295.045,-56.621,-356.040,323.510,540.980
536,47496.790000,235.243,33.697,-70.724,462.733,288.626,-43.018,-481.040,280.510,446.980
537,47496.828000,233.266,53.815,-65.743,469.456,281.184,-31.401,-536.040,249.510,428.980
538,47496.866000,246.116,25.650,-36.856,472.286,270.835,-17.895,-836.040,59.510,430.980
539,47496.904000,236.232,13.580,-20.918,473.177,261.308,-10.260,-660.040,-117.490,358.980
540,47496.948000,224.371,17.603,-17.930,475.087,260.205,-17.145,-467.040,-385.490,276.980
541,47496.986000,224.371,45.768,-35.860,479.746,243.575,-25.349,-89.040,-663.490,158.980
542,47497.6000,229.313,18.609,-59.767,480.753,251.891,-44.776,-99.040,-820.490,110.980
543,47497.44000,247.104,10.562,-124.514,479.732,250.479,-64.422,155.960,-624.490,55.980
544,47497.84000,239.197,31.686,-140.451,476.781,247.344,-73.324,190.960,-293.490,-53.020
545,47497.128000,249.081,36.715,-128.498,474.839,247.261,-76.272,283.960,173.510,-107.020
546,47497.175000,246.116,34.703,-118.537,475.857,250.398,-66.394,282.960,438.510,-139.020
547,47497.221000,240.185,33.697,-110.568,472.055,256.294,-61.368,125.960,691.510,-115.020
548,47497.249000,226.347,45.768,-67.735,473.089,259.582,-44.621,202.960,720.510,-110.020
549,47497.275000,228.324,46.774,-42.833,474.090,259.031,-25.999,230.960,649.510,-7.020
550,47497.309000,246.116,17.603,-29.883,473.082,254.232,-23.165,578.960,506.510,-18.020
551,47497.349000,247.104,20.621,-29.883,473.143,260.100,-21.074,643.960,290.510,-59.020
552,47497.389000,251.058,3.521,-37.852,475.110,264.822,-27.829,635.960,-19.490,-168.020
553,47497.429000,238.208,26.656,-65.743,469.306,267.420,-39.552,725.960,-87.490,-282.020
554,47497.481000,239.197,30.680,-60.763,466.473,275.978,-46.233,576.960,-138.490,-367.020
555,47497.509000,235.243,26.656,-24.903,462.577,276.566,-61.918,543.960,-403.490,-430.020
556,47497.549000,224.371,63.874,-60.763,450.071,288.569,-84.233,275.960,-853.490,-501.020
557,47497.589000,220.417,74.939,-123.518,441.449,301.623,-104.556,-66.040,-975.490,-448.020
558,47497.608000,212.510,106.122,-152.405,433.723,306.078,-119.183,47.960,-459.490,-242.020
559,47497.659000,236.232,99.081,-126.506,436.602,305.006,-125.085,-79.040,-130.490,55.980
560,47497.684000,227.336,80.974,-117.541,439.489,302.251,-119.256,-0.040,188.510,382.980
561,47497.734000,224.371,64.880,-117.541,445.199,290.830,-111.652,-116.040,298.510,495.980
562,47497.778000,236.232,8.550,-92.638,454.865,287.321,-98.961,-167.040,382.510,438.980
563,47497.805000,244.139,38.727,-83.673,458.675,279.743,-92.256,-217.040,399.510,318.980
564,47497.850000,245.127,37.721,-81.681,465.436,275.300,-76.650,-359.040,359.510,326.980
565,47497.886000,230.301,48.786,-64.747,467.317,266.883,-63.104,-759.040,251.510,352.980
566,47497.906000,237.220,18.609,-65.743,471.190,263.426,-45.521,-898.040,170.510,352.980
567,47497.983000,245.127,20.621,-51.798,472.067,252.000,-35.966,-684.040,164.510,288.980
568,47497.999000,244.139,27.662,-42.833,477.939,257.105,-27.014,-689.040,24.510,248.980
569,47498.26000,234.255,28.668,-35.860,481.735,248.513,-22.293,-525.040,-166.490,211.980
570,47498.64000,233.266,4.527,-51.798,479.713,239.735,-23.473,-254.040,-218.490,150.980
571,47498.106000,247.104,13.580,-77.696,485.443,232.909,-27.535,-10.040,-201.490,11.980
572,47498.146000,246.116,29.674,-94.630,482.694,249.321,-30.119,120.960,-69.490,-65.020
573,47498.189000,249.081,43.756,-102.599,481.738,250.304,-29.118,110.960,99.510,-91.020
574,47498.229000,250.069,38.727,-93.634,481.770,252.375,-23.188,-86.040,385.510,-34.020
575,47498.249000,236.232,25.650,-63.751,478.888,251.656,-10.462,-66.040,439.510,-91.020
576,47498.286000,250.069,31.686,-48.809,475.987,249.880,-1.681,-24.040,443.510,-133.020
577,47498.326000,238.208,36.715,-40.840,474.145,257.801,6.336,48.960,350.510,-159.020
578,47498.393000,252.046,16.597,-26.895,472.267,262.723,10.364,107.960,170.510,-223.020
579,47498.433000,240.185,43.756,-34.864,470.393,268.572,12.451,205.960,54.510,-281.020
580,47498.449000,247.104,19.615,-38.848,464.577,268.408,7.532,132.960,-92.490,-350.020
581,47498.489000,248.093,34.703,-60.763,461.830,284.841,5.929,189.960,-81.490,-439.020
582,47498.530000,244.139,55.827,-58.770,454.115,287.635,4.014,37.960,-5.490,-489.020
583,47498.570000,245.127,41.745,-65.743,444.572,301.133,4.293,22.960,39.510,-543.020
584,47498.590000,248.093,51.804,-68.732,437.991,320.506,5.690,-28.040,144.510,-683.020
585,47498.630000,256.000,34.703,-39.844,427.450,329.291,12.728,-13.040,211.510,-806.020
586,47498.670000,299.490,51.804,-31.875,411.267,356.315,13.293,153.960,169.510,-958.020
587,47498.706000,358.795,9.556,-21.914,398.778,365.836,10.536,455.960,183.510,-1217.020
588,47498.745000,379.552,-48.786,-37.852,374.887,396.603,8.227,819.960,439.510,-1711.020
589,47498.786000,314.317,-112.157,-158.381,351.866,415.881,12.529,335.960,282.510,-841.020
590,47498.825000,219.429,-18.609,-321.743,349.981,422.507,5.807,191.960,-352.490,77.980
591,47498.866000,261.931,-125.234,-145.432,352.645,407.045,-36.699,2836.960,-366.490,625.980
592,47498.885000,208.556,32.692,-141.447,371.625,380.804,-91.177,3681.960,208.510,1238.980
593,47498.929000,189.776,121.210,-132.482,394.395,340.621,-119.480,1960.960,219.510,1614.980
594,47498.965000,191.753,97.069,-141.447,413.508,317.423,-123.877,1007.960,292.510,1770.980
595,47499.9000,189.776,110.145,-149.416,436.328,275.967,-121.807,1097.960,288.510,1882.980
596,47499.50000,188.788,136.299,-174.319,455.213,229.446,-127.703,1648.960,292.510,1678.980
597,47499.86000,200.649,209.729,-128.498,464.547,196.337,-137.245,1142.960,121.510,1305.980
598,47499.126000,216.463,187.599,-60.763,473.171,187.705,-136.437,407.960,55.510,667.980
599,47499.168000,254.023,188.605,-44.825,474.073,181.803,-140.489,501.960,176.510,172.980
600,47499.208000,298.502,201.682,13.946,470.114,173.869,-146.557,835.960,-20.490,-297.020
601,47499.226000,366.703,57.839,68.732,460.563,187.281,-150.203,361.960,-9.490,-642.020
602,47499.269000,385.483,34.703,-24.903,462.430,181.367,-155.233,925.960,-93.490,-550.020
603,47499.309000,324.201,100.086,-47.813,451.943,199.472,-165.641,127.960,-447.490,-421.020
604,47499.348000,265.884,100.086,-69.728,445.258,209.050,-168.384,-910.040,-517.490,-110.020
605,47499.389000,209.544,189.611,-54.786,446.333,218.897,-162.279,-1511.040,-284.490,-80.020
606,47499.428000,171.985,171.505,-67.735,442.687,236.853,-138.353,-2200.040,-9.490,-413.020
607,47499.466000,144.309,166.475,-112.560,439.154,266.459,-114.167,-1861.040,222.510,-679.020
608,47499.510000,148.263,189.611,-152.405,434.499,281.363,-96.194,-1581.040,340.510,-976.020
609,47499.526000,168.031,170.499,-166.350,426.160,314.740,-74.877,-1761.040,350.510,-1412.020
610,47499.568000,223.382,115.175,-176.311,405.288,351.059,-46.656,-1451.040,412.510,-1639.020
611,47499.610000,259.954,81.980,-157.385,379.499,381.289,-28.388,-947.040,414.510,-1719.020
612,47499.648000,278.734,-17.603,-142.444,348.853,410.394,-15.058,-669.040,485.510,-1592.020
613,47499.693000,272.803,-74.939,-90.646,326.819,432.507,-14.613,339.960,689.510,-1292.020
614,47499.728000,252.046,-86.004,-46.817,310.481,443.954,-16.355,972.960,704.510,-942.020
615,47499.768000,246.116,-48.786,-57.774,306.595,446.398,-35.922,1882.960,1181.510,15.980
616,47499.810000,334.085,92.039,-170.335,317.127,437.526,-46.884,-107.040,-63.490,439.980
617,47499.850000,290.595,172.511,30.879,327.671,425.246,-36.347,-1005.040,-185.490,553.980
618,47499.870000,344.958,10.562,-3.984,328.656,424.543,-24.593,-338.040,-62.490,208.980
619,47499.928000,245.127,137.305,-16.934,335.429,421.977,-11.887,-878.040,-286.490,277.980
620,47499.969000,256.988,45.768,-73.712,343.087,411.589,-2.295,-1161.040,-626.490,389.980
621,47500.6000,222.394,38.727,-71.720,350.840,411.794,3.610,-576.040,-660.490,561.980
622,47500.45000,180.880,110.145,-21.914,358.435,399.032,-6.464,166.960,-481.490,386.980
623,47500.73000,196.695,130.263,-14.942,362.252,395.920,-17.312,193.960,-321.490,393.980
624,47500.114000,200.649,162.452,-18.926,371.834,386.327,-16.524,-387.040,-282.490,471.980
625,47500.150000,223.382,128.251,-15.938,374.668,379.538,-17.650,-356.040,-309.490,275.980
626,47500.188000,252.046,94.051,-35.860,377.470,371.562,-28.608,316.960,-291.490,206.980
627,47500.216000,241.174,128.251,-43.829,383.267,373.301,-40.325,428.960,-382.490,284.980
628,47500.251000,218.440,131.269,-45.821,385.052,359.556,-48.472,-412.040,-552.490,536.980
629,47500.288000,190.764,105.116,-113.556,399.509,354.778,-51.489,-397.040,-466.490,712.980
630,47500.333000,214.486,34.703,-95.626,410.962,340.177,-58.654,362.960,-158.490,818.980
631,47500.371000,293.560,65.886,-107.580,421.455,325.653,-61.896,30.960,-22.490,713.980
632,47500.421000,227.336,55.827,-71.720,429.077,313.151,-60.196,-53.040,48.510,567.980
633,47500.450000,256.000,51.804,-81.681,438.659,302.673,-55.505,-6.040,158.510,573.980
634,47500.504000,255.012,66.892,-66.739,440.508,293.070,-51.792,-340.040,107.510,558.980
635,47500.511000,248.093,20.621,-57.774,448.207,286.586,-41.132,-846.040,-35.490,460.980
636,47500.605000,239.197,29.674,-45.821,452.000,276.203,-29.587,-826.040,-106.490,398.980
637,47500.621000,238.208,5.532,-47.813,454.784,263.654,-27.898,-662.040,-220.490,366.980
638,47500.639000,244.139,16.597,-45.821,461.560,263.763,-25.920,-542.040,-363.490,329.980
639,47500.671000,214.486,31.686,-36.856,465.358,258.709,-36.812,-240.040,-547.490,230.980
640,47500.710000,227.336,14.585,-65.743,468.163,251.639,-50.692,49.960,-654.490,171.980
641,47500.749000,231.290,30.680,-88.654,467.194,253.377,-59.481,98.960,-653.490,78.980
642,47500.791000,231.290,26.656,-112.560,466.134,247.197,-75.311,207.960,-523.490,42.980
643,47500.830000,247.104,33.697,-133.479,464.196,249.789,-88.987,277.960,-274.490,32.980
644,47500.851000,241.174,38.727,-132.482,465.169,250.726,-90.926,120.960,32.510,-8.020
645,47500.890000,245.127,12.574,-112.560,463.198,246.846,-90.035,117.960,191.510,-31.020
646,47500.941000,230.301,18.609,-106.584,459.309,243.097,-82.281,137.960,348.510,-97.020
647,47500.976000,230.301,26.656,-90.646,465.169,247.210,-74.332,143.960,427.510,-105.020
648,47501.13000,228.324,29.674,-79.689,463.257,248.291,-68.428,251.960,449.510,-119.020
649,47501.53000,228.324,36.715,-64.747,466.277,259.128,-62.298,270.960,419.510,-116.020
650,47501.94000,239.197,21.627,-60.763,462.432,260.212,-55.417,572.960,368.510,-137.020
651,47501.131000,243.151,22.633,-57.774,460.455,256.267,-57.470,737.960,295.510,-187.020
652,47501.156000,247.104,14.585,-50.802,460.486,260.970,-64.230,847.960,159.510,-215.020
653,47501.191000,254.023,36.715,-70.724,457.632,267.565,-71.935,719.960,83.510,-211.020
654,47501.233000,239.197,34.703,-66.739,458.600,268.460,-75.836,464.960,111.510,-151.020
655,47501.273000,237.220,33.697,-44.825,456.672,269.390,-76.800,283.960,2.510,-150.020
656,47501.314000,246.116,33.697,-79.689,452.820,272.157,-81.650,43.960,-211.490,-163.020
657,47501.351000,243.151,48.786,-74.708,448.966,274.039,-82.597,-290.040,-225.490,-150.020
658,47501.388000,245.127,19.615,-80.685,446.149,282.749,-82.410,-198.040,-165.490,-179.020
659,47501.441000,234.255,55.827,-94.630,442.249,279.777,-83.464,-184.040,-71.490,-229.020
660,47501.476000,246.116,47.780,-86.661,441.420,294.309,-84.124,-178.040,-3.490,-213.020
661,47501.496000,230.301,41.745,-77.696,437.583,297.227,-82.106,-111.040,70.510,-241.020
662,47501.531000,237.220,50.798,-78.693,436.608,295.384,-77.246,-71.040,88.510,-251.020
663,47501.573000,243.151,42.750,-77.696,429.935,305.069,-75.084,-143.040,126.510,-256.020
664,47501.608000,245.127,47.780,-79.689,424.224,312.952,-67.075,-187.040,171.510,-308.020
665,47501.650000,240.185,45.768,-73.712,424.329,321.884,-58.051,-294.040,214.510,-373.020
666,47501.701000,251.058,68.904,-54.786,415.703,327.862,-47.149,-352.040,190.510,-474.020
667,47501.741000,260.942,54.821,-37.852,404.239,341.470,-40.987,-335.040,145.510,-566.020
668,47501.769000,275.768,32.692,-27.891,401.447,351.302,-33.910,-186.040,109.510,-730.020
669,47501.789000,310.363,-1.509,-37.852,384.226,370.592,-31.557,156.960,70.510,-888.020
670,47501.830000,356.819,2.515,-60.763,368.920,390.592,-41.933,896.960,106.510,-1269.020
671,47501.871000,376.587,-28.668,-93.634,343.901,403.961,-40.708,-78.040,28.510,-1103.020
672,47501.913000,245.127,-24.644,-163.362,339.120,408.854,-36.687,-229.040,-322.490,-84.020
673,47501.953000,234.255,-30.680,-191.253,341.949,404.654,-52.465,813.960,-497.490,175.980
674,47502.4000,207.568,-42.750,-98.615,350.443,391.255,-91.971,2604.960,-51.490,840.980
675,47502.31000,181.869,78.963,-137.463,365.699,373.413,-115.871,2658.960,295.510,1141.980
676,47502.71000,179.892,77.957,-132.482,384.715,343.116,-134.155,1557.960,266.510,1236.980
677,47502.111000,181.869,46.774,-150.412,404.662,307.198,-143.736,1474.960,416.510,1312.980
678,47502.131000,172.973,45.768,-148.420,423.604,268.272,-157.309,2167.960,612.510,1287.980
679,47502.173000,170.996,96.063,-153.401,442.596,233.336,-165.889,2466.960,867.510,1183.980
680,47502.225000,185.822,159.434,-119.533,452.011,206.290,-164.509,1442.960,774.510,952.980
681,47502.248000,228.324,99.081,-92.638,460.611,193.904,-157.901,581.960,515.510,570.980
682,47502.300000,214.486,12.574,-156.389,467.281,182.428,-153.238,569.960,441.510,317.980
683,47502.334000,255.012,301.265,-11.953,467.212,174.725,-150.467,794.960,655.510,-340.020
684,47502.373000,446.764,40.739,19.922,467.295,182.557,-147.351,-336.040,34.510,-198.020
685,47502.415000,445.776,76.951,82.677,467.269,179.666,-146.435,395.960,225.510,-117.020
686,47502.451000,375.598,117.187,74.708,472.211,188.645,-137.399,-1184.040,-200.490,123.980
687,47502.471000,315.305,98.075,-16.934,470.292,188.777,-130.536,-1306.040,-313.490,136.980
688,47502.513000,232.278,128.251,-63.751,468.376,190.700,-130.497,-642.040,-237.490,-231.020
689,47502.554000,146.286,75.945,-127.502,465.617,204.372,-125.296,-449.040,-54.490,-381.020
690,47502.594000,169.019,92.039,-188.265,462.863,219.856,-125.939,-866.040,-358.490,-477.020
691,47502.634000,141.344,66.892,-106.584,456.297,239.380,-117.674,-1887.040,-538.490,-685.020
692,47502.674000,144.309,53.815,-95.626,444.011,264.931,-97.519,-2346.040,-123.490,-922.020
693,47502.710000,196.695,-10.562,-120.529,441.398,289.692,-73.440,-1843.040,179.510,-942.020
694,47502.751000,232.278,-19.615,-173.323,428.088,311.178,-61.223,-380.040,341.510,-1030.020
695,47502.778000,245.127,-0.503,-161.370,410.854,330.339,-64.756,-47.040,184.510,-1109.020
696,47502.813000,260.942,-100.086,-77.696,402.260,341.905,-64.518,183.960,129.510,-922.020
697,47502.853000,263.907,-39.733,-54.786,390.776,356.203,-71.089,546.960,286.510,-667.020
698,47502.893000,351.876,-106.122,25.899,382.042,354.091,-75.077,219.960,255.510,-450.020
699,47502.933000,328.154,-131.269,35.860,384.056,361.035,-69.035,174.960,490.510,249.980
700,47502.973000,369.668,-39.733,-48.809,395.612,353.597,-59.369,-55.040,242.510,605.980
701,47503.13000,295.537,-23.639,-31.875,404.278,348.008,-52.610,-1570.040,-582.490,885.980
702,47503.54000,299.490,-55.827,-75.704,417.644,327.061,-40.298,-1519.040,-878.490,1224.980
703,47503.95000,286.641,-80.974,21.914,434.718,294.027,-49.821,797.960,-371.490,1506.980
704,47503.110000,249.081,99.081,32.872,456.680,266.822,-61.166,1553.960,361.510,1489.980
705,47503.153000,242.162,95.057,28.887,469.034,241.918,-51.886,434.960,751.510,979.980
706,47503.195000,262.919,65.886,-9.961,475.719,228.824,-32.550,767.960,944.510,603.980
707,47503.231000,204.602,96.063,-163.362,480.421,213.488,-26.016,728.960,380.510,232.980
708,47503.283000,252.046,264.047,-72.716,483.352,217.313,-29.847,275.960,-222.490,-271.020
709,47503.309000,246.116,170.499,-59.767,478.559,224.731,-43.422,218.960,-461.490,-309.020
710,47503.349000,209.544,169.493,-168.342,473.821,238.837,-61.751,229.960,-678.490,-412.020
711,47503.394000,180.880,236.888,-92.638,467.098,248.048,-81.174,-447.040,-989.490,-522.020
712,47503.414000,170.996,211.741,-85.665,456.598,263.392,-84.779,-2858.040,-1379.490,-695.020
713,47503.454000,161.112,196.652,-60.763,436.603,294.456,-75.305,-3200.040,-1109.490,-1001.020
714,47503.499000,189.776,132.275,-90.646,418.659,337.211,-64.587,-2069.040,-484.490,-1403.020
715,47503.535000,223.382,87.010,-109.572,402.368,351.743,-58.415,-1047.040,-92.490,-1423.020
716,47503.581000,294.548,2.515,-111.564,383.314,379.040,-44.120,-1060.040,314.510,-1211.020
717,47503.619000,329.143,-102.098,-121.525,367.142,403.518,-26.940,-1039.040,311.510,-1096.020
718,47503.654000,260.942,-213.752,-135.471,354.638,411.141,-27.778,631.960,146.510,-354.020
719,47503.699000,200.649,-220.794,-246.039,359.342,404.630,-61.255,1117.960,-522.490,690.980
720,47503.735000,396.355,136.299,-46.817,388.124,381.461,-68.573,-563.040,-1021.490,1383.980
721,47503.766000,322.224,56.833,-100.607,389.934,368.837,-69.830,-345.040,-885.490,736.980
722,47503.795000,197.683,108.134,-131.486,408.035,346.082,-97.755,1071.960,-311.490,858.980
723,47503.835000,211.521,42.750,-142.444,415.615,330.537,-102.007,-275.040,-211.490,822.980
724,47503.898000,264.896,59.851,-110.568,426.129,317.092,-100.322,17.960,126.510,735.980
725,47503.914000,241.174,70.916,-106.584,440.522,302.886,-90.800,-154.040,359.510,679.980
726,47503.959000,235.243,57.839,-97.619,449.197,296.499,-76.214,-583.040,371.510,649.980
727,47503.993000,244.139,29.674,-82.677,456.859,284.384,-56.853,-643.040,365.510,434.980
728,47504.44000,223.382,28.668,-69.728,456.895,285.614,-45.058,-441.040,390.510,390.980
729,47504.69000,212.510,43.756,-51.798,464.602,279.217,-30.474,-718.040,181.510,417.980
730,47504.105000,235.243,19.615,-32.872,468.412,270.754,-19.867,-825.040,-39.490,444.980
731,47504.148000,232.278,16.597,-9.961,473.122,257.252,-18.195,-358.040,-258.490,282.980
732,47504.170000,243.151,33.697,-61.759,475.983,256.008,-31.946,-48.040,-604.490,191.980
733,47504.214000,253.035,33.697,-86.661,473.911,244.986,-46.905,-84.040,-610.490,168.980
734,47504.258000,229.313,16.597,-125.510,474.926,251.619,-54.601,-42.040,-320.490,97.980
735,47504.295000,225.359,16.597,-125.510,475.823,244.789,-56.712,217.960,29.510,4.980
736,47504.335000,244.139,15.591,-98.615,476.863,251.659,-53.615,414.960,345.510,-98.020
737,47504.380000,256.000,27.662,-80.685,475.950,256.569,-50.566,643.960,447.510,-201.020
738,47504.405000,242.162,50.798,-66.739,474.958,252.805,-44.768,665.960,452.510,-250.020
739,47504.436000,242.162,29.674,-44.825,472.106,258.538,-47.588,693.960,381.510,-220.020
740,47504.471000,249.081,23.639,-51.798,467.372,269.170,-47.362,948.960,286.510,-194.020
741,47504.510000,236.232,38.727,-49.805,464.445,268.020,-54.259,763.960,141.510,-193.020
742,47504.550000,243.151,36.715,-55.782,466.364,267.888,-61.122,402.960,-41.490,-216.020
743,47504.608000,241.174,34.703,-70.724,462.549,274.538,-65.886,204.960,-150.490,-222.020
744,47504.635000,239.197,48.786,-71.720,460.589,273.397,-72.780,55.960,-184.490,-202.020
745,47504.670000,239.197,34.703,-81.681,457.807,285.969,-73.488,-43.040,-159.490,-190.020
746,47504.690000,234.255,48.786,-94.630,454.922,288.745,-78.335,33.960,-32.490,-210.020
747,47504.730000,250.069,43.756,-95.626,454.008,293.655,-75.286,57.960,170.510,-204.020
748,47504.775000,244.139,44.762,-90.646,450.159,294.696,-70.368,-14.040,314.510,-198.020
749,47504.813000,246.116,55.827,-71.720,447.270,293.912,-60.585,-17.040,402.510,-182.020
750,47504.859000,242.162,62.868,-57.774,445.414,299.934,-50.648,-60.040,416.510,-177.020
751,47504.906000,234.255,40.739,-52.794,443.567,306.927,-40.691,-217.040,351.510,-196.020
752,47504.934000,239.197,56.833,-43.829,442.681,312.980,-29.771,-124.040,355.510,-258.020
753,47504.974000,242.162,46.774,-39.844,433.036,313.166,-17.038,-172.040,275.510,-331.020
754,47505.14000,245.127,52.809,-48.809,428.330,325.827,-12.845,-181.040,225.510,-405.020
755,47505.34000,245.127,47.780,-43.829,421.619,330.745,-6.866,-186.040,236.510,-493.020
756,47505.75000,238.208,70.916,-24.903,415.995,347.387,2.318,-86.040,215.510,-620.020
757,47505.116000,241.174,40.739,-14.942,401.638,362.822,4.592,-10.040,95.510,-769.020
758,47505.158000,255.012,70.916,-18.926,387.273,378.172,2.941,-9.040,-74.490,-996.020
759,47505.193000,298.502,49.792,-37.852,368.036,390.496,-1.730,50.960,-136.490,-984.020
760,47505.236000,328.154,51.804,-34.864,347.953,414.549,-2.219,176.960,24.510,-1066.020
761,47505.276000,356.819,2.515,-38.848,330.706,430.948,1.051,-45.040,40.510,-1210.020
762,47505.315000,296.525,9.556,-118.537,320.179,440.747,10.072,-821.040,-446.490,-299.020
763,47505.336000,283.676,-19.615,-255.004,321.103,435.061,15.832,-587.040,-1032.490,35.980
764,47505.378000,302.456,-170.499,-134.475,321.955,433.086,-30.301,2290.960,-807.490,175.980
765,47505.413000,225.359,80.974,-96.623,338.851,394.831,-100.742,3856.960,116.510,1068.980
766,47505.451000,203.614,92.039,-98.615,359.885,374.154,-123.712,1518.960,13.510,1389.980
767,47505.493000,174.950,35.709,-150.412,387.691,348.258,-122.266,718.960,257.510,1469.980
768,47505.533000,176.927,35.709,-164.358,404.891,327.004,-125.644,1799.960,653.510,1578.980
769,47505.574000,150.239,106.122,-184.280,426.644,279.303,-142.348,3007.960,1014.510,1422.980
770,47505.614000,149.251,151.387,-193.245,448.493,238.679,-146.145,2374.960,969.510,1296.980
771,47505.654000,178.903,172.511,-150.412,460.816,210.840,-137.911,763.960,691.510,1091.980
772,47505.675000,226.347,197.658,-84.669,475.213,196.678,-126.427,-212.040,443.510,815.980
773,47505.714000,315.305,54.821,-125.510,477.976,180.395,-117.957,-667.040,170.510,562.980
774,47505.760000,341.992,230.853,17.930,481.880,183.410,-114.940,130.960,246.510,49.980
775,47505.793000,373.622,144.346,78.693,477.956,177.569,-114.097,-290.040,-102.490,-12.020
776,47505.834000,357.807,141.328,12.949,474.174,187.175,-116.834,-261.040,-275.490,-247.020
777,47505.874000,312.340,132.275,-43.829,474.293,200.638,-122.419,-279.040,-439.490,-411.020
778,47505.914000,225.359,81.980,-88.654,466.650,210.293,-121.240,-1040.040,-412.490,-244.020
779,47505.954000,197.683,169.493,-73.712,461.923,220.990,-118.070,-1277.040,-378.490,-330.020
780,47505.974000,183.846,122.216,-82.677,454.455,244.646,-97.948,-2158.040,-219.490,-590.020
781,47506.14000,179.892,95.057,-98.615,447.811,255.497,-86.934,-1870.040,46.510,-860.020
782,47506.59000,175.938,98.075,-133.479,442.304,282.064,-67.723,-1056.040,387.510,-1183.020
783,47506.98000,196.695,95.057,-163.362,425.216,312.315,-52.378,-922.040,412.510,-1440.020
784,47506.131000,226.347,79.969,-153.401,405.237,343.529,-36.036,-769.040,342.510,-1623.020
785,47506.171000,259.954,42.750,-125.510,379.405,371.581,-28.603,-626.040,275.510,-1644.020
786,47506.218000,257.977,2.515,-123.518,353.557,397.712,-20.233,-334.040,220.510,-1548.020
787,47506.258000,219.429,22.633,-139.455,329.610,423.539,-26.574,358.960,229.510,-1284.020
788,47506.296000,279.722,-62.868,-27.891,318.088,433.954,-33.232,561.960,318.510,-1030.020
789,47506.316000,347.923,-114.169,57.774,308.433,440.203,-53.708,1542.960,1026.510,-301.020
790,47506.356000,405.251,38.727,-55.782,309.362,436.329,-53.792,-16.040,199.510,181.980
791,47506.396000,376.587,-6.538,-3.984,321.965,434.057,-30.280,-1633.040,-615.490,607.980
792,47506.438000,367.691,5.532,11.953,334.511,426.844,-10.800,-1495.040,-820.490,525.980
793,47506.474000,297.514,30.680,-50.802,339.285,416.600,6.634,-1344.040,-802.490,297.980
794,47506.515000,219.429,-23.639,-150.412,344.060,409.009,12.360,-871.040,-670.490,269.980
795,47506.555000,220.417,-3.521,-222.132,346.926,407.808,0.571,1623.960,-427.490,290.980
796,47506.595000,216.463,-92.039,-115.549,355.366,392.122,-54.676,3475.960,0.510,873.980
797,47506.635000,206.579,41.745,-137.463,377.193,359.222,-104.393,3774.960,624.510,1224.980
798,47506.654000,179.892,109.139,-147.424,402.003,327.989,-123.667,1852.960,733.510,1407.980
799,47506.696000,198.672,71.921,-107.580,421.958,290.388,-121.517,1172.960,783.510,1516.980
800,47506.733000,218.440,180.558,-87.658,442.986,261.729,-110.341,1836.960,1233.510,1229.980
801,47506.778000,213.498,265.053,-109.572,451.464,237.606,-107.917,1735.960,1225.510,774.980
802,47506.814000,213.498,189.611,-198.226,464.023,234.040,-99.144,499.960,418.510,495.980
803,47506.854000,293.560,322.389,-57.774,464.915,227.167,-103.217,548.960,161.510,-214.020
804,47506.895000,302.456,159.434,17.930,459.182,234.834,-105.020,390.960,-5.490,-616.020
805,47506.935000,253.035,183.576,-66.739,448.597,242.325,-112.722,899.960,-32.490,-520.020
806,47506.955000,221.405,173.517,-150.412,443.879,256.625,-122.221,-249.040,-508.490,-409.020
807,47506.995000,184.834,174.523,-114.553,434.355,272.064,-121.898,-1264.040,-764.490,-556.020
808,47507.48000,169.019,128.251,-152.405,426.727,284.502,-126.541,-1842.040,-995.490,-652.020
809,47507.78000,146.286,148.369,-165.354,408.596,310.493,-127.964,-1841.040,-1199.490,-874.020
810,47507.118000,164.077,117.187,-155.393,392.345,330.700,-128.530,-1856.040,-1256.490,-988.020
811,47507.158000,191.753,91.033,-135.471,370.419,364.420,-129.789,-1754.040,-1052.490,-978.020
812,47507.198000,218.440,94.051,-131.486,355.173,385.865,-118.558,-2067.040,-932.490,-837.020
813,47507.246000,253.035,43.756,-116.545,339.974,409.533,-94.529,-2282.040,-606.490,-669.020
814,47507.275000,267.861,6.538,-82.677,326.531,414.773,-70.905,-1726.040,-250.490,-558.020
815,47507.295000,284.664,-18.609,-66.739,323.787,428.596,-58.836,-992.040,227.510,-285.020
816,47507.345000,277.745,-48.786,-87.658,318.967,426.952,-43.192,-549.040,343.510,-9.020
817,47507.376000,270.826,-86.004,-57.774,330.624,432.804,-46.961,458.960,291.510,337.980
818,47507.415000,266.873,-9.556,-144.436,339.182,421.778,-66.800,1031.960,-164.490,569.980
819,47507.456000,284.664,83.992,-64.747,355.361,395.595,-73.231,-271.040,-481.490,1078.980
820,47507.496000,326.178,128.251,-20.918,376.473,378.306,-74.551,-694.040,-657.490,1231.980
821,47507.536000,256.988,75.945,-113.556,388.930,368.482,-85.530,701.960,-449.490,1056.980
822,47507.576000,228.324,42.750,-124.514,405.161,348.966,-97.697,-218.040,-344.490,1086.980
823,47507.595000,233.266,41.745,-128.498,422.429,333.646,-96.040,-326.040,-116.490,895.980
824,47507.644000,262.919,54.821,-106.584,432.907,315.454,-89.557,-15.040,270.510,680.980
825,47507.674000,236.232,55.827,-94.630,438.631,305.046,-79.969,-511.040,293.510,614.980
826,47507.749000,247.104,43.756,-83.673,448.261,296.791,-62.480,-799.040,285.510,500.980
827,47507.766000,232.278,60.857,-67.735,456.991,293.575,-36.055,-1075.040,259.510,539.980
828,47507.795000,220.417,43.756,-41.837,460.763,281.229,-25.534,-1081.040,137.510,571.980
829,47507.836000,227.336,13.580,-7.969,471.347,272.854,-13.930,-942.040,-57.490,552.980
830,47507.878000,224.371,1.509,-7.969,476.054,259.330,-13.239,-525.040,-352.490,399.980
831,47507.918000,239.197,-2.515,-37.852,476.919,251.314,-25.183,-120.040,-648.490,219.980
832,47507.938000,230.301,25.650,-96.623,478.832,252.886,-42.796,175.960,-624.490,106.980
833,47507.978000,243.151,23.639,-118.537,477.831,252.553,-57.516,392.960,-279.490,32.980
834,47508.18000,240.185,23.639,-110.568,475.814,244.703,-60.636,413.960,-23.490,-13.020
835,47508.59000,250.069,24.644,-106.584,474.903,250.518,-60.509,525.960,302.510,-69.020
836,47508.96000,251.058,38.727,-100.607,473.891,244.792,-55.735,419.960,437.510,-93.020
837,47508.138000,243.151,47.780,-77.696,473.043,255.613,-48.632,274.960,487.510,-77.020
838,47508.178000,228.324,33.697,-62.755,472.067,252.885,-39.869,312.960,499.510,-46.020
839,47508.216000,239.197,12.574,-42.833,475.974,255.037,-31.967,642.960,501.510,-42.020
840,47508.238000,250.069,14.585,-34.864,473.076,255.052,-30.012,828.960,425.510,-58.020
841,47508.278000,251.058,8.550,-33.868,473.975,248.244,-31.142,715.960,263.510,-51.020
842,47508.328000,242.162,19.615,-38.848,471.099,251.991,-35.968,652.960,75.510,-126.020
843,47508.356000,254.023,24.644,-36.856,468.269,261.456,-45.570,615.960,-124.490,-248.020
844,47508.401000,241.174,7.544,-48.809,465.370,264.103,-56.305,529.960,-261.490,-355.020
845,47508.434000,245.127,18.609,-55.782,462.490,269.576,-70.900,574.960,-336.490,-439.020
846,47508.479000,233.266,54.821,-82.677,450.966,281.717,-87.326,535.960,-377.490,-425.020
847,47508.514000,236.232,83.992,-77.696,447.133,288.195,-99.938,217.960,-423.490,-325.020
848,47508.559000,234.255,79.969,-114.553,447.088,284.247,-102.968,-126.040,-197.490,-25.020
849,47508.579000,230.301,66.892,-94.630,449.098,292.033,-102.791,-228.040,20.510,147.980
850,47508.624000,234.255,58.845,-82.677,450.016,285.397,-96.072,-233.040,130.510,306.980
851,47508.654000,241.174,20.621,-71.720,452.849,276.839,-89.391,-312.040,101.510,321.980
852,47508.694000,248.093,29.674,-64.747,457.681,275.074,-83.536,-358.040,67.510,283.980
853,47508.736000,249.081,35.709,-84.669,464.421,270.436,-76.760,-450.040,11.510,249.980
854,47508.778000,249.081,45.768,-77.696,467.264,262.849,-70.058,-805.040,-16.490,283.980
855,47508.818000,235.243,23.639,-77.696,467.291,263.107,-58.284,-912.040,52.510,302.980
856,47508.858000,244.139,20.621,-72.716,468.238,258.521,-46.616,-840.040,115.510,277.980
857,47508.878000,247.104,21.627,-61.759,473.107,258.870,-32.869,-853.040,117.510,243.980
858,47508.915000,239.197,26.656,-46.817,476.938,252.371,-21.237,-857.040,46.510,223.980
859,47508.955000,230.301,6.538,-46.817,478.815,244.795,-13.556,-498.040,21.510,167.980
860,47508.996000,248.093,4.527,-49.805,480.733,242.894,-12.614,-231.040,-6.490,72.980
861,47509.39000,249.081,22.633,-68.732,479.839,249.745,-9.522,-63.040,18.510,-21.020
862,47509.79000,243.151,22.633,-57.774,478.786,240.998,-9.718,-173.040,122.510,-8.020
863,47509.119000,246.116,25.650,-71.720,476.957,250.796,-4.601,11.960,121.510,-106.020
864,47509.158000,250.069,29.674,-61.759,476.010,250.981,4.227,-94.040,281.510,-123.020
865,47509.210000,243.151,26.656,-49.805,475.054,251.079,9.131,7.960,246.510,-192.020
866,47509.218000,247.104,27.662,-44.825,470.322,260.848,14.241,134.960,212.510,-238.020
867,47509.264000,248.093,40.739,-45.821,468.486,270.581,16.414,127.960,200.510,-262.020
868,47509.300000,248.093,26.656,-33.868,462.676,269.597,18.341,187.960,150.510,-317.020
869,47509.336000,250.069,35.709,-44.825,459.804,272.503,19.381,217.960,115.510,-376.020
870,47509.376000,248.093,34.703,-43.829,456.067,286.942,15.771,161.960,99.510,-443.020
871,47509.416000,250.069,30.680,-48.809,444.547,295.610,17.900,287.960,161.510,-530.020
872,47509.456000,239.197,46.774,-44.825,436.947,310.076,17.224,241.960,183.510,-665.020
873,47509.496000,252.046,55.827,-39.844,426.510,331.309,16.693,173.960,166.510,-783.020
874,47509.538000,262.919,38.727,-10.957,414.075,345.750,16.987,217.960,80.510,-973.020
875,47509.556000,304.432,91.033,1.992,401.659,363.016,13.422,61.960,-74.490,-1047.020
876,47509.596000,394.378,-24.644,0.996,379.584,380.340,16.702,-147.040,-168.490,-1307.020
877,47509.635000,367.691,-184.582,-181.292,346.077,416.860,15.480,522.960,141.510,-1639.020
878,47509.678000,290.595,-178.546,-229.105,335.522,429.032,0.038,1091.960,54.510,-584.020
879,47509.718000,232.278,41.745,-282.895,337.384,425.707,-19.645,802.960,-598.490,281.980
880,47509.759000,236.232,-33.697,-126.506,344.846,403.755,-50.517,1450.960,-635.490,632.980
881,47509.798000,184.834,-14.585,-133.479,364.821,378.667,-97.123,3098.960,89.510,1388.980
882,47509.841000,160.124,112.157,-172.327,381.896,349.172,-122.258,2913.960,360.510,1614.980
883,47509.855000,165.066,129.257,-155.393,406.608,306.440,-134.923,1201.960,311.510,1642.980
884,47509.908000,156.170,100.086,-172.327,428.546,275.481,-140.467,1170.960,337.510,1577.980
885,47509.935000,165.066,116.181,-177.307,443.660,239.559,-148.097,1888.960,414.510,1451.980
886,47509.975000,205.591,222.806,-116.545,456.847,203.683,-152.788,1261.960,452.510,1192.980
887,47510.16000,242.162,229.847,-32.872,462.459,181.647,-142.478,219.960,324.510,751.980
888,47510.55000,276.757,235.882,-39.844,464.458,188.440,-143.304,-368.040,208.510,160.980
889,47510.101000,340.015,199.670,67.735,467.375,190.367,-145.216,301.960,-116.490,-201.020
890,47510.141000,371.645,83.992,-24.903,458.727,197.014,-148.029,526.960,-52.490,-560.020
891,47510.184000,338.039,87.010,-58.770,451.973,201.522,-160.692,487.960,-451.490,-525.020
892,47510.199000,291.583,93.045,-45.821,444.321,211.975,-167.341,-540.040,-453.490,-235.020
893,47510.240000,232.278,154.405,-44.825,445.438,225.749,-159.187,-1549.040,-320.490,-121.020
894,47510.276000,199.660,134.287,-45.821,447.569,240.848,-135.312,-2247.040,-15.490,-279.020
895,47510.319000,182.857,124.228,-80.685,443.884,256.668,-120.258,-1768.040,298.510,-457.020
896,47510.360000,173.961,155.411,-140.451,438.258,269.772,-95.463,-1271.040,499.510,-843.020
897,47510.400000,195.707,130.263,-160.374,432.803,299.488,-65.395,-1529.040,473.510,-1204.020
898,47510.440000,202.625,94.051,-163.362,417.675,329.995,-39.252,-1369.040,489.510,-1448.020
899,47510.493000,217.452,81.980,-149.416,392.878,363.104,-22.879,-919.040,504.510,-1597.020
900,47510.500000,226.347,36.715,-143.440,366.056,386.529,-4.764,-637.040,500.510,-1608.020
901,47510.540000,248.093,-11.568,-99.611,339.297,419.361,-0.169,229.960,715.510,-1569.020
902,47510.580000,223.382,-2.515,-135.471,320.011,427.695,-9.831,1163.960,948.510,-1452.020
903,47510.619000,327.166,-170.499,34.864,300.775,443.558,-30.113,1973.960,1096.510,-678.020
904,47510.659000,416.124,77.957,-59.767,296.854,443.909,-56.592,1706.960,1238.510,-1.020
905,47510.700000,327.166,71.921,2.988,312.272,432.905,-34.248,-1729.040,-185.490,719.980
906,47510.741000,331.120,-5.532,54.786,319.081,430.684,-5.844,-1726.040,-592.490,398.980
907,47510.781000,348.911,51.804,26.895,322.908,426.795,-7.884,-500.040,-559.490,140.980
908,47510.821000,335.073,-34.703,-42.833,325.832,424.385,13.644,-1680.040,-1036.490,162.980
909,47510.841000,290.595,-75.945,-142.444,330.707,429.201,9.838,-791.040,-1168.490,226.980
910,47510.876000,287.629,-35.709,-116.545,334.415,418.883,-19.803,1559.960,-937.490,448.980
911,47510.918000,188.788,-26.656,-79.689,345.684,395.480,-74.235,3128.960,-333.490,1088.980
912,47510.960000,182.857,32.692,-83.673,373.232,354.783,-128.036,3490.960,662.510,1614.980
913,47511.0,198.672,177.540,-61.759,401.781,309.133,-142.718,2514.960,1152.510,1630.980
914,47511.36000,225.359,216.770,-93.634,431.494,276.826,-124.740,1045.960,1358.510,1215.980
915,47511.76000,226.347,237.894,-151.409,444.989,269.450,-113.108,837.960,1161.510,877.980
916,47511.116000,196.695,308.306,-202.210,452.554,250.237,-107.634,515.960,206.510,499.980
917,47511.140000,210.533,324.401,-149.416,452.540,250.108,-113.521,-134.040,-474.490,55.980
918,47511.185000,190.764,280.141,-147.424,446.822,262.327,-128.952,-742.040,-846.490,-584.020
919,47511.220000,177.915,269.077,-139.455,428.593,280.336,-140.359,-1315.040,-1131.490,-854.020
920,47511.260000,172.973,225.823,-107.580,409.483,305.325,-142.787,-1809.040,-1152.490,-981.020
921,47511.300000,192.741,194.640,-103.595,386.636,343.006,-140.037,-2069.040,-1012.490,-1190.020
922,47511.345000,210.533,140.322,-111.564,369.386,358.499,-133.846,-1849.040,-818.490,-1220.020
923,47511.380000,230.301,99.081,-114.553,344.561,388.696,-117.537,-1773.040,-520.490,-1107.020
924,47511.419000,252.046,55.827,-101.603,329.318,408.415,-96.538,-1827.040,-231.490,-912.020
925,47511.460000,287.629,-28.668,-90.646,318.918,426.477,-64.778,-1912.040,95.510,-585.020
926,47511.480000,267.861,-64.880,-150.412,312.292,436.616,-42.011,-972.040,224.510,-323.020
927,47511.520000,262.919,-164.464,-108.576,316.198,443.169,-54.606,1212.960,208.510,-35.020
928,47511.561000,228.324,-29.674,-182.288,323.725,428.876,-90.211,1854.960,-1.490,451.980
929,47511.601000,298.502,-4.527,-71.720,339.098,418.326,-91.394,-1251.040,-887.490,1520.980
930,47511.640000,322.224,153.399,-49.805,363.046,394.269,-92.858,-380.040,-618.490,1295.980
931,47511.684000,262.919,74.939,-108.576,377.319,372.749,-107.035,505.960,-355.490,1049.980
932,47511.719000,225.359,58.845,-109.572,395.564,359.293,-109.256,-492.040,-332.490,1051.980
933,47511.759000,235.243,19.615,-125.510,409.943,344.958,-105.622,-320.040,-119.490,848.980
934,47511.779000,246.116,89.022,-102.599,423.345,329.642,-102.011,24.960,239.510,678.980
935,47511.825000,242.162,56.833,-87.658,429.104,323.097,-93.318,-381.040,203.510,621.980
936,47511.860000,233.266,40.739,-84.669,434.792,307.943,-78.932,-584.040,182.510,506.980
937,47511.906000,247.104,67.898,-73.712,443.441,300.433,-71.235,-537.040,209.510,455.980
938,47511.946000,223.382,47.780,-63.751,450.226,298.860,-57.527,-751.040,83.510,448.980
939,47511.981000,225.359,52.809,-59.767,456.000,292.465,-41.966,-742.040,14.510,464.980
940,47512.21000,201.637,41.745,-54.786,462.635,277.127,-36.409,-755.040,-163.490,391.980
941,47512.59000,207.568,-9.556,-24.903,463.541,270.383,-34.595,-684.040,-389.490,346.980
942,47512.100000,230.301,19.615,-70.724,466.458,272.310,-36.507,-408.040,-469.490,240.980
943,47512.120000,234.255,36.715,-98.615,462.488,264.268,-47.482,-14.040,-299.490,126.980
944,47512.160000,259.954,48.786,-117.541,468.272,263.246,-52.395,-52.040,-81.490,96.980
945,47512.200000,257.977,41.745,-86.661,469.323,270.224,-44.393,51.960,272.510,43.980
946,47512.246000,260.942,46.774,-86.661,470.170,255.865,-35.884,50.960,367.510,-19.020
947,47512.281000,246.116,51.804,-88.654,465.445,265.699,-27.830,-200.040,454.510,-18.020
948,47512.323000,225.359,26.656,-52.794,469.400,271.842,-14.937,-175.040,408.510,-50.020
949,47512.358000,226.347,29.674,-46.817,467.483,271.996,-7.092,156.960,356.510,-116.020
950,47512.404000,234.255,32.692,-42.833,466.556,275.892,-6.027,408.960,292.510,-149.020
951,47512.444000,246.116,44.762,-47.813,464.611,274.902,-6.053,549.960,228.510,-196.020
952,47512.469000,261.931,56.833,-55.782,459.831,280.680,-5.935,441.960,198.510,-213.020
953,47512.500000,248.093,40.739,-60.763,458.908,285.503,-6.811,313.960,206.510,-234.020
954,47512.540000,242.162,47.780,-70.724,455.165,297.245,-0.674,225.960,293.510,-284.020
955,47512.580000,240.185,43.756,-62.755,452.296,300.173,1.346,292.960,440.510,-303.020
956,47512.618000,246.116,59.851,-42.833,445.600,306.126,10.290,176.960,531.510,-283.020
957,47512.660000,247.104,52.809,-32.872,438.877,310.051,15.267,205.960,501.510,-337.020
958,47512.700000,247.104,49.792,-26.895,431.271,321.820,24.338,52.960,445.510,-444.020
959,47512.740000,253.035,46.774,-17.930,418.834,333.607,36.341,35.960,409.510,-563.020
960,47512.760000,248.093,-2.515,19.922,413.182,348.221,41.557,107.960,328.510,-686.020
961,47512.800000,245.127,28.668,12.949,397.789,358.577,33.909,726.960,206.510,-829.020
962,47512.840000,297.514,65.886,-19.922,384.345,370.851,24.347,811.960,17.510,-872.020
963,47512.880000,304.432,87.010,-50.802,370.905,383.168,16.746,212.960,27.510,-790.020
964,47512.920000,268.849,25.650,-108.576,366.200,395.828,20.940,-268.040,-242.490,-358.020
965,47512.961000,212.510,113.163,-113.556,369.995,386.351,29.564,-1207.040,-728.490,373.980
966,47513.1000,228.324,-29.674,-82.677,373.778,377.630,28.397,-558.040,-937.490,359.980
967,47513.41000,180.880,115.175,-49.805,370.767,375.681,-14.801,2860.960,-86.490,-4.020
968,47513.81000,174.950,184.582,-40.840,367.761,373.776,-56.038,2647.960,109.510,-100.020
969,47513.101000,166.054,140.322,-67.735,367.756,376.365,-70.690,1191.960,105.510,38.980
970,47513.141000,209.544,89.022,-58.770,369.628,372.263,-81.565,998.960,275.510,118.980
971,47513.181000,208.556,138.310,-65.743,371.501,368.162,-92.439,949.960,450.510,245.980
972,47513.221000,231.290,115.175,-69.728,377.133,350.721,-93.795,444.960,391.510,429.980
973,47513.261000,245.127,117.187,-64.747,385.800,346.901,-94.842,513.960,390.510,369.980
974,47513.303000,252.046,128.251,-58.770,388.674,343.132,-90.997,425.960,360.510,255.980
975,47513.343000,232.278,190.617,-42.833,385.821,347.095,-86.012,-227.040,102.510,-197.020
976,47513.384000,223.382,120.204,-23.907,384.895,351.012,-83.965,-305.040,-151.490,-14.020
977,47513.404000,234.255,123.222,-38.848,383.949,352.081,-79.040,-574.040,-267.490,31.980
978,47513.444000,238.208,86.004,-50.802,379.170,356.996,-74.038,-825.040,-327.490,-16.020
979,47513.485000,235.243,93.045,-51.798,377.203,352.274,-67.282,-677.040,-289.490,-30.020
980,47513.520000,222.394,93.045,-62.755,375.346,359.159,-62.230,-399.040,-176.490,-124.020
981,47513.563000,220.417,93.045,-59.767,377.309,362.091,-62.161,-262.040,-80.490,-87.020
982,47513.599000,219.429,93.045,-60.763,376.353,363.074,-61.160,-238.040,0.510,-106.020
983,47513.639000,218.440,87.010,-66.739,373.417,358.321,-55.388,-274.040,13.510,-107.020
984,47513.683000,229.313,87.010,-61.759,369.606,363.245,-50.384,-225.040,19.510,-112.020
985,47513.723000,233.266,82.986,-66.739,372.595,371.148,-45.299,-198.040,39.510,-99.020
986,47513.740000,231.290,73.933,-63.751,366.804,372.106,-43.328,-249.040,41.510,-41.020
987,47513.783000,236.232,67.898,-61.759,369.656,365.489,-36.604,-374.040,-10.490,12.980
988,47513.824000,239.197,60.857,-52.794,368.704,365.630,-29.739,-523.040,-78.490,101.980
989,47513.859000,242.162,58.845,-27.891,368.722,365.803,-21.890,-727.040,-50.490,213.980
990,47513.906000,239.197,73.933,-24.903,373.577,364.253,-6.223,-823.040,48.510,277.980
991,47513.941000,243.151,76.951,-22.911,376.450,359.600,1.525,-394.040,59.510,178.980
992,47513.980000,235.243,75.945,-29.883,378.392,359.683,4.473,96.960,126.510,119.980
993,47514.21000,236.232,105.116,-24.903,382.196,353.810,0.428,46.960,35.510,74.980
994,47514.65000,257.977,51.804,-36.856,382.229,356.765,2.455,-73.040,-6.490,217.980
995,47514.80000,249.081,69.910,-32.872,388.885,345.160,1.231,138.960,23.510,127.980
996,47514.123000,235.243,81.980,-44.825,385.081,351.918,1.373,170.960,-1.490,146.980
997,47514.165000,238.208,77.957,-41.837,385.986,346.922,-5.601,261.960,7.510,145.980
998,47514.205000,241.174,69.910,-43.829,391.755,343.117,-4.693,242.960,45.510,164.980
999,47514.245000,242.162,74.939,-43.829,393.580,333.276,-11.772,211.960,49.510,153.980
1000,47514.281000,240.185,68.904,-45.821,394.609,340.038,-13.581,215.960,60.510,163.980
1001,47514.321000,243.151,72.927,-44.825,399.422,337.216,-11.672,184.960,73.510,163.980
1002,47514.365000,241.174,68.904,-39.844,404.227,334.307,-13.688,107.960,60.510,172.980
1003,47514.381000,243.151,62.868,-34.864,405.178,332.397,-12.748,98.960,35.510,165.980
1004,47514.421000,241.174,59.851,-37.852,407.028,323.678,-12.937,99.960,-2.490,152.980
1005,47514.461000,245.127,59.851,-37.852,409.954,326.575,-14.828,109.960,-19.490,135.980
1006,47514.501000,244.139,58.845,-41.837,407.916,316.762,-18.973,85.960,-37.490,126.980
1007,47514.541000,244.139,51.804,-39.844,411.798,318.676,-21.864,97.960,-49.490,117.980
1008,47514.580000,247.104,53.815,-40.840,414.707,319.654,-22.817,131.960,-53.490,93.980
1009,47514.621000,243.151,51.804,-41.837,411.690,308.838,-27.967,139.960,-69.490,74.980
1010,47514.663000,242.162,48.786,-40.840,414.595,309.773,-30.882,149.960,-88.490,54.980
1011,47514.703000,243.151,49.792,-43.829,413.630,310.669,-33.806,154.960,-104.490,26.980
1012,47514.723000,241.174,50.798,-47.813,413.657,314.445,-38.625,154.960,-111.490,13.980
1013,47514.761000,244.139,52.809,-51.798,415.559,312.393,-44.551,128.960,-110.490,5.980
1014,47514.801000,242.162,54.821,-53.790,413.568,307.433,-48.588,103.960,-89.490,9.980
1015,47514.845000,243.151,54.821,-54.786,413.547,305.470,-49.612,67.960,-59.490,18.980
1016,47514.884000,244.139,52.809,-54.786,414.555,310.269,-52.445,62.960,-38.490,24.980
1017,47514.925000,244.139,49.792,-51.798,413.573,309.246,-54.432,47.960,-35.490,17.980
1018,47514.965000,243.151,49.792,-50.802,414.560,311.197,-54.386,35.960,-45.490,7.980
1019,47515.5000,241.174,49.792,-48.809,417.413,306.349,-55.468,5.960,-58.490,-7.020
1020,47515.24000,241.174,49.792,-52.794,412.578,307.208,-58.402,3.960,-72.490,-19.020
1021,47515.60000,241.174,49.792,-54.786,411.663,312.981,-60.237,-6.040,-84.490,-29.020
1022,47515.100000,244.139,50.798,-53.790,411.684,314.944,-59.212,-26.040,-103.490,-45.020
1023,47515.140000,243.151,52.809,-56.778,410.712,314.892,-61.177,-32.040,-118.490,-57.020
1024,47515.189000,240.185,52.809,-56.778,408.782,315.800,-63.122,-53.040,-125.490,-65.020
1025,47515.224000,241.174,53.815,-58.770,407.770,310.958,-62.251,-65.040,-121.490,-64.020
1026,47515.264000,239.197,56.833,-64.747,404.945,319.603,-65.007,-73.040,-102.490,-56.020
1027,47515.305000,241.174,56.833,-63.751,407.846,319.610,-65.982,-71.040,-71.490,-47.020
1028,47515.353000,238.208,59.851,-68.732,405.911,319.591,-65.986,-68.040,-17.490,-33.020
1029,47515.366000,238.208,59.851,-64.747,408.841,322.532,-65.915,-60.040,22.510,-23.020
1030,47515.406000,239.197,58.845,-64.747,407.826,316.783,-62.122,-44.040,63.510,-18.020
1031,47515.445000,239.197,57.839,-60.763,403.994,320.629,-62.044,-44.040,77.510,-17.020
1032,47515.484000,239.197,59.851,-58.770,409.815,321.721,-59.066,-45.040,82.510,-19.020
1033,47515.525000,237.220,59.851,-56.778,403.064,322.734,-54.154,-49.040,78.510,-18.020
1034,47515.565000,238.208,61.862,-53.790,403.030,318.894,-52.278,-55.040,74.510,-18.020
1035,47515.604000,237.220,60.857,-53.790,404.066,325.721,-51.144,-66.040,75.510,-16.020
1036,47515.648000,240.185,60.857,-55.782,404.099,328.677,-49.117,-71.040,81.510,-10.020
1037,47515.663000,242.162,61.862,-53.790,406.941,321.089,-42.415,-66.040,101.510,-5.020
1038,47515.703000,240.185,61.862,-52.794,407.982,328.844,-43.221,-67.040,111.510,0.980
1039,47515.743000,241.174,61.862,-50.802,406.946,321.132,-40.452,-75.040,119.510,5.980
1040,47515.783000,241.174,60.857,-45.821,406.009,323.172,-35.506,-80.040,121.510,9.980
1041,47515.825000,242.162,58.845,-45.821,408.955,327.149,-32.469,-75.040,121.510,5.980
1042,47515.868000,242.162,59.851,-42.833,404.123,327.145,-30.518,-64.040,108.510,-0.020
1043,47515.903000,243.151,58.845,-41.837,405.099,327.240,-26.591,-53.040,90.510,-10.020
1044,47515.946000,240.185,59.851,-42.833,406.062,326.322,-24.649,-40.040,62.510,-17.020
