Sample, Time, ACCX, ACCY, ACCZ, MAGX, MAGY, MAGZ, GYRX, GYRY, GYRZ
0,47103.470000,213.498,93.045,-110.568,434.097,326.401,-33.414,-470.040,-557.490,36.980
1,47103.486000,207.568,78.963,-112.560,433.160,328.441,-28.467,-508.040,-615.490,-36.020
2,47103.525000,210.533,78.963,-106.584,430.268,331.153,-36.258,-296.040,-646.490,-113.020
3,47103.558000,220.417,79.969,-88.654,430.231,329.039,-44.151,-25.040,-642.490,-178.020
4,47103.598000,221.405,81.980,-80.685,425.458,337.535,-52.798,166.960,-592.490,-215.020
5,47103.638000,233.266,73.933,-62.755,416.696,334.279,-64.657,132.960,-474.490,-208.020
6,47103.678000,250.069,51.804,-16.934,407.065,340.765,-74.340,106.960,-289.490,-144.020
7,47103.731000,256.988,48.786,0.996,409.970,340.815,-73.352,-94.040,57.510,78.980
8,47103.772000,291.583,-7.544,65.743,414.794,336.331,-58.731,-251.040,419.510,321.980
9,47103.798000,253.035,75.945,-62.755,419.616,333.595,-52.898,4.960,393.510,293.980
10,47103.818000,224.371,67.898,-45.821,420.467,320.164,-46.329,-196.040,148.510,217.980
11,47103.859000,247.104,43.756,-42.833,421.406,317.261,-46.392,65.960,131.510,231.980
12,47103.898000,245.127,62.868,-47.813,429.148,317.358,-45.393,192.960,97.510,174.980
13,47103.941000,252.046,61.862,-61.759,432.999,315.454,-45.427,191.960,65.510,156.980
14,47103.981000,251.058,52.809,-56.778,433.933,311.623,-43.549,213.960,192.510,187.980
15,47104.28000,248.093,57.839,-48.809,434.849,306.735,-45.617,199.960,203.510,162.980
16,47104.61000,251.058,45.768,-45.821,433.832,300.965,-42.805,-25.040,156.510,147.980
17,47104.98000,244.139,45.768,-37.852,437.748,304.972,-38.785,-13.040,139.510,108.980
18,47104.118000,240.185,44.762,-35.860,440.622,301.203,-34.940,-61.040,77.510,69.980
19,47104.159000,243.151,40.739,-35.860,440.605,298.398,-30.099,-91.040,57.510,51.980
20,47104.204000,250.069,33.697,-39.844,437.686,296.450,-29.168,5.960,54.510,0.980
21,47104.240000,250.069,33.697,-36.856,433.861,301.245,-30.050,60.960,42.510,-70.020
22,47104.280000,250.069,37.721,-38.848,436.747,300.238,-33.008,170.960,42.510,-145.020
23,47104.320000,248.093,52.809,-36.856,432.972,309.909,-32.801,117.960,22.510,-184.020
24,47104.372000,245.127,50.798,-25.899,430.112,313.807,-30.760,-17.040,-73.490,-220.020
25,47104.403000,241.174,42.750,-14.942,426.210,311.698,-36.699,-72.040,-270.490,-304.020
26,47104.438000,243.151,63.874,-19.922,420.505,324.047,-46.243,-96.040,-454.490,-372.020
27,47104.461000,256.000,78.963,-37.852,411.851,331.514,-55.902,-117.040,-687.490,-402.020
28,47104.501000,268.849,71.921,-44.825,408.023,338.919,-70.456,-44.040,-694.490,-353.020
29,47104.541000,241.174,100.086,-86.661,404.215,345.634,-72.276,-154.040,-438.490,-259.020
30,47104.583000,232.278,48.786,-32.872,401.258,340.687,-75.334,-121.040,-128.490,-154.020
31,47104.619000,237.220,45.768,-36.856,399.368,345.501,-76.212,615.960,518.510,-19.020
32,47104.659000,227.336,74.939,-64.747,406.182,348.609,-70.245,608.960,716.510,3.980
33,47104.699000,237.220,61.862,-76.700,410.993,344.881,-65.414,242.960,534.510,47.980
34,47104.739000,218.440,63.874,-99.611,413.855,340.119,-62.572,196.960,231.510,-5.020
35,47104.759000,208.556,74.939,-111.564,412.893,341.922,-68.418,226.960,-39.490,-41.020
36,47104.799000,230.301,72.927,-34.864,414.818,340.970,-68.435,-234.040,-223.490,-5.020
37,47104.844000,232.278,68.904,-57.774,409.964,339.003,-67.508,23.960,-55.490,41.980
38,47104.883000,225.359,84.998,-78.693,413.889,345.729,-72.254,150.960,6.510,51.980
39,47104.919000,225.359,81.980,-70.724,414.809,340.884,-72.359,45.960,26.510,60.980
40,47104.959000,239.197,59.851,-53.790,413.797,336.042,-71.488,92.960,135.510,90.980
41,47104.999000,249.081,69.910,-53.790,416.699,335.185,-67.578,191.960,201.510,117.980
42,47105.45000,246.116,79.969,-47.813,419.597,335.170,-69.534,1.960,137.510,127.980
43,47105.82000,243.151,64.880,-42.833,421.534,335.211,-68.548,67.960,104.510,134.980
44,47105.100000,243.151,60.857,-45.821,422.485,333.300,-67.608,126.960,75.510,120.980
45,47105.140000,242.162,61.862,-46.817,424.325,323.610,-67.819,100.960,42.510,104.980
46,47105.180000,241.174,56.833,-45.821,424.332,324.560,-68.779,123.960,30.510,98.980
47,47105.226000,241.174,66.892,-47.813,429.181,325.599,-67.765,95.960,40.510,94.980
48,47105.261000,242.162,58.845,-46.817,433.997,323.683,-68.778,69.960,42.510,106.980
49,47105.301000,241.174,60.857,-48.809,431.046,318.779,-69.874,49.960,50.510,102.980
50,47105.341000,241.174,56.833,-44.825,431.043,318.757,-70.855,19.960,65.510,107.980
51,47105.383000,242.162,53.815,-43.829,431.947,311.108,-66.119,16.960,70.510,107.980
52,47105.434000,243.151,50.798,-43.829,435.868,316.043,-64.040,13.960,64.510,95.980
53,47105.443000,243.151,50.798,-41.837,435.845,314.058,-66.046,13.960,54.510,70.980
54,47105.483000,244.139,47.780,-39.844,438.735,313.094,-67.042,-2.040,25.510,46.980
55,47105.523000,244.139,48.786,-36.856,434.788,304.383,-64.301,-0.040,-41.490,12.980
56,47105.563000,245.127,45.768,-38.848,435.798,309.204,-66.154,-10.040,-84.490,-18.020
57,47105.603000,243.151,48.786,-39.844,437.730,309.201,-67.130,-0.040,-127.490,-47.020
58,47105.643000,244.139,51.804,-43.829,434.800,307.145,-71.105,18.960,-141.490,-57.020
59,47105.683000,244.139,54.821,-48.809,431.983,316.739,-74.820,9.960,-148.490,-63.020
60,47105.723000,242.162,55.827,-48.809,431.922,310.870,-76.912,3.960,-156.490,-63.020
61,47105.741000,243.151,55.827,-51.798,429.053,315.567,-82.698,-13.040,-164.490,-65.020
62,47105.783000,242.162,57.839,-50.802,428.025,309.689,-84.792,-49.040,-181.490,-66.020
63,47105.823000,241.174,57.839,-54.786,427.187,323.250,-85.473,-42.040,-182.490,-64.020
64,47105.863000,240.185,58.845,-57.774,427.152,320.273,-88.481,-50.040,-169.490,-57.020
65,47105.903000,239.197,59.851,-59.767,422.327,322.103,-91.393,-57.040,-154.490,-52.020
66,47105.941000,240.185,59.851,-64.747,422.309,321.046,-95.339,-54.040,-118.490,-45.020
67,47105.981000,240.185,60.857,-62.755,423.342,327.851,-95.186,-49.040,-94.490,-42.020
68,47106.21000,237.220,60.857,-60.763,423.321,325.888,-96.210,-24.040,-75.490,-42.020
69,47106.68000,237.220,61.862,-62.755,418.455,322.928,-96.286,-16.040,-65.490,-46.020
70,47106.83000,236.232,60.857,-63.751,414.617,326.709,-99.152,-5.040,-62.490,-52.020
71,47106.121000,235.243,61.862,-62.755,420.459,330.649,-99.052,-0.040,-60.490,-56.020
72,47106.161000,237.220,62.868,-64.747,419.374,318.946,-101.276,4.960,-58.490,-55.020
73,47106.201000,238.208,64.880,-66.739,419.513,333.488,-101.933,-18.040,-39.490,-41.020
74,47106.243000,235.243,66.892,-69.728,417.576,332.563,-99.016,-42.040,-13.490,-21.020
75,47106.283000,236.232,66.892,-68.732,417.518,325.853,-95.242,-51.040,40.510,3.980
76,47106.321000,236.232,66.892,-71.720,417.589,333.577,-97.032,-58.040,85.510,21.980
77,47106.361000,239.197,65.886,-66.739,417.570,330.750,-93.172,-58.040,130.510,37.980
78,47106.381000,237.220,62.868,-57.774,418.544,330.825,-90.227,-33.040,140.510,40.980
79,47106.421000,238.208,60.857,-53.790,419.540,332.862,-86.257,-10.040,117.510,30.980
80,47106.463000,239.197,60.857,-50.802,420.427,325.061,-88.389,-21.040,81.510,19.980
81,47106.506000,236.232,63.874,-54.786,422.364,324.217,-83.501,-40.040,42.510,14.980
82,47106.541000,239.197,62.868,-56.778,421.469,331.069,-80.408,-35.040,43.510,17.980
83,47106.581000,238.208,63.874,-57.774,421.389,323.259,-82.543,-25.040,65.510,24.980
84,47106.621000,238.208,64.880,-61.759,422.413,328.209,-78.509,-42.040,118.510,41.980
85,47106.661000,237.220,62.868,-56.778,424.352,328.271,-76.542,-48.040,158.510,53.980
86,47106.708000,240.185,62.868,-52.794,423.358,324.486,-71.725,-25.040,200.510,66.980
87,47106.723000,241.174,63.874,-48.809,424.384,329.457,-66.709,-12.040,214.510,71.980
88,47106.763000,239.197,60.857,-43.829,428.230,325.741,-60.899,-35.040,211.510,86.980
89,47106.804000,241.174,57.839,-38.848,431.070,319.016,-59.081,-34.040,195.510,82.980
90,47106.840000,243.151,55.827,-39.844,432.087,323.017,-54.087,-31.040,158.510,73.980
91,47106.880000,244.139,52.809,-35.860,433.021,318.301,-48.306,-22.040,128.510,56.980
92,47106.924000,241.174,53.815,-33.868,430.121,318.295,-47.331,-18.040,78.510,38.980
93,47106.964000,244.139,53.815,-34.864,430.068,312.513,-45.498,-10.040,39.510,24.980
94,47107.4000,246.116,57.839,-37.852,432.046,317.343,-47.348,-13.040,13.510,12.980
95,47107.44000,245.127,56.833,-36.856,432.046,316.458,-43.445,-26.040,4.510,5.980
96,47107.64000,245.127,55.827,-37.852,433.044,319.402,-42.397,-18.040,9.510,2.980
97,47107.108000,244.139,57.839,-39.844,431.144,323.245,-43.297,11.960,20.510,2.980
98,47107.150000,245.127,58.845,-37.852,432.102,322.283,-43.316,13.960,22.510,0.980
99,47107.185000,244.139,57.839,-36.856,433.964,314.557,-42.503,10.960,10.510,-3.020
100,47107.223000,243.151,57.839,-35.860,431.074,316.406,-45.410,-1.040,-2.490,-6.020
101,47107.263000,245.127,58.845,-36.856,430.064,311.585,-43.558,3.960,-9.490,-6.020
102,47107.303000,243.151,57.839,-37.852,431.142,323.223,-44.278,-2.040,-13.490,-8.020
103,47107.343000,247.104,57.839,-33.868,433.039,319.359,-44.359,5.960,-11.490,-14.020
104,47107.363000,246.116,57.839,-34.864,435.002,322.290,-44.290,11.960,-22.490,-18.020
105,47107.403000,244.139,55.827,-33.868,433.067,322.271,-44.295,31.960,-41.490,-29.020
106,47107.443000,245.127,58.845,-35.860,433.990,318.332,-47.322,42.960,-47.490,-39.020
107,47107.483000,241.174,58.845,-38.848,430.182,325.048,-49.143,35.960,-54.490,-42.020
108,47107.523000,243.151,59.851,-39.844,430.149,321.207,-47.266,52.960,-53.490,-39.020
109,47107.563000,243.151,61.862,-39.844,427.256,323.034,-51.155,50.960,-52.490,-32.020
110,47107.601000,242.162,60.857,-39.844,427.226,320.100,-52.201,41.960,-52.490,-17.020
111,47107.643000,244.139,62.868,-41.837,427.250,323.854,-58.001,44.960,-49.490,-9.020
112,47107.684000,243.151,62.868,-43.829,427.205,319.022,-57.128,18.960,-37.490,1.980
113,47107.704000,242.162,63.874,-45.821,427.290,327.759,-56.934,-9.040,-18.490,12.980
114,47107.741000,243.151,61.862,-43.829,425.362,328.690,-57.898,-38.040,25.510,24.980
115,47107.781000,245.127,62.868,-44.825,430.121,320.064,-55.137,-41.040,59.510,36.980
116,47107.828000,243.151,62.868,-42.833,428.234,324.899,-55.034,-36.040,96.510,50.980
117,47107.863000,242.162,57.839,-35.860,432.079,321.183,-49.224,-22.040,101.510,58.980
118,47107.903000,244.139,57.839,-33.868,430.139,320.236,-47.288,10.960,87.510,56.980
119,47107.945000,244.139,58.845,-34.864,433.068,323.156,-48.198,8.960,59.510,47.980
120,47107.991000,244.139,59.851,-38.848,433.041,319.380,-43.378,-16.040,53.510,48.980
121,47108.6000,242.162,57.839,-36.856,432.999,315.454,-45.427,-44.040,55.510,56.980
122,47108.44000,245.127,55.827,-35.860,431.085,317.398,-44.407,-43.040,68.510,62.980
123,47108.84000,245.127,56.833,-32.872,434.934,314.588,-41.519,-45.040,73.510,70.980
124,47108.124000,245.127,55.827,-31.875,434.006,317.599,-36.551,-25.040,73.510,76.980
125,47108.164000,245.127,49.792,-29.883,433.977,314.686,-36.616,-2.040,51.510,63.980
126,47108.205000,246.116,47.780,-24.903,439.737,309.910,-35.729,19.960,20.510,45.980
127,47108.245000,247.104,49.792,-25.899,433.919,308.839,-37.726,57.960,-29.490,25.980
128,47108.285000,246.116,50.798,-26.895,435.905,314.640,-39.555,59.960,-59.490,11.980
129,47108.326000,246.116,48.786,-29.883,441.711,315.581,-43.444,70.960,-77.490,-3.020
130,47108.341000,244.139,53.815,-32.872,438.806,315.532,-44.432,79.960,-92.490,-11.020
131,47108.384000,247.104,50.798,-33.868,439.764,315.455,-48.355,63.960,-96.490,-15.020
132,47108.424000,244.139,52.809,-34.864,438.738,309.599,-49.467,45.960,-98.490,-19.020
133,47108.463000,245.127,52.809,-34.864,436.804,310.464,-53.375,18.960,-104.490,-19.020
134,47108.501000,244.139,53.815,-40.840,438.797,316.330,-52.260,24.960,-98.490,-15.020
135,47108.541000,242.162,58.845,-41.837,437.802,314.293,-56.230,3.960,-84.490,-7.020
136,47108.584000,244.139,54.821,-44.825,435.837,311.340,-57.280,2.960,-62.490,1.980
137,47108.625000,245.127,54.821,-41.837,435.847,313.195,-61.162,0.960,-49.490,7.980
138,47108.666000,245.127,53.815,-43.829,436.811,312.298,-58.237,-13.040,-20.490,12.980
139,47108.686000,246.116,56.833,-45.821,434.919,317.091,-60.096,-30.040,0.510,16.980
140,47108.726000,245.127,54.821,-43.829,435.891,317.143,-58.132,-12.040,17.510,22.980
141,47108.766000,244.139,56.833,-41.837,436.842,315.232,-57.192,-2.040,24.510,24.980
142,47108.806000,245.127,53.815,-38.848,437.682,301.693,-55.529,-16.040,18.510,27.980
143,47108.846000,241.174,53.815,-40.840,433.890,310.328,-58.287,-10.040,2.510,25.980
144,47108.886000,244.139,50.798,-38.848,438.735,311.325,-59.236,-1.040,-9.490,25.980
145,47108.926000,244.139,54.821,-41.837,439.737,314.311,-56.225,-0.040,-5.490,29.980
146,47108.970000,245.127,52.809,-44.825,438.751,312.360,-56.271,-4.040,10.510,35.980
147,47108.984000,244.139,52.809,-39.844,437.717,305.555,-56.424,5.960,29.510,45.980
148,47109.25000,246.116,53.815,-40.840,437.769,310.452,-54.354,16.960,45.510,50.980
149,47109.65000,247.104,51.804,-43.829,438.729,309.512,-53.392,30.960,68.510,64.980
150,47109.105000,246.116,49.792,-38.848,440.612,303.749,-51.555,21.960,76.510,62.980
151,47109.145000,246.116,47.780,-33.868,441.603,306.628,-53.450,7.960,52.510,49.980
152,47109.190000,247.104,46.774,-33.868,445.409,299.891,-52.611,5.960,24.510,38.980
153,47109.230000,245.127,46.774,-32.872,440.619,304.698,-52.514,12.960,-2.490,25.980
154,47109.279000,245.127,48.786,-34.864,443.505,302.807,-51.569,17.960,-15.490,19.980
155,47109.306000,248.093,50.798,-40.840,444.480,303.765,-52.527,29.960,-8.490,29.980
156,47109.326000,248.093,50.798,-42.833,443.467,298.923,-51.656,46.960,18.510,46.980
157,47109.366000,250.069,41.745,-36.856,446.351,297.010,-51.692,25.960,54.510,52.980
158,47109.406000,247.104,41.745,-30.879,445.378,296.073,-49.754,34.960,70.510,22.980
159,47109.450000,249.081,36.715,-29.883,439.585,297.008,-48.764,4.960,36.510,-11.020
160,47109.486000,248.093,43.756,-30.879,440.638,305.756,-48.568,-66.040,-17.490,-55.020
161,47109.525000,246.116,44.762,-30.879,442.528,300.942,-47.690,-93.040,-60.490,-81.020
162,47109.565000,246.116,37.721,-23.907,442.514,299.928,-49.674,-101.040,-148.490,-132.020
163,47109.608000,250.069,42.750,-12.949,436.828,313.334,-55.272,-143.040,-253.490,-190.020
164,47109.623000,243.151,48.786,7.969,432.904,308.377,-58.333,-229.040,-472.490,-281.020
165,47109.666000,260.942,78.963,-19.922,429.097,317.746,-71.862,-228.040,-948.490,-363.020
166,47109.720000,272.803,75.945,-47.813,425.326,331.861,-90.189,-291.040,-1060.490,-264.020
167,47109.748000,268.849,70.916,-53.790,418.526,330.652,-98.076,-512.040,-620.490,74.980
168,47109.783000,216.463,47.780,8.965,424.360,330.989,-85.307,-674.040,9.510,279.980
169,47109.823000,235.243,48.786,-49.805,440.779,324.720,-68.741,-232.040,730.510,373.980
170,47109.866000,208.556,83.992,-141.447,440.728,317.190,-58.121,208.960,834.510,240.980
171,47109.905000,175.938,88.016,-198.226,448.465,316.360,-55.181,734.960,251.510,-10.020
172,47109.945000,218.440,45.768,-41.837,448.383,309.413,-62.200,335.960,-29.490,45.980
173,47109.969000,256.988,66.892,-59.767,450.311,308.482,-61.236,-235.040,-102.490,107.980
174,47110.21000,266.873,43.756,-42.833,450.239,302.506,-68.233,236.960,-44.490,107.980
175,47110.49000,251.058,62.868,-59.767,453.186,307.367,-69.100,-22.040,-39.490,154.980
176,47110.84000,248.093,43.756,-64.747,453.146,302.577,-66.264,-26.040,63.510,172.980
177,47110.136000,248.093,46.774,-46.817,457.013,301.709,-63.333,42.960,159.510,133.980
178,47110.168000,246.116,41.745,-38.848,455.974,293.976,-61.546,-13.040,40.510,80.980
179,47110.204000,231.290,42.750,-22.911,457.936,297.770,-66.361,91.960,-159.490,30.980
180,47110.248000,233.266,38.727,-25.899,459.864,297.724,-69.300,177.960,-268.490,39.980
181,47110.288000,241.174,60.857,-85.665,458.845,293.702,-75.275,-48.040,-173.490,88.980
182,47110.308000,256.988,57.839,-72.716,462.672,288.928,-73.412,-200.040,45.510,170.980
183,47110.348000,248.093,48.786,-59.767,462.702,290.978,-68.463,-164.040,161.510,192.980
184,47110.388000,252.046,24.644,-56.778,463.577,280.416,-63.792,-243.040,161.510,154.980
185,47110.434000,245.127,23.639,-24.903,468.487,286.439,-56.783,-220.040,126.510,65.980
186,47110.464000,241.174,16.597,-26.895,469.442,284.572,-53.881,-117.040,-42.490,-16.020
187,47110.504000,245.127,22.633,-36.856,466.464,276.776,-54.060,17.960,-119.490,-68.020
188,47110.579000,239.197,16.597,-21.914,463.613,284.278,-64.687,66.960,-237.490,-159.020
189,47110.591000,252.046,43.756,-41.837,459.754,287.865,-76.383,240.960,-500.490,-241.020
190,47110.606000,256.988,50.798,-44.825,453.094,302.966,-92.733,51.960,-639.490,-320.020
191,47110.648000,260.942,45.768,-32.872,448.294,309.434,-105.349,182.960,-881.490,-476.020
192,47110.688000,234.255,80.974,-148.420,439.572,311.852,-123.946,140.960,-799.490,-325.020
193,47110.728000,226.347,116.181,-80.685,432.736,307.644,-135.822,378.960,49.510,-189.020
194,47110.768000,230.301,-29.674,-67.735,438.557,309.621,-136.746,1578.960,959.510,-48.020
195,47110.808000,153.205,157.422,-204.202,445.251,301.898,-137.884,-26.040,138.510,158.980
196,47110.849000,234.255,-4.527,-112.560,450.058,294.610,-118.423,-1143.040,107.510,480.980
197,47110.889000,275.768,47.780,-48.809,454.930,297.634,-115.403,267.960,457.510,197.980
198,47110.924000,257.977,56.833,-61.759,462.573,286.210,-108.776,162.960,468.510,267.980
199,47110.944000,253.035,36.715,-62.755,466.441,283.594,-97.058,-222.040,268.510,166.980
200,47110.985000,249.081,38.727,-64.747,470.343,284.819,-87.216,-111.040,325.510,143.980
201,47111.25000,235.243,37.721,-42.833,466.470,282.990,-80.400,-178.040,241.510,118.980
202,47111.65000,242.162,26.656,-39.844,473.204,278.288,-76.568,-4.040,120.510,82.980
203,47111.105000,246.116,30.680,-53.790,472.248,279.271,-75.567,130.960,75.510,78.980
204,47111.146000,247.104,30.680,-49.805,471.228,273.480,-73.736,155.960,177.510,36.980
205,47111.188000,249.081,29.674,-44.825,470.336,280.352,-69.663,70.960,182.510,26.980
206,47111.229000,248.093,28.668,-55.782,473.203,276.519,-68.762,75.960,161.510,-30.020
207,47111.269000,245.127,24.644,-51.798,473.174,272.722,-64.923,104.960,235.510,-60.020
208,47111.289000,247.104,35.709,-46.817,468.369,274.746,-59.004,177.960,299.510,-77.020
209,47111.329000,253.035,42.750,-39.844,471.358,282.649,-53.919,13.960,286.510,-15.020
210,47111.369000,252.046,23.639,-43.829,472.360,283.866,-43.103,11.960,398.510,-26.020
211,47111.408000,245.127,28.668,-30.879,471.359,279.132,-37.326,117.960,449.510,-32.020
212,47111.448000,259.954,61.862,-23.907,471.410,283.145,-31.353,208.960,465.510,-35.020
213,47111.486000,252.046,13.580,-7.969,469.443,277.538,-20.694,-105.040,413.510,-24.020
214,47111.525000,252.046,27.662,-1.992,465.705,289.323,-12.595,108.960,369.510,-98.020
215,47111.565000,262.919,52.809,-6.973,468.635,291.380,-8.621,22.960,143.510,-107.020
216,47111.585000,270.826,48.786,-38.848,465.768,295.213,-9.523,157.960,-4.490,-153.020
217,47111.625000,298.502,-9.556,-47.813,459.976,297.918,-16.339,487.960,-56.490,-178.020
218,47111.675000,242.162,68.904,-6.973,460.885,292.965,-21.351,618.960,-10.490,23.980
219,47111.711000,210.533,41.745,13.946,457.996,293.951,-19.374,25.960,-62.490,46.980
220,47111.759000,201.637,45.768,19.922,454.179,299.695,-21.215,94.960,58.510,25.980
221,47111.788000,210.533,41.745,24.903,459.988,299.795,-19.240,87.960,224.510,86.980
222,47111.825000,229.313,46.774,26.895,457.009,290.231,-11.613,69.960,329.510,62.980
223,47111.879000,237.220,45.768,26.895,459.932,291.338,-6.679,26.960,390.510,97.980
224,47111.906000,261.931,28.668,17.930,462.794,285.692,0.066,-157.040,295.510,82.980
225,47111.933000,250.069,24.644,26.895,465.745,288.827,8.968,-87.040,95.510,72.980
226,47111.969000,238.208,38.727,20.918,466.653,282.105,11.763,-355.040,-134.490,150.980
227,47112.8000,222.394,36.715,12.949,467.644,284.984,9.868,-376.040,-268.490,110.980
228,47112.55000,213.498,33.697,7.969,474.273,271.350,4.676,-70.040,-310.490,22.980
229,47112.88000,271.815,10.562,-25.899,470.505,286.371,-16.574,243.960,-747.490,-83.020
230,47112.128000,270.826,89.022,3.984,473.378,287.889,-37.128,65.960,-982.490,-196.020
231,47112.166000,230.301,39.733,-55.782,468.517,289.373,-55.738,148.960,-954.490,-112.020
232,47112.206000,239.197,60.857,-88.654,468.468,288.899,-77.323,4.960,-665.490,33.980
233,47112.226000,261.931,61.862,-66.739,467.402,280.022,-83.406,-243.040,-383.490,127.980
234,47112.268000,256.000,39.733,-72.716,465.449,278.946,-87.357,-144.040,-293.490,183.980
235,47112.308000,256.988,28.668,-77.696,471.232,277.039,-88.367,-41.040,-49.490,170.980
236,47112.349000,247.104,39.733,-60.763,472.223,279.034,-86.360,-82.040,53.510,160.980
237,47112.385000,251.058,29.674,-55.782,475.106,276.236,-82.493,-69.040,128.510,157.980
238,47112.426000,246.116,23.639,-44.825,475.064,271.425,-80.639,-139.040,171.510,134.980
239,47112.468000,245.127,15.591,-42.833,475.995,266.687,-75.839,-108.040,144.510,69.980
240,47112.508000,245.127,32.692,-37.852,477.981,270.719,-69.861,-37.040,138.510,51.980
241,47112.548000,250.069,26.656,-33.868,477.021,270.774,-66.920,-72.040,53.510,21.980
242,47112.568000,249.081,19.615,-28.887,478.005,272.704,-67.855,-104.040,-42.490,-25.020
243,47112.608000,247.104,25.650,-30.879,475.990,264.875,-69.995,-97.040,-164.490,-94.020
244,47112.653000,245.127,24.644,-35.860,477.007,270.645,-72.807,-88.040,-258.490,-125.020
245,47112.688000,245.127,37.721,-42.833,473.159,274.340,-79.597,-192.040,-350.490,-157.020
246,47112.733000,242.162,24.644,-48.809,467.454,285.804,-85.239,-204.040,-388.490,-176.020
247,47112.768000,244.139,32.692,-55.782,463.611,289.542,-90.067,-179.040,-399.490,-253.020
248,47112.806000,249.081,48.786,-55.782,458.758,289.344,-96.947,-203.040,-461.490,-295.020
249,47112.846000,259.954,37.721,-60.763,451.102,298.869,-101.655,-197.040,-489.490,-324.020
250,47112.866000,247.104,59.851,-40.840,442.535,315.095,-110.138,-471.040,-563.490,-346.020
251,47112.908000,259.954,48.786,-19.922,433.836,317.729,-118.924,-336.040,-918.490,-438.020
252,47112.948000,332.108,45.768,-58.770,424.175,323.050,-137.459,-258.040,-1134.490,-318.020
253,47112.986000,284.664,49.792,-62.755,421.373,336.312,-150.900,-601.040,-958.490,-164.020
254,47113.34000,192.741,37.721,-12.949,423.246,327.808,-141.278,150.960,306.510,195.980
255,47113.69000,163.089,54.821,-40.840,436.807,325.459,-121.688,141.960,1014.510,429.980
256,47113.114000,193.730,90.028,-87.658,456.129,317.471,-96.328,278.960,1228.510,305.980
257,47113.146000,165.066,127.246,-141.447,468.673,309.352,-73.926,372.960,1060.510,95.980
258,47113.188000,235.243,70.916,-192.249,468.755,317.183,-70.810,-491.040,-45.490,-113.020
259,47113.208000,240.185,66.892,-85.665,462.899,313.998,-80.700,-14.040,-346.490,-193.020
260,47113.261000,235.243,98.075,-165.354,459.986,313.862,-85.612,-133.040,-300.490,-164.020
261,47113.288000,219.429,116.181,-142.444,458.200,329.356,-86.253,-899.040,-528.490,24.980
262,47113.328000,215.475,115.175,-161.370,453.405,333.235,-84.216,-1470.040,-748.490,139.980
263,47113.368000,185.822,129.257,-163.362,444.684,333.021,-90.123,-1151.040,-999.490,-3.020
264,47113.409000,180.880,142.334,-167.346,436.046,341.523,-96.817,-805.040,-1134.490,-272.020
265,47113.449000,175.938,126.240,-154.397,414.811,349.708,-112.371,-396.040,-1186.490,-543.020
266,47113.489000,195.707,121.210,-128.498,388.853,370.381,-131.580,-289.040,-1137.490,-604.020
267,47113.529000,201.637,110.145,-130.490,365.650,374.707,-145.262,-265.040,-987.490,-596.020
268,47113.549000,203.614,91.033,-112.560,344.506,390.810,-153.775,-156.040,-824.490,-581.020
269,47113.589000,203.614,74.939,-104.591,321.262,389.462,-160.718,141.960,-638.490,-523.020
270,47113.630000,195.707,62.868,-77.696,308.805,403.687,-170.235,279.960,-321.490,-395.020
271,47113.670000,197.683,59.851,-49.805,299.076,397.789,-169.406,143.960,20.510,-167.020
272,47113.716000,216.463,39.733,-42.833,306.864,401.856,-164.396,-98.040,443.510,179.980
273,47113.746000,210.533,58.845,-60.763,316.556,401.238,-152.622,-286.040,570.510,372.980
274,47113.786000,203.614,53.815,-71.720,325.184,389.111,-134.240,-317.040,538.510,415.980
275,47113.830000,182.857,38.727,-204.202,329.970,382.514,-127.512,-50.040,330.510,532.980
276,47113.850000,206.579,48.786,-143.440,340.581,377.914,-120.727,-142.040,45.510,664.980
277,47113.889000,247.104,103.104,-103.595,354.992,365.650,-111.162,-564.040,132.510,855.980
278,47113.929000,281.699,156.417,-92.638,366.511,354.328,-101.582,-203.040,434.510,774.980
279,47113.971000,290.595,83.992,-79.689,376.121,345.879,-92.924,257.960,671.510,666.980
280,47114.20000,282.687,72.927,-83.673,386.595,327.644,-88.403,252.960,343.510,478.980
281,47114.66000,230.301,55.827,-93.634,390.471,327.746,-85.451,10.960,121.510,282.980
282,47114.101000,217.452,67.898,-106.584,391.344,317.163,-81.761,-239.040,46.510,194.980
283,47114.128000,214.486,67.898,-104.591,400.121,323.202,-75.725,-259.040,75.510,180.980
284,47114.174000,210.533,62.868,-100.607,397.176,317.478,-69.974,-216.040,122.510,185.980
285,47114.189000,225.359,56.833,-89.650,402.914,309.854,-66.208,-114.040,169.510,139.980
286,47114.228000,232.278,63.874,-80.685,403.961,316.789,-60.168,-46.040,140.510,79.980
287,47114.270000,232.278,50.798,-74.708,406.854,315.846,-60.183,2.960,21.510,1.980
288,47114.311000,231.290,51.804,-80.685,406.882,318.759,-60.118,-1.040,-90.490,-113.020
289,47114.351000,237.220,60.857,-91.642,404.969,322.472,-66.905,2.960,-202.490,-232.020
290,47114.393000,235.243,65.886,-99.611,396.291,326.185,-70.763,-0.040,-239.490,-305.020
291,47114.431000,237.220,74.939,-97.619,391.522,333.840,-73.545,-143.040,-223.490,-375.020
292,47114.471000,245.127,63.874,-83.673,381.919,341.469,-75.358,-125.040,-254.490,-472.020
293,47114.511000,281.699,52.809,-48.809,374.253,350.024,-80.087,-75.040,-423.490,-642.020
294,47114.531000,277.745,13.580,-48.809,360.826,365.102,-94.491,445.960,-610.490,-802.020
295,47114.571000,271.815,95.057,-75.704,342.491,376.811,-127.612,979.960,-736.490,-934.020
296,47114.611000,284.664,64.880,-144.436,318.264,379.704,-161.922,780.960,-1081.490,-1020.020
297,47114.651000,256.000,65.886,-184.280,297.056,392.549,-186.198,290.960,-1356.490,-855.020
298,47114.688000,210.533,63.874,-97.619,286.498,403.815,-198.719,-334.040,-983.490,-362.020
299,47114.736000,167.042,9.556,-57.774,288.431,404.697,-203.598,296.960,-201.490,20.980
300,47114.770000,130.471,36.715,-62.755,301.776,387.073,-216.710,1110.960,799.510,458.980
301,47114.829000,133.436,80.974,-80.685,332.543,367.936,-218.051,1017.960,1397.510,667.980
302,47114.838000,170.996,75.945,-113.556,372.148,358.053,-199.554,297.960,1876.510,832.980
303,47114.868000,214.486,106.122,-161.370,409.745,337.774,-167.563,223.960,2044.510,814.980
304,47114.911000,243.151,108.134,-184.280,441.530,316.488,-134.626,795.960,1947.510,467.980
305,47114.948000,212.510,128.251,-211.175,455.048,310.212,-117.085,1033.960,1606.510,188.980
306,47114.988000,186.811,110.145,-226.117,463.669,298.021,-101.647,867.960,1046.510,-3.020
307,47115.28000,178.903,109.139,-201.214,470.499,303.049,-96.618,679.960,394.510,-55.020
308,47115.81000,189.776,96.063,-157.385,470.458,300.007,-102.569,684.960,89.510,-69.020
309,47115.113000,223.382,93.045,-89.650,471.367,295.054,-107.580,168.960,-105.490,-8.020
310,47115.153000,220.417,37.721,-129.494,471.329,291.171,-107.667,-105.040,13.510,121.980
311,47115.173000,249.081,32.692,-81.681,475.215,292.244,-104.693,-85.040,107.510,260.980
312,47115.213000,256.988,72.927,-78.693,480.937,283.585,-103.892,-11.040,156.510,211.980
313,47115.253000,262.919,52.809,-70.724,488.610,275.979,-100.122,141.960,217.510,221.980
314,47115.330000,252.046,36.715,-67.735,486.696,277.039,-95.199,-9.040,237.510,230.980
315,47115.345000,250.069,34.703,-77.696,491.469,269.427,-90.455,45.960,258.510,167.980
316,47115.371000,241.174,25.650,-65.743,494.375,268.614,-84.583,89.960,289.510,118.980
317,47115.411000,243.151,14.585,-48.809,498.246,266.904,-75.787,54.960,299.510,81.980
318,47115.453000,232.278,-11.568,-46.817,497.276,265.989,-72.867,195.960,309.510,91.980
319,47115.473000,242.162,48.786,-24.903,498.255,266.991,-71.862,459.960,214.510,-21.020
320,47115.509000,243.151,29.674,-16.934,499.223,267.885,-75.763,308.960,-84.490,30.980
321,47115.549000,254.023,30.680,-58.770,498.165,259.957,-82.806,271.960,-210.490,7.980
322,47115.589000,251.058,25.650,-61.759,500.143,265.672,-88.559,195.960,-191.490,-28.020
323,47115.629000,256.000,49.792,-93.634,498.229,268.501,-91.442,202.960,-82.490,-25.020
324,47115.675000,248.093,53.815,-94.630,500.065,257.883,-89.712,-131.040,155.510,87.980
325,47115.710000,251.058,54.821,-70.724,502.044,260.966,-82.775,-317.040,339.510,192.980
326,47115.751000,254.023,0.503,-53.790,504.893,252.558,-69.227,-442.040,325.510,188.980
327,47115.791000,239.197,12.574,-45.821,504.004,257.705,-55.385,-209.040,351.510,102.980
328,47115.811000,246.116,19.615,-43.829,508.819,254.020,-48.592,-102.040,355.510,64.980
329,47115.850000,249.081,17.603,-38.848,509.814,254.288,-36.816,-80.040,415.510,68.980
330,47115.890000,251.058,20.621,-33.868,507.809,244.798,-26.244,-32.040,410.510,51.980
331,47115.929000,249.081,21.627,-25.899,509.844,252.821,-15.274,-43.040,402.510,40.980
332,47115.984000,251.058,5.532,-19.922,506.887,246.104,-10.526,21.960,411.510,26.980
333,47116.10000,253.035,14.585,-21.914,506.020,254.984,-3.466,153.960,483.510,-4.020
334,47116.50000,256.000,24.644,-13.946,507.975,254.312,9.272,168.960,469.510,-31.020
335,47116.90000,248.093,14.585,-11.953,505.046,249.624,17.987,58.960,444.510,-51.020
336,47116.130000,251.058,19.615,-5.977,502.236,256.650,29.905,204.960,506.510,-85.020
337,47116.150000,252.046,31.686,5.977,498.481,265.631,42.845,37.960,541.510,-93.020
338,47116.190000,256.000,22.633,17.930,498.496,264.897,53.616,-1.040,545.510,-105.020
339,47116.235000,251.058,25.650,25.899,490.814,268.899,62.515,-38.040,489.510,-155.020
340,47116.271000,259.954,41.745,26.895,488.935,272.052,74.349,-212.040,359.510,-165.020
341,47116.311000,271.815,38.727,18.926,484.071,268.229,79.157,-176.040,191.510,-135.020
342,47116.353000,277.745,16.597,18.926,480.279,275.095,84.205,-101.040,-16.490,-106.020
343,47116.393000,283.676,17.603,25.899,479.380,283.673,77.529,219.960,-38.490,-110.020
344,47116.434000,238.208,55.827,10.957,477.441,283.611,75.562,386.960,21.510,-48.020
345,47116.454000,234.255,54.821,23.907,475.546,288.381,72.722,81.960,-58.490,-18.020
346,47116.493000,208.556,36.715,26.895,475.514,285.426,70.695,170.960,-74.490,-104.020
347,47116.534000,204.602,30.680,27.891,469.759,292.014,63.964,284.960,-109.490,-56.020
348,47116.574000,219.429,49.792,53.790,471.716,295.766,57.187,163.960,-72.490,1.980
349,47116.614000,224.371,41.745,54.786,469.774,294.797,58.142,-95.040,-42.490,13.980
350,47116.660000,235.243,28.668,54.786,473.568,287.068,57.979,-134.040,-13.490,58.980
351,47116.693000,237.220,27.662,51.798,472.603,287.080,58.958,-179.040,-65.490,86.980
352,47116.730000,239.197,21.627,40.840,474.515,285.114,56.957,-151.040,-233.490,77.980
353,47116.770000,241.174,39.733,40.840,479.312,281.256,55.900,3.960,-361.490,-25.020
354,47116.790000,249.081,-16.597,31.875,477.336,279.965,42.138,-11.040,-444.490,34.980
355,47116.830000,270.826,68.904,6.973,484.113,284.475,23.620,288.960,-828.490,-79.020
356,47116.870000,255.012,68.904,-17.930,486.954,283.037,1.039,-81.040,-955.490,-16.020
357,47116.910000,241.174,23.639,-53.790,484.046,286.482,-17.523,94.960,-771.490,58.980
358,47116.950000,253.035,61.862,-51.798,487.849,282.356,-30.355,84.960,-548.490,64.980
359,47116.990000,254.023,57.839,-47.813,486.873,282.260,-34.282,-283.040,-403.490,146.980
360,47117.31000,263.907,37.721,-50.802,491.640,276.353,-40.287,-106.040,-281.490,198.980
361,47117.74000,248.093,42.750,-46.817,494.430,265.615,-44.442,-18.040,-124.490,167.980
362,47117.108000,251.058,14.585,-37.852,491.516,264.594,-45.452,-5.040,-73.490,130.980
363,47117.134000,253.035,27.662,-41.837,496.393,269.431,-48.276,130.960,31.510,77.980
364,47117.174000,254.023,38.727,-42.833,498.255,262.589,-51.366,-58.040,61.510,69.980
365,47117.211000,248.093,27.662,-39.844,498.273,261.877,-39.614,-124.040,95.510,90.980
366,47117.254000,251.058,29.674,-32.872,495.347,258.979,-37.723,-153.040,136.510,89.980
367,47117.293000,251.058,23.639,-27.891,496.312,258.083,-34.799,-134.040,123.510,86.980
368,47117.331000,251.058,16.597,-24.903,497.323,261.156,-27.864,-229.040,70.510,38.980
369,47117.390000,248.093,16.597,-7.969,501.150,256.382,-26.001,-275.040,-27.490,3.980
370,47117.411000,249.081,8.550,-11.953,499.209,256.299,-28.948,-146.040,-191.490,-66.020
371,47117.431000,236.232,58.845,-22.911,497.284,258.135,-32.834,-135.040,-276.490,-106.020
372,47117.471000,248.093,7.544,-38.848,497.307,261.005,-34.732,60.960,-238.490,-37.020
373,47117.513000,254.023,17.603,-37.852,492.485,264.625,-44.468,75.960,-238.490,-136.020
374,47117.554000,253.035,27.662,-42.833,493.494,270.309,-51.205,31.960,-262.490,-213.020
375,47117.593000,254.023,24.644,-45.821,487.737,275.991,-55.013,-29.040,-254.490,-288.020
376,47117.631000,248.093,37.721,-40.840,484.837,277.754,-61.845,-147.040,-319.490,-358.020
377,47117.673000,243.151,36.715,-24.903,479.175,293.145,-65.438,-146.040,-435.490,-401.020
378,47117.711000,250.069,44.762,-1.992,467.642,304.337,-80.904,-221.040,-667.490,-461.020
379,47117.751000,282.687,37.721,-45.821,463.861,315.712,-91.447,-138.040,-1055.490,-504.020
380,47117.773000,288.618,49.792,-97.619,455.199,324.862,-112.837,-3.040,-970.490,-336.020
381,47117.814000,267.861,32.692,-107.580,444.593,330.389,-121.563,-256.040,-609.490,-134.020
382,47117.855000,208.556,47.780,-56.778,446.401,317.743,-123.801,189.960,30.510,7.980
383,47117.895000,173.961,69.910,-75.704,448.340,316.036,-114.028,337.960,535.510,167.980
384,47117.931000,175.938,104.110,-123.518,456.125,318.312,-102.193,402.960,673.510,100.980
385,47117.975000,204.602,92.039,-107.580,458.057,316.540,-95.364,365.960,481.510,-22.020
386,47118.15000,225.359,78.963,-82.677,462.903,317.558,-95.331,117.960,174.510,-90.020
387,47118.59000,245.127,2.515,-106.584,462.828,308.907,-91.600,236.960,22.510,-34.020
388,47118.85000,256.000,70.916,-92.638,457.118,319.444,-95.301,-351.040,-240.490,-94.020
389,47118.113000,267.861,66.892,-57.774,458.151,326.249,-95.148,-395.040,-271.490,40.980
390,47118.153000,256.000,73.933,-61.759,456.216,326.230,-95.152,-355.040,-270.490,13.980
391,47118.193000,231.290,74.939,-74.708,456.165,321.333,-97.223,-180.040,-200.490,-14.020
392,47118.248000,215.475,55.827,-68.732,448.442,324.062,-102.082,195.960,-66.490,-128.020
393,47118.274000,203.614,58.845,-47.813,448.409,321.106,-104.109,489.960,83.510,-148.020
394,47118.314000,216.463,49.792,-36.856,447.520,329.770,-106.860,682.960,455.510,-98.020
395,47118.353000,158.147,24.644,-311.782,447.480,324.980,-104.025,622.960,443.510,-26.020
396,47118.398000,192.741,110.145,-113.556,449.405,323.144,-100.139,-249.040,354.510,47.980
397,47118.413000,168.031,94.051,-289.868,450.341,318.450,-93.376,-556.040,-15.490,192.980
398,47118.453000,191.753,136.299,-224.125,447.501,326.944,-103.000,-1081.040,-793.490,175.980
399,47118.493000,193.730,137.305,-237.074,438.759,324.766,-109.932,-1967.040,-1558.490,104.980
400,47118.533000,215.475,137.305,-175.315,419.513,338.774,-126.333,-1552.040,-1940.490,-239.020
401,47118.573000,234.255,120.204,-142.444,389.672,359.280,-151.438,-1070.040,-2004.490,-465.020
402,47118.614000,224.371,105.116,-90.646,358.788,369.377,-164.027,-1016.040,-1691.490,-526.020
403,47118.654000,227.336,69.910,-73.712,334.769,386.595,-164.676,-890.040,-1092.490,-459.020
404,47118.695000,221.405,43.756,-94.630,316.520,399.124,-160.514,-474.040,-655.490,-423.020
405,47118.715000,224.371,43.756,-46.817,307.816,400.830,-167.359,202.960,-164.490,-332.020
406,47118.755000,203.614,73.933,-46.817,301.107,407.538,-168.205,203.960,131.510,-208.020
407,47118.795000,182.857,56.833,-134.475,301.106,404.884,-156.496,-399.040,197.510,-1.020
408,47118.835000,233.266,-60.857,-35.860,298.197,401.275,-142.853,-276.040,291.510,301.980
409,47118.881000,226.347,42.750,-18.926,308.787,395.596,-140.995,204.960,655.510,459.980
410,47118.914000,190.764,49.792,-221.136,319.332,384.201,-134.361,-212.040,111.510,470.980
411,47118.960000,197.683,91.033,-133.479,330.872,374.842,-123.757,-570.040,153.510,763.980
412,47118.995000,250.069,113.163,-108.576,341.457,365.604,-107.269,-536.040,326.510,824.980
413,47119.35000,266.873,129.257,-91.642,355.951,362.056,-98.491,-139.040,537.510,813.980
414,47119.56000,279.722,82.986,-95.626,370.374,349.900,-84.021,81.960,694.510,712.980
415,47119.96000,297.514,63.874,-68.732,380.833,328.882,-73.678,242.960,776.510,683.980
416,47119.136000,244.139,60.857,-70.724,394.327,321.484,-63.026,23.960,543.510,505.980
417,47119.178000,225.359,44.762,-68.732,395.227,312.928,-55.369,-79.040,258.510,351.980
418,47119.213000,233.266,54.821,-68.732,399.130,315.922,-53.333,-103.040,47.510,180.980
419,47119.256000,229.313,56.833,-84.669,401.025,311.151,-50.493,-68.040,-37.490,113.980
420,47119.296000,224.371,62.868,-86.661,403.948,313.143,-49.462,-123.040,-10.490,79.980
421,47119.336000,222.394,58.845,-84.669,403.948,313.143,-49.462,-28.040,21.510,65.980
422,47119.375000,234.255,59.851,-78.693,405.812,305.438,-47.668,24.960,12.510,33.980
423,47119.395000,235.243,44.762,-71.720,405.780,303.367,-53.598,116.960,-59.490,-44.020
424,47119.435000,230.301,43.756,-70.724,406.844,313.991,-56.302,70.960,-165.490,-133.020
425,47119.474000,235.243,64.880,-89.650,400.129,320.635,-60.091,66.960,-241.490,-247.020
426,47119.515000,235.243,55.827,-84.669,395.299,322.421,-64.965,-37.040,-295.490,-297.020
427,47119.556000,229.313,55.827,-82.677,389.545,329.010,-71.695,-24.040,-372.490,-419.020
428,47119.593000,237.220,62.868,-90.646,377.002,333.612,-77.504,-24.040,-460.490,-504.020
429,47119.633000,280.710,74.939,-88.654,366.486,348.805,-87.976,-102.040,-577.490,-634.020
430,47119.673000,295.537,89.022,-49.805,353.998,360.980,-102.442,-57.040,-750.490,-719.020
431,47119.693000,287.629,55.827,-43.829,336.660,373.863,-126.709,553.960,-750.490,-939.020
432,47119.733000,290.595,60.857,-76.700,314.410,380.702,-158.966,1088.960,-908.490,-1051.020
433,47119.773000,260.942,86.004,-179.300,299.880,383.904,-183.442,666.960,-1342.490,-923.020
434,47119.816000,201.637,79.969,-163.362,271.905,397.612,-209.675,-102.040,-1506.490,-639.020
435,47119.856000,179.892,49.792,-90.646,263.332,412.025,-212.315,-669.040,-1019.490,-108.020
436,47119.893000,140.355,-12.574,-56.778,270.093,411.983,-217.205,243.960,210.510,250.980
437,47119.933000,120.587,29.674,-67.735,295.014,389.747,-224.510,872.960,1038.510,524.980
438,47119.978000,147.274,65.886,-80.685,329.697,372.849,-214.025,981.960,1945.510,719.980
439,47120.13000,170.996,95.057,-127.502,379.907,357.438,-186.803,459.960,2322.510,778.980
440,47120.33000,221.405,86.004,-175.315,404.055,348.504,-162.434,418.960,2429.510,834.980
441,47120.78000,249.081,105.116,-212.171,443.568,325.417,-126.578,1128.960,2282.510,680.980
442,47120.113000,230.301,120.204,-220.140,467.680,311.737,-97.411,1379.960,1797.510,301.980
443,47120.156000,208.556,104.110,-215.160,477.284,300.591,-79.006,1143.960,1294.510,150.980
444,47120.196000,179.892,129.257,-175.315,483.035,293.096,-69.354,673.960,452.510,89.980
445,47120.240000,116.633,125.234,-298.833,486.797,282.411,-71.544,305.960,-52.490,181.980
446,47120.275000,233.266,-11.568,-25.899,487.826,290.058,-77.256,-265.040,-410.490,125.980
447,47120.315000,279.722,69.910,-84.669,494.544,285.205,-80.292,656.960,80.510,93.980
448,47120.336000,242.162,68.904,-74.708,494.477,279.272,-85.327,88.960,-44.490,71.980
449,47120.376000,257.977,40.739,-72.716,492.454,269.609,-82.604,60.960,93.510,173.980
450,47120.418000,253.035,42.750,-75.704,498.334,276.548,-78.515,55.960,228.510,163.980
451,47120.468000,251.058,25.650,-56.778,501.221,273.793,-72.686,-5.040,271.510,160.980
452,47120.494000,247.104,38.727,-51.798,504.038,263.315,-65.067,-83.040,260.510,133.980
453,47120.534000,235.243,24.644,-34.864,502.135,265.367,-59.142,-214.040,194.510,118.980
454,47120.574000,231.290,18.609,-22.911,504.995,259.700,-53.377,48.960,103.510,95.980
455,47120.614000,248.093,30.680,-38.848,505.037,264.511,-55.232,294.960,34.510,91.980
456,47120.654000,260.942,48.786,-43.829,507.886,259.620,-58.276,91.960,-76.490,32.980
457,47120.674000,257.977,32.692,-73.712,509.811,258.668,-58.293,165.960,144.510,35.980
458,47120.714000,256.000,17.603,-56.778,509.769,253.857,-56.439,222.960,264.510,27.980
459,47120.766000,253.035,49.792,-47.813,509.794,254.979,-49.549,261.960,284.510,17.980
460,47120.800000,245.127,28.668,-33.868,506.843,248.327,-41.858,-369.040,310.510,140.980
461,47120.838000,251.058,24.644,-27.891,509.726,244.644,-34.088,-217.040,268.510,139.980
462,47120.878000,249.081,1.509,-25.899,509.791,249.671,-26.131,-173.040,172.510,100.980
463,47120.916000,251.058,0.503,-24.903,511.704,245.957,-19.345,-21.040,150.510,9.980
464,47120.956000,245.127,15.591,-19.922,510.739,245.970,-18.366,108.960,119.510,-53.020
465,47120.996000,257.977,23.639,-28.887,511.706,245.094,-14.461,152.960,100.510,-62.020
466,47121.18000,253.035,25.650,-35.860,511.784,252.883,-13.307,45.960,204.510,-63.020
467,47121.58000,252.046,24.644,-30.879,509.900,256.877,-7.339,87.960,285.510,-56.020
468,47121.98000,255.012,37.721,-30.879,507.986,257.937,-2.416,81.960,394.510,-24.020
469,47121.138000,252.046,21.627,-15.938,505.976,247.519,10.097,-51.040,515.510,23.980
470,47121.178000,247.104,20.621,-6.973,507.065,257.496,22.089,-6.040,552.510,4.980
471,47121.214000,255.012,20.621,-0.996,506.134,258.716,33.882,53.960,556.510,-11.020
472,47121.258000,253.035,23.639,5.977,504.247,260.035,50.579,-3.040,574.510,-24.020
473,47121.294000,251.058,30.680,18.926,501.348,258.280,60.340,43.960,613.510,-57.020
474,47121.315000,256.988,30.680,23.907,496.606,265.310,73.235,-45.040,547.510,-97.020
475,47121.358000,256.000,31.686,23.907,491.796,266.406,81.094,-138.040,308.510,-179.020
476,47121.399000,293.560,19.615,15.938,489.939,273.291,86.147,-353.040,-18.490,-201.020
477,47121.448000,295.537,2.515,12.949,486.093,277.007,80.337,60.960,-251.490,-227.020
478,47121.479000,307.398,31.686,18.926,484.157,278.736,71.545,591.960,-202.490,-163.020
479,47121.520000,224.371,44.762,3.984,476.464,287.032,55.042,571.960,-308.490,-26.020
480,47121.556000,188.788,60.857,7.969,478.388,287.827,46.238,206.960,-349.490,-47.020
481,47121.595000,196.695,32.692,21.914,474.576,295.384,38.552,209.960,-326.490,-66.020
482,47121.636000,211.521,50.798,32.872,478.444,297.169,29.774,247.960,-75.490,15.980
483,47121.659000,218.440,57.839,36.856,475.532,296.170,29.746,30.960,38.510,57.980
484,47121.698000,238.208,40.739,40.840,478.330,284.634,33.418,-400.040,15.510,105.980
485,47121.735000,251.058,30.680,44.825,478.342,284.742,38.324,-607.040,-64.490,149.980
486,47121.776000,247.104,28.668,46.817,482.128,275.179,43.023,-706.040,-225.490,193.980
487,47121.819000,246.116,17.603,49.805,484.073,276.169,43.049,-575.040,-320.490,137.980
488,47121.855000,235.243,33.697,34.864,488.884,274.210,40.074,-161.040,-302.490,4.980
489,47121.900000,240.185,0.503,-69.728,492.684,269.177,30.163,21.960,-415.490,-30.020
490,47121.938000,295.537,-9.556,30.879,491.656,267.701,7.573,373.960,-815.490,-25.020
491,47121.958000,264.896,76.951,-33.868,491.703,276.957,-12.815,-15.040,-982.490,-151.020
492,47121.998000,235.243,44.762,-59.767,493.551,272.617,-34.482,-135.040,-801.490,-36.020
493,47122.40000,251.058,54.821,-66.739,491.619,274.389,-41.312,-357.040,-613.490,115.980
494,47122.75000,262.919,36.715,-69.728,491.582,272.275,-49.204,-339.040,-416.490,167.980
495,47122.118000,252.046,50.798,-65.743,496.285,258.708,-50.476,-242.040,-202.490,187.980
496,47122.156000,253.035,28.668,-56.778,496.348,264.598,-47.403,-410.040,-100.490,220.980
497,47122.197000,251.058,25.650,-53.790,501.136,258.885,-44.578,-310.040,5.510,175.980
498,47122.238000,256.000,26.656,-53.790,505.016,258.146,-35.760,-320.040,70.510,144.980
499,47122.278000,252.046,25.650,-44.825,501.075,249.500,-30.076,-412.040,96.510,96.980
500,47122.299000,248.093,11.568,-37.852,503.973,248.600,-28.129,-407.040,96.510,48.980
501,47122.339000,244.139,14.585,-24.903,502.105,253.630,-19.195,-333.040,45.510,-11.020
502,47122.379000,249.081,12.574,-23.907,503.145,260.500,-16.098,-249.040,-43.490,-61.020
503,47122.419000,246.116,8.550,-25.899,501.206,260.438,-18.065,-549.040,-220.490,-104.020
504,47122.459000,251.058,21.627,-20.918,497.303,257.445,-20.101,-124.040,-251.490,-165.020
505,47122.500000,249.081,36.715,-26.895,492.526,265.014,-26.808,-28.040,-373.490,-196.020
506,47122.540000,250.069,19.615,-46.817,493.556,274.430,-40.326,-47.040,-479.490,-257.020
507,47122.580000,241.174,52.809,-54.786,489.723,280.023,-49.036,23.960,-465.490,-316.020
508,47122.626000,255.012,48.786,-33.868,488.796,286.572,-59.680,38.960,-575.490,-333.020
509,47122.659000,270.826,23.639,-38.848,479.192,295.950,-70.279,-155.040,-604.490,-287.020
510,47122.681000,286.641,30.680,-78.693,474.241,287.769,-87.142,43.960,-688.490,-356.020
511,47122.718000,279.722,28.668,-104.591,465.636,300.111,-95.712,202.960,-569.490,-303.020
512,47122.760000,209.544,21.627,-83.673,467.590,302.072,-95.665,-16.040,175.510,134.980
513,47122.809000,182.857,78.963,-29.883,473.346,294.620,-84.050,489.960,881.510,188.980
514,47122.838000,195.707,93.045,-119.533,483.082,297.951,-69.246,934.960,990.510,43.980
515,47122.883000,213.498,104.110,-154.397,482.985,285.567,-58.734,1015.960,814.510,-123.020
516,47122.920000,224.371,207.717,-128.498,482.083,292.353,-58.585,209.960,305.510,-125.020
517,47122.941000,212.510,89.022,-239.066,483.096,297.195,-59.456,-636.040,-472.490,16.980
518,47122.981000,224.371,140.322,-170.335,475.346,298.781,-72.186,-965.040,-1023.490,19.980
519,47123.20000,174.950,144.346,-244.047,457.029,308.030,-84.767,-2544.040,-1863.490,-95.020
520,47123.56000,196.695,127.246,-141.447,446.465,319.232,-100.232,-1694.040,-1934.490,-384.020
521,47123.96000,207.568,137.305,-132.482,415.660,339.772,-123.377,-986.040,-1848.490,-751.020
522,47123.139000,207.568,127.246,-122.521,385.916,368.260,-138.497,-928.040,-1634.490,-838.020
523,47123.179000,213.498,88.016,-107.580,354.187,390.085,-146.906,-804.040,-1277.490,-832.020
524,47123.221000,203.614,76.951,-97.619,327.177,399.378,-153.621,-345.040,-909.490,-821.020
525,47123.261000,203.614,62.868,-77.696,303.067,408.679,-161.311,137.960,-420.490,-719.020
526,47123.281000,174.950,49.792,-98.615,289.660,423.067,-162.981,327.960,-95.490,-588.020
527,47123.343000,190.764,32.692,-68.732,280.876,416.078,-168.058,451.960,422.510,-220.020
528,47123.361000,220.417,24.644,-57.774,284.743,414.325,-161.224,213.960,750.510,118.980
529,47123.401000,226.347,13.580,-59.767,295.367,410.739,-152.455,85.960,861.510,332.980
530,47123.441000,166.054,63.874,-198.226,305.902,398.373,-145.843,124.960,571.510,559.980
531,47123.481000,184.834,89.022,-156.389,318.393,388.873,-142.105,-30.040,171.510,633.980
532,47123.525000,222.394,99.081,-130.490,331.914,382.619,-123.583,-854.040,172.510,867.980
533,47123.560000,300.479,60.857,-103.595,345.362,368.619,-104.252,-670.040,408.510,888.980
534,47123.579000,256.000,130.263,-76.700,357.904,362.248,-90.638,-230.040,541.510,756.980
535,47123.623000,282.687,105.116,-90.646,370.350,347.030,-82.123,-71.040,627.510,646.980
536,47123.660000,275.768,88.016,-67.735,379.939,335.733,-70.586,17.960,504.510,437.980
537,47123.700000,243.151,56.833,-56.778,384.744,330.192,-59.911,-148.040,241.510,266.980
538,47123.746000,220.417,54.821,-68.732,387.724,338.009,-58.751,-209.040,-96.490,30.980
539,47123.780000,222.394,59.851,-75.704,383.786,331.154,-59.892,-45.040,-185.490,-85.020
540,47123.821000,215.475,84.998,-106.584,386.729,335.972,-62.721,75.960,-186.490,-138.020
541,47123.858000,220.417,87.010,-109.572,380.934,337.771,-66.616,21.960,-152.490,-140.020
542,47123.898000,226.347,74.939,-100.607,379.082,347.353,-71.310,8.960,-139.490,-189.020
543,47123.923000,233.266,65.886,-86.661,374.271,351.081,-76.141,72.960,-155.490,-314.020
544,47123.956000,249.081,69.910,-77.696,365.619,357.684,-80.916,34.960,-237.490,-417.020
545,47124.0,260.942,76.951,-76.700,355.030,364.247,-86.677,119.960,-352.490,-596.020
546,47124.40000,268.849,67.898,-71.720,339.621,374.452,-101.192,249.960,-464.490,-728.020
547,47124.81000,255.012,46.774,-83.673,330.954,382.674,-120.641,1046.960,-564.490,-919.020
548,47124.118000,286.641,110.145,-91.642,310.671,392.487,-150.867,902.960,-727.490,-935.020
549,47124.158000,289.606,68.904,-104.591,289.440,402.463,-173.245,167.960,-1120.490,-846.020
550,47124.198000,261.931,76.951,-161.370,267.245,413.357,-197.567,19.960,-1456.490,-836.020
551,47124.239000,170.008,70.916,-185.276,246.060,426.418,-212.032,-202.040,-1483.490,-405.020
552,47124.259000,110.703,42.750,-95.626,244.152,431.060,-220.759,-88.040,-709.490,-35.020
553,47124.300000,112.680,17.603,-66.739,254.717,425.144,-229.694,575.960,106.510,148.980
554,47124.340000,88.958,32.692,-57.774,270.939,405.542,-245.785,1508.960,1321.510,599.980
555,47124.381000,91.923,116.181,-117.541,312.261,376.864,-244.373,940.960,1958.510,803.980
556,47124.431000,157.158,124.228,-93.634,360.579,363.614,-206.320,-258.040,2374.510,996.980
557,47124.460000,228.324,106.122,-173.323,413.736,348.663,-159.468,-135.040,2488.510,1072.980
558,47124.500000,268.849,165.470,-226.117,451.308,323.745,-117.773,1038.960,2389.510,702.980
559,47124.540000,236.232,168.487,-254.008,471.494,303.318,-84.842,790.960,1757.510,302.980
560,47124.560000,222.394,111.151,-239.066,477.356,306.567,-72.008,890.960,735.510,0.980
561,47124.600000,184.834,114.169,-216.156,477.302,300.763,-71.157,710.960,38.510,-113.020
562,47124.642000,181.869,82.986,-134.475,472.459,303.305,-85.820,678.960,-206.490,-142.020
563,47124.682000,166.054,86.004,-42.833,474.411,306.129,-90.657,409.960,86.510,-116.020
564,47124.723000,190.764,-74.939,-185.276,481.128,299.507,-85.887,266.960,585.510,39.980
565,47124.757000,331.120,79.969,-34.864,482.022,291.771,-85.076,209.960,156.510,128.980
566,47124.799000,246.116,63.874,-81.681,486.866,290.998,-78.218,-270.040,159.510,244.980
567,47124.839000,272.803,18.609,-42.833,491.571,276.569,-74.606,258.960,194.510,200.980
568,47124.878000,238.208,32.692,-57.774,491.575,276.612,-72.643,401.960,195.510,166.980
569,47124.899000,252.046,47.780,-70.724,497.397,278.588,-73.568,230.960,227.510,153.980
570,47124.939000,256.000,45.768,-61.759,499.267,270.948,-68.830,221.960,314.510,136.980
571,47124.984000,249.081,38.727,-52.794,499.297,272.998,-63.881,49.960,319.510,151.980
572,47125.20000,234.255,48.786,-39.844,501.226,270.320,-54.130,-69.040,275.510,163.980
573,47125.60000,238.208,23.639,-31.875,506.995,265.630,-49.319,-103.040,190.510,207.980
574,47125.105000,245.127,18.609,-45.821,510.851,263.769,-47.391,-5.040,154.510,149.980
575,47125.140000,252.046,4.527,-48.809,514.692,260.009,-43.543,153.960,208.510,68.980
576,47125.180000,258.965,49.792,-45.821,512.716,255.201,-40.712,80.960,172.510,36.980
577,47125.200000,248.093,33.697,-50.802,512.755,257.337,-31.839,-64.040,293.510,103.980
578,47125.239000,242.162,39.733,-30.879,516.650,258.496,-24.940,-72.040,306.510,86.980
579,47125.279000,240.185,-0.503,-21.914,513.721,253.808,-16.225,-250.040,256.510,120.980
580,47125.320000,247.104,9.556,-25.899,512.734,250.088,-8.464,23.960,213.510,28.980
581,47125.359000,252.046,21.627,-28.887,516.566,246.242,-8.541,-0.040,194.510,12.980
582,47125.400000,251.058,23.639,-21.914,514.661,248.273,-3.597,-22.040,250.510,15.980
583,47125.439000,254.023,18.609,-28.887,513.759,253.290,4.358,-53.040,242.510,3.980
584,47125.480000,255.012,23.639,-25.899,513.784,254.412,11.248,33.960,330.510,-28.020
585,47125.521000,256.000,17.603,-10.957,513.797,253.657,21.037,52.960,379.510,-42.020
586,47125.541000,254.023,16.597,-7.969,510.884,250.888,28.815,92.960,435.510,-52.020
587,47125.580000,253.035,10.562,-4.981,506.096,254.833,33.796,158.960,463.510,-79.020
588,47125.621000,253.035,27.662,0.000,504.252,261.847,44.735,104.960,470.510,-82.020
589,47125.659000,251.058,27.662,17.930,502.323,260.124,55.480,224.960,460.510,-125.020
590,47125.702000,255.012,34.703,19.922,501.442,267.989,60.556,219.960,400.510,-147.020
591,47125.741000,259.954,30.680,26.895,493.702,266.144,68.344,-131.040,197.510,-241.020
592,47125.786000,257.977,62.868,8.965,491.894,278.790,70.582,-215.040,113.510,-252.020
593,47125.823000,272.803,47.780,-4.981,492.929,283.848,79.523,-195.040,152.510,-77.020
594,47125.861000,274.780,35.709,-0.996,485.135,277.969,80.356,-30.040,113.510,-75.020
595,47125.901000,250.069,6.538,2.988,484.236,285.662,77.583,285.960,-153.490,-52.020
596,47125.924000,218.440,57.839,15.938,484.212,285.424,66.791,140.960,-343.490,-105.020
597,47125.959000,221.405,49.792,34.864,479.411,291.893,54.175,49.960,-419.490,-160.020
598,47126.5000,224.371,35.709,50.802,479.462,299.422,43.555,162.960,-341.490,-128.020
599,47126.43000,225.359,43.756,46.817,479.453,300.221,35.728,120.960,-224.490,-62.020
600,47126.94000,232.278,34.703,40.840,481.372,299.204,32.767,-197.040,-81.490,76.980
601,47126.121000,238.208,28.668,35.860,484.259,296.449,38.596,-365.040,-41.490,133.980
602,47126.173000,236.232,50.798,10.957,484.189,288.725,40.386,-314.040,-174.490,43.980
603,47126.179000,271.815,2.515,20.918,488.045,288.634,34.508,-25.040,-460.490,91.980
604,47126.224000,257.977,73.933,-8.965,490.935,291.186,16.919,234.960,-656.490,-77.020
605,47126.264000,243.151,40.739,-28.887,491.834,287.895,-0.804,-71.040,-828.490,-22.020
606,47126.304000,251.058,51.804,-46.817,490.802,284.628,-16.569,10.960,-688.490,10.980
607,47126.339000,259.954,62.868,-51.798,491.742,284.378,-28.341,-68.040,-524.490,73.980
608,47126.381000,259.954,56.833,-53.790,490.707,278.436,-33.378,-136.040,-338.490,133.980
609,47126.421000,251.058,44.762,-53.790,499.417,279.427,-36.280,-156.040,-238.490,205.980
610,47126.461000,253.035,44.762,-50.802,499.389,277.399,-40.248,-91.040,-78.490,156.980
611,47126.501000,255.012,34.703,-49.805,501.236,267.774,-37.515,-109.040,6.510,126.980
612,47126.521000,253.035,26.656,-44.825,502.272,273.716,-32.478,-69.040,88.510,89.980
613,47126.561000,250.069,31.686,-42.833,499.362,272.739,-31.525,-130.040,159.510,55.980
614,47126.603000,249.081,35.709,-30.879,502.207,265.173,-23.842,-115.040,210.510,45.980
615,47126.643000,246.116,30.680,-26.895,502.273,271.084,-19.788,-153.040,179.510,29.980
616,47126.682000,249.081,24.644,-26.895,506.099,265.426,-14.021,-75.040,148.510,-5.020
617,47126.723000,247.104,32.692,-18.926,502.274,269.337,-11.001,-155.040,65.510,-32.020
618,47126.762000,248.093,24.644,-14.942,500.395,274.258,-6.973,-83.040,16.510,-74.020
619,47126.803000,251.058,37.721,-13.946,502.359,278.074,-10.807,-123.040,-139.490,-108.020
620,47126.823000,253.035,19.615,-13.946,500.417,277.991,-13.755,-104.040,-239.490,-187.020
621,47126.861000,242.162,9.556,-11.953,494.618,279.746,-19.612,3.960,-371.490,-264.020
622,47126.906000,244.139,16.597,-4.981,487.899,288.116,-33.169,293.960,-510.490,-372.020
623,47126.941000,257.977,57.839,7.969,481.205,300.240,-52.528,257.960,-864.490,-457.020
624,47126.981000,311.351,79.969,-50.802,475.469,312.287,-75.808,-10.040,-1171.490,-405.020
625,47127.21000,266.873,82.986,-112.560,467.663,308.932,-92.570,-450.040,-1019.490,-220.020
626,47127.64000,233.266,14.585,-95.626,455.126,313.599,-95.435,-658.040,-649.490,-46.020
627,47127.114000,149.251,58.845,-86.661,458.137,324.350,-93.229,-285.040,-105.490,-11.020
628,47127.146000,181.869,65.886,-61.759,461.968,319.620,-89.403,77.960,396.510,170.980
629,47127.161000,197.683,70.916,-45.821,466.844,320.918,-76.615,435.960,629.510,55.980
630,47127.203000,196.695,-13.580,-262.973,472.560,309.562,-66.068,703.960,838.510,162.980
631,47127.258000,256.000,118.193,-118.537,470.689,315.433,-63.000,-109.040,274.510,-114.020
632,47127.288000,241.174,79.969,-110.568,473.520,306.853,-57.300,-336.040,32.510,177.980
633,47127.321000,255.012,145.352,-151.409,469.695,312.533,-62.086,-664.040,-521.490,139.980
634,47127.364000,200.649,120.204,-216.156,466.766,311.361,-69.963,-1827.040,-1143.490,126.980
635,47127.408000,195.707,126.240,-205.198,461.994,320.742,-82.514,-1505.040,-1689.490,-123.020
636,47127.442000,165.066,135.293,-183.284,440.753,330.632,-108.817,-1088.040,-1829.490,-374.020
637,47127.484000,159.135,125.234,-135.471,411.842,349.033,-141.812,-514.040,-1622.490,-629.020
638,47127.504000,167.042,104.110,-122.521,378.110,365.790,-159.163,-518.040,-1372.490,-585.020
639,47127.543000,193.730,99.081,-116.545,357.979,386.735,-168.547,-547.040,-948.490,-462.020
640,47127.583000,207.568,87.010,-108.576,336.702,387.477,-169.556,-507.040,-661.490,-378.020
641,47127.623000,211.521,95.057,-97.619,321.330,398.912,-172.276,-298.040,-366.490,-318.020
642,47127.663000,211.521,96.063,-78.693,310.680,396.974,-167.439,-215.040,-208.490,-223.020
643,47127.704000,199.660,128.251,-115.549,309.879,410.881,-152.422,-899.040,-84.490,-77.020
644,47127.740000,210.533,27.662,-86.661,307.068,415.254,-128.795,-1090.040,-66.490,43.980
645,47127.784000,218.440,52.809,-44.825,306.103,411.749,-111.223,-867.040,145.510,170.980
646,47127.804000,206.579,-33.697,-28.887,314.852,410.474,-84.755,-1009.040,390.510,501.980
647,47127.848000,256.988,23.639,-114.553,330.219,397.227,-76.190,-259.040,99.510,871.980
648,47127.896000,268.849,102.098,-88.654,335.968,388.826,-63.616,-893.040,136.510,1017.980
649,47127.931000,267.861,129.257,-81.681,356.153,371.031,-43.375,-681.040,295.510,1016.980
650,47127.966000,258.965,107.128,-68.732,372.495,358.743,-35.768,194.960,555.510,768.980
651,47128.1000,266.873,92.039,-77.696,382.031,342.548,-26.300,297.960,538.510,637.980
652,47128.43000,268.849,81.980,-66.739,391.669,337.011,-17.577,17.960,452.510,520.980
653,47128.84000,238.208,64.880,-62.755,397.426,330.444,-9.865,28.960,300.510,347.980
654,47128.124000,223.382,58.845,-55.782,397.381,325.611,-8.992,7.960,38.510,137.980
655,47128.162000,227.336,77.957,-83.673,396.400,324.588,-10.978,123.960,-54.490,32.980
656,47128.189000,220.417,79.969,-83.673,399.258,320.668,-14.001,63.960,-55.490,-10.020
657,47128.229000,223.382,74.939,-85.665,396.405,326.400,-16.822,51.960,-52.490,-47.020
658,47128.265000,229.313,73.933,-74.708,396.441,330.262,-17.717,96.960,-88.490,-144.020
659,47128.305000,239.197,67.898,-78.693,395.464,330.166,-21.644,127.960,-176.490,-239.020
660,47128.346000,242.162,80.974,-78.693,390.652,334.758,-31.358,101.960,-281.490,-362.020
661,47128.383000,250.069,86.004,-76.700,374.286,345.061,-40.971,-9.040,-376.490,-497.020
662,47128.421000,256.988,83.992,-67.735,369.478,348.811,-44.820,36.960,-419.490,-632.020
663,47128.469000,263.907,74.939,-72.716,357.082,369.789,-56.149,253.960,-479.490,-795.020
664,47128.488000,278.734,77.957,-55.782,343.653,385.730,-75.436,453.960,-587.490,-903.020
665,47128.523000,268.849,61.862,-82.677,324.317,393.589,-106.684,1118.960,-674.490,-1095.020
666,47128.568000,294.548,57.839,-86.661,297.286,406.206,-138.823,795.960,-913.490,-1144.020
667,47128.606000,263.907,34.703,-160.374,274.209,425.828,-162.952,202.960,-1277.490,-1012.020
668,47128.642000,188.788,92.039,-200.218,258.755,431.201,-176.595,76.960,-1196.490,-633.020
669,47128.683000,170.008,7.544,-108.576,253.976,439.633,-188.186,376.960,-426.490,-246.020
670,47128.722000,151.228,-50.798,-50.802,257.644,425.410,-218.894,2017.960,623.510,122.980
671,47128.761000,99.830,52.809,-94.630,289.146,388.202,-248.093,2397.960,1449.510,544.980
672,47128.786000,118.610,107.128,-113.556,334.504,374.363,-235.556,376.960,1996.510,918.980
673,47128.826000,147.274,107.128,-144.436,385.681,354.560,-187.835,-831.040,2032.510,1248.980
674,47128.866000,195.707,106.122,-168.342,434.828,326.778,-149.122,418.960,2166.510,1260.980
675,47128.915000,247.104,186.593,-228.109,460.814,308.133,-125.945,1712.960,2250.510,726.980
676,47128.942000,185.822,153.399,-242.054,473.263,289.421,-99.856,1489.960,1639.510,-171.020
677,47128.984000,180.880,130.263,-229.105,480.088,291.752,-85.080,1189.960,901.510,-253.020
678,47129.25000,191.753,104.110,-200.218,480.050,288.753,-89.069,1203.960,412.510,-207.020
679,47129.65000,196.695,75.945,-172.327,481.063,294.480,-93.844,716.960,167.510,-144.020
680,47129.105000,223.382,124.228,-73.712,480.067,291.558,-93.910,-37.040,13.510,33.980
681,47129.128000,232.278,62.868,-89.650,481.997,289.764,-88.062,-357.040,185.510,180.980
682,47129.171000,240.185,16.597,-90.646,479.026,282.034,-85.298,112.960,177.510,105.980
683,47129.205000,256.000,35.709,-43.829,486.786,283.188,-80.353,229.960,341.510,229.980
684,47129.244000,264.896,49.792,-37.852,488.690,279.388,-77.491,11.960,233.510,207.980
685,47129.282000,256.000,20.621,-57.774,496.326,268.784,-77.710,424.960,125.510,131.980
686,47129.324000,257.977,47.780,-68.732,497.279,266.895,-75.789,253.960,163.510,97.980
687,47129.369000,243.151,33.697,-65.743,496.308,265.095,-68.966,33.960,172.510,129.980
688,47129.404000,236.232,27.662,-55.782,502.117,265.194,-66.991,-28.040,195.510,148.980
689,47129.422000,251.058,19.615,-52.794,502.101,263.274,-66.053,4.960,253.510,129.980
690,47129.462000,252.046,16.597,-35.860,501.137,262.423,-60.190,270.960,280.510,98.980
691,47129.507000,255.012,9.556,-45.821,503.879,245.062,-56.647,426.960,261.510,15.980
692,47129.549000,250.069,28.668,-45.821,505.875,250.950,-54.550,374.960,243.510,6.980
693,47129.585000,241.174,32.692,-37.852,502.982,251.892,-54.536,305.960,244.510,36.980
694,47129.626000,227.336,65.886,-27.891,505.862,248.188,-47.747,-19.040,190.510,4.980
695,47129.666000,249.081,11.568,-36.856,505.928,254.984,-47.596,-47.040,111.510,8.980
696,47129.703000,248.093,30.680,-41.837,504.003,255.051,-43.676,113.960,114.510,-40.020
697,47129.750000,252.046,24.644,-41.837,505.975,258.954,-43.585,14.960,138.510,-24.020
698,47129.766000,251.058,17.603,-40.840,506.024,262.060,-34.690,36.960,208.510,-49.020
699,47129.806000,251.058,35.709,-38.848,501.193,262.078,-31.758,-33.040,275.510,-46.020
700,47129.852000,255.012,29.674,-29.883,503.101,257.437,-23.031,-151.040,333.510,4.980
701,47129.886000,252.046,27.662,-25.899,504.116,258.784,-6.328,-264.040,482.510,38.980
702,47129.926000,254.023,20.621,-13.946,504.158,261.826,-0.376,-177.040,457.510,-15.020
703,47129.965000,252.046,27.662,-18.926,507.038,256.352,14.218,-34.040,498.510,-44.020
704,47130.5000,254.023,26.656,-20.918,505.217,265.352,27.163,-76.040,587.510,-62.020
705,47130.48000,255.012,34.703,-7.969,499.450,265.662,43.829,-124.040,684.510,-67.020
706,47130.73000,258.965,43.756,11.953,494.687,269.843,59.602,-238.040,678.510,-54.020
707,47130.102000,256.988,43.756,26.895,497.616,269.246,75.286,-397.040,478.510,-21.020
708,47130.144000,261.931,14.585,19.922,494.719,267.513,86.028,-442.040,269.510,-15.020
709,47130.183000,279.722,29.674,27.891,493.775,268.604,91.935,-57.040,195.510,-12.020
710,47130.229000,247.104,27.662,37.852,489.839,261.770,91.775,-6.040,142.510,7.980
711,47130.265000,236.232,29.674,30.879,486.005,265.594,90.871,-52.040,-80.490,0.980
712,47130.306000,205.591,21.627,48.809,486.076,273.318,89.081,-89.040,-202.490,-33.020
713,47130.347000,204.602,27.662,61.759,486.079,275.109,82.256,173.960,-165.490,-114.020
714,47130.387000,220.417,25.650,61.759,483.137,272.060,77.279,229.960,-35.490,-79.020
715,47130.406000,229.313,28.668,42.833,486.098,278.820,74.493,212.960,36.510,-76.020
716,47130.446000,241.174,24.644,43.829,484.088,271.034,74.316,-25.040,-107.490,-22.020
717,47130.486000,236.232,35.709,55.782,482.137,269.979,71.347,-338.040,-308.490,28.980
718,47130.530000,230.301,34.703,44.825,489.851,268.048,68.378,-417.040,-443.490,-38.020
719,47130.562000,282.687,19.615,58.770,492.787,273.686,58.703,-180.040,-516.490,35.980
720,47130.603000,268.849,0.503,6.973,491.739,268.499,43.876,121.960,-796.490,-27.020
721,47130.643000,245.127,51.804,-17.930,493.700,275.810,22.467,438.960,-777.490,-79.020
722,47130.684000,254.023,60.857,-31.875,493.671,276.414,5.810,70.960,-739.490,-25.020
723,47130.704000,258.965,50.798,-36.856,495.586,277.124,-6.919,-113.040,-625.490,67.980
724,47130.745000,256.988,54.821,-54.786,502.308,274.061,-16.780,-156.040,-480.490,162.980
725,47130.785000,254.023,41.745,-58.770,501.197,260.352,-21.990,-347.040,-357.490,241.980
726,47130.826000,259.954,16.597,-48.809,504.090,260.294,-25.908,-269.040,-182.490,188.980
727,47130.866000,258.965,22.633,-53.790,504.014,251.643,-22.177,-206.040,-63.490,147.980
728,47130.908000,255.012,32.692,-47.813,506.940,252.771,-16.262,-228.040,70.510,91.980
729,47130.947000,252.046,25.650,-28.887,513.688,249.968,-14.349,-429.040,112.510,94.980
730,47130.987000,248.093,15.591,-24.903,512.748,251.102,-6.480,-367.040,79.510,51.980
731,47131.45000,250.069,18.609,-14.942,508.866,248.302,0.314,-381.040,65.510,13.980
732,47131.51000,256.000,12.574,-13.946,507.990,257.095,3.450,-357.040,-6.490,-43.020
733,47131.89000,241.174,19.615,12.949,510.914,259.972,0.578,-292.040,-302.490,-161.020
734,47131.129000,249.081,-0.503,-37.852,508.963,259.802,-6.295,-330.040,-441.490,-143.020
735,47131.167000,250.069,38.727,-52.794,502.201,261.591,-10.192,-162.040,-315.490,-171.020
736,47131.204000,250.069,31.686,-45.821,505.163,269.235,-16.881,-217.040,-264.490,-186.020
737,47131.245000,256.000,36.715,-41.837,498.462,276.893,-18.686,-207.040,-269.490,-233.020
738,47131.285000,262.919,55.827,-22.911,497.513,279.710,-22.548,-297.040,-325.490,-313.020
739,47131.325000,263.907,36.715,2.988,490.801,288.145,-33.163,-193.040,-679.490,-443.020
740,47131.365000,272.803,-20.621,-53.790,481.162,296.314,-54.576,572.960,-784.490,-479.020
741,47131.390000,234.255,78.963,-118.537,475.459,310.432,-71.927,492.960,-563.490,-466.020
742,47131.425000,209.544,13.580,-62.755,466.738,309.333,-73.931,595.960,191.510,-142.020
743,47131.465000,202.625,61.862,-82.677,472.573,312.324,-72.871,826.960,495.510,-66.020
744,47131.505000,237.220,102.098,-99.611,472.547,309.433,-71.955,1055.960,686.510,-20.020
745,47131.547000,234.255,186.593,-124.514,474.453,304.770,-64.209,104.960,554.510,85.980
746,47131.588000,207.568,91.033,-138.459,477.422,308.962,-51.361,-866.040,-85.490,173.980
747,47131.629000,224.371,120.204,-175.315,475.433,304.024,-54.417,-1105.040,-674.490,133.980
748,47131.670000,184.834,144.346,-185.276,471.660,314.601,-57.132,-1983.040,-1197.490,3.980
749,47131.685000,198.672,114.169,-175.315,463.917,316.252,-66.919,-1813.040,-1495.490,-117.020
750,47131.730000,203.614,121.210,-169.339,446.548,325.316,-88.329,-1015.040,-1588.490,-436.020
751,47131.765000,199.660,111.151,-138.459,418.627,343.942,-111.510,-831.040,-1505.490,-557.020
752,47131.805000,195.707,90.028,-140.451,391.670,359.902,-123.961,-944.040,-1350.490,-530.020
753,47131.846000,210.533,76.951,-127.502,367.663,379.882,-131.413,-732.040,-1074.490,-492.020
754,47131.886000,227.336,59.851,-108.576,352.234,385.492,-134.263,-349.040,-816.490,-499.020
755,47131.928000,220.417,54.821,-105.588,330.036,391.942,-140.051,2.960,-533.490,-420.020
756,47131.967000,227.336,54.821,-63.751,319.427,395.678,-141.952,71.960,-352.490,-281.020
757,47132.7000,222.394,48.786,-31.875,313.660,399.505,-141.879,-159.040,-100.490,-8.020
758,47132.31000,191.753,76.951,-80.685,315.620,399.761,-131.082,-505.040,21.510,179.980
759,47132.66000,229.313,5.532,-9.961,322.408,396.462,-107.605,-1100.040,156.510,477.980
760,47132.106000,191.753,-30.680,-74.708,333.036,391.150,-89.068,-664.040,498.510,873.980
761,47132.150000,236.232,74.939,-102.599,346.473,378.812,-82.449,-67.040,113.510,689.980
762,47132.192000,249.081,59.851,-115.549,359.920,366.560,-71.905,-365.040,169.510,833.980
763,47132.233000,269.838,118.193,-92.638,369.520,357.139,-63.268,-306.040,476.510,881.980
764,47132.267000,284.664,127.246,-74.708,384.895,342.209,-42.973,-365.040,605.510,829.980
765,47132.306000,271.815,101.092,-70.724,395.423,328.009,-31.498,236.960,706.510,669.980
766,47132.333000,264.896,83.992,-64.747,403.034,312.766,-22.014,50.960,472.510,513.980
767,47132.379000,238.208,48.786,-63.751,406.882,309.072,-15.223,-77.040,244.510,344.980
768,47132.409000,224.371,42.750,-63.751,410.752,309.109,-15.214,-19.040,32.510,124.980
769,47132.450000,226.347,54.821,-71.720,411.667,304.221,-17.282,48.960,-78.490,6.980
770,47132.494000,223.382,68.904,-89.650,410.761,310.965,-19.096,88.960,-113.490,-72.020
771,47132.530000,222.394,62.868,-89.650,405.856,304.985,-24.142,55.960,-134.490,-108.020
772,47132.592000,231.290,70.916,-87.658,405.887,308.803,-26.999,154.960,-134.490,-162.020
773,47132.609000,234.255,73.933,-87.658,404.022,317.371,-33.677,155.960,-190.490,-219.020
774,47132.649000,244.139,67.898,-87.658,397.248,319.053,-42.480,124.960,-249.490,-338.020
775,47132.669000,248.093,74.939,-83.673,387.626,325.625,-48.239,51.960,-335.490,-466.020
776,47132.709000,258.965,69.910,-73.712,381.881,333.185,-54.948,50.960,-439.490,-675.020
777,47132.749000,276.757,59.851,-66.739,368.471,350.183,-70.289,112.960,-558.490,-817.020
778,47132.789000,310.363,58.845,-47.813,355.082,370.029,-88.509,290.960,-724.490,-974.020
779,47132.829000,292.571,38.727,-60.763,327.095,382.744,-115.745,721.960,-823.490,-1130.020
780,47132.875000,303.444,11.568,-49.805,305.825,392.353,-154.803,1125.960,-1099.490,-1210.020
781,47132.909000,281.699,64.880,-200.218,273.035,409.746,-187.828,419.960,-1649.490,-1057.020
782,47132.949000,202.625,102.098,-191.253,250.852,420.748,-207.244,-10.040,-1436.490,-749.020
783,47132.976000,153.205,-19.615,-42.833,245.959,417.529,-219.094,708.960,-166.490,-302.020
784,47133.10000,105.761,14.585,-69.728,258.379,407.339,-246.752,1951.960,893.510,59.980
785,47133.49000,100.819,71.921,-73.712,292.909,380.171,-261.992,1586.960,1891.510,378.980
786,47133.89000,135.413,87.010,-117.541,337.240,359.591,-246.665,835.960,2449.510,483.980
787,47133.135000,157.158,86.004,-131.486,390.404,345.589,-200.773,408.960,2910.510,686.980
788,47133.167000,239.197,86.004,-184.280,438.677,325.737,-154.040,938.960,2997.510,655.980
789,47133.209000,272.803,126.240,-249.027,457.961,312.096,-120.960,1569.960,2696.510,261.980
790,47133.249000,202.625,128.251,-266.957,475.366,304.261,-87.754,1466.960,1833.510,-52.020
791,47133.289000,184.834,102.098,-229.105,478.186,291.172,-66.465,1006.960,1059.510,13.980
792,47133.309000,122.564,126.240,-327.720,481.123,293.293,-59.547,775.960,229.510,97.980
793,47133.349000,223.382,19.615,-49.805,484.017,294.120,-67.367,-554.040,-624.490,38.980
794,47133.389000,242.162,-31.686,-126.506,491.636,282.480,-70.552,88.960,-34.490,287.980
795,47133.429000,248.093,60.857,-70.724,487.707,275.711,-67.768,-53.040,42.510,167.980
796,47133.469000,272.803,38.727,-48.809,497.349,271.965,-65.870,169.960,221.510,225.980
797,47133.514000,259.954,38.727,-50.802,496.371,270.100,-61.991,-49.040,67.510,207.980
798,47133.549000,253.035,14.585,-55.782,500.271,273.072,-60.936,-96.040,-41.490,74.980
799,47133.589000,236.232,39.733,-74.708,499.240,266.288,-60.108,116.960,108.510,38.980
800,47133.631000,253.035,29.674,-63.751,501.165,264.451,-56.222,128.960,238.510,77.980
801,47133.651000,250.069,33.697,-66.739,503.116,264.621,-49.349,147.960,392.510,116.980
802,47133.686000,250.069,44.762,-47.813,507.982,264.064,-32.680,-127.040,539.510,151.980
803,47133.729000,253.035,26.656,-21.914,507.000,261.272,-26.860,-113.040,365.510,97.980
804,47133.770000,247.104,17.603,-27.891,510.857,258.548,-20.048,-42.040,242.510,61.980
805,47133.810000,249.081,24.644,-29.883,511.751,250.812,-19.237,12.960,186.510,12.980
806,47133.856000,256.988,24.644,-34.864,507.909,251.917,-11.375,-68.040,176.510,-3.020
807,47133.890000,249.081,18.609,-26.895,510.928,262.755,-5.245,-32.040,192.510,-31.020
808,47133.931000,251.058,20.621,-29.883,510.923,261.827,-3.304,22.960,228.510,-63.020
809,47133.953000,252.046,24.644,-28.887,504.186,263.854,3.592,27.960,303.510,-93.020
810,47133.989000,251.058,26.656,-27.891,506.172,267.885,9.569,58.960,388.510,-79.020
811,47134.30000,249.081,38.727,-13.946,506.164,265.167,18.335,51.960,444.510,-52.020
812,47134.70000,255.012,11.568,-11.953,503.274,263.499,32.021,-47.040,432.510,-31.020
813,47134.111000,254.023,35.709,-23.907,500.484,273.352,40.079,357.960,594.510,-53.020
814,47134.157000,248.093,70.916,-6.973,495.678,273.607,53.804,-88.040,678.510,-125.020
815,47134.190000,242.162,50.798,-4.981,490.809,266.202,72.262,-298.040,718.510,-1.020
816,47134.234000,257.977,33.697,7.969,487.966,268.504,89.959,-145.040,844.510,-58.020
817,47134.272000,265.884,59.851,18.926,484.151,270.753,105.691,-185.040,697.510,-89.020
818,47134.292000,283.676,-0.503,38.848,481.350,277.866,121.534,-183.040,382.510,-46.020
819,47134.331000,281.699,28.668,45.821,475.557,278.802,122.523,127.960,257.510,-70.020
820,47134.369000,222.394,46.774,49.805,474.583,277.843,123.480,-154.040,-56.490,20.980
821,47134.410000,208.556,42.750,33.868,475.556,280.550,113.736,-376.040,-505.490,56.980
822,47134.449000,206.579,24.644,41.837,479.394,280.285,100.009,-269.040,-696.490,-100.020
823,47134.488000,200.649,38.727,45.821,477.475,284.819,86.376,351.960,-490.490,-168.020
824,47134.530000,224.371,34.703,58.770,478.456,289.359,71.769,219.960,-457.490,-72.020
825,47134.574000,234.255,48.786,52.794,479.354,284.298,61.852,219.960,-210.490,-61.020
826,47134.601000,240.185,43.756,59.767,478.401,286.188,59.931,-223.040,-199.490,30.980
827,47134.632000,250.069,37.721,74.708,485.102,278.530,61.736,-606.040,-175.490,154.980
828,47134.670000,248.093,41.745,71.720,487.026,275.809,69.525,-673.040,-116.490,171.980
829,47134.710000,241.174,19.615,38.848,489.853,268.070,69.359,-419.040,-221.490,84.980
830,47134.751000,234.255,23.639,8.965,491.866,276.762,66.614,-37.040,-365.490,-24.020
831,47134.794000,247.104,20.621,30.879,496.643,272.710,56.728,-153.040,-504.490,-11.020
832,47134.829000,269.838,27.662,-29.883,499.528,272.566,48.886,-172.040,-561.490,79.980
833,47134.882000,267.861,44.762,-19.922,499.475,271.185,30.222,-192.040,-875.490,-74.020
834,47134.911000,250.069,47.780,-49.805,501.384,271.830,14.550,-75.040,-708.490,-28.020
835,47134.931000,253.035,53.815,-62.755,501.314,266.760,4.631,-137.040,-506.490,58.980
836,47134.972000,254.023,40.739,-48.809,506.121,263.873,3.596,-304.040,-335.490,123.980
837,47135.11000,259.954,39.733,-41.837,503.162,258.904,-0.443,-96.040,-179.490,124.980
838,47135.52000,251.058,27.662,-43.829,507.957,255.024,-2.480,-260.040,-138.490,155.980
839,47135.89000,253.035,14.585,-40.840,510.895,258.914,-3.369,-194.040,-73.490,102.980
840,47135.128000,252.046,30.680,-42.833,509.876,253.123,-1.538,-149.040,20.510,54.980
841,47135.167000,255.012,25.650,-39.844,510.864,254.211,3.392,-244.040,23.510,32.980
842,47135.210000,251.058,27.662,-40.840,511.855,256.205,5.399,-304.040,61.510,-0.020
843,47135.227000,252.046,22.633,-27.891,507.042,257.280,12.278,-302.040,79.510,-34.020
844,47135.267000,246.116,5.532,-7.969,508.980,257.320,13.263,-207.040,20.510,-103.020
845,47135.312000,249.081,17.603,3.984,507.080,261.164,12.364,-274.040,-161.490,-175.020
846,47135.362000,248.093,31.686,-5.977,500.335,264.873,7.529,-220.040,-354.490,-206.020
847,47135.390000,249.081,34.703,-15.938,502.249,264.698,-1.297,-125.040,-565.490,-259.020
848,47135.437000,256.000,12.574,-40.840,496.566,279.895,-13.720,-54.040,-670.490,-286.020
849,47135.467000,263.907,-2.515,-34.864,493.635,280.471,-30.385,66.960,-597.490,-281.020
850,47135.511000,263.907,14.585,-40.840,488.868,290.779,-44.876,654.960,-633.490,-431.020
851,47135.550000,269.838,124.228,-101.603,480.111,290.220,-66.482,307.960,-667.490,-403.020
852,47135.574000,201.637,65.886,-172.327,475.374,302.578,-76.024,-53.040,-426.490,-156.020
853,47135.619000,205.591,78.963,-61.759,476.349,303.537,-76.981,358.960,163.510,-85.020
854,47135.652000,183.846,71.921,-159.377,468.621,304.454,-75.996,216.960,87.510,-117.020
855,47135.692000,217.452,41.745,-96.623,463.712,299.315,-86.908,552.960,-108.490,-52.020
856,47135.729000,249.081,167.481,-36.856,466.725,310.088,-83.721,-923.040,47.510,37.980
857,47135.769000,157.158,122.216,-242.054,468.640,307.281,-79.856,-862.040,-272.490,157.980
858,47135.809000,195.707,144.346,-201.214,460.958,314.799,-87.551,-1564.040,-1037.490,35.980
859,47135.849000,186.811,148.369,-180.296,451.428,331.059,-94.075,-1871.040,-1329.490,-113.020
860,47135.867000,202.625,138.310,-176.311,429.245,341.176,-109.587,-1298.040,-1509.490,-409.020
861,47135.909000,210.533,132.275,-155.393,397.474,359.959,-123.947,-954.040,-1493.490,-599.020
862,47135.951000,199.660,112.157,-132.482,373.475,380.888,-132.359,-895.040,-1336.490,-658.020
863,47135.991000,194.718,82.986,-141.447,351.323,391.308,-134.136,-745.040,-1196.490,-677.020
864,47136.52000,209.544,63.874,-123.518,331.058,398.639,-144.803,-91.040,-835.490,-621.020
865,47136.69000,223.382,57.839,-90.646,306.016,410.908,-149.487,84.960,-616.490,-525.020
866,47136.114000,205.591,25.650,-105.588,293.369,404.831,-155.533,284.960,-356.490,-323.020
867,47136.149000,168.031,55.827,-151.409,284.729,413.311,-163.208,514.960,-195.490,-117.020
868,47136.214000,182.857,54.821,-8.965,284.629,402.674,-161.483,-242.040,-177.490,242.980
869,47136.223000,193.730,61.862,-26.895,298.220,402.375,-136.944,-1205.040,202.510,530.980
870,47136.270000,143.320,44.762,-196.233,307.958,403.073,-109.450,-1544.040,281.510,978.980
871,47136.291000,213.498,163.458,-106.584,321.417,389.181,-85.213,-1030.040,49.510,937.980
872,47136.334000,262.919,72.927,-122.521,342.606,375.279,-64.883,-805.040,271.510,1084.980
873,47136.375000,273.792,25.650,-100.607,358.994,365.191,-45.460,-274.040,457.510,849.980
874,47136.435000,245.127,66.892,-81.681,372.429,351.947,-35.919,-144.040,411.510,806.980
875,47136.560000,252.046,132.275,-74.708,384.874,335.845,-23.501,-136.040,385.510,682.980
876,47136.645000,262.919,81.980,-80.685,389.638,327.262,-18.778,-173.040,279.510,517.980
877,47136.682000,261.931,71.921,-80.685,392.446,316.697,-15.084,133.960,174.510,269.980
878,47136.690000,251.058,87.010,-79.689,397.252,313.810,-16.119,45.960,20.510,105.980
879,47136.696000,245.127,87.010,-89.650,396.351,321.481,-19.873,216.960,-90.490,-40.020
880,47136.705000,222.394,71.921,-88.654,395.359,320.350,-26.765,245.960,-122.490,-110.020
881,47136.711000,196.695,78.963,-98.615,392.438,320.149,-34.621,380.960,-112.490,-173.020
882,47136.719000,209.544,90.028,-93.634,388.631,327.749,-40.344,167.960,-165.490,-250.020
883,47136.760000,218.440,89.022,-104.591,385.755,331.496,-45.170,171.960,-190.490,-305.020
884,47136.791000,232.278,89.022,-99.611,379.068,341.053,-48.895,206.960,-203.490,-431.020
885,47136.831000,238.208,86.004,-104.591,368.467,347.508,-59.561,274.960,-189.490,-538.020
886,47136.852000,247.104,79.969,-98.615,355.976,357.892,-67.202,270.960,-216.490,-685.020
887,47136.892000,260.942,58.845,-97.619,342.540,372.000,-81.628,567.960,-224.490,-778.020
888,47136.939000,247.104,67.898,-91.642,330.966,381.034,-106.949,814.960,-380.490,-784.020
889,47136.972000,264.896,65.886,-51.798,315.560,392.145,-124.386,354.960,-588.490,-758.020
890,47137.9000,266.873,74.939,-84.669,304.974,400.499,-136.972,-198.040,-1078.490,-577.020
891,47137.52000,256.000,83.992,-151.409,287.601,406.888,-147.654,-696.040,-1426.490,-560.020
892,47137.96000,194.718,87.010,-212.171,274.194,422.161,-153.227,-754.040,-1374.490,-261.020
893,47137.139000,169.019,5.532,-93.634,271.347,430.590,-165.795,163.960,-415.490,-136.020
894,47137.174000,128.494,-20.621,-67.735,281.788,416.433,-196.487,1720.960,485.510,101.980
895,47137.194000,101.807,98.075,-96.623,307.532,383.139,-221.689,2278.960,1576.510,398.980
896,47137.244000,136.402,129.257,-107.580,345.148,369.202,-210.151,927.960,1983.510,484.980
897,47137.280000,167.042,92.039,-108.576,372.198,360.297,-185.775,197.960,2382.510,700.980
898,47137.314000,211.521,89.022,-171.331,414.663,343.883,-156.630,1425.960,2740.510,588.980
899,47137.355000,252.046,143.340,-208.187,450.295,320.651,-125.689,2252.960,2722.510,78.980
900,47137.395000,232.278,71.921,-234.086,466.665,307.758,-101.424,2272.960,2256.510,-216.020
901,47137.436000,196.695,141.328,-240.062,471.472,300.470,-81.963,1727.960,1346.510,-152.020
902,47137.475000,162.100,105.116,-277.914,478.283,302.671,-73.074,579.960,497.510,82.980
903,47137.495000,202.625,134.287,-149.416,478.230,297.752,-76.125,-269.040,-422.490,144.980
904,47137.546000,178.903,42.750,-123.518,482.099,297.790,-76.116,-680.040,-102.490,324.980
905,47137.576000,286.641,20.621,-94.630,487.842,290.209,-70.388,340.960,444.510,248.980
906,47137.616000,250.069,67.898,-57.774,495.472,276.908,-60.861,-59.040,425.510,266.980
907,47137.656000,254.023,30.680,-37.852,496.439,275.148,-53.052,95.960,389.510,271.980
908,47137.692000,255.012,25.650,-49.805,504.157,272.376,-50.156,129.960,289.510,200.980
909,47137.732000,242.162,21.627,-46.817,500.234,265.672,-44.429,82.960,262.510,139.980
910,47137.772000,261.931,52.809,-51.798,504.061,260.014,-38.662,9.960,324.510,114.980
911,47137.814000,248.093,43.756,-43.829,507.009,262.242,-26.839,-165.040,477.510,227.980
912,47137.834000,247.104,29.674,-36.856,504.058,254.706,-15.244,-4.040,477.510,164.980
913,47137.874000,252.046,30.680,-18.926,507.953,254.981,-4.443,-214.040,347.510,156.980
914,47137.914000,248.093,1.509,-6.973,508.936,254.257,6.331,37.960,272.510,111.980
915,47137.955000,247.104,31.686,-6.973,509.889,252.368,8.252,72.960,140.510,19.980
916,47138.4000,260.942,23.639,-30.879,510.776,243.683,10.022,-56.040,51.510,15.980
917,47138.30000,249.081,18.609,-33.868,512.781,250.541,12.140,-137.040,169.510,-6.020
918,47138.84000,245.127,22.633,-20.918,504.133,255.418,17.133,-34.040,279.510,13.980
919,47138.112000,251.058,10.562,-16.934,513.806,253.743,24.962,138.960,352.510,-16.020
920,47138.131000,255.012,28.668,-11.953,510.952,256.821,33.850,42.960,331.510,-60.020
921,47138.171000,253.035,28.668,-12.949,506.116,255.027,42.626,34.960,417.510,-66.020
922,47138.211000,257.977,17.603,-9.961,501.353,260.093,54.497,-2.040,526.510,-26.020
923,47138.251000,247.104,3.521,5.977,501.348,257.396,64.243,375.960,724.510,-27.020
924,47138.291000,260.942,56.833,13.946,499.503,263.526,79.085,265.960,730.510,-126.020
925,47138.331000,262.919,61.862,11.953,495.745,272.485,91.044,-59.040,526.510,-131.020
926,47138.374000,276.757,37.721,11.953,493.807,269.790,101.768,-312.040,307.510,-79.020
927,47138.411000,305.421,1.509,27.891,485.118,271.647,101.791,145.960,100.510,-108.020
928,47138.453000,267.861,33.697,37.852,484.270,285.985,92.300,522.960,-59.490,-110.020
929,47138.474000,215.475,51.804,5.977,479.415,285.765,84.440,329.960,-108.490,30.980
930,47138.514000,205.591,59.851,13.946,482.285,283.723,78.517,-285.040,-436.490,29.980
931,47138.554000,206.579,18.609,23.907,482.295,286.463,70.732,-268.040,-497.490,-82.020
932,47138.594000,220.417,19.615,43.829,480.274,280.338,57.843,347.960,-303.490,-69.020
933,47138.634000,221.405,51.804,66.739,480.341,288.903,50.188,252.960,-107.490,10.980
934,47138.671000,243.151,36.715,49.805,478.336,282.045,48.071,-151.040,36.510,63.980
935,47138.717000,253.035,32.692,64.747,481.247,282.160,52.002,-335.040,103.510,112.980
936,47138.751000,246.116,30.680,69.728,482.185,276.603,63.649,-494.040,92.510,176.980
937,47138.795000,243.151,22.633,63.751,483.102,269.967,70.368,-468.040,108.510,168.980
938,47138.814000,244.139,21.627,77.696,484.093,271.077,76.279,-264.040,126.510,86.980
939,47138.854000,235.243,20.621,61.759,487.938,267.361,82.088,-50.040,86.510,38.980
940,47138.895000,220.417,10.562,19.922,491.831,269.383,84.103,-7.040,-118.490,9.980
941,47138.937000,225.359,23.639,-26.895,495.627,264.308,72.230,116.960,-521.490,-76.020
942,47138.972000,256.988,23.639,74.708,496.598,266.993,61.504,-207.040,-667.490,-80.020
943,47139.11000,307.398,26.656,-14.942,501.350,261.819,44.728,-125.040,-856.490,-94.020
944,47139.51000,265.884,96.063,-31.875,500.422,270.116,25.297,473.960,-970.490,-141.020
945,47139.92000,239.197,76.951,-66.739,496.538,273.465,2.808,-173.040,-901.490,-30.020
946,47139.111000,253.035,54.821,-58.770,503.201,263.672,-4.260,-333.040,-621.490,119.980
947,47139.155000,266.873,14.585,-54.786,500.271,262.500,-12.137,170.960,-245.490,102.980
948,47139.194000,259.954,40.739,-48.809,506.070,264.261,-22.873,-10.040,-156.490,119.980
949,47139.237000,256.000,25.650,-54.786,507.015,260.538,-16.089,-95.040,-81.490,116.980
950,47139.275000,252.046,22.633,-46.817,511.852,260.585,-16.078,-89.040,154.510,109.980
951,47139.315000,249.081,25.650,-32.872,506.984,256.719,-13.232,-159.040,160.510,89.980
952,47139.356000,252.046,17.603,-30.879,509.876,254.007,-5.441,-200.040,123.510,70.980
953,47139.396000,246.116,15.591,-15.938,510.857,255.031,-3.455,-213.040,56.510,44.980
954,47139.436000,252.046,15.591,-19.922,508.923,255.012,-3.459,11.960,11.510,-29.020
955,47139.457000,249.081,27.662,-21.914,507.983,257.031,0.506,-17.040,-24.490,-56.020
956,47139.535000,255.012,17.603,-24.903,507.922,251.162,-1.586,-37.040,-63.490,-64.020
957,47139.565000,247.104,29.674,-25.899,506.999,255.986,-2.461,-120.040,-49.490,-63.020
958,47139.581000,257.977,22.633,-24.903,505.053,254.974,-3.468,-83.040,-109.490,-81.020
959,47139.635000,245.127,27.662,-25.899,508.946,257.882,-5.357,-88.040,-122.490,-117.020
960,47139.656000,252.046,18.609,-22.911,502.271,268.430,-8.079,-51.040,-231.490,-195.020
961,47139.695000,248.093,30.680,-36.856,502.264,268.366,-11.022,-2.040,-245.490,-249.020
962,47139.736000,263.907,46.774,-50.802,495.571,277.857,-17.690,-45.040,-199.490,-258.020
963,47139.772000,270.826,71.921,-56.778,493.754,289.532,-15.474,-233.040,-109.490,-271.020
964,47139.829000,245.127,60.857,-61.759,488.947,292.419,-14.439,-307.040,-56.490,-199.020
965,47139.845000,234.255,49.792,-96.623,488.961,294.318,-16.358,0.960,-175.490,-210.020
966,47139.872000,192.741,102.098,-182.288,481.249,299.787,-29.002,-48.040,-730.490,-302.020
967,47139.916000,190.764,153.399,-256.000,468.632,303.677,-67.188,-965.040,-2037.490,-464.020
968,47139.962000,234.255,45.768,-79.689,446.585,331.832,-100.932,-1241.040,-2093.490,-542.020
969,47140.4000,254.023,-63.874,94.630,430.205,343.753,-125.219,74.960,-818.490,-344.020
970,47140.32000,292.571,-12.574,125.510,433.098,342.811,-125.234,433.960,412.510,94.980
971,47140.74000,325.189,48.786,31.875,439.809,333.492,-110.716,45.960,1219.510,565.980
972,47140.96000,214.486,44.762,-259.984,456.120,312.983,-79.756,-385.040,1021.510,557.980
973,47140.137000,170.008,317.360,-230.101,460.970,311.391,-66.052,-607.040,-172.490,216.980
974,47140.182000,189.776,134.287,-241.058,460.078,318.263,-61.979,-1468.040,-947.490,157.980
975,47140.214000,167.042,212.747,-221.136,444.671,329.375,-79.416,-1226.040,-1383.490,-332.020
976,47140.256000,203.614,168.487,-184.280,420.563,342.213,-102.718,-560.040,-1643.490,-825.020
977,47140.296000,214.486,160.440,-140.451,395.535,359.897,-125.914,-9.040,-1614.490,-1074.020
978,47140.336000,208.556,124.228,-112.560,354.983,374.366,-156.079,205.960,-1366.490,-1089.020
979,47140.376000,197.683,98.075,-78.693,323.244,396.968,-173.296,149.960,-1151.490,-973.020
980,47140.404000,190.764,88.016,-68.732,300.109,408.996,-189.749,92.960,-785.490,-671.020
981,47140.436000,176.927,73.933,-74.708,281.707,407.738,-194.719,-86.040,-495.490,-451.020
982,47140.480000,175.938,25.650,-57.774,267.254,412.559,-189.739,-123.040,-76.490,-193.020
983,47140.520000,188.788,-4.527,-23.907,272.110,414.548,-189.685,65.960,417.510,85.980
984,47140.563000,162.100,33.697,-231.097,281.730,408.838,-188.811,600.960,877.510,416.980
985,47140.596000,189.776,68.904,-148.420,290.307,395.353,-188.111,563.960,391.510,403.980
986,47140.634000,192.741,143.340,-147.424,301.838,385.908,-181.432,-428.040,347.510,683.980
987,47140.677000,220.417,89.022,-122.521,316.286,374.874,-160.072,-845.040,392.510,872.980
988,47140.716000,285.652,-19.615,-114.553,333.668,368.571,-145.465,-109.040,499.510,896.980
989,47140.735000,238.208,115.175,-84.669,348.105,359.198,-136.817,-25.040,398.510,746.980
990,47140.800000,263.907,81.980,-106.584,361.437,337.043,-135.319,308.960,381.510,552.980
991,47140.886000,280.710,76.951,-113.556,364.335,336.144,-133.372,337.960,333.510,386.980
992,47140.900000,246.116,64.880,-114.553,370.069,329.361,-135.472,145.960,212.510,283.980
993,47140.927000,220.417,66.892,-120.529,377.777,325.618,-132.597,77.960,174.510,184.980
994,47140.941000,209.544,75.945,-120.529,380.698,326.703,-128.644,9.960,182.510,181.980
995,47141.16000,194.718,60.857,-115.549,386.450,320.093,-122.894,-30.040,197.510,185.980
996,47141.31000,199.660,52.809,-111.564,387.361,313.393,-119.118,20.960,206.510,171.980
997,47141.54000,211.521,55.827,-105.588,390.312,318.297,-118.023,53.960,207.510,157.980
998,47141.75000,232.278,57.839,-105.588,389.241,306.723,-114.359,76.960,177.510,123.980
999,47141.124000,234.255,47.780,-96.623,391.239,312.632,-111.282,73.960,130.510,68.980
1000,47141.157000,233.266,57.839,-107.580,397.032,311.696,-112.271,48.960,60.510,-0.020
1001,47141.214000,227.336,57.839,-107.580,391.147,302.945,-110.516,11.960,60.510,-26.020
1002,47141.248000,223.382,51.804,-107.580,396.999,307.856,-110.395,-26.040,96.510,-46.020
1003,47141.277000,223.382,52.809,-105.588,393.206,313.837,-101.444,-65.040,120.510,-63.020
1004,47141.319000,224.371,56.833,-100.607,391.250,311.855,-102.473,-89.040,118.510,-105.020
1005,47141.371000,219.429,54.821,-98.615,390.367,319.699,-98.378,-138.040,89.510,-134.020
1006,47141.379000,225.359,54.821,-92.638,386.518,320.740,-93.460,-154.040,47.510,-191.020
1007,47141.417000,226.347,55.827,-85.665,388.467,322.658,-95.375,-106.040,-10.490,-258.020
1008,47141.457000,245.127,61.862,-92.638,377.858,325.510,-93.372,-94.040,-51.490,-317.020
1009,47141.504000,267.861,76.951,-82.677,373.127,336.163,-92.165,-31.040,-137.490,-424.020
1010,47141.539000,257.977,89.022,-71.720,363.568,349.510,-98.754,-54.040,-284.490,-497.020
1011,47141.579000,240.185,63.874,-64.747,360.730,357.141,-103.494,140.960,-406.490,-614.020
1012,47141.619000,225.359,71.921,-67.735,348.179,362.542,-117.129,210.960,-453.490,-651.020
1013,47141.657000,233.266,81.980,-107.580,327.907,370.693,-134.643,234.960,-722.490,-678.020
1014,47141.696000,238.208,79.969,-129.494,316.434,388.617,-152.902,66.960,-889.490,-623.020
1015,47141.714000,216.463,75.945,-136.467,303.887,394.061,-164.576,-112.040,-788.490,-451.020
1016,47141.755000,185.822,58.845,-61.759,299.068,395.955,-164.544,-270.040,-313.490,-169.020
1017,47141.799000,172.973,52.809,-52.794,305.899,401.868,-163.417,55.960,420.510,205.980
1018,47141.839000,168.031,87.010,-73.712,317.423,392.359,-159.681,252.960,879.510,395.980
1019,47141.880000,189.776,104.110,-85.665,337.733,388.975,-145.985,187.960,1213.510,492.980
1020,47141.914000,215.475,123.222,-104.591,362.840,380.849,-129.441,-21.040,1386.510,536.980
1021,47141.955000,220.417,127.246,-113.556,381.188,371.902,-103.123,-218.040,1297.510,515.980
1022,47141.996000,233.266,112.157,-124.514,396.634,364.696,-84.618,-10.040,1062.510,394.980
1023,47142.17000,232.278,118.193,-134.475,409.179,359.230,-73.925,326.960,876.510,229.980
1024,47142.57000,213.498,119.198,-122.521,417.834,352.649,-68.169,372.960,539.510,101.980
1025,47142.95000,200.649,118.193,-114.553,425.606,354.795,-62.221,252.960,377.510,52.980
1026,47142.136000,195.707,87.010,-102.599,427.559,356.756,-62.173,54.960,254.510,54.980
1027,47142.177000,207.568,78.963,-108.576,434.274,349.228,-54.481,223.960,289.510,-6.020
1028,47142.217000,212.510,87.010,-101.603,433.347,354.008,-57.319,445.960,219.510,-47.020
1029,47142.257000,213.498,88.016,-123.518,436.231,352.979,-61.258,472.960,106.510,-21.020
1030,47142.297000,237.220,67.898,-72.716,438.124,349.956,-67.205,266.960,-24.490,110.980
1031,47142.337000,235.243,111.151,-66.739,437.062,340.238,-67.423,70.960,86.510,157.980
1032,47142.356000,239.197,70.916,-48.809,440.014,345.142,-66.328,-40.040,29.510,155.980
1033,47142.397000,246.116,61.862,-57.774,443.745,331.523,-69.564,333.960,68.510,170.980
1034,47142.437000,235.243,70.916,-54.786,443.736,331.436,-73.489,175.960,16.510,163.980
1035,47142.481000,238.208,71.921,-53.790,446.589,326.589,-74.571,208.960,2.510,175.980
1036,47142.516000,240.185,65.886,-63.751,451.361,320.724,-78.614,252.960,27.510,186.980
1037,47142.556000,240.185,67.898,-64.747,453.298,321.650,-81.531,163.960,61.510,213.980
1038,47142.596000,237.220,60.857,-66.739,457.099,313.985,-78.751,175.960,107.510,236.980
1039,47142.637000,242.162,60.857,-67.735,459.983,312.072,-78.788,140.960,193.510,267.980
1040,47142.657000,245.127,57.839,-65.743,468.640,306.396,-75.953,87.960,259.510,298.980
1041,47142.700000,249.081,56.833,-60.763,471.475,297.859,-68.292,51.960,329.510,342.980
1042,47142.740000,247.104,50.798,-52.794,477.166,283.611,-56.828,8.960,375.510,355.980
1043,47142.780000,242.162,25.650,-29.883,479.112,284.623,-55.821,33.960,335.510,327.980
1044,47142.820000,247.104,18.609,-20.918,482.894,275.017,-53.084,88.960,176.510,230.980
1045,47142.856000,248.093,32.692,-35.860,486.797,277.125,-47.145,25.960,58.510,170.980
1046,47142.896000,251.058,28.668,-39.844,487.701,271.245,-50.216,19.960,22.510,145.980
1047,47142.939000,249.081,33.697,-45.821,490.553,265.513,-47.395,61.960,67.510,134.980
1048,47142.980000,250.069,26.656,-36.856,491.513,263.688,-42.530,29.960,96.510,129.980
1049,47143.0,254.023,22.633,-34.864,494.366,258.841,-43.612,4.960,77.510,111.980
1050,47143.39000,252.046,22.633,-29.883,494.373,259.790,-44.572,25.960,33.510,68.980
1051,47143.81000,252.046,20.621,-32.872,498.297,264.747,-41.511,15.960,9.510,31.980
1052,47143.122000,250.069,21.627,-32.872,496.282,256.918,-43.651,38.960,-11.490,-12.020
1053,47143.165000,249.081,22.633,-30.879,491.393,251.973,-45.732,50.960,-29.490,-33.020
1054,47143.196000,249.081,23.639,-35.860,497.306,263.637,-47.422,76.960,-37.490,-50.020
1055,47143.235000,250.069,24.644,-36.856,491.512,265.436,-51.317,79.960,-61.490,-79.020
1056,47143.277000,250.069,25.650,-38.848,490.506,261.543,-51.406,68.960,-69.490,-111.020
1057,47143.297000,250.069,24.644,-40.840,487.701,272.129,-54.119,24.960,-79.490,-151.020
1058,47143.336000,249.081,32.692,-42.833,490.603,271.273,-50.209,-6.040,-78.490,-170.020
1059,47143.375000,249.081,33.697,-41.837,485.778,273.103,-53.120,-42.040,-70.490,-194.020
1060,47143.416000,248.093,34.703,-39.844,483.952,284.691,-54.828,-83.040,-71.490,-206.020
1061,47143.456000,246.116,38.727,-39.844,479.169,290.448,-55.691,-88.040,-73.490,-222.020
1062,47143.496000,247.104,38.727,-39.844,476.179,281.660,-56.873,-92.040,-79.490,-235.020
