Sample, Time, ACCX, ACCY, ACCZ, MAGX, MAGY, MAGZ, GYRX, GYRY, GYRZ
0,47207.641000,244.139,50.798,-32.872,437.870,316.709,-34.601,-3.040,52.510,46.980
1,47207.681000,244.139,49.792,-32.872,435.910,313.799,-33.690,-0.040,16.510,28.980
2,47207.721000,243.151,54.821,-36.856,437.870,315.824,-30.698,-12.040,-12.490,12.980
3,47207.757000,243.151,54.821,-37.852,439.836,319.662,-33.551,-19.040,-34.490,-1.020
4,47207.780000,243.151,55.827,-39.844,433.965,312.809,-33.716,-16.040,-45.490,-7.020
5,47207.830000,245.127,56.833,-41.837,436.882,314.736,-35.628,-8.040,-38.490,-2.020
6,47207.861000,242.162,55.827,-43.829,435.954,318.632,-34.563,-4.040,-16.490,4.980
7,47207.902000,245.127,59.851,-43.829,438.755,308.002,-33.812,-4.040,10.510,12.980
8,47207.950000,242.162,56.833,-40.840,438.850,317.711,-33.597,-7.040,11.510,14.980
9,47207.983000,245.127,54.821,-38.848,437.878,317.658,-35.561,-3.040,-2.490,5.980
10,47208.18000,244.139,56.833,-40.840,437.897,319.600,-35.518,-0.040,-21.490,-1.020
11,47208.65000,243.151,56.833,-41.837,438.850,317.711,-33.597,-5.040,-29.490,-6.020
12,47208.123000,243.151,56.833,-40.840,438.789,311.842,-35.688,-9.040,-35.490,-12.020
13,47208.131000,244.139,58.845,-43.829,437.772,306.957,-36.779,-5.040,-34.490,-13.020
14,47208.160000,242.162,58.845,-42.833,435.901,313.713,-37.614,-13.040,-29.490,-5.020
15,47208.201000,243.151,57.839,-42.833,437.875,317.637,-36.542,-8.040,-29.490,-0.020
16,47208.246000,242.162,57.839,-43.829,438.864,319.609,-35.516,-10.040,-25.490,-1.020
17,47208.285000,242.162,60.857,-44.825,436.948,322.417,-39.380,-11.040,-20.490,6.980
18,47208.327000,242.162,58.845,-46.817,434.940,314.652,-38.576,0.960,0.510,19.980
19,47208.362000,242.162,59.851,-45.821,436.936,320.540,-36.480,-1.040,26.510,31.980
20,47208.426000,242.162,58.845,-45.821,436.925,319.547,-37.482,-5.040,65.510,48.980
21,47208.442000,242.162,60.857,-46.817,437.875,316.752,-32.639,-8.040,85.510,62.980
22,47208.488000,245.127,58.845,-45.821,439.718,307.084,-31.869,-5.040,102.510,74.980
23,47208.516000,244.139,56.833,-40.840,441.664,308.095,-30.862,-1.040,106.510,84.980
24,47208.565000,245.127,57.839,-38.848,445.574,311.153,-25.883,14.960,113.510,92.980
25,47208.582000,244.139,53.815,-38.848,442.657,309.226,-23.970,42.960,129.510,111.980
26,47208.622000,243.151,54.821,-34.864,446.532,310.192,-25.902,59.960,133.510,114.980
27,47208.670000,247.104,49.792,-35.860,449.410,307.351,-23.998,128.960,139.510,137.980
28,47208.703000,247.104,48.786,-34.864,448.334,295.734,-22.296,164.960,147.510,137.980
29,47208.753000,248.093,44.762,-34.864,453.239,301.714,-17.250,122.960,155.510,141.980
30,47208.762000,245.127,46.774,-29.883,450.339,301.707,-16.276,46.960,158.510,149.980
31,47208.821000,254.023,34.703,-33.868,458.005,294.037,-15.449,-47.040,178.510,158.980
32,47208.856000,250.069,42.750,-33.868,456.976,286.391,-9.737,-62.040,229.510,128.980
33,47208.885000,253.035,28.668,-24.903,455.035,283.675,0.005,-46.040,256.510,87.980
34,47208.925000,249.081,34.703,-12.949,457.034,289.583,3.083,-71.040,216.510,32.980
35,47208.965000,249.081,25.650,-4.981,459.961,290.734,9.979,-101.040,119.510,-34.020
36,47209.10000,250.069,32.692,-7.969,457.967,284.868,8.864,-76.040,1.510,-121.020
37,47209.52000,248.093,40.739,-13.946,452.250,294.455,6.123,-39.040,-54.490,-155.020
38,47209.83000,253.035,43.756,-19.922,451.278,293.518,8.061,-23.040,-85.490,-179.020
39,47209.126000,251.058,43.756,-14.942,449.409,300.295,8.208,-148.040,-110.490,-216.020
40,47209.156000,245.127,49.792,-11.953,444.664,309.935,7.431,-193.040,-179.490,-252.020
41,47209.185000,247.104,53.815,-8.965,441.807,315.624,2.648,-176.040,-251.490,-271.020
42,47209.218000,248.093,66.892,-11.953,435.986,315.417,-4.234,-126.040,-356.490,-330.020
43,47209.271000,247.104,75.945,-20.918,432.735,326.597,241.173,-191.040,-450.490,-344.020
44,47209.305000,245.127,88.016,-23.907,431.235,326.761,-15.760,-199.040,-595.490,-370.020
45,47209.340000,260.942,93.045,-16.934,420.705,340.056,-24.313,-266.040,-674.490,-385.020
46,47209.380000,246.116,139.316,-34.864,414.003,349.461,-34.905,12.960,-583.490,-522.020
47,47209.403000,268.849,71.921,-39.844,404.333,353.811,-53.462,982.960,-251.490,-653.020
48,47209.445000,257.977,73.933,-43.829,393.781,368.659,-79.632,1285.960,-153.490,-738.020
49,47209.488000,227.336,47.780,-77.696,387.973,370.328,-89.414,561.960,-145.490,-273.020
50,47209.525000,206.579,42.750,-107.580,388.010,374.212,-89.328,-359.040,-261.490,120.980
51,47209.563000,190.764,29.674,-98.615,396.749,375.483,-79.475,-1033.040,-293.490,286.980
52,47209.603000,184.834,24.644,-106.584,399.622,369.945,-67.824,-742.040,-105.490,423.980
53,47209.638000,188.788,69.910,-89.650,408.258,361.422,-62.111,-424.040,1.510,399.980
54,47209.678000,206.579,75.945,-81.681,410.176,358.636,-57.265,-263.040,85.510,262.980
55,47209.733000,225.359,79.969,-72.716,408.174,350.936,-53.518,426.960,223.510,58.980
56,47209.742000,222.394,123.222,-44.825,409.170,353.858,-53.451,274.960,313.510,5.980
57,47209.787000,229.313,128.251,-57.774,410.146,353.954,-49.524,-158.040,365.510,55.980
58,47209.823000,243.151,68.904,-50.802,412.989,346.366,-42.822,-89.040,441.510,133.980
59,47209.863000,253.035,33.697,-35.860,413.951,344.563,-36.976,465.960,582.510,79.980
60,47209.903000,257.977,76.951,-24.903,415.933,348.552,-32.960,693.960,635.510,118.980
61,47209.943000,253.035,119.198,-23.907,420.710,340.983,-26.254,-222.040,366.510,206.980
62,47209.991000,245.127,66.892,-19.922,422.630,337.334,-16.524,48.960,342.510,208.980
63,47210.32000,247.104,72.927,-17.930,423.581,335.424,-15.584,241.960,309.510,191.980
64,47210.46000,237.220,68.904,-15.938,424.517,331.614,-12.724,-199.040,104.510,194.980
65,47210.86000,242.162,56.833,-5.977,423.566,332.640,-9.761,-23.040,25.510,167.980
66,47210.143000,243.151,54.821,-14.942,431.235,325.877,-11.857,66.960,-83.490,127.980
67,47210.165000,244.139,49.792,-17.930,429.289,325.750,-16.767,113.960,-127.490,92.980
68,47210.206000,245.127,63.874,-29.883,433.147,325.680,-21.664,153.960,-147.490,86.980
69,47210.245000,245.127,58.845,-30.879,434.106,325.603,-25.586,124.960,-154.490,97.980
70,47210.286000,247.104,61.862,-37.852,432.044,312.920,-27.833,140.960,-128.490,91.980
71,47210.332000,246.116,56.833,-38.848,438.807,312.899,-31.742,117.960,-98.490,118.980
72,47210.388000,244.139,59.851,-38.848,439.782,314.743,-36.602,135.960,-71.490,134.980
73,47210.397000,240.185,56.833,-34.864,440.688,308.884,-38.692,163.960,-47.490,153.980
74,47210.437000,248.093,51.804,-41.837,441.539,298.084,-44.814,298.960,-13.490,161.980
75,47210.466000,248.093,42.750,-44.825,447.403,304.872,-47.593,220.960,30.510,187.980
76,47210.522000,247.104,52.809,-49.805,450.298,303.951,-46.626,157.960,101.510,184.980
77,47210.545000,248.093,53.815,-47.813,448.299,297.158,-45.801,53.960,178.510,216.980
78,47210.590000,247.104,41.745,-37.852,455.979,290.502,-42.990,31.960,240.510,221.980
79,47210.631000,246.116,36.715,-21.914,455.927,283.835,-37.254,41.960,219.510,187.980
80,47210.665000,250.069,26.656,-23.907,455.931,282.994,-31.389,117.960,171.510,150.980
81,47210.685000,250.069,26.656,-17.930,461.717,281.109,-31.419,163.960,138.510,89.980
82,47210.732000,252.046,38.727,-34.864,462.665,279.176,-31.460,-35.040,121.510,53.980
83,47210.766000,255.012,28.668,-28.887,458.771,275.385,-25.668,-225.040,132.510,17.980
84,47210.806000,245.127,25.650,-22.911,461.697,276.513,-19.753,-201.040,162.510,-44.020
85,47210.847000,254.023,32.692,-23.907,463.694,281.537,-12.773,-334.040,137.510,-87.020
86,47210.880000,254.023,23.639,-6.973,459.930,290.432,-3.757,-448.040,85.510,-147.020
87,47210.923000,252.046,16.597,0.000,456.080,291.473,1.161,-341.040,12.510,-234.020
88,47210.963000,249.081,26.656,5.977,450.327,296.314,3.218,-270.040,-173.490,-374.020
89,47211.3000,245.127,36.715,8.965,442.664,304.890,-0.531,-185.040,-337.490,-443.020
90,47211.21000,244.139,63.874,-2.988,436.832,303.690,-8.415,-53.040,-513.490,-453.020
91,47211.61000,253.035,67.898,-17.930,437.040,327.702,-19.649,-16.040,-628.490,-457.020
92,47211.101000,248.093,83.992,-36.856,428.368,334.112,-33.255,-122.040,-690.490,-413.020
93,47211.143000,255.012,78.963,-47.813,422.583,338.651,-44.934,-157.040,-697.490,-316.020
94,47211.185000,220.417,86.004,-61.759,414.864,343.171,-56.618,-37.040,-568.490,-284.020
95,47211.225000,212.510,66.892,-68.732,407.201,352.631,-64.269,-3.040,-409.490,-235.020
96,47211.266000,237.220,79.969,-69.728,410.141,357.428,-68.079,90.960,-200.490,-218.020
97,47211.312000,229.313,83.992,-63.751,406.250,355.427,-69.113,196.960,142.510,-174.020
98,47211.346000,204.602,113.163,-64.747,406.307,360.367,-65.080,64.960,349.510,-76.020
99,47211.366000,230.301,88.016,-67.735,408.181,351.886,-54.477,-117.040,538.510,-25.020
100,47211.410000,228.324,74.939,-63.751,405.361,358.804,-47.465,91.960,534.510,-77.020
101,47211.446000,256.988,28.668,-45.821,410.228,360.901,-42.505,166.960,197.510,127.980
102,47211.517000,243.151,77.957,-24.903,412.153,359.064,-38.619,66.960,118.510,68.980
103,47211.533000,243.151,81.980,-3.984,413.055,352.278,-38.768,-76.040,-98.490,97.980
104,47211.566000,227.336,94.051,-37.852,412.097,354.124,-42.651,216.960,-66.490,72.980
105,47211.606000,231.290,63.874,-54.786,411.069,349.131,-48.648,147.960,-62.490,132.980
106,47211.647000,232.278,73.933,-56.778,416.803,341.463,-46.845,71.960,12.510,215.980
107,47211.666000,241.174,97.069,-52.794,420.706,345.341,-48.712,114.960,45.510,211.980
108,47211.707000,244.139,72.927,-41.837,424.477,335.627,-50.881,190.960,110.510,275.980
109,47211.747000,246.116,65.886,-38.848,429.241,327.929,-50.061,206.960,146.510,305.980
110,47211.782000,246.116,62.868,-42.833,434.064,326.078,-48.131,162.960,116.510,295.980
111,47211.823000,244.139,60.857,-41.837,433.972,317.275,-51.268,154.960,109.510,287.980
112,47211.866000,244.139,53.815,-35.860,440.685,311.494,-52.363,122.960,79.510,281.980
113,47211.906000,246.116,42.750,-32.872,443.561,308.632,-51.440,192.960,54.510,253.980
114,47211.946000,248.093,51.804,-40.840,450.245,300.801,-57.484,213.960,44.510,205.980
115,47211.991000,252.046,38.727,-40.840,453.154,300.894,-54.534,106.960,22.510,176.980
116,47212.11000,251.058,43.756,-45.821,453.038,289.222,-55.773,106.960,49.510,138.980
117,47212.46000,249.081,40.739,-42.833,456.009,296.068,-54.635,-8.040,94.510,126.980
118,47212.85000,250.069,38.727,-40.840,457.908,291.341,-49.832,-29.040,119.510,104.980
119,47212.125000,248.093,33.697,-31.875,458.894,292.407,-45.884,-69.040,92.510,53.980
120,47212.165000,246.116,28.668,-29.883,456.891,285.571,-47.020,-40.040,45.510,0.980
121,47212.205000,248.093,34.703,-29.883,456.024,295.335,-43.864,-101.040,-31.490,-78.020
122,47212.245000,248.093,32.692,-30.879,455.970,290.416,-46.915,-115.040,-76.490,-141.020
123,47212.285000,248.093,40.739,-32.872,455.116,302.057,-46.658,-178.040,-123.490,-212.020
124,47212.325000,246.116,45.768,-30.879,450.340,307.878,-44.578,-164.040,-154.490,-232.020
125,47212.350000,247.104,49.792,-35.860,446.457,307.711,-50.474,-126.040,-179.490,-248.020
126,47212.385000,244.139,52.809,-38.848,441.672,313.446,-52.318,-117.040,-184.490,-248.020
127,47212.425000,244.139,61.862,-44.825,437.882,322.103,-54.095,-89.040,-175.490,-236.020
128,47212.465000,240.185,63.874,-47.813,437.944,328.856,-55.906,-78.040,-147.490,-216.020
129,47212.505000,243.151,66.892,-47.813,431.155,326.869,-54.984,-76.040,-118.490,-192.020
130,47212.545000,242.162,65.886,-46.817,431.221,334.550,-58.736,-35.040,-95.490,-166.020
131,47212.586000,239.197,66.892,-46.817,427.323,331.600,-58.810,-23.040,-91.490,-155.020
132,47212.622000,239.197,69.910,-47.813,422.545,338.284,-61.613,-39.040,-77.490,-126.020
133,47212.645000,234.255,73.933,-48.809,422.576,341.218,-60.568,-57.040,-77.490,-98.020
134,47212.687000,236.232,72.927,-51.798,420.660,344.026,-64.432,-5.040,-59.490,-63.020
135,47212.730000,235.243,73.933,-52.794,417.748,343.026,-64.460,21.960,-41.490,-41.020
136,47212.765000,237.220,73.933,-53.790,419.731,347.900,-64.348,27.960,1.510,-10.020
137,47212.805000,238.208,75.945,-54.786,418.654,336.283,-62.647,15.960,34.510,11.980
138,47212.845000,237.220,74.939,-50.802,418.713,342.130,-61.536,13.960,71.510,42.980
139,47212.887000,239.197,70.916,-49.805,419.652,339.226,-61.599,33.960,95.510,56.980
140,47212.940000,237.220,69.910,-47.813,422.533,336.407,-58.713,3.960,104.510,67.980
141,47212.965000,239.197,69.910,-45.821,419.609,333.531,-55.841,3.960,108.510,76.980
142,47212.985000,242.162,67.898,-42.833,425.471,339.412,-55.698,12.960,107.510,82.980
143,47213.25000,242.162,65.886,-41.837,424.498,338.475,-53.760,-15.040,84.510,76.980
144,47213.68000,240.185,63.874,-38.848,428.382,340.412,-55.670,-22.040,50.510,67.980
145,47213.108000,239.197,62.868,-36.856,424.453,332.758,-48.983,13.960,-2.490,50.980
146,47213.145000,241.174,63.874,-41.837,427.311,328.838,-52.006,22.960,-36.490,39.980
147,47213.182000,239.197,63.874,-39.844,428.354,336.614,-51.832,42.960,-63.490,30.980
148,47213.223000,241.174,63.874,-45.821,429.277,332.676,-54.859,73.960,-59.490,32.980
149,47213.270000,240.185,64.880,-46.817,430.237,332.620,-57.800,84.960,-44.490,41.980
150,47213.283000,243.151,66.892,-46.817,431.141,326.740,-60.871,81.960,-30.490,52.980
151,47213.326000,240.185,63.874,-48.809,426.377,334.438,-61.691,69.960,-14.490,68.980
152,47213.367000,240.185,62.868,-46.817,432.064,322.801,-63.898,61.960,11.510,77.980
153,47213.407000,242.162,64.880,-46.817,431.132,325.769,-60.892,47.960,26.510,85.980
154,47213.447000,242.162,60.857,-44.825,434.997,325.764,-62.846,13.960,37.510,94.980
155,47213.488000,241.174,57.839,-45.821,437.852,320.938,-62.947,26.960,43.510,93.980
156,47213.522000,243.151,55.827,-43.829,433.940,316.089,-61.101,10.960,34.510,84.980
157,47213.566000,243.151,56.833,-44.825,436.878,319.979,-61.989,21.960,28.510,80.980
158,47213.606000,245.127,57.839,-43.829,438.766,315.143,-62.093,33.960,28.510,78.980
159,47213.623000,245.127,53.815,-44.825,442.666,318.115,-61.038,37.960,26.510,71.980
160,47213.666000,244.139,53.815,-42.833,444.579,315.286,-58.155,31.960,13.510,57.980
161,47213.707000,243.151,50.798,-42.833,448.449,315.324,-58.146,24.960,2.510,50.980
162,47213.747000,245.127,51.804,-41.837,444.542,312.287,-62.144,29.960,-9.490,36.980
163,47213.782000,246.116,51.804,-42.833,440.637,308.388,-61.258,29.960,-22.490,27.980
164,47213.822000,244.139,52.809,-43.829,441.642,312.281,-61.170,20.960,-26.490,22.980
165,47213.868000,244.139,53.815,-43.829,444.549,313.237,-63.104,27.960,-22.490,19.980
166,47213.910000,246.116,52.809,-43.829,443.553,310.315,-63.171,34.960,-20.490,20.980
167,47213.956000,246.116,52.809,-46.817,441.530,302.399,-69.235,37.960,-15.490,23.980
168,47213.970000,244.139,50.798,-43.829,444.476,306.376,-66.198,33.960,-10.490,26.980
169,47214.10000,243.151,49.792,-44.825,443.488,304.403,-67.225,37.960,-1.490,30.980
170,47214.50000,243.151,53.815,-47.813,447.402,309.274,-68.089,24.960,4.510,32.980
171,47214.90000,244.139,51.804,-43.829,445.406,302.502,-66.282,25.960,8.510,36.980
172,47214.130000,244.139,50.798,-43.829,445.394,301.509,-67.285,22.960,9.510,36.980
173,47214.170000,244.139,51.804,-45.821,444.455,304.413,-67.222,12.960,10.510,33.980
174,47214.210000,244.139,50.798,-44.825,446.411,306.395,-66.194,0.960,11.510,31.980
175,47214.246000,246.116,49.792,-44.825,447.405,309.295,-67.108,4.960,18.510,35.980
176,47214.266000,244.139,47.780,-45.821,448.280,299.618,-66.340,30.960,27.510,41.980
177,47214.307000,240.185,58.845,-41.837,445.423,304.422,-67.220,67.960,27.510,43.980
178,47214.347000,243.151,55.827,-47.813,450.220,300.564,-68.276,64.960,8.510,52.980
179,47214.388000,255.012,44.762,-44.825,448.316,303.479,-67.235,-113.040,79.510,58.980
180,47214.428000,241.174,47.780,-43.829,451.200,299.818,-58.484,-337.040,40.510,-14.020
181,47214.468000,244.139,45.768,-43.829,449.333,305.733,-53.454,-457.040,-58.490,-81.020
182,47214.508000,249.081,43.756,-39.844,448.349,303.803,-52.518,-416.040,-99.490,-122.020
183,47214.550000,246.116,35.709,-35.860,440.746,317.363,-50.271,-287.040,-120.490,-201.020
184,47214.585000,246.116,42.750,-28.887,441.678,313.510,-49.374,-288.040,-241.490,-320.020
185,47214.605000,247.104,38.727,-26.895,433.136,330.858,-50.969,-208.040,-331.490,-423.020
186,47214.651000,246.116,52.809,0.000,426.405,336.466,-57.723,-281.040,-497.490,-513.020
187,47214.687000,266.873,27.662,11.953,414.913,351.563,-72.122,-88.040,-939.490,-598.020
188,47214.723000,318.270,115.175,-63.751,408.074,348.218,-88.882,-13.040,-948.490,-452.020
189,47214.768000,239.197,-5.532,-120.529,402.400,363.501,-97.381,-526.040,-824.490,-78.020
190,47214.807000,94.888,162.452,7.969,408.237,363.860,-83.631,-455.040,149.510,104.980
191,47214.850000,61.282,-56.833,-354.615,415.025,361.445,-64.057,-772.040,761.510,410.980
192,47214.888000,202.625,281.147,-333.697,419.841,358.644,-61.167,-27.040,0.510,-97.020
193,47214.908000,226.347,27.662,-110.568,416.902,352.984,-52.473,132.960,520.510,45.980
194,47214.950000,303.444,155.411,-73.712,421.747,349.579,-32.925,-391.040,788.510,132.980
195,47214.990000,233.266,111.151,-145.432,418.905,350.134,-6.441,-151.040,999.510,178.980
196,47215.28000,178.903,51.804,-338.677,417.006,349.575,13.156,-834.040,223.510,103.980
197,47215.70000,133.436,129.257,-284.887,415.021,343.796,15.965,-2025.040,-1108.490,30.980
198,47215.108000,227.336,46.774,-278.910,406.321,344.660,14.986,-3581.040,-2947.490,151.980
199,47215.153000,305.421,-11.568,-258.988,396.619,343.423,7.092,-3282.040,-3540.490,-186.020
200,47215.188000,290.595,-21.627,-199.222,385.973,346.793,-11.488,-2527.040,-3568.490,-372.020
201,47215.230000,284.664,-77.957,-167.346,379.168,349.057,-37.930,-1556.040,-3226.490,-187.020
202,47215.251000,258.965,-57.839,-132.482,378.978,335.788,-67.645,-1078.040,-2806.490,618.980
203,47215.290000,247.104,-36.715,-96.623,387.447,316.866,-93.544,-1180.040,-2409.490,1148.980
204,47215.332000,224.371,13.580,-65.743,397.911,300.293,-101.735,-1480.040,-1785.490,1504.980
205,47215.367000,213.498,46.774,-39.844,405.408,276.032,-105.200,-1783.040,-1351.490,1650.980
206,47215.407000,205.591,44.762,-16.934,423.647,259.879,-97.675,-1756.040,-624.490,1569.980
207,47215.448000,177.915,57.839,-44.825,441.767,228.494,-76.758,-1136.040,216.510,1387.980
208,47215.511000,196.695,130.263,-136.467,456.188,212.799,-46.676,-682.040,1156.510,1204.980
209,47215.527000,293.560,155.411,-35.860,462.778,189.111,-23.652,-890.040,522.510,880.980
210,47215.547000,267.861,84.998,-50.802,469.466,176.923,-7.237,-449.040,613.510,857.980
211,47215.588000,256.988,105.116,-76.700,478.044,160.805,6.152,114.960,782.510,780.980
212,47215.631000,277.745,44.762,-80.685,476.986,148.476,19.606,-97.040,625.510,669.980
213,47215.687000,288.618,-2.515,-37.852,481.748,138.124,32.135,623.960,476.510,456.980
214,47215.708000,291.583,249.965,-116.545,482.652,131.359,32.967,717.960,108.510,69.980
215,47215.745000,198.672,58.845,-124.514,481.630,125.546,33.817,-251.040,113.510,190.980
216,47215.787000,230.301,79.969,-95.626,482.625,126.699,41.690,-200.040,228.510,177.980
217,47215.825000,223.382,69.910,-70.724,480.699,125.882,49.513,-142.040,178.510,106.980
218,47215.866000,221.405,52.809,-67.735,482.622,124.908,48.514,-169.040,59.510,26.980
219,47215.892000,229.313,64.880,-66.739,486.515,126.931,50.529,-54.040,-98.490,-104.020
220,47215.926000,226.347,74.939,-99.611,481.662,125.848,47.553,-11.040,-158.490,-160.020
221,47215.966000,226.347,75.945,-75.704,481.743,135.427,41.881,-102.040,-161.490,-244.020
222,47216.17000,245.127,55.827,-54.786,480.833,143.012,34.203,75.960,-405.490,-410.020
223,47216.45000,293.560,86.004,-79.689,479.945,155.214,15.839,128.960,-701.490,-626.020
224,47216.86000,346.934,150.381,-18.926,474.152,159.667,0.235,49.960,-943.490,-860.020
225,47216.145000,407.228,109.139,13.946,464.688,187.124,-26.634,359.960,-1211.490,-1281.020
226,47216.168000,413.158,56.833,-12.949,445.584,220.980,-67.111,848.960,-1256.490,-1724.020
227,47216.208000,223.382,5.532,-227.113,426.397,245.236,-102.897,1064.960,-1272.490,-1477.020
228,47216.233000,174.950,56.833,-142.444,409.124,268.432,-143.606,1773.960,-472.490,-1255.020
229,47216.266000,138.378,-1.509,-29.883,394.656,275.756,-157.204,1405.960,395.510,-1217.020
230,47216.308000,108.726,-4.527,-67.735,394.800,289.456,-151.996,1419.960,1594.510,-1070.020
231,47216.348000,133.436,-21.627,-109.572,394.909,297.546,-137.106,1417.960,2436.510,-972.020
232,47216.392000,176.927,-32.692,-109.572,397.058,313.703,-109.284,2267.960,3442.510,-924.020
233,47216.425000,197.683,-3.521,-140.451,402.993,321.181,-80.667,2757.960,3806.510,-896.020
234,47216.472000,278.734,-15.591,-161.370,409.879,328.496,-59.896,2802.960,3838.510,-811.020
235,47216.511000,337.050,-5.532,-202.210,410.942,336.466,-50.891,4068.960,3732.510,-1101.020
236,47216.528000,294.548,2.515,-190.257,408.268,360.645,-53.302,3990.960,3308.510,-1221.020
237,47216.568000,257.977,-4.527,-213.167,412.231,371.254,-57.961,3577.960,2606.510,-1010.020
238,47216.613000,190.764,15.591,-249.027,413.262,378.038,-58.789,2688.960,1872.510,-654.020
239,47216.650000,165.066,43.756,-206.195,416.167,378.973,-61.704,951.960,620.510,15.980
240,47216.688000,178.903,48.786,-183.284,423.798,367.441,-59.983,388.960,-30.490,136.980
241,47216.732000,191.753,62.868,-223.128,425.646,363.986,-85.553,183.960,-908.490,276.980
242,47216.768000,242.162,19.615,-78.693,435.170,350.316,-93.682,74.960,-230.490,541.980
243,47216.806000,271.815,119.198,-83.673,438.966,345.240,-105.554,254.960,-243.490,291.980
244,47216.848000,240.185,59.851,-73.712,445.579,330.571,-113.711,637.960,-75.490,391.980
245,47216.868000,241.174,42.750,-68.732,452.324,329.493,-121.566,475.960,23.510,311.980
246,47216.911000,253.035,50.798,-69.728,453.195,320.657,-126.664,474.960,41.510,213.980
247,47216.948000,237.220,57.839,-55.782,457.983,316.713,-131.644,414.960,75.510,204.980
248,47216.986000,235.243,45.768,-24.903,463.703,308.917,-135.728,188.960,-157.490,195.980
249,47217.27000,240.185,38.727,-55.782,464.547,298.052,-144.793,94.960,-347.490,215.980
250,47217.68000,243.151,45.768,-80.685,463.528,294.030,-150.769,64.960,-304.490,179.980
251,47217.108000,241.174,59.851,-79.689,464.435,289.056,-156.761,96.960,-182.490,184.980
252,47217.152000,246.116,37.721,-85.665,465.370,286.994,-162.689,97.960,-81.490,165.980
253,47217.172000,236.232,36.715,-72.716,469.212,284.119,-162.745,70.960,-5.490,141.980
254,47217.212000,233.266,35.709,-69.728,466.326,286.011,-163.690,276.960,29.510,94.980
255,47217.251000,241.174,32.692,-62.755,470.040,270.472,-165.988,404.960,13.510,65.980
256,47217.295000,241.174,31.686,-72.716,471.980,272.303,-171.827,487.960,39.510,34.980
257,47217.330000,236.232,44.762,-74.708,477.762,270.375,-173.819,464.960,54.510,7.980
258,47217.370000,248.093,58.845,-61.759,469.987,267.322,-176.845,261.960,105.510,77.980
259,47217.412000,247.104,-15.591,-47.813,473.845,265.483,-173.936,-172.040,-109.490,103.980
260,47217.450000,242.162,12.574,-69.728,473.829,265.332,-180.804,332.960,-205.490,-158.020
261,47217.495000,235.243,41.745,-72.716,465.083,263.111,-189.698,288.960,-159.490,-198.020
262,47217.512000,240.185,17.603,-82.677,459.334,270.627,-198.369,404.960,-162.490,-268.020
263,47217.550000,232.278,28.668,-94.630,457.409,273.348,-206.158,436.960,-94.490,-306.020
264,47217.591000,236.232,48.786,-98.615,452.527,269.353,-209.199,365.960,5.510,-306.020
265,47217.631000,235.243,42.750,-91.642,448.691,273.156,-211.084,384.960,74.510,-301.020
266,47217.671000,236.232,39.733,-85.665,445.803,275.026,-213.010,313.960,52.510,-332.020
267,47217.711000,225.359,55.827,-83.673,443.937,283.594,-219.688,293.960,-11.490,-406.020
268,47217.752000,219.429,52.809,-72.716,432.413,293.103,-223.424,301.960,-175.490,-496.020
269,47217.792000,234.255,52.809,-102.599,429.516,294.887,-229.274,462.960,32.510,-112.020
270,47217.832000,239.197,63.874,-83.673,431.401,289.145,-226.456,-163.040,-39.490,-44.020
271,47217.853000,207.568,86.004,-112.560,428.550,294.015,-224.393,134.960,128.510,120.980
272,47217.895000,220.417,31.686,-84.669,436.207,285.374,-223.588,-44.040,210.510,346.980
273,47217.936000,253.035,48.786,-70.724,443.918,281.652,-219.731,-65.040,228.510,340.980
274,47217.972000,237.220,58.845,-63.751,449.691,277.005,-212.958,5.960,232.510,308.980
275,47218.11000,241.174,49.792,-70.724,456.373,266.521,-207.292,-178.040,128.510,313.980
276,47218.50000,241.174,37.721,-79.689,455.379,262.736,-202.475,-245.040,55.510,267.980
277,47218.87000,243.151,32.692,-73.712,465.018,258.084,-197.655,-171.040,139.510,276.980
278,47218.142000,244.139,33.697,-82.677,467.946,260.119,-194.661,-224.040,114.510,260.980
279,47218.167000,248.093,28.668,-73.712,474.677,254.510,-187.907,-255.040,209.510,266.980
280,47218.187000,249.081,20.621,-71.720,482.418,252.838,-179.102,-333.040,308.510,240.980
281,47218.231000,246.116,19.615,-55.782,483.330,244.390,-166.539,-513.040,297.510,218.980
282,47218.270000,248.093,15.591,-51.798,489.192,247.640,-153.706,-535.040,264.510,168.980
283,47218.311000,246.116,21.627,-45.821,491.199,252.750,-142.801,-668.040,184.510,94.980
284,47218.360000,255.012,12.574,-49.805,494.149,255.001,-129.996,-724.040,159.510,43.980
285,47218.393000,245.127,29.674,-47.813,494.184,257.094,-123.085,-455.040,247.510,-45.020
286,47218.432000,244.139,12.574,-17.930,492.307,261.152,-114.173,-694.040,120.510,-60.020
287,47218.471000,250.069,24.644,-36.856,491.412,267.119,-107.178,-166.040,20.510,-143.020
288,47218.492000,252.046,29.674,-44.825,485.614,268.012,-108.151,-230.040,-24.490,-191.020
289,47218.532000,243.151,33.697,-42.833,486.739,282.735,-100.957,-338.040,-72.490,-230.020
290,47218.571000,253.035,36.715,-51.798,483.855,284.649,-100.921,-248.040,-22.490,-244.020
291,47218.612000,247.104,32.692,-44.825,477.177,293.407,-96.818,-383.040,-44.490,-324.020
292,47218.648000,238.208,47.780,-35.860,470.475,299.295,-90.817,-372.040,-43.490,-370.020
293,47218.691000,246.116,34.703,-24.903,463.868,315.777,-88.504,-343.040,-126.490,-466.020
294,47218.732000,256.988,53.815,-28.887,455.256,326.285,-92.211,-242.040,-293.490,-570.020
295,47218.772000,265.884,69.910,-24.903,447.620,337.774,-95.895,-327.040,-372.490,-602.020
296,47218.812000,261.931,58.845,-16.934,429.362,351.101,-99.560,-462.040,-576.490,-582.020
297,47218.832000,312.340,45.768,-60.763,422.729,365.576,-100.234,-559.040,-835.490,-270.020
298,47218.872000,261.931,35.709,-228.109,423.702,363.881,-89.482,-2531.040,-1430.490,653.980
299,47218.912000,175.938,95.057,-74.708,426.622,363.197,-77.723,-2693.040,-1326.490,655.980
300,47218.952000,136.402,82.986,-69.728,434.317,354.923,-60.239,-2199.040,-1022.490,728.980
301,47218.991000,106.749,22.633,-152.405,434.199,341.461,-54.654,-778.040,-398.490,388.980
302,47219.32000,208.556,231.859,-12.949,439.125,345.887,-31.990,-1171.040,770.510,205.980
303,47219.72000,289.606,42.750,-97.619,442.056,344.427,-11.422,-174.040,783.510,-19.020
304,47219.112000,253.035,69.910,-79.689,438.196,340.959,9.087,262.960,1151.510,99.980
305,47219.131000,228.324,97.069,-177.307,437.276,343.171,21.882,-606.040,608.510,129.980
306,47219.171000,200.649,94.051,-230.101,439.141,332.834,36.367,-1489.040,-603.490,287.980
307,47219.211000,187.799,104.110,-242.054,439.046,321.356,43.957,-3462.040,-2029.490,457.980
308,47219.251000,239.197,51.804,-234.086,441.833,309.713,42.724,-4262.040,-2829.490,482.980
309,47219.291000,260.942,21.627,-220.140,446.510,294.140,38.465,-3841.040,-3176.490,135.980
310,47219.342000,261.931,17.603,-169.339,439.604,284.861,16.670,-2806.040,-2973.490,-165.020
311,47219.382000,248.093,20.621,-140.451,431.794,282.348,-5.957,-2069.040,-2645.490,-201.020
312,47219.431000,239.197,5.532,-159.377,435.630,282.947,-24.568,-1518.040,-2357.490,-18.020
313,47219.458000,248.093,25.650,-119.533,427.813,278.600,-42.333,-1287.040,-1891.490,290.980
314,47219.472000,250.069,31.686,-109.572,429.725,279.288,-56.043,-1354.040,-1532.490,407.980
315,47219.523000,230.301,19.615,-107.580,433.455,266.531,-64.164,-1187.040,-1147.490,459.980
316,47219.556000,218.440,27.662,-98.615,432.373,256.619,-73.212,-702.040,-837.490,383.980
317,47219.591000,211.521,41.745,-76.700,432.286,248.744,-78.290,-174.040,-524.490,299.980
318,47219.633000,209.544,39.733,-43.829,437.126,249.698,-81.201,310.960,35.510,351.980
319,47219.672000,210.533,35.709,18.926,440.901,239.142,-77.505,122.960,169.510,488.980
320,47219.712000,177.915,130.263,-78.693,447.625,231.700,-65.888,-665.040,455.510,520.980
321,47219.750000,254.023,127.246,-102.599,451.411,221.253,-57.286,-955.040,-145.490,362.980
322,47219.776000,299.490,164.464,-52.794,453.289,214.562,-53.508,-166.040,-109.490,201.980
323,47219.816000,308.386,198.664,-42.833,452.395,223.182,-58.221,344.960,-25.490,-158.020
324,47219.850000,327.166,136.299,-45.821,450.493,227.004,-60.102,432.960,-60.490,-373.020
325,47219.892000,301.467,120.204,-46.817,443.745,230.692,-65.918,178.960,-343.490,-440.020
326,47219.933000,324.201,88.016,-70.724,437.088,245.814,-81.287,41.960,-844.490,-769.020
327,47219.973000,263.907,57.839,-222.132,423.569,254.722,-111.518,377.960,-1001.490,-932.020
328,47220.18000,170.008,43.756,-163.362,406.288,275.200,-143.462,1253.960,-981.490,-959.020
329,47220.65000,150.239,40.739,-75.704,393.672,277.343,-172.861,1720.960,2.510,-862.020
330,47220.95000,140.355,23.639,-18.926,394.622,278.064,-184.611,1613.960,768.510,-696.020
331,47220.115000,135.413,-1.509,-50.802,402.407,280.340,-172.776,1625.960,1958.510,-557.020
332,47220.155000,166.054,24.644,-97.619,413.071,279.775,-159.037,1831.960,2827.510,-584.020
333,47220.196000,207.568,33.697,-118.537,426.660,275.937,-118.886,2125.960,3701.510,-741.020
334,47220.228000,293.560,20.621,-161.370,436.594,294.370,-79.230,2632.960,4092.510,-801.020
335,47220.268000,350.888,12.574,-208.187,443.561,307.747,-47.537,3805.960,4175.510,-1220.020
336,47220.317000,307.398,-51.804,-233.089,439.967,332.369,-29.346,4193.960,3772.510,-1673.020
337,47220.350000,249.081,-71.921,-257.992,428.531,351.523,-35.810,4632.960,2929.510,-1597.020
338,47220.393000,210.533,-27.662,-258.988,420.930,369.505,-53.079,3580.960,1901.510,-953.020
339,47220.413000,179.892,-2.515,-206.195,426.712,368.462,-58.973,1184.960,403.510,-77.020
340,47220.452000,223.382,93.045,-292.856,428.531,360.325,-76.802,836.960,-622.490,153.980
341,47220.492000,193.730,64.880,-71.720,437.159,355.254,-90.626,-60.040,-624.490,443.980
342,47220.535000,336.062,113.163,-82.677,446.697,341.713,-92.868,192.960,-52.490,470.980
343,47220.575000,240.185,60.857,-99.611,453.362,332.825,-102.857,621.960,-25.490,476.980
344,47220.622000,245.127,27.662,-90.646,461.987,325.079,-105.953,243.960,96.510,368.980
345,47220.650000,248.093,70.916,-68.732,465.776,315.537,-100.273,69.960,326.510,319.980
346,47220.693000,228.324,61.862,-36.856,472.529,312.777,-96.397,111.960,135.510,294.980
347,47220.733000,230.301,34.703,5.977,475.358,305.944,-99.485,-43.040,-229.490,273.980
348,47220.753000,242.162,16.597,-56.778,475.251,296.991,-109.491,298.960,-422.490,216.980
349,47220.795000,237.220,17.603,-96.623,475.186,292.849,-121.351,373.960,-378.490,100.980
350,47220.836000,254.023,49.792,-98.615,479.007,289.780,-130.237,533.960,-145.490,52.980
351,47220.870000,261.931,47.780,-107.580,480.870,283.822,-137.230,321.960,149.510,91.980
352,47220.913000,241.174,63.874,-70.724,477.981,283.923,-131.349,37.960,202.510,128.980
353,47220.955000,229.313,25.650,-57.774,484.656,273.375,-128.628,226.960,158.510,161.980
354,47220.990000,231.290,36.715,-50.802,483.639,268.489,-129.719,200.960,108.510,113.980
355,47221.36000,240.185,24.644,-44.825,485.589,270.407,-131.633,275.960,-67.490,70.980
356,47221.77000,248.093,14.585,-51.798,485.578,271.183,-140.442,325.960,-181.490,-7.020
357,47221.93000,239.197,23.639,-75.704,484.565,268.973,-152.261,403.960,-277.490,-161.020
358,47221.130000,242.162,25.650,-80.685,477.796,271.583,-163.005,415.960,-264.490,-214.020
359,47221.177000,238.208,37.721,-89.650,475.824,268.565,-166.999,331.960,-225.490,-255.020
360,47221.215000,238.208,27.662,-92.638,469.111,276.115,-173.710,481.960,-160.490,-272.020
361,47221.256000,232.278,39.733,-109.572,465.271,281.644,-185.363,548.960,-19.490,-287.020
362,47221.296000,228.324,31.686,-93.634,461.390,281.498,-190.278,557.960,117.510,-251.020
363,47221.336000,240.185,45.768,-63.751,460.369,276.570,-193.332,456.960,72.510,-287.020
364,47221.376000,242.162,28.668,-63.751,449.771,283.046,-203.017,416.960,-133.490,-351.020
365,47221.396000,219.429,32.692,-74.708,443.978,284.867,-205.930,513.960,-206.490,-410.020
366,47221.436000,225.359,77.957,-66.739,434.423,300.004,-219.344,31.960,-579.490,-372.020
367,47221.475000,213.498,60.857,-126.506,428.626,302.666,-228.123,-11.040,-484.490,-285.020
368,47221.516000,207.568,70.916,-133.479,422.834,305.371,-234.940,-58.040,-213.490,-16.020
369,47221.556000,240.185,91.033,-107.580,423.738,299.491,-238.010,-90.040,-49.490,142.980
370,47221.596000,222.394,53.815,-117.541,428.631,303.594,-230.064,-278.040,42.510,250.980
371,47221.636000,215.475,53.815,-102.599,436.267,292.105,-226.380,-322.040,137.510,309.980
372,47221.675000,219.429,49.792,-101.603,439.152,289.329,-221.532,-288.040,115.510,365.980
373,47221.715000,229.313,48.786,-104.591,447.898,291.549,-212.639,-203.040,129.510,316.980
374,47221.735000,238.208,39.733,-88.654,451.678,281.037,-206.980,-146.040,152.510,224.980
375,47221.783000,236.232,40.739,-97.619,453.546,274.260,-207.126,-187.040,141.510,194.980
376,47221.811000,234.255,38.727,-98.615,455.567,280.384,-194.238,-262.040,215.510,190.980
377,47221.855000,239.197,42.750,-93.634,461.411,282.577,-185.351,-353.040,302.510,179.980
378,47221.907000,247.104,40.739,-89.650,467.212,279.958,-174.609,-436.040,334.510,143.980
379,47221.936000,229.313,28.668,-85.665,466.311,284.112,-161.770,-471.040,359.510,69.980
380,47221.976000,243.151,14.585,-68.732,471.133,279.607,-148.131,-432.040,396.510,39.980
381,47222.15000,237.220,41.745,-57.774,472.231,290.555,-136.118,-431.040,336.510,-68.020
382,47222.35000,245.127,36.715,-54.786,476.177,295.727,-123.246,-377.040,291.510,-108.020
383,47222.75000,238.208,28.668,-39.844,476.238,300.711,-117.251,-356.040,160.510,-193.020
384,47222.115000,236.232,49.792,-41.837,466.608,303.680,-110.341,-228.040,77.510,-269.020
385,47222.156000,235.243,49.792,-45.821,462.771,306.598,-108.323,-275.040,-29.490,-312.020
386,47222.196000,246.116,48.786,-50.802,458.053,317.382,-101.229,-449.040,-27.490,-399.020
387,47222.236000,251.058,62.868,-59.767,451.495,338.740,-97.827,-480.040,-103.490,-519.020
388,47222.275000,245.127,64.880,-68.732,439.026,348.455,-91.753,-464.040,-84.490,-596.020
389,47222.316000,266.873,52.809,-77.696,428.553,364.058,-83.584,-545.040,23.510,-646.020
390,47222.356000,299.490,43.756,-74.708,416.108,373.126,-62.815,-939.040,185.510,-351.020
391,47222.376000,212.510,49.792,-288.872,422.908,369.934,-34.432,-2121.040,-382.490,449.980
392,47222.416000,178.903,50.798,-319.751,424.882,368.572,-8.961,-5220.040,-2235.490,1006.980
393,47222.456000,181.869,-30.680,-283.891,442.067,339.249,17.883,-4900.040,-2871.490,1218.980
394,47222.497000,225.359,39.733,-247.035,445.743,319.826,15.498,-4249.040,-3518.490,799.980
395,47222.537000,265.884,1.509,-222.132,445.496,299.848,-10.443,-3082.040,-3586.490,469.980
396,47222.572000,252.046,22.633,-175.315,438.631,297.128,-42.880,-2091.040,-3353.490,430.980
397,47222.616000,208.556,18.609,-136.467,430.775,292.415,-77.324,-1750.040,-3076.490,469.980
398,47222.655000,207.568,44.762,-135.471,425.760,280.092,-106.047,-1629.040,-2646.490,701.980
399,47222.697000,223.382,35.709,-125.510,428.661,281.867,-114.828,-1517.040,-1965.490,749.980
400,47222.726000,244.139,37.721,-95.626,429.413,262.201,-127.031,-1020.040,-1384.490,705.980
401,47222.755000,243.151,54.821,-76.700,428.323,250.455,-131.216,-628.040,-773.490,575.980
402,47222.795000,241.174,46.774,-62.755,432.183,249.521,-131.229,-611.040,-441.490,469.980
403,47222.831000,246.116,25.650,25.899,438.929,245.812,-126.394,-382.040,223.510,498.980
404,47222.875000,194.718,71.921,-116.545,448.448,225.043,-104.279,-205.040,812.510,640.980
405,47222.915000,181.869,131.269,-160.374,454.290,224.582,-83.683,-121.040,721.510,628.980
406,47222.952000,227.336,106.122,-162.366,461.926,213.093,-80.000,-175.040,209.510,409.980
407,47222.995000,242.162,155.411,-103.595,459.978,209.428,-69.298,-422.040,155.510,166.980
408,47223.15000,282.687,142.334,-83.673,463.937,218.247,-67.133,-74.040,18.510,-59.020
409,47223.75000,299.490,115.175,-73.712,461.058,220.203,-65.134,-161.040,-157.490,-199.020
410,47223.115000,316.293,81.980,-64.747,456.222,222.810,-76.854,-29.040,-299.490,-306.020
411,47223.136000,338.039,84.998,-76.700,444.720,236.936,-91.275,327.960,-645.490,-538.020
412,47223.211000,330.131,32.692,-153.401,435.027,240.186,-115.740,782.960,-1195.490,-940.020
413,47223.286000,309.375,50.798,-174.319,417.651,252.703,-156.686,1308.960,-1332.490,-1124.020
414,47223.302000,221.405,35.709,-104.591,394.428,261.236,-199.695,1257.960,-660.490,-1196.020
415,47223.325000,210.533,-11.568,-22.911,384.845,274.346,-217.076,1597.960,365.510,-1128.020
416,47223.345000,180.880,-7.544,-49.805,385.793,271.529,-213.214,1682.960,1855.510,-1093.020
417,47223.358000,163.089,-33.697,-99.611,401.367,277.871,-196.369,2193.960,2880.510,-1079.020
418,47223.397000,144.309,-6.538,-135.471,427.558,279.679,-169.796,3076.960,3949.510,-1210.020
419,47223.438000,167.042,55.827,-184.280,440.160,275.638,-138.478,2782.960,4341.510,-1293.020
420,47223.476000,195.707,53.815,-229.105,455.937,294.494,-82.128,2123.960,4294.510,-1460.020
421,47223.517000,322.224,12.574,-337.681,451.396,315.784,-38.516,2706.960,3587.510,-1772.020
422,47223.556000,143.320,10.562,-459.206,433.347,349.606,-36.823,3893.960,2593.510,-1967.020
423,47223.597000,114.656,-135.293,-482.117,420.877,369.872,-80.529,3503.960,491.510,-1028.020
424,47223.632000,313.328,-212.747,-104.591,426.529,359.659,-106.241,1220.960,-303.490,275.980
425,47223.652000,289.606,279.136,-62.755,439.972,346.501,-92.775,-2186.040,-402.490,632.980
426,47223.696000,249.081,92.039,-101.603,444.751,340.702,-93.875,1419.960,340.510,376.980
427,47223.733000,269.838,127.246,-113.556,452.347,327.962,-102.967,161.960,185.510,440.980
428,47223.776000,212.510,-19.615,-85.665,455.207,322.294,-97.203,-396.040,177.510,381.980
429,47223.817000,229.313,23.639,-58.770,461.923,317.419,-101.220,1640.960,505.510,-0.020
430,47223.857000,230.301,166.475,-57.774,461.780,304.604,-110.331,843.960,228.510,97.980
431,47223.897000,242.162,33.697,-55.782,464.614,298.699,-115.359,204.960,-40.490,294.980
432,47223.938000,243.151,46.774,-61.759,470.386,295.800,-117.373,324.960,-187.490,206.980
433,47223.976000,248.093,53.815,-85.665,469.306,285.910,-125.440,-179.040,-171.490,295.980
434,47223.993000,246.116,69.910,-91.642,475.118,286.031,-122.483,-464.040,18.510,359.980
435,47224.38000,235.243,9.556,-75.704,480.910,284.210,-119.569,-167.040,-25.490,256.980
436,47224.77000,235.243,36.715,-67.735,482.798,279.375,-119.672,-19.040,-183.490,104.980
437,47224.112000,239.197,33.697,-74.708,482.796,280.238,-124.557,46.960,-258.490,57.980
438,47224.152000,242.162,17.603,-73.712,481.797,279.042,-134.392,210.960,-286.490,23.980
439,47224.192000,223.382,33.697,-88.654,477.869,274.927,-143.317,230.960,-365.490,-90.020
440,47224.238000,234.255,19.615,-95.626,473.031,277.512,-156.019,378.960,-337.490,-140.020
441,47224.281000,237.220,34.703,-97.619,471.971,270.447,-167.946,426.960,-271.490,-168.020
442,47224.293000,227.336,47.780,-92.638,464.277,276.974,-176.643,457.960,-320.490,-197.020
443,47224.340000,216.463,33.697,-108.576,460.383,278.468,-195.251,336.960,-391.490,-158.020
444,47224.380000,228.324,20.621,-105.588,455.554,281.139,-204.027,290.960,-363.490,-202.020
445,47224.427000,201.637,39.733,-129.494,451.631,277.067,-210.991,418.960,-236.490,-207.020
446,47224.500000,248.093,78.963,-142.444,448.734,278.851,-216.841,252.960,-117.490,-72.020
447,47224.518000,237.220,60.857,-143.440,448.684,273.091,-214.027,-162.040,80.510,106.980
448,47224.567000,219.429,41.745,-144.436,453.582,277.237,-204.118,-313.040,319.510,180.980
449,47224.583000,219.429,53.815,-118.537,463.250,273.750,-190.446,-406.040,478.510,274.980
450,47224.616000,226.347,32.692,-99.611,468.102,272.179,-175.761,-457.040,457.510,296.980
451,47224.638000,231.290,6.538,-91.642,473.921,269.733,-157.170,-462.040,449.510,269.980
452,47224.673000,237.220,41.745,-87.658,480.720,270.058,-145.381,-374.040,494.510,221.980
453,47224.737000,241.174,32.692,-73.712,482.642,266.430,-134.670,-208.040,444.510,179.980
454,47224.753000,240.185,34.703,-76.700,487.513,267.685,-123.845,-162.040,390.510,131.980
455,47224.796000,238.208,24.644,-65.743,488.510,268.860,-114.990,-230.040,346.510,83.980
456,47224.843000,231.290,24.644,-56.778,491.364,261.380,-103.382,-275.040,298.510,33.980
457,47224.876000,244.139,-4.527,-42.833,489.483,265.396,-96.433,-427.040,189.510,-35.020
458,47224.925000,233.266,23.639,-35.860,490.544,274.229,-92.312,-72.040,-17.490,-173.020
459,47224.958000,237.220,42.750,-47.813,484.714,272.166,-95.312,-53.040,-245.490,-203.020
460,47224.978000,236.232,50.798,-82.677,485.788,284.646,-101.897,-28.040,-350.490,-228.020
461,47225.18000,252.046,42.750,-111.564,485.815,288.421,-106.717,-52.040,-218.490,-195.020
462,47225.58000,259.954,58.845,-109.572,480.014,287.523,-100.865,-289.040,173.510,-82.020
463,47225.100000,245.127,56.833,-87.658,476.230,294.476,-91.892,-291.040,298.510,-103.020
464,47225.146000,234.255,41.745,-68.732,479.226,301.559,-79.961,-475.040,328.510,-128.020
465,47225.180000,237.220,27.662,-44.825,478.367,309.640,-65.074,-460.040,295.510,-185.020
466,47225.221000,235.243,39.733,-27.891,472.525,304.815,-61.270,-411.040,156.510,-277.020
467,47225.258000,241.174,45.768,-37.852,467.877,322.438,-52.063,-393.040,16.510,-334.020
468,47225.285000,243.151,58.845,-52.794,463.016,318.637,-46.274,-413.040,-65.490,-431.020
469,47225.317000,244.139,93.045,-96.623,453.600,343.030,-35.945,-606.040,101.510,-443.020
470,47225.360000,269.838,101.092,-114.553,448.847,346.435,-11.363,-891.040,512.510,-418.020
471,47225.397000,273.792,61.862,-85.665,441.296,356.974,30.042,-1326.040,948.510,-374.020
472,47225.437000,270.826,5.532,-141.447,429.834,364.433,65.488,-1462.040,664.510,-245.020
473,47225.476000,197.683,-15.591,-376.529,435.456,343.368,75.819,-4036.040,-1937.490,512.980
474,47225.520000,202.625,8.550,-298.833,445.888,318.574,90.982,-5014.040,-3102.490,611.980
475,47225.560000,216.463,40.739,-276.918,457.212,293.057,72.787,-3931.040,-3668.490,470.980
476,47225.599000,283.676,17.603,-218.148,458.009,283.509,35.312,-2977.040,-3771.490,-16.020
477,47225.620000,278.734,20.621,-155.393,446.226,275.564,-11.961,-1532.040,-3385.490,-167.020
478,47225.666000,256.000,22.633,-123.518,437.521,283.419,-48.090,-1286.040,-2990.490,-124.020
479,47225.700000,241.174,25.650,-115.549,429.685,279.784,-77.607,-1365.040,-2386.490,49.980
480,47225.760000,257.977,5.532,-102.599,421.022,287.164,-91.190,-1149.040,-1851.490,177.980
481,47225.781000,258.965,4.527,-52.794,418.055,282.993,-103.057,-341.040,-1233.490,198.980
482,47225.838000,254.023,31.686,-30.879,416.957,271.161,-111.167,65.960,-423.490,240.980
483,47225.866000,261.931,56.833,-3.984,415.973,269.231,-110.232,-165.040,-62.490,346.980
484,47225.898000,256.000,-25.650,-22.911,424.584,256.954,-98.718,-180.040,375.510,555.980
485,47225.943000,250.069,81.980,83.673,438.079,248.693,-83.182,-200.040,633.510,669.980
486,47225.960000,268.849,100.086,-129.494,443.862,244.133,-72.484,-987.040,-249.490,570.980
487,47226.2000,263.907,211.741,-90.646,449.555,232.560,-71.748,-634.040,-72.490,466.980
488,47226.37000,311.351,146.358,-54.786,447.634,232.671,-65.866,-392.040,-83.490,-1.020
489,47226.111000,311.351,113.163,-61.759,447.703,240.373,-68.637,467.960,31.510,-210.020
490,47226.147000,296.525,81.980,-69.728,441.887,241.093,-77.459,169.960,-356.490,-310.020
491,47226.177000,333.097,66.892,-96.623,436.066,243.518,-97.031,245.960,-755.490,-435.020
492,47226.198000,278.734,54.821,-199.222,425.458,253.425,-127.234,667.960,-1213.490,-726.020
493,47226.238000,222.394,45.768,-166.350,412.861,257.510,-156.590,961.960,-1283.490,-831.020
494,47226.258000,168.031,46.774,-100.607,397.428,268.362,-185.801,890.960,-619.490,-889.020
495,47226.298000,130.471,13.580,-47.813,391.615,269.989,-197.545,1275.960,556.510,-757.020
496,47226.335000,129.483,14.585,-46.817,396.529,276.940,-192.477,1350.960,1530.510,-598.020
497,47226.376000,135.413,19.615,-83.673,415.805,264.982,-171.127,1635.960,2697.510,-465.020
498,47226.416000,158.147,44.762,-117.541,438.125,264.098,-132.854,1868.960,3340.510,-466.020
499,47226.454000,216.463,52.809,-178.303,451.831,270.184,-82.676,1954.960,3767.510,-539.020
500,47226.496000,257.977,47.780,-282.895,456.707,267.966,-53.296,2368.960,3599.510,-843.020
501,47226.534000,210.533,81.980,-465.183,455.086,295.606,-31.111,2852.960,2328.510,-1260.020
502,47226.576000,201.637,164.464,-423.346,442.578,308.471,-58.310,3012.960,-26.490,-1387.020
503,47226.595000,330.131,42.750,-163.362,426.179,321.968,-99.233,972.960,-1366.490,-693.020
504,47226.640000,270.826,154.405,-99.611,407.910,341.358,-136.106,193.960,-1568.490,-763.020
505,47226.686000,192.741,150.381,78.693,395.408,352.519,-152.556,80.960,-870.490,-778.020
506,47226.726000,62.270,159.434,102.599,390.679,362.310,-146.465,241.960,700.510,-815.020
507,47226.757000,127.506,125.234,57.774,394.637,368.474,-132.590,757.960,2020.510,-896.020
508,47226.801000,257.977,32.692,-68.732,396.731,378.827,-103.917,1863.960,3401.510,-1219.020
509,47226.840000,366.703,69.910,-414.381,394.954,391.775,-87.943,3196.960,3593.510,-1464.020
510,47226.881000,295.537,-234.876,-471.160,389.226,405.656,-116.086,3766.960,1631.510,-1009.020
511,47226.901000,267.861,-192.629,-121.525,396.731,388.515,-148.812,2139.960,320.510,247.980
512,47226.941000,242.162,469.250,-42.833,417.085,382.909,-103.784,-3907.040,-281.490,828.980
513,47226.981000,209.544,35.709,-72.716,427.616,372.268,-106.939,2031.960,544.510,534.980
514,47227.27000,225.359,107.128,-96.623,435.152,353.660,-118.124,-427.040,101.510,533.980
515,47227.62000,242.162,-29.674,-59.767,443.877,353.033,-106.352,-86.040,351.510,401.980
516,47227.101000,240.185,108.134,-47.813,449.550,341.267,-114.446,1683.960,664.510,139.980
517,47227.140000,233.266,180.558,-40.840,455.225,328.637,-117.656,719.960,316.510,259.980
518,47227.182000,239.197,35.709,-36.856,461.842,313.126,-119.948,318.960,133.510,447.980
519,47227.220000,252.046,30.680,-46.817,468.594,312.114,-124.860,681.960,96.510,269.980
520,47227.236000,241.174,34.703,-49.805,473.335,304.200,-133.851,706.960,-61.490,152.980
521,47227.279000,230.301,53.815,-49.805,474.243,300.994,-147.650,719.960,-147.490,70.980
522,47227.318000,248.093,44.762,-69.728,476.101,294.994,-156.605,389.960,-141.490,111.980
523,47227.358000,230.301,64.880,-69.728,475.110,292.115,-154.710,94.960,-136.490,76.980
524,47227.402000,245.127,45.768,-53.790,471.163,286.058,-163.678,176.960,-229.490,55.980
525,47227.442000,232.278,57.839,-70.724,470.164,284.862,-173.514,46.960,-392.490,-0.020
526,47227.481000,232.278,8.550,-67.735,466.300,288.406,-187.172,150.960,-516.490,-92.020
527,47227.520000,226.347,42.750,-92.638,460.536,294.024,-193.924,51.960,-561.490,-151.020
528,47227.558000,236.232,57.839,-106.584,454.726,295.671,-204.687,211.960,-433.490,-162.020
529,47227.577000,237.220,80.974,-115.549,448.783,283.727,-215.752,90.960,-377.490,-4.020
530,47227.622000,231.290,70.916,-125.510,444.951,287.573,-215.675,-312.040,-177.490,152.980
531,47227.662000,232.278,47.780,-132.482,449.805,288.656,-212.699,-266.040,42.510,150.980
532,47227.700000,229.313,61.862,-114.553,459.575,296.711,-203.673,-329.040,258.510,221.980
533,47227.739000,237.220,53.815,-109.572,462.457,293.028,-195.904,-351.040,379.510,287.980
534,47227.777000,237.220,39.733,-93.634,471.089,281.830,-179.463,-460.040,445.510,291.980
535,47227.822000,239.197,28.668,-81.681,474.016,281.211,-164.761,-489.040,508.510,248.980
536,47227.862000,239.197,32.692,-63.751,485.696,284.646,-146.027,-496.040,494.510,173.980
537,47227.882000,243.151,22.633,-49.805,491.535,285.026,-131.296,-481.040,415.510,102.980
538,47227.922000,237.220,30.680,-46.817,490.589,283.463,-113.681,-518.040,347.510,23.980
539,47227.962000,240.185,23.639,-43.829,492.593,288.552,-103.757,-276.040,266.510,-50.020
540,47228.1000,239.197,27.662,-33.868,489.658,284.684,-101.888,-291.040,144.510,-145.020
541,47228.41000,245.127,27.662,-23.907,484.985,300.300,-95.667,-203.040,-32.490,-234.020
542,47228.82000,239.197,28.668,-38.848,483.067,302.201,-96.610,-171.040,-186.490,-319.020
543,47228.116000,234.255,59.851,-37.852,472.550,316.509,-103.179,-104.040,-334.490,-402.020
544,47228.162000,240.185,62.868,-52.794,462.896,320.126,-110.964,-227.040,-468.490,-441.020
545,47228.202000,240.185,74.939,-89.650,452.424,338.382,-114.504,-407.040,-459.490,-444.020
546,47228.221000,245.127,87.010,-120.529,446.758,351.983,-111.272,-471.040,-199.490,-425.020
547,47228.260000,256.988,83.992,-112.560,439.043,352.144,-100.497,-807.040,232.510,-423.020
548,47228.303000,296.525,55.827,-84.669,433.509,374.051,-72.564,-974.040,622.510,-433.020
549,47228.342000,262.919,4.527,-76.700,431.696,380.483,-43.986,-1394.040,570.510,-86.020
550,47228.382000,165.066,75.945,-329.712,432.656,370.740,-2.032,-2853.040,-391.490,516.980
551,47228.422000,172.973,12.574,-353.619,440.310,355.022,29.997,-5462.040,-2763.490,930.980
552,47228.462000,212.510,-1.509,-256.996,450.780,338.514,24.749,-3953.040,-3034.490,721.980
553,47228.502000,250.069,39.733,-217.152,456.478,331.386,6.951,-3114.040,-3392.490,413.980
554,47228.522000,251.058,38.727,-167.346,439.975,334.203,-34.209,-1518.040,-3291.490,111.980
555,47228.563000,225.359,60.857,-144.436,423.410,329.383,-69.654,-1441.040,-3095.490,223.980
556,47228.608000,214.486,36.715,-133.479,407.867,327.744,-93.259,-1786.040,-2663.490,464.980
557,47228.650000,240.185,34.703,-133.479,402.017,325.486,-105.090,-1531.040,-2246.490,495.980
558,47228.682000,253.035,30.680,-139.455,399.053,322.222,-119.878,-780.040,-1711.490,408.980
559,47228.723000,243.151,68.904,-114.553,394.116,315.055,-134.758,-431.040,-1409.490,329.980
560,47228.762000,220.417,17.603,-102.599,390.233,315.773,-144.557,-300.040,-1129.490,311.980
561,47228.799000,223.382,13.580,-53.790,388.122,299.983,-155.699,205.960,-647.490,434.980
562,47228.843000,220.417,29.674,8.965,396.712,288.374,-157.900,-10.040,73.510,582.980
563,47228.863000,207.568,55.827,-112.560,404.370,277.986,-148.308,-216.040,495.510,711.980
564,47228.903000,212.510,141.328,-106.584,420.769,268.890,-127.881,87.960,517.510,644.980
565,47228.953000,217.452,171.505,-189.261,424.568,261.204,-126.082,-160.040,83.510,464.980
566,47228.993000,273.792,197.658,-84.669,428.382,255.417,-126.203,-148.040,-58.490,320.980
567,47229.38000,303.444,158.428,-61.759,425.500,257.352,-125.185,-667.040,-331.490,165.980
568,47229.61000,341.004,117.187,-51.798,425.541,263.026,-131.924,86.960,-436.490,-151.020
569,47229.102000,318.270,105.116,-121.525,419.765,270.283,-152.369,270.960,-880.490,-399.020
570,47229.142000,259.954,105.116,-186.272,402.278,267.654,-176.000,90.960,-1097.490,-507.020
571,47229.205000,175.938,51.804,-172.327,384.973,284.378,-202.143,228.960,-981.490,-703.020
572,47229.212000,130.471,34.703,-146.428,375.305,288.750,-219.718,920.960,-271.490,-750.020
573,47229.240000,113.668,9.556,-71.720,372.392,289.498,-228.534,1175.960,751.510,-728.020
574,47229.282000,95.876,25.650,-62.755,376.257,288.608,-226.584,1157.960,1673.510,-618.020
575,47229.322000,113.668,44.762,-96.623,393.708,286.491,-198.155,782.960,2574.510,-522.020
576,47229.362000,165.066,42.750,-108.576,417.040,290.449,-160.753,915.960,3202.510,-481.020
577,47229.402000,248.093,52.809,-138.459,438.439,292.641,-114.568,1649.960,3692.510,-506.020
578,47229.442000,322.224,70.916,-207.191,453.107,300.441,-75.138,2999.960,3949.510,-941.020
579,47229.482000,322.224,61.862,-216.156,452.327,313.679,-46.406,3526.960,3724.510,-1480.020
580,47229.501000,277.745,3.521,-232.093,443.852,335.190,-35.159,3821.960,2902.510,-1526.020
581,47229.543000,218.440,6.538,-252.016,433.317,346.672,-37.869,3105.960,1969.510,-1109.020
582,47229.583000,201.637,-12.574,-193.245,430.544,361.099,-42.458,1305.960,737.510,-251.020
583,47229.624000,141.344,-53.815,-334.693,439.186,355.272,-46.491,412.960,55.510,327.980
584,47229.665000,185.822,83.992,-87.658,449.689,341.719,-49.712,-634.040,-256.490,633.980
585,47229.704000,341.004,-6.538,-35.860,455.378,330.104,-50.938,-218.040,-187.490,399.980
586,47229.744000,256.988,55.827,-67.735,459.128,321.943,-70.725,1463.960,-9.490,227.980
587,47229.782000,250.069,70.916,-75.704,460.986,315.943,-79.680,256.960,-127.490,224.980
588,47229.823000,241.174,14.585,-76.700,465.788,313.013,-82.677,581.960,62.510,115.980
589,47229.843000,229.313,98.075,-48.809,468.670,312.847,-91.501,315.960,-73.490,156.980
590,47229.883000,232.278,68.904,-48.809,471.441,301.052,-99.602,115.960,-200.490,286.980
591,47229.918000,238.208,51.804,-104.591,471.369,295.076,-106.599,211.960,-247.490,254.980
592,47229.961000,228.324,74.939,-95.626,479.091,291.462,-97.837,-509.040,98.510,424.980
593,47230.1000,253.035,49.792,-78.693,487.747,284.017,-87.197,-255.040,210.510,363.980
594,47230.41000,253.035,46.774,-77.696,488.684,280.208,-84.338,-427.040,116.510,338.980
595,47230.78000,233.266,17.603,-67.735,490.587,274.639,-73.670,-378.040,152.510,230.980
596,47230.122000,246.116,22.633,-50.802,495.348,266.035,-69.928,-2.040,190.510,164.980
597,47230.141000,239.197,15.591,-45.821,494.413,268.981,-67.904,172.960,79.510,102.980
598,47230.180000,244.139,18.609,-50.802,501.158,267.019,-71.856,131.960,-36.490,64.980
599,47230.223000,240.185,12.574,-53.790,499.185,264.001,-75.849,188.960,-114.490,-15.020
600,47230.262000,242.162,16.597,-67.735,495.319,265.754,-82.683,337.960,-125.490,-76.020
601,47230.303000,248.093,26.656,-71.720,492.370,261.756,-86.701,294.960,-108.490,-110.020
602,47230.342000,243.151,33.697,-69.728,487.554,264.557,-89.591,266.960,-88.490,-148.020
603,47230.383000,236.232,29.674,-66.739,489.556,273.141,-97.241,241.960,-129.490,-202.020
604,47230.423000,244.139,29.674,-76.700,484.707,272.986,-102.158,328.960,-82.490,-198.020
605,47230.462000,239.197,38.727,-74.708,483.727,272.847,-108.047,473.960,-20.490,-221.020
606,47230.483000,238.208,40.739,-66.739,476.986,277.485,-114.823,480.960,-95.490,-252.020
607,47230.522000,237.220,31.686,-54.786,476.038,281.186,-122.588,465.960,-190.490,-277.020
608,47230.563000,242.162,22.633,-59.767,466.426,289.614,-132.228,476.960,-309.490,-386.020
609,47230.602000,229.313,23.639,-85.665,459.686,296.020,-146.810,450.960,-441.490,-495.020
610,47230.646000,226.347,63.874,-88.654,450.044,302.399,-161.399,344.960,-400.490,-372.020
611,47230.686000,216.463,78.963,-107.580,442.308,304.114,-168.242,24.960,-372.490,-251.020
612,47230.731000,224.371,74.939,-120.529,438.497,310.807,-171.043,-138.040,-273.490,-67.020
613,47230.769000,227.336,74.939,-118.537,441.352,305.981,-171.144,-173.040,-85.490,134.980
614,47230.779000,225.359,62.868,-125.510,439.408,304.107,-167.267,-188.040,60.510,248.980
615,47230.828000,233.266,78.963,-121.525,449.098,305.237,-164.280,-253.040,232.510,349.980
616,47230.867000,236.232,53.815,-109.572,459.642,292.072,-149.840,-377.040,452.510,416.980
617,47230.911000,230.301,51.804,-99.611,465.473,291.503,-134.150,-397.040,552.510,401.980
618,47230.942000,236.232,31.686,-73.712,479.024,288.183,-114.581,-525.040,555.510,347.980
619,47230.982000,237.220,16.597,-48.809,482.911,286.624,-98.917,-424.040,542.510,214.980
620,47231.20000,233.266,22.633,-44.825,486.787,284.957,-88.159,-498.040,409.510,111.980
621,47231.61000,244.139,15.591,-45.821,483.923,286.180,-75.389,-390.040,298.510,-36.020
622,47231.103000,240.185,43.756,-38.848,484.927,287.419,-63.592,-390.040,147.510,-122.020
623,47231.124000,250.069,12.574,-32.872,479.153,289.412,-58.656,-288.040,27.510,-205.020
624,47231.166000,235.243,45.768,-39.844,478.320,303.901,-61.278,-181.040,-136.490,-347.020
625,47231.206000,246.116,44.762,-70.724,469.695,312.533,-62.086,-235.040,-217.490,-359.020
626,47231.246000,258.965,63.874,-78.693,462.970,316.436,-58.090,-327.040,-93.490,-379.020
627,47231.282000,257.977,46.774,-66.739,462.038,319.404,-55.085,-530.040,70.510,-346.020
628,47231.322000,257.977,66.892,-60.763,449.627,334.082,-43.998,-508.040,72.510,-423.020
629,47231.362000,266.873,75.945,-127.502,444.921,345.858,-35.901,-984.040,-374.490,-158.020
630,47231.406000,295.537,-2.515,-239.066,450.638,336.270,-33.160,-2601.040,-1663.490,737.980
631,47231.427000,212.510,53.815,-102.599,458.186,315.138,-26.748,-3725.040,-2166.490,915.980
632,47231.460000,140.355,19.615,28.887,463.912,305.637,-20.082,-3037.040,-1801.490,944.980
633,47231.503000,157.158,17.603,85.665,475.376,288.511,-9.651,-1142.040,-497.490,846.980
634,47231.541000,162.100,-26.656,-133.479,476.284,280.020,0.950,-826.040,382.510,814.980
635,47231.586000,350.888,124.228,-76.700,481.998,265.125,27.109,-1063.040,699.510,189.980
636,47231.621000,228.324,36.715,-143.440,484.957,266.577,47.741,14.960,732.510,152.980
637,47231.663000,209.544,111.151,-338.677,481.986,257.962,54.408,-1713.040,-724.490,344.980
638,47231.706000,184.834,77.957,-314.770,486.626,239.391,46.161,-3129.040,-2028.490,539.980
639,47231.748000,208.556,22.633,-280.903,487.429,228.138,19.435,-3658.040,-3096.490,596.980
640,47231.768000,214.486,10.562,-223.128,491.153,219.740,-11.144,-3083.040,-3324.490,458.980
641,47231.804000,225.359,-23.639,-184.280,484.261,215.877,-51.452,-2271.040,-2962.490,213.980
642,47231.843000,224.371,-12.574,-133.479,473.503,211.135,-85.903,-1854.040,-2472.490,212.980
643,47231.883000,232.278,-2.515,-100.607,464.763,212.496,-108.446,-1551.040,-1769.490,474.980
644,47231.934000,255.012,21.627,-100.607,467.539,202.514,-122.391,-1384.040,-1176.490,649.980
645,47231.960000,239.197,62.868,-113.556,469.383,193.730,-125.524,-1062.040,-579.490,591.980
646,47231.999000,232.278,40.739,-90.646,468.317,181.337,-115.014,-609.040,-39.490,314.980
647,47232.43000,269.838,73.933,-11.953,472.189,180.511,-110.121,-214.040,412.510,245.980
648,47232.67000,260.942,73.933,-16.934,479.978,181.061,-88.518,-653.040,760.510,203.980
649,47232.106000,224.371,8.550,-101.603,485.815,179.672,-65.981,-529.040,698.510,441.980
650,47232.150000,237.220,96.063,-44.825,486.688,169.088,-62.292,54.960,112.510,121.980
651,47232.186000,257.977,123.222,-73.712,486.710,172.821,-69.073,-134.040,-280.490,-70.020
652,47232.224000,302.456,125.234,-38.848,485.827,184.181,-81.572,105.960,-664.490,-385.020
653,47232.267000,354.842,121.210,-61.759,474.293,196.237,-101.922,587.960,-681.490,-589.020
654,47232.306000,408.216,105.116,-79.689,462.751,206.458,-117.410,622.960,-1031.490,-960.020
655,47232.346000,357.807,75.945,-138.459,442.557,226.799,-154.267,601.960,-1278.490,-1276.020
656,47232.392000,232.278,53.815,-197.230,422.341,245.177,-192.147,1188.960,-1164.490,-1381.020
657,47232.416000,160.124,30.680,-134.475,398.206,255.988,-219.417,1472.960,-66.490,-1333.020
658,47232.443000,148.263,-4.527,-20.918,398.171,253.011,-222.425,1986.960,1135.510,-1123.020
659,47232.488000,122.564,8.550,-48.809,410.861,261.267,-205.543,1596.960,2450.510,-950.020
660,47232.527000,145.297,9.556,-102.599,420.643,266.798,-178.922,1696.960,3324.510,-917.020
661,47232.567000,182.857,0.503,-149.416,443.977,269.893,-136.636,2399.960,4151.510,-946.020
662,47232.607000,214.486,-2.515,-189.261,460.548,272.125,-86.538,2848.960,4471.510,-1049.020
663,47232.647000,347.923,6.538,-237.074,461.826,294.485,-40.928,3671.960,4328.510,-1570.020
664,47232.687000,310.363,-51.804,-282.895,450.619,329.927,-12.707,4062.960,3721.510,-1770.020
665,47232.721000,253.035,-59.851,-265.961,436.346,354.079,-11.220,3930.960,2502.510,-1253.020
666,47232.741000,189.776,-26.656,-221.136,437.301,353.096,-12.220,1973.960,1376.510,-284.020
667,47232.783000,176.927,115.175,-355.611,443.085,351.189,-13.231,393.960,20.510,598.980
668,47232.824000,201.637,129.257,-76.700,451.617,332.871,-11.659,-1508.040,-564.490,542.980
669,47232.863000,417.112,-37.721,-49.805,462.224,329.997,-14.642,1246.960,237.510,391.980
670,47232.902000,244.139,105.116,-70.724,470.812,320.136,-25.630,694.960,88.510,496.980
671,47232.942000,251.058,12.574,-71.720,477.443,306.524,-29.841,32.960,100.510,401.980
672,47232.986000,245.127,57.839,-49.805,478.326,297.795,-30.033,697.960,279.510,258.980
673,47233.33000,233.266,60.857,-32.872,483.149,296.828,-32.005,392.960,156.510,269.980
674,47233.47000,237.220,28.668,-18.926,486.976,292.055,-30.142,-33.040,-56.490,276.980
675,47233.87000,253.035,31.686,-43.829,489.855,290.098,-32.141,14.960,-123.490,225.980
676,47233.124000,249.081,37.721,-69.728,493.685,285.347,-29.296,-210.040,20.510,273.980
677,47233.165000,242.162,31.686,-50.802,495.508,272.852,-24.666,-191.040,64.510,191.980
678,47233.202000,245.127,57.839,-37.852,497.431,271.878,-25.664,-270.040,-12.490,143.980
679,47233.247000,238.208,56.833,-36.856,501.298,271.010,-22.734,-282.040,-168.490,187.980
680,47233.287000,247.104,13.580,-44.825,503.177,266.088,-26.761,-107.040,-243.490,197.980
681,47233.327000,248.093,26.656,-63.751,506.056,265.016,-32.663,53.960,-222.490,93.980
682,47233.367000,239.197,34.703,-56.778,507.982,264.949,-36.583,20.960,-170.490,54.980
683,47233.386000,252.046,41.745,-57.774,506.907,255.101,-42.688,111.960,-101.490,47.980
684,47233.441000,253.035,33.697,-48.809,503.991,254.059,-44.679,-11.040,-146.490,-8.020
685,47233.467000,245.127,8.550,-55.782,503.085,261.687,-50.395,180.960,-193.490,-104.020
686,47233.508000,243.151,24.644,-64.747,500.233,268.304,-57.119,205.960,-153.490,-145.020
687,47233.546000,236.232,12.574,-60.763,501.180,267.235,-62.044,334.960,-164.490,-188.020
688,47233.588000,241.174,34.703,-61.759,500.197,267.074,-68.914,437.960,-115.490,-197.020
689,47233.628000,239.197,17.603,-62.755,493.485,274.624,-75.626,460.960,-130.490,-272.020
690,47233.667000,238.208,42.750,-68.732,487.719,281.989,-91.165,603.960,-227.490,-305.020
691,47233.693000,239.197,46.774,-54.786,480.019,288.451,-102.806,475.960,-344.490,-338.020
692,47233.731000,225.359,33.697,-88.654,477.036,283.245,-117.637,582.960,-367.490,-366.020
693,47233.767000,228.324,62.868,-94.630,471.318,295.465,-133.069,302.960,-404.490,-243.020
694,47233.809000,238.208,74.939,-116.545,467.396,290.529,-135.148,-0.040,-268.490,-56.020
695,47233.850000,237.220,66.892,-128.498,463.588,297.245,-136.968,-84.040,-76.490,77.980
696,47233.894000,237.220,70.916,-116.545,471.284,291.624,-131.193,-252.040,178.510,221.980
697,47233.953000,234.255,58.845,-108.576,477.059,286.114,-119.535,-400.040,326.510,322.980
698,47233.968000,235.243,47.780,-86.661,480.836,273.811,-107.051,-401.040,406.510,355.980
699,47234.7000,238.208,41.745,-86.661,487.670,276.229,-88.351,-488.040,513.510,356.980
700,47234.27000,238.208,30.680,-69.728,491.503,269.751,-75.738,-516.040,501.510,307.980
701,47234.67000,246.116,24.644,-69.728,500.257,271.173,-59.017,-438.040,457.510,263.980
702,47234.108000,239.197,25.650,-37.852,503.165,268.613,-44.357,-538.040,468.510,190.980
703,47234.147000,240.185,16.597,-36.856,505.991,258.220,-32.814,-503.040,303.510,80.980
704,47234.187000,246.116,21.627,-26.895,501.227,263.286,-20.944,-547.040,139.510,-30.020
705,47234.227000,247.104,31.686,-39.844,501.349,274.138,-12.857,-572.040,-14.490,-140.020
706,47234.268000,247.104,14.585,-33.868,494.574,273.166,-9.951,-302.040,-20.490,-195.020
707,47234.316000,239.197,40.739,-23.907,495.587,278.008,-10.822,33.960,-50.490,-274.020
708,47234.323000,251.058,32.692,-47.813,492.774,287.645,-12.576,-104.040,-192.490,-288.020
709,47234.363000,250.069,67.898,-70.724,486.031,291.377,-16.430,-42.040,-95.490,-357.020
710,47234.403000,247.104,71.921,-72.716,481.344,305.979,-12.193,-309.040,11.510,-313.020
711,47234.442000,249.081,55.827,-64.747,479.467,310.038,-3.281,-354.040,183.510,-290.020
712,47234.486000,275.768,69.910,-50.802,474.671,312.148,6.563,-497.040,203.510,-341.020
713,47234.527000,261.931,30.680,-76.700,463.223,325.907,19.593,-603.040,173.510,-372.020
714,47234.567000,223.382,33.697,-246.039,465.165,326.875,18.637,-441.040,-439.490,-262.020
715,47234.607000,198.672,39.733,-274.926,461.240,323.666,6.790,-1809.040,-1744.490,395.980
716,47234.646000,225.359,8.550,-194.241,464.042,315.690,-4.168,-3783.040,-2931.490,603.980
717,47234.663000,206.579,22.633,-127.502,462.962,309.316,-28.829,-2642.040,-2895.490,466.980
718,47234.706000,173.961,2.515,-33.868,454.065,296.848,-62.467,-1151.040,-2189.490,512.980
719,47234.747000,119.598,-15.591,-227.113,455.922,291.710,-76.306,-781.040,-1313.490,868.980
720,47234.787000,184.834,63.874,-149.416,462.595,281.140,-74.565,-2217.040,-783.490,959.980
721,47234.828000,227.336,28.668,-188.265,463.492,270.793,-60.083,-2816.040,-897.490,1074.980
722,47234.869000,235.243,47.780,-234.086,471.039,248.776,-49.769,-2429.040,-1295.490,991.980
723,47234.914000,218.440,76.951,-231.097,472.817,234.081,-56.956,-2168.040,-1754.490,830.980
724,47234.947000,224.371,66.892,-222.132,470.726,222.002,-75.861,-2280.040,-2120.490,690.980
725,47234.967000,227.336,58.845,-176.311,471.632,219.660,-94.543,-2137.040,-2219.490,482.980
726,47235.11000,210.533,52.809,-136.467,459.972,219.935,-121.040,-1793.040,-2079.490,372.980
727,47235.46000,198.672,62.868,-104.591,453.138,216.633,-135.837,-1132.040,-1598.490,289.980
728,47235.86000,186.811,80.974,-118.537,446.259,209.383,-153.665,-854.040,-1176.490,236.980
729,47235.126000,195.707,112.157,-92.638,438.504,210.041,-164.454,-496.040,-720.490,20.980
730,47235.163000,200.649,60.857,-57.774,440.498,216.791,-167.242,2.960,-253.490,-168.020
731,47235.206000,222.394,-34.703,-35.860,446.200,207.053,-171.368,1675.960,745.510,-63.020
732,47235.251000,148.263,113.163,-124.514,451.892,192.827,-158.924,1228.960,1066.510,33.980
733,47235.286000,170.008,182.570,-158.381,456.789,195.204,-141.209,-132.040,767.510,96.980
734,47235.306000,240.185,74.939,-204.202,461.625,193.482,-133.391,-510.040,169.510,235.980
735,47235.346000,240.185,161.446,-105.588,466.483,195.492,-132.356,214.960,164.510,164.980
736,47235.386000,289.606,148.369,-90.646,464.579,197.523,-127.412,-333.040,-96.490,-0.020
737,47235.424000,298.502,98.075,-56.778,459.730,197.368,-132.328,95.960,-159.490,-205.020
738,47235.471000,312.340,79.969,-56.778,454.868,197.084,-143.132,405.960,-456.490,-349.020
739,47235.507000,284.664,125.234,-136.467,445.311,213.084,-161.430,197.960,-593.490,-479.020
740,47235.547000,240.185,113.163,-151.409,433.750,220.479,-173.058,-16.040,-721.490,-517.020
741,47235.587000,246.116,34.703,-147.424,430.909,229.836,-187.566,567.960,-638.490,-756.020
742,47235.659000,123.552,46.774,-190.257,414.458,234.034,-210.063,1270.960,-277.490,-954.020
743,47235.668000,141.344,-4.527,-121.525,402.897,242.314,-225.594,853.960,178.510,-1020.020
744,47235.689000,108.726,9.556,-68.732,398.161,252.040,-222.446,961.960,1134.510,-941.020
745,47235.728000,121.575,15.591,-76.700,408.024,267.150,-201.496,675.960,1930.510,-836.020
746,47235.769000,138.378,4.527,-109.572,425.545,270.987,-167.051,1026.960,2709.510,-717.020
747,47235.807000,176.927,65.886,-140.451,440.151,275.551,-142.402,1770.960,3499.510,-755.020
748,47235.848000,247.104,4.527,-181.292,453.878,284.486,-95.103,1955.960,3734.510,-739.020
749,47235.889000,314.317,11.568,-218.148,458.791,283.497,-53.927,3318.960,3823.510,-882.020
750,47235.936000,292.571,31.686,-214.163,463.922,308.377,-27.867,3565.960,3505.510,-1191.020
751,47235.949000,268.849,4.527,-207.191,460.272,326.289,-5.902,3111.960,2771.510,-1122.020
752,47236.17000,250.069,-3.521,-184.280,453.659,340.958,2.255,2950.960,2250.510,-900.020
753,47236.33000,235.243,-11.568,-185.276,442.148,350.597,4.406,2545.960,1580.510,-626.020
754,47236.69000,198.672,11.568,-155.393,440.200,350.449,-1.486,1690.960,890.510,-119.020
755,47236.111000,161.112,99.081,-277.914,445.958,346.536,-5.483,356.960,-206.490,377.980
756,47236.147000,307.398,53.815,-6.973,454.536,334.819,-12.590,-456.040,-531.490,416.980
757,47236.184000,275.768,127.246,-61.759,464.168,330.987,-14.616,914.960,80.510,328.980
758,47236.224000,231.290,119.198,-49.805,469.811,316.286,-23.756,572.960,26.510,449.980
759,47236.274000,246.116,33.697,-70.724,475.519,305.728,-21.037,99.960,132.510,415.980
760,47236.288000,252.046,50.798,-43.829,481.334,307.640,-24.905,532.960,170.510,245.980
761,47236.328000,239.197,68.904,-32.872,479.343,302.681,-28.941,529.960,122.510,219.980
762,47236.368000,237.220,38.727,-13.946,486.042,295.886,-32.020,12.960,-205.490,215.980
763,47236.408000,245.127,43.756,-61.759,488.900,292.851,-38.946,80.960,-232.490,184.980
764,47236.456000,250.069,21.627,-77.696,490.748,284.110,-40.117,-212.040,-185.490,186.980
765,47236.492000,239.197,33.697,-74.708,489.790,285.072,-40.098,252.960,46.510,197.980
766,47236.527000,254.023,47.780,-70.724,496.519,280.326,-38.227,17.960,136.510,215.980
767,47236.571000,247.104,53.815,-37.852,494.560,276.553,-32.431,-65.040,184.510,188.980
768,47236.591000,244.139,44.762,-27.891,503.243,272.884,-26.610,-21.040,86.510,200.980
769,47236.631000,249.081,41.745,-37.852,501.261,268.011,-26.723,-15.040,-27.490,182.980
770,47236.669000,240.185,20.621,-32.872,505.951,254.315,-33.882,1.960,-204.490,148.980
771,47236.713000,246.116,30.680,-47.813,505.052,262.893,-40.558,186.960,-277.490,67.980
772,47236.751000,250.069,11.568,-62.755,506.006,262.773,-46.442,124.960,-288.490,1.980
773,47236.784000,251.058,27.662,-47.813,504.944,255.687,-59.350,234.960,-249.490,-92.020
774,47236.826000,248.093,27.662,-64.747,502.134,266.230,-64.026,341.960,-227.490,-117.020
775,47236.873000,240.185,22.633,-67.735,502.090,263.166,-70.958,231.960,-231.490,-144.020
776,47236.908000,243.151,31.686,-66.739,493.412,267.763,-78.720,275.960,-151.490,-149.020
777,47236.928000,245.127,29.674,-68.732,495.383,272.529,-83.513,354.960,-109.490,-195.020
778,47236.966000,235.243,32.692,-69.728,493.503,280.083,-92.176,363.960,-147.490,-237.020
779,47237.8000,235.243,40.739,-71.720,486.677,275.982,-99.146,417.960,-149.490,-212.020
780,47237.49000,234.255,26.656,-83.673,478.996,284.386,-110.743,557.960,-159.490,-273.020
781,47237.89000,233.266,47.780,-53.790,475.106,284.154,-119.582,358.960,-286.490,-333.020
782,47237.136000,242.162,52.809,-77.696,469.387,295.489,-131.111,199.960,-434.490,-340.020
783,47237.182000,218.440,76.951,-109.572,465.542,300.090,-140.823,144.960,-311.490,-241.020
784,47237.211000,234.255,48.786,-100.607,461.616,295.111,-144.865,-156.040,-226.490,-79.020
785,47237.231000,224.371,52.809,-112.560,460.686,298.985,-144.781,-68.040,-118.490,5.980
786,47237.271000,221.405,56.833,-113.556,460.752,305.782,-144.630,-64.040,53.510,103.980
787,47237.314000,218.440,44.762,-107.580,465.466,291.438,-137.093,-110.040,172.510,176.980
788,47237.348000,237.220,62.868,-92.638,469.383,295.446,-133.073,-190.040,231.510,249.980
789,47237.391000,240.185,53.815,-91.642,474.191,290.811,-125.321,-172.040,331.510,296.980
790,47237.442000,241.174,49.792,-80.685,479.895,277.578,-111.873,-297.040,295.510,293.980
791,47237.468000,238.208,41.745,-74.708,484.757,278.746,-104.972,-405.040,321.510,270.980
792,47237.513000,238.208,34.703,-58.770,488.600,273.239,-92.338,-587.040,214.510,200.980
793,47237.549000,240.185,5.532,-44.825,492.544,279.275,-84.350,-519.040,68.510,52.980
794,47237.569000,239.197,27.662,-65.743,489.681,282.267,-79.387,-371.040,40.510,-53.020
795,47237.608000,243.151,36.715,-65.743,488.744,284.307,-74.440,-471.040,34.510,-73.020
796,47237.648000,242.162,44.762,-75.704,485.829,281.517,-67.643,-377.040,37.510,-122.020
797,47237.692000,244.139,45.768,-53.790,484.075,298.197,-58.451,-417.040,48.510,-171.020
798,47237.732000,245.127,31.686,-49.805,482.137,297.272,-55.533,-382.040,-5.490,-243.020
799,47237.766000,239.197,43.756,-37.852,474.454,302.137,-51.519,-255.040,-131.490,-331.020
800,47237.812000,237.220,65.886,-50.802,468.732,311.682,-56.223,-185.040,-173.490,-340.020
801,47237.852000,237.220,57.839,-82.677,465.943,323.304,-55.970,-177.040,-134.490,-361.020
802,47237.892000,246.116,83.992,-90.646,461.176,329.211,-49.965,-345.040,-36.490,-355.020
803,47237.912000,257.977,91.033,-83.673,456.451,339.045,-41.912,-414.040,105.510,-326.020
804,47237.952000,283.676,66.892,-81.681,448.808,345.183,-24.140,-832.040,364.510,-193.020
805,47237.986000,237.220,41.745,-134.475,449.809,344.632,-5.517,-791.040,318.510,-115.020
806,47238.31000,219.429,21.627,-219.144,446.894,341.842,1.279,-1347.040,-547.490,446.980
807,47238.66000,208.556,15.591,-188.265,453.565,332.134,-1.864,-2153.040,-1498.490,595.980
808,47238.114000,205.591,73.933,-42.833,461.249,327.269,-5.879,-2282.040,-1813.490,569.980
809,47238.147000,163.089,22.633,53.790,462.092,315.520,-11.041,-1725.040,-1347.490,525.980
810,47238.187000,209.544,21.627,137.463,469.744,306.836,-12.198,-449.040,-27.490,447.980
811,47238.207000,323.212,151.387,-136.467,470.638,293.815,13.012,-954.040,797.510,459.980
812,47238.249000,222.394,72.927,-77.696,473.621,298.136,31.747,-64.040,679.510,81.980
813,47238.287000,255.012,109.139,-131.486,473.616,293.692,50.281,-301.040,565.510,228.980
814,47238.329000,171.985,116.181,-304.809,475.430,280.226,54.889,-2358.040,-595.490,411.980
815,47238.369000,175.938,76.951,-261.977,483.099,272.578,56.696,-3021.040,-1889.490,428.980
816,47238.411000,196.695,58.845,-268.949,482.894,256.526,32.804,-2905.040,-2615.490,264.980
817,47238.452000,216.463,66.892,-219.144,475.107,258.630,-0.508,-2211.040,-2873.490,-26.020
818,47238.492000,238.208,54.821,-186.272,465.382,260.694,-34.806,-1864.040,-2830.490,-217.020
819,47238.569000,235.243,70.916,-193.245,448.953,269.509,-67.988,-1451.040,-2664.490,-272.020
820,47238.578000,242.162,77.957,-178.303,432.543,279.381,-97.223,-1252.040,-2491.490,-277.020
821,47238.598000,240.185,37.721,-139.455,423.812,279.943,-111.939,-917.040,-1996.490,-175.020
822,47238.632000,203.614,12.574,-93.634,410.288,286.176,-131.442,-599.040,-1413.490,-22.020
823,47238.669000,190.764,13.580,-104.591,409.348,290.827,-140.167,-499.040,-623.490,202.980
824,47238.712000,231.290,34.703,-79.689,406.410,286.052,-135.376,-443.040,-168.490,379.980
825,47238.751000,237.220,45.768,-23.907,418.895,273.855,-121.891,-437.040,198.510,494.980
826,47238.791000,250.069,57.839,-55.782,430.467,266.568,-105.357,-485.040,607.510,673.980
827,47238.829000,248.093,73.933,-144.436,439.053,251.400,-92.927,-1003.040,214.510,791.980
828,47238.849000,249.081,121.210,-67.735,446.801,251.561,-88.984,-710.040,-175.490,563.980
829,47238.889000,252.046,153.399,-90.646,449.597,240.004,-86.293,-954.040,-292.490,514.980
830,47238.931000,263.907,136.299,-71.720,452.478,238.069,-87.311,-935.040,-551.490,301.980
831,47238.972000,262.919,160.440,-75.704,450.467,232.031,-96.275,-224.040,-489.490,131.980
832,47239.22000,233.266,148.369,-78.693,447.603,238.540,-107.904,55.960,-544.490,-178.020
833,47239.62000,198.672,150.381,-163.362,442.768,242.031,-123.528,358.960,-534.490,-324.020
834,47239.89000,220.417,75.945,-138.459,438.916,247.452,-140.087,1288.960,-251.490,-559.020
835,47239.138000,195.707,50.798,-46.817,434.973,244.070,-159.783,2384.960,451.510,-464.020
836,47239.171000,176.927,107.128,-82.677,434.868,235.138,-168.808,1071.960,889.510,-395.020
837,47239.202000,199.660,50.798,-102.599,439.819,242.434,-148.041,289.960,1312.510,-264.020
838,47239.229000,215.475,30.680,-114.553,450.538,245.925,-126.367,972.960,1842.510,-285.020
839,47239.269000,215.475,62.868,-144.436,460.276,247.508,-102.775,2248.960,2531.510,-390.020
840,47239.308000,264.896,14.585,-136.467,468.024,242.384,-74.433,2240.960,2666.510,-518.020
841,47239.348000,270.826,22.633,-155.393,477.820,251.561,-58.519,2851.960,2905.510,-724.020
842,47239.388000,268.849,20.621,-167.346,477.982,262.801,-32.772,3174.960,2977.510,-889.020
843,47239.428000,260.942,4.527,-166.350,477.285,285.639,-8.730,3224.960,2861.510,-1087.020
844,47239.468000,252.046,2.515,-157.385,467.873,308.306,11.366,3305.960,2662.510,-1178.020
845,47239.488000,224.371,12.574,-178.303,457.437,326.908,23.525,3061.960,2299.510,-1024.020
846,47239.528000,227.336,-13.580,-166.350,443.148,348.276,30.834,2588.960,1948.510,-829.020
847,47239.572000,202.625,21.627,-138.459,441.321,358.096,36.932,1772.960,1259.510,-212.020
848,47239.609000,182.857,30.680,-179.300,440.339,356.188,38.849,853.960,639.510,211.980
849,47239.651000,203.614,76.951,-277.914,452.733,339.590,28.700,166.960,-441.490,452.980
850,47239.692000,368.680,86.004,-7.969,464.211,326.111,28.425,-535.040,-259.490,576.980
851,47239.732000,230.301,78.963,-65.743,465.080,318.138,18.443,616.960,-281.490,351.980
852,47239.773000,256.000,32.692,-74.708,476.629,314.152,8.573,388.960,0.510,383.980
853,47239.822000,245.127,64.880,-42.833,477.557,310.256,7.507,278.960,58.510,223.980
854,47239.832000,242.162,69.910,-30.879,480.398,304.416,5.422,282.960,51.510,258.980
855,47239.873000,240.185,49.792,-21.914,482.279,299.516,2.376,173.960,-65.490,252.980
856,47239.911000,231.290,-2.515,-16.934,487.983,290.684,-4.673,184.960,-210.490,191.980
857,47239.954000,248.093,56.833,-49.805,486.037,290.557,-9.583,325.960,-316.490,108.980
858,47239.994000,249.081,54.821,-87.658,489.868,289.343,-22.351,387.960,-166.490,124.980
859,47240.34000,258.965,71.921,-53.790,491.760,284.551,-20.492,57.960,59.510,162.980
860,47240.74000,248.093,60.857,-45.821,492.608,271.961,-19.789,-226.040,55.510,169.980
861,47240.114000,250.069,55.827,-44.825,498.475,277.907,-16.702,-224.040,-81.490,196.980
862,47240.134000,239.197,24.644,-40.840,497.414,269.074,-20.823,-77.040,-141.490,173.980
863,47240.173000,235.243,19.615,-47.813,501.315,272.930,-23.672,91.960,-231.490,99.980
864,47240.214000,246.116,29.674,-55.782,501.295,272.736,-32.502,162.960,-218.490,36.980
865,47240.252000,243.151,19.615,-65.743,503.143,264.880,-37.576,362.960,-143.490,10.980
866,47240.288000,246.116,35.709,-64.747,498.299,265.653,-44.433,356.960,-118.490,-35.020
867,47240.333000,238.208,39.733,-72.716,499.290,271.164,-59.019,438.960,-86.490,-79.020
868,47240.371000,245.127,39.733,-78.693,495.389,268.192,-60.074,459.960,28.510,-75.020
869,47240.411000,247.104,36.715,-64.747,497.386,274.964,-61.880,449.960,80.510,-47.020
870,47240.448000,239.197,38.727,-49.805,498.325,272.945,-65.846,537.960,60.510,-75.020
871,47240.474000,241.174,14.585,-58.770,496.313,266.022,-70.907,687.960,8.510,-103.020
872,47240.514000,241.174,37.721,-64.747,493.462,273.524,-81.534,750.960,74.510,-121.020
873,47240.551000,245.127,19.615,-48.809,488.644,277.188,-89.308,361.960,-99.490,-167.020
874,47240.591000,240.185,9.556,-57.774,484.817,282.846,-95.075,527.960,-208.490,-330.020
875,47240.628000,230.301,34.703,-68.732,479.028,286.457,-104.813,484.960,-226.490,-373.020
876,47240.669000,229.313,51.804,-81.681,474.199,289.128,-113.590,103.960,-325.490,-250.020
877,47240.708000,235.243,69.910,-100.607,471.288,289.898,-121.424,27.960,-220.490,-151.020
878,47240.752000,241.174,67.898,-105.588,467.498,297.671,-119.299,-122.040,-3.490,66.980
879,47240.769000,240.185,55.827,-87.658,472.311,293.964,-113.487,-135.040,103.510,151.980
880,47240.812000,237.220,54.821,-90.646,475.196,291.187,-108.639,-284.040,166.510,216.980
881,47240.852000,238.208,52.809,-87.658,476.147,288.392,-103.796,-312.040,202.510,260.980
882,47240.888000,241.174,40.739,-75.704,483.770,274.142,-93.309,-443.040,272.510,301.980
883,47240.932000,238.208,25.650,-62.755,488.617,272.527,-80.586,-483.040,301.510,271.980
884,47240.972000,244.139,26.656,-60.763,491.593,276.784,-64.794,-474.040,224.510,190.980
885,47241.12000,245.127,21.627,-55.782,498.386,277.044,-55.948,-596.040,167.510,105.980
886,47241.52000,244.139,29.674,-53.790,495.430,268.580,-42.413,-650.040,258.510,91.980
887,47241.93000,247.104,24.644,-42.833,497.408,270.778,-31.573,-610.040,185.510,-16.020
888,47241.114000,242.162,25.650,-34.864,497.436,271.922,-23.702,-731.040,67.510,-93.020
889,47241.158000,243.151,22.633,-27.891,495.578,277.922,-14.747,-588.040,-46.490,-185.020
890,47241.193000,245.127,29.674,-35.860,492.755,285.704,-12.619,-359.040,-125.490,-266.020
891,47241.233000,244.139,58.845,-45.821,488.984,295.418,-10.450,-527.040,-234.490,-289.020
892,47241.273000,245.127,48.786,-61.759,483.206,298.252,-11.380,-376.040,-180.490,-296.020
893,47241.313000,247.104,63.874,-56.778,477.525,309.954,-6.229,-349.040,-46.490,-325.020
894,47241.356000,253.035,57.839,-49.805,473.660,309.959,-4.275,-363.040,4.510,-366.020
895,47241.394000,261.931,54.821,-36.856,464.157,326.478,0.975,-279.040,42.510,-385.020
896,47241.414000,280.710,37.721,-46.817,461.333,334.238,2.122,-21.040,45.510,-406.020
897,47241.454000,269.838,73.933,-99.611,454.558,334.150,1.125,-48.040,-189.490,-224.020
898,47241.493000,261.931,40.739,-165.354,451.604,328.340,2.951,-1670.040,-925.490,350.980
899,47241.533000,185.822,104.110,-86.661,455.449,324.624,8.760,-1894.040,-976.490,171.980
900,47241.572000,145.297,115.175,-26.895,458.358,324.717,11.711,-1440.040,-852.490,254.980
901,47241.613000,154.193,78.963,-10.957,463.196,324.764,11.722,-1240.040,-670.490,269.980
902,47241.652000,320.247,-42.750,94.630,470.805,310.384,16.322,-1503.040,-238.490,328.980
903,47241.692000,296.525,82.986,-4.981,473.660,300.272,40.620,-905.040,931.510,506.980
904,47241.733000,247.104,91.033,-192.249,472.678,293.078,66.936,-947.040,513.510,264.980
905,47241.754000,255.012,9.556,-255.004,480.365,286.487,72.690,-1370.040,-488.490,388.980
906,47241.794000,168.031,112.157,-271.938,488.931,273.778,64.581,-2646.040,-1652.490,450.980
907,47241.834000,240.185,47.780,-239.066,490.678,259.665,39.755,-3174.040,-2805.490,393.980
908,47241.894000,231.290,60.857,-181.292,484.772,255.121,12.183,-2354.040,-2994.490,49.980
909,47241.913000,233.266,56.833,-172.327,472.144,258.020,-27.006,-1983.040,-2799.490,-93.020
910,47241.954000,251.058,50.798,-156.389,461.571,270.904,-54.201,-1981.040,-2563.490,-131.020
911,47242.7000,264.896,36.715,-143.440,449.975,276.206,-72.740,-1638.040,-2137.490,-79.020
912,47242.36000,270.826,34.703,-121.525,437.332,272.804,-89.513,-1239.040,-1772.490,-36.020
913,47242.56000,260.942,13.580,-108.576,428.638,277.250,-104.143,-718.040,-1347.490,-46.020
914,47242.96000,245.127,-0.503,-73.712,425.730,278.042,-110.996,23.960,-897.490,-27.020
915,47242.154000,230.301,29.674,-30.879,421.798,273.883,-121.884,357.960,-440.490,132.980
916,47242.171000,225.359,41.745,-4.981,424.667,270.956,-123.904,62.960,163.510,287.980
917,47242.209000,200.649,87.010,-81.681,434.276,261.622,-111.343,-193.040,512.510,453.980
918,47242.249000,208.556,73.933,-122.521,442.890,249.366,-98.848,-192.040,458.510,612.980
919,47242.322000,222.394,148.369,-122.521,446.726,244.679,-93.060,-353.040,88.510,466.980
920,47242.349000,216.463,169.493,-113.556,454.434,240.051,-86.282,-762.040,-76.490,368.980
921,47242.437000,254.023,124.228,-68.732,454.429,239.123,-84.341,-696.040,-285.490,181.980
922,47242.458000,272.803,131.269,-69.728,457.351,241.978,-88.194,-153.040,-420.490,-102.020
923,47242.478000,273.792,112.157,-82.677,447.605,237.677,-103.020,59.960,-649.490,-315.020
924,47242.494000,269.838,93.045,-115.549,437.020,247.799,-123.412,467.960,-760.490,-580.020
925,47242.542000,229.313,82.986,-155.393,423.594,265.531,-149.524,774.960,-788.490,-772.020
926,47242.582000,174.950,91.033,-152.405,410.053,271.592,-176.877,1184.960,-627.490,-944.020
927,47242.608000,170.008,32.692,-81.681,399.392,273.063,-193.538,1007.960,127.510,-975.020
928,47242.637000,155.181,17.603,-71.720,397.594,287.564,-195.181,1264.960,892.510,-876.020
929,47242.676000,163.089,42.750,-120.529,402.442,286.834,-186.361,1242.960,1817.510,-758.020
930,47242.711000,178.903,29.674,-128.498,411.265,295.074,-168.508,1301.960,2342.510,-692.020
931,47242.742000,196.695,32.692,-123.518,425.769,288.981,-143.115,1842.960,3008.510,-618.020
932,47242.777000,228.324,18.609,-167.346,443.341,297.715,-106.600,2273.960,3275.510,-593.020
933,47242.819000,283.676,34.703,-176.311,461.710,289.847,-75.355,2977.960,3439.510,-801.020
934,47242.854000,280.710,43.756,-195.237,461.810,296.966,-60.486,3391.960,3341.510,-1138.020
935,47242.897000,258.965,15.591,-201.214,460.091,313.992,-35.596,3378.960,2870.510,-1423.020
936,47242.937000,217.452,6.538,-213.167,446.765,334.442,-26.344,3505.960,2496.510,-1379.020
937,47242.974000,209.544,5.532,-234.086,431.501,357.484,-30.768,2890.960,1568.510,-1013.020
938,47243.17000,175.938,-7.544,-283.891,424.773,364.883,-44.347,2142.960,729.510,-527.020
939,47243.37000,173.961,12.574,-256.996,423.761,365.327,-67.875,1127.960,-215.490,-68.020
940,47243.77000,204.602,39.733,-92.638,437.230,358.576,-71.919,-84.040,-277.490,536.980
941,47243.116000,264.896,151.387,-65.743,435.210,349.820,-72.118,-933.040,-302.490,439.980
942,47243.157000,265.884,87.010,-90.646,449.635,342.086,-77.162,1267.960,213.510,354.980
943,47243.196000,240.185,45.768,-83.673,453.353,327.453,-82.383,126.960,65.510,410.980
944,47243.238000,244.139,26.656,-84.669,457.151,319.767,-80.584,217.960,220.510,303.980
945,47243.276000,233.266,64.880,-69.728,463.925,318.970,-75.684,401.960,309.510,253.980
946,47243.316000,232.278,45.768,-58.770,473.548,313.282,-73.829,197.960,245.510,271.980
947,47243.354000,239.197,45.768,-48.809,476.318,298.834,-70.221,191.960,266.510,265.980
948,47243.376000,235.243,8.550,-35.860,478.245,297.903,-69.257,433.960,223.510,237.980
949,47243.416000,255.012,79.969,-44.825,478.149,289.058,-74.357,390.960,49.510,125.980
950,47243.457000,248.093,37.721,-59.767,483.026,293.010,-73.278,7.960,-32.490,203.980
951,47243.494000,252.046,42.750,-68.732,483.921,286.159,-76.370,23.960,-97.490,137.980
952,47243.534000,243.151,42.750,-63.751,486.743,278.377,-78.498,-1.040,-63.490,125.980
953,47243.570000,248.093,38.727,-60.763,485.736,273.578,-75.665,52.960,1.510,102.980
954,47243.618000,252.046,24.644,-65.743,491.626,283.257,-79.360,118.960,15.510,134.980
955,47243.672000,237.220,39.733,-50.802,490.552,272.546,-80.581,183.960,53.510,77.980
956,47243.681000,242.162,22.633,-45.821,492.480,271.616,-79.617,288.960,-7.490,54.980
957,47243.716000,251.058,24.644,-66.739,493.460,274.387,-86.418,379.960,-0.490,-4.020
958,47243.754000,244.139,41.745,-66.739,490.501,269.418,-90.457,291.960,24.510,-22.020
959,47243.799000,248.093,31.686,-63.751,491.502,272.383,-88.428,303.960,85.510,-2.020
960,47243.834000,239.197,37.721,-42.833,488.548,268.342,-94.408,193.960,7.510,-4.020
961,47243.874000,243.151,5.532,-42.833,489.577,275.104,-96.217,244.960,-115.490,-71.020
962,47243.914000,240.185,25.650,-57.774,485.683,274.829,-107.019,364.960,-233.490,-185.020
963,47243.954000,241.174,31.686,-78.693,484.676,272.684,-115.894,277.960,-226.490,-215.020
964,47243.994000,244.139,37.721,-80.685,477.963,279.349,-118.702,134.960,-182.490,-191.020
965,47244.14000,244.139,45.768,-94.630,476.066,284.099,-122.524,190.960,-75.490,-159.020
966,47244.54000,243.151,55.827,-89.650,475.134,287.951,-123.421,-1.040,112.510,-26.020
967,47244.98000,243.151,52.809,-81.681,480.887,281.341,-117.671,-25.040,258.510,52.980
968,47244.137000,239.197,42.750,-67.735,479.007,285.378,-109.740,-91.040,363.510,140.980
969,47244.183000,243.151,42.750,-56.778,486.680,276.888,-102.067,-87.040,400.510,169.980
970,47244.221000,243.151,30.680,-53.790,488.661,279.108,-90.246,-131.040,398.510,191.980
971,47244.254000,247.104,30.680,-56.778,493.433,269.727,-77.696,-135.040,431.510,192.980
972,47244.297000,251.058,37.721,-54.786,499.255,269.071,-65.930,-150.040,488.510,211.980
973,47244.318000,249.081,34.703,-52.794,504.036,259.776,-49.455,-145.040,631.510,240.980
974,47244.358000,238.208,9.556,-4.981,505.937,254.186,-39.768,-299.040,596.510,192.980
975,47244.399000,246.116,-7.544,11.953,506.931,253.569,-24.089,-502.040,280.510,48.980
976,47244.441000,255.012,24.644,-25.899,505.982,253.733,-16.243,-471.040,187.510,-58.020
977,47244.472000,249.081,16.597,-11.953,504.180,264.674,-3.255,-573.040,167.510,-130.020
978,47244.514000,252.046,21.627,-16.934,505.151,262.957,6.516,-556.040,146.510,-176.020
979,47244.553000,256.988,23.639,-18.926,499.408,267.021,17.381,-493.040,219.510,-226.020
980,47244.593000,256.000,22.633,-13.946,496.651,279.830,27.466,-476.040,267.510,-274.020
981,47244.633000,252.046,33.697,-0.996,493.814,284.828,35.416,-432.040,268.510,-354.020
982,47244.653000,250.069,38.727,7.969,491.986,292.878,49.321,-333.040,245.510,-380.020
983,47244.697000,253.035,39.733,11.953,483.375,301.639,54.400,-287.040,214.510,-411.020
984,47244.737000,255.012,52.809,18.926,472.829,310.381,59.475,-233.040,119.510,-485.020
985,47244.775000,257.977,62.868,18.926,469.037,317.247,64.523,-367.040,-34.490,-538.020
986,47244.817000,261.931,55.827,-1.992,458.541,331.750,66.784,-413.040,-212.490,-434.020
987,47244.857000,245.127,46.774,-64.747,457.534,328.720,61.811,-440.040,-317.490,-218.020
988,47244.897000,216.463,55.827,-132.482,458.534,331.685,63.841,-989.040,-807.490,145.980
989,47244.956000,212.510,63.874,-102.599,460.357,322.707,51.877,-1009.040,-1030.490,-11.020
990,47244.976000,225.359,58.845,-116.545,465.154,323.251,30.325,-491.040,-1252.490,24.980
991,47244.997000,213.498,102.098,-81.681,465.139,328.386,-0.942,-142.040,-1309.490,-45.020
992,47245.37000,233.266,103.104,-54.786,459.329,335.320,-36.104,-213.040,-1309.490,-155.020
993,47245.77000,241.174,106.122,-49.805,448.633,335.583,-63.580,-81.040,-1228.490,-135.020
994,47245.119000,250.069,134.287,-46.817,436.045,339.754,-89.011,-533.040,-1126.490,-232.020
995,47245.166000,241.174,101.092,-17.930,427.377,346.206,-100.654,-471.040,-794.490,-304.020
996,47245.196000,233.266,89.022,-16.934,413.903,355.545,-111.262,-335.040,-491.490,-181.020
997,47245.237000,253.035,80.974,1.992,411.053,361.299,-113.102,-265.040,-75.490,20.980
998,47245.277000,259.954,50.798,0.000,413.977,361.543,-103.284,-449.040,203.510,135.980
999,47245.298000,265.884,38.727,8.965,418.728,350.199,-91.757,-314.040,506.510,309.980
1000,47245.339000,257.977,-60.857,-72.716,426.467,347.620,-80.030,222.960,560.510,433.980
1001,47245.378000,240.185,88.016,-61.759,427.375,340.899,-77.236,-113.040,315.510,327.980
1002,47245.418000,244.139,87.010,-43.829,437.044,339.180,-71.370,-412.040,140.510,343.980
1003,47245.458000,241.174,66.892,-63.751,441.808,330.598,-66.647,473.960,288.510,306.980
1004,47245.498000,241.174,63.874,-66.739,446.532,318.994,-66.894,228.960,284.510,347.980
1005,47245.538000,240.185,67.898,-62.755,454.261,317.214,-62.995,149.960,333.510,379.980
1006,47245.578000,245.127,64.880,-62.755,459.039,309.646,-56.288,207.960,389.510,418.980
1007,47245.618000,249.081,52.809,-59.767,468.559,292.415,-49.786,104.960,437.510,462.980
1008,47245.638000,245.127,48.786,-40.840,469.528,290.677,-40.997,-63.040,463.510,470.980
1009,47245.679000,239.197,10.562,-7.969,478.116,276.415,-31.488,37.960,358.510,414.980
1010,47245.719000,251.058,12.574,-14.942,480.969,270.683,-28.668,132.960,121.510,262.980
1011,47245.761000,254.023,22.633,-31.875,479.985,269.638,-31.635,138.960,15.510,185.980
1012,47245.795000,248.093,18.609,-36.856,479.923,262.885,-29.824,151.960,-22.490,108.980
1013,47245.837000,251.058,25.650,-38.848,485.674,258.022,-32.861,140.960,-18.490,76.980
1014,47245.876000,249.081,28.668,-41.837,481.769,255.007,-35.879,86.960,-19.490,63.980
1015,47245.918000,249.081,19.615,-30.879,484.688,256.956,-36.810,85.960,-39.490,49.980
1016,47245.938000,250.069,24.644,-40.840,488.540,255.936,-40.747,79.960,-61.490,19.980
1017,47245.974000,251.058,21.627,-37.852,485.635,255.886,-41.735,36.960,-84.490,-0.020
1018,47246.17000,249.081,22.633,-43.829,485.622,255.757,-47.622,58.960,-87.490,-21.020
1019,47246.57000,250.069,27.662,-41.837,484.669,257.646,-49.543,49.960,-77.490,-32.020
1020,47246.98000,251.058,26.656,-44.825,486.653,262.541,-48.450,54.960,-57.490,-31.020
1021,47246.138000,250.069,26.656,-45.821,483.748,262.491,-49.437,52.960,-24.490,-26.020
1022,47246.184000,249.081,18.609,-41.837,486.667,264.439,-50.369,27.960,-30.490,-48.020
1023,47246.223000,251.058,23.639,-43.829,483.777,265.404,-49.373,100.960,-25.490,-104.020
1024,47246.259000,250.069,21.627,-42.833,485.728,268.227,-54.209,73.960,-34.490,-140.020
1025,47246.274000,248.093,29.674,-40.840,476.118,274.907,-55.062,22.960,-67.490,-189.020
1026,47246.317000,250.069,31.686,-45.821,478.065,276.803,-57.958,-13.040,-84.490,-206.020
1027,47246.358000,248.093,36.715,-50.802,475.217,282.579,-58.816,-30.040,-55.490,-209.020
1028,47246.398000,246.116,38.727,-46.817,474.231,280.627,-58.862,-62.040,-46.490,-206.020
1029,47246.438000,245.127,42.750,-45.821,471.370,284.526,-56.820,-92.040,-46.490,-208.020
1030,47246.478000,246.116,43.756,-45.821,465.603,288.353,-56.747,-111.040,-56.490,-214.020
1031,47246.518000,244.139,44.762,-43.829,461.880,302.921,-54.470,-127.040,-65.490,-216.020
1032,47246.558000,244.139,48.786,-47.813,459.933,301.910,-55.477,-132.040,-63.490,-221.020
1033,47246.598000,243.151,55.827,-48.809,456.083,304.698,-59.346,-132.040,-48.490,-217.020
1034,47246.618000,243.151,53.815,-47.813,451.306,309.635,-53.363,-125.040,-31.490,-209.020
1035,47246.658000,242.162,58.845,-48.809,452.328,315.448,-54.212,-131.040,-33.490,-205.020
1036,47246.698000,242.162,58.845,-44.825,443.701,323.173,-52.098,-151.040,-50.490,-201.020
1037,47246.738000,242.162,63.874,-46.817,445.657,325.155,-51.069,-183.040,-69.490,-201.020
1038,47246.778000,240.185,64.880,-44.825,441.857,331.957,-48.965,-230.040,-105.490,-196.020
1039,47246.818000,239.197,66.892,-45.821,437.922,325.123,-49.125,-239.040,-120.490,-185.020
1040,47246.858000,239.197,71.921,-48.809,431.312,341.583,-47.792,-263.040,-133.490,-169.020
1041,47246.898000,236.232,74.939,-48.809,429.389,342.557,-46.794,-259.040,-144.490,-156.020
1042,47246.918000,239.197,73.933,-49.805,429.464,350.324,-46.622,-186.040,-122.490,-143.020
1043,47246.959000,239.197,78.963,-52.794,423.650,349.296,-46.657,-160.040,-89.490,-119.020
