Sample, Time, ACCX, ACCY, ACCZ, MAGX, MAGY, MAGZ, GYRX, GYRY, GYRZ
0,47003.333000,245.127,42.750,-51.798,414.469,295.361,-24.337,-4.040,-5.490,-0.020
1,47003.355000,244.139,40.739,-50.802,414.394,288.478,-28.413,-0.040,-5.490,0.980
2,47003.395000,246.116,40.739,-50.802,416.357,290.525,-24.441,-2.040,-6.490,1.980
3,47003.435000,246.116,40.739,-48.809,416.373,292.445,-25.379,1.960,-5.490,0.980
4,47003.474000,246.116,39.733,-51.798,420.255,293.476,-24.367,-0.040,-4.490,0.980
5,47003.515000,245.127,41.745,-50.802,415.373,288.596,-23.505,-0.040,-3.490,-2.020
6,47003.553000,245.127,35.709,-47.813,415.402,292.393,-27.343,-3.040,-21.490,-5.020
7,47003.593000,243.151,33.697,-48.809,413.422,287.541,-26.474,6.960,-44.490,-17.020
8,47003.633000,244.139,34.703,-49.805,411.534,293.261,-30.274,-3.040,-74.490,-34.020
9,47003.673000,246.116,44.762,-54.786,416.388,294.344,-27.298,-7.040,-75.490,-34.020
10,47003.693000,246.116,42.750,-53.790,411.509,291.255,-33.261,-20.040,-56.490,-27.020
11,47003.735000,245.127,43.756,-57.774,409.555,288.410,-29.405,5.960,-35.490,-21.020
12,47003.775000,243.151,44.762,-53.790,415.399,292.371,-28.324,-18.040,-15.490,-10.020
13,47003.815000,244.139,42.750,-52.794,412.502,293.271,-30.272,-17.040,-12.490,-7.020
14,47003.855000,244.139,41.745,-52.794,416.409,297.192,-30.177,-18.040,-21.490,-11.020
15,47003.895000,246.116,45.768,-52.794,414.496,299.136,-29.157,-28.040,-25.490,-11.020
16,47003.935000,242.162,41.745,-55.782,411.513,291.298,-31.298,-25.040,-22.490,-5.020
17,47003.975000,244.139,42.750,-52.794,409.621,295.206,-29.254,-16.040,-21.490,-0.020
18,47003.995000,243.151,44.762,-52.794,413.519,298.156,-29.181,-13.040,-19.490,4.980
19,47004.35000,243.151,42.750,-56.778,413.486,296.085,-35.111,-3.040,-11.490,7.980
20,47004.75000,243.151,42.750,-53.790,414.484,298.144,-30.160,-21.040,1.510,18.980
21,47004.115000,241.174,43.756,-53.790,415.435,296.233,-29.219,-36.040,2.510,25.980
22,47004.153000,240.185,40.739,-47.813,410.595,296.164,-30.212,-78.040,-3.490,22.980
23,47004.195000,244.139,42.750,-53.790,411.560,296.152,-31.191,-9.040,-63.490,-5.020
24,47004.235000,243.151,52.809,-65.743,412.561,299.117,-29.161,42.960,-25.490,5.980
25,47004.274000,243.151,44.762,-59.767,417.391,299.100,-32.093,21.960,8.510,26.980
26,47004.313000,244.139,43.756,-54.786,413.507,297.164,-30.183,32.960,29.510,34.980
27,47004.336000,244.139,39.733,-51.798,416.343,290.396,-30.328,11.960,14.510,26.980
28,47004.375000,244.139,38.727,-50.802,414.442,294.217,-32.208,-11.040,-15.490,5.980
29,47004.412000,242.162,41.745,-51.798,413.512,298.091,-32.124,-7.040,-46.490,-6.020
30,47004.457000,243.151,40.739,-51.798,411.528,293.197,-33.218,21.960,-54.490,-8.020
31,47004.497000,243.151,44.762,-56.778,411.528,293.197,-33.218,26.960,-38.490,-3.020
32,47004.537000,242.162,40.739,-60.763,413.463,293.215,-33.213,-4.040,-5.490,14.980
33,47004.586000,244.139,44.762,-57.774,412.446,288.330,-34.304,14.960,25.510,26.980
34,47004.612000,245.127,37.721,-58.770,408.637,294.161,-32.222,37.960,48.510,28.980
35,47004.633000,246.116,43.756,-58.770,413.481,294.273,-29.267,18.960,62.510,21.980
36,47004.673000,244.139,38.727,-56.778,414.435,293.268,-31.249,-40.040,63.510,16.980
37,47004.715000,246.116,30.680,-48.809,414.399,289.406,-30.354,-88.040,41.510,-31.020
38,47004.754000,244.139,29.674,-42.833,411.562,295.289,-26.306,-91.040,-12.490,-97.020
39,47004.794000,245.127,37.721,-46.817,407.700,296.201,-27.275,-44.040,-88.490,-172.020
40,47004.835000,243.151,38.727,-48.809,406.810,304.865,-30.027,-12.040,-126.490,-204.020
41,47004.874000,245.127,41.745,-48.809,406.867,311.574,-33.800,6.960,-174.490,-256.020
42,47004.916000,246.116,48.786,-38.848,400.103,313.342,-38.678,-177.040,-269.490,-291.020
43,47004.957000,235.243,47.780,-38.848,392.399,318.013,-43.494,-242.040,-483.490,-380.020
44,47004.977000,238.208,71.921,-55.782,385.715,328.476,-50.141,-246.040,-637.490,-416.020
45,47005.17000,255.012,87.010,-107.580,380.851,327.285,-58.023,-293.040,-510.490,-239.020
46,47005.57000,255.012,76.951,-56.778,379.989,337.977,-56.807,-369.040,-257.490,-87.020
47,47005.97000,255.012,47.780,-22.911,380.956,336.217,-48.998,-434.040,145.510,160.980
48,47005.137000,245.127,51.804,-29.883,387.684,328.818,-35.419,-257.040,505.510,228.980
49,47005.176000,226.347,70.916,-52.794,392.501,325.154,-27.645,-123.040,471.510,183.980
50,47005.225000,227.336,76.951,-54.786,393.511,329.090,-25.594,344.960,377.510,17.980
51,47005.256000,193.730,104.110,-132.482,396.470,334.944,-25.458,406.960,268.510,-75.020
52,47005.277000,204.602,64.880,-126.506,391.598,332.804,-32.380,107.960,-198.490,-131.020
53,47005.321000,234.255,43.756,-53.790,393.522,332.715,-37.282,117.960,-275.490,-53.020
54,47005.356000,223.382,59.851,-78.693,393.452,326.760,-43.298,23.960,-137.490,80.980
55,47005.396000,221.405,75.945,-66.739,389.610,329.635,-43.242,-34.040,-182.490,123.980
56,47005.436000,233.266,70.916,-71.720,398.306,329.612,-48.128,44.960,-143.490,120.980
57,47005.476000,234.255,70.916,-73.712,397.289,325.612,-53.122,174.960,-95.490,101.980
58,47005.515000,245.127,70.916,-76.700,399.145,318.705,-59.155,191.960,-36.490,144.980
59,47005.553000,241.174,65.886,-76.700,402.064,320.653,-60.087,244.960,25.510,187.980
60,47005.593000,235.243,60.857,-73.712,402.892,307.006,-63.330,249.960,76.510,222.980
61,47005.615000,234.255,47.780,-74.708,402.937,311.839,-64.203,270.960,133.510,265.980
62,47005.655000,241.174,50.798,-73.712,409.657,306.123,-62.354,225.960,171.510,281.980
63,47005.695000,252.046,51.804,-70.724,414.443,300.388,-60.510,121.960,200.510,279.980
64,47005.736000,251.058,43.756,-72.716,418.203,287.934,-54.895,130.960,251.510,269.980
65,47005.777000,245.127,33.697,-55.782,422.040,284.131,-53.010,9.960,235.510,226.980
66,47005.816000,244.139,31.686,-54.786,421.034,279.354,-49.195,-24.040,183.510,172.980
67,47005.856000,240.185,30.680,-50.802,423.988,283.395,-43.215,-67.040,107.510,127.980
68,47005.896000,239.197,28.668,-52.794,426.868,280.575,-40.330,-42.040,82.510,109.980
69,47005.916000,242.162,25.650,-50.802,429.733,276.720,-40.410,-13.040,60.510,82.980
70,47005.956000,249.081,35.709,-59.767,426.781,270.931,-37.602,-12.040,102.510,72.980
71,47005.996000,246.116,28.668,-51.798,429.739,275.900,-33.563,-8.040,135.510,75.980
72,47006.36000,250.069,20.621,-49.805,429.687,270.118,-31.730,20.960,123.510,33.980
73,47006.77000,248.093,29.674,-46.817,431.669,274.991,-31.618,43.960,117.510,-8.020
74,47006.117000,248.093,23.639,-44.825,430.730,277.010,-27.652,-57.040,56.510,-68.020
75,47006.158000,247.104,26.656,-43.829,431.709,278.012,-26.647,-16.040,3.510,-104.020
76,47006.198000,246.116,26.656,-38.848,423.986,279.856,-27.603,-25.040,-63.490,-135.020
77,47006.238000,250.069,41.745,-59.767,424.078,289.544,-28.369,-122.040,-55.490,-149.020
78,47006.258000,241.174,36.715,-48.809,422.077,282.729,-28.524,-173.040,-30.490,-137.020
79,47006.298000,242.162,36.715,-42.833,422.162,290.582,-24.427,-191.040,-75.490,-156.020
80,47006.338000,243.151,42.750,-45.821,420.274,296.302,-28.227,-120.040,-153.490,-185.020
81,47006.378000,241.174,40.739,-43.829,418.328,295.291,-29.234,-157.040,-207.490,-205.020
82,47006.418000,248.093,45.768,-53.790,413.528,299.127,-29.159,-144.040,-196.490,-202.020
83,47006.458000,249.081,63.874,-72.716,410.675,303.975,-28.077,-169.040,-82.490,-149.020
84,47006.500000,237.220,55.827,-61.759,412.615,304.037,-26.110,-161.040,6.510,-96.020
85,47006.539000,234.255,51.804,-49.805,408.825,311.809,-23.984,-170.040,5.510,-84.020
86,47006.555000,245.127,50.798,-42.833,404.903,306.874,-26.063,-154.040,-67.490,-95.020
87,47006.594000,241.174,54.821,-48.809,408.790,308.832,-26.992,-151.040,-160.490,-118.020
88,47006.635000,239.197,55.827,-52.794,406.916,315.566,-28.808,-123.040,-200.490,-126.020
89,47006.676000,241.174,59.851,-58.770,402.103,318.388,-30.717,-30.040,-192.490,-108.020
90,47006.716000,238.208,70.916,-63.751,402.124,321.236,-33.596,1.960,-169.490,-72.020
91,47006.756000,230.301,66.892,-69.728,401.155,322.089,-38.482,66.960,-115.490,-23.020
92,47006.797000,233.266,65.886,-73.712,399.194,319.180,-37.570,98.960,-49.490,12.980
93,47006.838000,232.278,68.904,-72.716,398.196,316.236,-38.618,110.960,29.510,60.980
94,47006.878000,234.255,62.868,-67.735,399.197,320.086,-40.492,117.960,103.510,119.980
95,47006.906000,236.232,60.857,-65.743,404.954,315.288,-40.586,113.960,132.510,145.980
96,47006.939000,239.197,58.845,-61.759,406.837,309.525,-38.749,98.960,154.510,181.980
97,47006.975000,246.116,51.804,-57.774,411.622,303.790,-36.905,136.960,173.510,194.980
98,47007.20000,241.174,53.815,-59.767,413.543,301.910,-34.981,152.960,188.510,199.980
99,47007.60000,244.139,48.786,-56.778,414.451,295.188,-32.187,164.960,193.510,198.980
100,47007.104000,245.127,39.733,-49.805,417.365,296.209,-31.177,122.960,168.510,177.980
101,47007.137000,244.139,36.715,-44.825,420.277,297.208,-31.149,113.960,117.510,151.980
102,47007.177000,244.139,36.715,-48.809,424.057,287.580,-29.393,134.960,76.510,127.980
103,47007.203000,244.139,34.703,-49.805,422.098,284.692,-27.500,116.960,66.510,118.980
104,47007.238000,247.104,35.709,-50.802,423.080,286.600,-29.417,106.960,77.510,118.980
105,47007.278000,245.127,41.745,-49.805,426.888,279.885,-27.597,74.960,117.510,126.980
106,47007.318000,247.104,34.703,-45.821,425.970,284.751,-26.510,39.960,111.510,122.980
107,47007.358000,247.104,30.680,-45.821,427.855,279.010,-23.691,8.960,83.510,98.980
108,47007.398000,246.116,28.668,-42.833,430.708,274.162,-24.774,-11.040,49.510,65.980
109,47007.440000,247.104,28.668,-43.829,427.839,277.089,-22.753,-25.040,-6.490,18.980
110,47007.476000,246.116,27.662,-44.825,432.638,273.253,-22.828,-11.040,-36.490,-7.020
111,47007.516000,246.116,29.674,-43.829,427.834,277.046,-24.716,-1.040,-57.490,-35.020
112,47007.536000,249.081,29.674,-42.833,428.828,279.947,-25.630,-2.040,-70.490,-54.020
113,47007.578000,248.093,34.703,-49.805,427.910,285.698,-28.446,-23.040,-78.490,-75.020
114,47007.618000,245.127,33.697,-48.809,427.893,283.778,-27.508,-38.040,-82.490,-83.020
115,47007.658000,248.093,37.721,-52.794,424.040,285.660,-28.455,-28.040,-82.490,-92.020
116,47007.698000,248.093,39.733,-53.790,424.069,288.573,-28.390,-102.040,-89.490,-101.020
117,47007.740000,244.139,34.703,-46.817,421.150,286.624,-27.459,-95.040,-93.490,-109.020
118,47007.780000,244.139,36.715,-48.809,421.186,291.371,-32.257,-77.040,-107.490,-125.020
119,47007.819000,246.116,40.739,-49.805,419.272,293.315,-31.237,-89.040,-121.490,-135.020
120,47007.840000,244.139,40.739,-49.805,415.365,290.279,-35.236,-77.040,-139.490,-147.020
121,47007.878000,244.139,38.727,-49.805,411.596,300.899,-35.988,-58.040,-169.490,-169.020
122,47007.918000,245.127,45.768,-49.805,409.691,305.562,-43.734,-41.040,-231.490,-216.020
123,47007.958000,240.185,49.792,-53.790,407.806,311.303,-46.553,-64.040,-285.490,-243.020
124,47007.998000,241.174,51.804,-56.778,402.032,315.066,-49.423,-23.040,-322.490,-259.020
125,47008.40000,246.116,59.851,-70.724,400.060,312.932,-57.320,-42.040,-326.490,-261.020
126,47008.77000,235.243,62.868,-74.708,396.241,319.540,-64.046,-103.040,-317.490,-223.020
127,47008.130000,234.255,64.880,-80.685,391.462,325.339,-62.947,-99.040,-246.490,-187.020
128,47008.156000,232.278,72.927,-83.673,388.537,324.211,-68.862,-89.040,-187.490,-150.020
129,47008.178000,227.336,67.898,-80.685,385.663,327.095,-68.804,-60.040,-135.490,-111.020
130,47008.218000,225.359,69.910,-81.681,382.796,330.929,-69.706,-19.040,-96.490,-89.020
131,47008.258000,227.336,70.916,-83.673,386.683,332.887,-70.635,-1.040,-54.490,-53.020
132,47008.297000,227.336,71.921,-81.681,384.802,338.671,-71.491,-0.040,-36.490,-25.020
133,47008.339000,221.405,70.916,-84.669,383.785,333.786,-72.582,-0.040,-19.490,8.980
134,47008.380000,218.440,68.904,-86.661,381.876,336.658,-73.503,4.960,4.510,34.980
135,47008.420000,226.347,70.916,-84.669,386.695,334.764,-73.535,-23.040,51.510,71.980
136,47008.459000,231.290,69.910,-77.696,385.727,334.754,-73.537,7.960,82.510,94.980
137,47008.480000,232.278,69.910,-76.700,390.475,325.136,-71.779,32.960,89.510,114.980
138,47008.520000,231.290,66.892,-78.693,386.645,329.003,-70.721,67.960,89.510,117.980
139,47008.560000,235.243,63.874,-79.689,393.421,329.112,-68.743,78.960,110.510,127.980
140,47008.601000,239.197,62.868,-73.712,397.195,319.420,-69.931,76.960,136.510,146.980
141,47008.641000,235.243,58.845,-69.728,395.236,315.647,-64.135,105.960,131.510,148.980
142,47008.680000,234.255,56.833,-71.720,399.131,318.576,-65.042,129.960,106.510,143.980
143,47008.722000,237.220,55.827,-68.732,404.856,309.938,-63.261,114.960,95.510,148.980
144,47008.757000,238.208,56.833,-77.696,402.900,307.955,-64.289,102.960,105.510,154.980
145,47008.798000,239.197,52.809,-71.720,402.862,304.072,-64.376,104.960,127.510,168.980
146,47008.818000,242.162,51.804,-70.724,406.741,304.196,-60.442,110.960,152.510,178.980
147,47008.858000,239.197,46.774,-69.728,410.587,301.364,-58.535,92.960,171.510,185.980
148,47008.899000,242.162,42.750,-63.751,414.447,299.546,-54.645,48.960,175.510,178.980
149,47008.939000,243.151,37.721,-55.782,415.392,296.708,-51.764,34.960,156.510,165.980
150,47008.981000,244.139,35.709,-56.778,421.108,287.984,-53.907,33.960,124.510,137.980
151,47009.21000,244.139,36.715,-51.798,417.327,295.842,-47.857,30.960,66.510,90.980
152,47009.58000,242.162,36.715,-55.782,418.193,286.078,-51.013,26.960,36.510,64.980
153,47009.99000,244.139,38.727,-56.778,419.144,284.168,-50.073,6.960,5.510,34.980
154,47009.127000,243.151,36.715,-60.763,420.161,289.053,-48.982,7.960,1.510,23.980
155,47009.161000,242.162,37.721,-59.767,422.106,290.927,-52.859,-10.040,0.510,8.980
156,47009.201000,244.139,36.715,-60.763,422.049,284.217,-49.085,-14.040,-0.490,0.980
157,47009.242000,243.151,35.709,-59.767,422.134,292.955,-48.891,-33.040,-7.490,-18.020
158,47009.277000,243.151,34.703,-54.786,422.070,286.181,-48.061,-25.040,-16.490,-33.020
159,47009.322000,245.127,37.721,-56.778,417.318,294.871,-47.878,-38.040,-27.490,-53.020
160,47009.359000,242.162,38.727,-59.767,417.301,292.951,-46.940,-44.040,-38.490,-66.020
161,47009.401000,244.139,39.733,-58.770,419.234,292.948,-47.917,-45.040,-44.490,-75.020
162,47009.442000,242.162,41.745,-60.763,416.355,295.790,-49.821,-49.040,-53.490,-92.020
163,47009.462000,241.174,42.750,-61.759,413.490,299.645,-49.742,-55.040,-56.490,-100.020
164,47009.501000,240.185,43.756,-58.770,411.485,292.787,-51.859,-61.040,-66.490,-109.020
165,47009.547000,245.127,45.768,-60.763,412.573,305.396,-52.558,-75.040,-81.490,-118.020
166,47009.580000,241.174,46.774,-60.763,407.742,305.413,-49.626,-62.040,-97.490,-129.020
167,47009.621000,242.162,52.809,-63.751,408.717,307.257,-54.486,-73.040,-105.490,-136.020
168,47009.662000,241.174,52.809,-63.751,404.850,307.241,-53.514,-65.040,-117.490,-147.020
169,47009.702000,239.197,56.833,-65.743,400.105,316.881,-54.290,-77.040,-132.490,-154.020
170,47009.742000,235.243,54.821,-68.732,402.885,305.172,-58.467,-83.040,-142.490,-151.020
171,47009.771000,235.243,57.839,-71.720,400.108,318.671,-61.115,-74.040,-116.490,-139.020
172,47009.799000,233.266,61.862,-75.704,400.166,323.633,-56.102,-84.040,-81.490,-121.020
173,47009.839000,233.266,63.874,-71.720,395.298,320.652,-57.159,-79.040,-25.490,-85.020
174,47009.878000,233.266,64.880,-70.724,392.413,322.544,-58.104,-60.040,0.510,-67.020
175,47009.919000,233.266,64.880,-67.735,393.368,320.676,-55.201,-45.040,12.510,-49.020
176,47009.958000,233.266,65.886,-67.735,389.585,329.398,-54.035,-53.040,8.510,-34.020
177,47010.2000,233.266,64.880,-67.735,395.346,325.506,-57.051,-37.040,0.510,-17.020
178,47010.43000,235.243,66.892,-68.732,390.560,330.357,-54.992,-24.040,-0.490,-5.020
179,47010.78000,232.278,65.886,-70.724,392.422,322.630,-54.179,-71.040,-5.490,23.980
180,47010.98000,227.336,60.857,-61.759,390.522,325.589,-51.175,-130.040,8.510,58.980
181,47010.142000,232.278,57.839,-56.778,394.396,325.670,-49.204,-194.040,-17.490,35.980
182,47010.196000,239.197,62.868,-61.759,392.441,324.572,-54.136,-67.040,-179.490,-8.020
183,47010.218000,242.162,67.898,-72.716,392.467,328.348,-58.955,-16.040,-239.490,-4.020
184,47010.270000,235.243,72.927,-82.677,392.450,326.427,-58.017,19.960,-179.490,46.980
185,47010.299000,229.313,66.892,-78.693,394.381,327.288,-63.878,63.960,-126.490,89.980
186,47010.340000,230.301,68.904,-76.700,391.416,321.370,-66.958,143.960,-78.490,156.980
187,47010.382000,227.336,71.921,-76.700,398.162,319.429,-69.929,147.960,-67.490,214.980
188,47010.402000,230.301,68.904,-82.677,401.971,313.599,-72.011,183.960,-38.490,301.980
189,47010.442000,231.290,63.874,-80.685,402.790,298.980,-75.276,145.960,-27.490,364.980
190,47010.482000,225.359,53.815,-86.661,409.572,300.902,-79.142,192.960,-18.490,447.980
191,47010.522000,230.301,36.715,-76.700,416.243,290.310,-78.382,197.960,10.510,515.980
192,47010.568000,256.000,31.686,-83.673,421.956,281.564,-81.506,136.960,43.510,438.980
193,47010.601000,250.069,31.686,-86.661,428.631,271.900,-82.687,-175.040,-33.490,383.980
194,47010.641000,238.208,34.703,-78.693,433.404,264.288,-77.943,-363.040,-111.490,339.980
195,47010.686000,228.324,17.603,-84.669,431.398,256.545,-76.158,-522.040,-87.490,354.980
196,47010.723000,242.162,21.627,-82.677,439.163,257.742,-69.250,-514.040,-37.490,371.980
197,47010.743000,243.151,23.639,-70.724,440.050,248.173,-63.577,-633.040,-87.490,359.980
198,47010.779000,241.174,25.650,-67.735,446.824,247.376,-58.677,-852.040,-244.490,339.980
199,47010.818000,241.174,12.574,-59.767,449.660,240.608,-58.821,-888.040,-461.490,267.980
200,47010.859000,237.220,0.503,-67.735,450.592,237.640,-61.827,-885.040,-623.490,237.980
201,47010.900000,238.208,15.591,-87.658,447.611,231.571,-71.774,-793.040,-778.490,233.980
202,47010.943000,232.278,37.721,-95.626,448.509,226.510,-81.692,-717.040,-820.490,213.980
203,47010.989000,213.498,73.933,-97.619,448.505,227.352,-87.557,-866.040,-991.490,215.980
204,47011.19000,220.417,73.933,-73.712,440.730,227.816,-107.176,-1093.040,-1306.490,158.980
205,47011.45000,278.734,59.851,-69.728,439.812,237.083,-126.586,-1059.040,-1507.490,194.980
206,47011.83000,222.394,78.963,-213.167,432.020,236.512,-149.170,-828.040,-1326.490,67.980
207,47011.137000,226.347,34.703,-160.374,424.280,239.953,-165.781,-672.040,-896.490,-11.020
208,47011.181000,310.363,75.945,-141.447,420.443,246.388,-180.356,-461.040,-806.490,-41.020
209,47011.202000,301.467,61.862,-186.272,416.607,251.075,-186.144,-1083.040,-1018.490,92.980
210,47011.246000,240.185,86.004,-216.156,414.779,263.527,-192.736,-1964.040,-1409.490,190.980
211,47011.292000,210.533,118.193,-112.560,404.347,284.804,-191.305,-2908.040,-1331.490,4.980
212,47011.321000,173.961,-2.515,-11.953,398.781,306.408,-177.108,-1741.040,-353.490,-220.020
213,47011.341000,55.351,38.727,-107.580,399.917,321.239,-165.009,-109.040,620.510,-347.020
214,47011.381000,71.166,65.886,-66.739,405.826,329.343,-152.068,555.960,1536.510,-442.020
215,47011.420000,47.444,57.839,-162.366,415.620,336.751,-128.347,886.960,2097.510,-469.020
216,47011.459000,105.761,96.063,-273.930,420.550,342.969,-112.508,1061.960,2457.510,-391.020
217,47011.506000,227.336,126.240,-282.895,427.322,337.749,-88.093,1426.960,2136.510,-348.020
218,47011.542000,176.927,126.240,-314.770,423.536,343.795,-76.199,1061.960,1450.510,-377.020
219,47011.582000,158.147,117.187,-325.728,417.798,352.304,-83.867,1207.960,429.510,-506.020
220,47011.623000,146.286,78.963,-302.817,404.292,361.341,-108.212,1418.960,-318.490,-554.020
221,47011.663000,132.448,77.957,-273.930,390.647,356.722,-135.802,635.960,-1116.490,-352.020
222,47011.683000,144.309,77.957,-163.362,372.204,355.076,-158.432,298.960,-1267.490,-165.020
223,47011.721000,150.239,55.827,-101.603,369.257,353.731,-174.159,491.960,-901.490,33.980
224,47011.761000,207.568,94.051,-62.755,363.341,345.563,-190.043,522.960,-322.490,220.980
225,47011.813000,214.486,105.116,-35.860,370.114,343.881,-181.240,-105.040,303.510,470.980
226,47011.847000,221.405,94.051,-62.755,380.688,332.766,-161.852,-512.040,612.510,607.980
227,47011.884000,215.475,75.945,-101.603,390.286,319.807,-137.602,-447.040,938.510,476.980
228,47011.924000,203.614,32.692,-205.198,399.938,315.284,-126.895,684.960,734.510,291.980
229,47011.964000,230.301,67.898,-128.498,405.695,308.717,-119.184,432.960,679.510,332.980
230,47011.983000,236.232,95.057,-86.661,407.537,297.280,-110.608,-489.040,485.510,535.980
231,47012.25000,268.849,51.804,-96.623,423.049,296.870,-91.951,-349.040,442.510,450.980
232,47012.64000,289.606,46.774,-93.634,426.889,291.341,-80.298,115.960,528.510,310.980
233,47012.105000,264.896,73.933,-93.634,431.624,278.961,-71.737,61.960,416.510,206.980
234,47012.141000,251.058,55.827,-109.572,430.692,281.929,-68.731,204.960,312.510,59.980
235,47012.182000,220.417,60.857,-104.591,433.596,281.094,-63.840,162.960,290.510,28.980
236,47012.221000,209.544,59.851,-91.642,431.663,280.213,-58.961,80.960,274.510,21.980
237,47012.267000,210.533,45.768,-96.623,434.551,278.342,-57.035,37.960,253.510,13.980
238,47012.311000,211.521,39.733,-101.603,435.464,271.663,-52.278,157.960,251.510,-26.020
239,47012.320000,215.475,36.715,-108.576,431.648,276.545,-49.235,293.960,317.510,-101.020
240,47012.362000,222.394,53.815,-100.607,433.645,280.684,-38.352,-42.040,462.510,-43.020
241,47012.403000,209.544,39.733,-86.661,435.624,282.882,-27.512,-24.040,402.510,-136.020
242,47012.443000,252.046,55.827,-93.634,432.727,281.149,-16.769,19.960,458.510,-89.020
243,47012.483000,234.255,61.862,-68.732,431.855,289.101,-7.768,-204.040,452.510,-86.020
244,47012.523000,247.104,59.851,-57.774,429.898,284.465,2.912,-116.040,415.510,-141.020
245,47012.566000,255.012,60.857,-57.774,424.161,289.457,11.837,-312.040,299.510,-195.020
246,47012.601000,246.116,55.827,-52.794,420.403,298.416,23.795,-286.040,275.510,-276.020
247,47012.641000,245.127,39.733,-35.860,417.544,301.451,30.721,-256.040,108.510,-430.020
248,47012.661000,274.780,-34.703,23.907,410.877,312.949,27.040,-134.040,-191.490,-558.020
249,47012.701000,337.050,-24.644,-41.837,398.415,328.015,11.657,707.960,-321.490,-706.020
250,47012.741000,327.166,56.833,-64.747,387.921,346.941,-5.597,791.960,-310.490,-1258.020
251,47012.781000,289.606,-178.546,-195.237,370.708,368.065,-8.106,-679.040,-552.490,-968.020
252,47012.823000,236.232,-78.963,-114.553,370.738,374.516,-23.653,940.960,-139.490,-73.020
253,47012.862000,214.486,-125.234,-93.634,379.283,364.246,-53.283,2329.960,415.510,482.980
254,47012.904000,201.637,-23.639,-65.743,399.256,334.735,-80.374,3250.960,1449.510,947.980
255,47012.942000,233.266,33.697,-80.685,421.186,301.058,-77.152,2738.960,1827.510,1115.980
256,47012.963000,268.849,69.910,-131.486,439.432,284.970,-66.684,1042.960,1724.510,1201.980
257,47013.4000,261.931,58.845,-177.307,463.381,253.879,-34.962,883.960,1490.510,1209.980
258,47013.46000,222.394,118.193,-180.296,476.819,238.024,-11.749,872.960,1119.510,1136.980
259,47013.81000,208.556,114.169,-160.374,488.151,206.422,2.283,434.960,574.510,997.980
260,47013.131000,226.347,102.098,-103.595,490.916,191.930,3.928,725.960,254.510,701.980
261,47013.164000,192.741,100.086,-89.650,489.034,198.578,-1.812,700.960,-63.490,238.980
262,47013.202000,230.301,131.269,-2.988,489.952,195.481,-10.705,1120.960,-105.490,-16.020
263,47013.260000,258.965,84.998,11.953,485.168,202.985,-20.355,1447.960,50.510,-412.020
264,47013.267000,275.768,42.750,-18.926,482.317,211.371,-34.885,1331.960,-121.490,-329.020
265,47013.302000,280.710,144.346,114.553,478.439,213.016,-46.624,299.960,-246.490,-370.020
266,47013.341000,240.185,146.358,55.782,478.441,212.153,-41.740,-1766.040,-393.490,-51.020
267,47013.383000,302.456,-186.593,-45.821,479.531,224.784,-41.457,-712.040,-511.490,-25.020
268,47013.421000,269.838,8.550,-4.981,472.776,228.407,-50.217,-57.040,-456.490,-243.020
269,47013.461000,250.069,56.833,-53.790,471.840,232.216,-53.077,-511.040,-566.490,-177.020
270,47013.502000,269.838,-28.668,-43.829,467.978,234.897,-61.851,-76.040,-458.490,-176.020
271,47013.542000,240.185,2.515,-59.767,464.039,229.789,-71.779,-298.040,-463.490,-124.020
272,47013.582000,240.185,9.556,-74.708,465.132,243.326,-74.419,-692.040,-484.490,-67.020
273,47013.602000,231.290,-12.574,-60.763,458.379,246.086,-78.294,-203.040,-325.490,-103.020
274,47013.646000,205.591,18.609,-91.642,460.307,246.925,-85.136,130.960,-160.490,-94.020
275,47013.684000,227.336,54.821,-75.704,458.314,241.944,-90.154,181.960,-65.490,-133.020
276,47013.726000,304.432,44.762,-70.724,456.396,243.845,-91.097,331.960,-19.490,-79.020
277,47013.767000,242.162,28.668,-88.654,455.431,244.742,-94.021,444.960,158.510,-81.020
278,47013.803000,246.116,48.786,-80.685,456.459,250.620,-91.927,222.960,284.510,123.980
279,47013.843000,263.907,17.603,-30.879,458.368,246.863,-87.103,16.960,147.510,134.980
280,47013.883000,235.243,16.597,-58.770,464.113,239.304,-80.394,-531.040,54.510,170.980
281,47013.922000,247.104,-16.597,-34.864,463.145,237.525,-72.590,-817.040,7.510,134.980
282,47013.943000,249.081,-34.703,-28.887,465.088,236.746,-64.758,-816.040,2.510,144.980
283,47013.983000,241.174,37.721,-42.833,464.146,237.858,-57.871,-771.040,-20.490,166.980
284,47014.23000,254.023,-15.591,-21.914,471.920,240.026,-50.942,-784.040,-113.490,209.980
285,47014.63000,245.127,11.568,-59.767,468.989,236.201,-47.110,-773.040,-160.490,239.980
286,47014.103000,254.023,15.591,-36.856,474.715,227.584,-44.347,-861.040,-213.490,265.980
287,47014.143000,243.151,5.532,-47.813,476.648,226.697,-41.421,-874.040,-375.490,276.980
288,47014.183000,233.266,15.591,-57.774,478.554,223.803,-41.481,-920.040,-444.490,300.980
289,47014.223000,237.220,2.515,-86.661,479.465,218.872,-45.511,-1014.040,-422.490,319.980
290,47014.243000,239.197,-44.762,-64.747,481.335,212.980,-49.561,-603.040,-355.490,349.980
291,47014.284000,232.278,77.957,-46.817,485.137,207.084,-54.587,-871.040,-669.490,277.980
292,47014.324000,225.359,10.562,-78.693,483.102,199.061,-65.557,-1164.040,-906.490,374.980
293,47014.368000,235.243,-25.650,-103.595,488.780,188.223,-75.592,-967.040,-833.490,436.980
294,47014.405000,237.220,-19.615,-90.646,482.897,183.894,-93.352,-872.040,-866.490,519.980
295,47014.444000,276.757,-62.868,-86.661,485.677,174.818,-110.219,-730.040,-963.490,486.980
296,47014.486000,291.583,39.733,-115.549,483.700,172.642,-120.078,-1141.040,-989.490,418.980
297,47014.526000,294.548,45.768,-80.685,481.626,161.598,-136.018,-1632.040,-1182.490,601.980
298,47014.546000,344.958,70.916,-82.677,477.673,157.246,-155.736,-1979.040,-1456.490,732.980
299,47014.583000,288.618,129.257,-174.319,471.855,160.577,-178.230,-2045.040,-1577.490,701.980
300,47014.624000,210.533,188.605,-311.782,462.218,168.767,-198.662,-2914.040,-1931.490,402.980
301,47014.664000,190.764,130.263,-131.486,445.039,196.386,-214.757,-3204.040,-1775.490,-116.020
302,47014.727000,173.961,33.697,-78.693,433.638,218.516,-218.212,-1771.040,-935.490,-450.020
303,47014.743000,54.363,76.951,-145.432,425.089,234.915,-218.847,-390.040,19.510,-662.020
304,47014.783000,82.039,47.780,-36.856,421.551,264.477,-196.624,-796.040,768.510,-733.020
305,47014.823000,101.807,56.833,-80.685,427.595,282.678,-165.806,-238.040,1687.510,-618.020
306,47014.865000,129.483,66.892,-120.529,432.653,298.043,-131.132,474.960,2188.510,-630.020
307,47014.886000,168.031,57.839,-121.525,434.737,306.541,-98.577,1476.960,2712.510,-757.020
308,47014.925000,240.185,89.022,-166.350,428.257,330.401,-69.622,1786.960,2799.510,-877.020
309,47014.964000,251.058,52.809,-198.226,427.351,333.628,-54.842,1990.960,2519.510,-895.020
310,47015.6000,264.896,76.951,-168.342,419.830,354.135,-45.577,2230.960,2108.510,-740.020
311,47015.44000,227.336,50.798,-187.268,415.026,357.928,-47.464,1316.960,1331.510,-484.020
312,47015.87000,211.521,38.727,-114.553,408.343,366.643,-45.323,881.960,780.510,-395.020
313,47015.127000,197.683,82.986,-98.615,405.486,372.332,-50.106,523.960,375.510,-232.020
314,47015.167000,215.475,-125.234,-210.179,404.532,375.968,-60.815,516.960,-165.490,114.980
315,47015.187000,231.290,-7.544,-121.525,405.422,369.959,-69.772,729.960,20.510,175.980
316,47015.226000,227.336,144.346,-112.560,414.092,366.160,-69.838,-479.040,-35.490,550.980
317,47015.266000,247.104,134.287,-62.755,423.696,355.898,-55.336,-579.040,60.510,541.980
318,47015.306000,268.849,65.886,-89.650,431.238,337.355,-63.577,1060.960,530.510,436.980
319,47015.346000,209.544,70.916,-73.712,436.061,335.503,-61.647,616.960,493.510,481.980
320,47015.384000,251.058,75.945,-56.778,445.610,321.186,-55.080,262.960,407.510,491.980
321,47015.426000,257.977,72.927,-67.735,452.256,306.840,-48.519,135.960,429.510,499.980
322,47015.464000,241.174,40.739,-54.786,459.021,305.072,-43.641,-3.040,370.510,387.980
323,47015.505000,245.127,-13.580,-30.879,460.866,294.540,-37.987,321.960,267.510,269.980
324,47015.525000,255.012,76.951,-59.767,463.691,287.665,-43.037,806.960,226.510,64.980
325,47015.565000,237.220,34.703,-49.805,462.775,293.437,-44.872,192.960,47.510,63.980
326,47015.605000,232.278,18.609,-53.790,465.631,289.496,-48.876,320.960,39.510,43.980
327,47015.645000,237.220,39.733,-54.786,462.680,285.476,-53.875,559.960,67.510,-24.020
328,47015.684000,242.162,69.910,-53.790,461.732,289.178,-61.640,476.960,-31.490,-38.020
329,47015.723000,248.093,32.692,-64.747,459.734,283.269,-64.717,368.960,-78.490,-73.020
330,47015.766000,243.151,55.827,-69.728,457.889,293.800,-70.372,161.960,-48.490,-88.020
331,47015.811000,241.174,52.809,-70.724,459.805,291.878,-70.410,-21.040,-3.490,-33.020
332,47015.829000,242.162,36.715,-64.747,459.760,287.045,-69.537,-34.040,35.510,-26.020
333,47015.868000,241.174,45.768,-46.817,457.856,289.960,-68.496,-147.040,-13.490,-69.020
334,47015.907000,242.162,40.739,-45.821,457.915,295.807,-67.385,-169.040,-80.490,-106.020
335,47015.947000,242.162,42.750,-59.767,455.071,301.625,-66.281,-122.040,-130.490,-154.020
336,47015.987000,251.058,35.709,-56.778,453.177,306.396,-69.121,-31.040,-185.490,-190.020
337,47016.33000,236.232,43.756,-58.770,447.370,307.203,-74.019,-9.040,-282.490,-305.020
338,47016.67000,240.185,55.827,-82.677,442.536,308.946,-80.855,-107.040,-249.490,-309.020
339,47016.107000,238.208,64.880,-86.661,434.931,322.484,-79.590,-307.040,-163.490,-292.020
340,47016.147000,234.255,61.862,-72.716,435.997,331.361,-73.507,-337.040,10.510,-274.020
341,47016.167000,238.208,57.839,-69.728,431.213,335.348,-66.564,-302.040,40.510,-325.020
342,47016.207000,236.232,65.886,-64.747,426.481,345.118,-61.453,-393.040,24.510,-431.020
343,47016.247000,239.197,58.845,-59.767,419.756,349.021,-57.458,-298.040,46.510,-562.020
344,47016.287000,236.232,46.774,-61.759,403.511,368.408,-51.178,-147.040,24.510,-775.020
345,47016.327000,285.652,76.951,-50.802,391.139,388.738,-47.811,-194.040,103.510,-839.020
346,47016.367000,272.803,69.910,-25.899,376.797,405.188,-43.554,-181.040,-48.490,-847.020
347,47016.407000,296.525,55.827,-79.689,365.247,411.806,-46.373,-73.040,-307.490,-716.020
348,47016.447000,258.965,34.703,-116.545,356.673,423.566,-37.304,-448.040,-407.490,-273.020
349,47016.467000,233.266,34.703,-128.498,360.438,410.270,-25.823,-1372.040,-692.490,347.980
350,47016.511000,240.185,-99.081,-115.549,371.025,403.685,-21.044,-1015.040,-853.490,575.980
351,47016.554000,210.533,-12.574,-100.607,390.218,392.698,-43.802,1951.960,122.510,899.980
352,47016.585000,165.066,174.523,-84.669,411.153,361.385,-65.047,1638.960,341.510,1172.980
353,47016.626000,180.880,131.269,-115.549,427.457,344.329,-53.624,-387.040,105.510,1204.980
354,47016.666000,188.788,218.782,-89.650,449.464,317.556,-45.346,-274.040,81.510,1119.980
355,47016.706000,195.707,215.764,-88.654,455.106,300.201,-42.777,-36.040,-37.490,757.980
356,47016.748000,221.405,193.635,-92.638,458.918,295.277,-47.781,565.960,-22.490,251.980
357,47016.788000,225.359,242.923,-49.805,454.090,297.085,-51.674,166.960,-174.490,-233.020
358,47016.808000,228.324,189.611,-32.872,448.310,300.783,-57.488,-381.040,-333.490,-280.020
359,47016.848000,245.127,171.505,-8.965,439.766,318.109,-60.064,-68.040,-294.490,-517.020
360,47016.888000,222.394,149.375,2.988,430.172,326.709,-61.854,48.960,-1.490,-614.020
361,47016.928000,245.127,97.069,2.988,422.554,338.370,-57.689,-47.040,238.510,-537.020
362,47016.967000,252.046,97.069,-5.977,417.705,336.446,-54.800,297.960,573.510,-485.020
363,47017.7000,259.954,84.998,-14.942,411.033,345.269,-47.753,263.960,643.510,-436.020
364,47017.47000,247.104,97.069,-0.996,411.125,354.071,-44.616,89.960,695.510,-312.020
365,47017.87000,259.954,93.045,-0.996,414.122,359.407,-23.897,-280.040,745.510,-182.020
366,47017.107000,248.093,74.939,-21.914,420.941,359.926,-3.277,-593.040,751.510,-65.020
367,47017.148000,210.533,81.980,-60.763,421.981,362.395,20.315,-604.040,767.510,12.980
368,47017.188000,230.301,67.898,-33.868,424.930,361.991,44.829,-392.040,637.510,-0.020
369,47017.228000,219.429,79.969,-36.856,427.872,365.040,49.806,-19.040,566.510,-114.020
370,47017.268000,222.394,41.745,-48.809,427.003,373.013,59.788,331.960,387.510,-83.020
371,47017.308000,202.625,16.597,-93.634,434.799,379.798,56.033,426.960,141.510,16.980
372,47017.347000,191.753,32.692,-174.319,441.467,371.817,43.121,113.960,-255.490,282.980
373,47017.388000,350.888,124.228,-23.907,454.806,351.496,39.756,-384.040,-588.490,651.980
374,47017.428000,198.672,95.057,-68.732,462.486,349.242,22.070,-153.040,-839.490,400.980
375,47017.448000,252.046,95.057,-67.735,473.965,338.416,10.086,105.960,-669.490,636.980
376,47017.488000,242.162,36.715,-88.654,483.486,326.472,-7.811,347.960,-457.490,543.980
377,47017.528000,254.023,64.880,-86.661,492.104,319.545,-17.753,165.960,-243.490,407.980
378,47017.568000,247.104,63.874,-67.735,496.777,303.044,-20.071,241.960,-39.490,384.980
379,47017.607000,245.127,55.827,-53.790,499.616,297.183,-23.137,231.960,92.510,359.980
380,47017.647000,239.197,40.739,-47.813,506.364,294.379,-21.223,144.960,126.510,304.980
381,47017.687000,247.104,29.674,-22.911,507.249,286.557,-24.337,224.960,47.510,226.980
382,47017.727000,251.058,42.750,-35.860,508.203,285.553,-26.319,309.960,-27.490,192.980
383,47017.768000,242.162,49.792,-37.852,512.986,280.681,-29.359,145.960,-134.490,211.980
384,47017.788000,249.081,25.650,-47.813,511.902,270.747,-39.388,337.960,-169.490,165.980
385,47017.831000,247.104,27.662,-55.782,514.791,270.646,-45.268,215.960,-138.490,137.980
386,47017.866000,239.197,17.603,-63.751,515.683,263.773,-49.342,294.960,-35.490,48.980
387,47017.906000,239.197,51.804,-63.751,516.668,266.587,-54.180,297.960,-91.490,25.980
388,47017.947000,239.197,37.721,-53.790,516.586,259.640,-61.199,156.960,-98.490,59.980
389,47017.987000,241.174,26.656,-61.759,519.439,254.792,-62.282,99.960,-131.490,38.980
390,47018.27000,246.116,27.662,-65.743,518.547,263.435,-66.014,73.960,-106.490,57.980
391,47018.68000,254.023,44.762,-78.693,518.517,260.500,-67.060,-45.040,-21.490,57.980
392,47018.87000,255.012,43.756,-79.689,518.537,261.579,-62.133,-104.040,137.510,116.980
393,47018.136000,247.104,51.804,-78.693,523.277,250.127,-55.513,-89.040,274.510,169.980
394,47018.170000,242.162,32.692,-61.759,521.360,249.396,-43.765,-183.040,342.510,210.980
395,47018.209000,237.220,-4.527,-53.790,526.128,240.856,-37.080,-102.040,390.510,247.980
396,47018.251000,230.301,-17.603,-56.778,526.188,244.071,-23.279,174.960,518.510,214.980
397,47018.286000,243.151,5.532,-45.821,527.119,238.449,-14.576,378.960,545.510,93.980
398,47018.326000,253.035,35.709,-17.930,529.031,233.851,-3.887,131.960,410.510,59.980
399,47018.371000,262.919,25.650,-10.957,527.155,238.794,1.122,106.960,332.510,37.980
400,47018.406000,252.046,27.662,-6.973,526.215,239.928,8.991,-10.040,241.510,9.980
401,47018.427000,248.093,-0.503,-4.981,529.086,235.253,15.758,-92.040,97.510,-22.020
402,47018.467000,258.965,11.568,-8.965,527.210,241.081,16.864,12.960,46.510,-88.020
403,47018.507000,259.954,6.538,-1.992,525.310,244.924,15.965,8.960,-105.490,-202.020
404,47018.547000,270.826,-11.568,3.984,520.488,247.660,10.131,187.960,-165.490,-344.020
405,47018.586000,266.873,-14.585,-21.914,514.797,261.023,2.570,322.960,-193.490,-482.020
406,47018.626000,261.931,-19.615,-72.716,511.072,278.224,-7.843,224.960,-340.490,-437.020
407,47018.677000,256.988,-63.874,-65.743,509.125,278.960,-17.637,402.960,-298.490,-207.020
408,47018.708000,250.069,-60.857,-55.782,505.190,273.896,-25.603,1005.960,-5.490,18.980
409,47018.728000,244.139,-46.774,-57.774,508.092,274.808,-29.500,1020.960,129.510,211.980
410,47018.770000,238.208,-54.821,-87.658,509.943,267.859,-37.495,1104.960,48.510,345.980
411,47018.812000,240.185,-43.756,-98.615,513.678,256.915,-51.460,1297.960,-53.490,418.980
412,47018.846000,224.371,-3.521,-107.580,510.591,240.145,-62.626,1101.960,-199.490,530.980
413,47018.887000,219.429,0.503,-95.626,516.173,220.460,-77.761,756.960,-308.490,608.980
414,47018.927000,223.382,38.727,-94.630,513.073,201.813,-86.026,389.960,-375.490,669.980
415,47018.972000,223.382,53.815,-76.700,512.902,186.085,-95.202,265.960,-391.490,657.980
416,47019.7000,232.278,64.880,-72.716,509.975,185.820,-106.001,218.960,-377.490,419.980
417,47019.52000,244.139,68.904,-49.805,504.040,174.825,-118.026,448.960,-379.490,167.980
418,47019.71000,257.977,99.081,23.907,499.178,174.540,-128.829,853.960,-153.490,-86.020
419,47019.112000,248.093,136.299,44.825,495.341,178.343,-130.714,530.960,231.510,-488.020
420,47019.147000,295.537,-51.804,-86.661,490.575,185.135,-128.612,540.960,215.510,-375.020
421,47019.187000,292.571,66.892,-74.708,487.765,196.563,-137.191,-63.040,-268.490,-540.020
422,47019.229000,215.475,-14.585,-97.619,483.079,212.934,-140.760,102.960,-283.490,-602.020
423,47019.269000,208.556,-15.591,-76.700,479.281,220.620,-142.558,73.960,-6.490,-377.020
424,47019.311000,270.826,56.833,-46.817,477.376,223.536,-141.517,-328.040,-123.490,-239.020
425,47019.348000,270.826,15.591,-71.720,470.694,233.135,-143.279,8.960,-142.490,-189.020
426,47019.370000,247.104,10.562,-104.591,469.741,235.024,-145.201,-54.040,61.510,-194.020
427,47019.413000,249.081,3.521,-84.669,468.855,241.962,-138.184,-247.040,250.510,-45.020
428,47019.448000,252.046,42.750,-59.767,469.809,237.440,-123.573,-8.040,436.510,-48.020
429,47019.492000,243.151,0.503,-56.778,473.732,241.513,-116.609,-209.040,378.510,-23.020
430,47019.531000,249.081,-0.503,-47.813,469.892,242.640,-107.766,-188.040,448.510,-11.020
431,47019.571000,247.104,10.562,-33.868,474.759,242.967,-95.000,-103.040,418.510,-36.020
432,47019.611000,247.104,12.574,-22.911,475.744,243.149,-87.149,-225.040,210.510,-50.020
433,47019.651000,249.081,8.550,-22.911,470.954,247.072,-83.149,-104.040,84.510,-110.020
434,47019.691000,243.151,15.591,-30.879,467.124,251.824,-85.994,-12.040,-43.490,-181.020
435,47019.711000,253.035,14.585,-37.852,467.174,256.700,-84.905,-120.040,-110.490,-194.020
436,47019.751000,247.104,26.656,-37.852,466.275,264.393,-87.678,-93.040,-129.490,-234.020
437,47019.791000,240.185,40.739,-27.891,462.497,274.042,-88.452,-242.040,-231.490,-230.020
438,47019.831000,250.069,6.538,-35.860,460.593,277.842,-91.314,-83.040,-324.490,-280.020
439,47019.872000,253.035,23.639,-43.829,451.920,283.367,-101.016,-183.040,-413.490,-394.020
440,47019.912000,252.046,41.745,-50.802,441.409,297.718,-105.623,-344.040,-528.490,-417.020
441,47019.952000,237.220,47.780,-51.798,433.762,309.983,-118.116,-138.040,-590.490,-521.020
442,47019.992000,243.151,69.910,-86.661,423.166,315.597,-122.917,-375.040,-643.490,-435.020
443,47020.12000,229.313,74.939,-98.615,420.375,327.198,-123.646,-286.040,-388.490,-298.020
444,47020.61000,230.301,72.927,-88.654,416.552,332.899,-127.450,-212.040,-218.490,-216.020
445,47020.88000,227.336,51.804,-81.681,410.724,330.857,-129.469,-157.040,-181.490,-156.020
446,47020.130000,223.382,52.809,-90.646,406.965,341.564,-126.297,-159.040,-212.490,-62.020
447,47020.169000,227.336,53.815,-90.646,408.888,340.590,-127.295,-725.040,-350.490,189.980
448,47020.208000,223.382,46.774,-91.642,411.823,342.690,-121.359,-928.040,-395.490,279.980
449,47020.253000,215.475,79.969,-79.689,411.784,337.037,-113.639,-857.040,-429.490,311.980
450,47020.289000,222.394,91.033,-68.732,414.651,332.319,-108.834,-847.040,-448.490,317.980
451,47020.329000,230.301,108.134,-48.809,412.720,332.343,-106.876,-683.040,-307.490,225.980
452,47020.349000,234.255,78.963,-83.673,417.579,335.238,-109.744,191.960,-141.490,37.980
453,47020.390000,223.382,47.780,-100.607,419.447,330.209,-118.678,331.960,-87.490,135.980
454,47020.429000,214.486,82.986,-99.611,417.439,323.329,-121.776,-26.040,-132.490,187.980
455,47020.469000,214.486,97.069,-104.591,420.325,321.437,-120.832,-20.040,-40.490,250.980
456,47020.509000,251.058,51.804,-112.560,423.109,309.772,-123.046,131.960,144.510,449.980
457,47020.551000,229.313,63.874,-109.572,434.669,304.124,-120.205,56.960,258.510,554.980
458,47020.589000,256.988,29.674,-71.720,447.141,292.683,-116.510,200.960,315.510,573.980
459,47020.631000,245.127,42.750,-92.638,451.815,274.435,-110.041,-87.040,166.510,479.980
460,47020.649000,252.046,42.750,-83.673,458.542,267.899,-101.346,-562.040,53.510,446.980
461,47020.693000,221.405,16.597,-79.689,462.467,271.108,-89.498,-825.040,-41.490,434.980
462,47020.728000,225.359,19.615,-87.658,463.368,264.321,-89.647,-731.040,14.510,437.980
463,47020.769000,247.104,32.692,-84.669,473.962,256.917,-78.021,-675.040,-13.490,420.980
464,47020.816000,239.197,24.644,-73.712,474.912,254.122,-73.178,-829.040,-115.490,382.980
465,47020.851000,234.255,2.515,-49.805,475.799,245.436,-71.407,-825.040,-336.490,292.980
466,47020.903000,235.243,2.515,-49.805,476.753,245.316,-77.292,-619.040,-527.490,212.980
467,47020.962000,235.243,-8.550,-60.763,475.685,237.303,-88.259,-255.040,-740.490,137.980
468,47020.993000,244.139,34.703,-76.700,475.633,235.922,-106.923,-10.040,-809.490,77.980
469,47020.999000,236.232,32.692,-104.591,471.744,236.575,-119.665,-266.040,-961.490,190.980
470,47021.28000,246.116,44.762,-132.482,470.642,227.353,-141.447,-424.040,-997.490,290.980
471,47021.71000,264.896,54.821,-127.502,468.652,224.163,-153.289,-689.040,-909.490,294.980
472,47021.112000,309.375,90.028,-76.700,466.714,227.639,-170.868,-775.040,-1048.490,246.980
473,47021.152000,333.097,114.169,-47.813,458.916,226.118,-192.493,-768.040,-1279.490,243.980
474,47021.207000,277.745,172.511,-136.467,454.017,224.604,-215.092,-1304.040,-1572.490,274.980
475,47021.236000,247.104,32.692,-201.214,442.490,236.724,-232.499,-1427.040,-1699.490,115.980
476,47021.271000,159.135,150.381,-125.510,428.990,244.942,-249.997,-1761.040,-1483.490,-54.020
477,47021.291000,102.795,63.874,14.942,415.937,292.662,-236.217,-3040.040,-830.490,-358.020
478,47021.332000,85.992,14.585,4.981,423.038,319.653,-203.241,-1714.040,834.510,-248.020
479,47021.371000,89.946,45.768,-48.809,439.596,322.640,-162.933,-155.040,2135.510,-199.020
480,47021.412000,161.112,39.733,-90.646,461.984,327.689,-119.624,1103.960,3302.510,-242.020
481,47021.452000,249.081,-4.527,-179.300,480.496,330.889,-70.481,1887.960,3660.510,-327.020
482,47021.492000,356.819,-30.680,-246.039,482.521,335.287,-47.824,3223.960,3665.510,-584.020
483,47021.542000,234.255,-22.633,-264.965,483.639,346.429,-26.981,3218.960,2701.510,-705.020
484,47021.569000,160.124,-28.668,-289.868,485.645,355.056,-32.669,2672.960,1405.510,-446.020
485,47021.609000,170.008,30.680,-315.767,490.370,348.739,-57.316,748.960,-453.490,141.980
486,47021.629000,203.614,23.639,-113.556,493.222,343.007,-54.495,-708.040,-203.490,671.980
487,47021.669000,275.768,137.305,-60.763,504.729,331.577,-49.821,-181.040,-101.490,210.980
488,47021.709000,256.988,83.992,-86.661,510.413,322.551,-65.700,1736.960,520.510,386.980
489,47021.753000,237.220,72.927,-64.747,516.074,307.138,-63.088,126.960,249.510,425.980
490,47021.790000,256.988,77.957,-59.767,517.916,296.586,-58.415,412.960,361.510,397.980
491,47021.831000,247.104,86.004,-60.763,521.696,286.958,-56.660,227.960,242.510,365.980
492,47021.871000,241.174,63.874,-37.852,529.426,285.178,-52.760,-148.040,122.510,369.980
493,47021.911000,241.174,11.568,-39.844,532.264,277.547,-48.020,-278.040,56.510,268.980
494,47021.931000,252.046,8.550,-34.864,537.011,267.929,-46.263,-202.040,8.510,183.980
495,47021.972000,246.116,40.739,-48.809,536.100,272.860,-42.232,-181.040,-24.490,109.980
496,47022.12000,250.069,23.639,-50.802,537.967,266.061,-43.360,-41.040,4.510,104.980
497,47022.52000,240.185,25.650,-44.825,537.007,267.001,-44.322,88.960,6.510,60.980
498,47022.93000,246.116,45.768,-66.739,540.831,262.206,-43.440,64.960,-3.490,47.980
499,47022.135000,251.058,43.756,-45.821,542.806,266.130,-42.368,-12.040,100.510,35.980
500,47022.170000,241.174,29.674,-45.821,539.795,254.494,-40.671,137.960,53.510,55.980
501,47022.227000,244.139,5.532,-37.852,536.013,264.100,-43.408,321.960,50.510,45.980
502,47022.254000,250.069,38.727,-43.829,544.610,253.441,-46.568,502.960,48.510,-52.020
503,47022.274000,245.127,60.857,-45.821,542.802,266.971,-48.233,310.960,-33.490,-71.020
504,47022.314000,256.000,29.674,-59.767,542.812,268.827,-52.114,141.960,25.510,-28.020
505,47022.354000,254.023,32.692,-49.805,538.881,262.036,-50.312,157.960,79.510,-70.020
506,47022.403000,250.069,36.715,-43.829,535.991,263.885,-53.219,13.960,-37.490,-131.020
507,47022.431000,248.093,35.709,-55.782,535.101,271.664,-52.068,-105.040,-32.490,-146.020
508,47022.472000,260.942,23.639,-11.953,531.271,274.646,-47.106,-276.040,-75.490,-193.020
509,47022.512000,291.583,3.521,5.977,528.494,289.030,-53.657,-78.040,-382.490,-359.020
510,47022.552000,303.444,-28.668,-47.813,520.786,294.543,-64.339,62.960,-504.490,-506.020
511,47022.572000,257.977,-34.703,-88.654,510.229,306.694,-80.762,990.960,-332.490,-893.020
512,47022.616000,225.359,-56.833,-120.529,495.895,327.631,-93.076,859.960,-121.490,-756.020
513,47022.651000,226.347,-63.874,-94.630,497.877,331.619,-89.061,705.960,423.510,-54.020
514,47022.692000,257.977,-92.039,-117.541,499.682,318.068,-88.377,1357.960,666.510,359.980
515,47022.731000,236.232,-55.827,-167.346,503.404,303.478,-91.635,2060.960,516.510,755.980
516,47022.772000,212.510,-11.568,-176.311,511.794,274.113,-106.979,1503.960,183.510,893.980
517,47022.812000,181.869,24.644,-204.202,513.384,240.885,-118.501,351.960,-217.490,1188.980
518,47022.857000,170.996,67.898,-168.342,514.093,217.292,-132.752,-410.040,-855.490,1263.980
519,47022.891000,186.811,75.945,-133.479,513.853,197.379,-155.750,-451.040,-1062.490,1075.980
520,47022.911000,186.811,96.063,-112.560,502.964,176.412,-177.813,56.960,-812.490,591.980
521,47022.951000,224.371,146.358,15.938,495.159,172.194,-189.691,149.960,-387.490,117.980
522,47022.991000,251.058,131.269,134.475,492.297,176.071,-188.630,-151.040,339.510,-230.020
523,47023.31000,376.587,53.815,-90.646,493.365,184.969,-181.566,859.960,320.510,-387.020
524,47023.73000,303.444,15.591,-76.700,483.758,193.440,-189.243,362.960,-103.490,-519.020
525,47023.112000,202.625,9.556,-127.502,482.869,202.989,-195.898,209.960,-101.490,-574.020
526,47023.151000,221.405,-22.633,-102.599,477.095,205.866,-194.866,277.960,232.510,-359.020
527,47023.195000,347.923,69.910,-61.759,474.308,217.510,-193.632,107.960,-7.490,-351.020
528,47023.212000,229.313,7.544,-116.545,470.410,215.444,-197.609,371.960,-27.490,-378.020
529,47023.252000,247.104,41.745,-92.638,465.650,223.185,-196.467,-97.040,79.510,-260.020
530,47023.296000,242.162,29.674,-108.576,467.651,229.116,-192.408,54.960,206.510,-141.020
531,47023.331000,248.093,41.745,-78.693,468.639,229.319,-183.576,-415.040,319.510,14.980
532,47023.372000,230.301,15.591,-82.677,471.638,236.446,-169.682,-595.040,308.510,61.980
533,47023.413000,241.174,2.515,-78.693,474.641,244.478,-158.710,-590.040,174.510,3.980
534,47023.453000,234.255,4.527,-81.681,470.815,246.619,-147.883,-469.040,182.510,-42.020
535,47023.498000,242.162,19.615,-72.716,477.641,251.604,-144.816,-316.040,172.510,-58.020
536,47023.536000,245.127,7.544,-72.716,478.664,255.670,-136.878,-60.040,201.510,-113.020
537,47023.556000,240.185,27.662,-58.770,475.766,254.800,-131.020,-10.040,259.510,-77.020
538,47023.596000,245.127,32.692,-47.813,473.899,260.714,-125.989,84.960,197.510,-83.020
539,47023.641000,249.081,37.721,-52.794,471.965,259.832,-121.110,-187.040,49.510,-85.020
540,47023.674000,246.116,19.615,-53.790,473.003,266.681,-118.994,-178.040,15.510,-66.020
541,47023.713000,240.185,31.686,-52.794,470.120,268.594,-118.958,-244.040,-56.490,-60.020
542,47023.753000,248.093,8.550,-58.770,472.015,264.708,-120.021,-68.040,-161.490,-117.020
543,47023.798000,241.174,34.703,-53.790,465.288,270.360,-124.813,-103.040,-180.490,-140.020
544,47023.833000,255.012,17.603,-56.778,466.324,278.071,-127.581,-98.040,-298.490,-199.020
545,47023.853000,249.081,46.774,-60.763,456.693,283.673,-133.361,-27.040,-393.490,-277.020
546,47023.893000,249.081,54.821,-70.724,450.845,281.437,-144.210,-110.040,-473.490,-235.020
547,47023.933000,239.197,53.815,-103.595,445.130,291.931,-149.874,-111.040,-337.490,-145.020
548,47023.978000,222.394,46.774,-107.580,443.186,290.941,-149.900,-111.040,-128.490,-45.020
549,47024.14000,218.440,50.798,-82.677,443.261,298.708,-149.727,-126.040,-67.490,13.980
550,47024.54000,227.336,72.927,-68.732,446.145,297.679,-153.666,-10.040,-104.490,44.980
551,47024.96000,226.347,76.951,-93.634,446.081,290.905,-152.836,-51.040,-115.490,138.980
552,47024.136000,226.347,34.703,-108.576,447.974,286.112,-150.977,-69.040,-37.490,199.980
553,47024.177000,229.313,27.662,-107.580,452.693,274.466,-153.187,145.960,99.510,312.980
554,47024.192000,248.093,36.715,-89.650,463.316,272.628,-153.206,175.960,145.510,339.980
555,47024.232000,250.069,30.680,-74.708,462.296,265.952,-147.472,-149.040,149.510,352.980
556,47024.272000,249.081,15.591,-69.728,467.084,260.238,-144.647,-332.040,26.510,312.980
557,47024.312000,239.197,25.650,-81.681,468.008,255.437,-142.790,-349.040,-49.490,242.980
558,47024.353000,238.208,24.644,-87.658,468.949,251.670,-137.968,-350.040,76.510,278.980
559,47024.398000,242.162,37.721,-88.654,478.630,250.945,-131.099,-356.040,162.510,325.980
560,47024.433000,239.197,38.727,-76.700,480.540,245.441,-117.488,-617.040,80.510,357.980
561,47024.473000,240.185,13.580,-52.794,491.186,245.587,-115.501,-727.040,-84.490,352.980
562,47024.493000,244.139,12.574,-68.732,489.202,239.808,-112.692,-694.040,-201.490,315.980
563,47024.533000,237.220,13.580,-70.724,489.197,238.880,-110.751,-858.040,-317.490,283.980
564,47024.573000,238.208,17.603,-69.728,492.951,227.246,-111.982,-684.040,-388.490,260.980
565,47024.614000,241.174,8.550,-65.743,490.037,227.110,-116.895,-792.040,-520.490,247.980
566,47024.654000,234.255,5.532,-77.696,490.069,231.813,-123.655,-690.040,-642.490,266.980
567,47024.696000,230.301,-0.503,-92.638,492.773,214.970,-140.694,-542.040,-652.490,318.980
568,47024.734000,242.162,27.662,-100.607,493.771,218.798,-143.549,-484.040,-715.490,302.980
569,47024.786000,240.185,53.815,-92.638,489.858,216.582,-154.394,-889.040,-832.490,380.980
570,47024.816000,253.035,49.792,-88.654,489.850,218.265,-166.124,-1132.040,-1045.490,343.980
571,47024.842000,298.502,30.680,-93.634,486.888,216.791,-187.738,-976.040,-1079.490,297.980
572,47024.883000,325.189,88.016,-68.732,481.918,205.784,-200.741,-1022.040,-1178.490,447.980
573,47024.936000,318.270,109.139,-89.650,472.263,212.917,-225.120,-1559.040,-1506.490,548.980
574,47024.957000,281.699,59.851,-229.105,459.693,218.145,-246.605,-2189.040,-1915.490,561.980
575,47024.993000,198.672,110.145,-244.047,449.178,233.338,-257.077,-2867.040,-2261.490,299.980
576,47025.33000,107.737,95.057,-25.899,429.272,275.815,-258.137,-2956.040,-1549.490,-161.020
577,47025.72000,44.479,39.733,-27.891,425.760,308.269,-236.831,-1811.040,193.510,-264.020
578,47025.113000,80.062,28.668,-35.860,437.487,314.790,-210.183,-179.040,1441.510,-298.020
579,47025.133000,124.541,28.668,-99.611,454.069,322.415,-179.579,1169.960,2643.510,-326.020
580,47025.173000,152.216,23.639,-127.502,480.209,315.808,-138.482,1717.960,3169.510,-361.020
581,47025.213000,273.792,25.650,-169.339,490.923,317.487,-110.964,2165.960,3371.510,-465.020
582,47025.254000,306.409,19.615,-240.062,504.574,319.517,-68.722,2496.960,3136.510,-645.020
583,47025.296000,259.954,5.532,-227.113,506.606,326.634,-54.830,3129.960,2088.510,-751.020
584,47025.337000,187.799,36.715,-224.125,503.730,330.381,-59.656,2561.960,1180.510,-490.020
585,47025.377000,280.710,21.627,-70.724,502.727,330.911,-79.260,1390.960,-4.490,-41.020
586,47025.417000,245.127,71.921,-102.599,512.328,321.491,-70.623,-1029.040,-170.490,644.980
587,47025.457000,278.734,138.310,-65.743,517.033,307.946,-70.914,-523.040,-160.490,260.980
588,47025.477000,231.290,79.969,-100.607,519.919,307.823,-77.775,935.960,322.510,320.980
589,47025.513000,233.266,52.809,-75.704,528.508,294.446,-72.170,174.960,318.510,380.980
590,47025.553000,248.093,30.680,-58.770,532.311,286.803,-68.409,692.960,454.510,299.980
591,47025.594000,261.931,88.016,-71.720,538.073,282.048,-66.541,395.960,380.510,261.980
592,47025.635000,248.093,34.703,-53.790,539.960,274.559,-54.935,-218.040,302.510,247.980
593,47025.676000,239.197,46.774,-43.829,542.793,266.000,-48.255,-98.040,209.510,149.980
594,47025.716000,246.116,35.709,-44.825,544.777,270.010,-43.258,-85.040,147.510,137.980
595,47025.756000,238.208,9.556,-41.837,546.690,266.297,-36.472,56.960,153.510,76.980
596,47025.776000,241.174,30.680,-35.860,546.692,267.203,-39.394,287.960,98.510,48.980
597,47025.816000,238.208,54.821,-48.809,547.641,266.155,-43.338,629.960,87.510,15.980
598,47025.858000,258.965,45.768,-37.852,549.577,267.059,-47.236,515.960,25.510,35.980
599,47025.893000,255.012,39.733,-42.833,545.656,263.893,-57.121,726.960,-7.490,-31.020
600,47025.938000,256.000,40.739,-54.786,548.432,252.141,-63.260,354.960,-43.490,-24.020
601,47025.974000,246.116,32.692,-45.821,546.548,257.020,-61.195,15.960,-18.490,2.980
602,47026.14000,240.185,4.527,-52.794,548.545,263.792,-63.001,249.960,-51.490,-117.020
603,47026.77000,255.012,58.845,-55.782,546.648,268.541,-66.823,451.960,-15.490,-128.020
604,47026.93000,250.069,43.756,-53.790,544.657,263.581,-70.859,134.960,-21.490,-93.020
605,47026.114000,255.012,38.727,-48.809,539.855,266.511,-67.863,-88.040,5.510,-79.020
606,47026.156000,265.884,39.733,-41.837,538.958,274.226,-69.655,-198.040,-69.490,-107.020
607,47026.196000,273.792,37.721,-33.868,536.983,269.417,-66.823,-279.040,-144.490,-158.020
608,47026.236000,291.583,15.591,-31.875,536.106,279.073,-68.572,-267.040,-291.490,-232.020
609,47026.278000,296.525,-24.644,-31.875,527.489,289.539,-74.242,-156.040,-373.490,-396.020
610,47026.318000,261.931,-59.851,-115.549,520.757,295.147,-80.996,412.960,-303.490,-595.020
611,47026.358000,221.405,-36.715,-132.482,506.407,313.279,-88.470,407.960,-264.490,-381.020
612,47026.398000,218.440,-109.139,-114.553,501.561,314.030,-96.308,443.960,-224.490,101.980
613,47026.418000,210.533,-66.892,-164.358,504.331,303.099,-109.294,1192.960,-56.490,436.980
614,47026.458000,201.637,-47.780,-160.374,506.038,282.449,-122.497,1329.960,-83.490,760.980
615,47026.498000,190.764,-5.532,-157.385,508.645,254.991,-136.830,812.960,-248.490,974.980
616,47026.537000,186.811,-5.532,-158.381,511.221,224.599,-152.209,295.960,-446.490,1149.980
617,47026.582000,203.614,38.727,-141.447,509.012,199.057,-165.530,173.960,-593.490,1154.980
618,47026.617000,218.440,69.910,-102.599,505.881,179.224,-183.628,151.960,-632.490,1009.980
619,47026.657000,222.394,97.069,-78.693,500.835,160.450,-196.804,110.960,-483.490,563.980
620,47026.697000,244.139,121.210,6.973,492.078,157.236,-206.701,335.960,-225.490,170.980
621,47026.717000,244.139,130.263,45.821,496.027,165.084,-204.557,200.960,321.510,-283.020
622,47026.756000,220.417,20.621,-131.486,495.066,163.370,-193.810,41.960,505.510,-388.020
623,47026.796000,338.039,75.945,-29.883,489.313,169.096,-195.656,435.960,184.510,-462.020
624,47026.836000,301.467,90.028,-104.591,488.518,187.468,-198.192,118.960,34.510,-468.020
625,47026.877000,210.533,-29.674,-106.584,483.768,196.180,-197.028,182.960,106.510,-400.020
626,47026.918000,230.301,25.650,-89.650,485.676,192.424,-192.204,-163.040,104.510,-112.020
627,47026.957000,287.629,-1.509,-90.646,481.868,198.254,-190.121,-539.040,72.510,-36.020
628,47026.999000,272.803,-0.503,-83.673,481.985,209.948,-187.900,-121.040,121.510,-180.020
629,47027.39000,241.174,-0.503,-98.615,482.044,214.910,-182.887,-53.040,96.510,-197.020
630,47027.54000,195.707,-64.880,-129.494,484.002,216.914,-180.877,543.960,374.510,-217.020
631,47027.97000,264.896,105.116,-81.681,476.274,216.946,-175.989,131.960,272.510,-268.020
632,47027.136000,242.162,15.591,-96.623,481.244,227.953,-162.985,-230.040,311.510,-2.020
633,47027.174000,232.278,6.538,-83.673,486.134,231.150,-152.117,-518.040,309.510,15.980
634,47027.216000,247.104,19.615,-70.724,487.126,231.397,-141.322,-656.040,349.510,82.980
635,47027.257000,247.104,24.644,-64.747,492.045,237.506,-130.389,-725.040,285.510,76.980
636,47027.297000,244.139,6.538,-62.755,493.003,233.028,-113.815,-795.040,169.510,44.980
637,47027.349000,237.220,4.527,-52.794,489.201,238.039,-104.886,-726.040,80.510,-2.020
638,47027.377000,240.185,-3.521,-42.833,489.266,243.950,-100.832,-128.040,52.510,-67.020
639,47027.397000,243.151,12.574,-56.778,491.185,242.049,-99.889,-37.040,-34.490,-97.020
640,47027.438000,240.185,17.603,-49.805,486.381,245.842,-101.777,-108.040,-116.490,-104.020
641,47027.478000,238.208,20.621,-58.770,485.430,248.638,-106.620,34.960,-168.490,-96.020
642,47027.519000,245.127,32.692,-70.724,485.428,248.616,-107.601,-77.040,-177.490,-65.020
643,47027.559000,245.127,3.521,-69.728,481.603,253.411,-108.483,32.960,-149.490,-83.020
644,47027.599000,233.266,23.639,-67.735,481.602,255.159,-117.270,189.960,-177.490,-110.020
645,47027.638000,252.046,-4.527,-45.821,478.721,258.863,-124.059,150.960,-339.490,-133.020
646,47027.677000,233.266,-8.550,-62.755,472.843,254.578,-139.857,395.960,-389.490,-154.020
647,47027.697000,252.046,117.187,-126.506,471.900,258.322,-145.660,133.960,-344.490,-126.020
648,47027.737000,247.104,64.880,-119.533,464.121,255.226,-150.648,-16.040,-159.490,27.980
649,47027.778000,228.324,30.680,-106.584,469.940,257.182,-152.554,79.960,82.510,146.980
650,47027.818000,244.139,22.633,-84.669,474.737,252.439,-149.707,14.960,84.510,193.980
651,47027.857000,244.139,30.680,-82.677,474.632,240.875,-146.041,15.960,60.510,194.980
652,47027.896000,249.081,10.562,-76.700,476.523,236.946,-149.067,-224.040,-22.490,166.980
653,47027.938000,247.104,14.585,-83.673,475.649,245.760,-144.950,-349.040,-118.490,125.980
654,47027.978000,241.174,20.621,-77.696,477.600,246.815,-141.981,-624.040,-206.490,152.980
655,47028.30000,239.197,20.621,-88.654,481.479,246.939,-138.047,-514.040,-182.490,198.980
656,47028.46000,240.185,26.656,-87.658,482.454,247.897,-139.004,-690.040,-227.490,262.980
657,47028.81000,235.243,9.556,-83.673,485.245,236.297,-138.275,-644.040,-256.490,281.980
658,47028.116000,232.278,22.633,-93.634,484.308,239.222,-137.232,-759.040,-318.490,336.980
659,47028.158000,226.347,22.633,-81.681,483.244,229.482,-138.431,-915.040,-408.490,367.980
660,47028.198000,225.359,18.609,-86.661,488.116,232.506,-135.411,-679.040,-505.490,324.980
661,47028.238000,245.127,17.603,-94.630,488.098,232.334,-143.261,-843.040,-628.490,366.980
662,47028.278000,238.208,6.538,-99.611,489.966,227.304,-152.194,-741.040,-661.490,386.980
663,47028.318000,213.498,18.609,-109.572,487.914,217.361,-162.226,-609.040,-696.490,384.980
664,47028.338000,206.579,60.857,-115.549,487.908,219.066,-172.975,-744.040,-731.490,422.980
665,47028.378000,208.556,27.662,-117.541,487.818,212.032,-183.919,-931.040,-808.490,434.980
666,47028.420000,218.440,23.639,-125.510,485.771,203.017,-195.891,-625.040,-795.490,382.980
667,47028.459000,268.849,79.969,-114.553,482.882,206.635,-206.604,-913.040,-816.490,361.980
668,47028.501000,321.236,92.039,-61.759,478.956,202.541,-214.549,-1294.040,-823.490,433.980
669,47028.541000,305.421,101.092,-71.720,475.121,208.113,-224.240,-1317.040,-1013.490,397.980
670,47028.579000,303.444,52.809,-223.128,466.460,216.399,-240.745,-1745.040,-1508.490,450.980
671,47028.631000,216.463,111.151,-283.891,450.143,234.211,-261.959,-2560.040,-2017.490,307.980
672,47028.683000,161.112,21.627,-133.479,428.150,261.998,-268.253,-2884.040,-1816.490,-152.020
673,47028.692000,98.842,8.550,23.907,419.795,295.224,-253.804,-1848.040,-546.490,-383.020
674,47028.719000,55.351,45.768,-29.883,425.753,306.435,-231.968,-875.040,1200.510,-303.020
675,47028.759000,124.541,-2.515,-67.735,446.272,319.146,-192.416,-222.040,2168.510,-148.020
676,47028.796000,144.309,22.633,-113.556,473.434,318.353,-152.169,1751.960,3210.510,-210.020
677,47028.837000,220.417,3.521,-178.303,494.652,302.961,-111.279,2515.960,3474.510,-271.020
678,47028.876000,330.131,7.544,-227.113,514.038,298.231,-70.155,2484.960,3173.510,-295.020
679,47028.917000,269.838,2.515,-257.992,525.742,300.134,-32.823,2002.960,2532.510,-253.020
680,47028.957000,226.347,20.621,-220.140,521.886,299.341,-23.042,2229.960,1462.510,-260.020
681,47028.977000,195.707,62.868,-182.288,528.705,304.262,-22.918,1899.960,803.510,-166.020
682,47029.17000,179.892,58.845,-188.265,524.770,299.197,-30.884,948.960,13.510,110.980
683,47029.57000,220.417,117.187,-34.864,529.528,293.203,-40.814,-157.040,-212.490,85.980
684,47029.96000,242.162,62.868,-101.603,530.382,280.678,-37.168,66.960,28.510,242.980
685,47029.137000,249.081,91.033,-65.743,533.299,282.605,-39.080,296.960,3.510,108.980
686,47029.176000,224.371,68.904,-99.611,534.226,278.709,-40.145,194.960,121.510,212.980
687,47029.217000,258.965,34.703,-66.739,541.984,279.842,-36.181,188.960,270.510,243.980
688,47029.257000,254.023,76.951,-49.805,545.719,265.381,-33.552,530.960,312.510,242.980
689,47029.298000,253.035,54.821,-70.724,546.696,265.477,-29.625,84.960,231.510,262.980
690,47029.326000,248.093,55.827,-66.739,551.395,249.235,-20.169,-58.040,344.510,224.980
691,47029.359000,248.093,40.739,-51.798,554.365,254.312,-11.224,-5.040,304.510,204.980
692,47029.399000,237.220,27.662,-37.852,555.240,243.750,-6.554,114.960,263.510,178.980
693,47029.439000,249.081,1.509,-17.930,556.212,243.802,-4.589,602.960,202.510,160.980
694,47029.479000,269.838,31.686,-44.825,556.146,237.891,-8.643,432.960,7.510,57.980
695,47029.519000,249.081,20.621,-45.821,558.143,245.547,-14.353,406.960,-98.490,48.980
696,47029.559000,255.012,-12.574,-49.805,561.919,236.761,-18.463,879.960,127.510,67.980
697,47029.599000,248.093,62.868,-43.829,558.026,235.623,-24.380,1010.960,170.510,-46.020
698,47029.620000,244.139,35.709,-48.809,555.139,238.378,-30.209,566.960,-11.490,-17.020
699,47029.659000,252.046,29.674,-46.817,556.128,241.235,-33.086,515.960,55.510,-87.020
700,47029.700000,251.058,29.674,-46.817,556.140,243.996,-39.889,392.960,-10.490,-103.020
701,47029.739000,243.151,29.674,-34.864,554.232,246.869,-40.810,388.960,-65.490,-140.020
702,47029.779000,241.174,34.703,-37.852,550.408,253.433,-49.498,266.960,-243.490,-189.020
703,47029.819000,241.174,48.786,-32.872,547.504,256.037,-62.195,135.960,-402.490,-217.020
704,47029.859000,235.243,25.650,-57.774,545.663,268.359,-74.674,64.960,-521.490,-230.020
705,47029.903000,234.255,47.780,-104.591,539.810,265.195,-83.582,34.960,-340.490,-171.020
706,47029.941000,241.174,43.756,-97.619,536.953,270.885,-88.366,-75.040,-87.490,-90.020
707,47029.961000,241.174,58.845,-94.630,536.004,271.932,-84.422,-93.040,92.510,-27.020
708,47030.1000,243.151,54.821,-84.669,537.885,264.400,-74.778,-225.040,253.510,42.980
709,47030.41000,247.104,36.715,-66.739,538.915,268.530,-63.897,-268.040,417.510,95.980
710,47030.80000,247.104,43.756,-65.743,542.849,271.825,-48.125,-181.040,477.510,79.980
711,47030.121000,242.162,55.827,-72.716,545.769,270.257,-32.463,-244.040,538.510,80.980
712,47030.162000,245.127,48.786,-44.825,543.778,260.896,-16.004,-304.040,593.510,76.980
713,47030.204000,247.104,15.591,-16.934,542.936,270.013,1.849,-343.040,521.510,-13.020
714,47030.241000,246.116,30.680,-13.946,543.940,271.252,13.646,-416.040,388.510,-87.020
715,47030.261000,248.093,9.556,-4.981,542.022,270.521,25.394,-430.040,214.510,-208.020
716,47030.300000,255.012,36.715,-16.934,536.408,288.134,34.599,-351.040,109.510,-338.020
717,47030.341000,256.000,45.768,-20.918,530.659,293.018,38.618,-396.040,51.510,-446.020
718,47030.381000,245.127,51.804,-19.922,524.891,295.076,46.497,-318.040,83.510,-483.020
719,47030.419000,248.093,54.821,-14.942,514.423,311.606,52.725,-284.040,86.510,-491.020
720,47030.459000,255.012,51.804,-10.957,508.729,322.294,55.893,-94.040,144.510,-512.020
721,47030.498000,282.687,18.609,-14.942,499.259,342.653,59.267,41.960,154.510,-545.020
722,47030.539000,290.595,40.739,-15.938,488.753,354.415,69.312,146.960,241.510,-503.020
723,47030.559000,293.560,-8.550,-47.813,482.950,352.611,78.086,-886.040,-4.490,-152.020
724,47030.602000,278.734,-38.727,-96.623,488.593,329.992,106.035,-2786.040,-681.490,743.980
725,47030.642000,241.174,-114.169,-169.339,501.901,304.968,109.430,-1378.040,-985.490,816.980
726,47030.681000,277.745,-80.974,-97.619,511.380,293.498,68.988,2041.960,-630.490,962.980
727,47030.722000,237.220,54.821,-64.747,515.064,280.311,41.245,1895.960,-456.490,1185.980
728,47030.763000,217.452,99.081,-65.743,523.340,240.159,20.758,249.960,-535.490,1352.980
729,47030.800000,218.440,44.762,-81.681,527.878,210.929,13.254,-670.040,-641.490,1322.980
730,47030.844000,238.208,52.809,-77.696,532.422,183.512,-0.094,-586.040,-694.490,1276.980
731,47030.878000,243.151,94.051,-50.802,533.153,162.766,-17.224,300.960,-731.490,819.980
732,47030.898000,242.162,119.198,-40.840,526.266,156.314,-42.879,643.960,-762.490,399.980
733,47030.942000,251.058,104.110,-21.914,526.268,159.853,-58.491,828.960,-756.490,-76.020
734,47030.979000,251.058,96.063,-8.965,514.662,165.932,-85.839,936.960,-608.490,-342.020
735,47031.23000,258.965,78.963,3.984,507.956,177.063,-106.200,1060.960,-270.490,-485.020
736,47031.58000,266.873,30.680,37.852,507.046,184.648,-113.879,857.960,25.510,-528.020
737,47031.101000,256.000,46.774,14.942,500.370,194.312,-112.697,820.960,489.510,-520.020
738,47031.141000,287.629,0.503,-99.611,499.412,194.389,-108.775,259.960,173.510,-234.020
739,47031.192000,263.907,-4.527,-63.751,497.564,203.129,-107.604,27.960,106.510,-242.020
740,47031.200000,231.290,20.621,-90.646,493.699,203.135,-105.651,8.960,83.510,-264.020
741,47031.242000,277.745,20.621,-72.716,492.752,205.089,-104.629,-77.040,93.510,-135.020
742,47031.284000,248.093,3.521,-64.747,496.718,213.972,-99.520,-243.040,36.510,-100.020
743,47031.324000,238.208,4.527,-68.732,495.802,218.860,-97.452,-92.040,47.510,-102.020
744,47031.360000,241.174,-3.521,-65.743,493.872,218.884,-95.494,-265.040,10.510,-95.020
745,47031.401000,249.081,-9.556,-65.743,491.045,225.738,-91.426,-62.040,17.510,-147.020
746,47031.438000,247.104,22.633,-72.716,493.029,230.633,-90.332,-15.040,-19.490,-130.020
747,47031.478000,254.023,21.627,-69.728,491.057,227.615,-94.326,-59.040,-17.490,-36.020
748,47031.518000,245.127,17.603,-79.689,490.098,227.692,-90.404,-234.040,57.510,21.980
749,47031.542000,245.127,12.574,-73.712,490.029,219.990,-87.633,-290.040,82.510,28.980
750,47031.579000,241.174,12.574,-69.728,493.070,232.791,-80.478,-385.040,126.510,65.980
751,47031.619000,243.151,14.585,-65.743,495.962,230.079,-72.686,-520.040,131.510,85.980
752,47031.659000,248.093,18.609,-54.786,496.928,227.435,-60.975,-618.040,57.510,108.980
753,47031.699000,242.162,7.544,-59.767,496.994,234.231,-60.824,-593.040,-8.490,106.980
754,47031.739000,248.093,6.538,-50.802,497.914,227.617,-53.124,-682.040,-67.490,90.980
755,47031.778000,248.093,12.574,-52.794,498.923,231.553,-51.073,-553.040,-169.490,52.980
756,47031.821000,245.127,28.668,-63.751,497.996,235.448,-50.008,-655.040,-237.490,74.980
757,47031.842000,248.093,20.621,-64.747,498.940,232.588,-48.108,-633.040,-240.490,113.980
758,47031.882000,242.162,12.574,-74.708,502.715,222.917,-48.315,-563.040,-232.490,115.980
759,47031.921000,242.162,7.544,-64.747,497.960,231.586,-49.113,-512.040,-284.490,95.980
760,47031.963000,244.139,4.527,-69.728,496.911,223.745,-52.231,-399.040,-381.490,64.980
761,47032.13000,241.174,18.609,-72.716,497.900,227.487,-59.011,-139.040,-416.490,-12.020
762,47032.39000,237.220,41.745,-85.665,498.857,228.273,-67.817,-133.040,-387.490,-0.020
763,47032.86000,241.174,24.644,-85.665,497.813,222.245,-76.779,-207.040,-390.490,50.980
764,47032.121000,239.197,26.656,-82.677,495.840,219.227,-80.773,-331.040,-438.490,109.980
765,47032.161000,239.197,31.686,-91.642,494.921,225.841,-88.473,-397.040,-451.490,152.980
766,47032.181000,227.336,21.627,-90.646,495.847,222.808,-94.423,-551.040,-546.490,185.980
767,47032.222000,224.371,21.627,-106.584,494.833,219.714,-102.339,-481.040,-558.490,182.980
768,47032.267000,215.475,46.774,-111.564,495.752,216.616,-111.231,-539.040,-576.490,179.980
769,47032.302000,218.440,21.627,-110.568,490.831,209.601,-119.243,-644.040,-595.490,232.980
770,47032.382000,215.475,25.650,-110.568,489.857,211.296,-129.995,-495.040,-644.490,226.980
771,47032.413000,222.394,26.656,-107.580,492.719,210.051,-143.745,-471.040,-742.490,225.980
772,47032.449000,216.463,54.821,-110.568,488.789,206.799,-157.555,-519.040,-852.490,215.980
773,47032.476000,200.649,26.656,-138.459,485.843,204.592,-168.398,-463.040,-912.490,245.980
774,47032.499000,168.031,45.768,-180.296,481.882,199.268,-188.137,-689.040,-997.490,234.980
775,47032.521000,274.780,-35.709,-153.401,475.071,198.836,-204.833,-561.040,-814.490,249.980
776,47032.563000,309.375,66.892,-133.479,468.213,192.664,-217.733,-524.040,-768.490,295.980
777,47032.603000,204.602,114.169,-213.167,462.478,202.079,-228.323,-741.040,-774.490,235.980
778,47032.644000,213.498,78.963,-200.218,462.451,201.820,-240.097,-965.040,-754.490,203.980
779,47032.694000,194.718,59.851,-174.319,450.939,213.206,-246.733,-681.040,-508.490,-10.020
780,47032.723000,135.413,67.898,-194.241,452.905,216.159,-245.683,-489.040,-316.490,-125.020
781,47032.762000,108.726,63.874,-121.525,445.375,237.464,-244.245,-784.040,-47.490,-385.020
782,47032.804000,109.714,86.004,-106.584,449.406,251.375,-231.179,-607.040,433.510,-498.020
783,47032.831000,134.425,52.809,-153.401,452.484,267.174,-220.035,240.960,910.510,-690.020
784,47032.871000,134.425,98.075,-213.167,450.571,267.371,-210.228,800.960,1023.510,-763.020
785,47032.904000,139.367,115.175,-221.136,451.837,295.773,-198.807,372.960,865.510,-851.020
786,47032.947000,152.216,107.128,-179.300,447.119,305.671,-187.810,80.960,755.510,-860.020
787,47032.983000,154.193,114.169,-146.428,445.417,328.133,-180.451,180.960,776.510,-782.020
788,47033.24000,168.031,96.063,-162.366,436.890,343.863,-167.371,267.960,851.510,-658.020
789,47033.64000,183.846,95.057,-169.339,433.083,348.830,-160.404,347.960,911.510,-616.020
790,47033.101000,200.649,68.904,-144.436,428.438,366.474,-150.215,481.960,857.510,-488.020
791,47033.144000,219.429,31.686,-126.506,425.620,374.299,-146.125,514.960,818.510,-400.020
792,47033.182000,220.417,38.727,-104.591,427.589,376.411,-139.209,574.960,843.510,-242.020
793,47033.203000,199.660,16.597,-156.389,423.727,377.323,-140.178,482.960,732.510,-43.020
794,47033.251000,204.602,-15.591,-180.296,433.297,366.737,-140.393,551.960,297.510,179.980
795,47033.284000,206.579,19.615,-141.447,436.143,360.056,-136.612,-176.040,260.510,475.980
796,47033.326000,239.197,117.187,-92.638,444.782,350.691,-125.034,-788.040,168.510,617.980
797,47033.372000,244.139,111.151,-65.743,453.502,349.136,-111.321,-416.040,230.510,516.980
798,47033.401000,245.127,105.116,-59.767,462.063,333.730,-109.684,448.960,345.510,318.980
799,47033.446000,250.069,61.862,-78.693,465.865,327.835,-114.710,628.960,253.510,258.980
800,47033.461000,226.347,79.969,-98.615,467.741,322.007,-115.816,434.960,139.510,203.980
801,47033.502000,222.394,66.892,-109.572,470.619,319.166,-113.912,107.960,158.510,251.980
802,47033.548000,209.544,41.745,-106.584,473.448,311.449,-113.096,406.960,360.510,245.980
803,47033.581000,235.243,72.927,-94.630,481.164,308.655,-111.181,489.960,500.510,207.980
804,47033.623000,259.954,60.857,-76.700,486.862,296.241,-104.580,508.960,507.510,183.980
805,47033.663000,255.012,61.862,-81.681,487.834,296.293,-102.615,234.960,350.510,115.980
806,47033.703000,242.162,46.774,-94.630,490.702,290.712,-92.926,100.960,362.510,97.980
807,47033.759000,233.266,58.845,-93.634,491.723,294.756,-85.970,5.960,404.510,81.980
808,47033.768000,229.313,50.798,-69.728,495.594,292.162,-73.270,-45.040,457.510,97.980
809,47033.803000,234.255,46.774,-61.759,496.543,287.597,-60.621,74.960,482.510,76.980
810,47033.851000,239.197,47.780,-61.759,495.558,283.898,-51.879,194.960,473.510,48.980
811,47033.881000,249.081,41.745,-51.798,498.502,286.084,-42.018,183.960,465.510,43.980
812,47033.921000,237.220,35.709,-44.825,498.539,288.198,-34.126,183.960,426.510,-7.020
813,47033.966000,240.185,35.709,-45.821,504.395,292.268,-28.139,120.960,355.510,-53.020
814,47034.6000,250.069,21.627,-41.837,502.478,293.306,-24.197,203.960,303.510,-171.020
815,47034.46000,245.127,37.721,-44.825,494.743,292.389,-18.350,264.960,269.510,-240.020
816,47034.86000,248.093,65.886,-44.825,490.035,305.028,-15.138,-8.040,213.510,-277.020
817,47034.106000,245.127,62.868,-45.821,486.256,312.908,-8.106,-117.040,233.510,-278.020
818,47034.146000,246.116,66.892,-37.852,482.449,316.991,2.764,-217.040,270.510,-258.020
819,47034.182000,247.104,47.780,-26.895,478.628,320.060,11.650,-252.040,257.510,-231.020
820,47034.222000,251.058,35.709,-7.969,471.928,326.855,14.729,-92.040,175.510,-287.020
821,47034.262000,259.954,29.674,-16.934,466.145,328.762,15.739,21.960,-86.490,-396.020
822,47034.307000,292.571,-6.538,-35.860,459.519,345.071,10.203,403.960,-116.490,-437.020
823,47034.348000,288.618,-9.556,-38.848,452.841,357.346,-2.287,1171.960,-7.490,-409.020
824,47034.383000,268.849,-2.515,-24.903,449.881,355.009,-19.016,1020.960,-119.490,-212.020
825,47034.403000,257.977,-24.644,-14.942,448.790,344.126,-28.086,630.960,-46.490,380.980
826,47034.446000,259.954,-25.650,-25.899,454.510,336.330,-32.170,767.960,127.510,586.980
827,47034.486000,260.942,9.556,-26.895,461.093,316.094,-28.682,751.960,385.510,799.980
828,47034.524000,249.081,34.703,-42.833,477.428,303.741,-24.019,597.960,485.510,814.980
829,47034.568000,252.046,30.680,-73.712,485.952,281.819,-9.777,432.960,519.510,838.980
830,47034.604000,233.266,29.674,-93.634,491.544,257.820,-0.492,525.960,418.510,891.980
831,47034.644000,225.359,46.774,-104.591,499.122,240.506,3.063,570.960,258.510,872.980
832,47034.683000,219.429,76.951,-97.619,506.767,229.988,6.768,184.960,25.510,812.980
833,47034.726000,206.579,83.992,-87.658,506.637,216.417,7.447,-313.040,-229.490,777.980
834,47034.747000,217.452,67.898,-72.716,509.331,195.950,2.095,-288.040,-466.490,606.980
835,47034.782000,235.243,68.904,-59.767,511.196,191.783,-11.723,-133.040,-580.490,365.980
836,47034.827000,244.139,51.804,-49.805,512.045,182.731,-26.632,96.960,-643.490,80.980
837,47034.866000,254.023,50.798,-36.856,505.325,191.964,-45.073,151.960,-640.490,-27.020
838,47034.906000,263.907,41.745,1.992,505.258,188.685,-61.818,317.960,-431.490,-107.020
839,47034.944000,265.884,31.686,25.899,502.429,197.286,-66.536,334.960,-120.490,-216.020
840,47034.984000,267.861,25.650,16.934,499.574,202.113,-66.435,561.960,185.510,-226.020
841,47035.32000,277.745,28.668,-75.704,499.520,197.193,-69.486,119.960,-199.490,-196.020
842,47035.46000,265.884,-13.580,-47.813,494.757,206.661,-78.112,29.960,-244.490,-226.020
843,47035.86000,230.301,10.562,-87.658,493.849,214.267,-84.810,117.960,-234.490,-207.020
844,47035.122000,221.405,4.527,-86.661,490.964,217.044,-89.657,15.960,-171.490,-157.020
845,47035.167000,269.838,4.527,-61.759,489.980,215.114,-88.722,-30.040,-84.490,-79.020
846,47035.207000,262.919,10.562,-64.747,491.939,218.003,-90.615,-210.040,-144.490,-99.020
847,47035.249000,251.058,-5.532,-63.751,487.125,220.825,-92.524,-101.040,-133.490,-116.020
848,47035.288000,248.093,8.550,-85.665,485.261,227.645,-90.415,-259.040,-84.490,-78.020
849,47035.346000,244.139,8.550,-70.724,487.210,228.678,-88.427,-488.040,-44.490,-18.020
850,47035.363000,237.220,-5.532,-68.732,485.265,227.688,-88.453,-220.040,-79.490,-64.020
851,47035.386000,239.197,17.603,-63.751,483.389,233.516,-87.346,-231.040,-110.490,-58.020
852,47035.422000,246.116,13.580,-73.712,479.543,236.348,-89.253,-137.040,-216.490,-58.020
853,47035.463000,244.139,8.550,-79.689,480.502,236.271,-93.175,-89.040,-212.490,-71.020
854,47035.506000,247.104,2.515,-86.661,480.481,235.192,-98.103,56.960,-134.490,-84.020
855,47035.546000,245.127,30.680,-93.634,477.640,241.917,-99.921,33.960,-24.490,-54.020
856,47035.586000,247.104,29.674,-93.634,478.567,237.137,-97.083,-44.040,105.510,34.980
857,47035.638000,236.232,12.574,-80.685,477.567,233.287,-95.209,-164.040,110.510,81.980
858,47035.684000,237.220,13.580,-72.716,484.411,239.329,-88.196,-96.040,110.510,104.980
859,47035.709000,237.220,7.544,-72.716,479.578,238.441,-82.342,-206.040,139.510,159.980
860,47035.724000,235.243,21.627,-67.735,484.384,234.669,-79.474,-300.040,70.510,202.980
861,47035.766000,247.104,6.538,-63.751,488.192,227.069,-73.750,-358.040,8.510,226.980
862,47035.807000,247.104,19.615,-72.716,487.182,223.133,-75.801,-355.040,-37.490,194.980
863,47035.848000,251.058,7.544,-72.716,489.150,225.223,-69.867,-523.040,-95.490,216.980
864,47035.883000,237.220,4.527,-66.739,491.047,221.359,-69.948,-518.040,-104.490,196.980
865,47035.926000,249.081,3.521,-62.755,493.866,211.786,-65.252,-813.040,-267.490,212.980
866,47035.988000,248.093,13.580,-69.728,496.832,218.589,-66.075,-866.040,-332.490,207.980
867,47036.4000,248.093,11.568,-65.743,492.880,210.720,-69.200,-1036.040,-439.490,270.980
868,47036.26000,244.139,5.532,-77.696,494.834,212.680,-69.152,-1099.040,-536.490,264.980
869,47036.74000,232.278,10.562,-76.700,497.621,201.921,-74.289,-1097.040,-650.490,268.980
870,47036.107000,230.301,11.568,-82.677,495.699,204.664,-81.096,-952.040,-688.490,252.980
871,47036.147000,224.371,10.562,-101.603,498.543,200.615,-90.006,-736.040,-711.490,258.980
872,47036.187000,211.521,15.591,-113.556,496.464,188.643,-104.006,-591.040,-721.490,278.980
873,47036.226000,209.544,38.727,-117.541,494.513,188.473,-110.878,-630.040,-736.490,319.980
874,47036.266000,212.510,34.703,-119.533,495.456,189.130,-125.571,-618.040,-730.490,352.980
875,47036.308000,204.602,3.521,-131.486,497.332,185.935,-139.368,-519.040,-772.490,365.980
876,47036.348000,230.301,42.750,-130.490,493.270,169.975,-157.382,-872.040,-929.490,482.980
877,47036.363000,303.444,96.063,-80.685,490.383,173.614,-167.114,-1428.040,-892.490,512.980
878,47036.403000,357.807,59.851,-49.805,487.464,175.183,-182.776,-1481.040,-1054.490,498.980
879,47036.443000,242.162,120.204,-226.117,484.518,172.975,-193.619,-1261.040,-1093.490,463.980
880,47036.493000,223.382,87.010,-240.062,479.619,170.577,-212.315,-1680.040,-1270.490,424.980
881,47036.527000,161.112,42.750,-204.202,466.162,182.721,-227.764,-1707.040,-1135.490,333.980
882,47036.568000,118.610,101.092,-175.315,455.662,198.949,-235.271,-1936.040,-994.490,-200.020
883,47036.607000,105.761,59.851,-49.805,447.193,223.157,-233.771,-1324.040,-208.490,-299.020
884,47036.648000,94.888,69.910,-43.829,459.094,248.081,-208.676,-964.040,659.510,-318.020
885,47036.668000,124.541,84.998,-49.805,469.900,257.678,-174.118,-465.040,1684.510,-406.020
886,47036.704000,187.799,64.880,-94.630,475.897,271.909,-147.311,216.960,2334.510,-470.020
887,47036.744000,221.405,55.827,-114.553,488.639,279.777,-103.961,1575.960,2972.510,-580.020
888,47036.784000,284.664,53.815,-169.339,497.603,298.178,-65.287,2292.960,3094.510,-778.020
889,47036.824000,297.514,12.574,-183.284,494.950,319.034,-42.275,2985.960,2784.510,-931.020
890,47036.864000,233.266,-5.532,-191.253,493.203,336.664,-34.042,3059.960,2162.510,-849.020
891,47036.904000,225.359,-1.509,-148.420,486.449,340.287,-42.802,2312.960,1303.510,-518.020
892,47036.944000,169.019,29.674,-346.646,490.320,342.978,-54.502,1677.960,450.510,-9.020
893,47036.964000,223.382,2.515,-106.584,491.156,331.165,-62.607,-88.040,-127.490,294.980
894,47037.4000,231.290,67.898,-92.638,496.960,330.337,-58.691,-695.040,-49.490,497.980
895,47037.44000,272.803,100.086,-47.813,502.701,323.619,-57.847,541.960,205.510,209.980
896,47037.83000,250.069,67.898,-84.669,511.264,309.119,-59.132,574.960,369.510,385.980
897,47037.126000,231.290,25.650,-56.778,512.191,303.454,-52.391,-144.040,279.510,393.980
898,47037.164000,234.255,59.851,-66.739,521.727,289.892,-55.614,828.960,438.510,313.980
899,47037.206000,252.046,77.957,-53.790,519.818,291.879,-52.632,397.960,292.510,309.980
900,47037.247000,244.139,20.621,-51.798,528.465,284.348,-45.916,104.960,152.510,329.980
901,47037.286000,251.058,12.574,-50.802,528.387,276.560,-47.070,312.960,144.510,216.980
902,47037.309000,248.093,31.686,-54.786,532.184,268.852,-46.252,270.960,136.510,99.980
903,47037.344000,249.081,39.733,-65.743,531.205,267.850,-47.257,212.960,147.510,66.980
904,47037.386000,242.162,38.727,-49.805,534.154,271.848,-43.240,115.960,93.510,63.980
905,47037.427000,233.266,44.762,-44.825,534.098,266.908,-47.272,179.960,59.510,47.980
906,47037.467000,255.012,49.792,-55.782,537.018,267.993,-43.319,206.960,29.510,71.980
907,47037.507000,237.220,37.721,-51.798,539.801,256.306,-46.515,241.960,64.510,64.980
908,47037.547000,249.081,51.804,-59.767,535.961,259.203,-45.478,-14.040,39.510,85.980
909,47037.586000,252.046,19.615,-51.798,539.871,262.261,-40.498,-96.040,102.510,70.980
910,47037.611000,237.220,21.627,-58.770,540.850,263.263,-39.493,8.960,105.510,-56.020
911,47037.646000,246.116,33.697,-51.798,535.972,258.426,-36.669,-30.040,89.510,-64.020
912,47037.686000,244.139,31.686,-44.825,537.013,266.181,-37.475,142.960,101.510,-65.020
913,47037.727000,247.104,38.727,-55.782,538.893,260.396,-36.619,51.960,8.510,-97.020
914,47037.766000,252.046,35.709,-62.755,532.222,270.104,-33.476,-6.040,74.510,-102.020
915,47037.806000,253.035,38.727,-54.786,536.129,273.140,-29.477,-186.040,140.510,-77.020
916,47037.846000,263.907,10.562,-18.926,532.297,276.101,-25.497,-91.040,63.510,-112.020
917,47037.886000,279.722,-14.585,-44.825,526.476,274.125,-24.573,131.960,-18.490,-252.020
918,47037.927000,283.676,8.550,-21.914,522.769,291.498,-27.137,386.960,30.510,-421.020
919,47037.947000,268.849,-68.904,-109.572,516.915,286.565,-28.239,59.960,-41.490,-372.020
920,47037.987000,234.255,-59.851,-56.778,514.074,292.405,-26.154,311.960,77.510,132.980
921,47038.24000,248.093,-87.010,-49.805,518.859,286.670,-24.310,731.960,218.510,396.980
922,47038.69000,249.081,-71.921,-89.650,522.526,267.161,-30.620,2008.960,441.510,510.980
923,47038.108000,230.301,-15.591,-116.545,518.476,250.425,-39.826,2146.960,379.510,561.980
924,47038.148000,211.521,-10.562,-150.412,520.245,235.643,-50.937,876.960,-93.490,608.980
925,47038.188000,202.625,-5.532,-165.354,519.191,228.644,-59.921,412.960,-440.490,841.980
926,47038.229000,208.556,31.686,-155.393,520.895,208.836,-78.989,221.960,-713.490,885.980
927,47038.249000,214.486,60.857,-110.568,517.740,187.901,-102.997,205.960,-930.490,780.980
928,47038.286000,219.429,73.933,-69.728,509.801,172.702,-128.848,342.960,-891.490,617.980
929,47038.326000,236.232,46.774,-45.821,499.992,163.396,-150.650,243.960,-640.490,306.980
930,47038.366000,245.127,148.369,94.630,499.972,162.317,-155.577,-95.040,-275.490,-56.020
931,47038.406000,260.942,-24.644,-92.638,504.895,169.354,-146.584,139.960,540.510,-146.020
932,47038.446000,312.340,74.939,-59.767,502.987,173.111,-151.408,1082.960,147.510,-532.020
933,47038.493000,244.139,10.562,-95.626,495.328,182.615,-157.097,550.960,-10.490,-570.020
934,47038.528000,262.919,16.597,-72.716,492.459,186.427,-158.980,110.960,73.510,-362.020
935,47038.568000,275.768,23.639,-77.696,493.543,197.245,-152.854,-332.040,93.510,-173.020
936,47038.591000,256.988,8.550,-68.732,490.714,204.078,-149.766,-109.040,115.510,-212.020
937,47038.629000,215.475,-18.609,-83.673,487.809,203.143,-146.851,-57.040,114.510,-169.020
938,47038.668000,247.104,-5.532,-50.802,485.956,210.956,-143.740,-137.040,142.510,-87.020
939,47038.708000,257.977,3.521,-58.770,490.788,210.075,-141.788,-283.040,1.510,-124.020
940,47038.746000,245.127,10.562,-66.739,484.127,220.754,-138.623,-275.040,-30.490,-147.020
941,47038.788000,252.046,15.591,-72.716,486.116,225.692,-135.567,-300.040,-98.490,-124.020
942,47038.827000,244.139,14.585,-80.685,482.267,228.502,-138.455,-211.040,-12.490,-76.020
943,47038.871000,250.069,9.556,-88.654,485.133,222.899,-129.747,-258.040,64.510,-60.020
944,47038.889000,242.162,5.532,-80.685,482.381,237.520,-125.506,-256.040,159.510,-30.020
945,47038.931000,243.151,19.615,-79.689,479.399,228.797,-123.744,-269.040,237.510,-2.020
946,47038.971000,246.116,14.585,-68.732,480.497,239.745,-111.731,-360.040,246.510,58.980
947,47039.9000,246.116,10.562,-53.790,487.273,238.085,-101.947,-394.040,239.510,92.980
948,47039.46000,243.151,15.591,-50.802,489.168,231.566,-90.320,-502.040,168.510,109.980
949,47039.91000,248.093,1.509,-43.829,489.180,231.674,-85.414,-538.040,63.510,99.980
950,47039.131000,249.081,5.532,-47.813,487.263,232.712,-81.472,-528.040,-8.490,71.980
951,47039.171000,251.058,14.585,-47.813,490.252,240.616,-76.387,-603.040,-102.490,37.980
952,47039.191000,248.093,18.609,-62.755,490.271,242.557,-76.344,-563.040,-101.490,55.980
953,47039.231000,251.058,2.515,-60.763,492.208,241.713,-71.455,-546.040,-62.490,65.980
954,47039.267000,248.093,3.521,-52.794,489.218,232.041,-68.734,-514.040,-47.490,49.980
955,47039.312000,248.093,4.527,-49.805,490.286,240.939,-61.670,-562.040,-114.490,60.980
956,47039.349000,248.093,23.639,-46.817,490.288,240.961,-60.689,-539.040,-157.490,42.980
957,47039.389000,242.162,16.597,-54.786,486.453,243.900,-57.690,-490.040,-265.490,49.980
958,47039.428000,246.116,-19.615,-54.786,490.307,242.902,-60.646,-402.040,-355.490,51.980
959,47039.468000,242.162,40.739,-66.739,488.305,237.835,-69.588,-329.040,-393.490,10.980
960,47039.508000,239.197,22.633,-65.743,486.387,239.736,-70.531,-641.040,-453.490,47.980
961,47039.528000,215.475,-47.780,-46.817,486.404,243.426,-79.275,-540.040,-559.490,-8.020
962,47039.568000,219.429,-10.562,-62.755,484.464,246.881,-97.835,7.960,-667.490,-66.020
963,47039.609000,254.023,54.821,-94.630,480.506,239.831,-107.806,-146.040,-703.490,-34.020
964,47039.648000,222.394,51.804,-85.665,476.638,243.332,-123.427,-54.040,-779.490,-69.020
965,47039.689000,244.139,14.585,-79.689,475.658,244.962,-137.122,-91.040,-956.490,-45.020
966,47039.737000,282.687,69.910,-103.595,466.958,250.228,-158.598,-401.040,-1067.490,72.980
967,47039.771000,323.212,69.910,-81.681,464.969,248.807,-178.247,-522.040,-1123.490,38.980
968,47039.812000,350.888,108.134,-50.802,456.187,246.241,-202.839,-466.040,-1295.490,145.980
969,47039.827000,317.282,108.134,-105.588,444.496,240.950,-217.691,-1075.040,-1489.490,242.980
970,47039.872000,251.058,44.762,-194.241,430.145,260.830,-233.952,-1505.040,-1670.490,203.980
971,47039.908000,146.286,151.387,-90.646,423.535,278.175,-236.523,-2004.040,-1249.490,179.980
972,47039.949000,122.564,101.092,24.903,422.802,298.014,-216.471,-3103.040,-582.490,-78.020
973,47039.989000,92.911,82.986,-39.844,430.788,317.183,-186.608,-717.040,1066.510,-286.020
974,47040.29000,122.564,86.004,-58.770,446.323,316.988,-158.141,504.960,2056.510,-386.020
975,47040.78000,145.297,96.063,-87.658,462.903,321.075,-111.924,800.960,2891.510,-476.020
976,47040.112000,229.313,82.986,-159.377,481.531,335.062,-57.638,343.960,2955.510,-459.020
977,47040.153000,288.618,34.703,-190.257,488.462,340.176,-4.554,947.960,2571.510,-452.020
978,47040.168000,233.266,50.798,-252.016,488.545,345.375,11.252,1506.960,1942.510,-518.020
979,47040.207000,203.614,-49.792,-229.105,479.974,358.041,17.399,1728.960,782.510,-554.020
980,47040.254000,241.174,-4.527,-171.331,470.268,362.046,-16.856,2180.960,-94.490,-509.020
981,47040.289000,190.764,139.316,-121.525,474.097,361.696,-34.507,596.960,-340.490,571.980
982,47040.337000,214.486,232.864,-64.747,487.551,350.393,-24.923,-1598.040,-528.490,632.980
983,47040.373000,292.571,34.703,-43.829,499.003,336.677,-35.991,511.960,-216.490,577.980
984,47040.421000,256.988,86.004,-83.673,506.500,315.048,-52.146,441.960,-302.490,513.980
985,47040.448000,203.614,43.756,-110.568,512.250,310.186,-55.183,-281.040,-305.490,511.980
986,47040.468000,252.046,54.821,-103.595,516.029,301.421,-58.312,213.960,80.510,415.980
987,47040.509000,238.208,48.786,-99.611,522.740,295.619,-60.388,56.960,208.510,350.980
988,47040.549000,240.185,57.839,-94.630,528.479,286.247,-47.835,59.960,426.510,229.980
989,47040.589000,241.174,60.857,-92.638,531.391,283.729,-31.214,-72.040,541.510,182.980
990,47040.629000,241.174,61.862,-70.724,535.215,275.396,-14.719,-198.040,687.510,197.980
991,47040.669000,238.208,51.804,-50.802,532.331,272.908,5.813,-167.040,730.510,152.980
992,47040.709000,240.185,42.750,-33.868,537.224,277.011,13.760,-110.040,660.510,88.980
993,47040.747000,244.139,42.750,-20.918,535.325,276.453,33.357,-56.040,589.510,47.980
994,47040.794000,246.116,41.745,-25.899,533.367,271.817,44.037,-11.040,524.510,11.980
995,47040.809000,245.127,50.798,-24.903,529.546,274.001,56.826,21.960,470.510,-19.020
996,47040.849000,252.046,47.780,-26.895,525.781,282.896,65.841,-2.040,469.510,-51.020
997,47040.888000,250.069,51.804,-21.914,526.775,282.279,81.520,-120.040,521.510,-66.020
998,47040.928000,241.174,39.733,-17.930,522.028,288.381,96.356,-70.040,641.510,-110.020
999,47040.968000,253.035,53.815,-16.934,516.304,292.618,115.070,-27.040,664.510,-214.020
1000,47041.7000,249.081,50.798,-16.934,506.677,293.861,131.749,-9.040,810.510,-240.020
1001,47041.49000,249.081,87.010,-7.969,496.205,306.831,152.609,44.960,936.510,-312.020
1002,47041.91000,256.988,86.004,-5.977,485.655,312.013,172.315,-340.040,822.510,-309.020
1003,47041.131000,276.757,36.715,-7.969,479.905,313.359,191.946,-383.040,585.510,-181.020
1004,47041.151000,291.583,34.703,43.829,467.348,313.431,200.747,-94.040,399.510,-107.020
1005,47041.192000,238.208,32.692,23.907,463.521,318.204,198.883,687.960,265.510,48.980
1006,47041.232000,182.857,56.833,-108.576,463.568,327.460,178.495,405.960,-749.490,68.980
1007,47041.273000,198.672,44.762,-84.669,470.333,334.495,142.381,199.960,-1215.490,-52.020
1008,47041.313000,205.591,84.998,-58.770,469.381,347.840,87.758,1247.960,-1463.490,-263.020
1009,47041.348000,236.232,116.181,-69.728,464.468,354.115,22.183,1371.960,-1600.490,-146.020
1010,47041.389000,256.000,115.175,-68.732,457.621,360.371,-43.397,1179.960,-1644.490,-182.020
1011,47041.437000,281.699,118.193,-35.860,433.398,366.823,-92.338,968.960,-1453.490,-350.020
1012,47041.453000,226.347,141.328,-1.992,421.763,369.105,-115.848,42.960,-1107.490,-206.020
1013,47041.492000,222.394,120.204,15.938,405.240,363.810,-128.749,-536.040,-755.490,-114.020
1014,47041.532000,227.336,109.139,21.914,403.355,368.667,-127.664,-751.040,-234.490,214.980
1015,47041.572000,270.826,90.028,18.926,404.325,366.066,-113.991,-868.040,123.510,336.980
1016,47041.613000,295.537,73.933,60.763,410.210,369.531,-91.346,-604.040,520.510,286.980
1017,47041.653000,279.722,87.010,-36.856,416.983,366.965,-78.640,11.960,493.510,160.980
1018,47041.693000,249.081,67.898,-29.883,417.943,366.025,-77.679,297.960,306.510,67.980
1019,47041.729000,220.417,95.057,-62.755,415.966,361.195,-75.829,3.960,133.510,24.980
1020,47041.768000,220.417,88.016,-45.821,415.916,355.435,-73.015,-169.040,35.510,50.980
1021,47041.788000,235.243,80.974,-63.751,417.839,354.461,-74.013,55.960,60.510,58.980
1022,47041.829000,233.266,82.986,-68.732,417.848,354.547,-70.088,30.960,80.510,48.980
1023,47041.869000,234.255,80.974,-55.782,418.818,354.578,-69.105,33.960,108.510,66.980
1024,47041.909000,233.266,81.980,-51.798,415.916,354.550,-69.112,103.960,113.510,58.980
1025,47041.962000,233.266,87.010,-50.802,422.685,353.710,-66.174,-75.040,55.510,75.980
1026,47041.991000,235.243,76.951,-45.821,421.731,354.714,-64.192,-195.040,-0.490,84.980
1027,47042.29000,238.208,65.886,-46.817,423.678,355.726,-63.185,-73.040,-35.490,49.980
1028,47042.71000,235.243,73.933,-51.798,426.576,355.711,-65.141,23.960,-44.490,31.980
1029,47042.91000,237.220,72.927,-54.786,427.508,351.858,-64.244,6.960,-67.490,11.980
1030,47042.131000,235.243,77.957,-55.782,422.718,356.666,-64.147,33.960,-56.490,13.980
1031,47042.171000,233.266,79.969,-56.778,425.583,353.695,-68.130,5.960,-60.490,14.980
1032,47042.211000,237.220,73.933,-52.794,422.617,346.892,-67.306,-6.040,-52.490,19.980
1033,47042.252000,235.243,78.963,-61.759,427.527,354.685,-68.103,5.960,-33.490,21.980
1034,47042.292000,233.266,76.951,-57.774,424.580,349.824,-67.237,-18.040,-23.490,21.980
1035,47042.332000,233.266,74.939,-55.782,423.634,352.662,-70.118,-3.040,-23.490,18.980
1036,47042.372000,236.232,71.921,-53.790,429.444,353.646,-72.045,8.960,-31.490,8.980
