Sample, Time, ACCX, ACCY, ACCZ, MAGX, MAGY, MAGZ, GYRX, GYRY, GYRZ
0,46813.41000,246.135,55.037,-27.554,401.754,234.637,-190.332,19.800,6.290,1.420
1,46813.57000,245.148,56.047,-25.550,403.513,227.723,-189.557,20.800,7.290,1.420
2,46813.97000,244.162,57.057,-26.552,402.640,233.826,-188.369,18.800,6.290,1.420
3,46813.137000,246.135,58.067,-22.544,400.870,230.296,-190.475,18.800,4.290,1.420
4,46813.180000,245.148,58.067,-27.554,399.991,233.768,-190.366,23.800,7.290,-2.580
5,46813.217000,247.121,58.067,-27.554,403.522,232.119,-187.429,24.800,16.290,-3.580
6,46813.258000,247.121,56.047,-25.550,402.644,232.146,-186.438,29.800,23.290,-3.580
7,46813.298000,247.121,56.047,-25.550,402.636,232.930,-189.391,22.800,23.290,-4.580
8,46813.318000,246.135,55.037,-27.554,403.512,229.430,-190.495,14.800,30.290,-10.580
9,46813.356000,245.148,56.047,-25.550,402.634,229.458,-189.504,5.800,34.290,-14.580
10,46813.397000,244.162,58.067,-24.548,404.396,229.459,-189.498,-7.200,31.290,-11.580
11,46813.437000,244.162,57.057,-24.548,402.636,232.930,-189.391,-4.200,31.290,-10.580
12,46813.476000,245.148,59.077,-20.540,401.771,234.806,-184.368,-3.200,29.290,-4.580
13,46813.515000,245.148,58.067,-19.538,404.407,233.016,-186.404,-8.200,14.290,2.420
14,46813.537000,244.162,56.047,-22.544,400.886,233.041,-185.421,-7.200,8.290,5.420
15,46813.586000,245.148,57.057,-24.548,402.651,233.939,-184.394,-11.200,6.290,3.420
16,46813.616000,245.148,59.077,-22.544,405.283,226.072,-186.626,-8.200,4.290,10.420
17,46813.655000,243.175,58.067,-20.540,406.165,228.677,-186.539,-6.200,1.290,15.420
18,46813.701000,246.135,56.047,-23.546,406.168,227.837,-185.573,-9.200,-4.710,20.420
19,46813.736000,246.135,59.077,-19.538,404.411,231.336,-184.472,-8.200,-14.710,27.420
20,46813.777000,246.135,56.047,-21.542,406.171,227.865,-184.579,-9.200,-24.710,33.420
21,46813.796000,245.148,54.028,-22.544,403.520,232.091,-188.423,-12.200,-32.710,34.420
22,46813.836000,247.121,55.037,-25.550,403.521,226.071,-186.632,-20.200,-32.710,35.420
23,46813.880000,245.148,55.037,-23.546,402.639,232.958,-188.397,-12.200,-25.710,33.420
24,46813.920000,246.135,53.018,-27.554,405.275,226.856,-189.580,-2.200,-17.710,26.420
25,46813.956000,245.148,60.087,-24.548,406.157,224.281,-188.668,-15.200,-6.710,37.420
26,46813.996000,245.148,56.047,-23.546,405.283,226.072,-186.626,16.800,1.290,54.420
27,46814.20000,245.148,58.067,-21.542,406.157,225.149,-188.639,23.800,-13.710,71.420
28,46814.56000,247.121,52.008,-22.544,407.918,224.282,-188.662,5.800,-40.710,89.420
29,46814.98000,245.148,52.008,-22.544,406.152,222.517,-189.718,19.800,-48.710,100.420
30,46814.138000,247.121,48.978,-27.554,408.785,219.830,-192.776,32.800,-59.710,110.420
31,46814.180000,247.121,46.959,-26.552,411.425,216.360,-192.880,64.800,-58.710,108.420
32,46814.218000,245.148,45.949,-25.550,408.765,208.433,-197.117,50.800,-75.710,103.420
33,46814.260000,249.094,45.949,-27.554,412.291,215.352,-197.875,35.800,-91.710,93.420
34,46814.280000,249.094,41.909,-30.560,413.169,214.456,-198.894,30.800,-87.710,81.420
35,46814.318000,245.148,41.909,-29.558,413.160,214.372,-201.876,31.800,-89.710,68.420
36,46814.358000,249.094,42.919,-28.556,413.155,210.871,-202.982,1.800,-95.710,49.420
37,46814.398000,252.054,31.811,-38.575,413.147,203.899,-204.202,77.800,-58.710,19.420
38,46814.438000,256.987,38.880,-39.577,408.741,202.160,-204.272,28.800,-30.710,-9.580
39,46814.482000,256.987,36.860,-40.579,409.629,204.821,-202.197,-56.200,20.290,-46.580
40,46814.497000,260.933,31.811,-41.581,411.396,203.143,-200.260,-26.200,129.290,-93.580
41,46814.541000,254.027,28.781,-48.595,410.520,210.086,-200.037,-225.200,147.290,-80.580
42,46814.577000,231.337,30.801,-51.601,410.543,218.067,-193.820,-296.200,144.290,-43.580
43,46814.617000,225.418,48.978,-44.587,410.558,219.944,-188.794,-476.200,-11.710,35.420
44,46814.657000,219.499,55.037,-23.546,410.575,223.557,-183.712,-401.200,-84.710,-0.580
45,46814.701000,241.202,89.373,64.626,406.164,226.073,-186.624,239.800,207.290,-234.580
46,46814.741000,251.067,40.899,-13.526,406.169,225.261,-184.664,107.800,78.290,-186.580
47,46814.757000,253.040,53.018,-31.562,402.650,228.759,-183.569,-105.200,-15.710,-168.580
48,46814.797000,255.013,55.037,-32.564,401.775,232.258,-182.465,-177.200,-24.710,-197.580
49,46814.836000,250.081,56.047,-28.556,401.783,239.231,-181.246,-212.200,29.290,-222.580
50,46814.878000,252.054,57.057,-23.546,397.391,249.700,-178.934,-221.200,86.290,-265.580
51,46814.925000,247.121,62.107,-21.542,394.774,253.395,-170.879,-145.200,163.290,-315.580
52,46814.957000,246.135,68.166,-19.538,388.617,258.655,-168.742,-212.200,147.290,-296.580
53,46814.980000,236.270,74.225,-1.503,387.745,263.919,-166.588,-58.200,110.290,-257.580
54,46815.21000,233.310,77.254,0.501,381.586,273.462,-166.298,-81.200,-65.710,-172.580
55,46815.57000,241.202,79.274,-16.532,384.241,271.869,-161.376,-63.200,-123.710,-129.580
56,46815.101000,242.189,73.215,-21.542,381.581,271.698,-167.348,-19.200,-102.710,-97.580
57,46815.142000,239.229,80.284,-20.540,379.816,277.688,-170.138,19.800,-53.710,-91.580
58,46815.182000,240.216,76.245,-23.546,376.292,278.554,-170.121,-16.200,-31.710,-71.580
59,46815.217000,240.216,79.274,-20.540,376.293,275.978,-169.212,8.800,5.290,-70.580
60,46815.242000,238.243,79.274,-15.530,377.181,276.903,-167.193,-7.200,-8.710,-50.580
61,46815.277000,237.256,83.314,-16.532,375.417,282.053,-169.018,10.800,-29.710,-25.580
62,46815.317000,237.256,82.304,-15.530,374.534,282.892,-169.986,32.800,-47.710,11.420
63,46815.358000,238.243,80.284,-21.542,373.651,280.288,-170.074,35.800,-69.710,33.420
64,46815.400000,239.229,83.314,-24.548,377.159,278.413,-175.088,41.800,-45.710,48.420
65,46815.440000,240.216,74.225,-22.544,378.047,275.895,-172.188,8.800,-21.710,65.420
66,46815.478000,240.216,74.225,-25.550,378.037,270.630,-174.345,15.800,-6.710,61.420
67,46815.498000,241.202,79.274,-26.552,378.040,274.102,-174.232,6.800,10.290,70.420
68,46815.537000,241.202,74.225,-28.556,378.034,270.602,-175.339,-16.200,47.290,85.420
69,46815.578000,240.216,78.264,-22.544,380.676,268.868,-175.387,23.800,77.290,86.420
70,46815.617000,238.243,77.254,-19.538,381.557,265.425,-174.503,2.800,69.290,102.420
71,46815.660000,239.229,83.314,-16.532,385.096,267.304,-169.465,-18.200,59.290,135.420
72,46815.701000,240.216,76.245,-19.538,385.980,267.333,-168.468,-58.200,53.290,175.420
73,46815.720000,242.189,69.176,-20.540,391.262,266.441,-169.474,-42.200,60.290,200.420
74,46815.762000,244.162,63.116,-18.536,394.798,263.112,-164.605,47.800,91.290,191.420
75,46815.803000,248.108,62.107,-16.532,395.678,257.933,-163.777,45.800,97.290,178.420
76,46815.840000,244.162,69.176,-10.521,395.674,248.413,-163.093,44.800,87.290,188.420
77,46815.880000,244.162,60.087,5.511,397.432,243.206,-163.257,166.800,7.290,245.420
78,46815.920000,254.027,55.037,-6.513,402.708,241.390,-166.278,206.800,-91.710,232.420
79,46815.957000,253.040,57.057,-7.515,404.444,234.250,-173.455,134.800,-180.710,237.420
80,46815.978000,246.135,55.037,-22.544,407.949,230.611,-179.520,184.800,-248.710,244.420
81,46816.18000,247.121,42.919,-29.558,404.410,225.288,-183.676,5.800,-317.710,238.420
82,46816.60000,243.175,-3.535,-84.665,403.501,218.118,-191.855,-13.200,-431.710,300.420
83,46816.102000,253.040,-17.673,-69.636,403.453,203.864,-205.227,246.800,-602.710,340.420
84,46816.155000,252.054,-3.535,-58.614,399.000,194.758,-220.431,472.800,-566.710,345.420
85,46816.190000,237.256,21.712,-37.573,403.381,189.356,-227.543,354.800,-473.710,332.420
86,46816.200000,239.229,29.791,-11.523,399.828,180.449,-235.788,221.800,-58.710,173.420
87,46816.240000,248.108,41.909,-17.534,403.365,179.724,-230.835,211.800,353.290,9.420
88,46816.281000,227.391,72.205,-89.675,406.034,180.847,-221.853,15.800,503.290,-131.580
89,46816.321000,242.189,91.393,-91.679,406.053,190.508,-217.568,-373.200,171.290,-158.580
90,46816.361000,242.189,32.821,-42.583,402.543,187.202,-211.728,-15.200,301.290,-210.580
91,46816.401000,263.892,12.623,-15.530,404.325,194.289,-206.528,108.800,206.290,-157.580
92,46816.441000,244.162,45.949,-26.552,401.691,202.995,-205.261,-263.200,4.290,-167.580
93,46816.461000,249.094,49.988,-39.577,399.926,199.522,-205.379,-222.200,-0.710,-156.580
94,46816.501000,248.108,36.860,-29.558,400.811,204.730,-205.207,-80.200,26.290,-138.580
95,46816.541000,247.121,36.860,-29.558,400.823,212.598,-202.966,-140.200,-48.710,-134.580
96,46816.579000,247.121,48.978,-32.564,395.538,217.774,-203.808,-123.200,-62.710,-133.580
97,46816.620000,249.094,37.870,-35.569,393.779,221.245,-203.701,-80.200,-53.710,-133.580
98,46816.660000,246.135,54.028,-34.568,392.021,223.008,-202.656,-73.200,-58.710,-129.580
99,46816.680000,247.121,46.959,-36.571,392.022,224.744,-202.600,-50.200,-48.710,-115.580
100,46816.718000,247.121,50.998,-36.571,392.896,226.396,-205.522,-80.200,-52.710,-123.580
101,46816.758000,244.162,57.057,-36.571,381.446,229.860,-205.447,-89.200,-53.710,-110.580
102,46816.800000,244.162,56.047,-37.573,382.330,233.332,-205.331,-75.200,-54.710,-95.580
103,46816.841000,241.202,57.057,-38.575,384.097,233.390,-203.338,-47.200,-50.710,-70.580
104,46816.881000,243.175,56.047,-37.573,381.440,229.803,-207.434,-39.200,-53.710,-56.580
105,46816.921000,243.175,59.077,-37.573,382.328,230.728,-205.416,-41.200,-56.710,-46.580
106,46816.942000,243.175,59.077,-39.577,380.564,235.879,-207.240,-22.200,-52.710,-29.580
107,46816.982000,244.162,59.077,-37.573,378.803,236.746,-207.218,-16.200,-53.710,-20.580
108,46817.22000,243.175,57.057,-43.585,377.919,233.273,-207.333,-16.200,-40.710,-17.580
109,46817.62000,243.175,56.047,-43.585,376.152,234.083,-209.299,-16.200,-10.710,-19.580
110,46817.100000,246.135,57.057,-49.597,379.684,236.746,-207.215,-16.200,32.290,-27.580
111,46817.141000,242.189,54.028,-47.593,382.334,242.852,-206.015,-8.200,83.290,-36.580
112,46817.165000,244.162,58.067,-41.581,379.694,242.879,-205.030,-20.200,118.290,-43.580
113,46817.200000,241.202,62.107,-32.564,382.346,243.833,-202.011,-13.200,117.290,-35.580
114,46817.243000,240.216,65.136,-29.558,381.464,239.520,-201.161,-9.200,80.290,-5.580
115,46817.283000,241.202,64.126,-28.556,379.696,237.727,-203.211,10.800,11.290,41.420
116,46817.323000,241.202,61.097,-29.558,384.112,234.399,-198.340,-3.200,-41.710,70.420
117,46817.360000,244.162,57.057,-35.569,382.341,233.445,-201.355,-11.200,-60.710,81.420
118,46817.401000,244.162,56.047,-40.579,384.991,236.107,-199.275,-11.200,-40.710,80.420
119,46817.433000,244.162,54.028,-39.577,385.858,235.099,-204.270,12.800,-13.710,76.420
120,46817.462000,246.135,54.028,-36.571,386.746,233.448,-201.341,19.800,-7.710,73.420
121,46817.503000,245.148,55.037,-36.571,382.332,229.049,-203.484,21.800,-5.710,72.420
122,46817.543000,243.175,54.028,-35.569,384.093,231.626,-204.388,39.800,-9.710,79.420
123,46817.580000,243.175,52.008,-38.575,386.730,231.572,-206.367,47.800,-11.710,82.420
124,46817.620000,245.148,50.998,-36.571,391.130,225.499,-206.550,65.800,-15.710,85.420
125,46817.638000,246.135,48.978,-36.571,390.250,226.366,-206.525,66.800,-27.710,82.420
126,46817.680000,246.135,50.998,-40.579,392.883,223.680,-209.583,44.800,-41.710,74.420
127,46817.723000,244.162,45.949,-40.579,391.124,223.706,-208.594,36.800,-46.710,73.420
128,46817.763000,246.135,48.978,-40.579,388.478,220.232,-208.715,40.800,-46.710,70.420
129,46817.803000,245.148,44.939,-39.577,390.234,220.177,-210.698,43.800,-47.710,68.420
130,46817.850000,244.162,45.949,-41.581,388.470,213.260,-209.935,42.800,-48.710,67.420
131,46817.883000,246.135,44.939,-39.577,391.978,211.386,-214.949,47.800,-56.710,66.420
132,46817.905000,246.135,43.929,-42.583,391.104,215.754,-213.817,53.800,-60.710,67.420
133,46817.940000,246.135,42.919,-43.585,396.373,213.013,-218.854,54.800,-59.710,66.420
134,46817.982000,246.135,41.909,-45.589,391.970,211.302,-217.931,26.800,-64.710,63.420
135,46818.22000,246.135,40.899,-47.593,391.959,208.613,-220.997,4.800,-55.710,56.420
136,46818.62000,246.135,38.880,-48.595,391.092,207.885,-216.059,-0.200,-40.710,49.420
137,46818.102000,248.108,38.880,-47.593,392.837,203.406,-221.163,-0.200,-27.710,39.420
138,46818.122000,246.135,36.860,-48.595,393.717,203.406,-221.161,4.800,-14.710,21.420
139,46818.162000,248.108,36.860,-49.597,391.955,202.537,-221.194,-5.200,3.290,7.420
140,46818.203000,247.121,35.850,-49.597,395.484,205.172,-220.105,2.800,32.290,-9.580
141,46818.243000,245.148,37.870,-49.597,391.970,207.858,-217.050,-10.200,63.290,-30.580
142,46818.282000,248.108,37.870,-47.593,394.605,205.199,-219.114,-23.200,87.290,-41.580
143,46818.322000,247.121,37.870,-49.597,397.260,206.182,-215.101,-21.200,115.290,-57.580
144,46818.362000,246.135,40.899,-44.587,393.753,213.236,-210.912,-37.200,133.290,-72.580
145,46818.380000,247.121,42.919,-39.577,392.876,211.556,-208.983,-23.200,134.290,-72.580
146,46818.422000,245.148,44.939,-37.573,396.395,212.370,-210.931,-22.200,121.290,-70.580
147,46818.462000,244.162,47.968,-33.566,394.648,217.689,-206.792,-3.200,98.290,-61.580
148,46818.502000,245.148,46.959,-31.562,392.885,215.084,-206.882,-15.200,62.290,-46.580
149,46818.542000,243.175,48.978,-31.562,392.020,217.828,-201.831,-8.200,23.290,-22.580
150,46818.582000,246.135,45.949,-32.564,399.062,218.645,-203.768,-5.200,-19.710,1.420
151,46818.622000,244.162,47.968,-35.569,392.899,218.669,-202.794,-11.200,-40.710,8.420
152,46818.641000,243.175,47.968,-38.575,395.525,215.926,-207.840,-3.200,-51.710,15.420
153,46818.701000,247.121,44.939,-38.575,395.537,220.350,-204.717,-5.200,-41.710,17.420
154,46818.722000,245.148,43.929,-40.579,393.762,213.321,-207.930,1.800,-18.710,12.420
155,46818.760000,246.135,42.919,-37.573,393.764,213.349,-206.936,5.800,-6.710,5.420
156,46818.801000,246.135,45.949,-37.573,395.526,216.794,-207.812,-2.200,-7.710,7.420
157,46818.841000,245.148,44.939,-39.577,394.652,215.142,-204.889,11.800,-5.710,13.420
158,46818.861000,246.135,46.959,-35.569,395.525,211.614,-206.987,20.800,-13.710,21.420
159,46818.901000,245.148,46.959,-36.571,392.882,215.924,-207.848,13.800,-39.710,31.420
160,46818.942000,244.162,43.929,-35.569,391.993,211.527,-209.980,19.800,-58.710,39.420
161,46818.985000,245.148,45.949,-39.577,391.105,210.602,-211.999,9.800,-95.710,55.420
162,46819.21000,245.148,42.919,-40.579,395.505,211.417,-213.944,15.800,-105.710,65.420
163,46819.61000,245.148,42.919,-42.583,394.618,210.492,-215.963,15.800,-115.710,67.420
164,46819.101000,247.121,40.899,-43.585,395.480,208.587,-221.980,15.800,-114.710,67.420
165,46819.126000,248.108,38.880,-47.593,396.373,208.701,-218.001,19.800,-94.710,57.420
166,46819.161000,248.108,34.840,-53.605,394.600,206.011,-221.073,8.800,-58.710,38.420
167,46819.206000,247.121,34.840,-53.605,390.199,202.592,-219.212,4.800,7.290,8.420
168,46819.241000,248.108,34.840,-52.603,391.957,198.253,-219.347,-0.200,53.290,-13.580
169,46819.281000,246.135,35.850,-50.599,392.839,202.566,-220.198,4.800,97.290,-32.580
170,46819.322000,247.121,36.860,-48.595,397.252,199.210,-216.320,1.800,131.290,-50.580
171,46819.342000,245.148,38.880,-40.579,397.264,207.946,-214.051,4.800,130.290,-56.580
172,46819.382000,247.121,43.929,-35.569,397.270,212.314,-212.916,0.800,110.290,-49.580
173,46819.422000,243.175,43.929,-34.568,394.636,212.397,-209.943,6.800,64.290,-33.580
174,46819.463000,244.162,47.968,-31.562,395.514,211.501,-210.962,-10.200,7.290,-12.580
175,46819.503000,243.175,47.968,-33.566,394.629,209.737,-212.015,-6.200,-50.710,16.420
176,46819.543000,243.175,44.939,-34.568,395.508,207.133,-212.097,-7.200,-123.710,51.420
177,46819.585000,247.121,42.919,-39.577,396.376,205.285,-216.126,-5.200,-155.710,66.420
178,46819.604000,246.135,38.880,-47.593,396.366,203.465,-219.164,0.800,-158.710,67.420
179,46819.643000,249.094,39.890,-49.597,391.077,206.008,-221.085,9.800,-135.710,59.420
180,46819.682000,247.121,33.830,-53.605,392.839,206.878,-221.051,17.800,-104.710,44.420
181,46819.722000,248.108,20.702,-53.605,391.055,199.763,-227.245,67.800,-91.710,24.420
182,46819.762000,250.081,23.732,-55.609,391.942,204.132,-226.108,204.800,42.290,-67.580
183,46819.805000,259.946,47.968,-42.583,391.049,199.707,-229.233,331.800,236.290,-149.580
184,46819.823000,233.310,49.988,-4.509,393.701,196.350,-225.362,392.800,196.290,-91.580
185,46819.865000,248.108,66.146,16.532,392.799,195.284,-232.350,297.800,-428.710,169.420
186,46819.905000,296.447,0.505,-6.513,387.444,181.669,-253.662,451.800,-957.710,317.420
187,46819.945000,345.773,-40.899,-7.515,375.029,173.087,-280.791,561.800,-1300.710,351.420
188,46819.990000,332.948,-142.895,-74.646,359.100,168.059,-304.837,95.800,-1128.710,505.420
189,46820.25000,243.175,-162.083,-21.542,354.668,154.867,-311.237,509.800,-682.710,523.420
190,46820.65000,192.863,-92.402,38.575,358.158,127.821,-317.068,1121.800,354.290,790.420
191,46820.89000,168.200,-65.136,1.503,371.389,101.289,-304.978,601.800,998.290,843.420
192,46820.123000,216.540,-31.811,-11.523,390.833,89.855,-280.462,28.800,1391.290,750.420
193,46820.165000,267.838,32.821,-15.530,404.103,93.004,-261.450,-700.200,1532.290,466.420
194,46820.205000,239.229,48.978,-122.740,423.588,92.324,-224.669,-768.200,1513.290,368.420
195,46820.245000,220.486,-0.505,-95.687,436.000,104.321,-199.416,-933.200,1220.290,359.420
196,46820.286000,195.823,45.949,-106.708,441.330,98.728,-182.699,-557.200,349.290,300.420
197,46820.306000,135.645,56.047,-274.035,436.015,101.019,-193.565,-813.200,-930.710,373.420
198,46820.353000,264.879,117.649,-142.779,426.284,103.193,-208.420,-996.200,-781.710,-256.580
199,46820.382000,294.474,-14.643,-17.534,421.835,105.343,-224.253,1905.800,-208.710,-730.580
200,46820.432000,329.002,66.146,-14.528,413.892,119.840,-232.745,13.800,-405.710,-410.580
201,46820.462000,324.069,-7.574,-46.591,408.598,127.507,-237.478,-739.200,-441.710,-294.580
202,46820.502000,253.040,-15.653,-73.644,407.710,132.602,-241.287,179.800,-90.710,-115.580
203,46820.542000,255.013,-15.653,-61.620,406.830,134.337,-241.234,-77.200,1.290,0.420
204,46820.567000,245.148,-40.899,-53.605,406.830,130.893,-240.352,72.800,70.290,-54.580
205,46820.603000,241.202,3.535,-59.616,405.945,133.440,-242.259,215.800,136.290,-19.580
206,46820.647000,279.676,6.564,-52.603,407.713,125.742,-238.531,53.800,146.290,114.420
207,46820.685000,301.380,-25.751,-44.587,413.008,118.943,-233.769,198.800,254.290,207.420
208,46820.724000,313.218,10.604,-45.589,418.312,113.096,-225.998,10.800,504.290,390.420
209,46820.766000,302.366,30.801,-39.577,425.415,107.617,-205.301,28.800,759.290,486.420
210,46820.806000,235.283,116.639,-32.564,436.904,103.679,-191.490,306.800,837.290,562.420
211,46820.825000,184.971,210.556,-147.789,443.964,90.890,-183.938,435.800,270.290,263.420
212,46820.866000,152.416,182.280,-305.096,444.808,75.013,-193.387,592.800,-571.710,235.420
213,46820.907000,303.353,88.363,-282.051,433.250,65.339,-228.493,883.800,-1635.710,169.420
214,46820.946000,214.566,96.442,-108.712,417.309,66.218,-258.305,-1350.200,-2354.710,-270.580
215,46820.987000,166.227,27.771,-62.622,385.542,109.618,-286.789,-2682.200,-2242.710,-1026.580
216,46821.28000,225.418,-151.984,4.509,360.001,176.013,-299.611,-3114.200,-1365.710,-1675.580
217,46821.46000,225.418,-170.162,-23.546,351.249,219.660,-289.286,-1100.200,171.290,-1591.580
218,46821.85000,288.555,-172.181,-28.556,349.548,245.253,-273.566,-451.200,723.290,-1213.580
219,46821.125000,320.123,-240.852,-48.595,352.235,255.169,-260.326,-255.200,846.290,-556.580
220,46821.166000,351.692,-321.641,-90.677,360.181,251.032,-253.484,418.800,667.290,-85.580
221,46821.206000,290.528,216.615,-43.585,361.947,245.910,-250.666,144.800,251.290,-150.580
222,46821.251000,257.973,-31.811,-63.624,365.484,245.185,-245.713,-93.200,54.290,193.420
223,46821.287000,252.054,-30.801,-51.601,373.406,246.843,-248.613,202.800,117.290,227.420
224,46821.307000,321.110,35.850,-89.675,376.959,248.863,-238.606,-940.200,-52.710,294.420
225,46821.343000,220.486,61.097,-100.697,383.156,250.885,-228.591,-407.200,273.290,304.420
226,46821.390000,257.973,44.939,-62.622,390.220,246.747,-221.751,103.800,379.290,230.420
227,46821.428000,230.351,71.195,-54.607,392.865,238.154,-219.043,-1.200,311.290,266.420
228,46821.466000,232.324,58.067,-47.593,399.028,232.950,-219.192,159.800,194.290,348.420
229,46821.506000,230.351,50.998,-42.583,405.194,224.331,-217.466,77.800,38.290,430.420
230,46821.526000,237.256,39.890,-64.626,415.762,212.243,-215.838,-2.200,-52.710,522.420
231,46821.567000,216.540,43.929,-59.616,420.151,198.302,-218.263,157.800,-10.710,630.420
232,46821.602000,215.553,24.742,-50.599,425.424,188.702,-220.543,163.800,-77.710,735.420
233,46821.643000,237.256,2.525,-50.599,435.087,171.208,-226.045,140.800,-222.710,820.420
234,46821.683000,294.474,7.574,-55.609,435.056,151.943,-232.628,-35.200,-401.710,797.420
235,46821.726000,256.000,-22.722,-82.661,434.130,132.536,-244.184,3.800,-471.710,714.420
236,46821.766000,246.135,-50.998,-122.740,440.297,125.653,-242.401,-73.200,-173.710,521.420
237,46821.787000,282.636,-44.939,-95.687,441.169,117.814,-243.646,142.800,150.290,190.420
238,46821.830000,250.081,-35.850,-57.613,444.713,121.457,-237.558,12.800,213.290,59.420
239,46821.865000,234.297,-41.909,-69.636,448.250,124.177,-233.487,-43.200,196.290,-66.580
240,46821.907000,215.553,-30.801,-57.613,450.025,126.895,-229.421,134.800,133.290,-201.580
241,46821.947000,216.540,-23.732,-48.595,442.100,132.097,-229.277,180.800,70.290,-282.580
242,46821.993000,223.445,-10.604,-41.581,443.862,136.410,-230.125,79.800,-90.710,-301.580
243,46822.7000,256.987,-28.781,-60.618,436.791,138.755,-239.008,-104.200,-322.710,-326.580
244,46822.47000,256.987,-25.751,-75.648,426.209,147.258,-244.724,-248.200,-436.710,-376.580
245,46822.88000,229.364,-12.623,-102.701,425.322,161.845,-250.212,-194.200,-321.710,-587.580
246,46822.127000,252.054,14.643,-102.701,413.874,175.668,-251.786,-200.200,-124.710,-593.580
247,46822.168000,253.040,33.830,-101.699,411.250,185.327,-247.509,-213.200,65.290,-507.580
248,46822.208000,245.148,29.791,-101.699,407.743,193.249,-243.291,-18.200,341.290,-474.580
249,46822.243000,240.216,12.623,-95.687,407.769,201.258,-236.080,89.800,523.290,-467.580
250,46822.270000,240.216,31.811,-75.648,404.277,214.501,-227.718,227.800,607.290,-450.580
251,46822.307000,237.256,35.850,-65.628,406.063,216.463,-219.704,203.800,556.290,-343.580
252,46822.347000,242.189,16.663,-39.577,410.494,217.588,-210.717,337.800,408.290,-324.580
253,46822.387000,238.243,43.929,-35.569,406.097,227.133,-210.421,409.800,269.290,-342.580
254,46822.427000,236.270,52.008,-44.587,404.336,232.312,-211.252,377.800,124.290,-293.580
255,46822.467000,240.216,44.939,-38.575,401.673,227.801,-217.365,478.800,33.290,-219.580
256,46822.486000,233.310,80.284,-33.566,393.728,225.050,-222.444,467.800,-154.710,-88.580
257,46822.526000,210.620,89.373,-2.505,392.785,217.542,-242.551,502.800,-562.710,131.420
258,46822.566000,269.811,58.067,4.509,388.341,202.501,-252.983,385.800,-1082.710,298.420
259,46822.606000,363.530,46.959,-79.656,377.685,195.629,-281.044,294.800,-1338.710,333.420
260,46822.646000,331.961,-17.673,-115.726,366.171,192.425,-302.037,187.800,-1073.710,298.420
261,46822.683000,258.960,-47.968,-110.716,357.324,186.872,-314.162,256.800,-700.710,164.420
262,46822.726000,227.391,-72.205,-82.661,350.255,185.802,-321.170,220.800,-251.710,44.420
263,46822.746000,248.108,-138.856,-78.654,352.902,175.501,-317.524,1319.800,435.290,36.420
264,46822.791000,245.148,-146.935,-54.607,361.681,145.911,-321.435,1941.800,790.290,145.420
265,46822.826000,246.135,-136.836,-38.575,376.651,107.087,-314.703,2075.800,1035.290,352.420
266,46822.866000,253.040,-71.195,10.521,386.364,98.696,-305.014,1023.800,1144.290,621.420
267,46822.906000,251.067,-40.899,-0.501,404.923,82.921,-280.642,339.800,1367.290,609.420
268,46822.946000,268.825,-78.264,-69.636,423.495,74.176,-253.062,432.800,1715.290,490.420
269,46822.967000,242.189,47.968,-71.640,442.089,56.164,-215.854,725.800,1817.290,406.420
270,46823.6000,187.931,113.609,-100.697,449.194,61.044,-196.806,-426.200,1411.290,212.420
271,46823.48000,161.295,99.471,-229.949,454.535,63.319,-177.848,-1675.200,487.290,531.420
272,46823.87000,156.362,77.254,-218.928,443.921,74.956,-195.378,-3248.200,-1529.710,408.420
273,46823.130000,247.121,-11.613,-105.706,433.290,89.000,-219.781,-674.200,-1139.710,-88.580
274,46823.166000,289.541,97.452,-52.603,422.652,87.477,-242.704,1020.800,-861.710,-373.580
275,46823.206000,305.326,-79.274,-44.587,414.698,94.973,-253.409,-462.200,-938.710,-292.580
276,46823.226000,289.541,-75.235,-68.634,401.451,103.249,-267.084,-632.200,-685.710,-166.580
277,46823.268000,292.501,2.525,-111.718,397.024,104.756,-274.994,280.800,-301.710,-398.580
278,46823.308000,258.960,1.515,-76.650,393.492,104.669,-277.987,385.800,57.290,-263.580
279,46823.349000,296.447,-1.515,-65.628,393.510,113.462,-273.729,-135.200,79.290,-151.580
280,46823.390000,270.798,-19.692,-71.640,397.033,112.597,-273.746,-56.200,162.290,-1.580
281,46823.425000,272.771,-29.791,-75.648,401.449,109.269,-268.875,66.800,298.290,66.420
282,46823.446000,258.960,-4.544,-63.624,406.757,112.074,-261.816,175.800,403.290,128.420
283,46823.486000,295.461,-12.623,-54.607,409.427,107.177,-251.044,200.800,582.290,246.420
284,46823.526000,303.353,-0.505,-43.585,420.024,103.127,-241.211,60.800,704.290,343.420
285,46823.567000,271.784,-0.505,-44.587,426.240,89.835,-220.770,76.800,859.290,357.420
286,46823.607000,230.351,59.077,-46.591,439.508,82.624,-200.108,487.800,1021.290,278.420
287,46823.647000,196.809,88.363,-69.636,449.251,72.807,-179.543,324.800,876.290,221.420
288,46823.687000,142.551,120.679,-184.861,457.192,71.217,-174.604,311.800,214.290,118.420
289,46823.707000,179.052,44.939,-211.914,455.409,69.283,-181.624,677.800,-424.710,121.420
290,46823.748000,266.852,109.570,-104.704,443.890,63.447,-203.696,879.800,-1243.710,-259.580
291,46823.790000,247.121,131.787,-97.691,425.289,75.355,-242.095,-821.200,-1938.710,-540.580
292,46823.827000,283.622,52.008,-91.679,412.917,99.954,-261.197,-2551.200,-2003.710,-683.580
293,46823.868000,263.892,-19.692,-49.597,390.862,145.294,-282.635,-2588.200,-1564.710,-1133.580
294,46823.909000,266.852,-140.876,-41.581,372.400,193.049,-280.151,-2224.200,-837.710,-1307.580
295,46823.950000,258.960,-164.103,-26.552,364.522,229.725,-271.043,-773.200,180.290,-1267.580
296,46823.969000,275.730,-232.773,-53.605,364.568,246.555,-258.581,-595.200,524.290,-940.580
297,46824.6000,329.002,-281.247,-50.599,368.127,259.831,-249.201,-471.200,513.290,-468.580
298,46824.46000,248.108,20.702,-68.634,370.743,254.399,-257.313,629.800,21.290,-193.580
299,46824.86000,261.919,53.018,-100.697,369.874,254.511,-253.340,-55.200,-161.710,40.420
300,46824.125000,234.297,31.811,-100.697,371.612,245.664,-259.580,270.800,5.290,113.420
301,46824.166000,299.407,20.702,-104.704,374.260,241.410,-256.730,-180.200,206.290,155.420
302,46824.186000,246.135,67.156,-95.687,381.333,245.112,-248.644,-78.200,380.290,129.420
303,46824.228000,256.987,50.998,-88.673,387.531,241.115,-236.838,-294.200,416.290,131.420
304,46824.270000,231.337,54.028,-73.644,395.479,240.450,-229.883,107.800,513.290,97.420
305,46824.309000,220.486,55.037,-60.618,399.902,243.226,-223.821,108.800,455.290,112.420
306,46824.349000,222.459,55.037,-50.599,406.076,233.823,-219.141,77.800,390.290,174.420
307,46824.390000,224.432,52.008,-44.587,408.739,237.466,-213.056,-158.200,164.290,272.420
308,46824.426000,236.270,37.870,-40.579,413.146,229.742,-210.314,-151.200,15.290,353.420
309,46824.446000,260.933,42.919,-53.605,417.535,219.245,-213.619,-27.200,-57.710,434.420
310,46824.487000,239.229,46.959,-73.644,423.696,211.437,-213.853,61.800,53.290,464.420
311,46824.529000,226.405,37.870,-66.630,430.748,202.875,-210.136,57.800,138.290,536.420
312,46824.569000,217.526,56.047,-71.640,436.929,190.953,-202.559,-134.200,146.290,586.420
313,46824.610000,327.029,-41.909,-56.611,447.505,182.393,-198.831,-181.200,256.290,661.420
314,46824.649000,283.622,-15.653,-44.587,453.671,166.887,-195.343,186.800,333.290,566.420
315,46824.670000,296.447,1.515,-19.538,458.089,154.095,-187.800,177.800,237.290,459.420
316,46824.709000,311.245,-34.840,-29.558,463.372,142.871,-186.161,206.800,254.290,373.420
317,46824.751000,239.229,-24.742,-25.550,467.801,143.968,-178.167,135.800,323.290,284.420
318,46824.790000,203.715,3.535,-35.569,472.221,142.404,-172.246,-196.200,188.290,263.420
319,46824.831000,196.809,-5.554,-43.585,476.647,140.029,-164.365,-358.200,53.290,251.420
320,46824.872000,195.823,-26.761,-54.607,477.522,136.529,-165.469,-213.200,-60.710,199.420
321,46824.908000,203.715,-37.870,-52.603,477.510,132.105,-168.591,-2.200,-134.710,162.420
322,46824.928000,220.486,-20.702,-50.599,472.214,125.100,-170.822,-64.200,-234.710,116.420
323,46824.968000,233.310,-20.702,-47.593,475.714,124.010,-178.790,-32.200,-348.710,7.420
324,46825.10000,236.270,-17.673,-49.597,471.286,122.913,-186.783,-98.200,-412.710,-75.580
325,46825.49000,255.013,-62.107,-53.605,465.987,131.392,-193.476,-120.200,-421.710,-162.580
326,46825.89000,245.148,-49.988,-53.605,463.330,134.693,-199.335,412.800,-248.710,-364.580
327,46825.131000,246.135,-15.653,-49.597,456.253,144.738,-211.941,265.800,-291.710,-632.580
328,46825.151000,270.798,-25.751,-58.614,448.309,154.923,-219.580,158.800,-232.710,-585.580
329,46825.191000,260.933,36.860,-70.638,440.378,163.512,-222.306,180.800,-172.710,-568.580
330,46825.227000,259.946,-1.515,-71.640,430.685,178.121,-226.828,-2.200,-166.710,-604.580
331,46825.268000,255.013,6.564,-74.646,431.556,180.612,-230.716,123.800,-22.710,-617.580
332,46825.310000,257.973,32.821,-69.636,424.510,190.099,-232.417,160.800,71.290,-531.580
333,46825.351000,261.919,32.821,-73.644,421.884,205.777,-229.930,177.800,129.290,-438.580
334,46825.387000,256.000,28.781,-62.622,418.365,208.407,-228.863,325.800,198.290,-352.580
335,46825.407000,248.108,23.732,-53.605,413.072,202.299,-230.071,408.800,220.290,-262.580
336,46825.447000,249.094,37.870,-48.595,413.958,209.244,-229.843,238.800,105.290,-158.580
337,46825.492000,244.162,23.732,-39.577,412.186,206.554,-232.915,182.800,-3.710,-91.580
338,46825.527000,212.593,29.791,-51.601,410.431,208.345,-230.877,-128.200,-231.710,-51.580
339,46825.567000,192.863,39.890,-49.597,406.017,214.277,-235.663,-76.200,-379.710,26.420
340,46825.610000,201.742,99.471,-49.597,403.346,214.861,-245.583,-212.200,-622.710,79.420
341,46825.630000,212.593,145.925,-70.638,392.735,214.459,-259.532,-553.200,-1051.710,305.420
342,46825.670000,299.407,24.742,-104.704,383.881,212.294,-274.525,101.800,-891.710,168.420
343,46825.708000,284.609,-32.821,-172.838,380.329,204.254,-282.741,-35.200,-620.710,259.420
344,46825.748000,210.620,6.564,-81.659,379.441,205.905,-285.670,-382.200,-181.710,105.420
345,46825.790000,216.540,-62.107,-82.661,376.835,217.469,-275.373,-979.200,144.290,-39.580
346,46825.829000,191.877,-54.028,-121.738,378.631,226.432,-265.146,-182.200,419.290,-210.580
347,46825.869000,182.998,-9.594,-177.847,382.157,225.595,-264.169,751.800,427.290,-334.580
348,46825.890000,244.162,-8.584,-97.691,377.754,227.327,-264.127,427.800,-27.710,-136.580
349,46825.928000,303.353,-91.393,-58.614,372.413,213.853,-280.469,536.800,-290.710,-109.580
350,46825.968000,293.487,-94.422,-50.599,368.834,196.936,-295.925,1956.800,-43.710,172.420
351,46826.7000,291.514,-91.393,-45.589,369.652,156.670,-309.144,1803.800,49.290,366.420
352,46826.48000,279.676,-103.511,-8.517,370.500,139.114,-316.662,1431.800,235.290,643.420
353,46826.88000,244.162,-87.353,-5.511,376.652,107.955,-314.675,984.800,528.290,730.420
354,46826.109000,225.418,-100.481,-51.601,388.125,86.630,-302.421,980.800,951.290,594.420
355,46826.150000,249.094,26.761,-9.519,400.508,69.898,-281.079,1245.800,1413.290,490.420
356,46826.190000,243.175,15.653,-34.568,420.846,65.494,-253.353,181.800,1609.290,278.420
357,46826.231000,224.432,44.939,-150.795,434.998,66.067,-233.429,-171.200,1548.290,198.420
358,46826.271000,106.050,199.448,-347.178,436.810,76.039,-218.205,-1856.200,349.290,352.420
359,46826.309000,201.742,189.349,-213.918,420.923,108.476,-236.070,-4327.200,-1409.710,168.420
360,46826.350000,202.728,57.057,-94.685,409.414,108.773,-255.957,1295.800,-586.710,-781.580
361,46826.384000,333.935,-37.870,-28.556,401.452,105.853,-267.000,1356.800,-484.710,-670.580
362,46826.408000,324.069,-84.323,-42.583,392.618,117.661,-278.561,-738.200,-626.710,-322.580
363,46826.452000,289.541,57.057,-82.661,384.675,128.713,-286.172,-309.200,-468.710,-399.580
364,46826.492000,281.649,31.811,-80.658,375.841,133.633,-295.970,-96.200,-431.710,-98.580
365,46826.531000,230.351,-47.968,-122.740,372.314,137.914,-297.829,-373.200,-323.710,-33.580
366,46826.570000,200.755,-24.742,-120.736,372.320,137.971,-295.841,-110.200,-55.710,-165.580
367,46826.609000,216.540,16.663,-100.697,370.554,140.517,-297.750,-69.200,120.290,-107.580
368,46826.629000,227.391,3.535,-92.681,372.334,141.555,-291.753,-95.200,108.290,-7.580
369,46826.669000,241.202,-3.535,-82.661,373.232,149.481,-287.520,38.800,136.290,26.420
370,46826.713000,246.135,-7.574,-88.673,376.753,146.011,-287.622,-20.200,127.290,121.420
371,46826.748000,251.067,0.505,-87.671,381.153,143.382,-288.686,99.800,167.290,164.420
372,46826.792000,259.946,-0.505,-85.667,383.802,135.685,-284.955,141.800,228.290,243.420
373,46826.832000,267.838,-8.584,-84.665,389.099,123.734,-278.375,153.800,339.290,341.420
374,46826.852000,277.703,-4.544,-84.665,394.403,115.311,-269.695,122.800,475.290,387.420
375,46826.888000,272.771,12.623,-83.663,403.243,110.448,-257.908,79.800,641.290,437.420
376,46826.928000,268.825,28.781,-60.618,419.143,106.570,-242.095,164.800,877.290,413.420
377,46826.973000,229.364,9.594,-44.587,427.992,95.771,-225.536,405.800,870.290,300.420
378,46827.9000,199.769,35.850,-68.634,436.827,91.719,-215.710,1017.800,759.290,176.420
379,46827.49000,147.484,141.886,-167.828,440.352,74.503,-211.292,1116.800,-62.710,94.420
380,46827.89000,241.202,66.146,-200.892,434.135,67.972,-227.412,1033.800,-674.710,-171.580
381,46827.113000,223.445,156.024,-102.701,422.612,62.947,-251.444,320.800,-1299.710,-231.580
382,46827.151000,281.649,73.215,-104.704,405.649,80.641,-24.522,-2264.200,-1835.710,-475.580
383,46827.192000,269.811,4.544,-74.646,389.935,116.396,-292.512,-2572.200,-1646.710,-880.580
384,46827.229000,239.229,-50.998,-47.593,369.707,171.009,-292.791,-2597.200,-1107.710,-1129.580
385,46827.272000,210.620,-130.777,-19.538,364.488,222.499,-281.207,-1774.200,-19.710,-1070.580
386,46827.312000,257.973,-195.408,-54.607,368.112,251.066,-252.465,-1580.200,539.290,-891.580
387,46827.333000,299.407,-288.316,-148.791,369.922,266.190,-239.059,-725.200,785.290,-721.580
388,46827.368000,232.324,-259.030,-250.990,371.684,267.059,-239.026,1499.800,343.290,-238.580
389,46827.410000,279.676,107.550,-36.571,371.666,265.154,-245.045,338.800,273.290,-156.580
390,46827.454000,277.703,31.811,-86.669,378.723,251.468,-238.516,-371.200,96.290,69.420
391,46827.491000,284.609,44.939,-81.659,380.486,260.961,-240.188,130.800,214.290,138.420
392,46827.533000,274.744,48.978,-95.687,384.040,262.981,-230.181,-333.200,219.290,114.420
393,46827.573000,241.202,65.136,-78.654,391.986,259.712,-223.311,14.800,372.290,92.420
394,46827.590000,242.189,53.018,-73.644,393.761,258.986,-218.364,78.800,400.290,88.420
395,46827.633000,218.513,46.959,-53.605,394.650,253.892,-214.554,61.800,311.290,112.420
396,46827.671000,230.351,69.176,-49.597,399.064,250.536,-210.677,-61.200,131.290,148.420
397,46827.711000,233.310,59.077,-48.595,406.996,247.994,-208.748,-87.200,42.290,191.420
398,46827.751000,246.135,40.899,-61.620,406.119,245.445,-206.848,-182.200,-38.710,248.420
399,46827.793000,246.135,41.909,-57.613,408.750,237.579,-209.081,-77.200,-44.710,290.420
400,46827.813000,246.135,57.057,-70.638,412.290,240.326,-204.015,-72.200,-24.710,365.420
401,46827.853000,241.202,39.890,-67.632,418.461,235.207,-201.183,-30.200,29.290,416.420
402,46827.893000,230.351,30.801,-63.624,423.739,224.795,-201.504,-87.200,47.290,487.420
403,46827.933000,237.256,37.870,-77.652,431.666,207.554,-198.066,-86.200,82.290,517.420
404,46827.969000,238.243,43.929,-75.648,437.843,202.491,-193.245,6.800,248.290,512.420
405,46828.9000,219.499,16.663,-63.624,443.134,189.616,-188.681,-165.200,169.290,631.420
406,46828.50000,298.420,-15.653,-39.577,453.704,176.688,-186.088,255.800,193.290,603.420
407,46828.69000,292.501,-13.633,-62.622,458.115,166.416,-181.442,246.800,270.290,472.420
408,46828.113000,274.744,-24.742,-32.564,465.169,163.034,-178.550,349.800,419.290,339.420
409,46828.152000,255.013,-15.653,-29.558,469.599,154.667,-167.885,32.800,334.290,318.420
410,46828.193000,244.162,-17.673,-31.562,474.017,150.499,-162.048,-29.200,269.290,272.420
411,46828.233000,219.499,-17.673,-37.573,474.910,148.037,-157.160,-70.200,159.290,190.420
412,46828.273000,217.526,-34.840,-40.579,475.800,140.366,-152.441,-65.200,90.290,153.420
413,46828.293000,213.580,-18.682,-45.589,479.325,142.105,-152.373,-19.200,33.290,110.420
414,46828.333000,217.526,-17.673,-48.595,481.078,141.153,-155.377,-49.200,-87.710,8.420
415,46828.373000,215.553,-26.761,-45.589,477.543,141.906,-159.336,23.800,-184.710,-73.580
416,46828.413000,229.364,-22.722,-34.568,475.771,143.528,-163.261,80.800,-237.710,-134.580
417,46828.451000,236.270,-17.673,-42.583,469.581,146.742,-172.114,-62.200,-346.710,-237.580
418,46828.493000,238.243,-27.771,-47.593,466.917,148.251,-180.017,-18.200,-332.710,-359.580
419,46828.534000,286.582,-79.274,-28.556,458.967,153.200,-188.819,268.800,-204.710,-557.580
420,46828.555000,272.771,-29.791,-33.566,455.438,165.208,-193.406,179.800,-149.710,-513.580
421,46828.595000,263.892,26.761,-62.622,450.164,181.696,-192.887,-627.200,-322.710,-560.580
422,46828.629000,256.987,-0.505,-78.654,443.996,198.043,-197.342,-73.200,-13.710,-647.580
423,46828.672000,261.919,40.899,-67.632,435.204,211.141,-193.966,-221.200,74.290,-609.580
424,46828.712000,260.933,44.939,-68.634,433.460,224.244,-190.567,-89.200,177.290,-511.580
425,46828.752000,245.148,28.781,-59.616,422.915,224.490,-181.656,240.800,353.290,-391.580
426,46828.792000,236.270,35.850,-56.611,422.914,227.066,-182.566,323.800,415.290,-355.580
427,46828.812000,248.108,44.939,-36.571,423.811,233.255,-178.390,323.800,357.290,-289.580
428,46828.853000,248.108,20.702,-28.556,424.696,235.020,-177.337,424.800,253.290,-264.580
429,46828.894000,239.229,45.949,-30.560,418.528,237.591,-178.266,257.800,106.290,-306.580
430,46828.947000,235.283,42.919,-26.552,415.878,246.997,-182.934,177.800,22.290,-269.580
431,46828.979000,234.297,35.850,-20.540,412.353,248.702,-183.883,272.800,-174.710,-182.580
432,46829.14000,238.243,75.235,-14.528,405.266,249.170,-197.793,544.800,-347.710,-56.580
433,46829.35000,243.175,96.442,-24.548,404.337,238.359,-212.048,814.800,-461.710,163.420
434,46829.71000,302.366,53.018,2.505,407.790,218.703,-232.535,857.800,-832.710,328.420
435,46829.111000,299.407,41.909,-70.638,398.920,209.481,-251.730,52.800,-1123.710,407.420
436,46829.151000,298.420,34.840,-94.685,389.192,212.552,-265.563,-598.200,-930.710,347.420
437,46829.191000,212.593,-9.594,-71.640,383.900,215.067,-268.477,102.800,-267.710,40.420
438,46829.238000,219.499,24.742,-150.795,375.964,208.957,-269.694,-144.200,-249.710,-134.580
439,46829.273000,245.148,-115.629,-87.671,371.543,213.097,-276.525,294.800,-274.710,-102.580
440,46829.293000,264.879,-99.471,-118.732,363.562,207.404,-293.616,1464.800,-149.710,-190.580
441,46829.331000,281.649,-160.063,-31.562,363.500,177.498,-308.488,1871.800,-86.710,193.420
442,46829.371000,265.865,-125.728,16.532,366.963,132.951,-319.853,2159.800,321.290,531.420
443,46829.417000,228.378,-84.323,17.534,377.544,115.824,-312.431,923.800,896.290,972.420
444,46829.452000,221.472,-29.791,-26.552,390.801,100.745,-294.011,289.800,1243.290,804.420
445,46829.492000,238.243,-7.574,-90.677,412.010,83.321,-266.704,348.800,1628.290,544.420
446,46829.512000,251.067,2.525,-135.765,430.595,76.424,-235.093,759.800,1736.290,332.420
447,46829.552000,212.593,125.728,-120.736,442.092,70.835,-218.356,-97.200,1233.290,344.420
448,46829.592000,106.050,228.734,-305.096,440.344,78.730,-215.127,-2659.200,-250.710,479.420
449,46829.633000,239.229,-0.505,-183.859,428.004,107.952,-224.148,-2975.200,-1001.710,-70.580
450,46829.672000,219.499,-8.584,-89.675,422.676,111.837,-239.927,1669.800,-253.710,-784.580
451,46829.713000,300.393,27.771,-29.558,412.941,108.803,-254.951,915.800,-174.710,-644.580
452,46829.753000,271.784,-4.544,-30.560,411.178,118.266,-257.629,-507.200,-403.710,-425.580
453,46829.773000,278.690,48.978,-51.601,406.769,128.566,-261.281,63.800,-277.710,-487.580
454,46829.813000,279.676,20.702,-51.601,396.178,136.116,-270.007,-79.200,-323.710,-272.580
455,46829.854000,247.121,20.702,-62.622,390.890,140.396,-271.871,-229.200,-346.710,-176.580
456,46829.894000,256.987,-5.554,-89.675,385.586,138.487,-277.908,-280.200,-372.710,-96.580
457,46829.934000,238.243,-28.781,-85.667,381.168,140.079,-282.835,126.800,-123.710,-88.580
458,46829.974000,239.229,10.604,-84.665,383.810,139.213,-282.855,18.800,-62.710,-73.580
459,46829.994000,251.067,9.594,-74.646,382.920,138.260,-285.868,71.800,5.290,-7.580
460,46830.36000,248.108,7.574,-73.644,385.571,146.102,-284.612,-67.200,-9.710,108.420
461,46830.76000,256.000,1.515,-83.663,389.105,143.613,-280.709,-73.200,9.290,199.420
462,46830.112000,257.973,-2.525,-70.638,387.329,140.028,-284.803,10.800,111.290,252.420
463,46830.153000,263.892,-3.535,-75.648,392.641,133.397,-274.078,47.800,220.290,322.420
464,46830.193000,280.663,-0.505,-65.628,396.156,121.248,-274.461,122.800,327.290,385.420
465,46830.236000,299.407,2.525,-55.609,404.105,111.987,-264.806,151.800,450.290,504.420
466,46830.256000,275.730,23.732,-48.595,414.700,101.021,-254.205,-14.200,562.290,646.420
467,46830.291000,229.364,66.146,-56.611,425.308,93.639,-239.516,46.800,596.290,664.420
468,46830.334000,204.701,113.609,-80.658,434.139,80.935,-228.977,140.800,505.290,650.420
469,46830.373000,134.659,171.172,-220.932,435.012,69.652,-229.340,-293.200,-252.710,647.420
470,46830.412000,241.202,36.860,-196.885,427.930,69.309,-241.290,-223.200,-912.710,29.420
471,46830.452000,237.256,119.669,-101.699,415.537,72.152,-263.083,21.800,-1275.710,-326.580
472,46830.472000,202.728,82.304,-117.730,393.466,104.416,-286.932,-2212.200,-1672.710,-878.580
473,46830.512000,256.000,-36.860,-68.634,382.030,148.506,-291.496,-3038.200,-1366.710,-1260.580
474,46830.556000,249.094,-213.586,-50.599,367.113,202.509,-282.840,-2193.200,-473.710,-1382.580
475,46830.597000,209.634,-161.073,-77.652,365.399,228.829,-272.062,-334.200,550.290,-1282.580
476,46830.643000,251.067,-131.787,-106.708,364.570,250.027,-258.468,-406.200,619.290,-895.580
477,46830.672000,195.823,-162.083,-220.932,369.002,255.463,-250.333,222.800,472.290,-283.580
478,46830.714000,277.703,-8.584,-80.658,371.635,250.201,-252.482,203.800,245.290,-108.580
479,46830.733000,284.609,116.639,-69.636,373.396,248.466,-252.532,-258.200,86.290,-41.580
480,46830.778000,267.838,25.751,-101.699,377.824,253.874,-245.392,-240.200,181.290,83.420
481,46830.814000,277.703,14.643,-88.673,382.235,246.178,-241.655,80.800,416.290,118.420
482,46830.854000,259.946,47.968,-73.644,385.784,254.190,-234.433,-452.200,324.290,129.420
483,46830.893000,231.337,62.107,-72.642,391.974,254.420,-226.462,21.800,334.290,137.420
484,46830.934000,228.378,53.018,-76.650,393.744,251.062,-222.593,-101.200,259.290,170.420
485,46830.954000,219.499,43.929,-69.636,399.927,249.499,-216.666,96.800,244.290,165.420
486,46830.994000,224.432,60.087,-57.613,405.210,241.719,-215.909,-15.200,104.290,256.420
487,46831.34000,233.310,36.860,-59.616,406.981,240.097,-211.984,-175.200,-26.710,338.420
488,46831.74000,245.148,42.919,-61.620,414.018,228.790,-213.321,-166.200,-88.710,406.420
489,46831.113000,231.337,46.959,-77.652,420.175,223.530,-215.458,-73.200,-116.710,520.420
490,46831.153000,238.243,52.008,-87.671,421.056,215.775,-213.721,-114.200,-20.710,534.420
491,46831.193000,254.027,12.623,-81.659,428.985,208.894,-211.933,-176.200,105.290,564.420
492,46831.213000,263.892,-17.673,-60.618,435.145,191.594,-210.488,207.800,90.290,593.420
493,46831.253000,255.013,5.554,-70.638,441.304,178.607,-209.897,345.800,88.290,494.420
494,46831.298000,248.108,-16.663,-80.658,448.350,168.253,-208.224,215.800,176.290,392.420
495,46831.333000,238.243,-12.623,-73.644,452.762,162.292,-204.432,140.800,253.290,240.420
496,46831.373000,245.148,-28.781,-63.624,457.173,159.776,-201.520,48.800,266.290,153.420
497,46831.413000,233.310,-20.702,-52.603,457.192,158.237,-194.619,96.800,227.290,68.420
498,46831.438000,229.364,-3.535,-50.599,459.835,158.239,-194.611,-47.200,82.290,-6.580
499,46831.474000,231.337,-14.643,-40.579,459.834,153.059,-193.786,20.800,-40.710,-62.580
500,46831.529000,231.337,-9.594,-40.579,458.070,162.522,-196.463,-4.200,-178.710,-109.580
501,46831.557000,253.040,-26.761,-55.609,449.246,161.506,-201.489,-164.200,-342.710,-168.580
502,46831.597000,245.148,-23.732,-60.618,445.708,162.231,-206.442,-37.200,-333.710,-272.580
503,46831.637000,251.067,-1.515,-80.658,443.051,177.600,-214.889,-120.200,-308.710,-381.580
504,46831.677000,233.310,-12.623,-88.673,436.000,187.898,-218.549,-19.200,-133.710,-489.580
505,46831.697000,249.094,32.821,-86.669,429.848,199.234,-216.215,-124.200,-50.710,-555.580
506,46831.736000,254.027,16.663,-82.661,421.924,213.059,-217.778,-145.200,33.290,-529.580
507,46831.777000,246.135,10.604,-80.658,418.403,213.953,-216.767,47.800,138.290,-506.580
508,46831.812000,249.094,40.899,-88.673,413.132,222.714,-213.521,189.800,252.290,-488.580
509,46831.853000,235.283,31.811,-77.652,412.260,227.109,-211.395,216.800,353.290,-391.580
510,46831.893000,247.121,42.919,-61.620,412.283,234.222,-205.206,176.800,360.290,-320.580
511,46831.934000,254.027,40.899,-56.611,410.535,237.806,-201.124,229.800,337.290,-279.580
512,46831.954000,244.162,31.811,-52.603,410.548,248.278,-198.798,253.800,272.290,-290.580
513,46831.996000,236.270,43.929,-38.575,408.789,251.749,-198.691,224.800,174.290,-278.580
514,46832.36000,241.202,70.185,-35.569,404.387,255.218,-198.592,145.800,20.290,-216.580
515,46832.76000,239.229,87.353,-41.581,403.478,248.048,-206.772,332.800,-127.710,-42.580
516,46832.113000,246.135,101.491,-35.569,400.820,243.593,-210.897,448.800,-222.710,123.420
517,46832.158000,291.514,0.505,4.509,402.529,232.728,-227.132,699.800,-488.710,248.420
518,46832.173000,354.651,-30.801,16.532,395.415,215.695,-246.574,1044.800,-819.710,369.420
519,46832.215000,329.002,-57.057,-46.591,386.520,202.776,-273.833,604.800,-912.710,510.420
520,46832.254000,227.391,-12.623,-91.679,380.333,198.263,-279.957,325.800,-552.710,317.420
521,46832.297000,231.337,-97.452,-116.728,375.026,192.882,-286.106,61.800,-342.710,356.420
522,46832.337000,214.566,-124.718,-68.634,375.003,177.145,-290.589,1389.800,265.290,383.420
523,46832.378000,165.241,-26.761,-56.611,379.381,144.136,-292.639,1891.800,700.290,252.420
524,46832.416000,236.270,-136.836,-76.650,397.887,114.052,-283.626,1606.800,1117.290,500.420
525,46832.436000,247.121,4.544,19.538,408.478,98.745,-273.166,1639.800,1365.290,367.420
526,46832.476000,259.946,6.564,-64.626,422.628,84.647,-250.739,319.800,1315.290,225.420
527,46832.518000,268.825,-39.890,-68.634,437.690,90.683,-221.699,-298.200,1357.290,381.420
528,46832.558000,249.094,45.949,-52.603,446.568,83.610,-196.082,-364.200,1282.290,230.420
529,46832.597000,209.634,84.323,-55.609,452.800,92.018,-174.936,-668.200,1107.290,113.420
530,46832.637000,126.767,132.797,-215.922,458.122,95.832,-162.880,-2036.200,-33.710,330.420
531,46832.657000,227.391,32.821,-161.816,452.825,106.047,-169.516,-1466.200,-742.710,25.420
532,46832.698000,302.366,-17.673,-77.652,448.373,107.301,-186.370,667.800,-362.710,-396.580
533,46832.734000,268.825,6.564,15.530,445.726,113.290,-189.163,-78.200,-446.710,-367.580
534,46832.786000,293.487,-28.781,-13.526,436.012,123.389,-199.790,-507.200,-442.710,-270.580
535,46832.816000,255.013,19.692,-45.589,436.003,130.192,-204.534,53.800,-268.710,-307.580
536,46832.856000,259.946,32.821,-48.595,433.345,136.937,-211.275,-127.200,-193.710,-211.580
537,46832.896000,281.649,-3.535,-43.585,430.698,139.483,-213.186,-86.200,-96.710,-146.580
538,46832.914000,286.582,-23.732,-34.568,430.708,140.436,-210.177,43.800,65.290,-52.580
539,46832.953000,276.717,-6.564,-30.560,431.578,137.748,-213.240,72.800,202.290,8.420
540,46832.994000,273.757,0.505,-27.554,435.126,132.824,-203.458,200.800,281.290,80.420
541,46833.34000,277.703,-7.574,-23.546,438.671,126.136,-194.727,322.800,410.290,183.420
542,46833.76000,266.852,2.525,-12.524,444.845,125.357,-191.754,368.800,495.290,248.420
543,46833.118000,270.798,10.604,-16.532,449.282,118.782,-179.044,351.800,555.290,317.420
544,46833.138000,244.162,54.028,-26.552,454.595,109.576,-167.410,429.800,570.290,288.420
545,46833.174000,179.052,139.866,-93.683,457.244,103.615,-163.623,227.800,192.290,229.420
546,46833.214000,189.904,97.452,-149.793,451.946,97.451,-166.819,-421.200,-611.710,224.420
547,46833.254000,240.216,6.564,-180.853,452.776,85.745,-182.091,1205.800,-641.710,61.420
548,46833.296000,265.865,59.077,-163.820,448.284,74.537,-210.273,1157.800,-1243.710,-223.580
549,46833.336000,227.391,149.964,-90.677,429.704,92.690,-242.512,-1336.200,-1942.710,-318.580
550,46833.376000,293.487,3.535,-90.677,405.873,131.000,-267.163,-2710.200,-1866.710,-489.580
551,46833.396000,257.973,-12.623,-62.622,390.897,162.012,-274.148,-2979.200,-1516.710,-728.580
552,46833.436000,238.243,-140.876,-40.579,376.852,210.750,-267.647,-2678.200,-900.710,-865.580
553,46833.476000,235.283,-132.797,-28.556,371.635,242.445,-250.747,-1362.200,81.290,-840.580
554,46833.514000,258.960,-187.329,-53.605,373.461,268.069,-234.022,-957.200,492.290,-791.580
555,46833.554000,314.204,-345.878,-138.771,377.018,275.297,-223.846,140.800,616.290,-554.580
556,46833.599000,372.408,-62.107,-18.536,377.859,269.724,-236.933,867.800,276.290,-175.580
557,46833.614000,289.541,136.836,-58.614,374.341,270.645,-234.929,-246.200,-88.710,-37.580
558,46833.654000,221.472,19.692,-83.663,375.204,265.297,-240.064,86.800,-104.710,101.420
559,46833.698000,222.459,40.899,-93.683,376.071,261.713,-244.150,386.800,13.290,133.420
560,46833.739000,256.000,78.264,-99.695,376.073,257.430,-242.303,-410.200,-80.710,195.420
561,46833.779000,250.081,31.811,-94.685,379.605,255.781,-239.366,-109.200,3.290,162.420
562,46833.816000,247.121,54.028,-91.679,381.368,249.762,-237.570,33.800,116.290,156.420
563,46833.861000,233.310,52.008,-94.685,388.424,246.408,-233.684,50.800,175.290,199.420
564,46833.876000,227.391,48.978,-86.669,391.069,253.326,-234.444,48.800,213.290,225.420
565,46833.916000,225.418,43.929,-77.652,396.366,244.819,-228.745,13.800,184.290,265.420
566,46833.961000,231.337,55.037,-82.661,404.311,241.550,-221.875,-147.200,130.290,329.420
567,46833.996000,224.432,40.899,-75.648,409.596,235.506,-221.061,-179.200,96.290,406.420
568,46834.36000,207.661,38.880,-70.638,410.473,223.411,-219.465,-118.200,6.290,449.420
569,46834.77000,240.216,35.850,-95.687,416.634,219.915,-220.551,-149.200,-32.710,466.420
570,46834.99000,222.459,36.860,-101.699,424.571,207.938,-214.957,-165.200,103.290,502.420
571,46834.139000,228.378,8.584,-96.689,434.277,198.622,-207.284,-224.200,217.290,537.420
572,46834.179000,186.944,25.751,-60.618,440.441,194.287,-207.405,-92.200,160.290,605.420
573,46834.219000,350.705,-42.919,-70.638,449.266,184.971,-199.735,-16.200,343.290,482.420
574,46834.259000,281.649,-17.673,-48.595,456.319,169.521,-194.256,136.800,402.290,413.420
575,46834.299000,275.730,-22.722,-50.599,458.101,166.275,-186.411,203.800,286.290,361.420
576,46834.339000,241.202,-24.742,-40.579,463.377,161.015,-188.551,360.800,64.290,259.420
577,46834.361000,240.216,-56.047,-59.616,466.905,155.026,-185.755,113.800,77.290,165.420
578,46834.399000,220.486,-24.742,-51.601,467.787,149.007,-183.962,186.800,106.290,84.420
579,46834.439000,217.526,-5.554,-52.603,467.779,148.922,-186.944,1.800,-74.710,11.420
580,46834.479000,214.566,-3.535,-61.620,464.261,149.844,-184.939,58.800,-192.710,-60.580
581,46834.519000,218.513,-28.781,-60.618,462.471,145.249,-194.031,139.800,-268.710,-154.580
582,46834.559000,244.162,-25.751,-57.613,455.406,152.831,-201.751,249.800,-261.710,-356.580
583,46834.599000,259.946,-25.751,-57.613,450.973,156.858,-212.558,201.800,-300.710,-372.580
584,46834.619000,268.825,-22.722,-86.669,443.912,165.336,-219.256,-183.200,-365.710,-452.580
585,46834.659000,243.175,-11.613,-85.667,440.392,181.740,-221.714,-41.200,-175.710,-618.580
586,46834.699000,240.216,3.535,-90.677,429.819,191.196,-224.420,147.800,7.290,-676.580
587,46834.736000,243.175,27.771,-89.675,424.540,200.740,-224.127,-53.200,84.290,-652.580
588,46834.778000,252.054,37.870,-81.659,420.152,211.238,-220.822,105.800,235.290,-560.580
589,46834.818000,240.216,47.968,-85.667,420.170,224.342,-217.418,229.800,354.290,-494.580
590,46834.838000,241.202,33.830,-60.618,417.541,220.169,-211.603,199.800,373.290,-384.580
591,46834.879000,231.337,38.880,-55.609,415.787,230.584,-211.271,250.800,283.290,-308.580
592,46834.919000,258.960,40.899,-47.593,412.276,233.298,-207.222,350.800,224.290,-257.580
593,46834.959000,249.094,26.761,-44.587,411.387,233.213,-210.207,464.800,176.290,-271.580
594,46835.1000,234.297,48.978,-47.593,408.743,239.231,-212.006,304.800,79.290,-261.580
595,46835.41000,236.270,25.751,-45.589,405.221,242.700,-211.905,58.800,-85.710,-184.580
596,46835.76000,244.162,16.663,-50.599,399.922,243.423,-216.863,158.800,-250.710,-51.580
597,46835.97000,247.121,68.166,-31.562,397.239,237.847,-229.962,504.800,-386.710,104.420
598,46835.137000,290.528,32.821,17.534,391.027,226.193,-243.269,772.800,-647.710,251.420
599,46835.179000,373.395,-12.623,-29.558,384.785,209.076,-265.690,508.800,-921.710,472.420
600,46835.221000,271.784,-27.771,-88.673,379.446,194.762,-281.066,288.800,-575.710,490.420
601,46835.258000,182.998,-9.594,-178.849,376.796,199.855,-284.881,-219.200,-233.710,382.420
602,46835.298000,187.931,-140.876,-152.798,375.041,198.203,-281.962,318.800,104.290,439.420
603,46835.318000,198.782,-119.669,-55.609,384.705,169.509,-284.848,2243.800,871.290,424.420
604,46835.359000,179.052,5.554,-66.630,395.274,143.646,-279.695,1750.800,994.290,383.420
605,46835.399000,258.960,-100.481,-72.642,408.520,120.699,-263.517,685.800,1049.290,658.420
606,46835.438000,251.067,18.682,-8.517,422.651,101.252,-246.229,975.800,1179.290,394.420
607,46835.478000,237.256,35.850,-43.585,430.614,98.152,-233.395,260.800,1145.290,256.420
608,46835.522000,224.432,44.939,-94.685,438.607,100.513,-211.447,-693.200,845.290,347.420
609,46835.562000,213.580,99.471,-66.630,445.703,105.309,-195.380,-1165.200,421.290,371.420
610,46835.577000,177.079,32.821,-153.800,445.737,120.291,-186.950,-2254.200,-98.710,213.420
611,46835.618000,224.432,-0.505,-159.812,440.436,122.722,-192.846,-1108.200,-587.710,-8.580
612,46835.656000,247.121,8.584,-79.656,434.238,123.275,-203.771,592.800,-368.710,-436.580
613,46835.698000,275.730,32.821,-16.532,431.562,127.247,-216.560,656.800,-360.710,-399.580
614,46835.737000,296.447,-44.939,-40.579,427.128,129.538,-227.422,-269.200,-454.710,-251.580
615,46835.779000,275.730,31.811,-50.599,420.071,136.336,-232.189,144.800,-311.710,-292.580
616,46835.799000,259.946,27.771,-60.618,417.416,142.241,-237.964,-219.200,-350.710,-162.580
617,46835.839000,270.798,-8.584,-72.642,415.650,148.231,-240.755,-124.200,-197.710,-19.580
618,46835.879000,264.879,-3.535,-73.644,415.648,149.939,-241.692,-174.200,-64.710,51.420
619,46835.919000,261.919,-11.613,-67.632,414.776,150.023,-238.713,10.800,94.290,93.420
620,46835.959000,266.852,-7.574,-57.613,413.010,144.814,-238.888,19.800,195.290,202.420
621,46835.999000,273.757,-2.525,-56.611,421.835,138.941,-232.099,81.800,283.290,269.420
622,46836.41000,281.649,-1.515,-57.613,428.022,127.944,-222.506,49.800,380.290,368.420
623,46836.61000,281.649,-7.574,-54.607,434.217,120.474,-210.813,154.800,603.290,424.420
624,46836.101000,247.121,21.712,-51.601,440.409,117.288,-200.967,237.800,678.290,430.420
625,46836.139000,195.823,99.471,-94.685,445.724,110.686,-189.248,245.800,450.290,255.420
626,46836.179000,145.511,124.718,-177.847,449.248,103.801,-187.474,18.800,-135.710,318.420
627,46836.219000,251.067,37.870,-159.812,448.333,92.263,-196.788,-54.200,-493.710,352.420
628,46836.258000,271.784,-16.663,-170.834,447.407,84.924,-210.931,983.800,-1013.710,-237.580
629,46836.279000,231.337,160.063,-93.683,432.346,87.512,-241.678,-897.200,-1674.710,-447.580
630,46836.318000,291.514,36.860,-95.687,412.927,124.174,-263.390,-2408.200,-1856.710,-690.580
631,46836.357000,250.081,-61.097,-41.581,390.027,175.899,-273.701,-2827.200,-1253.710,-993.580
632,46836.402000,194.836,-174.201,-41.581,381.276,217.838,-262.438,-1787.200,-339.710,-924.580
633,46836.442000,245.148,-204.497,-18.536,377.782,231.053,-255.069,-1010.200,268.290,-974.580
634,46836.478000,257.973,-188.339,-78.654,379.598,254.856,-241.382,-408.200,425.290,-622.580
635,46836.518000,207.661,-88.363,-153.800,379.579,248.639,-246.549,953.800,-71.710,-323.580
636,46836.539000,291.514,43.929,-90.677,376.040,243.316,-250.705,-8.200,-230.710,-22.580
637,46836.579000,233.310,39.890,-108.712,377.791,247.517,-255.528,-85.200,-316.710,71.420
638,46836.631000,258.960,37.870,-130.755,376.013,244.771,-260.588,100.800,-163.710,134.420
639,46836.662000,266.852,32.821,-112.720,376.902,243.988,-257.631,-67.200,-3.710,157.420
640,46836.702000,274.744,56.047,-112.720,384.841,243.238,-253.658,-113.200,107.290,314.420
641,46836.742000,254.027,37.870,-97.691,387.485,236.352,-251.887,-30.200,174.290,388.420
642,46836.762000,227.391,29.791,-106.708,394.532,224.290,-249.277,20.800,228.290,426.420
643,46836.802000,204.701,26.761,-97.691,401.594,216.680,-242.550,99.800,282.290,405.420
644,46836.838000,205.688,26.761,-93.683,407.767,206.410,-237.899,73.800,237.290,414.420
645,46836.878000,225.418,23.732,-92.681,413.932,204.678,-237.935,57.800,193.290,471.420
646,46836.919000,228.378,10.604,-75.648,422.743,194.353,-235.263,144.800,124.290,561.420
647,46836.959000,205.688,23.732,-89.675,430.659,174.423,-234.892,184.800,23.290,669.420
648,46836.999000,281.649,-42.919,-98.693,436.816,161.408,-235.294,174.800,24.290,654.420
649,46837.19000,270.798,-23.732,-74.646,443.875,142.570,-226.946,409.800,323.290,574.420
650,46837.59000,248.108,-6.564,-69.636,446.533,139.269,-221.087,160.800,303.290,508.420
651,46837.99000,234.297,-36.860,-87.671,450.938,128.073,-218.457,-25.200,197.290,457.420
652,46837.142000,213.580,-41.909,-105.706,458.872,116.936,-213.828,59.800,285.290,345.420
653,46837.179000,205.688,-27.771,-88.673,460.649,114.502,-207.943,4.800,280.290,239.420
654,46837.219000,205.688,-55.037,-75.648,466.825,115.459,-204.913,-134.200,203.290,129.420
655,46837.239000,206.674,-68.166,-65.628,466.837,115.572,-200.938,-61.200,77.290,61.420
656,46837.279000,204.701,-61.097,-57.613,469.479,111.262,-200.076,113.800,-28.710,13.420
657,46837.321000,219.499,-56.047,-64.626,466.813,106.723,-207.183,125.800,-201.710,-54.580
658,46837.361000,216.540,-32.821,-82.661,463.289,106.720,-207.194,131.800,-303.710,-134.580
659,46837.402000,223.445,-12.623,-81.659,457.094,109.878,-218.035,33.800,-413.710,-244.580
660,46837.441000,238.243,-49.988,-81.659,454.418,118.161,-231.676,81.800,-376.710,-319.580
661,46837.481000,241.202,-44.939,-71.640,448.244,127.564,-236.356,201.800,-247.710,-428.580
662,46837.501000,269.811,-17.673,-77.652,438.544,145.560,-243.747,-436.200,-357.710,-617.580
663,46837.541000,282.636,-58.067,-101.699,431.500,157.650,-245.363,-146.200,-154.710,-633.580
664,46837.581000,238.243,-5.554,-93.683,423.581,170.664,-244.966,158.800,-42.710,-729.580
665,46837.621000,248.108,29.791,-98.693,419.174,183.568,-248.533,118.800,-45.710,-715.580
666,46837.661000,253.040,29.791,-98.693,412.129,190.479,-249.325,128.800,-0.710,-530.580
667,46837.701000,220.486,8.584,-111.718,412.129,201.679,-251.940,-18.200,31.290,-500.580
668,46837.741000,245.148,25.751,-102.701,405.974,210.410,-249.691,217.800,161.290,-473.580
669,46837.761000,231.337,32.821,-98.693,402.455,213.040,-248.624,100.800,181.290,-326.580
670,46837.801000,249.094,15.653,-88.673,402.470,218.361,-244.479,131.800,239.290,-264.580
671,46837.842000,239.229,3.535,-86.669,398.073,221.018,-242.421,136.800,257.290,-244.580
672,46837.883000,197.796,30.801,-75.648,398.961,218.499,-239.521,-27.200,66.290,-151.580
673,46837.923000,218.513,38.880,-70.638,395.439,224.544,-240.329,-80.200,-117.710,-132.580
674,46837.962000,263.892,27.771,-72.642,392.777,221.769,-246.385,-44.200,-133.710,10.420
675,46837.982000,256.987,22.722,-58.614,391.895,224.344,-247.298,47.800,-264.710,71.420
676,46838.22000,273.757,3.535,-45.589,386.580,219.747,-256.401,582.800,-457.710,89.420
677,46838.64000,315.191,-49.988,-66.630,382.122,208.877,-272.656,938.800,-513.710,73.420
678,46838.103000,291.514,-114.619,-91.679,379.427,191.121,-287.142,1194.800,-132.710,309.420
679,46838.142000,194.836,35.850,-117.730,379.425,184.205,-286.374,49.800,-29.710,335.420
680,46838.182000,189.904,-124.718,-177.847,376.785,185.099,-285.360,-739.200,-42.710,329.420
681,46838.222000,194.836,-98.462,-85.667,384.710,168.698,-282.888,1403.800,703.290,479.420
682,46838.243000,192.863,-29.791,-59.616,396.163,139.419,-275.858,2184.800,1027.290,240.420
683,46838.283000,196.809,12.623,-83.663,407.623,118.821,-268.545,831.800,1002.290,187.420
684,46838.323000,262.906,-44.939,-64.626,417.352,117.487,-254.656,459.800,1083.290,293.420
685,46838.359000,234.297,7.574,-56.611,427.978,111.142,-233.975,532.800,1134.290,39.420
686,46838.399000,232.324,39.890,-54.607,434.195,110.785,-216.092,263.800,1131.290,-21.580
687,46838.443000,227.391,-15.653,-103.703,445.712,113.149,-194.133,-23.200,884.290,65.420
688,46838.463000,193.850,60.087,-114.724,446.622,118.612,-185.016,-816.200,412.290,-55.580
689,46838.499000,230.351,151.984,-94.685,443.092,121.128,-187.925,-1678.200,-545.710,-106.580
690,46838.542000,267.838,-1.515,-56.611,439.555,133.921,-195.465,49.800,-240.710,-393.580
691,46838.581000,288.555,-1.515,-0.501,434.252,138.059,-202.298,719.800,-143.710,-509.580
692,46838.621000,285.595,-31.811,-7.515,430.718,146.568,-207.992,-101.200,-255.710,-347.580
693,46838.663000,264.879,2.525,-36.571,425.426,149.952,-210.878,11.800,-224.710,-327.580
694,46838.701000,241.202,43.929,-50.599,421.890,156.724,-216.627,-59.200,-276.710,-267.580
695,46838.721000,259.946,2.525,-53.605,418.349,159.128,-223.511,31.800,-176.710,-177.580
696,46838.761000,260.933,18.682,-47.593,419.223,157.337,-225.553,17.800,-113.710,-99.580
697,46838.801000,273.757,7.574,-52.603,417.452,161.563,-229.393,-56.200,-96.710,-30.580
698,46838.839000,264.879,3.535,-49.597,420.105,163.385,-226.347,17.800,6.290,56.420
699,46838.881000,260.933,5.554,-54.607,420.985,161.650,-226.400,-5.200,73.290,117.420
700,46838.921000,262.906,0.505,-53.605,421.879,156.611,-220.603,95.800,181.290,175.420
701,46838.943000,259.946,2.525,-47.593,421.883,154.932,-218.671,91.800,290.290,247.420
702,46838.984000,266.852,11.613,-40.579,428.947,145.614,-211.007,78.800,361.290,326.420
703,46839.21000,246.135,22.722,-22.544,435.136,138.088,-201.302,-130.200,340.290,423.420
704,46839.62000,271.784,0.505,-29.558,440.422,123.449,-197.788,77.800,366.290,454.420
705,46839.102000,246.135,27.771,-44.587,447.498,115.980,-186.092,223.800,416.290,411.420
706,46839.143000,191.877,118.659,-104.704,451.032,114.359,-182.161,289.800,295.290,258.420
707,46839.184000,195.823,96.442,-198.888,454.548,99.634,-181.634,136.800,-187.710,441.420
708,46839.201000,243.175,70.185,-179.851,450.982,100.077,-196.526,205.800,-707.710,4.420
709,46839.243000,243.175,52.008,-103.703,439.462,92.505,-218.655,317.800,-1137.710,-242.580
710,46839.282000,228.378,103.511,-117.730,427.950,103.972,-242.151,-1441.200,-1720.710,-538.580
711,46839.322000,258.960,22.722,-89.675,409.425,142.484,-259.828,-2110.200,-1676.710,-834.580
712,46839.362000,254.027,-131.787,-32.564,390.047,184.720,-268.449,-2202.200,-1286.710,-1056.580
713,46839.406000,226.405,-138.856,-31.562,378.600,210.611,-272.611,-741.200,-400.710,-995.580
714,46839.421000,228.378,-134.817,-0.501,373.336,228.919,-269.055,-603.200,102.290,-722.580
715,46839.462000,266.852,-162.083,-56.611,378.675,247.545,-254.531,-680.200,306.290,-416.580
716,46839.501000,205.688,-37.870,-135.765,385.735,240.776,-248.770,397.800,256.290,91.420
717,46839.542000,261.919,163.093,-49.597,383.986,247.803,-245.569,-541.200,-128.710,-8.580
718,46839.582000,230.351,19.692,-77.652,383.088,246.765,-251.563,31.800,-293.710,60.420
719,46839.624000,258.960,-18.682,-98.693,386.594,241.419,-256.691,-27.200,-248.710,266.420
720,46839.664000,257.973,25.751,-124.744,389.235,236.241,-255.857,-539.200,-119.710,267.420
721,46839.684000,279.676,46.959,-124.744,394.542,241.622,-249.708,-332.200,132.290,276.420
722,46839.719000,248.108,23.732,-124.744,404.246,237.458,-243.854,-42.200,376.290,240.420
723,46839.762000,243.175,31.811,-100.697,405.154,236.004,-233.968,-52.200,556.290,250.420
724,46839.802000,231.337,24.742,-81.659,413.123,232.961,-219.146,-4.200,587.290,241.420
725,46839.842000,218.513,26.761,-67.632,421.073,228.012,-210.345,-45.200,493.290,236.420
726,46839.882000,219.499,37.870,-57.613,429.890,215.167,-204.775,2.800,408.290,287.420
727,46839.902000,238.243,35.850,-59.616,434.307,216.151,-200.757,-53.200,243.290,413.420
728,46839.942000,244.162,30.801,-51.601,440.482,207.617,-196.049,89.800,200.290,500.420
729,46839.982000,260.933,25.751,-59.616,451.937,192.142,-191.550,78.800,120.290,625.420
730,46840.22000,276.717,24.742,-68.634,458.098,177.447,-190.021,165.800,151.290,692.420
731,46840.62000,275.730,-10.604,-61.620,461.619,165.354,-188.416,324.800,202.290,615.420
732,46840.101000,272.771,-34.840,-36.571,472.182,146.322,-187.014,312.800,194.290,521.420
733,46840.143000,268.825,-44.939,-56.611,473.067,141.199,-184.198,-131.200,118.290,428.420
734,46840.162000,231.337,-32.821,-56.611,480.130,131.013,-176.562,-31.200,202.290,311.420
735,46840.203000,218.513,-40.899,-60.618,479.265,126.002,-169.777,48.800,238.290,227.420
736,46840.243000,203.715,-45.949,-54.607,484.565,129.590,-165.671,61.800,246.290,202.420
737,46840.283000,210.620,-29.791,-58.614,487.224,125.449,-158.846,-61.200,192.290,187.420
738,46840.323000,216.540,-35.850,-62.622,486.343,125.449,-158.849,-161.200,84.290,86.420
739,46840.364000,226.405,-33.830,-47.593,486.347,127.213,-157.799,146.800,16.290,-75.580
740,46840.384000,232.324,-31.811,-40.579,482.814,121.946,-159.967,81.800,-96.710,-89.580
741,46840.424000,232.324,-37.870,-37.573,484.568,122.731,-162.915,-7.200,-211.710,-100.580
742,46840.471000,225.418,-20.702,-42.583,475.732,129.359,-173.651,-43.200,-393.710,-176.580
743,46840.506000,224.432,-13.633,-51.601,473.068,137.755,-183.317,-94.200,-536.710,-306.580
744,46840.546000,245.148,-76.245,-58.614,469.510,141.726,-196.108,-113.200,-645.710,-441.580
745,46840.586000,248.108,-11.613,-61.620,461.551,143.147,-207.011,575.800,-390.710,-507.580
746,46840.622000,243.175,40.899,-71.640,453.592,158.342,-221.438,-47.200,-512.710,-515.580
747,46840.642000,277.703,-36.860,-92.681,443.892,172.026,-227.976,-376.200,-439.710,-500.580
748,46840.681000,244.162,-18.682,-105.706,434.207,184.143,-228.607,-150.200,-135.710,-646.580
749,46840.722000,262.906,27.771,-90.677,434.211,192.795,-229.319,-212.200,-10.710,-681.580
750,46840.762000,248.108,46.959,-98.693,424.540,208.496,-225.862,-207.200,31.290,-554.580
751,46840.807000,255.013,36.860,-108.712,422.796,225.043,-223.344,5.800,297.290,-506.580
752,46840.842000,236.270,27.771,-94.685,419.305,234.842,-214.101,16.800,429.290,-419.580
753,46840.862000,240.216,31.811,-73.644,417.564,239.350,-208.002,47.800,478.290,-365.580
754,46840.903000,240.216,52.008,-50.599,417.588,242.179,-199.966,162.800,429.290,-310.580
755,46840.944000,238.243,23.732,-56.611,417.600,243.160,-195.962,193.800,346.290,-252.580
756,46840.984000,239.229,28.781,-50.599,416.726,244.083,-193.949,208.800,225.290,-288.580
757,46841.26000,242.189,55.037,-53.605,415.857,257.131,-192.536,-32.200,108.290,-229.580
758,46841.62000,239.229,18.682,-39.577,414.957,253.489,-198.615,500.800,133.290,-265.580
759,46841.106000,254.027,73.215,-43.585,408.780,258.552,-203.435,454.800,-58.710,-111.580
760,46841.124000,251.067,53.018,6.513,403.451,246.058,-215.773,852.800,-382.710,94.420
761,46841.162000,319.137,33.830,-41.581,403.377,234.126,-239.000,713.800,-728.710,241.420
762,46841.202000,318.150,8.584,-86.669,395.415,223.451,-248.308,19.800,-810.710,437.420
763,46841.247000,235.283,-9.594,-94.685,388.336,218.824,-258.411,125.800,-445.710,199.420
764,46841.287000,232.324,-44.939,-92.681,383.031,212.603,-263.595,120.800,-155.710,149.420
765,46841.322000,212.593,-32.821,-77.652,388.297,204.654,-268.801,885.800,267.290,133.420
766,46841.342000,223.445,-90.383,-81.659,389.179,197.767,-267.036,1186.800,409.290,112.420
767,46841.386000,244.162,-71.195,-39.577,397.075,176.772,-273.650,1554.800,535.290,198.420
768,46841.426000,256.987,-11.613,-4.509,401.476,156.056,-270.336,781.800,485.290,381.420
769,46841.466000,254.027,-79.274,-55.609,406.774,146.709,-263.671,376.800,574.290,505.420
770,46841.506000,268.825,-19.692,10.521,412.071,127.003,-255.357,734.800,895.290,491.420
771,46841.546000,253.040,39.890,-25.550,424.450,120.575,-237.652,275.800,1224.290,257.420
772,46841.586000,247.121,12.623,-66.630,438.619,117.873,-210.883,-49.200,1314.290,194.420
773,46841.607000,246.135,-5.554,-88.673,450.133,113.322,-188.155,481.800,1274.290,202.420
774,46841.647000,210.620,87.353,-63.624,451.063,110.357,-170.375,155.800,828.290,70.420
775,46841.683000,138.605,136.836,-205.902,452.820,115.482,-173.182,-888.200,-381.710,305.420
776,46841.731000,246.135,36.860,-126.748,444.874,129.951,-182.668,-1786.200,-953.710,76.420
777,46841.764000,269.811,61.097,-65.628,439.544,127.788,-197.650,941.800,-392.710,-514.580
778,46841.803000,275.730,6.564,-16.532,435.987,131.759,-210.441,939.800,-312.710,-556.580
779,46841.824000,304.339,-32.821,3.507,432.454,134.248,-214.344,-427.200,-396.710,-335.580
780,46841.866000,281.649,19.692,-40.579,424.513,148.773,-221.842,-267.200,-304.710,-363.580
781,46841.903000,259.946,43.929,-36.571,420.985,153.894,-224.666,-44.200,-237.710,-257.580
782,46841.942000,266.852,-0.505,-46.591,416.570,159.826,-229.452,-245.200,-239.710,-83.580
783,46841.987000,264.879,-1.515,-53.605,415.686,162.373,-231.359,-57.200,-119.710,-25.580
784,46842.23000,245.148,8.584,-60.618,413.041,160.635,-231.424,1.800,-22.710,31.420
785,46842.63000,253.040,8.584,-54.607,417.439,157.978,-233.482,141.800,95.290,100.420
786,46842.84000,265.865,-0.505,-49.597,420.079,147.620,-231.823,257.800,186.290,153.420
787,46842.127000,277.703,4.544,-32.564,422.734,139.979,-226.105,352.800,260.290,198.420
788,46842.162000,282.636,13.633,-42.583,430.673,140.098,-222.104,314.800,328.290,290.420
789,46842.204000,275.730,7.574,-43.585,432.445,129.852,-216.472,213.800,464.290,352.420
790,46842.246000,257.973,24.742,-39.577,443.050,122.442,-202.777,139.800,567.290,381.420
791,46842.287000,236.270,44.939,-43.585,449.255,112.481,-187.192,170.800,654.290,375.420
792,46842.327000,188.917,150.974,-100.697,451.908,103.972,-181.502,-60.200,480.290,230.420
793,46842.347000,196.809,72.205,-219.930,454.560,104.059,-178.512,-329.200,-84.710,272.420
794,46842.383000,235.283,70.185,-229.949,447.459,97.499,-195.628,624.800,-1082.710,44.420
795,46842.423000,254.027,158.043,-124.744,432.380,95.606,-231.486,-570.200,-1907.710,-97.580
796,46842.463000,284.609,84.323,-136.767,419.107,111.384,-255.841,-2158.200,-2252.710,-314.580
797,46842.508000,250.081,3.535,-51.601,393.533,156.778,-275.303,-2307.200,-1739.710,-1018.580
798,46842.544000,218.513,-122.698,-2.505,373.290,200.890,-278.901,-1664.200,-861.710,-1162.580
799,46842.564000,214.566,-83.314,-31.562,370.699,232.418,-267.957,-1321.200,-125.710,-966.580
800,46842.604000,260.933,-156.024,-32.564,367.249,271.926,-250.798,-1229.200,186.290,-894.580
801,46842.644000,343.800,-397.381,-20.540,367.261,272.906,-246.794,121.800,386.290,-488.580
802,46842.688000,341.827,-54.028,-32.564,372.517,258.825,-254.185,461.800,76.290,124.420
803,46842.723000,261.919,175.211,-84.665,371.654,264.173,-249.049,-890.200,-284.710,149.420
804,46842.767000,228.378,-18.682,-98.693,376.061,266.780,-248.950,22.800,-82.710,97.420
805,46842.804000,255.013,33.830,-97.691,377.814,262.385,-251.073,-107.200,126.290,271.420
806,46842.824000,308.285,24.742,-95.687,381.357,258.273,-243.252,-514.200,55.290,260.420
807,46842.864000,231.337,67.156,-106.708,386.655,260.126,-239.203,-77.200,149.290,191.420
808,46842.904000,229.364,55.037,-91.679,390.179,252.373,-237.457,50.800,292.290,198.420
809,46842.943000,219.499,47.968,-86.669,398.128,249.132,-229.593,-72.200,295.290,212.420
810,46842.984000,224.432,39.890,-75.648,405.196,253.646,-223.466,-73.200,278.290,225.420
811,46843.29000,225.418,48.978,-61.620,407.849,245.137,-217.775,-146.200,151.290,269.420
812,46843.46000,248.108,41.909,-61.620,411.367,240.771,-218.899,-216.200,-13.710,322.420
813,46843.88000,236.270,47.968,-73.644,414.902,236.575,-214.058,-61.200,-100.710,397.420
814,46843.128000,232.324,38.880,-91.679,420.165,225.154,-219.377,32.800,-89.710,496.420
815,46843.167000,234.297,35.850,-96.689,425.439,212.977,-220.748,-42.200,-0.710,526.420
816,46843.208000,232.324,21.712,-86.669,433.370,201.812,-217.113,-102.200,88.290,551.420
817,46843.248000,249.094,0.505,-75.648,443.066,188.940,-212.535,147.800,155.290,568.420
818,46843.288000,246.135,-4.544,-70.638,446.583,184.574,-213.658,272.800,135.290,550.420
819,46843.308000,259.946,-5.554,-80.658,453.622,168.984,-213.149,339.800,169.290,463.420
820,46843.348000,243.175,-17.673,-73.644,457.146,157.787,-210.522,251.800,158.290,373.420
821,46843.388000,246.135,-17.673,-71.640,463.321,153.564,-206.667,107.800,128.290,312.420
822,46843.428000,245.148,-38.880,-65.628,462.433,144.015,-206.980,-11.200,106.290,203.420
823,46843.469000,232.324,-32.821,-65.628,464.199,138.025,-204.189,5.800,102.290,94.420
824,46843.504000,226.405,-31.811,-58.614,467.735,142.452,-201.056,-68.200,39.290,-8.580
825,46843.546000,222.459,-25.751,-53.605,464.193,141.412,-207.059,7.800,-56.710,-124.580
826,46843.566000,227.391,-19.692,-49.597,463.306,148.243,-210.812,-15.200,-216.710,-205.580
827,46843.607000,244.162,-25.751,-52.603,456.259,153.418,-211.659,-60.200,-372.710,-248.580
828,46843.649000,245.148,-7.574,-59.616,449.181,157.415,-223.468,-106.200,-509.710,-295.580
829,46843.688000,251.067,-4.544,-95.687,438.592,172.749,-232.935,-162.200,-536.710,-338.580
830,46843.728000,223.445,-30.801,-119.734,434.177,181.257,-238.631,-12.200,-367.710,-462.580
831,46843.769000,217.526,-12.623,-109.714,427.117,183.715,-243.538,-162.200,-155.710,-599.580
832,46843.784000,253.040,21.712,-105.706,420.073,200.117,-246.008,-231.200,-48.710,-597.580
833,46843.824000,240.216,19.692,-105.706,414.810,214.982,-241.570,-239.200,40.290,-560.580
834,46843.864000,242.189,42.919,-118.732,410.425,230.687,-238.096,-76.200,201.290,-464.580
835,46843.904000,239.229,22.722,-111.718,408.683,235.195,-231.997,65.800,403.290,-387.580
836,46843.947000,232.324,33.830,-95.687,406.065,241.466,-224.851,298.800,608.290,-445.580
837,46843.986000,232.324,37.870,-84.665,409.610,243.402,-217.826,217.800,603.290,-324.580
838,46844.27000,243.175,13.633,-69.636,411.392,244.469,-210.835,394.800,597.290,-302.580
839,46844.48000,240.216,34.840,-61.620,410.527,246.345,-205.812,316.800,518.290,-310.580
840,46844.87000,236.270,54.028,-45.589,410.544,254.270,-201.582,371.800,406.290,-315.580
841,46844.129000,231.337,61.097,-40.579,409.670,259.505,-200.422,349.800,289.290,-283.580
842,46844.167000,241.202,49.988,-42.583,407.026,258.635,-200.459,331.800,151.290,-221.580
843,46844.207000,231.337,78.264,-41.581,407.000,253.202,-208.579,621.800,-41.710,-72.580
844,46844.244000,235.283,63.116,-18.536,399.912,241.603,-219.901,866.800,-252.710,28.420
845,46844.264000,306.312,25.751,6.513,396.323,229.753,-240.157,950.800,-559.710,123.420
846,46844.306000,350.705,-17.673,-21.542,390.083,214.373,-262.522,975.800,-751.710,381.420
847,46844.349000,310.258,-2.525,-52.603,382.977,200.001,-279.892,198.800,-706.710,501.420
848,46844.389000,234.297,-17.673,-71.640,381.213,204.283,-281.745,-66.200,-400.710,280.420
849,46844.426000,256.000,-125.728,-33.566,379.437,192.941,-284.104,819.800,268.290,447.420
850,46844.471000,206.674,-14.643,-6.513,389.988,162.597,-284.062,1584.800,885.290,436.420
851,46844.507000,235.283,-80.284,-49.597,407.634,144.777,-270.682,825.800,1139.290,566.420
852,46844.527000,256.987,5.554,2.505,419.138,127.205,-248.377,842.800,1385.290,432.420
853,46844.566000,255.013,31.811,-6.513,425.351,120.772,-230.692,93.800,1364.290,273.420
854,46844.607000,254.027,-17.673,-86.669,440.421,125.157,-198.725,-324.200,1277.290,371.420
855,46844.648000,250.081,47.968,-63.624,449.287,117.971,-177.084,-234.200,1114.290,352.420
856,46844.686000,212.593,64.126,-63.624,452.876,126.377,-155.947,-709.200,814.290,222.420
857,46844.729000,140.578,140.876,-173.840,459.926,117.787,-153.224,-1143.200,-205.710,440.420
858,46844.749000,188.917,99.471,-135.765,455.529,131.643,-153.782,-2198.200,-763.710,262.420
859,46844.789000,252.054,32.821,-96.689,451.980,136.567,-163.563,88.800,-492.710,-286.580
860,46844.826000,274.744,-6.564,-0.501,442.241,131.769,-179.638,948.800,-231.710,-393.580
861,46844.871000,291.514,-48.978,-3.507,443.996,134.290,-182.530,-524.200,-371.710,-186.580
862,46844.909000,256.000,31.811,-35.569,444.863,138.462,-188.349,73.800,-176.710,-248.580
863,46844.944000,259.946,65.136,-41.581,437.806,148.703,-193.998,-71.200,-134.710,-163.580
864,46844.986000,273.757,-0.505,-31.562,438.690,148.732,-193.001,-187.200,-81.710,-5.580
865,46845.8000,294.474,-12.623,-14.528,440.447,145.233,-194.102,106.800,63.290,72.420
866,46845.51000,271.784,3.535,-26.552,439.578,146.213,-190.101,-52.200,121.290,194.420
867,46845.86000,277.703,-6.564,-28.556,443.104,138.488,-187.361,15.800,222.290,271.420
868,46845.126000,278.690,-5.554,-20.540,447.530,132.669,-178.599,129.800,354.290,317.420
869,46845.166000,265.865,0.505,-16.532,451.959,123.434,-167.962,222.800,495.290,375.420
870,46845.207000,247.121,41.909,-21.542,457.260,117.559,-161.184,246.800,470.290,361.420
871,46845.248000,204.701,127.748,-86.669,459.918,110.814,-154.444,207.800,268.290,245.420
872,46845.267000,191.877,64.126,-163.820,459.019,109.777,-160.438,-92.200,-444.710,153.420
873,46845.307000,237.256,37.870,-167.828,458.973,96.391,-173.782,841.800,-586.710,119.420
874,46845.351000,268.825,36.860,-132.759,452.762,90.784,-187.885,940.800,-930.710,-232.580
875,46845.391000,213.580,130.777,-92.681,439.466,97.713,-218.486,-1025.200,-1604.710,-560.580
876,46845.427000,268.825,15.653,-83.663,425.337,132.699,-238.249,-2185.200,-1795.710,-728.580
877,46845.467000,280.663,-57.057,-43.585,405.062,168.746,-251.046,-2293.200,-1514.710,-948.580
878,46845.487000,245.148,-68.166,-50.599,392.727,196.287,-258.135,-1232.200,-731.710,-875.580
879,46845.527000,250.081,-70.185,-46.591,386.591,226.747,-254.188,-1148.200,-337.710,-866.580
880,46845.567000,262.906,-140.876,-26.552,382.234,253.066,-243.418,-825.200,59.290,-827.580
881,46845.608000,256.000,-143.905,-84.665,381.399,265.583,-230.105,-548.200,433.290,-480.580
882,46845.647000,223.445,-84.323,-119.734,386.713,265.001,-220.177,126.800,464.290,-2.580
883,46845.688000,267.838,101.491,-46.591,388.492,269.483,-215.061,-449.200,82.290,-2.580
884,46845.727000,251.067,107.550,-52.603,386.742,270.462,-211.063,-145.200,-7.710,-47.580
885,46845.747000,267.838,8.584,-69.636,391.129,269.429,-217.041,17.800,-110.710,158.420
886,46845.787000,259.946,24.742,-80.658,390.251,266.012,-215.168,-132.200,-50.710,203.420
887,46845.826000,253.040,47.968,-108.712,396.424,270.385,-214.014,-285.200,32.290,172.420
888,46845.871000,249.094,44.939,-96.689,397.316,269.630,-210.063,-97.200,208.290,109.420
889,46845.911000,227.391,48.978,-83.663,403.495,268.040,-205.130,-67.200,371.290,91.420
890,46845.949000,231.337,49.988,-69.636,406.178,264.124,-190.354,-108.200,366.290,116.420
891,46845.969000,228.378,56.047,-61.620,412.358,266.845,-186.274,-153.200,290.290,153.420
892,46846.9000,236.270,55.037,-55.609,417.661,263.574,-179.412,-134.200,199.290,195.420
893,46846.49000,237.256,59.077,-50.599,422.076,258.510,-174.597,-142.200,131.290,255.420
894,46846.89000,243.175,47.968,-49.597,426.473,252.409,-175.774,-88.200,54.290,319.420
895,46846.131000,239.229,48.978,-46.591,430.880,248.129,-173.913,9.800,-39.710,413.420
896,46846.171000,241.202,44.939,-57.613,432.626,234.186,-176.346,-16.200,-101.710,477.420
897,46846.211000,230.351,37.870,-65.628,438.788,223.803,-175.670,-48.200,-63.710,515.420
898,46846.231000,237.256,23.732,-48.595,446.701,210.732,-178.055,136.800,-118.710,594.420
899,46846.266000,255.013,9.594,-60.618,453.728,197.605,-182.430,176.800,-305.710,644.420
900,46846.311000,253.040,-2.525,-92.681,457.224,190.438,-190.595,254.800,-269.710,565.420
901,46846.351000,245.148,-5.554,-84.665,460.727,178.176,-194.954,104.800,-107.710,407.420
902,46846.387000,254.027,-28.781,-78.654,465.129,169.527,-194.227,-17.200,-21.710,314.420
903,46846.428000,241.202,-42.919,-72.642,464.260,162.751,-188.492,-0.200,73.290,191.420
904,46846.448000,233.310,-19.692,-55.609,467.763,153.933,-193.732,31.800,68.290,23.420
905,46846.488000,237.256,-25.751,-52.603,465.133,167.847,-192.296,-85.200,-63.710,-76.580
906,46846.528000,236.270,-15.653,-52.603,461.604,167.789,-194.295,-129.200,-188.710,-161.580
907,46846.568000,242.189,-11.613,-49.597,458.069,172.853,-199.107,-117.200,-332.710,-265.580
908,46846.608000,240.216,-14.643,-78.654,452.754,178.587,-210.854,-75.200,-395.710,-331.580
909,46846.647000,246.135,-16.663,-98.693,443.070,190.704,-211.485,-70.200,-295.710,-439.580
910,46846.691000,226.405,9.594,-95.687,432.495,205.311,-216.010,-52.200,-139.710,-561.580
911,46846.709000,238.243,18.682,-100.697,427.212,217.403,-217.620,-189.200,-68.710,-567.580
912,46846.751000,253.040,26.761,-101.699,421.943,231.344,-215.199,-200.200,13.290,-563.580
913,46846.791000,243.175,35.850,-100.697,416.663,231.396,-213.228,383.800,294.290,-575.580
914,46846.831000,240.216,31.811,-97.691,417.558,235.849,-209.109,414.800,397.290,-468.580
915,46846.871000,241.202,29.791,-84.665,415.801,246.236,-209.770,363.800,479.290,-334.580
916,46846.912000,238.243,38.880,-76.650,414.955,250.885,-198.699,368.800,487.290,-262.580
917,46846.933000,242.189,34.840,-69.636,411.432,244.863,-196.920,374.800,467.290,-251.580
918,46846.968000,227.391,59.077,-56.611,411.435,248.335,-196.807,352.800,406.290,-278.580
919,46847.8000,236.270,68.166,-50.599,414.971,253.630,-193.645,108.800,318.290,-240.580
920,46847.48000,245.148,22.722,-41.581,414.986,258.951,-189.500,223.800,267.290,-232.580
921,46847.88000,253.040,22.722,-36.571,409.689,258.834,-193.493,415.800,137.290,-196.580
922,46847.128000,238.243,46.959,-33.566,408.802,257.909,-195.512,692.800,47.290,-94.580
923,46847.168000,223.445,101.491,-26.552,408.768,250.684,-205.676,561.800,-133.710,-1.580
924,46847.188000,280.663,19.692,6.513,408.721,244.185,-220.782,537.800,-475.710,180.420
925,46847.233000,342.813,-23.732,41.581,400.727,228.020,-240.199,899.800,-761.710,257.420
926,46847.268000,344.786,-24.742,-28.556,392.737,214.487,-258.538,630.800,-845.710,372.420
927,46847.309000,294.474,-41.909,-66.630,383.892,207.227,-269.725,350.800,-391.710,253.420
928,46847.351000,182.012,-2.525,-184.861,375.958,208.901,-271.682,-110.200,-225.710,199.420
929,46847.391000,208.647,-121.688,-81.659,382.975,185.329,-277.389,1370.800,388.290,327.420
930,46847.411000,191.877,-9.594,-40.579,390.013,168.871,-276.908,2055.800,992.290,193.420
931,46847.452000,224.432,-70.185,-76.650,400.589,137.044,-267.977,1269.800,1201.290,365.420
932,46847.488000,256.000,23.732,30.560,413.840,121.909,-251.544,1123.800,1355.290,333.420
933,46847.532000,242.189,69.176,9.519,432.413,117.475,-224.818,-188.200,1277.290,167.420
934,46847.568000,255.013,-0.505,-92.681,431.594,121.537,-203.836,-809.200,1117.290,299.420
935,46847.609000,225.418,25.751,-98.693,443.982,122.950,-184.884,-811.200,845.290,445.420
936,46847.649000,218.513,80.284,-35.569,446.678,125.195,-166.928,-1164.200,440.290,365.420
937,46847.669000,172.146,36.860,-166.826,449.352,128.950,-156.868,-1906.200,-18.710,348.420
938,46847.708000,184.971,96.442,-104.704,447.587,140.120,-160.483,-1837.200,-658.710,228.420
939,46847.752000,221.472,27.771,-113.722,445.795,149.301,-173.100,-128.200,-823.710,-308.580
940,46847.788000,268.825,31.811,-37.573,436.048,149.598,-192.981,1018.800,-627.710,-549.580
941,46847.829000,291.514,-27.771,2.505,428.071,156.869,-211.638,455.800,-677.710,-470.580
942,46847.868000,306.312,17.673,-50.599,418.352,164.336,-223.342,-440.200,-794.710,-398.580
943,46847.891000,286.582,22.722,-57.613,412.167,169.314,-231.145,46.800,-662.710,-420.580
944,46847.931000,260.933,33.830,-59.616,400.681,177.592,-244.815,51.800,-713.710,-231.580
945,46847.971000,241.202,12.623,-105.706,393.603,182.456,-256.595,-228.200,-581.710,-92.580
946,46848.12000,216.540,-8.584,-107.710,390.061,184.861,-263.480,-36.200,-361.710,-96.580
947,46848.52000,267.838,23.732,-79.656,385.647,187.349,-267.385,-6.200,-209.710,-94.580
948,46848.91000,249.094,6.564,-98.693,384.756,185.528,-270.426,-69.200,-149.710,-2.580
949,46848.146000,233.310,0.505,-104.704,380.356,183.845,-268.509,-0.200,-20.710,16.420
950,46848.154000,231.337,0.505,-104.704,383.885,183.036,-266.538,44.800,183.290,8.420
951,46848.193000,243.175,6.564,-86.669,384.782,182.337,-260.600,1.800,270.290,38.420
952,46848.229000,248.108,2.525,-84.665,392.712,184.079,-260.518,35.800,291.290,66.420
953,46848.269000,247.121,1.515,-87.671,393.607,175.597,-253.839,138.800,372.290,76.420
954,46848.312000,250.081,6.564,-87.671,404.199,177.538,-246.791,175.800,471.290,94.420
955,46848.353000,263.892,0.505,-80.658,410.387,171.720,-238.023,216.800,566.290,123.420
956,46848.368000,278.690,12.623,-67.632,415.694,165.901,-229.258,315.800,775.290,192.420
957,46848.411000,284.609,13.633,-28.556,426.301,157.652,-214.597,382.800,872.290,270.420
958,46848.449000,277.703,20.702,-21.542,435.150,145.117,-198.095,265.800,915.290,393.420
959,46848.492000,265.865,15.653,-28.556,448.411,136.114,-179.477,201.800,1010.290,436.420
960,46848.532000,236.270,75.235,-53.605,450.223,131.442,-160.756,216.800,977.290,402.420
961,46848.572000,174.119,149.964,-104.704,455.560,131.953,-142.849,-181.200,582.290,254.420
962,46848.613000,185.958,128.757,-231.953,455.532,124.784,-151.025,-345.200,-733.710,187.420
963,46848.633000,253.040,85.333,-117.730,447.532,123.206,-175.927,-281.200,-1395.710,-32.580
964,46848.673000,237.256,96.442,-104.704,436.876,130.977,-207.485,-816.200,-1667.710,-257.580
965,46848.708000,250.081,96.442,-107.710,424.483,139.000,-230.103,-1976.200,-1935.710,-686.580
966,46848.749000,263.892,-0.505,-55.609,401.562,181.904,-245.665,-2279.200,-1664.710,-1099.580
967,46848.789000,255.013,-146.935,-39.577,383.059,218.905,-255.447,-924.200,-948.710,-1197.580
968,46848.829000,258.960,-106.540,-21.542,376.013,237.015,-258.853,-345.200,-261.710,-849.580
969,46848.869000,271.784,-177.231,10.521,374.272,250.146,-254.461,-716.200,16.290,-616.580
970,46848.889000,267.838,-182.280,-76.650,377.840,266.951,-242.981,-243.200,395.290,-437.580
971,46848.929000,231.337,-164.103,-115.726,383.127,250.603,-238.530,859.800,616.290,27.420
972,46848.969000,290.528,93.412,-69.636,391.955,255.959,-233.363,-553.200,178.290,154.420
973,46849.9000,258.960,118.659,-43.585,395.494,256.970,-228.354,-233.200,175.290,141.420
974,46849.54000,274.744,5.554,-67.632,398.140,254.424,-226.442,-98.200,127.290,224.420
975,46849.93000,297.434,-20.702,-72.642,404.317,245.050,-220.768,-444.200,110.290,367.420
976,46849.109000,270.798,33.830,-85.667,406.984,250.457,-213.633,-332.200,72.290,271.420
977,46849.161000,240.216,44.939,-79.656,415.801,246.236,-209.770,158.800,179.290,228.420
978,46849.189000,236.270,39.890,-80.658,415.793,234.952,-210.136,107.800,182.290,254.420
979,46849.229000,222.459,41.909,-71.640,424.607,233.279,-208.176,213.800,224.290,286.420
980,46849.274000,217.526,40.899,-66.630,427.264,225.666,-201.464,168.800,210.290,354.420
981,46849.314000,212.593,52.008,-60.618,437.825,211.786,-201.881,18.800,103.290,478.420
982,46849.354000,238.243,27.771,-44.587,441.345,206.580,-202.038,154.800,-59.710,642.420
983,46849.374000,238.243,19.692,-53.605,448.366,186.509,-206.639,210.800,-213.710,698.420
984,46849.423000,260.933,9.594,-114.724,452.756,169.992,-208.154,14.800,-84.710,626.420
985,46849.451000,262.906,-50.998,-84.665,461.555,155.242,-208.604,118.800,135.290,554.420
986,46849.493000,257.973,-40.899,-93.683,459.799,144.966,-203.978,33.800,203.290,416.420
987,46849.533000,249.094,-41.909,-91.679,467.739,144.216,-200.005,37.800,354.290,208.420
988,46849.574000,245.148,-30.801,-61.620,473.940,141.115,-187.177,241.800,498.290,-23.580
989,46849.594000,231.337,-21.712,-48.595,477.486,140.475,-179.243,203.800,442.290,-99.580
990,46849.634000,226.405,-19.692,-32.564,474.870,146.774,-171.103,155.800,355.290,-124.580
991,46849.671000,227.391,-15.653,-32.564,479.280,149.410,-170.010,47.800,192.290,-177.580
992,46849.709000,231.337,-11.613,-26.552,476.645,156.380,-168.799,27.800,58.290,-174.580
993,46849.751000,247.121,-10.604,-16.532,473.114,158.897,-171.708,21.800,-152.710,-219.580
994,46849.791000,257.973,6.564,-30.560,471.337,164.774,-178.474,-207.200,-336.710,-272.580
995,46849.832000,258.960,-29.791,-63.624,466.923,167.262,-182.379,-285.200,-404.710,-308.580
996,46849.852000,255.013,-13.633,-78.654,460.746,180.949,-188.906,-285.200,-323.710,-441.580
997,46849.891000,256.000,-27.771,-92.681,451.939,199.058,-192.318,-284.200,-206.710,-560.580
998,46849.932000,235.283,13.633,-70.638,444.900,214.648,-192.828,-204.200,-85.710,-627.580
999,46849.976000,246.135,54.028,-66.630,433.451,222.424,-193.605,-321.200,-72.710,-611.580
1000,46850.11000,247.121,49.988,-66.630,426.418,234.627,-191.246,-65.200,25.290,-479.580
1001,46850.51000,243.175,45.949,-75.648,423.786,241.625,-189.041,-21.200,82.290,-394.580
1002,46850.71000,240.216,44.939,-78.654,421.162,248.708,-183.855,53.800,167.290,-306.580
1003,46850.114000,241.202,45.949,-64.626,422.038,252.964,-186.693,153.800,265.290,-266.580
1004,46850.154000,241.202,41.909,-56.611,421.179,260.077,-180.507,152.800,259.290,-224.580
1005,46850.194000,242.189,43.929,-54.607,416.789,264.526,-176.405,105.800,223.290,-195.580
1006,46850.234000,239.229,60.087,-52.603,416.789,268.838,-177.258,18.800,187.290,-210.580
1007,46850.273000,233.310,62.107,-50.599,416.795,268.894,-175.270,58.800,202.290,-202.580
1008,46850.311000,242.189,42.919,-46.591,414.155,265.477,-173.403,143.800,158.290,-182.580
1009,46850.331000,234.297,68.166,-45.589,412.396,268.947,-173.296,293.800,99.290,-258.580
1010,46850.376000,232.324,113.609,-56.611,411.523,272.475,-171.199,8.800,133.290,-214.580
1011,46850.411000,218.513,116.639,-32.564,408.896,274.350,-166.181,-180.200,193.290,-123.580
1012,46850.451000,259.946,26.761,-24.548,410.670,276.200,-162.144,-23.200,89.290,50.420
1013,46850.496000,243.175,56.047,-26.552,412.430,280.485,-163.985,-69.200,-26.710,28.420
1014,46850.533000,240.216,68.166,-42.583,409.799,281.464,-159.990,-304.200,-114.710,52.420
1015,46850.552000,233.310,62.107,-50.599,408.045,284.123,-157.923,-197.200,-69.710,29.420
1016,46850.592000,250.081,41.909,-54.607,411.555,280.541,-162.000,-53.200,-8.710,23.420
1017,46850.632000,245.148,63.116,-37.573,410.677,281.436,-160.981,-19.200,51.290,-16.580
1018,46850.673000,238.243,67.156,-41.581,408.042,280.651,-158.036,-114.200,18.290,-13.580
1019,46850.723000,242.189,54.028,-46.591,411.575,285.918,-155.868,-87.200,15.290,-9.580
1020,46850.752000,237.256,67.156,-40.579,408.935,288.520,-155.792,-73.200,18.290,-24.580
1021,46850.796000,240.216,56.047,-43.585,409.817,282.501,-153.998,-54.200,10.290,-17.580
1022,46850.816000,239.229,64.126,-45.589,411.585,287.738,-152.829,-10.200,25.290,-26.580
1023,46850.852000,241.202,66.146,-40.579,411.592,286.087,-149.904,-37.200,18.290,-24.580
1024,46850.893000,244.162,56.047,-39.577,408.060,286.000,-152.897,7.800,10.290,-17.580
1025,46850.932000,242.189,60.087,-41.581,410.701,286.841,-153.854,28.800,-9.710,-14.580
1026,46850.974000,242.189,63.116,-42.583,408.936,286.812,-154.854,5.800,-6.710,-16.580
1027,46851.16000,240.216,63.116,-45.589,408.060,289.443,-153.778,-8.200,4.290,-24.580
1028,46851.32000,242.189,60.087,-42.583,407.189,291.263,-150.743,1.800,11.290,-31.580
1029,46851.71000,240.216,64.126,-40.579,407.181,288.603,-152.815,-31.200,13.290,-39.580
1030,46851.116000,239.229,64.126,-41.581,404.533,285.969,-153.902,-26.200,8.290,-43.580
1031,46851.151000,242.189,62.107,-40.579,405.419,284.290,-151.968,-41.200,1.290,-45.580
1032,46851.191000,238.243,64.126,-43.585,401.907,292.156,-149.738,12.800,18.290,-56.580
1033,46851.237000,242.189,61.097,-46.591,406.313,290.451,-148.786,24.800,27.290,-68.580
1034,46851.273000,239.229,64.126,-46.591,403.675,297.393,-148.570,48.800,61.290,-95.580
1035,46851.293000,245.148,59.077,-45.589,402.795,299.128,-148.516,107.800,114.290,-117.580
1036,46851.332000,245.148,67.156,-33.566,402.790,299.940,-150.476,191.800,172.290,-166.580
1037,46851.374000,239.229,64.126,-33.566,400.150,295.655,-148.637,23.800,105.290,-170.580
1038,46851.411000,243.175,75.235,-38.575,397.505,300.804,-150.465,19.800,115.290,-181.580
1039,46851.454000,237.256,81.294,-35.569,396.644,304.445,-144.391,-53.200,110.290,-177.580
1040,46851.494000,242.189,77.254,-38.575,395.773,307.132,-141.328,-107.200,142.290,-188.580
1041,46851.514000,244.162,79.274,-39.577,393.148,311.611,-136.226,-48.200,231.290,-186.580
1042,46851.552000,241.202,70.185,-24.548,391.393,316.846,-135.069,45.800,252.290,-141.580
1043,46851.596000,224.432,102.501,-6.513,387.879,318.664,-132.042,99.800,136.290,-70.580
1044,46851.636000,227.391,98.462,-20.540,388.750,320.288,-135.959,31.800,27.290,2.420
1045,46851.672000,234.297,90.383,-26.552,389.635,310.853,-132.290,26.800,5.290,50.420
1046,46851.712000,240.216,77.254,-29.558,389.619,315.864,-139.078,27.800,20.290,75.420
1047,46851.756000,239.229,76.245,-29.558,395.803,316.038,-133.095,82.800,60.290,74.420
1048,46851.776000,240.216,78.264,-29.558,395.796,314.245,-135.139,110.800,108.290,50.420
1049,46851.813000,241.202,78.264,-27.554,396.685,314.331,-132.154,53.800,145.290,43.420
1050,46851.858000,240.216,81.294,-24.548,401.099,310.974,-128.277,51.800,175.290,43.420
1051,46851.893000,241.202,79.274,-22.544,397.574,309.236,-128.345,47.800,201.290,61.420
1052,46851.934000,235.283,91.393,-14.528,396.698,304.980,-125.507,-42.200,206.290,108.420
1053,46851.987000,228.378,100.481,-5.511,407.292,301.769,-116.640,-112.200,173.290,153.420
1054,46852.14000,236.270,76.245,-3.507,408.176,297.486,-114.790,-135.200,93.290,237.420
1055,46852.37000,235.283,84.323,5.511,412.588,300.150,-112.704,-7.200,-30.710,316.420
1056,46852.77000,233.310,85.333,7.515,414.336,288.810,-115.052,-75.200,-209.710,366.420
1057,46852.117000,265.865,47.968,-5.511,421.364,284.307,-121.134,-120.200,-401.710,435.420
1058,46852.157000,266.852,22.722,-48.595,424.860,278.008,-129.271,219.800,-357.710,276.420
1059,46852.197000,252.054,32.821,-55.609,424.845,269.243,-132.534,308.800,-135.710,137.420
1060,46852.237000,252.054,-27.771,-53.605,426.581,264.679,-140.621,379.800,70.290,75.420
1061,46852.257000,248.108,-5.554,-48.595,428.321,257.568,-146.804,1080.800,232.290,39.420
1062,46852.297000,248.108,0.505,-49.597,430.934,247.796,-155.057,1074.800,134.290,109.420
1063,46852.337000,242.189,23.732,-58.614,434.402,233.460,-171.398,652.800,-97.710,324.420
1064,46852.373000,246.135,21.712,-44.587,432.612,229.733,-180.462,228.800,-395.710,468.420
1065,46852.414000,247.121,47.968,-27.554,434.332,214.669,-191.868,4.800,-422.710,522.420
1066,46852.454000,247.121,48.978,-14.528,432.550,206.715,-197.097,-81.200,-55.710,315.420
1067,46852.494000,236.270,75.235,-10.521,435.204,203.385,-192.232,34.800,336.290,127.420
1068,46852.514000,221.472,91.393,-17.534,436.978,200.056,-187.369,139.800,590.290,-193.580
1069,46852.556000,228.378,116.639,-50.599,438.778,206.471,-175.239,91.800,557.290,-320.580
1070,46852.598000,278.690,61.097,-8.517,438.798,210.112,-169.163,20.800,362.290,-281.580
1071,46852.633000,250.081,16.663,-7.515,437.944,219.856,-161.899,-261.200,138.290,-168.580
1072,46852.673000,252.054,37.870,-1.503,437.067,225.932,-161.704,-231.200,-18.710,-151.580
1073,46852.713000,247.121,48.978,-20.540,437.075,228.592,-159.632,-262.200,-58.710,-146.580
1074,46852.733000,251.067,37.870,-29.558,432.682,236.457,-157.405,-276.200,-18.710,-134.580
1075,46852.773000,256.000,39.890,-19.538,431.819,234.050,-150.535,-129.200,86.290,-155.580
1076,46852.816000,252.054,43.929,-20.540,430.069,238.473,-147.418,-140.200,126.290,-169.580
1077,46852.853000,245.148,45.949,-7.515,430.073,244.549,-147.221,-57.200,133.290,-154.580
1078,46852.893000,239.229,66.146,3.507,428.319,247.208,-145.154,-100.200,-6.710,-92.580
1079,46852.934000,246.135,54.028,-9.519,426.565,250.735,-143.059,-53.200,-60.710,-55.580
1080,46852.974000,243.175,54.028,-13.526,424.795,250.649,-146.047,-28.200,-72.710,-37.580
1081,46852.994000,244.162,57.057,-11.523,424.793,248.913,-146.103,-55.200,-108.710,-33.580
1082,46853.33000,245.148,52.008,-18.536,423.901,245.356,-149.200,-34.200,-94.710,-47.580
