Sample, Time, ACCX, ACCY, ACCZ, MAGX, MAGY, MAGZ, GYRX, GYRY, GYRZ
0,47003.330000,253.006,-15.530,13.891,462.306,-260.886,55.210,8.850,-0.370,7.070
1,47003.366000,253.006,-16.532,16.868,463.258,-262.658,59.097,9.850,-2.370,9.070
2,47003.386000,253.006,-17.534,15.876,464.181,-265.560,56.067,12.850,-1.370,10.070
3,47003.426000,253.006,-16.532,15.876,460.222,-271.210,58.854,10.850,-2.370,9.070
4,47003.466000,253.006,-16.532,10.915,465.193,-262.710,56.148,13.850,-2.370,10.070
5,47003.506000,253.006,-15.530,11.907,462.232,-266.454,58.990,15.850,-1.370,13.070
6,47003.545000,253.006,-13.526,14.884,461.342,-260.821,58.161,6.850,-0.370,13.070
7,47003.585000,253.006,-15.530,12.899,462.220,-267.374,59.948,1.850,-2.370,10.070
8,47003.624000,251.010,-16.532,11.907,463.273,-261.686,60.108,-4.150,-1.370,7.070
9,47003.665000,251.010,-18.536,10.915,465.108,-268.410,55.006,0.850,-10.370,2.070
10,47003.684000,250.012,-16.532,7.938,461.228,-268.439,55.982,10.850,-26.370,0.070
11,47003.726000,255.002,-17.534,9.922,464.134,-268.476,53.035,6.850,-35.370,4.070
12,47003.766000,256.000,-17.534,9.922,463.187,-267.413,57.981,17.850,-28.370,3.070
13,47003.806000,255.002,-15.530,11.907,465.122,-267.464,55.032,6.850,-25.370,-0.930
14,47003.846000,252.008,-16.532,12.899,460.257,-268.452,55.980,-13.150,-14.370,-0.930
15,47003.886000,253.006,-18.536,14.884,461.302,-262.870,52.202,-2.150,7.630,-2.930
16,47003.926000,254.004,-16.532,12.899,459.259,-270.357,55.925,0.850,1.630,-2.930
17,47003.966000,254.004,-17.534,15.876,462.269,-263.670,57.100,-15.150,3.630,1.070
18,47003.986000,254.004,-18.536,13.891,463.169,-268.411,55.986,-6.150,0.630,-1.930
19,47004.26000,253.006,-18.536,11.907,461.204,-270.277,57.898,-2.150,-9.370,-5.930
20,47004.66000,253.006,-18.536,13.891,463.112,-272.220,54.896,1.850,-3.370,-0.930
21,47004.106000,254.004,-18.536,12.899,461.198,-270.356,54.945,7.850,5.630,-0.930
22,47004.145000,253.006,-15.530,10.915,465.024,-274.110,53.863,-2.150,9.630,-7.930
23,47004.185000,251.010,-18.536,8.930,461.316,-262.686,59.093,-17.150,2.630,-8.930
24,47004.226000,253.006,-18.536,6.946,465.069,-271.220,55.911,-7.150,-5.370,-23.930
25,47004.266000,256.998,-16.532,5.953,464.208,-263.669,56.119,15.850,-29.370,-19.930
26,47004.286000,256.998,-9.519,12.899,460.237,-269.477,53.000,-8.150,2.630,-2.930
27,47004.327000,253.006,-12.524,14.884,463.273,-260.925,53.243,-29.150,6.630,-17.930
28,47004.366000,252.008,-14.528,11.907,464.075,-272.311,50.961,-28.150,-0.370,-22.930
29,47004.409000,251.010,-17.534,12.899,462.293,-261.832,55.184,-25.150,8.630,-14.930
30,47004.443000,254.004,-17.534,12.899,466.065,-269.342,54.981,-15.150,-17.370,-16.930
31,47004.483000,253.006,-16.532,11.907,465.091,-269.408,53.011,3.850,-23.370,-14.930
32,47004.528000,256.000,-10.521,14.884,468.126,-260.856,53.253,17.850,-10.370,-20.930
33,47004.563000,259.992,-10.521,17.860,465.155,-264.733,51.173,24.850,-14.370,-45.930
34,47004.583000,262.986,-13.526,19.845,468.166,-258.046,52.348,80.850,0.630,-77.930
35,47004.625000,253.006,-17.534,11.907,463.263,-261.818,55.186,113.850,15.630,-80.930
36,47004.665000,239.033,4.509,-7.938,472.074,-256.887,58.289,155.850,48.630,1.070
37,47004.705000,258.994,18.536,-20.837,464.181,-265.560,56.067,-15.150,-27.370,46.070
38,47004.746000,261.988,7.515,-16.868,467.209,-257.875,59.237,-14.150,20.630,-44.930
39,47004.786000,249.014,-2.505,-9.922,467.144,-262.551,61.074,4.850,52.630,-41.930
40,47004.826000,246.020,-6.513,-8.930,467.201,-258.742,62.163,17.850,181.630,80.070
41,47004.846000,257.996,-10.521,-1.984,463.193,-268.095,67.798,-14.150,246.630,203.070
42,47004.895000,270.971,-21.542,20.837,461.280,-266.993,74.711,-10.150,290.630,162.070
43,47004.935000,281.949,-16.532,19.845,455.370,-273.563,79.436,-21.150,358.630,50.070
44,47004.968000,259.992,-0.501,35.721,455.459,-268.572,89.411,-148.150,495.630,-14.930
45,47005.8000,238.035,-1.503,28.775,449.599,-271.412,92.273,-357.150,411.630,-79.930
46,47005.48000,247.018,-30.560,44.651,453.512,-269.439,93.318,-338.150,298.630,-67.930
47,47005.88000,256.998,-52.603,45.643,451.439,-278.844,96.004,-259.150,197.630,111.070
48,47005.128000,240.031,-48.595,48.620,448.470,-282.694,94.908,-242.150,201.630,200.070
49,47005.148000,228.055,-46.591,54.574,445.562,-282.683,96.871,-260.150,169.630,178.070
50,47005.187000,223.064,-43.585,50.605,445.397,-294.030,96.555,-161.150,64.630,79.070
51,47005.231000,228.055,-53.605,47.628,443.463,-293.191,93.624,-85.150,-36.370,0.070
52,47005.268000,236.039,-67.632,41.674,444.563,-283.827,89.952,17.850,-172.370,-32.930
53,47005.307000,239.033,-65.628,43.659,442.575,-286.770,86.916,116.850,-198.370,-36.930
54,47005.353000,244.023,-52.603,40.682,447.469,-283.864,87.005,195.850,-215.370,-45.930
55,47005.387000,244.023,-37.573,38.698,451.383,-281.104,82.170,190.850,-239.370,-71.930
56,47005.427000,240.031,-22.544,35.721,448.536,-276.470,80.327,154.850,-241.370,-125.930
57,47005.447000,241.029,-25.550,41.674,457.303,-273.641,75.503,91.850,-309.370,-186.930
58,47005.487000,250.012,-33.566,42.667,460.071,-283.135,72.292,119.850,-319.370,-187.930
59,47005.526000,256.000,-34.568,41.674,463.125,-272.823,67.666,115.850,-312.370,-82.930
60,47005.571000,253.006,-30.560,35.721,466.136,-265.349,62.961,179.850,-295.370,3.070
61,47005.606000,254.004,-13.526,29.767,468.070,-265.426,59.028,240.850,-293.370,61.070
62,47005.646000,256.998,-0.501,17.860,464.224,-262.697,57.130,311.850,-209.370,44.070
63,47005.692000,260.990,6.513,6.946,466.140,-264.535,58.066,282.850,-179.370,10.070
64,47005.727000,273.965,2.505,-4.961,464.191,-265.429,60.989,291.850,-197.370,-10.930
65,47005.753000,274.963,-2.505,-8.930,469.150,-257.848,59.241,307.850,-142.370,-93.930
66,47005.792000,268.975,18.536,-0.992,471.039,-261.576,60.124,279.850,-49.370,-146.930
67,47005.828000,253.006,20.540,-8.930,474.094,-252.000,63.346,142.850,-5.370,-151.930
68,47005.867000,243.025,16.532,-3.969,474.098,-251.947,65.315,108.850,103.630,-142.930
69,47005.907000,239.033,7.515,-0.992,479.977,-248.082,65.432,-23.150,29.630,-46.930
70,47005.947000,252.008,2.505,-6.946,478.910,-254.715,65.246,-21.150,88.630,17.070
71,47005.987000,261.988,-9.519,-2.977,476.961,-255.609,68.168,-0.150,81.630,20.070
72,47006.27000,255.002,-2.505,0.000,476.042,-252.655,73.167,52.850,116.630,16.070
73,47006.47000,256.998,13.526,-0.992,478.017,-250.657,76.177,35.850,165.630,58.070
74,47006.88000,254.004,16.532,-3.969,473.066,-258.133,81.862,-35.150,209.630,76.070
75,47006.128000,254.004,7.515,0.992,467.320,-252.594,80.039,-136.150,154.630,59.070
76,47006.170000,259.992,-5.511,7.938,468.244,-256.258,83.873,-207.150,171.630,26.070
77,47006.209000,256.998,-8.517,16.868,466.293,-257.178,85.812,-202.150,166.630,-6.930
78,47006.250000,247.018,-3.507,17.860,468.152,-262.824,85.658,-193.150,141.630,11.070
79,47006.289000,251.010,-3.507,21.829,463.312,-261.947,85.674,-233.150,139.630,40.070
80,47006.330000,252.008,-11.523,25.798,468.171,-261.038,81.773,-276.150,126.630,28.070
81,47006.350000,246.020,-22.544,23.814,462.345,-261.147,80.777,-255.150,67.630,10.070
82,47006.389000,245.021,-26.552,22.822,468.169,-261.065,80.789,-193.150,-17.370,-2.930
83,47006.430000,256.998,-21.542,22.822,461.235,-269.882,72.663,-173.150,-15.370,1.070
84,47006.471000,255.002,-19.538,22.822,465.233,-262.183,75.835,-130.150,-6.370,15.070
85,47006.506000,247.018,-16.532,29.767,460.295,-267.952,74.682,-148.150,-50.370,23.070
86,47006.546000,246.020,-13.526,34.729,462.305,-262.435,67.954,-179.150,-81.370,13.070
87,47006.587000,244.023,-21.542,34.729,462.177,-270.998,65.748,-186.150,-96.370,-17.930
88,47006.626000,242.027,-29.558,24.806,464.134,-269.238,59.899,-207.150,-116.370,-10.930
89,47006.646000,250.012,-34.568,22.822,462.132,-273.127,56.837,-221.150,-163.370,4.070
90,47006.687000,257.996,-36.571,25.798,466.081,-267.608,49.128,-150.150,-165.370,1.070
91,47006.727000,256.000,-33.566,25.798,462.131,-271.604,43.108,-97.150,-139.370,12.070
92,47006.775000,247.018,-29.558,23.814,463.072,-273.508,42.073,-86.150,-123.370,-3.930
93,47006.823000,247.018,-25.550,25.798,463.993,-276.436,38.059,-74.150,-140.370,-24.930
94,47006.850000,255.002,-26.552,27.783,464.999,-273.665,35.187,-30.150,-115.370,-47.930
95,47006.890000,256.998,-24.548,25.798,465.021,-271.852,32.287,-29.150,-105.370,-29.930
96,47006.926000,254.004,-23.546,23.814,465.097,-266.257,29.492,-2.150,-87.370,-17.930
97,47006.946000,256.998,-24.548,21.829,465.025,-271.038,27.391,51.850,-60.370,-33.930
98,47006.987000,253.006,-22.544,18.853,470.823,-272.821,28.335,75.850,-45.370,-23.930
99,47007.26000,254.004,-19.538,10.915,468.944,-268.199,25.510,99.850,-21.370,-2.930
100,47007.66000,257.996,-14.528,8.930,470.915,-266.254,26.551,130.850,-26.370,-2.930
101,47007.114000,255.002,-14.528,9.922,470.953,-264.231,31.525,178.850,-7.370,-17.930
102,47007.148000,250.012,-11.523,5.953,466.147,-261.384,34.547,183.850,-6.370,-12.930
103,47007.201000,250.012,-10.521,0.000,466.167,-260.359,37.526,194.850,-17.370,-3.930
104,47007.229000,256.000,-6.513,-4.961,469.083,-260.265,39.501,191.850,-26.370,-3.930
105,47007.249000,259.992,-4.509,-8.930,469.144,-256.404,42.559,190.850,-7.370,-2.930
106,47007.290000,258.994,-3.507,-8.930,469.991,-264.901,42.324,143.850,19.630,1.070
107,47007.330000,256.000,-1.503,-5.953,472.050,-257.203,46.476,89.850,41.630,-2.930
108,47007.370000,255.002,-2.505,-4.961,468.094,-262.039,44.368,47.850,22.630,-10.930
109,47007.411000,254.004,-2.505,-6.946,467.183,-258.217,46.440,3.850,7.630,-23.930
110,47007.458000,249.014,-2.505,-8.930,470.955,-265.727,46.238,-15.150,3.630,-27.930
111,47007.487000,251.010,-5.511,-6.946,469.124,-258.190,46.444,-23.150,-24.370,-10.930
112,47007.527000,253.006,-7.515,-6.946,471.059,-258.241,43.495,-5.150,-24.370,-6.930
113,47007.547000,256.000,-4.509,-4.961,469.089,-260.186,42.454,-1.150,-21.370,-0.930
114,47007.590000,256.000,-2.505,-5.953,469.995,-264.848,44.293,-18.150,-26.370,-5.930
115,47007.630000,256.998,-3.507,-4.961,472.003,-260.119,43.444,-37.150,-25.370,-0.930
116,47007.669000,253.006,-3.507,-2.977,469.128,-257.376,41.549,-56.150,-13.370,-9.930
117,47007.710000,253.006,-6.513,-1.984,465.247,-257.404,42.525,-64.150,-25.370,-10.930
118,47007.751000,253.006,-8.517,-1.984,470.947,-265.833,42.300,-72.150,-20.370,-1.930
119,47007.791000,252.008,-5.511,-3.969,471.020,-260.290,37.536,-58.150,-9.370,10.070
120,47007.831000,250.012,-8.517,-1.984,474.806,-266.855,37.360,-57.150,-19.370,26.070
121,47007.851000,247.018,-8.517,-3.969,470.008,-263.141,37.455,-46.150,-10.370,69.070
122,47007.890000,250.012,-9.519,0.000,471.826,-271.624,37.222,-30.150,5.630,95.070
123,47007.929000,251.010,-11.523,-0.992,463.180,-265.208,34.436,-30.150,1.630,87.070
124,47007.969000,251.010,-10.521,-0.992,466.084,-266.033,37.368,-38.150,-47.370,85.070
125,47008.10000,256.998,-13.526,3.969,461.128,-272.800,34.221,-51.150,-64.370,72.070
126,47008.57000,265.980,-15.530,10.915,460.138,-273.839,31.240,-74.150,-88.370,14.070
127,47008.90000,258.994,-19.538,17.860,458.238,-271.029,31.315,-85.150,-36.370,0.070
128,47008.146000,256.000,-23.546,15.876,466.984,-270.012,29.390,-91.150,14.630,17.070
129,47008.153000,259.992,-30.560,18.853,459.118,-276.795,27.221,-129.150,15.630,25.070
130,47008.190000,252.008,-32.564,22.822,462.071,-273.916,27.306,-85.150,49.630,14.070
131,47008.230000,249.014,-34.568,20.837,467.901,-273.755,30.271,-26.150,62.630,24.070
132,47008.269000,253.006,-34.568,18.853,462.105,-271.946,30.312,-24.150,59.630,20.070
133,47008.309000,250.012,-32.564,20.837,457.169,-277.689,30.144,1.850,37.630,-4.930
134,47008.351000,249.014,-29.558,20.837,461.177,-269.097,31.373,5.850,38.630,-25.930
135,47008.391000,244.023,-28.556,19.845,457.187,-276.690,32.139,21.850,31.630,-25.930
136,47008.431000,254.004,-29.558,18.853,461.054,-277.607,31.136,32.850,0.630,-57.930
137,47008.451000,254.004,-25.550,18.853,467.972,-269.000,31.387,32.850,6.630,-65.930
138,47008.491000,253.006,-25.550,19.845,465.980,-272.758,33.247,62.850,11.630,-57.930
139,47008.531000,252.008,-25.550,17.860,464.107,-268.057,33.374,85.850,-0.370,-55.930
140,47008.571000,252.008,-24.548,13.891,469.974,-265.111,34.450,127.850,-9.370,-61.930
141,47008.612000,253.006,-19.538,14.884,467.972,-269.762,38.251,142.850,-20.370,-38.930
142,47008.652000,255.002,-15.530,16.868,465.174,-262.185,40.425,143.850,-13.370,-17.930
143,47008.692000,251.010,-15.530,12.899,470.000,-264.008,40.382,160.850,-12.370,-32.930
144,47008.728000,250.012,-15.530,11.907,472.044,-257.282,43.523,142.850,-44.370,-48.930
145,47008.748000,256.000,-11.523,4.961,469.045,-263.050,41.391,142.850,-21.370,-35.930
146,47008.790000,255.002,-9.519,2.977,470.079,-259.148,45.435,138.850,-7.370,-11.930
147,47008.829000,255.002,-5.511,1.984,471.012,-261.919,47.327,130.850,-9.370,-8.930
148,47008.871000,255.002,-3.507,-7.938,471.083,-257.164,48.443,140.850,10.630,2.070
149,47008.911000,252.008,-3.507,-2.977,475.840,-263.715,48.269,117.850,4.630,-0.930
150,47008.951000,252.008,-1.503,-6.946,470.079,-259.909,52.300,112.850,-12.370,-0.930
151,47008.992000,254.004,-3.507,-8.930,475.039,-252.328,50.552,61.850,-31.370,-6.930
152,47009.32000,254.004,-2.505,-7.938,473.052,-255.245,48.500,52.850,-38.370,-12.930
153,47009.48000,254.004,-1.503,-9.922,475.054,-251.356,51.562,31.850,-52.370,-17.930
154,47009.90000,253.006,0.501,-8.930,470.032,-262.825,49.268,8.850,-42.370,-9.930
155,47009.137000,255.002,-3.507,-6.946,472.991,-259.107,45.441,1.850,-28.370,-1.930
156,47009.172000,256.000,-2.505,-7.938,469.977,-266.608,49.162,-9.150,-15.370,2.070
157,47009.212000,253.006,-1.503,-8.930,473.089,-252.461,46.610,-16.150,-10.370,11.070
158,47009.248000,256.000,-3.507,-5.953,472.040,-258.096,48.419,-41.150,-8.370,12.070
159,47009.288000,255.002,-4.509,-8.930,475.960,-255.257,46.537,-41.150,-8.370,5.070
160,47009.335000,253.006,-4.509,-4.961,473.046,-255.324,45.547,-43.150,-5.370,4.070
161,47009.349000,255.002,-3.507,-10.915,473.973,-258.174,44.485,-58.150,-3.370,19.070
162,47009.392000,255.002,-4.509,-4.961,471.950,-263.875,44.323,-59.150,9.630,13.070
163,47009.440000,254.004,-6.513,-2.977,472.030,-258.228,43.497,-67.150,10.630,6.070
164,47009.468000,254.004,-4.509,-3.969,471.018,-261.078,43.416,-81.150,31.630,21.070
165,47009.512000,254.004,-5.511,-1.984,470.016,-263.036,41.393,-89.150,30.630,29.070
166,47009.552000,251.010,-9.519,0.992,470.947,-265.833,42.300,-106.150,22.630,28.070
167,47009.591000,248.016,-10.521,-1.984,469.979,-265.820,43.282,-103.150,27.630,52.070
168,47009.633000,256.000,-14.528,1.984,468.971,-267.857,38.306,-102.150,64.630,100.070
169,47009.653000,258.994,-16.532,4.961,468.049,-264.928,42.320,-89.150,27.630,83.070
170,47009.688000,258.994,-17.534,8.930,466.047,-268.817,39.258,-70.150,23.630,38.070
171,47009.728000,253.006,-15.530,13.891,467.055,-266.019,37.370,-58.150,39.630,21.070
172,47009.777000,252.008,-17.534,13.891,465.135,-264.996,41.330,-74.150,20.630,9.070
173,47009.811000,255.002,-21.542,17.860,464.137,-266.901,41.275,-52.150,7.630,-27.930
174,47009.868000,253.006,-22.544,17.860,464.143,-266.061,37.364,-25.150,40.630,-31.930
175,47009.891000,250.012,-22.544,17.860,462.213,-265.930,43.266,-31.150,53.630,-13.930
176,47009.931000,253.006,-24.548,18.853,466.080,-266.847,42.264,-23.150,37.630,-5.930
177,47009.951000,250.012,-25.550,18.853,466.010,-271.602,41.148,-12.150,48.630,-18.930
178,47010.0,251.010,-24.548,16.868,467.069,-265.835,44.261,-22.150,29.630,-10.930
179,47010.35000,254.004,-24.548,18.853,467.055,-266.781,44.234,-27.150,7.630,-8.930
180,47010.70000,253.006,-26.552,17.860,466.110,-264.929,43.301,-16.150,9.630,-13.930
181,47010.110000,252.008,-28.556,16.868,463.196,-264.997,42.310,-28.150,37.630,-15.930
182,47010.153000,250.012,-29.558,18.853,469.053,-262.944,45.328,-14.150,23.630,-34.930
183,47010.193000,250.012,-33.566,15.876,464.086,-270.631,43.139,-8.150,-0.370,-68.930
184,47010.231000,252.008,-39.577,14.884,469.981,-265.794,44.267,46.850,-22.370,-103.930
185,47010.253000,250.012,-39.577,12.899,470.961,-264.887,42.326,112.850,-58.370,-107.930
186,47010.291000,256.000,-29.558,18.853,468.218,-253.528,44.605,63.850,-28.370,-85.930
187,47010.331000,251.010,-29.558,18.853,473.026,-256.349,42.567,3.850,1.630,-86.930
188,47010.373000,245.021,-33.566,20.837,474.011,-255.389,42.596,-90.150,-3.370,-98.930
189,47010.413000,243.025,-28.556,19.845,480.785,-256.318,39.631,-134.150,-42.370,-91.930
190,47010.453000,246.020,-26.552,20.837,478.921,-250.751,36.831,-282.150,-31.370,-22.930
191,47010.493000,251.010,-15.530,18.853,478.814,-257.502,31.725,-369.150,39.630,56.070
192,47010.533000,244.023,21.542,5.953,476.904,-254.824,26.879,-388.150,64.630,237.070
193,47010.560000,273.965,19.538,-39.690,474.766,-267.382,17.673,-571.150,-67.370,291.070
194,47010.592000,290.932,19.538,-22.822,471.950,-260.042,10.987,-678.150,-160.370,22.070
195,47010.632000,285.942,31.562,-34.729,473.902,-257.572,-3.695,-801.150,-22.370,-259.930
196,47010.672000,245.021,35.569,-28.775,477.796,-255.075,-18.373,-1071.150,49.630,-171.930
197,47010.713000,242.027,1.503,-24.806,480.741,-251.541,-29.089,-1160.150,86.630,-41.930
198,47010.750000,241.029,-7.515,-14.884,480.663,-255.613,-40.022,-1156.150,83.630,77.070
199,47010.792000,237.037,-16.532,-33.736,477.794,-251.269,-52.693,-1069.150,134.630,131.070
200,47010.831000,240.031,-21.542,-30.760,482.588,-254.274,-61.621,-1061.150,122.630,206.070
201,47010.850000,243.025,-31.562,-30.760,478.718,-251.860,-75.331,-1006.150,132.630,235.070
202,47010.891000,250.012,-49.597,-23.814,471.766,-262.438,-78.588,-859.150,174.630,221.070
203,47010.935000,258.994,-50.599,-26.791,469.825,-261.704,-85.456,-784.150,234.630,220.070
204,47010.969000,253.006,-40.579,-16.868,468.821,-263.688,-88.464,-721.150,286.630,185.070
205,47011.28000,219.072,-26.552,13.891,476.690,-256.092,-91.190,-707.150,372.630,50.070
206,47011.72000,208.094,-8.517,49.612,474.717,-258.063,-93.215,-778.150,263.630,-67.930
207,47011.89000,212.086,-27.554,33.736,477.770,-247.752,-97.841,-563.150,200.630,-9.930
208,47011.130000,355.805,-128.751,-13.891,477.651,-253.899,-115.718,-365.150,-514.370,101.070
209,47011.150000,350.815,61.620,50.605,478.702,-248.238,-116.542,-318.150,86.630,45.070
210,47011.193000,297.918,38.575,42.667,479.653,-249.249,-119.519,-469.150,210.630,-85.930
211,47011.233000,266.979,-61.620,25.798,478.804,-240.778,-120.269,-307.150,84.630,-35.930
212,47011.272000,213.084,-77.652,45.643,484.536,-247.263,-118.472,102.850,259.630,34.070
213,47011.312000,221.068,-77.652,33.736,481.448,-260.332,-110.972,353.850,100.630,279.070
214,47011.352000,203.103,-108.712,46.636,481.423,-263.720,-96.312,668.850,104.630,168.070
215,47011.396000,227.057,-112.720,66.481,480.477,-263.417,-84.502,1165.850,-5.370,42.070
216,47011.431000,221.068,-95.687,52.589,479.414,-271.521,-68.992,1440.850,-22.370,150.070
217,47011.451000,266.979,-34.568,33.736,476.358,-283.408,-52.606,1416.850,-146.370,342.070
218,47011.491000,284.943,8.517,28.775,476.286,-290.473,-34.114,1268.850,-123.370,330.070
219,47011.539000,244.023,1.503,53.581,475.226,-299.311,-10.755,1136.850,158.630,231.070
220,47011.573000,238.035,13.526,42.667,471.413,-295.399,-3.767,826.850,56.630,109.070
221,47011.613000,225.060,22.544,34.729,469.372,-303.621,7.804,559.850,61.630,72.070
222,47011.651000,228.055,-14.528,45.643,469.488,-296.738,17.831,353.850,128.630,-113.930
223,47011.695000,221.068,-4.509,32.744,468.534,-295.780,18.840,150.850,27.630,-119.930
224,47011.732000,199.111,14.528,54.574,470.459,-296.725,17.833,-50.150,48.630,45.070
225,47011.752000,297.918,-23.546,73.426,473.306,-300.598,12.812,-396.150,-220.370,-302.930
226,47011.799000,269.973,14.528,86.326,479.369,-283.599,9.361,-336.150,-45.370,-331.930
227,47011.833000,224.062,2.505,69.457,482.243,-284.819,-2.471,-556.150,0.630,-148.930
228,47011.875000,228.055,-14.528,86.326,485.233,-278.396,-11.140,-674.150,39.630,-112.930
229,47011.911000,210.090,-29.558,81.364,488.163,-275.833,-22.867,-483.150,-150.370,-275.930
230,47011.951000,253.006,-24.548,75.411,490.308,-260.886,-30.317,-405.150,-334.370,-290.930
231,47011.991000,309.895,-34.568,49.612,489.203,-268.781,-42.341,-296.150,-216.370,-105.930
232,47012.31000,303.906,-75.648,33.736,489.350,-259.193,-37.157,-17.150,74.630,-234.930
233,47012.56000,268.975,-52.603,-6.946,491.443,-248.764,-36.863,133.850,-23.370,-307.930
234,47012.91000,263.984,-13.526,-28.775,493.469,-243.036,-35.717,310.850,6.630,-188.930
235,47012.138000,294.924,10.521,-45.643,492.473,-244.915,-34.787,199.850,-141.370,-191.930
236,47012.173000,262.986,4.509,-27.783,499.411,-235.283,-31.556,214.850,-50.370,-215.930
237,47012.212000,238.035,1.503,-14.884,501.289,-239.905,-28.731,250.850,231.630,-200.930
238,47012.255000,221.068,-7.515,6.946,500.455,-231.250,-22.590,261.850,225.630,-99.930
239,47012.293000,216.078,-12.524,29.767,503.430,-228.082,-11.677,376.850,159.630,-18.930
240,47012.331000,239.033,-2.505,35.721,503.415,-229.816,-5.824,490.850,75.630,25.070
241,47012.353000,253.006,6.513,35.721,498.448,-239.025,5.715,664.850,29.630,101.070
242,47012.394000,247.018,31.562,34.729,499.462,-236.909,13.644,717.850,148.630,130.070
243,47012.434000,238.035,40.579,24.806,491.692,-238.621,24.403,558.850,66.630,123.070
244,47012.474000,254.004,49.597,32.744,487.821,-238.518,30.301,348.850,-20.370,237.070
245,47012.514000,250.012,37.573,31.752,485.772,-246.084,31.071,276.850,-51.370,265.070
246,47012.557000,246.020,25.550,29.767,477.920,-252.682,35.792,185.850,-9.370,310.070
247,47012.592000,234.043,24.548,26.791,477.822,-259.328,34.624,164.850,-75.370,500.070
248,47012.632000,227.057,-1.503,17.860,465.907,-278.300,38.010,169.850,-177.370,563.070
249,47012.652000,255.002,-23.546,30.760,464.866,-283.068,36.892,320.850,-273.370,310.070
250,47012.692000,261.988,-45.589,44.651,457.073,-285.069,36.824,444.850,-329.370,-79.930
251,47012.732000,297.918,-84.665,21.829,464.064,-271.682,39.175,679.850,-256.370,-566.930
252,47012.772000,269.973,-63.624,6.946,467.998,-268.658,44.184,722.850,-52.370,-315.930
253,47012.813000,279.953,-44.587,-8.930,467.162,-260.791,56.205,781.850,-141.370,186.070
254,47012.853000,258.994,-53.605,22.822,460.268,-269.082,67.766,632.850,72.630,211.070
255,47012.893000,254.004,-63.624,12.899,459.378,-264.210,73.801,704.850,96.630,-35.930
256,47012.933000,231.049,-30.560,13.891,464.234,-265.637,88.524,733.850,126.630,-210.930
257,47012.955000,232.047,-29.558,3.969,467.413,-248.311,98.847,748.850,17.630,-196.930
258,47013.2000,235.041,-28.556,8.930,468.467,-244.146,112.735,781.850,-18.370,-192.930
259,47013.37000,259.992,-27.554,0.992,466.627,-238.263,121.748,853.850,-111.370,-114.930
260,47013.72000,252.008,-18.536,-11.907,471.482,-238.168,122.743,775.850,-143.370,-106.930
261,47013.112000,247.018,-19.538,3.969,473.669,-221.907,129.100,829.850,-169.370,-136.930
262,47013.157000,251.010,-5.511,0.992,474.697,-218.846,137.056,979.850,-38.370,-111.930
263,47013.199000,253.006,2.505,-4.961,475.898,-204.332,149.265,977.850,-126.370,-67.930
264,47013.232000,258.994,13.526,4.961,475.924,-203.228,155.198,967.850,39.630,-84.930
265,47013.264000,258.994,47.593,5.953,472.091,-201.102,166.070,752.850,57.630,-5.930
266,47013.293000,256.000,49.597,14.884,476.137,-190.487,172.274,491.850,104.630,43.070
267,47013.332000,275.961,37.573,5.953,472.272,-190.305,181.125,222.850,175.630,13.070
268,47013.376000,248.016,20.540,18.853,474.236,-189.227,185.092,-68.150,222.630,-68.930
269,47013.418000,256.998,18.536,20.837,472.233,-193.116,182.030,-362.150,34.630,-51.930
270,47013.452000,256.000,-0.501,34.729,470.255,-195.928,183.916,-380.150,185.630,14.070
271,47013.494000,242.027,-17.534,36.713,467.232,-202.772,176.835,-339.150,-45.370,87.070
272,47013.533000,298.916,-5.511,52.589,469.184,-202.613,181.761,-214.150,175.630,-54.930
273,47013.557000,252.008,-0.501,57.550,466.146,-211.192,180.533,-272.150,90.630,-334.930
274,47013.595000,203.103,-16.532,70.450,466.288,-201.683,182.765,-129.150,88.630,-156.930
275,47013.633000,201.107,-40.579,46.636,469.095,-208.366,178.650,7.850,-81.370,-4.930
276,47013.672000,226.058,8.517,59.535,471.272,-192.237,180.086,101.850,-9.370,-78.930
277,47013.713000,257.996,5.511,76.403,471.256,-193.209,179.075,142.850,-131.370,-102.930
278,47013.758000,273.965,7.515,55.566,475.180,-190.317,179.162,159.850,-219.370,211.070
279,47013.794000,281.949,-6.513,47.628,471.138,-200.879,174.927,277.850,-100.370,128.070
280,47013.815000,247.018,41.581,40.682,474.176,-192.301,176.154,31.850,0.630,31.070
281,47013.854000,251.010,74.646,21.829,472.078,-202.809,172.908,-292.150,-135.370,15.070
282,47013.893000,251.010,40.579,29.767,475.054,-197.331,164.213,-755.150,-130.370,-119.930
283,47013.934000,259.992,46.591,10.915,478.718,-210.857,151.056,-1102.150,-86.370,-138.930
284,47013.974000,258.994,44.587,15.876,478.703,-210.280,137.301,-1451.150,86.630,-192.930
285,47014.14000,236.039,24.548,9.922,480.557,-214.456,121.450,-1604.150,122.630,-236.930
286,47014.54000,245.021,3.507,0.000,479.398,-226.134,109.320,-1701.150,127.630,-180.930
287,47014.94000,230.051,-2.505,8.930,482.187,-232.293,89.482,-1600.150,10.630,-103.930
288,47014.115000,239.033,-15.530,-15.876,481.133,-235.696,68.729,-1505.150,-174.370,32.070
289,47014.154000,249.014,-4.509,-10.915,479.982,-245.719,47.793,-1582.150,-25.370,149.070
290,47014.195000,252.008,-10.521,-17.860,480.970,-243.184,36.062,-1645.150,158.630,235.070
291,47014.235000,250.012,-59.616,-0.992,475.017,-250.307,20.116,-1588.150,270.630,276.070
292,47014.276000,225.060,-101.699,18.853,468.071,-259.283,6.084,-1371.150,257.630,218.070
293,47014.316000,248.016,-81.659,15.876,467.005,-264.367,-6.846,-1139.150,206.630,240.070
294,47014.356000,254.004,-89.675,13.891,465.011,-267.389,-12.835,-1042.150,292.630,219.070
295,47014.396000,256.000,-96.689,19.845,465.040,-264.711,-18.662,-1067.150,355.630,67.070
296,47014.422000,250.012,-59.616,109.147,472.760,-267.490,-20.694,-820.150,395.630,-217.930
297,47014.456000,259.992,-80.658,97.240,479.827,-248.507,-21.138,-489.150,336.630,-636.930
298,47014.497000,286.940,60.618,69.457,484.751,-242.162,-33.740,-773.150,-105.370,-398.930
299,47014.553000,278.955,68.634,89.302,486.715,-239.534,-42.516,-828.150,485.630,-11.930
300,47014.574000,244.023,-47.593,75.411,488.622,-240.715,-52.382,-962.150,-200.370,-153.930
301,47014.616000,256.998,-2.505,39.690,492.610,-231.625,-67.860,-740.150,-170.370,153.070
302,47014.662000,256.998,-27.554,49.612,484.748,-236.832,-81.788,-576.150,-339.370,210.070
303,47014.696000,264.982,-72.642,55.566,483.738,-238.134,-94.613,-390.150,-223.370,260.070
304,47014.715000,245.021,-89.675,67.473,480.670,-248.630,-96.877,-59.150,-51.370,208.070
305,47014.754000,215.080,-95.687,62.512,480.688,-247.631,-94.882,182.850,-24.370,201.070
306,47014.799000,216.078,-75.648,58.543,474.686,-260.768,-88.373,535.850,-106.370,369.070
307,47014.835000,209.092,-62.622,45.643,474.602,-267.230,-82.651,740.850,-122.370,321.070
308,47014.883000,207.096,-52.603,48.620,472.541,-276.477,-74.059,823.850,-89.370,155.070
309,47014.916000,221.068,-46.591,56.558,473.555,-274.361,-66.130,960.850,-232.370,60.070
310,47014.956000,237.037,-51.601,56.558,471.469,-285.473,-56.606,1016.850,-234.370,87.070
311,47014.997000,242.027,-41.581,46.636,471.482,-286.076,-43.836,1019.850,-179.370,110.070
312,47015.17000,250.012,-52.603,50.605,469.558,-285.867,-34.981,1066.850,-162.370,99.070
313,47015.57000,237.037,-46.591,55.566,464.576,-296.048,-24.453,1045.850,-254.370,94.070
314,47015.93000,227.057,-19.538,48.620,467.555,-292.066,-18.435,914.850,-334.370,32.070
315,47015.138000,219.072,-29.558,51.597,466.520,-297.517,-9.736,793.850,-279.370,-134.930
316,47015.185000,230.051,-47.593,44.651,475.445,-284.968,-4.454,744.850,-387.370,-253.930
317,47015.217000,265.980,-31.562,34.729,477.376,-285.072,-9.372,629.850,-514.370,-74.930
318,47015.257000,273.965,0.501,19.845,479.339,-283.233,-12.268,575.850,-483.370,112.070
319,47015.297000,281.949,2.505,17.860,479.329,-284.126,-10.326,609.850,-285.370,112.070
320,47015.317000,278.955,-4.509,19.845,480.258,-286.949,-10.403,413.850,-238.370,137.070
321,47015.362000,257.996,-20.540,0.992,474.329,-294.544,-8.657,507.850,-238.370,68.070
322,47015.396000,257.996,-9.519,15.876,477.339,-288.618,-0.618,593.850,-106.370,-8.930
323,47015.437000,261.988,13.526,3.969,475.408,-288.514,4.300,503.850,-55.370,-57.930
324,47015.476000,256.000,-4.509,-24.806,480.373,-280.854,5.505,597.850,-226.370,-145.930
325,47015.516000,251.010,-6.513,-15.876,482.289,-282.691,6.440,553.850,-145.370,-152.930
326,47015.556000,251.010,-3.507,-34.729,486.305,-273.994,11.607,536.850,-214.370,-155.930
327,47015.596000,263.984,-1.503,-22.822,487.235,-277.578,18.394,524.850,-65.370,-70.930
328,47015.616000,234.043,-5.511,-33.736,487.214,-279.391,21.295,449.850,-45.370,-14.930
329,47015.656000,225.060,-8.517,-23.814,484.302,-280.193,28.153,385.850,42.630,126.070
330,47015.696000,255.002,-26.552,-8.930,483.408,-275.374,32.220,398.850,-39.370,230.070
331,47015.736000,283.945,-20.540,1.984,478.430,-284.741,37.852,458.850,-109.370,113.070
332,47015.779000,275.961,-2.505,-4.961,481.414,-279.919,39.959,448.850,-111.370,2.070
333,47015.837000,256.998,22.544,-29.767,479.408,-284.622,41.792,188.850,-119.370,20.070
334,47015.859000,260.990,0.501,-34.729,478.512,-279.067,38.010,-130.150,-24.370,12.070
335,47015.880000,260.990,-13.526,-13.891,479.402,-284.701,38.839,-37.150,78.630,-8.930
336,47015.918000,238.035,-18.536,-16.868,478.485,-281.719,44.822,-46.150,146.630,19.070
337,47015.958000,238.035,-18.536,-2.977,477.434,-287.381,45.646,-104.150,153.630,80.070
338,47015.998000,259.992,11.523,-10.915,481.352,-284.568,42.780,-194.150,82.630,153.070
339,47016.38000,282.947,24.548,-26.791,473.498,-290.431,39.653,-548.150,6.630,98.070
340,47016.78000,263.984,10.521,-15.876,473.468,-291.587,31.752,-549.150,43.630,-50.930
341,47016.118000,256.000,2.505,-14.884,472.540,-287.976,25.949,-566.150,97.630,-80.930
342,47016.158000,238.035,4.509,-7.938,471.550,-289.014,22.968,-429.150,244.630,58.070
343,47016.185000,232.047,3.507,1.984,466.538,-300.352,25.595,-449.150,287.630,145.070
344,47016.218000,236.039,15.530,4.961,462.680,-298.542,24.655,-163.150,85.630,169.070
345,47016.258000,234.043,27.554,-10.915,458.774,-300.435,26.563,-61.150,92.630,219.070
346,47016.298000,230.051,26.552,8.930,455.784,-306.098,28.368,-194.150,114.630,215.070
347,47016.338000,306.901,-41.581,32.744,452.827,-309.029,26.314,-258.150,151.630,-54.930
348,47016.378000,350.815,-75.648,89.302,453.870,-304.995,35.280,65.850,341.630,-308.930
349,47016.418000,281.949,-124.744,84.341,453.981,-298.953,49.219,173.850,561.630,-206.930
350,47016.458000,258.994,-90.677,71.442,454.984,-298.518,64.971,380.850,460.630,-196.930
351,47016.481000,208.094,-26.552,21.829,452.201,-291.519,80.898,237.850,340.630,-42.930
352,47016.517000,220.070,-62.622,37.705,446.275,-299.061,84.613,-94.150,302.630,50.070
353,47016.567000,207.096,-77.652,33.736,444.359,-297.985,90.541,-103.150,331.630,42.070
354,47016.596000,210.090,-102.701,31.752,440.467,-298.933,92.476,206.850,-3.370,9.070
355,47016.637000,209.092,-65.628,41.674,443.426,-295.976,95.514,203.850,-54.370,-23.930
356,47016.683000,227.057,-30.560,34.729,445.393,-294.083,94.586,245.850,-210.370,-88.930
357,47016.717000,226.058,-28.556,49.612,449.340,-289.353,92.757,139.850,-306.370,-80.930
358,47016.759000,240.031,-44.587,38.698,452.169,-294.224,85.741,1.850,-370.370,-109.930
359,47016.779000,259.992,-31.562,39.690,452.245,-287.868,76.082,3.850,-287.370,-88.930
360,47016.819000,257.996,-48.595,46.636,452.265,-286.082,72.197,-51.150,-285.370,-46.930
361,47016.859000,243.025,-53.605,44.651,450.323,-285.348,65.329,-141.150,-200.370,-40.930
362,47016.900000,249.014,-46.591,43.659,454.206,-284.531,58.473,-137.150,-211.370,2.070
363,47016.939000,253.006,-63.624,46.636,453.195,-286.594,52.512,-130.150,-161.370,5.070
364,47016.978000,241.029,-57.613,39.690,455.115,-287.618,48.553,-117.150,-89.370,9.070
365,47017.18000,251.010,-38.575,28.775,454.050,-294.225,49.351,-184.150,-110.370,34.070
366,47017.58000,256.000,-35.569,6.946,459.924,-289.651,40.635,-353.150,-119.370,29.070
367,47017.78000,255.002,-51.601,18.853,459.914,-289.021,28.850,-452.150,-53.370,-48.930
368,47017.126000,250.012,-66.630,11.907,462.798,-290.110,21.939,-390.150,-32.370,-107.930
369,47017.159000,245.021,-68.634,13.891,458.888,-292.056,21.878,-318.150,-17.370,-123.930
370,47017.199000,231.049,-64.626,10.915,461.821,-289.441,12.120,-296.150,-46.370,-137.930
371,47017.246000,243.025,-54.607,9.922,465.778,-283.818,8.348,-295.150,25.630,-177.930
372,47017.279000,248.016,-63.624,17.860,470.724,-277.182,6.574,-298.150,100.630,-227.930
373,47017.319000,246.020,-76.650,13.891,476.559,-276.181,5.628,-205.150,163.630,-262.930
374,47017.359000,246.020,-83.663,10.915,482.623,-259.943,9.041,-88.150,221.630,-258.930
375,47017.379000,280.951,-50.599,39.690,484.547,-261.676,13.914,117.850,191.630,-131.930
376,47017.419000,313.887,-26.552,12.899,485.624,-255.672,25.886,194.850,600.630,184.070
377,47017.459000,254.004,-25.550,22.822,484.570,-262.909,38.470,562.850,340.630,94.070
378,47017.499000,251.010,52.603,20.837,483.667,-259.743,51.343,502.850,386.630,102.070
379,47017.539000,277.957,103.703,30.760,486.618,-257.653,57.308,185.850,60.630,-103.930
380,47017.579000,265.980,74.646,19.845,489.567,-254.827,55.424,-59.150,-95.370,-178.930
381,47017.618000,236.039,26.552,24.806,493.366,-260.472,54.290,-192.150,57.630,-100.930
382,47017.658000,229.053,3.507,24.806,492.466,-255.732,55.404,-72.150,137.630,-21.930
383,47017.678000,218.074,-21.542,43.659,497.382,-251.775,59.457,153.850,-63.370,21.070
384,47017.718000,226.058,-32.564,44.651,496.390,-253.601,62.355,403.850,-77.370,71.070
385,47017.759000,232.047,-22.544,55.566,491.509,-256.322,69.157,709.850,27.630,172.070
386,47017.800000,236.039,-4.509,51.597,490.494,-260.748,80.835,886.850,38.630,341.070
387,47017.837000,239.033,-21.542,75.411,487.569,-263.258,94.531,971.850,29.630,338.070
388,47017.877000,250.012,-12.524,68.465,483.648,-267.646,109.156,1205.850,-31.370,238.070
389,47017.917000,234.043,5.511,47.628,484.773,-258.727,124.161,1171.850,-130.370,288.070
390,47017.958000,198.113,34.568,40.682,479.745,-271.798,132.641,985.850,-233.370,526.070
391,47017.978000,261.988,34.568,46.636,474.925,-269.896,135.637,750.850,-402.370,522.070
392,47018.18000,301.910,39.577,26.791,468.917,-282.351,132.329,492.850,-376.370,223.070
393,47018.58000,275.961,28.556,34.729,475.872,-270.960,130.691,203.850,-136.370,-109.930
394,47018.98000,276.959,14.528,42.667,474.874,-272.865,130.636,120.850,-92.370,-101.930
395,47018.141000,279.953,-17.534,32.744,480.767,-268.054,130.780,21.850,43.630,-57.930
396,47018.181000,245.021,-16.532,30.760,481.700,-270.824,132.671,75.850,8.630,15.070
397,47018.235000,238.035,-19.538,16.868,477.906,-265.127,135.774,81.850,-21.370,29.070
398,47018.248000,249.014,-30.560,13.891,478.818,-268.948,133.702,156.850,52.630,-73.930
399,47018.277000,240.031,-35.569,-1.984,474.110,-259.455,137.893,216.850,-6.370,-127.930
400,47018.317000,249.014,-17.534,-5.953,479.908,-261.238,138.837,240.850,-131.370,-78.930
401,47018.368000,262.986,-13.526,0.992,477.108,-253.688,140.026,208.850,-129.370,23.070
402,47018.403000,248.016,-21.542,3.969,478.054,-255.539,140.959,184.850,-49.370,82.070
403,47018.438000,248.016,-19.538,5.953,476.083,-257.484,139.918,129.850,-133.370,103.070
404,47018.478000,246.020,-6.513,9.922,480.989,-253.659,139.049,120.850,-89.370,77.070
405,47018.518000,252.008,-2.505,12.899,473.167,-257.578,137.943,73.850,-68.370,86.070
406,47018.538000,252.008,-3.507,13.891,478.941,-260.437,133.939,-0.150,-77.370,65.070
407,47018.578000,256.998,-14.528,17.860,476.043,-259.533,133.960,8.850,-91.370,24.070
408,47018.618000,257.996,-41.581,5.953,474.143,-256.724,134.034,176.850,-31.370,-60.930
409,47018.674000,261.988,-35.569,1.984,474.110,-259.455,137.893,258.850,-23.370,-13.930
410,47018.699000,259.992,-33.566,10.915,477.097,-254.607,140.984,316.850,40.630,32.070
411,47018.743000,248.016,-44.587,14.884,475.181,-253.531,146.912,435.850,54.630,-7.930
412,47018.777000,243.025,-38.575,15.876,472.340,-249.579,154.886,530.850,-3.370,-41.930
413,47018.818000,247.018,-26.552,15.876,473.453,-240.817,163.984,689.850,-37.370,-142.930
414,47018.837000,244.023,-14.528,5.953,477.487,-231.122,171.146,710.850,-39.370,-232.930
415,47018.878000,255.002,-0.501,-3.969,478.625,-220.496,179.312,665.850,-84.370,-274.930
416,47018.918000,259.992,4.509,-2.977,483.703,-206.005,188.576,641.850,37.630,-299.930
417,47018.963000,256.998,3.507,3.969,487.662,-201.117,192.653,589.850,54.630,-289.930
418,47018.998000,260.990,12.524,-0.992,489.812,-187.640,200.901,611.850,74.630,-222.930
419,47019.49000,265.980,18.536,-0.992,487.979,-180.890,206.987,565.850,114.630,-189.930
420,47019.89000,260.990,17.534,12.899,485.313,-165.459,220.199,580.850,155.630,-133.930
421,47019.123000,257.996,21.542,2.977,483.465,-159.681,225.274,603.850,134.630,-30.930
422,47019.138000,264.982,24.548,3.969,477.606,-163.283,235.000,593.850,133.630,83.070
423,47019.178000,277.957,62.622,18.853,477.634,-162.153,241.917,266.850,9.630,226.070
424,47019.227000,256.000,33.566,33.736,469.817,-165.993,243.764,-124.150,178.630,173.070
425,47019.262000,233.045,-55.609,41.674,470.727,-170.602,247.572,-227.150,37.630,44.070
426,47019.298000,242.027,-4.509,71.442,467.778,-172.666,242.592,-359.150,-96.370,16.070
427,47019.340000,262.986,15.530,57.550,469.668,-175.607,237.595,-414.150,29.630,50.070
428,47019.381000,269.973,-10.521,59.535,469.511,-186.088,234.352,-538.150,43.630,-45.930
429,47019.420000,257.996,8.517,45.643,468.563,-184.263,232.434,-548.150,80.630,-79.930
430,47019.446000,262.986,24.548,43.659,466.425,-197.582,230.093,-697.150,53.630,-142.930
431,47019.478000,233.045,13.526,20.837,461.570,-196.916,222.234,-858.150,-52.370,-219.930
432,47019.522000,213.084,9.519,35.721,460.591,-197.035,218.295,-765.150,236.630,-230.930
433,47019.562000,232.047,2.505,41.674,468.256,-202.836,209.294,-756.150,-111.370,-171.930
434,47019.602000,234.043,1.503,37.705,470.065,-211.424,205.124,-659.150,-34.370,-114.930
435,47019.642000,226.058,-2.505,32.744,471.049,-208.942,191.424,-613.150,-156.370,-26.930
436,47019.682000,244.023,-7.515,23.814,471.843,-220.434,185.204,-534.150,-139.370,42.070
437,47019.722000,252.008,-8.517,18.853,468.905,-221.579,179.266,-407.150,-37.370,150.070
438,47019.742000,233.045,-15.530,1.984,463.849,-235.018,173.965,-430.150,-16.370,253.070
439,47019.782000,246.020,0.501,0.992,459.929,-237.096,168.983,-441.150,-76.370,307.070
440,47019.822000,240.031,5.511,10.915,454.828,-253.425,161.635,-529.150,-4.370,430.070
441,47019.858000,236.039,-17.534,8.930,448.831,-264.960,157.369,-612.150,18.630,470.070
442,47019.898000,215.080,-17.534,52.589,437.813,-287.177,144.930,-672.150,-2.370,596.070
443,47019.938000,398.721,-141.777,51.597,434.849,-289.425,133.059,-514.150,-285.370,-82.930
444,47019.978000,297.918,-52.603,76.403,440.761,-282.828,129.318,-339.150,126.630,-541.930
445,47020.18000,229.053,11.523,19.845,442.767,-277.364,120.621,-480.150,0.630,-281.930
446,47020.44000,244.023,-46.591,72.434,446.626,-278.386,115.681,-528.150,162.630,-236.930
447,47020.80000,255.002,-108.712,73.426,447.645,-274.669,112.835,-333.150,187.630,-289.930
448,47020.121000,221.068,-59.616,79.380,449.677,-268.863,116.934,-82.150,-11.370,-214.930
449,47020.161000,226.058,-39.577,56.558,450.538,-276.414,116.726,-61.150,153.630,-91.930
450,47020.200000,239.033,-52.603,56.558,451.717,-262.189,118.107,7.850,-24.370,-43.930
451,47020.244000,238.035,-33.566,46.636,453.646,-263.081,119.069,83.850,10.630,-63.930
452,47020.281000,233.045,-16.532,45.643,453.688,-260.244,119.148,5.850,20.630,-60.930
453,47020.321000,236.039,-30.560,43.659,453.613,-265.051,116.063,-62.150,-83.370,-116.930
454,47020.341000,247.018,-33.566,45.643,459.417,-265.993,113.096,-87.150,-181.370,-111.930
455,47020.381000,246.020,-46.591,45.643,461.413,-261.422,106.341,-149.150,-209.370,-97.930
456,47020.421000,239.033,-40.579,37.705,465.341,-257.716,101.533,-166.150,-232.370,-89.930
457,47020.461000,242.027,-26.552,36.713,467.303,-255.115,91.773,-182.150,-247.370,-95.930
458,47020.501000,264.982,-16.532,54.574,469.228,-255.298,83.902,-319.150,-216.370,-68.930
459,47020.542000,264.982,-19.538,47.628,471.020,-264.885,77.737,-457.150,-61.370,167.070
460,47020.587000,220.070,29.558,5.953,462.183,-270.919,68.701,-493.150,-29.370,512.070
461,47020.622000,287.938,12.524,-35.721,461.039,-281.625,57.582,-905.150,-258.370,298.070
462,47020.647000,311.891,-1.503,-17.860,463.050,-274.559,38.110,-724.150,-185.370,-316.930
463,47020.685000,256.998,31.562,-11.907,468.823,-276.683,26.257,-689.150,59.630,-284.930
464,47020.720000,235.041,29.558,-34.729,469.883,-268.606,9.762,-1118.150,1.630,-63.930
465,47020.761000,231.049,8.517,-25.798,474.732,-267.829,0.939,-1185.150,89.630,107.070
466,47020.801000,237.037,-33.566,-36.713,466.775,-279.629,-12.189,-1144.150,162.630,220.070
467,47020.842000,231.049,-53.605,-26.791,462.772,-286.619,-24.194,-987.150,172.630,308.070
468,47020.882000,238.035,-59.616,-17.860,458.917,-284.022,-31.013,-863.150,239.630,302.070
469,47020.928000,249.014,-71.640,-21.829,457.820,-291.811,-39.100,-765.150,113.630,223.070
470,47020.949000,245.021,-75.648,-12.899,456.900,-288.095,-40.966,-557.150,219.630,166.070
471,47020.983000,264.982,-71.640,0.000,458.840,-288.094,-41.946,-383.150,319.630,124.070
472,47021.34000,261.988,-76.650,22.822,454.957,-288.149,-41.954,-236.150,103.630,-49.930
473,47021.62000,256.998,-69.636,51.597,463.734,-285.188,-41.857,-130.150,193.630,-190.930
474,47021.102000,302.908,-47.593,21.829,466.607,-287.957,-40.946,-75.150,61.630,-273.930
475,47021.142000,286.940,47.593,32.744,471.588,-279.325,-38.730,-143.150,262.630,-55.930
476,47021.183000,227.057,5.511,59.535,469.564,-285.027,-38.892,-52.150,48.630,31.070
477,47021.219000,228.055,-65.628,67.473,473.535,-279.219,-35.773,90.850,-0.370,-22.930
478,47021.242000,270.971,-41.581,34.729,474.478,-281.096,-35.824,156.850,-71.370,-1.930
479,47021.282000,252.008,-8.517,51.597,472.504,-283.855,-31.969,373.850,90.630,82.070
480,47021.322000,256.998,-33.566,36.713,469.618,-282.793,-26.043,206.850,-8.370,167.070
481,47021.363000,219.072,-51.601,41.674,468.439,-297.779,-20.560,209.850,113.630,137.070
482,47021.403000,216.078,-55.609,46.636,466.604,-291.055,-15.458,267.850,111.630,149.070
483,47021.443000,213.084,-63.624,42.667,471.381,-296.581,-12.653,324.850,-30.370,177.070
484,47021.483000,218.074,-78.654,51.597,471.285,-303.962,-5.973,393.850,-3.370,88.070
485,47021.526000,210.090,-65.628,63.504,472.368,-296.357,-4.776,389.850,-271.370,-105.930
486,47021.539000,228.055,-26.552,50.605,475.239,-299.153,-4.849,568.850,-334.370,-208.930
487,47021.581000,226.058,-45.589,50.605,479.268,-288.748,-6.520,515.850,-247.370,-341.930
488,47021.621000,253.006,-42.583,41.674,490.097,-278.957,0.656,579.850,-181.370,-396.930
489,47021.661000,284.943,-14.528,29.767,494.047,-274.961,6.675,748.850,-258.370,-141.930
490,47021.701000,290.932,11.523,26.791,492.159,-271.994,12.656,636.850,-98.370,92.070
491,47021.744000,268.975,-10.521,2.977,491.108,-278.416,20.345,423.850,-35.370,260.070
492,47021.794000,248.016,10.521,-2.977,492.077,-279.190,26.226,692.850,-20.370,-84.930
493,47021.822000,260.990,30.560,7.938,496.094,-270.493,31.393,613.850,-101.370,-98.930
494,47021.842000,255.002,33.566,-0.992,498.047,-270.308,37.303,555.850,-112.370,22.070
495,47021.882000,251.010,32.564,11.907,503.897,-269.121,43.248,432.850,43.630,-31.930
496,47021.922000,251.010,24.548,21.829,502.999,-264.354,45.346,173.850,-25.370,-109.930
497,47021.969000,254.004,7.515,27.783,500.969,-270.896,49.095,241.850,45.630,-105.930
498,47022.3000,243.025,3.507,20.837,506.911,-263.143,53.255,206.850,7.630,-71.930
499,47022.43000,246.020,6.513,4.961,505.904,-265.941,55.143,176.850,-61.370,-49.930
500,47022.84000,246.020,11.523,4.961,509.869,-260.212,55.309,226.850,-20.370,-23.930
501,47022.126000,263.984,1.503,16.868,502.027,-265.917,58.088,247.850,82.630,70.070
502,47022.141000,254.004,-2.505,21.829,502.116,-260.926,68.063,347.850,292.630,227.070
503,47022.181000,242.027,-4.509,22.822,496.236,-266.340,80.689,344.850,235.630,173.070
504,47022.224000,238.035,-17.534,41.674,499.188,-265.011,93.518,442.850,198.630,97.070
505,47022.261000,259.992,-28.556,49.612,499.131,-269.581,99.293,698.850,226.630,162.070
506,47022.301000,243.025,-14.528,51.597,491.437,-267.220,120.985,941.850,390.630,272.070
507,47022.341000,248.016,-7.515,47.628,484.599,-272.490,139.515,750.850,247.630,370.070
508,47022.381000,240.031,25.550,66.481,479.752,-274.003,156.186,662.850,142.630,371.070
509,47022.422000,227.057,33.566,56.558,473.824,-281.571,158.917,423.850,-33.370,385.070
510,47022.449000,238.035,26.552,41.674,467.010,-283.453,162.787,317.850,-191.370,385.070
511,47022.483000,274.963,3.507,46.636,465.898,-292.976,160.553,179.850,-207.370,267.070
512,47022.523000,252.008,-31.562,37.705,462.188,-281.578,164.798,271.850,-68.370,-54.930
513,47022.563000,211.088,-33.566,19.845,465.120,-280.512,167.784,324.850,50.630,-150.930
514,47022.603000,235.041,-39.577,20.837,466.225,-271.856,172.945,521.850,-59.370,-87.930
515,47022.642000,304.904,-46.591,18.853,471.155,-266.954,177.024,542.850,-83.370,-31.930
516,47022.683000,275.961,-36.571,18.853,467.367,-261.177,183.080,453.850,-158.370,-81.930
517,47022.723000,261.988,-41.581,19.845,470.397,-253.466,187.234,448.850,-53.370,-117.930
518,47022.743000,254.004,-49.597,25.798,469.562,-244.811,193.375,575.850,10.630,-151.930
519,47022.783000,248.016,-34.568,14.884,474.494,-239.882,198.438,735.850,-89.370,-295.930
520,47022.829000,240.031,-21.542,9.922,479.695,-216.881,207.939,853.850,-52.370,-325.930
521,47022.863000,245.021,5.511,0.000,481.810,-206.162,219.060,926.850,21.630,-267.930
522,47022.902000,248.016,26.552,0.992,482.836,-203.127,226.032,846.850,15.630,-182.930
523,47022.942000,244.023,27.554,18.853,482.186,-182.100,235.468,762.850,157.630,-158.930
524,47022.982000,239.033,34.568,19.845,478.394,-177.138,246.419,771.850,130.630,-68.930
525,47023.22000,245.021,18.536,18.853,476.670,-163.610,258.596,804.850,123.630,14.070
526,47023.50000,218.074,16.532,46.636,474.693,-166.396,261.466,621.850,-90.370,228.070
527,47023.84000,294.924,52.603,57.550,467.928,-165.336,269.353,432.850,214.630,418.070
528,47023.123000,307.899,-34.568,33.736,466.982,-164.272,274.299,191.850,43.630,135.070
529,47023.163000,261.988,-23.546,89.302,460.136,-168.098,276.148,-90.150,111.630,-179.930
530,47023.219000,253.006,-18.536,58.543,461.236,-159.495,279.340,34.850,85.630,-150.930
531,47023.293000,240.031,-5.511,45.643,462.158,-162.423,275.326,-56.150,-93.370,-150.930
532,47023.311000,233.045,10.521,41.674,468.986,-159.596,271.482,-174.150,-177.370,-60.930
533,47023.337000,256.998,28.556,44.651,467.060,-157.890,265.624,-342.150,-164.370,-61.930
534,47023.345000,256.000,51.601,46.636,465.912,-169.409,259.400,-610.150,-84.370,-101.930
535,47023.384000,236.039,37.573,41.674,470.694,-173.333,251.430,-833.150,-157.370,-123.930
536,47023.424000,242.027,12.524,48.620,470.633,-176.434,241.508,-936.150,-121.370,-187.930
537,47023.464000,237.037,6.513,45.643,473.407,-184.326,227.523,-968.150,-137.370,-230.930
538,47023.507000,247.018,0.501,50.605,480.088,-190.298,212.614,-910.150,-234.370,-225.930
539,47023.542000,235.041,-20.540,41.674,482.033,-188.696,200.858,-715.150,-202.370,-204.930
540,47023.582000,226.058,-12.524,35.721,484.002,-186.015,194.051,-567.150,-198.370,-130.930
541,47023.622000,234.043,1.503,27.783,483.850,-195.656,186.897,-468.150,-146.370,-44.930
542,47023.646000,236.039,1.503,12.899,482.812,-198.849,174.020,-409.150,-169.370,163.070
543,47023.686000,232.047,-2.505,5.953,484.517,-214.162,165.728,-508.150,-165.370,277.070
544,47023.726000,243.025,-0.501,6.946,480.530,-220.942,161.598,-423.150,-188.370,383.070
545,47023.764000,254.004,-7.515,12.899,473.513,-235.433,153.314,-534.150,-107.370,407.070
546,47023.804000,257.996,-14.528,15.876,472.395,-245.035,148.127,-438.150,-35.370,362.070
547,47023.844000,277.957,-32.564,22.822,463.443,-259.475,142.792,-420.150,-6.370,309.070
548,47023.891000,265.980,-51.601,45.643,460.491,-261.565,136.828,-466.150,114.630,151.070
549,47023.925000,279.953,-45.589,61.519,465.258,-267.223,134.711,-251.150,34.630,-189.930
550,47023.945000,249.014,-28.556,59.535,466.444,-252.132,133.166,-216.150,34.630,-240.930
551,47023.986000,232.047,-30.560,37.705,466.324,-259.828,128.033,-243.150,-16.370,-110.930
552,47024.26000,233.045,-49.597,53.581,466.452,-250.504,123.375,-268.150,27.630,-131.930
553,47024.67000,238.035,-51.601,54.574,474.138,-255.254,118.338,-260.150,-90.370,-198.930
554,47024.102000,251.010,-33.566,55.566,476.089,-254.333,116.399,-250.150,-209.370,-180.930
555,47024.142000,254.004,-22.544,53.581,479.024,-251.692,107.625,-264.150,-113.370,-128.930
556,47024.183000,235.041,-3.507,34.729,479.077,-247.174,99.882,-417.150,-85.370,121.070
557,47024.223000,256.000,19.538,-8.930,476.049,-254.098,89.848,-485.150,-221.370,279.070
558,47024.243000,269.973,7.515,-27.783,473.007,-261.968,79.788,-688.150,-277.370,239.070
559,47024.283000,309.895,-14.528,-12.899,475.816,-267.864,69.793,-529.150,80.630,-159.930
560,47024.323000,257.996,7.515,0.992,477.910,-256.647,64.207,-530.150,121.630,-226.930
561,47024.364000,238.035,7.515,-5.953,482.679,-261.517,56.210,-733.150,133.630,-77.930
562,47024.404000,236.039,2.505,0.992,474.939,-259.762,55.263,-794.150,123.630,38.070
563,47024.444000,244.023,-5.511,-7.938,478.697,-266.695,41.306,-867.150,144.630,110.070
564,47024.485000,245.021,-4.509,-14.884,477.702,-267.786,36.356,-920.150,154.630,138.070
565,47024.525000,248.016,-14.528,-15.876,476.602,-275.628,26.299,-1040.150,165.630,182.070
566,47024.545000,237.037,-33.566,-15.876,471.577,-286.362,16.156,-937.150,145.630,226.070
567,47024.586000,247.018,-44.587,-7.938,468.684,-283.856,5.401,-955.150,127.630,229.070
568,47024.626000,248.016,-60.618,-3.969,466.501,-299.303,-5.852,-939.150,197.630,255.070
569,47024.666000,248.016,-73.644,3.969,458.788,-294.895,-13.611,-797.150,265.630,201.070
570,47024.707000,255.002,-76.650,6.946,461.562,-303.549,-20.732,-704.150,161.630,88.070
571,47024.746000,259.992,-82.661,28.775,463.653,-293.146,-21.423,-442.150,230.630,-55.930
572,47024.793000,244.023,-62.622,25.798,465.509,-298.819,-22.561,-397.150,292.630,-70.930
573,47024.827000,256.000,-47.593,54.574,470.473,-291.185,-22.340,-269.150,212.630,-171.930
574,47024.847000,279.953,-25.550,54.574,473.445,-286.521,-26.140,-334.150,156.630,-268.930
575,47024.888000,269.973,16.532,64.496,479.375,-278.926,-27.886,-247.150,99.630,-79.930
576,47024.926000,230.051,3.507,76.403,480.309,-281.696,-25.994,-93.150,-32.370,-4.930
577,47024.976000,256.998,-44.587,54.574,478.365,-280.989,-33.847,-99.150,-167.370,40.070
578,47025.4000,258.994,-44.587,41.674,481.192,-286.648,-34.983,46.850,-92.370,53.070
579,47025.44000,264.982,-44.587,48.620,474.512,-279.126,-32.818,163.850,-17.370,69.070
580,47025.85000,248.016,-44.587,45.643,476.239,-294.150,-30.282,182.850,-30.370,134.070
581,47025.105000,221.068,-61.620,47.628,474.306,-294.072,-26.349,238.850,87.630,128.070
582,47025.144000,215.080,-69.636,46.636,472.190,-306.340,-24.726,358.850,6.630,144.070
583,47025.184000,213.084,-68.634,41.674,476.274,-293.702,-13.548,550.850,-30.370,112.070
584,47025.225000,225.060,-41.581,42.667,475.240,-298.365,-10.729,506.850,-132.370,-0.930
585,47025.267000,226.058,-20.540,54.574,479.143,-297.285,-7.741,436.850,-155.370,-60.930
586,47025.315000,241.029,-27.554,52.589,480.100,-298.217,-7.766,318.850,-253.370,-145.930
587,47025.343000,235.041,-40.579,43.659,483.172,-286.881,-9.412,426.850,-293.370,-239.930
588,47025.383000,238.035,-50.599,32.744,486.090,-286.761,-6.453,528.850,-297.370,-244.930
589,47025.403000,256.000,-31.562,28.775,489.993,-285.681,-3.466,600.850,-255.370,-118.930
590,47025.443000,276.959,6.513,30.760,492.940,-282.882,-6.334,562.850,-311.370,-15.930
591,47025.490000,286.940,-10.521,28.775,488.062,-285.577,1.452,479.850,-192.370,92.070
592,47025.524000,267.977,-32.564,18.853,492.035,-279.743,5.555,507.850,-51.370,0.070
593,47025.564000,256.998,4.509,18.853,494.908,-283.274,13.331,728.850,75.630,-129.930
594,47025.606000,268.975,15.530,7.938,499.891,-275.377,23.395,714.850,34.630,-69.930
595,47025.646000,257.996,15.530,-0.992,500.841,-277.937,33.161,677.850,-52.370,-86.930
596,47025.687000,250.012,19.538,-8.930,504.889,-267.295,40.349,566.850,-30.370,-152.930
597,47025.707000,253.006,25.550,-8.930,503.887,-270.014,45.190,432.850,67.630,-86.930
598,47025.747000,252.008,10.521,2.977,504.988,-262.172,55.246,319.850,245.630,18.070
599,47025.787000,227.057,-9.519,14.884,506.877,-266.662,62.993,382.850,228.630,98.070
600,47025.827000,229.053,-30.560,25.798,501.103,-265.325,80.726,601.850,211.630,197.070
601,47025.864000,271.969,-17.534,27.783,498.134,-269.937,86.494,766.850,225.630,273.070
602,47025.904000,261.988,7.515,41.674,494.282,-270.358,108.115,669.850,299.630,201.070
603,47025.944000,244.023,14.528,50.605,492.251,-278.449,124.608,685.850,376.630,193.070
604,47025.986000,230.051,-5.511,51.597,483.609,-274.290,143.398,724.850,318.630,315.070
605,47026.6000,218.074,-22.544,64.496,478.636,-284.339,158.848,518.850,264.630,366.070
606,47026.65000,263.984,1.503,55.566,473.903,-276.711,163.970,510.850,73.630,339.070
607,47026.91000,247.018,12.524,31.752,468.018,-281.417,167.764,306.850,-135.370,287.070
608,47026.126000,251.010,10.521,41.674,468.856,-290.807,169.471,211.850,-111.370,184.070
609,47026.167000,264.982,-13.526,51.597,467.862,-292.659,171.385,205.850,-52.370,139.070
610,47026.207000,253.006,-23.546,40.682,465.920,-292.687,171.381,348.850,-119.370,64.070
611,47026.251000,247.018,-22.544,26.791,463.176,-282.115,179.539,358.850,-14.370,57.070
612,47026.285000,245.021,-26.552,19.845,462.173,-284.073,177.516,328.850,-85.370,19.070
613,47026.306000,240.031,-37.573,26.791,463.337,-271.582,184.751,438.850,-151.370,-48.930
614,47026.345000,264.982,-50.599,19.845,465.172,-279.067,186.513,522.850,-147.370,-115.930
615,47026.384000,264.982,-37.573,18.853,467.377,-261.046,188.001,551.850,-105.370,-131.930
616,47026.424000,255.002,-33.566,19.845,473.256,-257.942,194.983,555.850,-121.370,-145.930
617,47026.464000,251.010,-23.546,14.884,472.447,-247.422,200.192,641.850,-178.370,-204.930
618,47026.504000,250.012,-14.528,18.853,479.515,-229.201,206.612,658.850,-152.370,-307.930
619,47026.544000,241.029,1.503,17.860,479.670,-218.746,208.871,699.850,-62.370,-364.930
620,47026.588000,243.025,7.515,12.899,487.638,-205.266,214.177,692.850,-69.370,-369.930
621,47026.608000,246.020,22.544,17.860,489.854,-187.087,221.572,682.850,5.630,-333.930
622,47026.648000,246.020,20.540,19.845,489.022,-179.167,235.561,703.850,91.630,-265.930
623,47026.688000,242.027,18.536,23.814,493.107,-165.742,240.860,828.850,132.630,-114.930
624,47026.727000,256.000,28.556,18.853,490.316,-158.848,252.850,881.850,123.630,-4.930
625,47026.767000,239.033,6.513,17.860,486.583,-150.050,265.875,939.850,128.630,143.070
626,47026.807000,272.967,71.640,34.729,481.828,-144.234,273.898,765.850,-30.370,278.070
627,47026.848000,314.885,97.691,49.612,476.020,-143.345,274.896,46.850,-41.370,331.070
628,47026.888000,254.004,-21.542,50.605,474.006,-148.153,272.792,-387.150,133.630,16.070
629,47026.909000,232.047,-39.577,67.473,470.059,-152.883,274.621,-399.150,212.630,-204.930
630,47026.955000,256.000,-7.515,67.473,466.070,-159.689,269.507,-480.150,51.630,-250.930
631,47026.991000,234.043,-11.523,53.581,467.103,-155.026,266.688,-461.150,-43.370,-104.930
632,47027.27000,229.053,-24.548,53.581,474.813,-157.938,259.734,-517.150,-186.370,-92.930
633,47027.66000,242.027,-5.511,32.744,472.832,-160.014,253.772,-529.150,-159.370,-283.930
634,47027.113000,258.994,31.562,51.597,482.489,-162.058,242.911,-537.150,-406.370,-216.930
635,47027.151000,265.980,47.593,30.760,480.370,-172.829,229.821,-805.150,-180.370,-28.930
636,47027.186000,248.016,3.507,29.767,486.117,-176.819,218.900,-1086.150,-214.370,-114.930
637,47027.213000,249.014,24.548,46.636,485.036,-182.875,204.959,-1089.150,-140.370,-231.930
638,47027.248000,253.006,15.530,39.690,489.774,-188.901,189.062,-1083.150,-226.370,-165.930
639,47027.288000,222.066,-10.521,24.806,491.610,-194.076,171.216,-999.150,-162.370,-122.930
640,47027.328000,229.053,-16.532,26.791,494.412,-200.077,157.284,-900.150,-208.370,-38.930
641,47027.368000,246.020,-22.544,32.744,493.276,-210.677,150.102,-558.150,-187.370,11.070
642,47027.408000,228.055,-28.556,19.845,496.197,-208.982,141.301,-480.150,-206.370,8.070
643,47027.463000,234.043,-13.526,9.922,491.198,-217.851,130.226,-287.150,-300.370,122.070
644,47027.489000,237.037,-2.505,4.961,495.990,-220.882,120.314,-236.150,-206.370,279.070
645,47027.506000,239.033,0.501,0.992,488.973,-236.135,118.894,-302.150,-172.370,375.070
646,47027.546000,258.994,-1.503,-1.984,486.041,-236.439,109.045,-379.150,-181.370,370.070
647,47027.586000,258.994,-8.517,5.953,477.050,-253.690,104.615,-357.150,7.630,369.070
648,47027.626000,251.010,-22.544,20.837,478.918,-257.682,95.655,-412.150,-35.370,340.070
649,47027.674000,284.943,-56.611,25.798,475.888,-265.393,91.501,-555.150,-32.370,33.070
650,47027.708000,294.924,-44.587,52.589,479.923,-254.149,85.919,-287.150,-73.370,-458.930
651,47027.749000,274.963,1.503,41.674,483.861,-249.550,79.168,-169.150,-100.370,-355.930
652,47027.770000,248.016,-11.523,31.752,487.873,-240.144,75.502,-329.150,65.630,-128.930
653,47027.816000,226.058,-18.536,37.705,483.884,-247.711,77.252,-470.150,166.630,97.070
654,47027.849000,249.014,8.517,-7.938,484.801,-250.692,71.269,-489.150,-71.370,154.070
655,47027.888000,273.965,6.513,-8.930,487.599,-257.507,62.232,-619.150,-120.370,18.070
656,47027.929000,266.979,5.511,1.984,484.718,-254.082,50.519,-672.150,-36.370,-98.930
657,47027.969000,258.994,3.507,1.984,486.533,-261.830,42.438,-627.150,53.630,-67.930
658,47028.9000,246.020,-3.507,-9.922,482.728,-255.503,33.755,-847.150,38.630,83.070
659,47028.51000,250.012,-17.534,-0.992,480.649,-264.225,26.623,-875.150,101.630,127.070
660,47028.66000,240.031,-16.532,-5.953,479.645,-265.448,16.752,-834.150,105.630,156.070
661,47028.107000,248.016,-20.540,-10.915,478.593,-269.586,3.848,-943.150,69.630,225.070
662,47028.156000,246.020,-33.566,-7.938,478.414,-281.118,-3.358,-922.150,106.630,283.070
663,47028.189000,246.020,-43.585,-4.961,474.483,-283.328,-13.263,-898.150,140.630,255.070
664,47028.229000,245.021,-54.607,2.977,468.608,-285.617,-25.139,-906.150,188.630,197.070
665,47028.269000,241.029,-59.616,3.969,467.568,-289.598,-32.137,-840.150,221.630,244.070
666,47028.309000,235.041,-70.638,-1.984,464.568,-295.392,-35.254,-657.150,183.630,209.070
667,47028.349000,241.029,-56.611,5.953,465.560,-293.566,-38.153,-572.150,247.630,136.070
668,47028.369000,255.002,-54.607,-13.891,460.571,-302.303,-44.306,-575.150,178.630,65.070
669,47028.409000,239.033,-63.624,20.837,462.647,-292.846,-45.023,-572.150,349.630,20.070
670,47028.451000,233.045,-69.636,37.705,464.532,-296.627,-46.108,-285.150,312.630,-82.930
671,47028.498000,296.920,-47.593,61.519,470.489,-287.141,-47.802,-272.150,39.630,-173.930
672,47028.527000,279.953,40.579,65.488,471.418,-289.964,-47.879,-256.150,181.630,-23.930
673,47028.577000,232.047,-0.501,69.457,476.332,-284.511,-58.538,-322.150,-213.370,-106.930
674,47028.637000,278.955,-62.622,53.581,477.192,-291.301,-65.611,-225.150,-162.370,-91.930
675,47028.652000,268.975,-66.630,46.636,472.481,-281.861,-63.389,135.850,-105.370,5.070
676,47028.667000,260.990,-60.618,51.597,473.349,-289.307,-59.660,244.850,38.630,60.070
677,47028.711000,244.023,-56.611,45.643,473.336,-290.253,-59.687,330.850,25.630,88.070
678,47028.751000,216.078,-64.626,39.690,471.320,-296.610,-49.047,464.850,87.630,128.070
679,47028.793000,216.078,-66.630,38.698,470.366,-296.413,-41.175,613.850,-49.370,143.070
680,47028.828000,227.057,-49.597,41.674,471.258,-302.782,-32.498,748.850,-31.370,137.070
681,47028.868000,244.023,-30.560,34.729,470.302,-302.611,-25.609,717.850,-128.370,83.070
682,47028.908000,240.031,-28.556,40.682,474.134,-307.048,-16.874,648.850,-125.370,28.070
683,47028.948000,253.006,-19.538,30.760,471.183,-310.661,-9.110,554.850,-128.370,-1.930
684,47028.968000,237.037,-22.544,21.829,474.103,-310.514,-5.167,514.850,-181.370,-51.930
685,47029.8000,234.043,-31.562,21.829,477.152,-301.017,-4.898,487.850,-190.370,-202.930
686,47029.48000,237.037,-33.566,20.837,484.038,-295.141,-0.788,554.850,-218.370,-328.930
687,47029.93000,247.018,-4.509,41.674,488.040,-287.390,4.352,527.850,-163.370,-334.930
688,47029.129000,256.998,5.511,41.674,495.888,-281.606,4.526,369.850,-278.370,-192.930
689,47029.173000,270.971,-27.554,32.744,491.980,-283.526,5.450,295.850,-194.370,-147.930
690,47029.208000,283.945,-58.614,48.620,499.906,-272.121,3.813,429.850,-78.370,-190.930
691,47029.248000,279.953,-41.581,35.721,496.942,-277.441,18.414,718.850,149.630,-75.930
692,47029.268000,248.016,-20.540,18.853,498.988,-272.211,36.268,816.850,310.630,48.070
693,47029.310000,246.020,4.509,-4.961,501.881,-274.717,47.023,870.850,115.630,-26.930
694,47029.351000,254.004,18.536,-20.837,502.929,-270.632,57.958,773.850,-98.370,-38.930
695,47029.391000,249.014,37.573,-13.891,504.833,-274.150,66.716,647.850,81.630,2.070
696,47029.431000,236.039,0.501,-1.984,502.028,-268.201,78.680,613.850,147.630,61.070
697,47029.471000,227.057,-17.534,16.868,502.005,-270.801,87.460,642.850,173.630,164.070
698,47029.511000,247.018,-21.542,25.798,496.264,-266.733,101.334,881.850,113.630,263.070
699,47029.551000,260.990,-14.528,37.705,497.161,-273.810,118.844,990.850,142.630,311.070
700,47029.571000,257.996,-19.538,48.620,490.387,-275.166,142.401,1171.850,278.630,233.070
701,47029.611000,256.998,-4.509,37.705,485.759,-262.336,165.373,1295.850,328.630,177.070
702,47029.651000,247.018,-0.501,47.628,480.926,-262.902,182.071,1165.850,177.630,233.070
703,47029.691000,241.029,-7.515,50.605,475.152,-261.565,199.803,1192.850,206.630,308.070
704,47029.731000,233.045,-1.503,52.589,470.412,-256.327,221.580,1160.850,188.630,371.070
705,47029.777000,202.105,5.511,29.767,462.602,-260.849,233.245,825.850,40.630,496.070
706,47029.811000,234.043,8.517,33.736,458.767,-258.750,243.133,724.850,27.630,481.070
707,47029.851000,254.004,4.509,23.814,456.905,-253.917,248.182,594.850,-100.370,338.070
708,47029.890000,257.996,-11.523,17.860,452.028,-255.825,250.088,374.850,-58.370,127.070
709,47029.918000,294.924,12.524,8.930,455.966,-251.987,250.201,141.850,-88.370,120.070
710,47029.952000,293.926,-1.503,17.860,450.946,-263.430,248.891,-315.150,-21.370,33.070
711,47029.992000,286.940,-9.519,29.767,454.903,-257.806,245.120,-491.150,-93.370,-77.930
712,47030.32000,270.971,2.505,43.659,459.600,-266.669,229.143,-652.150,-111.370,-200.930
713,47030.86000,245.021,7.515,49.612,464.417,-267.836,218.299,-834.150,-158.370,-162.930
714,47030.112000,251.010,-19.538,53.581,464.252,-277.661,204.255,-824.150,-148.370,-101.930
715,47030.159000,266.979,-50.599,16.868,466.171,-277.923,193.431,-657.150,-77.370,-234.930
716,47030.168000,221.068,-16.532,35.721,473.993,-273.243,187.673,-587.150,26.630,-307.930
717,47030.209000,222.066,5.511,29.767,474.014,-270.669,177.909,-491.150,-64.370,-242.930
718,47030.252000,224.062,7.515,39.690,472.952,-275.701,166.947,-523.150,-101.370,-166.930
719,47030.292000,230.051,13.526,38.698,476.931,-268.265,160.276,-543.150,-186.370,-130.930
720,47030.332000,239.033,47.593,44.651,477.797,-274.214,149.292,-614.150,-191.370,-81.930
721,47030.372000,233.045,47.593,48.620,477.806,-271.799,133.621,-651.150,-244.370,-20.930
722,47030.411000,217.076,11.523,43.659,478.544,-286.312,120.432,-466.150,-278.370,67.070
723,47030.431000,244.023,-33.566,32.744,472.778,-281.036,108.766,-504.150,-261.370,93.070
724,47030.471000,299.914,-51.601,64.496,481.473,-282.988,101.841,-169.150,-209.370,-222.930
725,47030.511000,267.977,-55.609,43.659,480.755,-265.902,105.266,205.850,-94.370,-380.930
726,47030.551000,289.934,-58.614,24.806,483.624,-268.724,104.208,160.850,18.630,-181.930
727,47030.599000,265.980,-44.587,13.891,485.685,-260.238,102.481,-92.150,-20.370,-51.930
728,47030.628000,272.967,-54.607,4.961,482.787,-259.334,102.501,-117.150,15.630,7.070
729,47030.668000,247.018,-66.630,3.969,480.840,-260.201,106.408,-91.150,190.630,-21.930
730,47030.708000,247.018,-68.634,8.930,478.908,-259.336,104.462,11.850,109.630,-75.930
731,47030.728000,248.016,-66.630,-1.984,476.011,-259.193,111.346,199.850,-27.370,-58.930
732,47030.769000,234.043,-55.609,6.946,479.895,-259.112,112.338,246.850,62.630,-87.930
733,47030.811000,242.027,-30.560,0.000,479.002,-255.053,123.269,567.850,125.630,-139.930
734,47030.851000,245.021,-15.530,-5.953,482.083,-244.373,132.424,537.850,-0.370,-226.930
735,47030.891000,244.023,-2.505,-0.992,483.280,-229.912,142.664,630.850,33.630,-259.930
736,47030.934000,249.014,-11.523,-1.984,485.227,-229.805,145.622,677.850,78.630,-276.930
737,47030.977000,256.998,-10.521,-0.992,486.422,-215.370,154.878,722.850,44.630,-234.930
738,47031.21000,275.961,-3.507,0.992,487.647,-199.017,165.171,814.850,102.630,-121.930
739,47031.29000,270.971,3.507,6.946,485.726,-199.543,181.874,786.850,186.630,-118.930
740,47031.76000,250.012,8.517,17.860,483.033,-186.003,195.033,694.850,250.630,-55.930
741,47031.112000,242.027,5.511,25.798,482.025,-189.562,203.785,648.850,223.630,39.070
742,47031.169000,260.990,20.540,24.806,478.281,-180.922,210.904,551.850,176.630,129.070
743,47031.197000,254.004,18.536,28.775,477.271,-184.508,218.672,267.850,131.630,172.070
744,47031.233000,244.023,9.519,38.698,471.495,-182.436,228.556,200.850,250.630,174.070
745,47031.272000,272.967,18.536,35.721,467.606,-183.331,232.459,82.850,151.630,164.070
746,47031.313000,280.951,28.556,19.845,458.833,-186.239,234.330,-169.150,136.630,25.070
747,47031.331000,255.002,3.507,41.674,458.810,-188.078,236.246,-252.150,352.630,-129.930
748,47031.372000,235.041,-30.560,54.574,458.887,-183.244,240.315,-323.150,70.630,-331.930
749,47031.412000,213.084,-37.573,54.574,466.610,-185.210,233.388,-281.150,-64.370,-348.930
750,47031.451000,219.072,10.521,26.791,470.451,-187.230,226.453,-422.150,-358.370,-101.930
751,47031.490000,257.996,34.568,26.791,474.319,-186.598,212.707,-559.150,-288.370,-17.930
752,47031.539000,277.957,20.540,43.659,476.115,-195.371,201.646,-661.150,-144.370,-263.930
753,47031.571000,249.014,22.544,39.690,481.033,-189.866,192.955,-721.150,-122.370,-356.930
754,47031.611000,231.049,23.546,36.713,478.020,-195.818,183.932,-832.150,-143.370,-262.930
755,47031.631000,231.049,24.548,43.659,488.692,-194.196,168.257,-971.150,-205.370,-174.930
756,47031.676000,236.039,21.542,46.636,485.593,-205.113,150.243,-1073.150,-262.370,-151.930
757,47031.711000,251.010,14.528,40.682,492.369,-204.493,134.534,-1098.150,-254.370,-71.930
758,47031.751000,255.002,-2.505,36.713,491.266,-212.361,123.494,-1025.150,-137.370,-65.930
759,47031.791000,251.010,-2.505,26.791,493.158,-214.514,112.618,-1004.150,-96.370,-65.930
760,47031.833000,249.014,9.519,18.853,491.992,-225.509,90.670,-937.150,-89.370,0.070
761,47031.873000,251.010,4.509,14.884,490.928,-230.567,78.725,-920.150,-132.370,62.070
762,47031.918000,254.004,-5.511,18.853,493.747,-235.570,66.787,-874.150,-113.370,107.070
763,47031.938000,244.023,-10.521,21.829,493.706,-237.646,59.844,-842.150,-77.370,84.070
764,47031.974000,238.035,-9.519,18.853,489.810,-237.097,47.066,-749.150,-176.370,81.070
765,47032.19000,239.033,-17.534,18.853,487.731,-245.058,33.070,-676.150,-209.370,141.070
766,47032.53000,256.000,-17.534,16.868,487.620,-251.101,19.131,-584.150,-241.370,207.070
767,47032.92000,256.998,-13.526,18.853,479.890,-247.691,9.377,-604.150,-152.370,301.070
768,47032.132000,254.004,-15.530,15.876,478.787,-255.560,-1.663,-587.150,-105.370,308.070
769,47032.172000,259.992,-15.530,10.915,468.952,-263.499,-10.753,-652.150,-80.370,322.070
770,47032.213000,257.996,-16.532,13.891,470.683,-276.948,-19.977,-694.150,16.630,278.070
771,47032.233000,249.014,-23.546,5.953,469.728,-275.228,-25.832,-691.150,87.630,271.070
772,47032.279000,246.020,-35.569,7.938,465.762,-280.195,-32.862,-636.150,93.630,279.070
773,47032.313000,238.035,-38.575,5.953,459.732,-293.701,-40.133,-642.150,136.630,252.070
774,47032.351000,240.031,-43.585,4.961,459.757,-291.075,-47.929,-601.150,118.630,244.070
775,47032.394000,239.033,-47.593,-0.992,456.835,-291.248,-52.857,-595.150,159.630,175.070
776,47032.432000,228.055,-49.597,-7.938,452.956,-290.489,-57.760,-590.150,89.630,129.070
777,47032.481000,238.035,-59.616,8.930,452.912,-292.591,-65.688,-578.150,234.630,40.070
778,47032.491000,224.062,-68.634,50.605,456.834,-289.725,-66.585,-373.150,184.630,-93.930
779,47032.544000,319.875,-88.673,73.426,458.840,-285.022,-68.418,-191.150,83.630,-224.930
780,47032.579000,313.887,9.519,34.729,466.704,-278.266,-67.233,-63.150,-13.370,-188.930
781,47032.621000,298.916,13.526,39.690,470.543,-281.074,-68.289,45.850,109.630,-64.930
782,47032.651000,298.916,-49.597,24.806,469.669,-274.469,-68.106,140.850,65.630,14.070
783,47032.701000,268.975,-39.577,41.674,468.592,-282.756,-59.486,316.850,192.630,157.070
784,47032.734000,238.035,-32.564,30.760,462.800,-281.656,-50.613,356.850,118.630,208.070
785,47032.773000,218.074,-47.593,35.721,464.534,-296.601,-45.124,424.850,83.630,140.070
786,47032.794000,216.078,-53.605,49.612,464.625,-291.583,-34.165,577.850,110.630,138.070
787,47032.836000,227.057,-37.573,52.589,465.462,-301.734,-25.593,667.850,45.630,150.070
788,47032.876000,237.037,-29.558,55.566,460.539,-308.080,-12.991,669.850,25.630,195.070
789,47032.911000,241.029,-16.532,54.574,460.559,-307.817,-3.148,597.850,22.630,129.070
790,47032.953000,236.039,-3.507,49.612,458.677,-304.771,5.787,533.850,10.630,91.070
791,47032.994000,244.023,-15.530,45.643,459.513,-314.948,13.374,404.850,-9.370,71.070
792,47033.31000,245.021,-24.548,53.581,461.554,-308.249,15.531,275.850,-33.370,-18.930
793,47033.76000,239.033,-33.566,55.566,464.443,-310.046,17.453,265.850,-46.370,-10.930
794,47033.92000,238.035,-41.581,48.620,461.568,-308.064,22.421,219.850,-48.370,-31.930
795,47033.132000,233.045,-36.571,55.566,464.502,-306.211,19.527,149.850,-126.370,-46.930
796,47033.172000,243.025,-43.585,59.535,465.478,-306.118,22.482,186.850,-184.370,-43.930
797,47033.214000,228.055,-41.581,53.581,465.378,-312.790,20.329,206.850,-236.370,-58.930
798,47033.256000,221.068,-40.579,43.659,469.390,-303.384,16.663,163.850,-292.370,-150.930
799,47033.291000,242.027,-30.560,45.643,476.324,-293.044,11.060,116.850,-344.370,-167.930
800,47033.331000,260.990,-5.511,25.798,473.370,-295.161,4.111,106.850,-325.370,-16.930
801,47033.377000,263.984,0.501,25.798,473.342,-296.291,-2.805,-48.150,-260.370,114.070
802,47033.392000,256.998,-17.534,23.814,475.207,-301.097,-6.870,-94.150,-294.370,82.070
803,47033.437000,267.977,-26.552,27.783,474.271,-297.591,-16.611,-144.150,-285.370,127.070
804,47033.472000,262.986,-31.562,29.767,466.374,-306.317,-20.801,-76.150,-155.370,163.070
805,47033.513000,265.980,-23.546,32.744,471.318,-299.708,-23.560,-37.150,-38.370,67.070
806,47033.554000,260.990,-30.560,26.791,469.270,-307.248,-21.806,79.850,-66.370,-76.930
807,47033.594000,252.008,-42.583,21.829,472.338,-296.752,-19.541,352.850,-71.370,-109.930
808,47033.634000,254.004,-38.575,-10.915,474.214,-301.400,-17.700,386.850,-158.370,-59.930
809,47033.674000,266.979,-27.554,-26.791,472.367,-295.596,-11.640,502.850,-162.370,-68.930
810,47033.694000,269.973,-1.503,-29.767,477.241,-294.502,-8.651,592.850,-238.370,-227.930
811,47033.746000,265.980,21.542,-28.775,478.325,-286.871,-6.469,500.850,-144.370,-255.930
812,47033.774000,249.014,6.513,-29.767,482.202,-287.656,-2.550,272.850,-33.370,-216.930
813,47033.814000,230.051,-9.519,-0.992,482.283,-282.770,3.487,279.850,101.630,-125.930
814,47033.857000,233.045,-28.556,4.961,487.143,-283.384,13.315,352.850,58.630,-54.930
815,47033.892000,249.014,-13.526,6.946,483.410,-273.824,19.476,545.850,48.630,16.070
816,47033.933000,264.982,-3.507,15.876,480.471,-276.518,26.281,504.850,106.630,52.070
817,47033.972000,258.994,2.505,26.791,478.599,-273.340,40.137,577.850,261.630,76.070
818,47033.997000,255.002,5.511,20.837,479.490,-280.497,54.694,625.850,256.630,90.070
819,47034.32000,246.020,12.524,16.868,477.541,-282.152,64.480,611.850,227.630,94.070
820,47034.72000,232.047,11.523,24.806,478.624,-276.070,79.405,477.850,189.630,214.070
821,47034.112000,254.004,12.524,14.884,467.800,-287.332,87.926,357.850,50.630,234.070
822,47034.152000,260.990,-2.505,17.860,466.895,-283.431,92.951,272.850,3.630,38.070
823,47034.193000,250.012,-29.558,-7.938,463.930,-287.229,93.824,156.850,6.630,112.070
824,47034.233000,270.971,-34.568,5.953,463.028,-283.276,100.818,157.850,133.630,88.070
825,47034.273000,247.018,-33.566,7.938,461.036,-287.033,102.677,151.850,15.630,-136.930
826,47034.293000,245.021,-49.597,-3.969,464.952,-284.247,98.827,54.850,-96.370,-180.930
827,47034.332000,258.994,-43.585,9.922,459.173,-281.439,100.863,78.850,-83.370,-35.930
828,47034.374000,249.014,-78.654,11.907,462.150,-276.723,99.032,92.850,-166.370,96.070
829,47034.414000,256.000,-79.656,12.899,460.148,-281.373,102.833,238.850,-63.370,96.070
830,47034.452000,243.025,-36.571,13.891,464.172,-272.570,111.938,465.850,43.630,-23.930
831,47034.492000,246.020,-22.544,12.899,461.237,-274.450,113.848,439.850,-179.370,-14.930
832,47034.536000,253.006,-23.546,11.907,461.313,-268.855,111.052,392.850,-6.370,-95.930
833,47034.576000,247.018,-43.585,16.868,462.290,-269.524,120.872,381.850,-33.370,-170.930
834,47034.602000,250.012,-37.573,1.984,465.393,-257.032,127.126,498.850,-53.370,-150.930
835,47034.636000,252.008,-38.575,-1.984,466.389,-255.914,133.060,559.850,-95.370,-120.930
836,47034.674000,242.027,-27.554,0.992,469.486,-243.501,136.362,604.850,-140.370,-104.930
837,47034.716000,246.020,-16.532,-2.977,468.598,-238.602,143.382,640.850,-79.370,-65.930
838,47034.753000,255.002,-3.507,-5.953,468.652,-235.607,149.367,606.850,-74.370,-147.930
839,47034.793000,254.004,15.530,0.992,475.592,-225.949,153.581,501.850,-16.370,-231.930
840,47034.833000,258.994,15.530,3.969,474.675,-222.968,159.564,379.850,45.630,-225.930
841,47034.877000,266.979,-0.501,10.915,477.760,-211.474,163.824,272.850,86.630,-216.930
842,47034.897000,261.988,-16.532,17.860,477.803,-209.372,171.751,214.850,139.630,-166.930
843,47034.936000,258.994,-16.532,19.845,478.906,-200.743,175.928,257.850,173.630,-119.930
844,47034.976000,256.998,-4.509,18.853,477.926,-202.411,184.732,290.850,180.630,-75.930
845,47035.29000,258.994,2.505,21.829,476.014,-200.521,185.765,254.850,191.630,13.070
846,47035.58000,264.982,10.521,20.837,471.177,-200.379,193.630,168.850,222.630,59.070
847,47035.98000,260.990,4.509,19.845,472.234,-195.400,202.622,-8.150,245.630,0.070
848,47035.151000,252.008,2.505,21.829,465.351,-202.010,206.361,-51.150,288.630,-42.930
849,47035.173000,255.002,7.515,31.752,461.554,-197.126,214.360,-62.150,229.630,-10.930
850,47035.193000,263.984,15.530,33.736,463.472,-198.938,216.280,-123.150,260.630,-10.930
851,47035.247000,257.996,16.532,36.713,459.613,-197.915,221.220,-160.150,270.630,-121.930
852,47035.277000,248.016,-2.505,43.659,458.546,-204.548,221.033,-197.150,217.630,-204.930
853,47035.317000,227.057,-2.505,64.496,462.527,-197.848,222.210,-242.150,109.630,-177.930
854,47035.353000,203.103,0.501,60.527,458.611,-199.873,219.196,-322.150,-16.370,-107.930
855,47035.393000,221.068,9.519,47.628,462.556,-195.169,216.383,-376.150,-114.370,-98.930
856,47035.434000,233.045,6.513,31.752,461.394,-206.872,203.269,-531.150,-290.370,-91.930
857,47035.454000,240.031,6.513,37.705,465.314,-203.272,194.523,-552.150,-264.370,-63.930
858,47035.496000,264.982,-1.503,35.721,469.044,-212.096,180.513,-543.150,-357.370,-104.930
859,47035.537000,270.971,-3.507,43.659,469.940,-216.128,170.566,-497.150,-219.370,-118.930
860,47035.577000,258.994,5.511,45.643,476.712,-216.321,159.753,-585.150,-229.370,-80.930
861,47035.617000,245.021,14.528,52.589,478.675,-213.720,149.992,-665.150,-174.370,-67.930
862,47035.656000,234.043,14.528,47.628,483.335,-225.368,135.906,-758.150,-253.370,-93.930
863,47035.697000,230.051,14.528,38.698,481.422,-221.955,123.211,-867.150,-300.370,-78.930
864,47035.743000,244.023,9.519,32.744,483.274,-226.157,106.375,-944.150,-263.370,-4.930
865,47035.757000,259.992,-0.501,20.837,482.254,-227.591,88.629,-1002.150,-196.370,38.070
866,47035.798000,256.998,-0.501,16.868,481.117,-237.429,74.583,-1042.150,-108.370,56.070
867,47035.833000,256.998,5.511,3.969,480.056,-242.461,63.621,-1065.150,-98.370,44.070
868,47035.876000,255.002,10.521,3.969,482.916,-243.865,44.899,-1142.150,-84.370,77.070
869,47035.916000,256.000,7.515,0.000,477.918,-251.947,27.944,-1304.150,-46.370,124.070
870,47035.958000,252.008,-2.505,-1.984,478.833,-253.432,7.248,-1355.150,-64.370,140.070
871,47035.994000,253.006,-14.528,-9.922,476.741,-261.551,-12.653,-1359.150,-86.370,169.070
872,47036.37000,253.006,-27.554,-8.930,475.829,-256.207,-24.309,-1352.150,-84.370,210.070
873,47036.58000,253.006,-33.566,-9.922,469.880,-262.516,-45.151,-1237.150,56.630,251.070
874,47036.94000,244.023,-44.587,-4.961,466.944,-262.873,-56.969,-1127.150,151.630,315.070
875,47036.138000,245.021,-57.613,2.977,459.954,-275.473,-65.200,-942.150,197.630,336.070
876,47036.178000,239.033,-62.622,7.938,459.027,-271.862,-71.003,-812.150,254.630,315.070
877,47036.217000,239.033,-62.622,7.938,456.938,-281.478,-76.192,-714.150,266.630,242.070
878,47036.257000,246.020,-56.611,3.969,457.994,-274.976,-80.927,-757.150,292.630,197.070
879,47036.306000,249.014,-64.626,-4.961,454.994,-280.770,-84.044,-838.150,238.630,112.070
880,47036.339000,237.037,-68.634,25.798,458.872,-280.006,-92.869,-867.150,303.630,-67.930
881,47036.354000,261.988,-69.636,44.651,464.839,-269.627,-96.504,-803.150,260.630,-243.930
882,47036.394000,333.848,-55.609,50.605,467.955,-254.666,-103.952,-491.150,85.630,-294.930
883,47036.434000,260.990,-16.532,60.527,472.826,-253.599,-101.947,-355.150,174.630,-135.930
884,47036.474000,238.035,-40.579,52.589,474.907,-243.328,-107.559,-164.150,-3.370,-98.930
885,47036.519000,273.965,-60.618,38.698,473.922,-244.287,-107.588,8.850,-74.370,114.070
886,47036.554000,251.010,-41.581,48.620,466.971,-255.626,-103.980,298.850,52.630,248.070
887,47036.598000,240.031,-45.589,47.628,470.783,-261.087,-98.224,283.850,26.630,193.070
888,47036.634000,223.064,-47.593,49.612,468.810,-263.819,-93.385,392.850,62.630,153.070
889,47036.654000,214.082,-53.605,51.597,472.593,-271.198,-88.666,530.850,-54.370,158.070
890,47036.696000,223.064,-55.609,52.589,468.567,-281.549,-85.027,614.850,-90.370,155.070
891,47036.736000,235.041,-54.607,53.581,468.574,-282.232,-75.209,717.850,-120.370,110.070
892,47036.776000,239.033,-49.597,52.589,470.400,-291.371,-64.641,785.850,-141.370,-1.930
893,47036.816000,239.033,-39.577,51.597,472.495,-281.677,-56.499,774.850,-149.370,-35.930
894,47036.856000,236.039,-30.560,53.581,473.317,-292.800,-48.938,790.850,-159.370,-45.930
895,47036.896000,233.045,-52.603,45.643,474.425,-284.091,-41.809,774.850,-185.370,-100.930
896,47036.936000,221.068,-47.593,47.628,480.251,-284.744,-33.948,814.850,-189.370,-155.930
897,47036.956000,229.053,-25.550,21.829,483.213,-281.760,-29.926,759.850,-299.370,-103.930
898,47036.996000,268.975,-5.511,17.860,485.030,-290.243,-30.159,607.850,-369.370,-29.930
899,47037.36000,277.957,17.534,23.814,480.228,-286.582,-32.032,447.850,-336.370,30.070
900,47037.76000,284.943,-4.509,34.729,481.248,-283.626,-28.014,356.850,-188.370,85.070
901,47037.117000,252.008,-41.581,26.791,482.113,-291.125,-26.254,242.850,-70.370,68.070
902,47037.156000,242.027,-39.577,30.760,487.041,-286.249,-23.159,515.850,-60.370,-36.930
903,47037.196000,271.969,-8.517,33.736,487.092,-283.281,-18.158,530.850,11.630,-41.930
904,47037.238000,251.010,-3.507,19.845,486.143,-283.005,-7.332,584.850,41.630,-75.930
905,47037.258000,252.008,-5.511,17.860,486.205,-279.905,2.590,606.850,-22.370,-112.930
906,47037.301000,261.988,-5.511,4.961,492.035,-279.743,5.555,503.850,-65.370,-99.930
907,47037.336000,257.996,9.519,7.938,494.935,-281.383,13.383,506.850,28.630,-134.930
908,47037.377000,244.023,20.540,-3.969,493.052,-278.363,21.333,434.850,-42.370,-139.930
909,47037.418000,241.029,7.515,-2.977,493.119,-274.422,27.344,330.850,48.630,-42.930
910,47037.458000,247.018,-14.528,15.876,497.088,-269.402,36.343,431.850,94.630,29.070
911,47037.498000,246.020,-24.548,20.837,497.073,-271.135,42.197,583.850,97.630,104.070
912,47037.538000,248.016,-6.513,32.744,496.118,-270.938,50.069,664.850,44.630,158.070
913,47037.558000,264.982,10.521,41.674,489.250,-277.364,60.699,736.850,98.630,234.070
914,47037.598000,249.014,5.511,49.612,486.341,-279.663,82.269,790.850,330.630,245.070
915,47037.637000,219.072,12.524,51.597,484.361,-284.024,96.899,748.850,306.630,225.070
916,47037.677000,211.088,0.501,57.550,477.600,-282.912,106.754,472.850,60.630,435.070
917,47037.724000,251.010,-6.513,61.519,470.621,-296.141,110.309,400.850,-34.370,444.070
918,47037.757000,279.953,-14.528,65.488,465.874,-290.220,122.269,592.850,28.630,225.070
919,47037.797000,259.992,-8.517,14.884,461.996,-290.223,124.230,294.850,-265.370,74.070
920,47037.817000,268.975,-4.509,25.798,464.951,-287.318,125.299,312.850,-68.370,65.070
921,47037.857000,251.010,-18.536,2.977,465.910,-288.224,126.259,203.850,-16.370,-118.930
922,47037.911000,262.986,-23.546,5.953,466.012,-281.525,129.396,244.850,-39.370,-231.930
923,47037.938000,272.967,-44.587,5.953,472.750,-285.238,128.321,143.850,-65.370,-156.930
924,47037.978000,243.025,-66.630,11.907,470.931,-277.543,134.434,432.850,-8.370,-5.930
925,47038.22000,250.012,-61.620,14.884,470.059,-271.672,142.464,564.850,-64.370,54.070
926,47038.57000,245.021,-46.591,13.891,462.323,-270.626,150.349,696.850,-44.370,-2.930
927,47038.98000,238.035,-35.569,13.891,470.272,-258.931,159.540,794.850,-98.370,-84.930
928,47038.119000,246.020,-31.562,8.930,474.999,-268.161,165.193,826.850,-99.370,-191.930
929,47038.159000,247.018,-19.538,-2.977,480.295,-238.567,173.894,936.850,-98.370,-312.930
930,47038.207000,251.010,-12.524,-11.907,480.441,-229.766,184.959,947.850,-169.370,-286.930
931,47038.236000,259.992,0.501,-6.946,484.544,-215.343,192.252,913.850,-104.370,-252.930
932,47038.277000,264.982,6.513,-1.984,485.837,-194.262,202.677,911.850,8.630,-261.930
933,47038.317000,261.988,14.528,0.000,486.036,-181.705,212.863,936.850,155.630,-247.930
934,47038.357000,253.006,31.562,15.876,488.031,-179.444,225.716,928.850,257.630,-179.930
935,47038.397000,252.008,37.573,12.899,484.515,-156.330,244.058,927.850,260.630,-74.930
936,47038.424000,255.002,34.568,39.690,474.809,-157.229,250.902,671.850,59.630,155.070
937,47038.457000,252.008,31.562,50.605,472.883,-157.046,258.772,482.850,192.630,287.070
938,47038.506000,287.938,7.515,46.636,470.984,-154.998,265.711,344.850,110.630,361.070
939,47038.539000,293.926,16.532,58.543,465.036,-164.352,272.326,104.850,139.630,92.070
940,47038.579000,247.018,31.562,58.543,463.122,-162.489,272.375,-96.150,131.630,29.070
941,47038.627000,228.055,-12.524,60.527,453.481,-158.712,277.382,-148.150,301.630,65.070
942,47038.661000,220.070,-42.583,71.442,453.381,-166.145,282.093,-97.150,271.630,-64.930
943,47038.699000,211.088,-21.542,74.419,450.459,-167.080,284.029,-141.150,50.630,-177.930
944,47038.719000,222.066,16.532,64.496,451.504,-161.497,280.252,-152.150,-76.370,-68.930
945,47038.761000,235.041,4.509,42.667,454.351,-165.370,275.231,-272.150,-130.370,-9.930
946,47038.797000,248.016,-2.505,42.667,454.268,-170.283,268.209,-491.150,-152.370,-33.930
947,47038.848000,258.994,10.521,42.667,454.172,-176.141,261.161,-568.150,-248.370,-49.930
948,47038.877000,262.986,14.528,45.643,461.874,-179.157,250.270,-588.150,-177.370,-115.930
949,47038.922000,250.012,1.503,33.736,461.687,-190.794,239.126,-707.150,-239.370,-231.930
950,47038.961000,238.035,8.517,42.667,470.518,-183.290,232.465,-777.150,-193.370,-218.930
951,47039.1000,242.027,12.524,40.682,470.335,-194.113,216.425,-907.150,-222.370,-145.930
952,47039.28000,242.027,4.509,45.643,476.089,-197.236,202.578,-979.150,-234.370,-120.930
953,47039.58000,247.018,0.501,37.705,476.833,-210.909,185.477,-970.150,-244.370,-113.930
954,47039.97000,249.014,-1.503,31.752,482.725,-204.575,171.893,-988.150,-220.370,-109.930
955,47039.137000,250.012,-3.507,28.775,482.522,-217.185,159.739,-1018.150,-203.370,-76.930
956,47039.177000,255.002,-1.503,22.822,485.396,-217.643,141.042,-993.150,-162.370,-14.930
957,47039.217000,257.996,6.513,18.853,483.152,-236.952,126.731,-964.150,-128.370,2.070
958,47039.258000,261.988,-8.517,15.876,487.093,-231.539,115.085,-958.150,-44.370,-29.930
959,47039.299000,242.027,-11.523,10.915,485.021,-239.395,105.026,-899.150,-34.370,-2.930
960,47039.319000,243.025,-7.515,9.922,482.900,-250.193,90.952,-882.150,-82.370,52.070
961,47039.361000,248.016,-3.507,5.953,480.029,-245.875,77.297,-879.150,-64.370,128.070
962,47039.401000,244.023,-8.517,2.977,479.893,-253.782,64.290,-892.150,-115.370,134.070
963,47039.439000,253.006,-26.552,-2.977,475.970,-255.125,51.459,-894.150,-124.370,116.070
964,47039.479000,254.004,-21.542,0.000,475.873,-260.222,37.546,-841.150,-87.370,149.070
965,47039.519000,254.004,-20.540,-7.938,473.809,-267.211,24.562,-915.150,-18.370,210.070
966,47039.559000,219.072,-41.581,-3.969,465.941,-273.258,14.544,-895.150,150.630,154.070
967,47039.601000,237.037,-62.622,5.953,467.792,-278.248,3.589,-800.150,83.630,46.070
968,47039.621000,256.998,-69.636,0.992,469.760,-275.568,-3.219,-456.150,-211.370,93.070
969,47039.659000,256.000,-70.638,-2.977,470.705,-276.658,-9.149,-304.150,-33.370,-4.930
970,47039.701000,233.045,-47.593,16.868,469.717,-277.670,-11.146,-129.150,-15.370,8.070
971,47039.742000,282.947,-38.575,33.736,467.838,-273.048,-13.971,41.850,-140.370,48.070
972,47039.777000,315.883,-34.568,23.814,466.763,-279.787,-18.095,2.850,-199.370,-98.930
973,47039.818000,286.940,29.558,30.760,469.771,-273.126,-17.905,-21.150,-55.370,-0.930
974,47039.862000,240.031,-5.511,45.643,469.699,-277.907,-20.005,5.850,-56.370,-68.930
975,47039.899000,264.982,-61.620,26.791,472.730,-269.408,-21.731,-20.150,-45.370,-80.930
976,47039.919000,257.996,-34.568,14.884,471.589,-280.848,-25.002,275.850,1.630,193.070
977,47039.961000,248.016,-28.556,17.860,465.676,-287.445,-21.261,164.850,-22.370,269.070
978,47040.1000,226.058,-34.568,14.884,468.573,-289.137,-15.401,175.850,-52.370,188.070
979,47040.41000,241.029,-49.597,19.845,463.619,-295.877,-17.564,227.850,-67.370,105.070
980,47040.83000,244.023,-58.614,12.899,466.423,-303.375,-16.785,296.850,-99.370,113.070
981,47040.118000,227.057,-58.614,20.837,464.596,-296.546,-7.745,458.850,-92.370,23.070
982,47040.159000,229.053,-39.577,20.837,464.585,-297.465,-6.787,488.850,-168.370,-119.930
983,47040.198000,246.020,-29.558,28.775,471.582,-283.999,-1.483,339.850,-151.370,-242.930
984,47040.218000,250.012,-52.603,34.729,474.506,-283.038,-2.435,280.850,-67.370,-260.930
985,47040.261000,247.018,-41.581,27.783,478.475,-277.257,-0.300,318.850,-8.370,-276.930
986,47040.301000,267.977,-18.536,17.860,485.337,-273.220,5.725,372.850,-12.370,-247.930
987,47040.342000,301.910,12.524,33.736,485.333,-274.034,10.621,397.850,37.630,-100.930
988,47040.379000,303.906,1.503,52.589,490.313,-266.951,25.580,350.850,469.630,59.070
989,47040.418000,256.000,10.521,31.752,488.323,-271.443,35.288,238.850,738.630,59.070
990,47040.459000,233.045,33.566,21.829,494.282,-265.003,61.051,397.850,743.630,-100.930
991,47040.507000,253.006,55.609,25.798,495.282,-264.594,75.818,242.850,445.630,-76.930
992,47040.521000,266.979,47.593,28.775,491.504,-258.685,86.796,174.850,318.630,-128.930
993,47040.561000,269.973,46.591,23.814,490.601,-254.759,92.805,166.850,183.630,-209.930
994,47040.601000,257.996,40.579,7.938,497.498,-247.964,95.957,52.850,160.630,-187.930
995,47040.641000,243.025,40.579,12.899,495.535,-249.804,98.853,-6.150,85.630,-159.930
996,47040.681000,224.062,29.558,21.829,499.457,-246.938,97.956,8.850,2.630,-60.930
997,47040.721000,203.103,22.544,30.760,497.478,-249.750,99.841,77.850,-76.370,22.070
998,47040.759000,217.076,21.542,36.713,499.465,-246.072,95.029,124.850,-209.370,151.070
999,47040.801000,223.064,15.530,46.636,498.329,-257.433,94.711,232.850,-249.370,212.070
1000,47040.821000,241.029,16.532,50.605,494.513,-252.786,93.850,341.850,-284.370,274.070
1001,47040.861000,249.014,22.544,55.566,492.401,-264.240,90.577,397.850,-249.370,306.070
1002,47040.899000,251.010,45.589,55.566,489.550,-260.420,93.630,456.850,-184.370,307.070
1003,47040.939000,242.027,48.595,58.543,483.673,-264.259,94.497,435.850,-100.370,278.070
1004,47040.979000,242.027,45.589,48.620,478.794,-266.954,102.282,348.850,-109.370,230.070
1005,47041.19000,246.020,31.562,44.651,479.745,-267.965,99.305,182.850,-159.370,6.070
1006,47041.68000,283.945,14.528,49.612,480.844,-259.387,101.513,333.850,-80.370,-334.930
1007,47041.102000,274.963,-22.544,19.845,486.766,-252.659,102.693,181.850,-65.370,-491.930
1008,47041.122000,278.955,-49.597,3.969,489.837,-241.349,100.062,-45.150,-34.370,-319.930
1009,47041.163000,299.914,-57.613,-11.907,491.847,-236.594,100.198,96.850,-136.370,-62.930
1010,47041.209000,294.924,-71.640,-14.884,484.887,-247.276,93.004,-74.150,-16.370,376.070
1011,47041.243000,245.021,-97.691,19.845,478.034,-251.969,97.780,205.850,223.630,456.070
1012,47041.279000,201.107,-81.659,-12.899,473.983,-264.947,109.215,432.850,85.630,442.070
1013,47041.319000,219.072,-33.566,6.946,467.190,-265.778,117.050,614.850,-60.370,310.070
1014,47041.367000,241.029,-3.507,-13.891,464.206,-271.362,121.807,622.850,-184.370,137.070
1015,47041.424000,243.025,-1.503,-2.977,465.298,-262.863,121.062,292.850,-196.370,70.070
1016,47041.434000,265.980,-22.544,5.953,464.300,-264.768,121.007,165.850,-158.370,40.070
1017,47041.459000,268.975,-32.564,-6.946,469.189,-261.942,118.143,96.850,-111.370,-11.930
1018,47041.503000,261.988,-24.548,-6.946,463.314,-265.754,119.995,-24.150,-4.370,32.070
1019,47041.543000,250.012,-21.542,4.961,466.224,-265.739,119.016,-49.150,10.630,68.070
1020,47041.584000,246.020,-30.560,9.922,463.202,-273.346,118.800,-148.150,27.630,75.070
1021,47041.619000,252.008,-29.558,17.860,464.168,-273.384,116.833,-186.150,-8.370,93.070
1022,47041.659000,256.000,-30.560,21.829,458.258,-279.193,114.694,-250.150,-47.370,125.070
1023,47041.699000,250.012,-49.597,20.837,457.301,-277.500,107.854,-217.150,19.630,97.070
1024,47041.721000,236.039,-55.609,11.907,457.200,-284.172,105.701,-175.150,-59.370,38.070
1025,47041.761000,247.018,-32.564,2.977,454.259,-286.131,104.658,-76.150,-54.370,-33.930
1026,47041.801000,266.979,-22.544,-2.977,458.253,-277.723,98.997,-138.150,8.630,12.070
1027,47041.841000,256.998,-24.548,2.977,454.259,-285.370,97.794,-215.150,54.630,31.070
1028,47041.881000,250.012,-27.554,3.969,457.222,-281.599,95.937,-290.150,-2.370,-1.930
1029,47041.921000,252.008,-31.562,6.946,457.088,-290.241,90.778,-325.150,7.630,-5.930
1030,47041.959000,249.014,-32.564,6.946,458.066,-289.361,87.854,-321.150,33.630,-9.930
1031,47042.6000,246.020,-33.566,8.930,454.165,-289.652,78.986,-308.150,-1.370,0.070
1032,47042.21000,246.020,-33.566,7.938,460.079,-283.030,76.230,-288.150,-40.370,-12.930
1033,47042.62000,250.012,-34.568,5.953,453.173,-290.717,75.021,-253.150,-67.370,-27.930
1034,47042.102000,252.008,-32.564,5.953,459.065,-285.145,68.300,-234.150,-104.370,-21.930
1035,47042.142000,251.010,-27.554,5.953,455.021,-295.734,63.081,-209.150,-91.370,-11.930
1036,47042.182000,256.998,-26.552,4.961,459.047,-285.382,59.441,-188.150,-73.370,-9.930
1037,47042.222000,256.998,-28.556,3.969,458.929,-293.052,55.293,-194.150,-50.370,-12.930
1038,47042.263000,256.000,-30.560,6.946,459.003,-287.484,51.514,-179.150,-43.370,-6.930
1039,47042.283000,252.008,-30.560,2.977,462.774,-295.020,50.327,-152.150,-41.370,0.070
1040,47042.323000,251.010,-28.556,6.946,456.081,-287.657,46.586,-110.150,-30.370,5.070
1041,47042.363000,253.006,-31.562,6.946,460.860,-292.395,43.512,-77.150,-29.370,1.070
1042,47042.403000,256.998,-32.564,3.969,457.030,-288.694,42.624,-25.150,1.630,-13.930
