Sample, Time, ACCX, ACCY, ACCZ, MAGX, MAGY, MAGZ, GYRX, GYRY, GYRZ
0,47003.299000,235.363,29.114,86.016,440.555,-203.118,206.949,14.220,-14.600,25.940
1,47003.337000,235.363,29.114,86.016,447.162,-204.005,203.956,14.220,-11.600,24.940
2,47003.379000,235.363,30.118,83.968,442.338,-211.299,208.767,16.220,-6.600,23.940
3,47003.419000,234.380,30.118,86.016,440.517,-205.866,206.891,14.220,1.400,24.940
4,47003.458000,234.380,28.110,88.064,441.437,-207.705,205.858,12.220,1.400,22.940
5,47003.498000,237.328,29.114,87.040,443.420,-201.228,207.988,9.220,4.400,17.940
6,47003.518000,234.380,27.106,84.992,443.321,-209.317,215.773,4.220,6.400,20.940
7,47003.557000,235.363,29.114,83.968,445.290,-203.016,208.948,2.220,5.400,11.940
8,47003.597000,236.345,28.110,86.016,439.601,-203.988,209.913,2.220,1.400,13.940
9,47003.637000,233.397,29.114,87.040,437.710,-203.993,210.905,0.220,4.400,5.940
10,47003.677000,232.415,28.110,87.040,438.651,-204.039,207.921,-5.780,-5.600,6.940
11,47003.723000,233.397,29.114,87.040,441.508,-203.027,210.931,-9.780,-11.600,3.940
12,47003.738000,233.397,29.114,87.040,439.589,-204.904,209.894,-6.780,-28.600,9.940
13,47003.778000,233.397,26.102,82.944,436.673,-210.458,208.776,-5.780,-52.600,19.940
14,47003.818000,237.328,28.110,83.968,441.503,-203.086,207.946,-4.780,-57.600,21.940
15,47003.863000,236.345,24.094,81.920,441.294,-217.841,202.658,-0.780,-51.600,15.940
16,47003.898000,237.328,26.102,80.896,438.586,-208.659,205.834,-5.780,-37.600,10.940
17,47003.938000,236.345,25.098,82.944,440.464,-209.570,204.822,-7.780,-23.600,3.940
18,47003.958000,237.328,26.102,81.920,439.563,-205.976,201.914,-20.780,-0.600,-11.060
19,47003.998000,236.345,25.098,80.896,441.457,-205.932,202.912,-29.780,14.400,-11.060
20,47004.38000,238.311,24.094,82.944,442.317,-212.312,203.772,-34.780,23.400,-16.060
21,47004.78000,236.345,24.094,83.968,438.661,-203.162,205.951,-32.780,26.400,-22.060
22,47004.118000,237.328,24.094,82.944,439.568,-205.918,204.899,-32.780,26.400,-25.060
23,47004.162000,235.363,25.098,84.992,442.396,-206.777,205.879,-23.780,27.400,-31.060
24,47004.198000,234.380,27.106,84.992,444.287,-206.771,204.888,-19.780,22.400,-33.060
25,47004.218000,236.345,27.106,86.016,444.303,-205.816,206.897,-23.780,23.400,-34.060
26,47004.258000,234.380,28.110,86.016,439.518,-209.582,204.821,-28.780,7.400,-19.060
27,47004.303000,238.311,29.114,84.992,444.313,-204.919,205.922,-28.780,-6.600,-16.060
28,47004.340000,236.345,28.110,83.968,443.356,-205.828,206.896,-29.780,-9.600,-15.060
29,47004.378000,235.363,30.118,79.872,445.236,-206.720,206.879,-28.780,4.400,-30.060
30,47004.422000,236.345,30.118,81.920,444.313,-204.919,205.922,-33.780,31.400,-40.060
31,47004.441000,235.363,31.122,80.896,442.397,-206.757,206.874,-36.780,58.400,-55.060
32,47004.481000,236.345,31.122,80.896,442.460,-202.176,206.972,-70.780,109.400,-55.060
33,47004.520000,240.276,29.114,80.896,437.746,-201.264,209.968,-123.780,173.400,-69.060
34,47004.561000,244.207,32.125,78.848,437.765,-200.270,213.968,-148.780,277.400,-67.060
35,47004.608000,243.225,36.141,72.704,436.755,-205.643,220.815,-107.780,417.400,-74.060
36,47004.642000,242.242,50.196,63.488,428.334,-200.024,232.857,-34.780,560.400,-85.060
37,47004.662000,228.484,56.220,70.656,420.792,-199.793,249.760,-9.780,767.400,-51.060
38,47004.702000,235.363,64.251,83.968,413.133,-207.085,256.556,-90.780,859.400,1.940
39,47004.738000,225.536,62.243,86.016,406.615,-201.305,275.568,-213.780,908.400,40.940
40,47004.778000,226.518,63.247,82.944,388.526,-211.288,292.237,-301.780,947.400,41.940
41,47004.823000,209.812,60.235,113.664,371.521,-211.181,309.123,-381.780,1170.400,49.940
42,47004.858000,205.881,58.227,125.952,355.239,-227.533,326.654,-477.780,1167.400,7.940
43,47004.901000,199.002,51.200,153.600,340.114,-227.538,336.578,-576.780,1203.400,51.940
44,47004.920000,169.520,10.039,185.344,319.162,-238.611,346.258,-690.780,1142.400,106.940
45,47004.961000,159.693,-1.004,189.440,300.062,-252.447,353.892,-663.780,896.400,160.940
46,47005.1000,135.125,-41.161,215.040,280.886,-271.020,353.469,-681.780,807.400,136.940
47,47005.41000,138.073,-53.208,239.616,271.313,-279.351,355.267,-609.780,672.400,93.940
48,47005.81000,132.177,-58.227,240.640,262.623,-292.270,355.973,-423.780,540.400,26.940
49,47005.120000,118.418,-57.224,234.496,254.081,-294.215,355.919,-309.780,385.400,-62.060
50,47005.141000,109.574,-50.196,233.472,253.085,-297.892,355.840,-205.780,223.400,-162.060
51,47005.193000,109.574,-47.184,224.256,252.087,-301.588,354.765,-154.780,114.400,-192.060
52,47005.228000,107.608,-45.176,229.376,255.996,-292.396,353.972,-127.780,72.400,-180.060
53,47005.260000,109.574,-50.196,240.640,255.936,-296.938,355.864,-70.780,-16.600,-135.060
54,47005.300000,112.522,-46.180,235.520,259.786,-292.288,356.964,34.220,-139.600,-90.060
55,47005.340000,113.505,-47.184,234.496,262.666,-288.684,352.071,130.220,-264.600,-51.060
56,47005.365000,121.367,-41.161,222.208,273.115,-285.778,353.143,280.220,-449.600,-13.060
57,47005.400000,131.194,-33.129,211.968,281.648,-283.931,348.222,356.220,-563.600,23.940
58,47005.440000,138.073,-27.106,203.776,291.269,-271.955,345.507,406.220,-651.600,46.940
59,47005.480000,154.779,-23.090,194.560,298.847,-270.997,342.555,439.220,-657.600,35.940
60,47005.523000,173.451,-13.051,182.272,310.232,-268.196,337.658,460.220,-673.600,22.940
61,47005.568000,180.330,-2.008,175.104,324.625,-253.370,337.000,527.220,-653.600,-32.060
62,47005.588000,184.261,13.051,157.696,336.052,-247.762,335.147,580.220,-659.600,-24.060
63,47005.623000,190.157,27.106,154.624,349.492,-233.027,330.508,598.220,-582.600,-27.060
64,47005.663000,191.140,33.129,154.624,350.546,-224.828,327.700,594.220,-552.600,-26.060
65,47005.700000,201.950,51.200,151.552,363.943,-213.678,326.962,582.220,-464.600,15.940
66,47005.740000,218.656,56.220,142.336,366.889,-205.454,324.158,516.220,-454.600,49.940
67,47005.781000,215.708,57.224,142.336,372.600,-202.689,321.241,460.220,-416.600,83.940
68,47005.826000,215.708,59.231,123.904,379.242,-200.848,317.312,430.220,-394.600,91.940
69,47005.845000,212.760,61.239,111.616,379.292,-197.183,317.390,359.220,-390.600,65.940
70,47005.880000,202.933,64.251,119.808,390.754,-188.866,313.605,281.220,-399.600,37.940
71,47005.932000,206.864,73.286,111.616,395.416,-193.462,309.536,183.220,-304.600,-10.060
72,47005.959000,215.708,71.278,113.664,396.413,-189.006,302.669,14.220,-217.600,-71.060
73,47006.0,217.674,64.251,113.664,401.104,-191.731,300.629,-73.780,-160.600,-47.060
74,47006.40000,213.743,62.243,117.760,402.125,-186.221,300.748,-135.780,-138.600,-19.060
75,47006.60000,219.639,55.216,113.664,403.967,-189.101,292.732,-144.780,-182.600,20.940
76,47006.101000,217.674,58.227,116.736,404.905,-189.186,287.759,-177.780,-224.600,20.940
77,47006.142000,221.605,52.204,121.856,404.803,-195.775,278.666,-151.780,-326.600,26.940
78,47006.182000,223.570,46.180,117.760,409.515,-196.706,274.675,-127.780,-320.600,37.940
79,47006.222000,214.726,38.149,112.640,417.993,-198.582,266.691,-141.780,-349.600,52.940
80,47006.262000,220.622,30.118,110.592,416.914,-207.854,261.518,-150.780,-295.600,130.940
81,47006.282000,227.501,23.090,108.544,418.768,-209.817,253.522,-173.780,-282.600,151.940
82,47006.322000,224.553,14.055,118.784,418.616,-220.070,244.352,-171.780,-247.600,175.940
83,47006.362000,226.518,12.047,114.688,416.675,-222.961,238.320,-150.780,-210.600,148.940
84,47006.401000,220.622,10.039,121.856,419.404,-230.369,232.198,-117.780,-221.600,109.940
85,47006.442000,223.570,8.031,116.736,418.442,-231.337,230.187,-104.780,-224.600,110.940
86,47006.483000,219.639,4.016,113.664,421.282,-230.520,223.246,-123.780,-221.600,90.940
87,47006.523000,224.553,3.012,109.568,421.249,-232.450,218.232,-124.780,-207.600,73.940
88,47006.543000,227.501,0.000,107.520,419.273,-238.069,213.136,-83.780,-203.600,53.940
89,47006.584000,231.432,1.004,104.448,421.132,-239.974,208.125,-53.780,-194.600,25.940
90,47006.623000,225.536,-1.004,109.568,423.050,-238.117,208.168,-14.780,-190.600,-15.060
91,47006.663000,229.466,3.012,110.592,426.759,-242.803,200.116,-40.780,-182.600,-69.060
92,47006.705000,228.484,9.035,101.376,430.633,-235.561,193.314,-52.780,-209.600,-87.060
93,47006.745000,231.432,8.031,98.304,435.322,-238.305,190.278,-48.780,-227.600,-96.060
94,47006.765000,232.415,8.031,90.112,434.469,-231.067,186.453,-52.780,-257.600,-73.060
95,47006.801000,233.397,9.035,87.040,437.296,-231.166,179.492,-48.780,-284.600,-32.060
96,47006.842000,238.311,6.024,80.896,441.068,-231.272,171.538,-64.780,-259.600,-1.060
97,47006.882000,239.294,7.027,77.824,437.258,-232.375,164.547,-47.780,-233.600,3.940
98,47006.923000,243.225,5.020,72.704,444.797,-234.185,160.541,-17.780,-197.600,9.940
99,47006.963000,246.173,8.031,66.560,441.037,-232.403,160.573,-0.780,-118.600,3.940
100,47006.984000,246.173,9.035,67.584,447.695,-229.606,158.653,39.220,-37.600,-5.060
101,47007.23000,245.190,10.039,67.584,448.656,-228.658,159.670,54.220,28.400,-27.060
102,47007.63000,246.173,14.055,64.512,446.729,-231.392,161.598,103.220,111.400,-45.060
103,47007.101000,243.225,18.071,63.488,443.897,-231.352,165.573,139.220,145.400,-51.060
104,47007.141000,241.259,21.082,65.536,448.777,-221.075,172.761,148.220,184.400,-71.060
105,47007.181000,238.311,29.114,70.656,447.788,-224.674,176.662,148.220,194.400,-70.060
106,47007.222000,237.328,31.122,76.800,446.962,-216.344,181.811,144.220,188.400,-62.060
107,47007.242000,238.311,36.141,78.848,446.064,-213.491,187.838,126.220,179.400,-44.060
108,47007.282000,237.328,36.141,79.872,442.240,-217.069,194.719,113.220,153.400,-14.060
109,47007.322000,236.345,38.149,80.896,445.141,-212.451,194.822,117.220,123.400,3.940
110,47007.362000,238.311,37.145,79.872,443.257,-212.378,199.794,108.220,78.400,33.940
111,47007.403000,236.345,36.141,80.896,440.311,-220.602,202.598,79.220,61.400,45.940
112,47007.443000,232.415,36.141,82.944,442.307,-213.209,204.748,59.220,41.400,50.940
113,47007.464000,235.363,34.133,82.944,439.357,-221.472,205.562,26.220,23.400,44.940
114,47007.505000,233.397,33.129,83.968,441.348,-214.138,204.727,1.220,6.400,41.940
115,47007.545000,235.363,32.125,83.968,438.534,-212.343,204.761,-0.780,-23.600,34.940
116,47007.582000,236.345,28.110,81.920,437.480,-220.542,207.568,-1.780,-48.600,31.940
117,47007.622000,236.345,28.110,81.920,441.296,-217.822,203.653,3.220,-59.600,27.940
118,47007.662000,236.345,28.110,79.872,440.372,-216.041,201.701,12.220,-73.600,24.940
119,47007.687000,237.328,28.110,77.824,437.520,-216.995,201.676,8.220,-80.600,17.940
120,47007.728000,236.345,26.102,79.872,437.567,-213.369,199.764,2.220,-88.600,14.940
121,47007.763000,235.363,25.098,76.800,436.500,-221.724,194.612,-2.780,-85.600,16.940
122,47007.803000,235.363,27.106,77.824,438.360,-224.389,197.541,-11.780,-81.600,10.940
123,47007.843000,231.432,25.098,76.800,436.520,-219.951,191.665,-18.780,-81.600,1.940
124,47007.882000,234.380,27.106,75.776,439.349,-220.790,193.641,-30.780,-81.600,-10.060
125,47007.902000,237.328,27.106,78.848,441.178,-225.366,192.552,-33.780,-86.600,-13.060
126,47007.942000,238.311,29.114,78.848,442.208,-218.979,190.700,-52.780,-95.600,-21.060
127,47007.982000,242.242,27.106,76.800,440.257,-222.766,185.643,-60.780,-89.600,-23.060
128,47008.22000,246.173,25.098,78.848,441.215,-221.857,184.669,-72.780,-108.600,-4.060
129,47008.68000,242.242,19.075,78.848,442.124,-223.814,177.667,-83.780,-96.600,5.940
130,47008.102000,241.259,16.063,80.896,444.031,-222.853,178.684,-77.780,-92.600,15.940
131,47008.161000,243.225,12.047,82.944,441.174,-223.865,175.675,-74.780,-72.600,17.940
132,47008.167000,241.259,11.043,82.944,445.864,-226.609,172.639,-70.780,-57.600,1.940
133,47008.202000,240.276,7.027,84.992,443.933,-229.383,172.578,-72.780,-17.600,-20.060
134,47008.242000,234.380,6.024,87.040,444.001,-224.744,175.660,-37.780,15.400,-48.060
135,47008.282000,237.328,8.031,86.016,444.008,-223.886,172.695,-13.780,27.400,-55.060
136,47008.322000,235.363,8.031,89.088,447.781,-224.752,172.682,5.220,24.400,-45.060
137,47008.363000,231.432,10.039,90.112,444.981,-222.022,173.730,8.220,10.400,-33.060
138,47008.383000,234.380,10.039,88.064,447.836,-221.029,175.745,16.220,6.400,-20.060
139,47008.423000,235.363,10.039,88.064,445.945,-221.035,176.737,26.220,4.400,-0.060
140,47008.463000,236.345,12.047,87.040,443.145,-218.304,177.785,35.220,13.400,6.940
141,47008.503000,238.311,15.059,83.968,445.942,-221.074,174.747,51.220,14.400,11.940
142,47008.543000,236.345,16.063,82.944,444.040,-221.976,176.714,77.220,16.400,4.940
143,47008.584000,236.345,16.063,81.920,447.804,-223.719,178.672,80.220,17.400,2.940
144,47008.605000,239.294,18.071,81.920,445.011,-220.910,183.700,89.220,26.400,-0.060
145,47008.644000,240.276,21.082,80.896,444.898,-229.156,183.525,122.220,40.400,-8.060
146,47008.684000,239.294,23.090,79.872,445.062,-217.226,184.774,171.220,47.400,-17.060
147,47008.726000,237.328,27.106,75.776,447.894,-218.047,187.744,166.220,49.400,-22.060
148,47008.767000,240.276,32.125,76.800,444.199,-211.645,189.864,163.220,46.400,-2.060
149,47008.802000,238.311,33.129,76.800,448.927,-212.401,194.828,145.220,44.400,5.940
150,47008.848000,238.311,36.141,77.824,448.043,-207.832,194.924,121.220,25.400,10.940
151,47008.863000,237.328,35.137,74.752,445.146,-212.392,197.807,119.220,23.400,20.940
152,47008.903000,236.345,36.141,75.776,447.139,-205.038,197.966,106.220,8.400,23.940
153,47008.943000,236.345,37.145,72.704,444.280,-206.849,200.907,81.220,-3.600,31.940
154,47008.985000,237.328,38.149,75.776,445.251,-205.004,200.948,64.220,-16.600,31.940
155,47009.25000,239.294,39.153,72.704,447.141,-205.018,198.961,42.220,-30.600,21.940
156,47009.67000,240.276,36.141,71.680,447.973,-213.271,197.792,16.220,-43.600,31.940
157,47009.87000,235.363,38.149,70.656,447.123,-205.993,195.957,-1.780,-62.600,17.940
158,47009.123000,239.294,37.145,69.632,447.968,-213.329,194.807,-9.780,-61.600,26.940
159,47009.164000,239.294,35.137,66.560,449.946,-206.911,193.952,-15.780,-63.600,25.940
160,47009.205000,239.294,32.125,69.632,447.977,-212.452,192.837,-17.780,-68.600,22.940
161,47009.246000,241.259,34.133,65.536,451.832,-206.964,189.975,-18.780,-59.600,24.940
162,47009.297000,241.259,32.125,66.560,447.097,-207.845,194.923,-22.780,-52.600,17.940
163,47009.306000,240.276,33.129,65.536,452.755,-208.764,190.933,-22.780,-57.600,13.940
164,47009.356000,241.259,33.129,65.536,446.078,-212.555,188.853,-30.780,-60.600,13.940
165,47009.385000,241.259,30.118,63.488,448.958,-208.951,183.961,-38.780,-55.600,10.940
166,47009.430000,243.225,30.118,64.512,448.908,-212.615,183.883,-41.780,-52.600,10.940
167,47009.466000,241.259,30.118,63.488,452.658,-215.294,184.826,-47.780,-45.600,11.940
168,47009.505000,243.225,29.114,65.536,448.821,-219.028,183.746,-56.780,-45.600,19.940
169,47009.543000,243.225,28.110,63.488,449.790,-217.203,182.792,-61.780,-36.600,20.940
170,47009.568000,237.328,27.106,67.584,446.948,-217.280,180.797,-66.780,-28.600,21.940
171,47009.605000,239.294,26.102,68.608,445.081,-215.472,180.832,-75.780,-15.600,14.940
172,47009.645000,244.207,23.090,73.728,448.825,-218.210,178.790,-80.780,-0.600,11.940
173,47009.686000,244.207,21.082,77.824,443.135,-219.201,178.761,-83.780,-0.600,11.940
174,47009.726000,241.259,17.067,75.776,445.959,-220.099,177.751,-59.780,-15.600,5.940
175,47009.766000,240.276,13.051,76.800,445.890,-224.758,173.673,-53.780,-27.600,9.940
176,47009.783000,239.294,13.051,78.848,445.008,-220.170,174.764,-44.780,-33.600,12.940
177,47009.828000,240.276,14.055,79.872,443.965,-227.473,176.597,-21.780,-25.600,10.940
178,47009.873000,240.276,12.047,79.872,445.008,-220.170,174.764,-3.780,-12.600,3.940
179,47009.903000,239.294,14.055,77.824,445.033,-218.338,174.803,1.220,-5.600,-5.060
180,47009.943000,239.294,12.047,79.872,443.999,-224.763,174.665,6.220,3.400,-20.060
181,47009.983000,239.294,14.055,79.872,444.051,-221.079,175.738,5.220,12.400,-32.060
182,47010.6000,238.311,16.063,78.848,444.062,-220.183,174.763,-6.780,29.400,-40.060
183,47010.47000,237.328,18.071,79.872,442.149,-221.981,177.706,-25.780,41.400,-28.060
184,47010.87000,236.345,14.055,79.872,443.080,-222.924,175.698,-78.780,41.400,-4.060
185,47010.127000,238.311,12.047,86.016,442.199,-218.317,177.784,-150.780,70.400,-6.060
186,47010.166000,242.242,6.024,82.944,448.779,-221.056,173.757,-161.780,43.400,-17.060
187,47010.213000,236.345,2.008,87.040,445.904,-223.822,174.688,-186.780,30.400,-37.060
188,47010.228000,236.345,0.000,84.992,448.776,-221.095,171.766,-241.780,21.400,-94.060
189,47010.273000,237.328,-6.024,90.112,449.670,-224.766,170.695,-246.780,-15.600,-107.060
190,47010.310000,238.311,-6.024,84.992,448.783,-220.237,168.801,-256.780,-43.600,-144.060
191,47010.357000,237.328,-3.012,81.920,455.451,-216.563,164.910,-263.780,-70.600,-151.060
192,47010.386000,239.294,1.004,80.896,461.139,-214.832,156.004,-290.780,-79.600,-177.060
193,47010.427000,237.328,5.020,74.752,458.284,-215.824,153.989,-310.780,-54.600,-194.060
194,47010.466000,238.311,8.031,68.608,463.927,-217.699,147.990,-309.780,-9.600,-199.060
195,47010.486000,229.466,16.063,56.320,464.934,-213.125,147.094,-270.780,12.400,-214.060
196,47010.526000,259.931,36.141,52.224,466.873,-209.474,145.185,-240.780,157.400,-238.060
197,47010.565000,256.983,36.141,55.296,471.794,-195.650,146.481,-168.780,154.400,-195.060
198,47010.605000,265.827,42.165,66.560,473.606,-201.960,150.328,-140.780,252.400,-195.060
199,47010.645000,233.397,31.122,61.440,476.566,-193.580,155.484,-152.780,201.400,-168.060
200,47010.700000,232.415,38.149,58.368,475.660,-190.805,157.531,-173.780,186.400,-187.060
201,47010.720000,231.432,41.161,60.416,478.476,-192.580,158.492,-216.780,120.400,-211.060
202,47010.755000,226.518,39.153,58.368,477.694,-180.663,159.739,-255.780,120.400,-249.060
203,47010.789000,231.432,47.184,69.632,482.484,-176.059,157.855,-268.780,155.400,-295.060
204,47010.828000,225.536,46.180,76.800,480.600,-175.987,162.827,-299.780,156.400,-292.060
205,47010.868000,225.536,53.208,78.848,485.457,-166.763,163.031,-264.780,179.400,-238.060
206,47010.912000,227.501,56.220,81.920,488.308,-165.809,163.055,-252.780,179.400,-140.060
207,47010.932000,232.415,58.227,79.872,484.417,-174.026,166.853,-291.780,159.400,-39.060
208,47010.967000,237.328,57.224,69.632,486.408,-166.692,166.017,-364.780,132.400,60.940
209,47011.5000,217.674,45.176,73.728,484.369,-177.671,167.770,-347.780,152.400,145.940
210,47011.61000,218.656,37.145,86.016,478.619,-183.204,169.633,-401.780,227.400,152.940
211,47011.87000,260.914,44.173,152.576,477.628,-186.823,172.539,-462.780,292.400,88.940
212,47011.127000,250.104,32.125,164.864,474.756,-189.550,175.460,-250.780,199.400,111.940
213,47011.168000,261.896,41.161,194.560,474.663,-196.801,179.284,-245.780,221.400,57.940
214,47011.184000,242.242,27.106,197.632,473.731,-195.878,180.297,-143.780,72.400,7.940
215,47011.226000,208.829,34.133,159.744,478.413,-198.700,173.282,-21.780,-276.600,-109.060
216,47011.270000,196.054,36.141,122.880,486.094,-189.615,164.535,62.220,-350.600,-212.060
217,47011.304000,183.278,71.278,98.304,489.835,-192.391,160.502,100.220,-359.600,-275.060
218,47011.345000,189.175,72.282,76.800,496.576,-183.240,155.734,77.220,-258.600,-198.060
219,47011.385000,214.726,81.318,75.776,496.583,-182.382,152.768,-22.780,-66.600,-66.060
220,47011.408000,219.639,83.325,70.656,494.619,-187.865,154.638,-77.780,74.400,197.940
221,47011.448000,212.760,57.224,116.736,486.994,-192.448,159.502,-118.780,322.400,447.940
222,47011.488000,231.432,17.067,136.192,480.210,-205.186,168.173,-128.780,454.400,667.940
223,47011.526000,207.846,-12.047,144.384,466.753,-221.656,177.749,184.220,494.400,779.940
224,47011.566000,201.950,-32.125,164.864,449.462,-242.601,195.181,399.220,493.400,805.940
225,47011.611000,190.157,-39.153,171.008,440.888,-248.775,212.940,602.220,359.400,686.940
226,47011.627000,188.192,-27.106,167.936,429.402,-259.685,224.627,672.220,233.400,568.940
227,47011.672000,172.468,-23.090,169.984,421.907,-255.048,232.672,590.220,141.400,450.940
228,47011.708000,166.572,-3.012,150.528,418.056,-260.497,237.523,453.220,-28.600,187.940
229,47011.750000,234.380,0.000,158.720,421.892,-257.542,245.549,270.220,-14.600,78.940
230,47011.786000,214.726,-12.047,169.984,420.083,-251.194,243.692,185.220,-32.600,71.940
231,47011.826000,193.106,-10.039,175.104,423.004,-245.581,247.794,219.220,15.400,-153.060
232,47011.867000,190.157,-6.024,171.008,425.898,-241.821,250.862,256.220,-14.600,-359.060
233,47011.888000,177.382,3.012,147.456,433.636,-229.752,254.115,301.220,-96.600,-478.060
234,47011.928000,203.916,0.000,148.480,440.582,-205.884,252.644,272.220,-22.600,-636.060
235,47011.968000,216.691,12.047,118.784,445.507,-192.002,256.925,400.220,15.400,-674.060
236,47012.7000,232.415,57.224,108.544,450.567,-168.081,259.431,567.220,88.400,-762.060
237,47012.47000,236.345,109.427,116.736,454.650,-146.843,265.857,618.220,135.400,-764.060
238,47012.88000,239.294,125.490,116.736,467.251,-125.472,273.293,478.220,133.400,-739.060
239,47012.108000,236.345,135.529,126.976,467.565,-102.550,274.776,253.220,3.400,-494.060
240,47012.146000,214.726,128.502,123.904,468.563,-98.853,275.850,165.220,-125.600,-309.060
241,47012.186000,199.002,115.451,106.496,473.446,-87.017,269.147,102.220,-263.600,-125.060
242,47012.238000,191.140,101.396,88.064,476.278,-87.058,265.172,4.220,-366.600,22.940
243,47012.271000,190.157,100.392,78.848,483.828,-87.192,253.244,-43.780,-387.600,22.940
244,47012.315000,195.071,98.384,74.752,484.658,-94.704,243.139,-164.780,-353.600,15.940
245,47012.337000,210.795,94.369,66.560,487.476,-95.680,238.150,-159.780,-239.600,26.940
246,47012.372000,213.743,100.392,75.776,487.391,-101.294,232.062,-78.780,-97.600,24.940
247,47012.407000,206.864,99.388,77.824,484.566,-100.396,233.072,30.220,21.400,119.940
248,47012.447000,212.760,108.424,93.184,486.464,-100.312,236.060,74.220,128.400,147.940
249,47012.487000,203.916,117.459,98.304,483.499,-110.291,242.806,117.220,123.400,194.940
250,47012.527000,203.916,112.439,100.352,475.935,-110.313,246.773,154.220,129.400,271.940
251,47012.548000,201.950,112.439,105.472,466.352,-119.540,249.546,180.220,97.400,331.940
252,47012.589000,199.002,110.431,109.568,464.433,-121.417,248.509,184.220,50.400,361.940
253,47012.629000,211.777,98.384,115.712,458.555,-136.150,248.187,89.220,66.400,385.940
254,47012.670000,217.674,73.286,106.496,459.469,-138.828,251.115,33.220,-7.600,405.940
255,47012.710000,245.190,48.188,119.808,446.967,-153.648,250.781,-82.780,53.400,440.940
256,47012.750000,238.311,21.082,116.736,441.028,-172.943,251.356,-138.780,41.400,583.940
257,47012.790000,243.225,-9.035,122.880,435.375,-171.185,251.385,-62.780,6.400,579.940
258,47012.811000,256.983,-1.004,105.472,427.533,-191.401,252.933,54.220,-80.600,546.940
259,47012.851000,226.518,-4.016,91.136,423.599,-201.665,245.746,77.220,-89.600,436.940
260,47012.901000,227.501,-7.027,91.136,419.770,-205.302,249.641,37.220,-104.600,322.940
261,47012.931000,227.501,-6.024,90.112,417.815,-209.908,249.540,-23.780,-110.600,238.940
262,47012.967000,224.553,-5.020,87.040,415.844,-215.468,247.430,-21.780,-64.600,202.940
263,47013.8000,227.501,-2.008,100.352,412.068,-214.641,245.453,-92.780,45.400,104.940
264,47013.28000,233.397,-8.031,114.688,408.113,-227.459,248.158,-67.780,71.400,104.940
265,47013.70000,227.501,-7.027,112.640,407.190,-225.658,247.200,48.220,48.400,19.940
266,47013.110000,227.501,-6.024,100.352,408.141,-225.587,250.187,113.220,3.400,-30.060
267,47013.148000,227.501,-15.059,100.352,409.078,-226.452,252.159,142.220,-37.600,-53.060
268,47013.197000,236.345,-17.067,97.280,407.322,-216.419,251.376,251.220,-23.600,-63.060
269,47013.229000,235.363,-14.055,79.872,412.047,-217.194,255.345,413.220,-17.600,-93.060
270,47013.248000,250.104,-5.020,73.728,407.552,-200.630,262.653,458.220,88.400,-167.060
271,47013.291000,249.121,-7.027,67.584,411.534,-187.500,275.869,735.220,114.400,-215.060
272,47013.330000,254.035,22.086,80.896,407.895,-177.375,281.052,701.220,252.400,-344.060
273,47013.368000,225.536,38.149,79.872,410.954,-162.446,293.310,754.220,256.400,-419.060
274,47013.416000,225.536,75.294,94.208,406.547,-140.228,308.696,467.220,284.400,-554.060
275,47013.450000,222.587,79.310,107.520,407.641,-130.021,314.882,275.220,265.400,-542.060
276,47013.471000,205.881,70.275,118.784,410.640,-118.873,321.092,207.220,290.400,-523.060
277,47013.512000,208.829,87.341,150.528,402.313,-105.984,330.306,175.220,293.400,-431.060
278,47013.554000,184.261,97.380,148.480,402.406,-99.512,333.427,175.220,253.400,-371.060
279,47013.592000,160.676,95.373,163.840,398.806,-86.619,339.664,140.220,221.400,-309.060
280,47013.631000,150.848,111.435,173.056,396.959,-83.798,344.695,198.220,140.400,-269.060
281,47013.670000,157.727,108.424,173.056,398.956,-76.386,347.839,144.220,44.400,-110.060
282,47013.707000,164.607,80.314,166.912,397.098,-73.701,345.905,149.220,-34.600,90.940
283,47013.731000,202.933,106.416,177.152,399.064,-68.199,345.030,334.220,-101.600,60.940
284,47013.772000,207.846,117.459,166.912,399.075,-67.303,344.054,328.220,-164.600,57.940
285,47013.807000,204.898,101.396,145.408,404.807,-62.744,339.187,229.220,-292.600,92.940
286,47013.847000,196.054,80.314,126.976,408.496,-69.205,334.081,206.220,-361.600,161.940
287,47013.887000,199.002,74.290,120.832,418.946,-65.520,328.207,147.220,-372.600,127.940
288,47013.927000,192.123,65.255,104.448,423.721,-61.871,324.314,101.220,-374.600,83.940
289,47013.947000,206.864,67.263,79.872,428.359,-67.520,313.259,-51.780,-426.600,-87.060
290,47013.987000,218.656,84.329,78.848,434.122,-60.292,304.470,-278.780,-410.600,-304.060
291,47014.27000,207.846,86.337,73.728,443.634,-55.742,296.624,-332.780,-361.600,-471.060
292,47014.67000,209.812,96.376,83.968,446.531,-50.403,286.795,-486.780,-254.600,-547.060
293,47014.112000,204.898,97.380,91.136,456.055,-45.717,285.914,-478.780,-160.600,-521.060
294,47014.152000,207.846,101.396,88.064,459.904,-40.307,279.073,-459.780,-175.600,-480.060
295,47014.172000,207.846,101.396,82.944,458.908,-43.204,272.047,-436.780,-262.600,-386.060
296,47014.212000,202.933,105.412,74.752,466.605,-33.163,265.310,-442.780,-327.600,-258.060
297,47014.252000,210.795,109.427,49.152,467.422,-41.591,255.185,-487.780,-328.600,-191.060
298,47014.288000,233.397,115.451,40.960,474.000,-44.350,250.163,-673.780,-191.600,-53.060
299,47014.328000,237.328,117.459,38.912,473.934,-48.969,248.075,-781.780,57.400,95.940
300,47014.381000,240.276,119.467,40.960,472.732,-68.142,251.644,-944.780,257.400,224.940
301,47014.408000,237.328,107.420,59.392,462.965,-91.073,256.115,-1262.780,641.400,433.940
302,47014.428000,249.121,90.353,91.136,448.368,-122.136,269.357,-1516.780,844.400,564.940
303,47014.470000,176.399,37.145,200.704,436.726,-144.117,276.829,-1653.780,967.400,642.940
304,47014.510000,195.071,25.098,230.400,418.235,-181.897,276.992,-1662.780,654.400,376.940
305,47014.551000,167.555,3.012,260.096,417.984,-199.459,268.661,-1450.780,146.400,42.940
306,47014.592000,169.520,3.012,264.192,419.679,-212.533,254.460,-1230.780,-51.600,-241.060
307,47014.628000,173.451,22.086,252.928,433.867,-210.884,235.618,-951.780,-341.600,-496.060
308,47014.648000,181.313,30.118,216.064,437.704,-206.371,229.752,-736.780,-455.600,-424.060
309,47014.688000,183.278,27.106,172.032,446.070,-214.952,206.705,-457.780,-589.600,-172.060
310,47014.731000,189.175,12.047,132.096,452.734,-210.557,192.884,-220.780,-634.600,-14.060
311,47014.772000,191.140,5.020,106.496,460.197,-217.104,180.820,-17.780,-494.600,194.940
312,47014.812000,190.157,8.031,103.424,459.095,-228.169,177.599,172.220,-231.600,357.940
313,47014.853000,176.399,3.012,116.736,454.306,-232.754,180.478,195.220,24.400,448.940
314,47014.868000,188.192,-19.075,133.120,446.685,-237.298,187.333,277.220,192.400,541.940
315,47014.913000,187.209,-9.035,149.504,436.103,-251.002,195.977,442.220,221.400,551.940
316,47014.948000,179.347,-34.133,182.272,430.443,-250.862,206.913,575.220,144.400,580.940
317,47014.995000,198.019,-28.110,182.272,421.797,-261.734,218.604,719.220,27.400,489.940
318,47015.30000,196.054,-27.106,187.392,421.844,-258.868,224.633,798.220,-31.600,401.940
319,47015.76000,183.278,-20.078,182.272,418.186,-250.498,233.758,830.220,-62.600,303.940
320,47015.91000,179.347,-15.059,160.768,420.974,-254.904,240.630,760.220,-144.600,238.940
321,47015.131000,187.209,-16.063,152.576,416.428,-242.024,246.866,751.220,-209.600,241.940
322,47015.171000,213.743,-2.008,137.216,418.379,-238.237,251.922,681.220,-211.600,242.940
323,47015.215000,219.639,2.008,142.336,422.182,-237.212,254.934,653.220,-154.600,227.940
324,47015.250000,218.656,14.055,135.168,423.194,-232.580,257.023,633.220,-193.600,123.940
325,47015.294000,233.397,19.075,129.024,425.220,-223.296,262.197,636.220,-188.600,36.940
326,47015.330000,233.397,40.157,118.784,429.147,-213.110,265.403,661.220,-227.600,-12.060
327,47015.350000,223.570,45.176,101.376,434.007,-203.847,267.597,653.220,-209.600,-27.060
328,47015.393000,233.397,59.231,97.280,436.960,-195.545,268.773,589.220,-155.600,1.940
329,47015.429000,235.363,54.212,89.088,441.704,-194.566,268.800,611.220,-159.600,33.940
330,47015.473000,239.294,60.235,82.944,439.979,-182.623,272.036,605.220,-98.600,14.940
331,47015.513000,230.449,60.235,80.896,444.849,-173.243,280.200,653.220,-84.600,36.940
332,47015.553000,242.242,69.271,80.896,446.819,-167.701,281.315,609.220,-11.600,43.940
333,47015.573000,221.605,72.282,77.824,442.178,-161.312,283.434,604.220,-74.600,65.940
334,47015.613000,212.760,68.267,74.752,446.065,-153.913,284.592,480.220,-90.600,49.940
335,47015.653000,217.674,72.282,73.728,446.031,-156.623,286.523,383.220,-95.600,81.940
336,47015.693000,243.225,67.263,76.800,447.997,-151.120,285.649,229.220,-52.600,114.940
337,47015.733000,250.104,64.251,76.800,446.025,-157.461,290.484,155.220,-4.600,143.940
338,47015.771000,244.207,62.243,75.776,446.037,-156.545,290.503,147.220,4.400,189.940
339,47015.790000,244.207,60.235,70.656,441.318,-155.691,290.515,165.220,71.400,228.940
340,47015.835000,241.259,60.235,67.584,438.384,-162.999,293.339,131.220,55.400,231.940
341,47015.877000,232.415,56.220,65.536,434.622,-161.236,292.376,15.220,30.400,214.940
342,47015.911000,235.363,54.212,61.440,434.547,-166.733,292.259,-142.780,44.400,134.940
343,47015.951000,235.363,59.231,60.416,430.714,-170.428,293.169,-224.780,57.400,67.940
344,47015.991000,245.190,65.255,68.608,429.603,-182.370,291.919,-399.780,181.400,34.940
345,47016.30000,240.276,67.263,81.920,423.905,-184.219,294.855,-487.780,220.400,-1.060
346,47016.51000,231.432,73.286,91.136,419.959,-196.159,295.590,-565.780,282.400,-25.060
347,47016.91000,215.708,69.271,89.088,417.992,-201.681,295.469,-690.780,190.400,-7.060
348,47016.131000,209.812,65.255,90.112,411.136,-218.337,291.126,-767.780,117.400,9.940
349,47016.171000,212.760,61.239,87.040,408.159,-227.692,282.965,-784.780,51.400,48.940
350,47016.211000,209.812,62.243,96.256,408.088,-232.370,277.892,-725.780,34.400,15.940
351,47016.251000,208.829,45.176,101.376,404.097,-246.377,266.647,-677.780,84.400,41.940
352,47016.271000,218.656,28.110,108.544,394.619,-247.437,265.616,-476.780,166.400,15.940
353,47016.311000,266.810,1.004,144.384,388.802,-257.609,264.396,-453.780,316.400,61.940
354,47016.351000,249.121,-40.157,160.768,381.146,-264.103,265.242,-220.780,355.400,155.940
355,47016.391000,252.069,-38.149,168.960,370.627,-273.226,273.984,1.220,433.400,77.940
356,47016.431000,233.397,-53.208,191.488,365.028,-268.525,284.022,47.220,403.400,134.940
357,47016.478000,184.261,-66.259,194.560,353.566,-276.842,287.806,32.220,345.400,154.940
358,47016.493000,160.676,-66.259,192.512,348.875,-274.897,296.793,1.220,194.400,-22.060
359,47016.531000,162.641,-49.192,180.224,346.943,-277.690,295.736,23.220,61.400,-151.060
360,47016.573000,165.589,-40.157,192.512,349.888,-269.485,291.936,-38.780,-19.600,-274.060
361,47016.613000,169.520,-36.141,176.128,352.825,-262.138,291.102,17.220,-125.600,-224.060
362,47016.650000,171.486,-39.153,174.080,362.251,-264.761,291.060,65.220,-171.600,-150.060
363,47016.690000,177.382,-31.122,175.104,359.483,-259.341,289.182,157.220,-286.600,-70.060
364,47016.735000,196.054,-27.106,167.936,362.369,-255.678,287.275,230.220,-324.600,-30.060
365,47016.752000,199.985,-17.067,166.912,369.057,-250.230,280.439,297.220,-374.600,-37.060
366,47016.792000,202.933,-6.024,145.408,374.690,-252.982,276.410,355.220,-447.600,-80.060
367,47016.832000,206.864,-1.004,123.904,381.494,-239.250,271.739,329.220,-498.600,-103.060
368,47016.872000,212.760,3.012,120.832,393.871,-232.811,264.932,175.220,-490.600,-131.060
369,47016.912000,219.639,11.043,102.400,400.398,-239.254,258.836,84.220,-376.600,-134.060
370,47016.952000,225.536,4.016,95.232,404.350,-226.475,254.141,-71.780,-296.600,-144.060
371,47016.971000,239.294,6.024,94.208,408.965,-233.937,244.043,-271.780,-233.600,-168.060
372,47017.11000,235.363,3.012,93.184,413.716,-232.101,241.105,-358.780,-120.600,-184.060
373,47017.56000,236.345,-3.012,93.184,416.570,-230.348,235.179,-478.780,-38.600,-230.060
374,47017.91000,234.380,-2.008,93.184,420.397,-226.731,230.288,-606.780,68.400,-262.060
375,47017.132000,233.397,-7.027,96.256,425.119,-226.786,224.326,-625.780,49.400,-284.060
376,47017.172000,224.553,-24.094,97.280,427.028,-225.026,219.393,-573.780,56.400,-282.060
377,47017.192000,225.536,-42.165,109.568,432.619,-230.585,212.321,-452.780,42.400,-285.060
378,47017.232000,228.484,-42.165,101.376,438.446,-219.535,211.570,-282.780,34.400,-327.060
379,47017.272000,226.518,-32.125,94.208,441.359,-214.001,211.692,-124.780,48.400,-356.060
380,47017.312000,226.518,-25.098,93.184,447.087,-210.262,211.780,-67.780,82.400,-362.060
381,47017.357000,230.449,-13.051,94.208,453.934,-194.483,218.094,94.220,121.400,-318.060
382,47017.392000,281.551,9.035,106.496,453.928,-195.321,222.054,150.220,298.400,-298.060
383,47017.412000,214.726,74.290,117.760,457.089,-173.042,235.464,392.220,316.400,-393.060
384,47017.452000,228.484,106.416,134.144,455.258,-169.266,242.504,263.220,378.400,-404.060
385,47017.492000,233.397,128.502,147.456,461.176,-152.525,251.820,159.220,353.400,-338.060
386,47017.532000,213.743,110.431,162.816,458.448,-145.097,258.937,90.220,261.400,-155.060
387,47017.572000,192.123,100.392,160.768,461.367,-140.284,268.990,141.220,189.400,-48.060
388,47017.611000,172.468,92.361,147.456,458.498,-142.972,273.902,175.220,63.400,-10.060
389,47017.651000,175.417,95.373,140.288,454.746,-140.332,270.969,204.220,-22.600,-51.060
390,47017.671000,175.417,94.369,138.240,462.466,-129.239,271.216,259.220,-86.600,-93.060
391,47017.711000,176.399,94.369,126.976,465.336,-126.531,267.299,304.220,-102.600,-86.060
392,47017.752000,177.382,101.396,132.096,468.360,-113.550,273.548,374.220,-80.600,-68.060
393,47017.792000,182.296,105.412,134.144,469.270,-116.267,274.486,406.220,-29.600,44.940
394,47017.834000,190.157,108.424,137.216,466.435,-116.265,276.471,464.220,24.400,136.940
395,47017.874000,185.244,109.427,139.264,464.701,-105.199,281.677,501.220,77.400,296.940
396,47017.895000,175.417,100.392,136.192,462.754,-109.707,286.552,505.220,95.400,398.940
397,47017.943000,178.365,90.353,142.336,458.964,-110.576,291.501,510.220,127.400,458.940
398,47017.971000,199.985,93.365,144.384,456.123,-111.412,297.447,519.220,136.400,529.940
399,47018.16000,202.933,86.337,145.408,447.446,-124.175,306.114,436.220,115.400,587.940
400,47018.64000,215.708,76.298,143.360,444.468,-134.309,304.899,331.220,66.400,597.940
401,47018.96000,227.501,66.259,135.168,440.699,-133.404,306.902,206.220,-21.600,550.940
402,47018.117000,228.484,61.239,121.856,437.683,-146.287,305.629,175.220,-82.600,449.940
403,47018.153000,225.536,61.239,107.520,433.898,-146.337,305.622,131.220,-69.600,317.940
404,47018.193000,215.708,57.224,95.232,435.742,-149.957,306.543,142.220,-39.600,246.940
405,47018.232000,211.777,52.204,94.208,435.694,-153.602,307.460,130.220,26.400,210.940
406,47018.275000,222.587,54.212,95.232,427.107,-159.153,310.313,83.220,77.400,249.940
407,47018.315000,222.587,39.153,102.400,425.150,-163.778,309.217,82.220,104.400,320.940
408,47018.354000,225.536,32.125,112.640,422.205,-171.983,313.016,115.220,58.400,349.940
409,47018.387000,224.553,35.137,112.640,422.259,-168.279,315.084,190.220,-55.600,326.940
410,47018.416000,221.605,32.125,105.472,418.413,-172.890,315.975,229.220,-93.600,284.940
411,47018.456000,217.674,33.129,99.328,420.229,-178.382,314.866,265.220,-136.600,242.940
412,47018.496000,226.518,25.098,96.256,418.384,-174.762,313.946,206.220,-119.600,207.940
413,47018.536000,228.484,21.082,90.112,420.189,-181.149,313.813,166.220,-103.600,175.940
414,47018.576000,236.345,17.067,93.184,418.354,-176.652,310.922,92.220,-62.600,95.940
415,47018.596000,235.363,20.078,88.064,413.573,-180.379,310.835,85.220,-60.600,6.940
416,47018.633000,240.276,24.094,90.112,415.540,-174.858,310.956,60.220,-70.600,-65.060
417,47018.672000,242.242,29.114,89.088,421.272,-171.079,313.034,62.220,-108.600,-195.060
418,47018.712000,237.328,41.161,84.992,423.270,-162.887,309.233,64.220,-86.600,-260.060
419,47018.755000,231.432,45.176,86.016,428.869,-168.348,307.136,45.220,-93.600,-281.060
420,47018.795000,230.449,48.188,80.896,423.338,-157.468,305.370,0.220,-25.600,-238.060
421,47018.816000,224.553,48.188,80.896,427.225,-150.070,306.528,8.220,18.400,-181.060
422,47018.856000,225.536,52.204,88.064,428.123,-153.702,307.446,-2.780,60.400,-113.060
423,47018.896000,223.570,53.208,94.208,424.466,-144.552,309.625,39.220,88.400,-89.060
424,47018.936000,226.518,51.200,92.160,425.374,-148.067,316.514,60.220,75.400,-88.060
425,47018.976000,228.484,60.235,93.184,423.543,-143.531,315.613,93.220,34.400,-122.060
426,47019.16000,231.432,62.243,86.016,421.762,-135.311,315.785,79.220,10.400,-144.060
427,47019.36000,236.345,64.251,82.944,422.770,-130.737,314.890,63.220,-0.600,-190.060
428,47019.76000,240.276,65.255,76.800,422.784,-129.801,315.904,86.220,41.400,-282.060
429,47019.121000,240.276,71.278,76.800,425.795,-117.737,322.133,140.220,133.400,-337.060
430,47019.156000,241.259,77.302,75.776,420.279,-106.682,329.323,225.220,351.400,-393.060
431,47019.200000,245.190,86.337,90.112,413.720,-102.929,338.345,308.220,437.400,-363.060
432,47019.233000,212.760,91.357,125.952,407.307,-89.002,352.556,268.220,572.400,-317.060
433,47019.279000,180.330,100.392,150.528,397.887,-87.080,363.524,261.220,522.400,-110.060
434,47019.296000,177.382,110.431,182.272,386.646,-79.725,372.616,133.220,368.400,75.940
435,47019.337000,191.140,99.388,194.560,381.848,-85.187,377.466,21.220,215.400,217.940
436,47019.373000,193.106,89.349,187.392,379.860,-92.482,380.292,-101.780,22.400,303.940
437,47019.417000,190.157,77.302,179.200,374.054,-101.758,378.096,-135.780,-43.600,318.940
438,47019.461000,194.088,60.235,154.624,375.806,-111.849,375.895,-179.780,-167.600,283.940
439,47019.496000,187.209,59.231,132.096,375.571,-128.457,369.573,-195.780,-238.600,219.940
440,47019.515000,190.157,55.216,113.664,378.400,-128.536,363.608,-210.780,-264.600,172.940
441,47019.555000,199.985,47.184,111.616,383.075,-132.216,359.558,-232.780,-235.600,122.940
442,47019.595000,200.967,47.184,110.592,382.899,-144.282,351.344,-211.780,-187.600,78.940
443,47019.635000,204.898,57.224,110.592,384.691,-151.586,351.191,-209.780,-117.600,34.940
444,47019.674000,205.881,58.227,113.664,384.688,-151.625,349.201,-234.780,-96.600,-9.060
445,47019.714000,208.829,65.255,115.712,381.867,-149.909,345.255,-282.780,-94.600,-64.060
446,47019.740000,203.916,75.294,121.856,383.725,-151.833,339.249,-291.780,-119.600,-99.060
447,47019.775000,202.933,77.302,113.664,386.479,-157.409,333.166,-354.780,-169.600,-66.060
448,47019.815000,206.864,73.286,103.424,386.280,-171.288,325.908,-436.780,-241.600,-25.060
449,47019.856000,195.071,62.243,105.472,391.963,-169.615,314.017,-511.780,-312.600,-4.060
450,47019.896000,226.518,59.231,102.400,393.739,-177.114,303.913,-617.780,-205.600,-56.060
451,47019.936000,275.655,46.180,131.072,392.571,-192.798,298.604,-601.780,-291.600,85.940
452,47019.976000,232.415,14.055,128.000,393.401,-200.310,288.499,-586.780,-99.600,129.940
453,47019.996000,222.587,0.000,123.904,395.009,-219.778,275.157,-623.780,-249.600,203.940
454,47020.36000,218.656,-6.024,113.664,392.102,-223.694,264.129,-631.780,-306.600,157.940
455,47020.77000,215.708,-7.027,115.712,393.853,-233.026,253.986,-558.780,-240.600,133.940
456,47020.118000,215.708,-18.071,125.952,396.566,-241.390,245.855,-548.780,-125.600,128.940
457,47020.153000,210.795,-25.098,125.952,390.761,-249.885,236.714,-437.780,-69.600,101.940
458,47020.197000,210.795,-28.110,131.072,389.683,-259.137,232.537,-331.780,-48.600,95.940
459,47020.217000,208.829,-43.169,134.144,389.609,-263.855,225.474,-277.780,-55.600,147.940
460,47020.273000,210.795,-51.200,138.240,388.607,-267.590,222.409,-181.780,-95.600,143.940
461,47020.306000,212.760,-51.200,139.264,389.563,-266.701,220.440,-119.780,-143.600,96.940
462,47020.333000,222.587,-52.204,139.264,391.347,-274.102,215.312,-62.780,-175.600,35.940
463,47020.373000,220.622,-43.169,133.120,393.258,-272.323,211.374,-48.780,-245.600,-122.060
464,47020.413000,218.656,-36.141,123.904,399.980,-264.166,202.606,-119.780,-294.600,-222.060
465,47020.433000,226.518,-33.129,113.664,409.531,-256.849,195.813,-163.780,-318.600,-293.060
466,47020.473000,249.121,-23.090,89.088,412.321,-259.696,188.794,-154.780,-304.600,-318.060
467,47020.513000,253.052,-11.043,78.848,426.656,-248.632,183.083,-39.780,-261.600,-323.060
468,47020.554000,221.605,4.016,52.224,427.695,-241.369,179.261,163.220,-99.600,-383.060
469,47020.595000,279.585,51.200,52.224,437.256,-234.713,185.384,156.220,54.400,-403.060
470,47020.635000,270.741,41.161,66.560,443.940,-230.844,191.445,158.220,169.400,-317.060
471,47020.682000,240.276,37.145,56.320,443.158,-218.928,192.692,177.220,134.400,-336.060
472,47020.697000,231.432,48.188,49.152,448.129,-201.439,194.066,116.220,171.400,-349.060
473,47020.737000,227.501,48.188,56.320,451.913,-202.169,201.018,19.220,113.400,-289.060
474,47020.778000,213.743,41.161,53.248,452.945,-195.763,200.162,-54.780,114.400,-286.060
475,47020.819000,210.795,49.192,67.584,457.873,-181.861,205.438,-15.780,161.400,-333.060
476,47020.854000,220.622,63.247,65.536,457.956,-176.266,210.530,-3.780,201.400,-315.060
477,47020.908000,226.518,75.294,69.632,456.181,-167.987,213.688,-68.780,230.400,-244.060
478,47020.915000,226.518,84.329,68.608,458.121,-165.097,219.720,-174.780,224.400,-147.060
479,47020.967000,238.311,84.329,64.512,456.110,-174.205,223.502,-351.780,266.400,50.940
480,47021.13000,250.104,75.294,69.632,452.183,-185.151,228.236,-440.780,327.400,217.940
481,47021.40000,251.086,60.235,86.016,439.864,-187.048,233.151,-527.780,490.400,418.940
482,47021.75000,253.052,52.204,125.952,432.918,-211.696,241.568,-538.780,644.400,513.940
483,47021.116000,210.795,28.110,174.080,418.585,-222.740,248.274,-586.780,644.400,546.940
484,47021.135000,187.209,0.000,205.824,408.812,-245.730,249.759,-670.780,392.400,355.940
485,47021.181000,171.486,-27.106,215.040,406.849,-250.433,244.683,-597.780,127.400,178.940
486,47021.217000,186.226,-28.110,223.232,408.679,-254.989,244.589,-429.780,26.400,-66.060
487,47021.254000,191.140,-20.078,208.896,410.612,-251.416,238.700,-142.780,-104.600,-137.060
488,47021.294000,197.036,-10.039,192.512,413.396,-255.102,235.642,-24.780,-142.600,-181.060
489,47021.336000,192.123,-4.016,162.816,422.036,-245.847,234.857,146.220,-252.600,-120.060
490,47021.376000,187.209,-7.027,143.360,425.764,-249.540,230.805,162.220,-307.600,-98.060
491,47021.396000,188.192,2.008,122.880,433.414,-243.125,225.980,211.220,-327.600,-82.060
492,47021.436000,193.106,-4.016,117.760,434.360,-243.112,225.982,189.220,-261.600,-57.060
493,47021.476000,199.985,-4.016,119.808,441.979,-239.367,225.078,213.220,-163.600,-35.060
494,47021.514000,202.933,-8.031,123.904,440.201,-231.127,226.245,255.220,-42.600,21.940
495,47021.558000,193.106,-22.086,143.360,443.075,-229.141,232.260,324.220,100.400,101.940
496,47021.598000,214.726,-15.059,133.120,437.515,-221.672,243.351,505.220,158.400,148.940
497,47021.618000,218.656,15.059,141.312,437.580,-217.832,252.385,673.220,129.400,134.940
498,47021.658000,222.587,21.082,139.264,440.504,-212.180,258.477,714.220,91.400,76.940
499,47021.698000,239.294,48.188,134.144,439.562,-212.914,268.407,725.220,52.400,43.940
500,47021.737000,221.605,77.302,125.952,440.861,-187.990,277.891,750.220,-19.600,-91.060
501,47021.778000,220.622,89.349,118.784,442.744,-188.842,279.865,604.220,-52.600,-43.060
502,47021.814000,209.812,83.325,112.640,446.683,-177.759,282.096,477.220,-104.600,0.940
503,47021.840000,220.622,66.259,101.376,447.654,-175.915,282.136,365.220,-114.600,53.940
504,47021.879000,221.605,62.243,98.304,447.712,-172.153,287.190,393.220,-107.600,97.940
505,47021.920000,225.536,66.259,84.992,448.820,-160.250,286.450,467.220,-54.600,101.940
506,47021.960000,223.570,66.259,82.944,452.676,-155.522,291.530,466.220,-9.600,55.940
507,47021.996000,221.605,72.282,88.064,447.965,-154.570,296.516,402.220,72.400,-24.060
508,47022.36000,206.864,82.322,107.520,451.855,-147.133,299.664,293.220,103.400,-97.060
509,47022.82000,206.864,83.325,106.496,451.028,-138.822,303.818,181.220,68.400,-145.060
510,47022.97000,212.760,86.337,105.472,449.121,-139.783,302.800,84.220,-0.600,-144.060
511,47022.138000,211.777,86.337,102.400,456.853,-127.792,302.072,50.220,-84.600,-154.060
512,47022.178000,211.777,90.353,102.400,455.944,-125.057,302.129,36.220,-87.600,-150.060
513,47022.232000,204.898,90.353,97.280,454.985,-125.985,302.108,21.220,-74.600,-149.060
514,47022.258000,213.743,97.380,88.064,460.744,-119.575,298.274,22.220,-2.600,-101.060
515,47022.298000,214.726,96.376,95.232,459.818,-118.574,303.268,75.220,96.400,-19.060
516,47022.318000,206.864,93.365,117.760,452.295,-115.809,309.283,123.220,256.400,119.940
517,47022.358000,204.898,97.380,121.856,449.455,-116.626,316.224,203.220,363.400,244.940
518,47022.398000,196.054,87.341,125.952,443.691,-123.874,324.018,233.220,394.400,355.940
519,47022.439000,203.916,76.298,143.360,429.354,-135.737,335.680,208.220,372.400,459.940
520,47022.476000,202.933,55.216,150.528,418.908,-139.383,343.544,175.220,289.400,449.940
521,47022.516000,192.123,37.145,141.312,414.067,-147.651,345.350,147.220,183.400,363.940
522,47022.536000,188.192,21.082,121.856,414.902,-155.864,346.171,138.220,4.400,199.940
523,47022.576000,201.950,15.059,115.712,414.120,-143.948,347.419,141.220,-70.600,50.940
524,47022.620000,241.259,34.133,115.712,413.144,-145.851,344.393,212.220,-58.600,-124.060
525,47022.656000,257.965,51.200,116.736,414.279,-132.077,345.682,187.220,-50.600,-151.060
526,47022.696000,239.294,72.282,108.544,418.063,-132.046,344.694,166.220,-74.600,-220.060
527,47022.736000,238.311,78.306,101.376,417.240,-122.917,343.892,43.220,-123.600,-194.060
528,47022.776000,217.674,78.306,94.208,420.146,-117.480,339.039,0.220,-176.600,-149.060
529,47022.796000,212.760,70.275,96.256,423.870,-121.992,339.943,-24.780,-138.600,-76.060
530,47022.841000,211.777,67.263,89.088,421.958,-123.011,335.940,-0.780,-99.600,9.940
531,47022.880000,214.726,65.255,82.944,421.079,-118.384,339.021,112.220,-30.600,59.940
532,47022.920000,216.691,60.235,65.536,420.117,-119.352,337.010,161.220,-13.600,13.940
533,47022.960000,224.553,62.243,43.008,418.237,-118.461,337.026,214.220,105.400,-36.060
534,47023.999000,231.432,66.259,55.296,414.564,-111.045,344.141,245.220,266.400,-96.060
535,47023.20000,210.795,65.255,60.416,404.238,-106.348,357.156,389.220,537.400,-149.060
536,47023.56000,223.570,83.325,81.920,392.159,-92.359,378.323,435.220,808.400,-215.060
537,47023.101000,229.466,97.380,152.576,375.222,-86.833,391.346,339.220,854.400,-137.060
538,47023.136000,195.071,101.396,200.704,364.945,-78.491,403.444,257.220,657.400,30.940
539,47023.185000,192.123,104.408,240.640,351.663,-82.136,413.293,268.220,420.400,162.940
540,47023.217000,169.520,85.333,242.688,344.090,-83.035,419.231,56.220,89.400,359.940
541,47023.238000,161.658,64.251,225.280,341.056,-96.912,413.958,-2.780,-80.600,409.940
542,47023.283000,168.537,62.243,212.992,344.736,-104.249,410.823,-15.780,-245.600,391.940
543,47023.318000,180.330,39.153,179.200,352.312,-103.311,406.876,-15.780,-450.600,354.940
544,47023.357000,183.278,36.141,147.456,357.828,-114.367,399.686,65.220,-507.600,232.940
545,47023.397000,197.036,46.180,121.856,366.441,-106.204,389.926,84.220,-510.600,124.940
546,47023.437000,198.019,51.200,106.496,373.934,-110.860,380.886,62.220,-454.600,-0.060
547,47023.457000,208.829,66.259,95.232,380.576,-109.019,376.957,13.220,-379.600,-77.060
548,47023.505000,213.743,68.267,94.208,384.378,-107.234,372.027,-99.780,-325.600,-118.060
549,47023.540000,207.846,69.271,98.304,393.796,-109.955,367.010,-194.780,-249.600,-120.060
550,47023.579000,206.864,73.286,99.328,397.571,-110.022,361.046,-225.780,-193.600,-116.060
551,47023.620000,206.864,70.275,95.232,401.321,-111.921,355.044,-240.780,-175.600,-85.060
552,47023.658000,202.933,76.298,107.520,399.349,-117.502,351.938,-263.780,-97.600,-73.060
553,47023.698000,200.967,79.310,108.544,399.313,-119.451,345.929,-252.780,-130.600,-61.060
554,47023.718000,204.898,74.290,104.448,403.083,-120.356,343.926,-325.780,-140.600,-51.060
555,47023.757000,215.708,75.294,99.328,406.678,-133.308,334.704,-409.780,-232.600,-7.060
556,47023.802000,233.397,81.318,106.496,409.479,-135.259,326.709,-445.780,-226.600,-46.060
557,47023.842000,238.311,63.247,113.664,414.109,-141.765,318.621,-591.780,-309.600,-13.060
558,47023.877000,244.207,46.180,117.760,413.998,-149.231,311.499,-534.780,-295.600,9.940
559,47023.917000,233.397,10.039,120.832,417.610,-160.448,297.341,-605.780,-294.600,85.940
560,47023.942000,224.553,-8.031,125.952,416.520,-169.836,286.198,-560.780,-239.600,79.940
561,47023.983000,212.760,-18.071,137.216,418.273,-179.148,277.051,-472.780,-223.600,32.940
562,47024.32000,208.829,-12.047,137.216,427.677,-182.785,272.014,-340.780,-240.600,-44.060
563,47024.58000,216.691,-2.008,131.072,429.572,-181.961,266.067,-319.780,-257.600,-129.060
564,47024.99000,229.466,4.016,118.784,433.268,-187.584,257.001,-277.780,-231.600,-174.060
565,47024.140000,227.501,19.075,88.064,440.007,-178.452,251.237,-177.780,-197.600,-171.060
566,47024.167000,233.397,31.122,71.680,441.930,-175.757,247.319,-130.780,-107.600,-164.060
567,47024.201000,238.311,45.176,68.608,441.006,-173.976,245.366,-101.780,6.400,-189.060
568,47024.241000,246.173,62.243,77.824,444.818,-172.074,246.407,-146.780,77.400,-168.060
569,47024.281000,256.000,58.227,79.872,450.560,-167.399,247.510,-125.780,91.400,-191.060
570,47024.330000,231.432,55.216,78.848,446.764,-168.346,248.479,-135.780,73.400,-213.060
571,47024.357000,222.587,59.231,80.896,457.257,-161.834,246.643,-175.780,31.400,-192.060
572,47024.402000,218.656,54.212,76.800,452.467,-165.659,241.582,-241.780,-10.600,-196.060
573,47024.417000,214.726,56.220,82.944,456.254,-165.589,242.583,-209.780,46.400,-189.060
574,47024.462000,223.570,55.216,80.896,458.300,-154.532,244.811,-220.780,71.400,-204.060
575,47024.502000,220.622,52.204,83.968,459.145,-161.868,243.662,-181.780,112.400,-214.060
576,47024.542000,218.656,58.227,79.872,458.257,-158.118,248.713,-107.780,115.400,-166.060
577,47024.583000,224.553,58.227,82.944,456.473,-149.937,246.895,-99.780,127.400,-91.060
578,47024.618000,227.501,63.247,80.896,458.341,-151.744,246.860,-128.780,97.400,-6.060
579,47024.638000,228.484,66.259,79.872,457.301,-159.008,250.682,-180.780,104.400,61.940
580,47024.685000,242.242,74.290,78.848,452.550,-160.844,253.620,-281.780,148.400,130.940
581,47024.719000,247.155,65.255,80.896,447.632,-174.629,254.314,-431.780,236.400,267.940
582,47024.758000,244.207,52.204,89.088,444.650,-185.582,258.055,-568.780,304.400,399.940
583,47024.799000,231.432,44.173,113.664,432.225,-194.886,258.833,-637.780,440.400,410.940
584,47024.838000,211.777,25.098,152.576,422.493,-215.088,262.367,-703.780,500.400,404.940
585,47024.860000,203.916,15.059,169.984,413.816,-227.091,263.094,-749.780,483.400,320.940
586,47024.906000,187.209,-12.047,214.016,407.961,-240.011,261.815,-707.780,293.400,154.940
587,47024.940000,175.417,-25.098,235.520,403.137,-246.545,258.685,-508.780,153.400,-39.060
588,47024.982000,188.192,-8.031,219.136,409.742,-247.452,254.697,-299.780,-34.600,-202.060
589,47025.22000,195.071,-2.008,204.800,414.497,-245.577,253.750,-83.780,-194.600,-262.060
590,47025.61000,189.175,9.035,166.912,416.400,-244.655,252.777,66.220,-287.600,-221.060
591,47025.102000,185.244,8.031,155.648,427.894,-233.648,246.066,173.220,-343.600,-137.060
592,47025.122000,188.192,13.051,138.240,429.750,-235.592,239.065,170.220,-353.600,-52.060
593,47025.162000,185.244,10.039,119.808,436.446,-230.047,237.204,193.220,-314.600,-0.060
594,47025.202000,193.106,3.012,125.952,441.190,-229.068,237.232,206.220,-230.600,66.940
595,47025.246000,197.036,-2.008,130.048,443.994,-230.980,231.227,238.220,-171.600,85.940
596,47025.279000,215.708,-4.016,134.144,442.203,-223.656,232.375,318.220,-84.600,93.940
597,47025.321000,205.881,2.008,134.144,443.161,-223.507,239.342,419.220,-50.600,82.940
598,47025.341000,202.933,0.000,130.048,445.166,-216.016,246.467,471.220,-3.600,83.940
599,47025.381000,215.708,15.059,120.832,445.106,-220.558,248.359,542.220,-12.600,69.940
600,47025.433000,225.536,25.098,125.952,446.250,-206.686,254.624,560.220,19.400,41.940
601,47025.466000,235.363,39.153,123.904,445.348,-203.873,258.661,573.220,23.400,38.940
602,47025.502000,231.432,55.216,112.640,446.511,-189.007,268.926,657.220,-5.600,15.940
603,47025.542000,228.484,68.267,96.256,450.280,-190.691,273.869,667.220,-32.600,28.940
604,47025.562000,234.380,71.278,92.160,448.517,-181.497,277.046,619.220,-4.600,51.940
605,47025.598000,232.415,75.294,102.400,451.548,-168.438,287.275,572.220,36.400,70.940
606,47025.638000,226.518,73.286,99.328,452.576,-162.851,291.373,537.220,62.400,54.940
607,47025.680000,211.777,69.271,97.280,444.999,-163.789,295.321,498.220,57.400,41.940
608,47025.720000,209.812,71.278,92.160,451.794,-151.694,300.561,399.220,-19.600,16.940
609,47025.760000,206.864,75.294,81.920,451.857,-147.113,300.659,335.220,-81.600,-2.060
610,47025.800000,209.812,79.310,81.920,454.752,-142.573,296.781,182.220,-106.600,-71.060
611,47025.820000,218.656,87.341,83.968,457.569,-144.329,298.738,86.220,-48.600,-128.060
612,47025.862000,229.466,85.333,91.136,454.828,-137.057,297.894,90.220,-9.600,-95.060
613,47025.902000,217.674,86.337,83.968,454.878,-133.392,297.972,105.220,117.400,-71.060
614,47025.942000,204.898,87.341,93.184,453.030,-130.591,302.007,76.220,187.400,-36.060
615,47025.983000,204.898,89.349,95.232,447.287,-136.046,307.850,90.220,255.400,34.940
616,47026.23000,193.106,85.333,105.472,443.540,-134.107,315.843,134.220,368.400,118.940
617,47026.72000,214.726,101.396,143.360,435.082,-131.218,328.822,59.220,459.400,193.940
618,47026.88000,199.985,84.329,149.504,426.482,-138.464,338.602,-19.780,417.400,262.940
619,47026.123000,204.898,69.271,158.720,417.853,-146.822,338.411,-73.780,353.400,347.940
620,47026.160000,204.898,46.180,155.648,411.151,-153.205,344.233,-113.780,221.400,415.940
621,47026.200000,205.881,23.090,147.456,404.318,-168.828,345.880,-29.780,57.400,447.940
622,47026.240000,210.795,7.027,133.120,402.402,-170.665,346.833,62.220,-26.600,380.940
623,47026.262000,212.760,6.024,125.952,400.386,-179.832,347.629,155.220,-80.600,285.940
624,47026.303000,218.656,11.043,123.904,401.431,-172.510,346.792,236.220,-120.600,141.940
625,47026.342000,232.415,20.078,115.712,399.471,-177.174,343.706,263.220,-134.600,85.940
626,47026.382000,238.311,34.133,111.616,399.456,-178.110,342.691,226.220,-160.600,30.940
627,47026.422000,234.380,38.149,106.496,407.150,-168.868,341.905,178.220,-191.600,-7.060
628,47026.462000,231.432,37.145,103.424,410.991,-164.316,338.029,118.220,-188.600,-38.060
629,47026.482000,224.553,42.165,101.376,413.877,-160.653,336.122,172.220,-205.600,-55.060
630,47026.522000,216.691,42.165,86.016,412.929,-160.685,335.125,145.220,-182.600,-76.060
631,47026.561000,216.691,49.192,78.848,417.707,-156.997,333.221,135.220,-181.600,-82.060
632,47026.601000,225.536,49.192,68.608,419.520,-162.527,330.122,132.220,-155.600,-93.060
633,47026.641000,224.553,57.224,57.344,421.597,-148.799,328.428,160.220,-85.600,-129.060
634,47026.681000,240.276,61.239,46.080,420.738,-142.399,328.563,189.220,25.400,-193.060
635,47026.721000,249.121,64.251,48.128,419.880,-136.758,336.639,214.220,229.400,-284.060
636,47026.740000,229.466,73.286,60.416,414.335,-127.574,341.800,261.220,368.400,-327.060
637,47026.780000,248.138,79.310,57.344,405.063,-115.458,358.953,315.220,678.400,-383.060
638,47026.820000,259.931,75.294,100.352,389.235,-98.010,372.231,282.220,769.400,-226.060
639,47026.861000,198.019,72.282,159.744,376.991,-95.950,392.149,287.220,844.400,-168.060
640,47026.907000,168.537,77.302,196.608,362.918,-88.555,405.216,214.220,763.400,-130.060
641,47026.941000,166.572,77.302,219.136,349.632,-92.258,412.080,142.220,556.400,-44.060
642,47026.960000,159.693,81.318,248.832,341.181,-88.511,422.094,21.220,283.400,64.940
643,47027.5000,159.693,83.325,256.000,339.225,-93.136,420.998,-53.780,5.400,136.940
644,47027.44000,163.624,69.271,229.376,342.016,-95.964,414.974,-99.780,-240.600,182.940
645,47027.86000,180.330,57.224,191.488,345.743,-99.676,409.927,-142.780,-408.600,181.940
646,47027.124000,193.106,55.216,161.792,356.048,-106.146,399.858,-84.780,-598.600,147.940
647,47027.163000,195.071,51.200,144.384,366.455,-105.268,390.941,-16.780,-623.600,117.940
648,47027.183000,198.019,52.204,120.832,379.596,-111.741,378.887,-27.780,-613.600,52.940
649,47027.224000,211.777,53.208,98.304,388.093,-111.862,366.961,-143.780,-580.600,16.940
650,47027.261000,208.829,48.188,91.136,393.637,-121.046,361.801,-144.780,-547.600,-26.060
651,47027.301000,203.916,52.204,101.376,404.923,-124.795,349.802,-148.780,-437.600,-76.060
652,47027.344000,207.846,58.227,91.136,407.800,-121.229,342.920,-124.780,-376.600,-98.060
653,47027.381000,213.743,63.247,93.184,420.161,-115.765,333.108,-181.780,-310.600,-146.060
654,47027.427000,208.829,70.275,97.280,422.911,-121.381,325.035,-163.780,-234.600,-178.060
655,47027.442000,206.864,73.286,93.184,428.598,-120.429,323.075,-190.780,-250.600,-177.060
656,47027.496000,212.760,67.263,82.944,427.726,-114.184,315.249,-251.780,-237.600,-125.060
657,47027.523000,212.760,78.306,91.136,437.065,-122.441,308.125,-339.780,-259.600,-105.060
658,47027.563000,211.777,66.259,91.136,434.174,-125.403,299.106,-382.780,-308.600,-76.060
659,47027.603000,239.294,65.255,88.064,442.675,-125.466,290.165,-524.780,-327.600,-102.060
660,47027.642000,256.000,60.235,93.184,445.446,-129.307,279.147,-517.780,-311.600,-140.060
661,47027.662000,253.052,53.208,105.472,447.224,-136.787,270.038,-518.780,-338.600,-159.060
662,47027.701000,257.965,38.149,102.400,457.616,-136.845,260.106,-532.780,-271.600,-57.060
663,47027.747000,238.311,31.122,88.064,460.264,-149.828,249.887,-505.780,-269.600,-5.060
664,47027.782000,233.397,33.129,69.632,461.234,-147.224,241.987,-383.780,-182.600,-21.060
665,47027.822000,239.294,35.137,60.416,463.088,-149.966,240.937,-260.780,-60.600,-53.060
666,47027.862000,243.225,44.173,65.536,464.054,-148.180,237.992,-178.780,86.400,-111.060
667,47027.881000,244.207,58.227,78.848,464.087,-146.250,243.007,-123.780,219.400,-170.060
668,47027.922000,232.415,54.212,83.968,461.292,-143.461,247.040,-127.780,252.400,-218.060
669,47027.962000,227.501,63.247,87.040,458.462,-143.401,252.011,-182.780,277.400,-280.060
670,47028.2000,219.639,67.263,97.280,456.599,-141.536,255.031,-236.780,237.400,-262.060
671,47028.42000,210.795,68.267,94.208,454.844,-131.483,255.243,-265.780,168.400,-253.060
672,47028.84000,205.881,69.271,103.424,459.550,-134.032,262.158,-310.780,159.400,-210.060
673,47028.125000,208.829,67.263,103.424,460.504,-133.162,259.194,-288.780,121.400,-137.060
674,47028.145000,209.812,61.239,103.424,454.713,-141.482,259.008,-322.780,98.400,-74.060
675,47028.182000,215.708,57.224,102.400,458.466,-144.122,261.942,-244.780,56.400,46.940
676,47028.222000,221.605,50.196,94.208,450.881,-145.158,260.914,-234.780,44.400,119.940
677,47028.262000,225.536,52.204,89.088,454.606,-149.669,261.818,-247.780,62.400,148.940
678,47028.302000,221.605,49.192,87.040,447.832,-160.750,261.572,-273.780,94.400,238.940
679,47028.342000,223.570,42.165,88.064,445.860,-167.091,266.407,-340.780,149.400,278.940
680,47028.362000,222.587,36.141,93.184,442.864,-178.200,262.188,-383.780,221.400,377.940
681,47028.402000,220.622,32.125,106.496,434.177,-191.080,264.885,-440.780,251.400,377.940
682,47028.443000,241.259,39.153,126.976,427.310,-209.412,268.463,-506.780,324.400,353.940
683,47028.483000,222.587,13.051,176.128,418.674,-217.847,264.292,-602.780,317.400,338.940
684,47028.524000,198.019,-5.020,203.776,411.847,-233.392,269.919,-553.780,293.400,256.940
685,47028.568000,193.106,-5.020,218.112,409.964,-232.540,267.945,-397.780,214.400,65.940
686,47028.583000,191.140,7.027,224.256,413.685,-237.090,266.859,-247.780,-7.600,-193.060
687,47028.626000,196.054,17.067,204.800,417.513,-233.454,262.964,-153.780,-177.600,-269.060
688,47028.664000,200.967,26.102,173.056,425.174,-226.142,257.163,-56.780,-300.600,-270.060
689,47028.703000,196.054,31.122,139.264,433.647,-228.076,246.193,105.220,-375.600,-178.060
690,47028.743000,193.106,33.129,123.904,438.479,-220.685,246.358,150.220,-337.600,-85.060
691,47028.782000,190.157,34.133,112.640,444.225,-215.191,242.505,186.220,-221.600,37.940
692,47028.806000,200.967,28.110,103.424,443.225,-218.907,240.435,225.220,-134.600,97.940
693,47028.846000,209.812,21.082,116.736,439.475,-217.008,246.437,233.220,-22.600,144.940
694,47028.886000,213.743,20.078,124.928,439.478,-216.969,248.428,259.220,60.400,175.940
695,47028.926000,209.812,8.031,138.240,438.525,-217.839,251.392,298.220,82.400,149.940
696,47028.966000,202.933,7.027,144.384,432.880,-215.984,256.396,343.220,89.400,148.940
697,47029.6000,200.967,9.035,144.384,438.646,-210.256,264.483,391.220,9.400,123.940
698,47029.46000,202.933,9.035,135.168,433.877,-213.067,264.417,430.220,-54.600,105.940
699,47029.66000,212.760,12.047,119.808,438.692,-207.410,269.517,480.220,-70.600,140.940
700,47029.106000,229.466,8.031,113.664,438.649,-210.996,273.419,503.220,-34.600,107.940
701,47029.142000,232.415,20.078,109.568,436.902,-200.846,278.606,571.220,44.400,38.940
702,47029.186000,233.397,40.157,102.400,437.092,-187.845,287.835,655.220,154.400,-84.060
703,47029.226000,234.380,53.208,97.280,438.318,-168.398,298.197,695.220,218.400,-103.060
704,47029.266000,230.449,75.294,100.352,432.736,-162.723,311.240,750.220,243.400,-64.060
705,47029.286000,225.536,99.388,111.616,432.867,-154.263,322.361,649.220,254.400,-43.060
706,47029.322000,203.916,101.396,132.096,427.390,-140.440,330.604,588.220,254.400,19.940
707,47029.363000,193.106,98.384,133.120,425.577,-135.689,340.649,505.220,181.400,62.940
708,47029.403000,185.244,89.349,124.928,425.693,-127.405,342.815,464.220,40.400,121.940
709,47029.443000,187.209,84.329,115.712,425.733,-124.617,344.863,370.220,-64.600,175.940
710,47029.483000,203.916,83.325,102.400,424.737,-128.294,344.784,245.220,-131.600,223.940
711,47029.503000,217.674,73.286,104.448,425.746,-123.701,344.883,216.220,-137.600,215.940
712,47029.543000,219.639,76.298,99.328,428.496,-130.096,343.756,239.220,-79.600,197.940
713,47029.583000,226.518,74.290,103.424,425.710,-126.430,345.819,230.220,50.400,206.940
714,47029.623000,215.708,73.286,99.328,419.055,-129.188,349.729,267.220,116.400,206.940
715,47029.663000,207.846,70.275,100.352,417.158,-130.031,354.682,262.220,208.400,264.940
716,47029.703000,199.985,67.263,105.472,411.475,-130.945,358.632,273.220,293.400,278.940
717,47029.743000,194.088,61.239,107.520,406.769,-129.935,366.604,264.220,337.400,285.940
718,47029.767000,199.985,57.224,117.760,397.194,-139.065,374.353,196.220,378.400,233.940
719,47029.803000,196.054,48.188,131.072,387.859,-130.769,383.467,154.220,327.400,216.940
720,47029.843000,206.864,45.176,137.216,379.213,-140.862,388.213,102.220,262.400,164.940
721,47029.887000,247.155,35.137,150.528,375.456,-139.040,390.235,13.220,230.400,145.940
722,47029.924000,260.914,37.145,158.720,365.935,-143.687,393.106,10.220,158.400,119.940
723,47029.964000,265.827,39.153,172.032,368.888,-135.385,394.282,61.220,21.400,61.940
724,47029.985000,249.121,39.153,156.672,367.942,-135.398,394.280,138.220,-79.600,74.940
725,47030.24000,210.795,46.180,140.288,373.627,-134.465,391.325,182.220,-165.600,73.940
726,47030.63000,197.036,62.243,131.072,373.645,-133.490,394.329,166.220,-182.600,16.940
727,47030.103000,201.950,75.294,124.928,378.309,-138.067,391.255,111.220,-221.600,-3.060
728,47030.144000,199.002,78.306,131.072,382.137,-134.431,387.359,55.220,-216.600,-16.060
729,47030.189000,186.226,91.357,123.904,386.851,-135.343,384.363,-21.780,-252.600,-28.060
730,47030.216000,182.296,95.373,118.784,392.527,-134.527,375.437,-102.780,-321.600,22.940
731,47030.244000,181.313,99.388,124.928,394.300,-142.826,371.284,-211.780,-377.600,47.940
732,47030.284000,187.209,100.392,125.952,406.493,-149.330,358.234,-343.780,-411.600,70.940
733,47030.325000,186.226,96.376,130.048,405.518,-150.454,348.262,-421.780,-429.600,42.940
734,47030.364000,187.209,87.341,129.024,411.999,-158.963,330.187,-528.780,-477.600,-42.060
735,47030.403000,179.347,68.267,114.688,421.361,-164.647,314.166,-465.780,-528.600,-150.060
736,47030.423000,214.726,63.247,104.448,427.934,-167.464,306.158,-397.780,-530.600,-166.060
737,47030.463000,238.311,37.145,92.160,438.331,-166.703,291.270,-312.780,-506.600,-68.060
738,47030.503000,272.706,12.047,78.848,440.981,-178.887,275.101,-239.780,-367.600,-9.060
739,47030.543000,280.568,5.020,60.416,445.738,-176.213,268.202,-220.780,-325.600,21.940
740,47030.585000,290.395,14.055,47.104,445.601,-185.511,261.042,-146.780,-169.600,-18.060
741,47030.626000,270.741,10.039,56.320,443.754,-181.930,258.131,-213.780,-56.600,-43.060
742,47030.666000,258.948,3.012,48.128,447.586,-178.254,256.226,-285.780,46.400,-117.060
743,47030.685000,245.190,6.024,56.320,445.543,-189.273,255.988,-406.780,125.400,-132.060
744,47030.726000,234.380,1.004,58.368,443.699,-185.653,255.068,-392.780,144.400,-143.060
745,47030.767000,223.570,6.024,66.560,441.803,-185.717,253.075,-379.780,158.400,-164.060
746,47030.803000,231.432,6.024,73.728,439.873,-188.490,253.013,-324.780,176.400,-144.060
747,47030.848000,228.484,7.027,74.752,437.039,-188.469,255.993,-184.780,159.400,-120.060
748,47030.888000,229.466,11.043,80.896,438.033,-185.591,262.023,-52.780,172.400,-81.060
749,47030.903000,228.484,8.031,82.944,432.328,-187.518,260.979,111.220,154.400,-73.060
750,47030.946000,237.328,26.102,86.016,433.429,-177.233,271.146,289.220,166.400,-75.060
751,47030.984000,242.242,33.129,78.848,432.496,-177.089,279.105,378.220,118.400,-112.060
752,47031.27000,249.121,49.192,66.560,431.676,-167.921,280.294,492.220,133.400,-123.060
753,47031.67000,245.190,50.196,65.536,425.156,-161.400,290.369,517.220,182.400,-125.060
754,47031.104000,242.242,58.227,58.368,425.301,-152.005,302.505,486.220,228.400,-137.060
755,47031.124000,245.190,69.271,69.632,418.908,-136.303,313.771,391.220,394.400,-160.060
756,47031.167000,235.363,63.247,71.680,413.336,-129.751,324.843,231.220,453.400,-150.060
757,47031.204000,217.674,56.220,105.472,409.535,-131.516,330.768,141.220,499.400,-158.060
758,47031.246000,228.484,47.184,137.216,398.214,-130.496,343.703,65.220,551.400,-154.060
759,47031.288000,211.777,47.184,145.408,389.903,-116.652,354.926,127.220,435.400,-165.060
760,47031.328000,203.916,45.176,162.816,384.196,-119.378,359.833,196.220,359.400,-271.060
761,47031.369000,194.088,61.239,175.104,386.368,-99.919,370.197,244.220,181.400,-280.060
762,47031.386000,173.451,83.325,191.488,380.768,-94.458,372.294,197.220,82.400,-210.060
763,47031.428000,168.537,86.337,193.536,383.520,-100.834,372.162,70.220,2.400,-59.060
764,47031.467000,183.278,88.345,183.296,384.564,-93.511,371.325,-45.780,-216.600,23.940
765,47031.507000,195.071,83.325,174.080,390.174,-97.316,360.311,-146.780,-397.600,31.940
766,47031.547000,199.002,71.278,146.432,397.717,-98.307,351.350,-202.780,-572.600,-65.060
767,47031.588000,199.002,66.259,115.712,406.167,-102.055,341.336,-271.780,-611.600,-141.060
768,47031.608000,206.864,66.259,91.136,417.521,-100.385,325.474,-341.780,-572.600,-226.060
769,47031.648000,205.881,68.267,79.872,426.932,-103.184,316.477,-382.780,-399.600,-269.060
770,47031.688000,215.708,75.294,84.992,434.498,-102.363,306.559,-391.780,-258.600,-297.060
771,47031.728000,220.622,82.322,94.208,436.355,-104.287,300.553,-418.780,-135.600,-297.060
772,47031.774000,220.622,82.322,96.256,441.059,-106.096,298.532,-444.780,-80.600,-290.060
773,47031.809000,209.812,91.357,115.712,441.095,-103.367,297.596,-427.780,-62.600,-279.060
774,47031.831000,206.864,95.373,121.856,445.813,-103.461,289.644,-438.780,-121.600,-232.060
775,47031.866000,203.916,88.345,122.880,447.669,-105.404,282.642,-469.780,-217.600,-156.060
776,47031.906000,211.777,91.357,111.616,453.310,-107.298,275.648,-415.780,-246.600,-104.060
777,47031.944000,206.864,88.345,109.568,453.262,-110.164,269.619,-365.780,-262.600,-30.060
778,47031.988000,205.881,87.341,106.496,453.108,-120.436,259.454,-361.780,-277.600,3.940
779,47032.26000,207.846,83.325,102.400,457.776,-124.195,251.424,-390.780,-281.600,43.940
780,47032.66000,216.691,79.310,98.304,467.109,-132.529,240.319,-419.780,-311.600,107.940
781,47032.89000,222.587,70.275,91.136,466.101,-136.343,233.274,-416.780,-320.600,150.940
782,47032.124000,227.501,60.235,88.064,464.095,-143.853,225.154,-404.780,-308.600,170.940
783,47032.164000,230.449,52.204,78.848,467.738,-153.160,215.015,-393.780,-296.600,235.940
784,47032.206000,228.484,45.176,70.656,468.582,-159.736,205.925,-352.780,-261.600,262.940
785,47032.251000,233.397,27.106,67.584,469.367,-170.854,198.727,-348.780,-182.600,250.940
786,47032.286000,231.432,27.106,61.440,462.520,-186.632,192.413,-317.780,-159.600,240.940
787,47032.306000,235.363,19.075,56.320,466.222,-192.177,187.327,-332.780,-120.600,215.940
788,47032.357000,241.259,22.086,52.224,465.255,-193.203,182.331,-347.780,-14.600,156.940
789,47032.386000,233.397,20.078,52.224,464.171,-203.293,182.114,-416.780,75.400,142.940
790,47032.429000,234.380,22.086,55.296,457.431,-211.665,179.937,-479.780,193.400,138.940
791,47032.466000,223.570,26.102,69.632,454.509,-218.057,182.781,-537.780,287.400,192.940
792,47032.508000,240.276,15.059,72.704,453.465,-225.379,183.618,-608.780,378.400,228.940
793,47032.529000,264.845,23.090,131.072,445.817,-231.775,189.438,-553.780,460.400,236.940
794,47032.567000,248.138,10.039,185.344,439.082,-240.088,190.246,-533.780,439.400,247.940
795,47032.607000,242.242,7.027,205.824,429.470,-251.187,190.990,-407.780,358.400,136.940
796,47032.648000,236.345,12.047,201.728,429.375,-258.457,193.819,-232.780,104.400,49.940
797,47032.687000,216.691,15.059,177.152,432.316,-251.071,194.975,-80.780,-26.600,22.940
798,47032.727000,199.985,19.075,147.456,431.324,-253.930,189.940,62.220,-122.600,38.940
799,47032.766000,190.157,23.090,129.024,432.220,-257.582,189.863,142.220,-131.600,160.940
800,47032.787000,193.106,14.055,110.592,428.304,-267.631,193.622,180.220,-64.600,274.940
801,47032.827000,200.967,0.000,123.904,423.601,-265.822,195.643,153.220,60.400,375.940
802,47032.867000,207.846,-16.063,128.000,417.808,-274.942,201.408,284.220,131.400,435.940
803,47032.908000,210.795,-15.059,141.312,413.054,-277.577,210.297,381.220,181.400,404.940
804,47032.951000,204.898,-14.055,150.528,406.423,-279.282,221.192,481.220,126.400,298.940
805,47033.1000,199.985,-8.031,155.648,400.754,-279.259,226.157,461.220,70.400,226.940
806,47033.8000,198.019,-8.031,155.648,400.726,-281.891,232.069,424.220,-61.600,172.940
807,47033.48000,198.019,-3.012,152.576,400.820,-275.400,236.186,363.220,-136.600,99.940
808,47033.89000,199.985,1.004,151.552,402.774,-270.814,235.292,323.220,-175.600,72.940
809,47033.129000,202.933,-1.004,150.528,405.533,-276.331,232.194,244.220,-202.600,98.940
810,47033.169000,202.933,1.004,146.432,407.507,-270.732,236.295,230.220,-239.600,103.940
811,47033.207000,199.985,-1.004,134.144,408.472,-268.965,232.356,214.220,-241.600,99.940
812,47033.227000,206.864,-4.016,124.928,411.305,-268.986,229.375,204.220,-196.600,102.940
813,47033.268000,212.760,1.004,117.760,409.340,-274.488,230.250,199.220,-191.600,115.940
814,47033.309000,228.484,-5.020,126.976,414.180,-266.219,228.444,152.220,-133.600,91.940
815,47033.348000,227.501,-2.008,131.072,417.851,-274.434,227.280,137.220,-145.600,-5.060
816,47033.390000,237.328,-2.008,130.048,421.833,-259.765,225.609,133.220,-205.600,-121.060
817,47033.426000,241.259,5.020,114.688,428.421,-261.646,218.616,104.220,-260.600,-230.060
818,47033.450000,237.328,8.031,98.304,434.214,-252.527,212.851,113.220,-290.600,-332.060
819,47033.491000,242.242,8.031,86.016,443.823,-241.448,211.111,103.220,-213.600,-332.060
820,47033.527000,238.311,11.043,72.704,447.744,-231.340,210.338,219.220,-84.600,-275.060
821,47033.586000,236.345,11.043,72.704,454.450,-225.677,214.447,333.220,68.400,-254.060
822,47033.607000,246.173,30.118,73.728,454.658,-211.701,226.680,406.220,175.400,-219.060
823,47033.647000,256.983,59.231,84.992,455.722,-203.385,229.843,496.220,201.400,-272.060
824,47033.687000,240.276,74.290,94.208,452.076,-194.098,238.987,555.220,168.400,-248.060
825,47033.707000,224.553,71.278,92.160,460.762,-181.998,243.236,520.220,47.400,-171.060
826,47033.764000,214.726,73.286,83.968,461.709,-181.985,243.237,417.220,-106.600,-35.060
827,47033.787000,211.777,70.275,69.632,461.862,-170.952,245.461,294.220,-190.600,30.940
828,47033.827000,215.708,74.290,69.632,463.734,-171.941,240.470,164.220,-211.600,-12.060
829,47033.869000,225.536,82.322,64.512,467.491,-173.762,238.448,113.220,-189.600,-66.060
830,47033.917000,227.501,86.337,68.608,466.643,-166.465,237.607,59.220,-134.600,-92.060
831,47033.931000,235.363,87.341,59.392,472.351,-163.720,233.695,24.220,-61.600,-58.060
832,47033.969000,235.363,87.341,58.368,469.532,-162.763,237.690,9.220,28.400,-14.060
833,47034.9000,227.501,78.306,62.464,461.883,-168.399,235.569,5.220,111.400,66.940
834,47034.62000,218.656,75.294,63.488,462.873,-165.560,239.610,66.220,257.400,142.940
835,47034.89000,240.276,70.275,79.872,453.341,-171.883,250.402,125.220,490.400,185.940
836,47034.129000,217.674,60.235,104.448,441.927,-177.335,260.216,125.220,458.400,373.940
837,47034.157000,213.743,57.224,121.856,431.403,-187.277,273.913,201.220,401.400,359.940
838,47034.191000,221.605,40.157,131.072,428.524,-190.862,279.801,205.220,265.400,398.940
839,47034.231000,218.656,12.047,124.928,416.231,-190.927,284.754,164.220,36.400,407.940
840,47034.271000,223.570,0.000,123.904,415.142,-201.075,281.553,130.220,-30.600,388.940
841,47034.311000,237.328,-14.055,111.616,407.486,-207.569,282.398,87.220,-94.600,362.940
842,47034.352000,244.207,-6.024,99.328,411.177,-214.010,278.288,46.220,-159.600,234.940
843,47034.387000,239.294,-9.035,88.064,410.307,-208.506,279.398,28.220,-119.600,91.940
844,47034.407000,236.345,-2.008,83.968,410.236,-213.184,274.325,-37.780,-128.600,-20.060
845,47034.449000,238.311,0.000,83.968,414.082,-208.573,273.435,-105.780,-94.600,-69.060
846,47034.489000,238.311,-3.012,83.968,414.900,-217.761,271.251,-74.780,-79.600,-52.060
847,47034.528000,233.397,-6.024,77.824,413.076,-212.367,267.385,-23.780,-21.600,-22.060
848,47034.573000,237.328,-2.008,92.160,408.385,-209.642,269.425,42.220,-2.600,-35.060
849,47034.608000,232.415,0.000,96.256,414.041,-211.360,271.386,99.220,-6.600,-47.060
850,47034.628000,225.536,7.027,94.208,413.156,-206.812,270.487,150.220,-63.600,-91.060
851,47034.672000,224.553,10.039,89.088,417.875,-207.665,270.476,194.220,-88.600,-128.060
852,47034.713000,222.587,13.051,86.016,417.952,-202.149,271.588,200.220,-146.600,-136.060
853,47034.751000,228.484,13.051,75.776,418.043,-194.918,266.769,234.220,-175.600,-162.060
854,47034.791000,236.345,17.067,72.704,422.916,-184.739,268.982,283.220,-162.600,-146.060
855,47034.831000,246.173,25.098,63.488,426.754,-180.985,271.057,305.220,-144.600,-153.060
856,47034.848000,250.104,34.133,56.320,429.728,-170.909,269.286,269.220,-100.600,-207.060
857,47034.889000,253.052,44.173,53.248,427.888,-167.231,271.351,233.220,-43.600,-267.060
858,47034.928000,249.121,58.227,49.152,435.612,-156.098,273.589,192.220,46.400,-342.060
859,47034.968000,244.207,60.235,50.176,431.919,-149.676,276.704,175.220,138.400,-365.060
860,47035.27000,254.035,69.271,53.248,435.875,-137.619,281.939,125.220,237.400,-381.060
861,47035.49000,240.276,80.314,67.584,427.436,-132.975,290.978,63.220,335.400,-338.060
862,47035.96000,233.397,78.306,79.872,425.635,-127.308,301.042,12.220,378.400,-301.060
863,47035.110000,222.587,75.294,91.136,421.908,-123.596,306.088,-82.780,379.400,-164.060
864,47035.148000,223.570,61.239,104.448,418.144,-122.633,311.077,-143.780,355.400,-119.060
865,47035.191000,227.501,61.239,112.640,411.586,-118.860,321.094,-122.780,334.400,-89.060
866,47035.228000,218.656,47.184,129.024,410.578,-124.214,328.935,-58.780,309.400,-104.060
867,47035.268000,212.760,52.204,136.192,399.351,-115.163,331.101,56.220,298.400,-136.060
868,47035.309000,198.019,54.212,141.312,399.393,-113.136,341.090,104.220,275.400,-150.060
869,47035.333000,173.451,65.255,158.720,398.553,-105.741,345.225,211.220,213.400,-182.060
870,47035.368000,171.486,81.318,175.104,392.859,-107.551,350.151,178.220,167.400,-174.060
871,47035.411000,170.503,87.341,184.320,392.996,-97.473,350.366,116.220,4.400,-125.060
872,47035.452000,178.365,99.388,191.488,394.874,-98.384,349.354,15.220,-142.600,-92.060
873,47035.488000,192.123,107.420,173.056,403.428,-94.763,341.487,-63.780,-343.600,-54.060
874,47035.529000,201.950,99.388,150.528,408.173,-93.005,334.569,-166.780,-564.600,7.940
875,47035.549000,209.812,91.357,116.736,420.312,-103.213,319.450,-206.780,-643.600,19.940
876,47035.589000,209.812,86.337,90.112,427.854,-104.224,309.493,-244.780,-641.600,31.940
877,47035.628000,207.846,83.325,81.920,435.333,-109.036,292.493,-310.780,-526.600,28.940
878,47035.672000,211.777,75.294,68.608,439.886,-121.079,282.297,-387.780,-415.600,32.940
879,47035.713000,216.691,72.282,68.608,443.609,-124.830,275.261,-498.780,-304.600,23.940
880,47035.749000,225.536,68.267,70.656,446.437,-124.929,268.300,-572.780,-194.600,-0.060
881,47035.796000,232.415,69.271,82.944,449.076,-138.770,261.047,-621.780,-142.600,-43.060
882,47035.811000,232.415,66.259,87.040,452.804,-141.703,249.055,-674.780,-167.600,-75.060
883,47035.853000,229.466,63.247,88.064,454.549,-151.872,242.873,-660.780,-190.600,-73.060
884,47035.888000,229.466,59.231,88.064,454.489,-155.654,236.824,-671.780,-193.600,-54.060
885,47035.929000,226.518,54.212,86.016,458.201,-159.542,222.822,-642.780,-213.600,-27.060
886,47035.971000,230.449,44.173,88.064,460.002,-165.209,212.758,-667.780,-215.600,-26.060
887,47036.8000,230.449,42.165,90.112,460.869,-169.972,202.711,-639.780,-229.600,-31.060
888,47036.29000,226.518,30.118,80.896,465.500,-176.478,194.623,-616.780,-263.600,-21.060
889,47036.71000,232.415,22.086,71.680,468.269,-180.340,182.609,-611.780,-279.600,-39.060
890,47036.111000,233.397,22.086,64.512,469.143,-184.245,169.597,-536.780,-312.600,-49.060
891,47036.151000,236.345,19.075,48.128,471.004,-185.371,157.640,-514.780,-279.600,-64.060
892,47036.191000,236.345,20.078,38.912,474.677,-192.786,150.525,-472.780,-195.600,-69.060
893,47036.229000,250.104,23.090,31.744,473.774,-189.212,146.621,-497.780,-17.600,-28.060
894,47036.249000,251.086,30.118,34.816,475.623,-192.014,142.586,-556.780,157.400,29.940
895,47036.303000,242.242,36.141,54.272,471.814,-193.877,143.535,-619.780,300.400,93.940
896,47036.337000,250.104,28.110,57.344,464.154,-201.189,149.336,-824.780,514.400,204.940
897,47036.373000,287.447,35.137,109.568,465.823,-217.634,149.983,-990.780,608.400,254.940
898,47036.412000,234.380,12.047,156.672,454.233,-235.152,151.583,-906.780,500.400,191.940
899,47036.452000,206.864,12.047,179.200,455.117,-239.720,151.487,-862.780,303.400,15.940
900,47036.472000,208.829,0.000,202.752,457.004,-239.754,148.505,-809.780,191.400,-94.060
901,47036.511000,201.950,0.000,189.440,457.837,-247.226,140.390,-464.780,-32.600,-62.060
902,47036.552000,198.019,-2.008,178.176,457.879,-243.659,135.493,-193.780,-123.600,-17.060
903,47036.596000,200.967,-4.016,152.576,459.754,-244.609,132.491,30.220,-196.600,49.940
904,47036.632000,199.985,0.000,129.024,461.647,-244.584,132.495,257.220,-201.600,144.940
905,47036.672000,198.019,-8.031,114.688,457.852,-245.511,134.459,338.220,-128.600,210.940
906,47036.713000,200.967,-8.031,114.688,459.648,-252.776,136.296,418.220,-29.600,251.940
907,47036.733000,208.829,-11.043,120.832,455.825,-256.354,143.177,485.220,38.400,256.940
908,47036.773000,211.777,-15.059,126.976,452.094,-253.461,153.179,493.220,91.400,265.940
909,47036.813000,212.760,-11.043,138.240,449.279,-252.445,160.159,612.220,51.400,242.940
910,47036.853000,205.881,-14.055,144.384,449.219,-257.767,168.997,599.220,23.400,205.940
911,47036.893000,204.898,-5.020,138.240,447.424,-251.262,175.101,616.220,-44.600,173.940
912,47036.933000,206.864,-6.024,129.024,448.333,-254.757,182.985,585.220,-48.600,117.940
913,47036.953000,216.691,2.008,133.120,447.544,-243.698,187.198,578.220,-37.600,74.940
914,47036.993000,228.484,7.027,133.120,447.563,-242.704,191.197,580.220,-57.600,54.940
915,47037.33000,238.311,13.051,129.024,452.368,-237.924,198.269,573.220,-122.600,49.940
916,47037.73000,239.294,22.086,112.640,449.524,-238.800,202.224,525.220,-175.600,11.940
917,47037.109000,237.328,26.102,89.088,454.439,-225.034,200.535,500.220,-237.600,-58.060
918,47037.153000,229.466,36.141,77.824,461.090,-223.095,201.581,496.220,-176.600,-116.060
919,47037.202000,242.242,39.153,71.680,466.073,-205.470,209.921,465.220,-63.600,-93.060
920,47037.216000,240.276,47.184,70.656,465.080,-209.108,211.831,498.220,105.400,-57.060
921,47037.251000,246.173,59.231,74.752,467.072,-202.533,218.936,523.220,231.400,-71.060
922,47037.289000,234.380,67.263,84.992,463.510,-187.652,233.173,513.220,242.400,-30.060
923,47037.333000,228.484,75.294,100.352,463.610,-181.083,241.270,394.220,189.400,-34.060
924,47037.369000,210.795,70.275,105.472,460.714,-185.643,244.152,358.220,85.400,-8.060
925,47037.416000,203.916,72.282,106.496,463.660,-178.198,248.294,314.220,14.400,1.940
926,47037.431000,211.777,74.290,102.400,465.643,-171.721,250.424,224.220,-58.600,15.940
927,47037.471000,218.656,72.282,100.352,467.559,-169.883,249.471,185.220,-95.600,47.940
928,47037.511000,218.656,72.282,104.448,467.557,-169.903,248.476,206.220,-97.600,50.940
929,47037.551000,217.674,69.271,100.352,467.532,-171.735,248.437,212.220,-77.600,58.940
930,47037.591000,213.743,63.247,89.088,467.548,-170.780,250.447,278.220,-59.600,90.940
931,47037.634000,203.916,66.259,94.208,467.680,-161.540,254.622,319.220,55.400,84.940
932,47037.654000,202.933,71.278,87.040,464.798,-165.164,258.519,351.220,118.400,96.940
933,47037.703000,212.760,71.278,87.040,456.371,-159.604,267.577,337.220,327.400,95.940
934,47037.731000,243.225,79.310,112.640,455.400,-162.209,275.477,220.220,299.400,155.940
935,47037.774000,232.415,68.267,122.880,450.691,-161.239,281.459,187.220,314.400,219.940
936,47037.814000,224.553,52.204,129.024,441.113,-170.408,287.217,161.220,193.400,308.940
937,47037.854000,221.605,30.118,112.640,434.421,-175.914,291.069,161.220,80.400,358.940
938,47037.894000,233.397,7.027,102.400,432.458,-181.377,293.933,167.220,-19.600,377.940
939,47037.916000,254.035,13.051,91.136,433.303,-188.713,292.784,198.220,-102.600,296.940
940,47037.951000,246.173,14.055,84.992,425.771,-186.045,293.824,238.220,-138.600,180.940
941,47037.991000,245.190,18.071,75.776,429.592,-183.267,292.894,194.220,-112.600,-9.060
942,47038.41000,236.345,30.118,66.560,428.725,-176.964,288.054,163.220,-77.600,-88.060
943,47038.73000,234.380,33.129,64.512,432.589,-171.378,290.168,144.220,-37.600,-108.060
944,47038.112000,231.432,33.129,67.584,431.668,-169.558,290.205,169.220,44.400,-60.060
945,47038.132000,232.415,37.145,79.872,429.833,-165.821,295.255,166.220,106.400,-16.060
946,47038.172000,233.397,43.169,83.968,430.788,-165.711,300.232,123.220,110.400,-14.060
947,47038.213000,227.501,49.192,88.064,425.173,-161.205,300.320,132.220,88.400,-39.060
948,47038.261000,235.363,45.176,78.848,423.267,-162.926,307.243,84.220,29.400,-79.060
949,47038.294000,237.328,44.173,68.608,428.022,-161.051,306.295,113.220,-27.600,-97.060
950,47038.334000,239.294,41.161,59.392,427.163,-154.650,306.430,191.220,-20.600,-130.060
951,47038.374000,244.207,42.165,45.056,423.495,-146.396,309.584,283.220,52.400,-160.060
952,47038.394000,246.173,45.176,48.128,424.559,-138.080,312.747,420.220,250.400,-202.060
953,47038.434000,256.983,62.243,57.344,418.044,-131.501,325.807,527.220,423.400,-255.060
954,47038.489000,237.328,77.302,82.944,405.997,-114.822,344.048,511.220,680.400,-276.060
955,47038.512000,235.363,80.314,124.928,398.496,-111.803,362.999,424.220,750.400,-239.060
956,47038.552000,214.726,82.322,135.168,385.426,-99.873,373.180,318.220,683.400,-168.060
957,47038.596000,196.054,68.267,153.600,375.189,-88.763,386.332,230.220,571.400,-75.060
958,47038.612000,173.451,74.290,167.936,365.746,-88.654,398.256,195.220,426.400,-97.060
959,47038.652000,163.624,75.294,171.008,358.287,-81.288,405.364,207.220,355.400,-82.060
960,47038.697000,169.520,72.282,178.176,348.784,-84.961,411.240,130.220,292.400,10.940
961,47038.736000,167.555,68.267,199.680,344.079,-83.171,412.265,111.220,222.400,71.940
962,47038.774000,168.537,68.267,212.992,340.399,-75.834,415.400,113.220,53.400,124.940
963,47038.814000,175.417,74.290,209.920,344.185,-75.764,416.402,108.220,-138.600,104.940
964,47038.834000,192.123,79.310,185.344,343.193,-78.623,411.366,90.220,-322.600,72.940
965,47038.874000,194.088,82.322,171.008,358.344,-76.766,402.476,34.220,-547.600,27.940
966,47038.912000,186.226,77.302,145.408,367.803,-75.920,392.562,-67.780,-613.600,-5.060
967,47038.967000,195.071,76.298,118.784,379.058,-82.339,384.485,-146.780,-665.600,-55.060
968,47038.998000,199.985,75.294,96.256,392.308,-80.605,370.616,-272.780,-653.600,-90.060
969,47039.34000,205.881,79.310,86.016,400.667,-90.804,358.476,-323.780,-594.600,-119.060
970,47039.74000,214.726,79.310,81.920,412.086,-84.534,343.707,-410.780,-493.600,-145.060
971,47039.94000,219.639,78.306,81.920,420.495,-91.069,331.645,-439.780,-399.600,-154.060
972,47039.134000,224.553,75.294,83.968,423.272,-94.832,324.606,-504.780,-331.600,-167.060
973,47039.174000,220.622,71.278,88.064,427.851,-105.023,315.444,-528.780,-296.600,-185.060
974,47039.214000,226.518,65.255,88.064,435.467,-100.537,305.605,-522.780,-263.600,-193.060
975,47039.256000,221.605,66.259,79.872,437.241,-108.836,301.452,-450.780,-264.600,-200.060
976,47039.292000,219.639,74.290,88.064,442.908,-108.118,287.551,-403.780,-228.600,-227.060
977,47039.317000,215.708,80.314,87.040,448.625,-105.275,288.614,-395.780,-216.600,-233.060
978,47039.353000,219.639,82.322,83.968,450.417,-111.819,280.521,-429.780,-202.600,-218.060
979,47039.393000,217.674,83.325,84.992,452.296,-111.950,272.564,-465.780,-196.600,-176.060
980,47039.432000,221.605,81.318,82.944,459.853,-112.006,264.617,-490.780,-198.600,-115.060
981,47039.472000,224.553,72.282,83.968,460.616,-124.917,259.370,-492.780,-206.600,-14.060
982,47039.512000,224.553,70.275,75.776,463.483,-122.248,253.463,-478.780,-212.600,30.940
983,47039.552000,211.777,65.255,62.464,466.244,-126.967,244.415,-467.780,-243.600,54.940
984,47039.572000,224.553,70.275,62.464,465.113,-139.923,238.170,-543.780,-159.600,79.940
985,47039.613000,236.345,65.255,74.752,468.720,-151.958,228.967,-556.780,-158.600,177.940
986,47039.652000,234.380,55.216,76.800,464.803,-161.247,224.785,-448.780,-77.600,269.940
987,47039.693000,236.345,58.227,83.968,463.697,-172.370,218.579,-452.780,-45.600,334.940
988,47039.733000,270.741,57.224,102.400,456.966,-179.865,214.431,-480.780,-16.600,393.940
989,47039.774000,247.155,33.129,126.976,454.806,-199.187,211.032,-360.780,-31.600,447.940
990,47039.794000,248.138,30.118,130.048,448.075,-206.682,206.884,-373.780,-43.600,412.940
991,47039.836000,225.536,5.020,116.736,445.998,-219.650,200.638,-375.780,-109.600,368.940
992,47039.888000,237.328,-14.055,130.048,444.895,-230.734,196.421,-341.780,-93.600,232.940
993,47039.912000,222.587,-13.051,121.856,441.010,-237.334,189.313,-174.780,-113.600,155.940
994,47039.953000,218.656,-7.027,113.664,442.940,-234.560,189.375,-7.780,-148.600,39.940
995,47039.993000,214.726,-7.027,93.184,441.941,-238.276,187.305,80.220,-146.600,-11.060
996,47040.13000,218.656,-8.031,93.184,446.735,-233.633,187.411,108.220,-124.600,-10.060
997,47040.53000,220.622,-12.047,89.088,448.612,-234.563,185.404,204.220,-112.600,47.940
998,47040.96000,215.708,-18.071,90.112,446.694,-236.421,185.362,259.220,-54.600,56.940
999,47040.148000,223.570,-20.078,93.184,447.764,-228.026,192.505,301.220,44.400,69.940
1000,47040.181000,226.518,-29.114,97.280,445.850,-229.845,194.453,337.220,97.400,130.940
1001,47040.216000,234.380,-20.078,93.184,442.990,-232.435,204.340,413.220,127.400,116.940
1002,47040.258000,239.294,-9.035,90.112,445.037,-222.138,214.508,448.220,167.400,37.940
1003,47040.273000,236.345,-6.024,93.184,442.267,-217.517,218.581,397.220,208.400,-52.060
1004,47040.318000,245.190,10.039,104.448,445.996,-222.749,229.416,371.220,251.400,-145.060
1005,47040.354000,247.155,26.102,98.304,445.368,-200.559,240.828,469.220,260.400,-285.060
1006,47040.397000,231.432,64.251,79.872,450.257,-190.185,252.992,496.220,278.400,-416.060
1007,47040.437000,216.691,92.361,77.824,454.375,-166.998,265.427,460.220,313.400,-508.060
1008,47040.477000,219.639,114.447,103.424,451.608,-162.337,271.490,217.220,356.400,-588.060
1009,47040.497000,218.656,122.478,105.472,453.827,-139.253,279.942,149.220,402.400,-554.060
1010,47040.533000,207.846,132.518,139.264,448.353,-125.391,290.175,50.220,483.400,-474.060
1011,47040.578000,197.036,142.557,153.600,448.497,-116.015,301.316,27.220,373.400,-379.060
1012,47040.613000,178.365,142.557,164.864,447.615,-112.187,310.348,22.220,213.400,-202.060
1013,47040.653000,165.589,134.525,151.552,450.446,-112.247,305.378,48.220,-95.600,-51.060
1014,47040.693000,159.693,125.490,139.264,458.063,-108.522,303.479,62.220,-278.600,20.940
1015,47040.733000,161.658,126.494,132.096,458.894,-116.014,294.369,83.220,-382.600,87.940
1016,47040.757000,172.468,123.482,111.616,467.462,-111.457,287.516,61.220,-449.600,122.940
1017,47040.798000,185.244,125.490,103.424,473.963,-118.972,273.441,73.220,-424.600,179.940
1018,47040.833000,193.106,120.471,97.280,472.980,-120.953,266.435,82.220,-372.600,248.940
1019,47040.873000,199.002,119.467,91.136,471.036,-123.883,258.412,117.220,-319.600,323.940
1020,47040.917000,203.916,105.412,80.896,471.912,-128.549,253.341,128.220,-252.600,396.940
1021,47040.957000,211.777,96.376,72.704,469.873,-138.749,248.148,133.220,-129.600,469.940
1022,47040.977000,216.691,86.337,71.680,464.061,-148.862,249.913,145.220,6.400,480.940
1023,47041.17000,235.363,67.263,71.680,456.246,-167.226,252.495,89.220,135.400,489.940
1024,47041.53000,261.896,40.157,78.848,447.652,-173.635,258.314,-21.780,330.400,529.940
1025,47041.94000,250.104,15.059,88.064,435.300,-178.222,266.155,81.220,380.400,502.940
1026,47041.134000,295.309,13.051,120.832,424.659,-196.467,276.692,51.220,441.400,599.940
1027,47041.176000,262.879,-17.067,134.144,414.185,-201.984,282.527,48.220,246.400,547.940
1028,47041.196000,251.086,2.008,119.808,409.344,-210.253,284.333,122.220,75.400,347.940
1029,47041.236000,217.674,-12.047,98.304,408.332,-214.885,282.243,46.220,-58.600,208.940
1030,47041.277000,206.864,-15.059,82.944,405.445,-218.568,283.155,62.220,-104.600,168.940
1031,47041.317000,203.916,-18.071,84.992,402.645,-215.837,284.204,115.220,-31.600,268.940
1032,47041.357000,220.622,-30.118,98.304,393.967,-227.840,284.930,182.220,77.400,363.940
1033,47041.422000,231.432,-24.094,102.400,389.282,-225.057,289.956,247.220,127.400,430.940
1034,47041.442000,238.311,-21.082,104.448,384.494,-229.622,293.830,313.220,65.400,486.940
1035,47041.457000,233.397,-30.118,113.664,379.633,-239.664,298.583,331.220,-45.600,423.940
1036,47041.496000,227.501,-24.094,104.448,375.827,-241.507,300.527,344.220,-162.600,306.940
1037,47041.536000,225.536,-21.082,94.208,377.716,-241.521,298.540,270.220,-238.600,146.940
1038,47041.582000,235.363,-14.055,88.064,379.669,-236.935,297.646,200.220,-221.600,48.940
1039,47041.617000,243.225,-5.020,83.968,381.623,-232.349,296.752,71.220,-193.600,-58.060
1040,47041.657000,249.121,2.008,82.944,386.385,-229.616,292.839,-40.780,-113.600,-125.060
1041,47041.677000,245.190,5.020,78.848,388.248,-231.482,289.818,-119.780,-81.600,-195.060
1042,47041.718000,233.397,6.024,80.896,393.051,-225.962,287.953,-248.780,-27.600,-253.060
1043,47041.758000,229.466,8.031,84.992,393.876,-234.292,282.804,-309.780,12.400,-237.060
1044,47041.798000,232.415,4.016,95.232,394.893,-228.841,279.937,-328.780,35.400,-194.060
1045,47041.838000,234.380,7.027,97.280,398.696,-227.037,276.003,-316.780,21.400,-146.060
1046,47041.878000,237.328,7.027,99.328,399.552,-233.477,273.878,-297.780,-19.600,-128.060
1047,47041.918000,232.415,6.024,103.424,399.631,-227.161,269.039,-304.780,-73.600,-146.060
1048,47041.938000,228.484,10.039,97.280,405.236,-231.784,262.981,-305.780,-127.600,-159.060
1049,47041.978000,229.466,10.039,93.184,410.012,-227.355,252.141,-301.780,-123.600,-181.060
1050,47042.18000,231.432,14.055,90.112,409.930,-233.710,254.990,-304.780,-108.600,-195.060
1051,47042.54000,232.415,17.067,90.112,415.710,-225.507,249.205,-312.780,-105.600,-197.060
1052,47042.94000,234.380,19.075,88.064,415.622,-231.160,241.128,-315.780,-102.600,-202.060
1053,47042.134000,236.345,15.059,88.064,420.402,-226.673,233.273,-316.780,-89.600,-169.060
1054,47042.154000,234.380,17.067,90.112,425.964,-234.882,231.117,-259.780,-107.600,-146.060
1055,47042.199000,236.345,17.067,87.040,425.981,-233.147,226.181,-233.780,-112.600,-111.060
1056,47042.234000,236.345,19.075,92.160,430.654,-236.847,221.136,-196.780,-125.600,-92.060
1057,47042.276000,234.380,17.067,89.088,428.880,-227.789,217.348,-154.780,-134.600,-79.060
1058,47042.316000,231.432,20.078,86.016,429.766,-231.558,211.301,-100.780,-145.600,-94.060
1059,47042.356000,238.311,19.075,80.896,436.435,-227.864,208.406,-53.780,-159.600,-81.060
1060,47042.376000,239.294,20.078,79.872,438.364,-225.110,207.473,-15.780,-148.600,-63.060
