Sample, Time, ACCX, ACCY, ACCZ, MAGX, MAGY, MAGZ, GYRX, GYRY, GYRZ
0,47373.129000,213.743,31.122,130.048,316.882,-200.541,374.915,-165.780,-155.600,-97.060
1,47373.169000,217.674,28.110,126.976,314.092,-196.933,373.993,-152.780,-161.600,-86.060
2,47373.207000,219.639,27.106,124.928,316.900,-199.566,377.919,-132.780,-170.600,-95.060
3,47373.247000,220.622,28.110,118.784,321.629,-198.763,368.992,-106.780,-168.600,-78.060
4,47373.284000,222.587,28.110,114.688,320.658,-200.608,368.951,-57.780,-159.600,-67.060
5,47373.325000,227.501,29.114,108.544,321.558,-203.441,363.919,-34.780,-135.600,-37.060
6,47373.345000,225.536,27.106,106.496,332.016,-199.659,363.020,-35.780,-153.600,-23.060
7,47373.385000,228.484,29.114,99.328,333.827,-205.209,358.926,-17.780,-113.600,7.940
8,47373.426000,224.553,26.102,103.424,332.941,-200.660,358.027,-11.780,-92.600,22.940
9,47373.466000,231.432,27.106,104.448,333.839,-204.293,358.946,27.220,-44.600,44.940
10,47373.507000,229.466,23.090,106.496,333.838,-204.312,357.951,36.220,2.400,41.940
11,47373.549000,225.536,24.094,106.496,332.022,-198.821,359.060,47.220,21.400,26.940
12,47373.582000,228.484,21.082,112.640,329.179,-199.677,364.010,3.220,41.400,22.940
13,47373.605000,230.449,25.098,108.544,331.973,-202.466,359.977,-24.780,34.400,-19.060
14,47373.645000,226.518,24.094,106.496,331.997,-200.653,359.021,-57.780,43.400,-13.060
15,47373.693000,232.415,25.098,104.448,330.102,-200.698,358.022,-93.780,63.400,-15.060
16,47373.727000,224.553,18.071,105.472,327.165,-208.045,358.856,-93.780,57.400,-27.060
17,47373.766000,224.553,18.071,103.424,329.024,-210.729,360.791,-85.780,103.400,-9.060
18,47373.805000,227.501,15.059,106.496,325.228,-211.676,361.760,-96.780,152.400,-12.060
19,47373.825000,225.536,15.059,112.640,323.390,-207.978,364.820,-40.780,192.400,-14.060
20,47373.866000,226.518,15.059,108.544,316.667,-215.375,365.647,-39.780,212.400,-22.060
21,47373.907000,221.605,21.082,118.784,314.905,-206.180,368.824,-123.780,221.400,-107.060
22,47373.947000,215.708,20.078,130.048,308.270,-207.164,369.788,-174.780,223.400,-98.060
23,47373.986000,211.777,18.071,132.096,307.309,-208.112,368.772,-166.780,219.400,-109.060
24,47374.27000,207.846,22.086,139.264,306.310,-212.588,374.643,-139.780,189.400,-119.060
25,47374.45000,204.898,24.094,144.384,301.593,-211.715,375.649,-109.780,155.400,-120.060
26,47374.85000,205.881,24.094,142.336,302.593,-207.999,377.719,-121.780,100.400,-118.060
27,47374.125000,203.916,24.094,146.432,301.479,-219.980,374.478,-170.780,69.400,-102.060
28,47374.167000,208.829,27.106,144.384,301.518,-217.212,375.532,-147.780,29.400,-88.060
29,47374.205000,205.881,17.067,141.312,301.477,-219.999,373.483,-104.780,-26.600,-39.060
30,47374.249000,208.829,17.067,140.288,302.515,-212.755,368.666,17.220,-45.600,-47.060
31,47374.289000,209.812,29.114,136.192,304.391,-214.465,373.605,127.220,-47.600,-42.060
32,47374.307000,206.864,24.094,140.288,304.440,-210.820,372.688,112.220,-26.600,-43.060
33,47374.343000,211.777,34.133,140.288,309.215,-207.931,376.735,167.220,-17.600,-58.060
34,47374.384000,207.846,38.149,136.192,305.491,-203.420,375.831,138.220,-51.600,-7.060
35,47374.429000,210.795,32.125,136.192,309.154,-212.492,377.633,94.220,-48.600,7.940
36,47374.469000,209.812,36.141,135.168,306.410,-205.259,374.799,72.220,-58.600,10.940
37,47374.509000,212.760,32.125,134.144,310.310,-196.944,375.976,29.220,-62.600,44.940
38,47374.528000,213.743,33.129,132.096,312.113,-203.352,374.848,27.220,-75.600,31.940
39,47374.569000,213.743,32.125,130.048,313.121,-198.778,373.952,1.220,-79.600,32.940
40,47374.609000,215.708,31.122,126.976,314.899,-207.018,372.785,10.220,-79.600,29.940
41,47374.644000,216.691,31.122,126.976,316.840,-203.348,371.871,29.220,-75.600,22.940
42,47374.684000,217.674,31.122,126.976,314.985,-200.624,371.926,59.220,-76.600,36.940
43,47374.724000,216.691,31.122,131.072,318.795,-198.742,371.972,83.220,-60.600,58.940
44,47374.745000,217.674,32.125,123.904,316.877,-200.599,371.930,103.220,-60.600,84.940
45,47374.789000,217.674,32.125,121.856,319.755,-197.794,372.988,113.220,-48.600,106.940
46,47374.824000,217.674,30.118,122.880,317.872,-196.942,371.014,114.220,-42.600,121.940
47,47374.864000,218.656,29.114,121.856,315.010,-198.792,371.965,130.220,-19.600,125.940
48,47374.907000,218.656,30.118,120.832,315.974,-197.805,374.972,148.220,12.400,125.940
49,47374.947000,218.656,28.110,122.880,313.065,-203.281,377.835,146.220,26.400,129.940
50,47374.987000,221.605,28.110,119.808,309.383,-195.963,379.974,129.220,45.400,124.940
51,47375.7000,218.656,27.106,121.856,306.544,-196.000,379.969,103.220,59.400,109.940
52,47375.49000,216.691,27.106,123.904,305.560,-198.761,379.909,83.220,59.400,102.940
53,47375.84000,217.674,25.098,123.904,301.825,-195.147,379.980,57.220,79.400,67.940
54,47375.135000,219.639,25.098,125.952,302.795,-194.081,386.967,40.220,92.400,46.940
55,47375.170000,218.656,23.090,129.024,297.948,-202.428,384.793,12.220,93.400,21.940
56,47375.205000,220.622,19.075,128.000,296.914,-208.853,384.655,0.220,98.400,3.940
57,47375.237000,223.570,19.075,128.000,296.089,-200.523,389.804,-14.780,114.400,-10.060
58,47375.275000,212.760,19.075,130.048,293.290,-197.773,391.848,-5.780,90.400,-50.060
59,47375.312000,211.777,18.071,125.952,290.417,-200.520,393.774,-19.780,79.400,-66.060
60,47375.350000,210.795,17.067,126.976,291.417,-196.804,395.844,-35.780,71.400,-76.060
61,47375.387000,211.777,18.071,133.120,295.141,-201.315,396.748,-42.780,61.400,-69.060
62,47375.433000,211.777,17.067,135.168,291.480,-192.223,395.942,-27.780,45.400,-47.060
63,47375.449000,211.777,18.071,136.192,290.499,-194.945,397.872,-9.780,29.400,-20.060
64,47375.490000,211.777,18.071,137.216,293.338,-194.908,397.877,16.220,-5.600,7.940
65,47375.525000,207.846,21.082,136.192,294.318,-192.186,395.947,44.220,-48.600,22.940
66,47375.565000,210.795,24.094,135.168,292.413,-193.127,395.924,71.220,-71.600,35.940
67,47375.610000,210.795,31.122,139.264,292.387,-194.979,394.890,87.220,-94.600,27.940
68,47375.650000,215.708,34.133,141.312,295.277,-191.257,395.968,91.220,-65.600,18.940
69,47375.677000,211.777,35.137,141.312,298.065,-194.904,394.900,73.220,-83.600,-2.060
70,47375.707000,205.881,42.165,135.168,301.000,-187.576,393.071,60.220,-106.600,14.940
71,47375.745000,208.829,38.149,130.048,298.984,-196.743,393.867,29.220,-108.600,16.940
72,47375.794000,211.777,40.157,131.072,301.956,-186.687,391.102,32.220,-73.600,31.940
73,47375.829000,214.726,38.149,130.048,300.999,-187.596,392.076,42.220,-41.600,39.940
74,47375.870000,213.743,36.141,128.000,299.086,-189.395,395.018,63.220,-21.600,28.940
75,47375.910000,214.726,34.133,125.952,297.188,-189.478,392.030,56.220,-2.600,25.940
76,47375.930000,212.760,37.145,125.952,301.934,-188.480,393.053,52.220,6.400,5.940
77,47375.965000,211.777,33.129,128.000,301.038,-184.828,393.129,23.220,18.400,4.940
78,47376.11000,212.760,30.118,128.000,296.297,-185.768,395.092,16.220,22.400,3.940
79,47376.45000,214.726,29.114,128.000,297.267,-183.942,394.137,13.220,24.400,-3.060
80,47376.85000,217.674,28.110,130.048,300.045,-188.466,395.040,1.220,24.400,-15.060
81,47376.125000,219.639,28.110,130.048,298.120,-191.181,397.963,-16.780,24.400,-31.060
82,47376.150000,210.795,27.106,129.024,300.095,-184.801,395.118,-31.780,6.400,-36.060
83,47376.187000,216.691,26.102,126.976,303.877,-184.790,393.134,-41.780,-5.600,-36.060
84,47376.227000,221.605,27.106,122.880,300.061,-187.511,397.049,-42.780,-21.600,-35.060
85,47376.265000,218.656,26.102,126.976,303.887,-183.894,392.159,-49.780,-13.600,-16.060
86,47376.309000,214.726,25.098,126.976,303.725,-195.803,391.905,-45.780,-2.600,-17.060
87,47376.347000,212.760,24.094,128.000,300.063,-186.712,391.098,-44.780,-4.600,5.940
88,47376.369000,216.691,22.086,126.976,302.879,-188.487,392.059,-47.780,-21.600,5.940
89,47376.411000,217.674,24.094,125.952,303.773,-192.158,390.988,-23.780,-39.600,-0.060
90,47376.450000,215.708,23.090,124.928,305.714,-188.488,390.074,-22.780,-49.600,-2.060
91,47376.490000,215.708,25.098,122.880,308.492,-193.012,390.977,-9.780,-58.600,-8.060
92,47376.532000,216.691,27.106,122.880,309.498,-188.458,389.086,-5.780,-50.600,-8.060
93,47376.584000,216.691,28.110,128.000,304.793,-186.669,390.112,3.220,-21.600,0.940
94,47376.606000,216.691,28.110,124.928,310.419,-190.278,389.049,17.220,-10.600,6.940
95,47376.631000,214.726,28.110,128.000,307.544,-193.044,389.980,13.220,-11.600,9.940
96,47376.667000,217.674,28.110,129.024,311.445,-184.710,392.152,1.220,-29.600,6.940
97,47376.707000,215.708,29.114,122.880,308.596,-184.864,386.177,-3.780,-35.600,-1.060
98,47376.752000,217.674,28.110,122.880,309.496,-188.477,388.091,-7.780,-15.600,-16.060
99,47376.807000,216.691,31.122,120.832,307.664,-183.941,387.190,-9.780,9.400,-23.060
100,47376.832000,216.691,33.129,120.832,309.534,-185.729,388.149,-18.780,62.400,-14.060
101,47376.846000,214.726,33.129,121.856,306.686,-186.644,390.115,-31.780,110.400,-13.060
102,47376.892000,214.726,34.133,126.976,301.963,-185.829,388.136,-49.780,168.400,-2.060
103,47376.926000,216.691,30.118,126.976,300.068,-186.653,394.084,-86.780,178.400,-9.060
104,47376.970000,211.777,27.106,136.192,297.106,-195.832,394.879,-121.780,181.400,-9.060
105,47377.8000,213.743,29.114,134.144,291.492,-191.307,395.961,-89.780,156.400,-18.060
106,47377.49000,212.760,28.110,138.240,289.514,-197.726,396.816,-70.780,161.400,-4.060
107,47377.67000,210.795,29.114,136.192,290.452,-198.571,399.784,-79.780,156.400,9.940
108,47377.109000,209.812,23.090,136.192,285.787,-194.014,401.863,-52.780,104.400,25.940
109,47377.149000,207.846,25.098,143.360,282.885,-198.632,401.760,-38.780,150.400,18.940
110,47377.189000,206.864,26.102,141.312,280.958,-201.366,403.689,-13.780,69.400,22.940
111,47377.230000,204.898,23.090,146.432,279.128,-196.810,403.783,-22.780,61.400,17.940
112,47377.270000,204.898,24.094,143.360,280.078,-196.759,405.775,29.220,3.400,12.940
113,47377.311000,205.881,24.094,144.384,277.180,-201.338,407.662,35.220,-10.600,25.940
114,47377.331000,207.846,23.090,140.288,281.038,-195.811,406.791,58.220,-13.600,26.940
115,47377.371000,207.846,22.086,141.312,278.101,-203.158,407.625,80.220,-26.600,32.940
116,47377.411000,208.829,24.094,142.336,279.162,-194.881,408.797,74.220,-13.600,40.940
117,47377.451000,207.846,23.090,139.264,279.208,-191.255,406.885,96.220,-27.600,40.940
118,47377.491000,208.829,24.094,141.312,279.110,-198.565,407.724,87.220,1.400,40.940
119,47377.531000,210.795,25.098,141.312,276.365,-192.111,411.836,92.220,-12.600,28.940
120,47377.551000,207.846,25.098,142.336,281.122,-190.216,411.883,81.220,2.400,18.940
121,47377.591000,208.829,27.106,140.288,277.321,-191.222,409.867,82.220,11.400,8.940
122,47377.636000,206.864,27.106,139.264,280.133,-193.036,408.838,77.220,25.400,8.940
123,47377.677000,204.898,27.106,141.312,278.331,-186.609,410.961,65.220,19.400,6.940
124,47377.717000,207.846,28.110,142.336,272.683,-184.793,413.975,60.220,30.400,3.940
125,47377.752000,204.898,28.110,143.360,276.506,-181.995,414.041,49.220,35.400,-4.060
126,47377.772000,204.898,32.125,145.408,276.434,-187.452,415.914,42.220,11.400,1.940
127,47377.812000,204.898,29.114,145.408,275.546,-182.943,413.024,41.220,-12.600,15.940
128,47377.869000,205.881,30.118,143.360,273.567,-189.361,413.880,38.220,-56.600,12.940
129,47377.892000,206.864,31.122,142.336,275.561,-181.988,415.034,25.220,-70.600,11.940
130,47377.929000,208.829,28.110,137.216,276.531,-180.162,414.080,21.220,-64.600,0.940
131,47377.973000,209.812,27.106,140.288,278.440,-179.182,416.093,-5.780,-52.600,-18.060
132,47377.989000,208.829,25.098,136.192,278.342,-185.712,409.986,-0.780,-50.600,-24.060
133,47378.27000,212.760,19.075,133.120,275.467,-188.479,410.917,7.220,-53.600,-24.060
134,47378.69000,218.656,15.059,126.976,277.458,-181.144,410.082,29.220,-18.600,-34.060
135,47378.107000,218.656,17.067,122.880,281.309,-176.474,412.176,68.220,3.400,-54.060
136,47378.150000,220.622,16.063,126.976,279.318,-183.809,413.012,98.220,56.400,-42.060
137,47378.190000,217.674,20.078,129.024,277.520,-177.343,417.125,141.220,124.400,-57.060
138,47378.227000,216.691,29.114,132.096,275.773,-167.193,422.312,168.220,167.400,-73.060
139,47378.247000,207.846,45.176,140.288,272.055,-162.604,425.388,214.220,190.400,-108.060
140,47378.289000,196.054,59.231,144.384,266.463,-157.065,431.465,193.220,232.400,-146.060
141,47378.331000,179.347,68.267,158.720,263.659,-155.153,437.470,148.220,265.400,-134.060
142,47378.371000,173.451,76.298,173.056,261.834,-150.539,440.549,71.220,222.400,-122.060
143,47378.410000,176.399,77.302,177.152,260.003,-145.983,440.643,21.220,138.400,-74.060
144,47378.447000,174.434,75.294,172.032,258.012,-153.318,441.479,-16.780,8.400,-36.060
145,47378.476000,185.244,74.290,161.792,258.993,-150.596,439.549,-55.780,-134.600,-28.060
146,47378.511000,195.071,67.263,150.528,266.532,-152.406,435.543,-96.780,-186.600,-38.060
147,47378.551000,207.846,57.224,145.408,270.237,-157.911,432.447,-147.780,-169.600,-17.060
148,47378.588000,207.846,43.169,140.288,272.187,-153.364,429.563,-169.780,-130.600,58.940
149,47378.631000,203.916,31.122,141.312,272.062,-162.526,429.368,-145.780,-100.600,103.940
150,47378.667000,208.829,29.114,139.264,271.136,-160.764,426.420,-102.780,-84.600,152.940
151,47378.687000,205.881,22.086,140.288,275.796,-165.380,421.356,-63.780,-79.600,143.940
152,47378.732000,210.795,21.082,136.192,271.920,-172.662,426.168,-26.780,-87.600,132.940
153,47378.772000,214.726,20.078,134.144,270.927,-175.520,421.133,9.220,-96.600,77.940
154,47378.810000,213.743,23.090,134.144,275.732,-169.980,420.263,27.220,-87.600,59.940
155,47378.851000,211.777,22.086,133.120,277.577,-173.600,421.183,27.220,-87.600,44.940
156,47378.892000,212.760,21.082,132.096,277.587,-172.704,420.208,41.220,-86.600,46.940
157,47378.932000,215.708,20.078,130.048,278.593,-168.150,418.317,57.220,-73.600,43.940
158,47378.951000,214.726,24.094,135.168,278.618,-166.317,418.356,92.220,-74.600,28.940
159,47378.993000,209.812,27.106,133.120,279.563,-166.324,417.363,82.220,-80.600,19.940
160,47379.32000,209.812,30.118,137.216,283.360,-165.358,417.389,80.220,-78.600,10.940
161,47379.75000,207.846,35.137,131.072,282.334,-170.926,414.285,76.220,-74.600,-6.060
162,47379.111000,208.829,37.145,136.192,284.246,-169.907,418.288,69.220,-37.600,-17.060
163,47379.152000,206.864,40.157,135.168,282.386,-167.242,415.358,62.220,-45.600,-13.060
164,47379.172000,206.864,39.153,139.264,287.196,-161.644,417.473,58.220,-46.600,-1.060
165,47379.213000,209.812,42.165,136.192,287.246,-157.979,417.552,60.220,-68.600,7.940
166,47379.253000,211.777,43.169,137.216,289.151,-157.038,417.574,64.220,-78.600,30.940
167,47379.293000,210.795,44.173,134.144,288.134,-161.729,412.500,59.220,-79.600,26.940
168,47379.342000,211.777,45.176,133.120,290.081,-157.981,415.566,41.220,-76.600,31.940
169,47379.377000,210.795,45.176,133.120,292.008,-155.246,413.638,32.220,-54.600,24.940
170,47379.392000,211.777,48.188,133.120,290.949,-163.504,413.461,25.220,-35.600,18.940
171,47379.432000,209.812,49.192,133.120,292.933,-157.027,415.591,9.220,-4.600,17.940
172,47379.474000,206.864,46.180,132.096,289.981,-165.310,415.410,-6.780,15.400,26.940
173,47379.508000,208.829,45.176,132.096,289.092,-160.800,412.521,-24.780,23.400,29.940
174,47379.548000,211.777,43.169,135.168,291.015,-158.884,415.549,-42.780,27.400,30.940
175,47379.589000,210.795,40.157,132.096,291.849,-167.117,415.375,-60.780,27.400,23.940
176,47379.631000,211.777,39.153,135.168,291.874,-165.285,415.414,-74.780,26.400,14.940
177,47379.649000,211.777,32.125,131.072,288.956,-170.858,413.301,-111.780,16.400,4.940
178,47379.691000,212.760,27.106,128.000,289.956,-167.142,415.371,-121.780,8.400,-9.060
179,47379.730000,218.656,19.075,121.856,288.071,-166.309,412.402,-103.780,0.400,-26.060
180,47379.769000,219.639,16.063,117.760,288.025,-169.155,407.368,-131.780,-33.600,-82.060
181,47379.809000,218.656,17.067,126.976,291.739,-174.563,409.248,-110.780,-36.600,-101.060
182,47379.852000,217.674,15.059,137.216,294.648,-169.087,406.385,-100.780,-56.600,-119.060
183,47379.872000,216.691,37.145,139.264,297.446,-171.837,404.341,-103.780,-124.600,-122.060
184,47379.912000,208.829,54.212,138.240,297.446,-171.837,404.341,-109.780,-100.600,-103.060
185,47379.952000,199.002,73.286,149.504,302.124,-175.478,402.282,-105.780,-23.600,-129.060
186,47379.995000,189.175,88.345,153.600,301.212,-172.782,400.348,-213.780,-1.600,-163.060
187,47380.31000,185.244,95.373,172.032,302.062,-179.280,395.238,-378.780,48.400,-149.060
188,47380.77000,186.226,84.329,159.744,306.723,-183.895,390.174,-628.780,-110.600,-154.060
189,47380.92000,171.486,81.318,137.216,310.411,-190.375,384.073,-765.780,-165.600,-261.060
190,47380.132000,203.916,72.282,131.072,315.862,-205.271,367.850,-962.780,-191.600,-352.060
191,47380.172000,219.639,50.196,110.592,324.146,-220.967,355.593,-1135.780,-177.600,-397.060
192,47380.212000,273.689,25.098,110.592,332.360,-241.341,338.262,-1193.780,-25.600,-407.060
193,47380.254000,261.896,4.016,106.496,333.258,-243.434,324.294,-1123.780,107.400,-299.060
194,47380.295000,238.311,-27.106,126.976,338.816,-251.682,320.148,-926.780,207.400,-205.060
195,47380.334000,207.846,-34.133,146.432,333.961,-260.126,312.999,-731.780,250.400,-163.060
196,47380.360000,183.278,-20.078,149.504,334.866,-262.901,310.952,-504.780,143.400,-173.060
197,47380.395000,185.244,-16.063,145.408,338.545,-270.258,306.822,-417.780,52.400,-132.060
198,47380.435000,201.950,-11.043,139.264,339.518,-267.615,300.912,-328.780,-67.600,-129.060
199,47380.476000,200.967,-11.043,137.216,342.294,-271.398,292.879,-279.780,-161.600,-138.060
200,47380.511000,195.071,-9.035,139.264,346.944,-276.910,288.790,-250.780,-185.600,-113.060
201,47380.556000,215.708,-17.067,142.336,352.623,-276.056,281.854,-289.780,-145.600,-166.060
202,47380.570000,210.795,-10.039,146.432,357.373,-273.459,270.975,-358.780,-119.600,-141.060
203,47380.630000,204.898,-14.055,149.504,365.791,-279.896,263.888,-403.780,-105.600,-177.060
204,47380.652000,199.002,-16.063,154.624,368.642,-278.183,255.972,-360.780,-85.600,-212.060
205,47380.692000,199.985,-12.047,147.456,373.454,-271.785,252.136,-362.780,-117.600,-272.060
206,47380.732000,198.019,-11.043,148.480,380.975,-274.570,245.126,-334.780,-87.600,-310.060
207,47380.772000,193.106,-5.020,144.384,387.669,-269.045,242.269,-351.780,-71.600,-352.060
208,47380.790000,199.002,-8.031,142.336,392.422,-266.429,232.386,-341.780,-11.600,-343.060
209,47380.832000,222.587,-3.012,144.384,399.180,-256.303,230.622,-351.780,68.400,-351.060
210,47380.872000,219.639,6.024,144.384,403.885,-258.092,229.596,-223.780,142.400,-311.060
211,47380.910000,241.259,27.106,135.168,405.908,-248.847,232.780,-109.780,161.400,-288.060
212,47380.955000,263.862,47.184,131.072,407.874,-243.345,231.905,-11.780,125.400,-287.060
213,47380.993000,257.965,72.282,126.976,413.694,-233.134,235.115,76.220,42.400,-307.060
214,47381.14000,240.276,68.267,102.400,417.520,-230.297,237.170,56.220,-29.600,-250.060
215,47381.50000,213.743,52.204,88.064,425.048,-233.004,234.140,57.220,-62.600,-87.060
216,47381.96000,209.812,50.196,88.064,426.146,-221.978,235.371,41.220,-81.600,0.940
217,47381.136000,216.691,50.196,83.968,425.143,-225.733,231.311,-9.780,-88.600,28.940
218,47381.170000,225.536,50.196,87.040,421.365,-224.925,228.339,-100.780,-69.600,-29.060
219,47381.217000,232.415,59.231,86.016,425.113,-227.624,228.287,-126.780,-107.600,-70.060
220,47381.262000,225.536,56.220,82.944,430.793,-226.750,222.346,-162.780,-130.600,-79.060
221,47381.270000,218.656,55.216,84.992,425.985,-232.329,221.225,-178.780,-137.600,-42.060
222,47381.312000,214.726,49.192,105.472,430.730,-230.570,214.307,-246.780,-116.600,-5.060
223,47381.354000,245.190,16.063,136.192,430.651,-235.346,204.259,-297.780,-56.600,38.940
224,47381.393000,230.449,-2.008,147.456,429.695,-236.236,206.228,-162.780,-31.600,126.940
225,47381.430000,204.898,-32.125,171.008,425.885,-238.118,206.183,8.220,65.400,147.940
226,47381.470000,199.985,-41.161,203.776,423.896,-245.433,208.013,147.220,87.400,140.940
227,47381.490000,197.036,-30.118,212.992,417.232,-249.068,213.894,239.220,56.400,106.940
228,47381.530000,182.296,-24.094,203.776,422.095,-239.766,218.078,355.220,-31.600,70.940
229,47381.576000,174.434,-23.090,184.320,423.998,-238.845,217.105,478.220,-121.600,71.940
230,47381.616000,170.503,-21.082,165.888,422.142,-236.901,224.106,561.220,-167.600,109.940
231,47381.655000,168.537,-18.071,152.576,423.233,-226.733,228.303,674.220,-104.600,141.940
232,47381.692000,198.019,-22.086,133.120,418.454,-231.200,237.153,734.220,67.400,178.940
233,47381.712000,219.639,4.016,121.856,418.765,-209.856,251.532,891.220,229.400,175.940
234,47381.758000,230.449,31.122,121.856,413.047,-215.018,272.301,975.220,450.400,225.940
235,47381.799000,251.086,68.267,125.952,406.585,-204.735,287.430,943.220,442.400,226.940
236,47381.834000,269.758,95.373,140.288,404.864,-193.513,300.597,847.220,429.400,216.940
237,47381.872000,256.000,75.294,136.192,394.508,-191.486,317.533,821.220,290.400,296.940
238,47381.915000,230.449,76.298,129.024,389.036,-177.605,328.762,966.220,175.400,359.940
239,47381.960000,195.071,76.298,121.856,387.240,-171.879,341.811,801.220,58.400,442.940
240,47381.975000,181.313,54.212,114.688,384.356,-175.523,344.713,675.220,11.400,485.940
241,47382.15000,187.209,59.231,103.424,380.619,-172.707,350.736,650.220,-75.600,468.940
242,47382.55000,197.036,52.204,117.760,381.659,-166.204,354.854,695.220,-58.600,433.940
243,47382.97000,200.967,52.204,115.712,377.950,-161.517,362.905,720.220,-44.600,402.940
244,47382.131000,205.881,67.263,121.856,377.046,-158.723,365.947,688.220,-49.600,385.940
245,47382.175000,215.708,62.243,131.072,375.219,-154.128,368.032,663.220,-7.600,378.940
246,47382.195000,200.967,77.302,137.216,373.335,-154.055,373.004,611.220,-2.600,372.940
247,47382.235000,200.967,64.251,140.288,363.880,-154.083,377.962,567.220,22.400,383.940
248,47382.276000,199.985,76.298,138.240,365.879,-146.651,382.102,516.220,-4.600,391.940
249,47382.316000,196.054,76.298,133.120,362.058,-149.429,383.032,449.220,18.400,377.940
250,47382.357000,192.123,67.263,128.000,360.267,-142.106,384.180,344.220,-3.600,361.940
251,47382.391000,183.278,59.231,118.784,355.517,-143.923,388.113,227.220,4.400,349.940
252,47382.412000,196.054,53.208,107.520,352.591,-150.373,387.971,84.220,12.400,249.940
253,47382.454000,231.432,44.173,108.544,354.518,-147.639,386.043,-32.780,74.400,143.940
254,47382.492000,250.104,51.200,116.736,346.802,-158.674,388.780,-150.780,164.400,65.940
255,47382.535000,243.225,33.129,126.976,343.965,-158.692,389.770,-308.780,198.400,56.940
256,47382.576000,236.345,9.035,129.024,339.100,-168.013,384.592,-519.780,186.400,60.940
257,47382.616000,273.689,-15.059,142.336,336.982,-184.528,384.237,-580.780,146.400,116.940
258,47382.652000,248.138,-29.114,137.216,333.111,-190.212,377.148,-594.780,-37.600,144.940
259,47382.671000,222.587,-30.118,117.760,335.763,-203.137,369.914,-495.780,-137.600,42.940
260,47382.713000,211.777,-26.102,101.376,337.590,-206.952,360.884,-453.780,-252.600,-61.060
261,47382.755000,218.656,-33.129,89.088,345.096,-210.692,351.864,-348.780,-355.600,-72.060
262,47382.794000,222.587,-27.106,87.040,353.519,-216.291,340.816,-220.780,-350.600,-101.060
263,47382.832000,233.397,-25.098,77.824,358.184,-220.088,330.796,-109.780,-329.600,-47.060
264,47382.874000,244.207,-29.114,65.536,362.079,-211.832,328.988,43.220,-283.600,9.940
265,47382.895000,245.190,-24.094,66.560,370.597,-211.700,329.998,123.220,-256.600,1.940
266,47382.937000,250.104,-19.075,62.464,370.567,-213.591,326.974,187.220,-184.600,-43.060
267,47382.974000,238.311,-15.059,65.536,372.458,-213.585,325.982,192.220,-152.600,-114.060
268,47383.20000,232.415,-12.047,67.584,380.178,-202.492,326.230,187.220,-95.600,-184.060
269,47383.52000,244.207,-15.059,72.704,381.264,-192.382,327.441,248.220,-23.600,-223.060
270,47383.92000,252.069,5.020,98.304,383.240,-186.763,332.537,291.220,44.400,-233.060
271,47383.115000,246.173,43.169,109.568,384.263,-181.234,333.651,366.220,52.400,-250.060
272,47383.155000,232.415,63.247,123.904,386.300,-171.054,337.849,315.220,122.400,-264.060
273,47383.212000,211.777,82.322,146.432,387.463,-156.188,348.113,283.220,170.400,-243.060
274,47383.236000,196.054,84.329,151.552,384.698,-151.508,355.171,124.220,171.400,-176.060
275,47383.277000,181.313,95.373,164.864,383.773,-149.727,353.219,25.220,202.400,-196.060
276,47383.317000,174.434,100.392,176.128,383.855,-144.152,357.316,-118.780,69.400,-166.060
277,47383.337000,172.468,101.396,162.816,388.547,-146.858,356.271,-156.780,-46.600,-199.060
278,47383.377000,172.468,105.412,151.552,389.510,-145.111,351.336,-204.780,-95.600,-195.060
279,47383.417000,170.503,102.400,129.024,394.221,-146.062,346.350,-282.780,-148.600,-175.060
280,47383.462000,173.451,102.400,121.856,396.104,-146.154,340.383,-486.780,-142.600,-175.060
281,47383.497000,176.399,101.396,101.376,395.956,-156.349,334.198,-617.780,-92.600,-200.060
282,47383.532000,182.296,102.400,81.920,400.610,-161.042,325.153,-778.780,-32.600,-269.060
283,47383.572000,248.138,82.322,91.136,399.474,-174.056,315.922,-1260.780,206.400,-329.060
284,47383.600000,243.225,33.129,109.568,398.311,-188.922,305.658,-1497.780,125.400,-284.060
285,47383.635000,289.413,-29.114,134.144,397.207,-199.246,293.501,-1440.780,295.400,-283.060
286,47383.675000,312.015,-34.133,150.528,396.106,-210.311,290.280,-1159.780,243.400,-244.060
287,47383.716000,277.620,-30.118,161.792,396.973,-215.074,280.233,-946.780,143.400,-246.060
288,47383.756000,266.810,-26.102,152.576,398.745,-223.392,275.086,-644.780,-20.600,-238.060
289,47383.795000,212.760,-5.020,142.336,400.706,-217.169,264.280,-445.780,-148.600,-327.060
290,47383.816000,183.278,4.016,125.952,411.101,-217.207,255.343,-301.780,-246.600,-338.060
291,47383.856000,184.261,10.039,116.736,415.849,-215.410,250.415,-315.780,-317.600,-316.060
292,47383.892000,188.192,10.039,105.472,423.373,-217.396,237.454,-359.780,-322.600,-286.060
293,47383.940000,193.106,18.071,105.472,430.088,-209.317,224.705,-480.780,-241.600,-205.060
294,47383.975000,208.829,4.016,105.472,431.903,-214.048,215.655,-404.780,-185.600,-136.060
295,47384.12000,227.501,13.051,119.808,432.793,-217.778,211.599,-328.780,-156.600,-46.060
296,47384.36000,227.501,10.039,110.592,441.348,-214.138,204.727,-302.780,-229.600,-43.060
297,47384.77000,215.708,1.004,118.784,440.249,-224.403,195.555,-309.780,-207.600,-90.060
298,47384.115000,218.656,1.004,114.688,441.293,-216.321,186.777,-313.780,-200.600,-152.060
299,47384.155000,215.708,-1.004,113.664,446.066,-212.692,181.888,-351.780,-145.600,-183.060
300,47384.195000,212.760,-7.027,110.592,449.895,-209.055,177.992,-267.780,-86.600,-227.060
301,47384.237000,207.846,-3.012,117.760,450.872,-206.373,174.072,-238.780,14.400,-267.060
302,47384.279000,219.639,4.016,115.712,461.351,-200.797,171.222,-271.780,77.400,-285.060
303,47384.299000,224.553,10.039,122.880,458.512,-200.834,171.217,-244.780,126.400,-264.060
304,47384.345000,212.760,27.106,117.760,463.399,-189.720,174.445,-27.780,205.400,-249.060
305,47384.379000,219.639,41.161,122.880,459.724,-182.323,180.565,36.220,242.400,-209.060
306,47384.415000,255.017,66.259,120.832,465.347,-186.732,185.453,55.220,166.400,-131.060
307,47384.473000,259.931,72.282,113.664,464.578,-173.899,186.719,111.220,170.400,-90.060
308,47384.501000,245.190,73.286,102.400,460.788,-174.767,191.668,160.220,166.400,-93.060
309,47384.516000,217.674,62.243,79.872,461.879,-164.599,195.865,175.220,57.400,-8.060
310,47384.556000,207.846,58.227,84.992,460.862,-170.050,198.731,213.220,-1.600,92.940
311,47384.597000,213.743,61.239,86.016,459.927,-169.166,197.754,161.220,-22.600,131.940
312,47384.637000,222.587,58.227,90.112,457.054,-171.913,199.681,82.220,-24.600,95.940
313,47384.682000,234.380,61.239,87.040,458.976,-169.237,194.767,32.220,-52.600,51.940
314,47384.717000,230.449,66.259,88.064,455.120,-174.725,197.629,-26.780,-55.600,9.940
315,47384.737000,227.501,61.239,81.920,459.897,-171.057,194.730,-133.780,-85.600,18.940
316,47384.777000,222.587,60.235,75.776,460.813,-172.935,191.707,-162.780,-70.600,4.940
317,47384.816000,224.553,60.235,82.944,461.615,-183.078,187.514,-214.780,-26.600,26.940
318,47384.860000,231.432,47.184,99.328,458.803,-181.264,188.543,-270.780,24.400,34.940
319,47384.900000,237.328,23.090,128.000,459.610,-191.348,187.335,-254.780,48.400,88.940
320,47384.934000,214.726,-9.035,154.624,455.820,-191.457,184.343,-106.780,136.400,149.940
321,47384.957000,188.192,-25.098,183.296,453.911,-193.216,189.276,7.220,193.400,167.940
322,47384.997000,185.244,-27.106,207.872,451.931,-200.414,197.077,144.220,228.400,133.940
323,47385.37000,193.106,-27.106,196.608,444.412,-197.610,205.083,358.220,90.400,176.940
324,47385.82000,187.209,-21.082,193.536,444.445,-195.680,210.097,531.220,-12.600,185.940
325,47385.117000,182.296,-7.027,177.152,437.793,-198.399,215.997,669.220,-79.600,203.940
326,47385.157000,173.451,-2.008,152.576,442.561,-195.607,215.069,762.220,-89.600,296.940
327,47385.197000,197.036,-7.027,135.168,440.758,-189.960,224.138,759.220,32.400,377.940
328,47385.219000,219.639,-3.012,123.904,429.308,-198.141,234.888,827.220,141.400,414.940
329,47385.259000,243.225,19.075,112.640,426.632,-187.808,250.024,971.220,299.400,461.940
330,47385.299000,259.931,31.122,113.664,419.090,-187.576,266.926,1041.220,401.400,450.940
331,47385.339000,250.104,61.239,119.808,409.781,-178.968,291.962,1082.220,453.400,392.940
332,47385.379000,235.363,71.278,133.120,402.375,-167.899,301.138,996.220,439.400,359.940
333,47385.419000,208.829,70.275,146.432,391.070,-165.924,316.083,904.220,400.400,406.940
334,47385.439000,192.123,64.251,143.360,382.574,-165.783,329.004,872.220,229.400,480.940
335,47385.477000,192.123,51.200,137.216,378.958,-154.624,340.177,835.220,97.400,556.940
336,47385.521000,197.036,46.180,133.120,374.170,-159.189,344.051,857.220,-12.600,605.940
337,47385.561000,204.898,43.169,126.976,367.603,-155.534,348.098,933.220,-52.600,618.940
338,47385.595000,204.898,49.192,121.856,367.777,-143.488,355.317,963.220,-36.600,618.940
339,47385.635000,204.898,56.220,118.784,363.066,-142.537,360.303,971.220,-11.600,570.940
340,47385.655000,205.881,59.231,121.856,358.423,-136.946,368.373,876.220,-20.600,549.940
341,47385.696000,199.985,64.251,122.880,355.678,-130.493,372.484,822.220,-9.600,509.940
342,47385.746000,203.916,59.231,121.856,354.839,-123.098,376.619,654.220,1.400,485.940
343,47385.775000,202.933,55.216,120.832,347.300,-121.288,380.625,555.220,30.400,417.940
344,47385.827000,173.451,66.259,113.664,347.391,-114.836,382.752,585.220,-68.600,372.940
345,47385.862000,222.587,47.184,140.288,337.872,-119.464,386.618,250.220,163.400,295.940
346,47385.897000,201.950,46.180,113.664,336.087,-112.062,391.746,152.220,150.400,204.940
347,47385.917000,201.950,30.118,109.568,335.091,-115.739,391.666,-96.780,80.400,90.940
348,47385.959000,284.499,32.125,133.120,330.280,-122.117,396.496,-273.780,251.400,79.940
349,47385.997000,254.035,-15.059,142.336,320.625,-136.042,393.202,-508.780,90.400,300.940
350,47386.39000,236.345,-21.082,133.120,319.525,-147.087,390.976,-424.780,54.400,305.940
351,47386.75000,204.898,-28.110,110.592,315.682,-150.900,385.916,-331.780,-86.600,165.940
352,47386.118000,203.916,-31.122,104.448,319.398,-155.508,381.845,-253.780,-167.600,92.940
353,47386.139000,216.691,-17.067,112.640,325.965,-159.163,377.798,-118.780,-202.600,81.940
354,47386.177000,219.639,-15.059,107.520,322.137,-162.020,374.748,-69.780,-178.600,59.940
355,47386.215000,226.518,-19.075,102.400,328.769,-161.075,371.794,-13.780,-109.600,103.940
356,47386.257000,228.484,-12.047,109.568,328.730,-163.843,370.740,-56.780,-150.600,85.940
357,47386.297000,227.501,-19.075,106.496,328.648,-169.418,366.643,-8.780,-205.600,55.940
358,47386.337000,242.242,-21.082,102.400,333.375,-169.414,363.666,46.220,-228.600,-5.060
359,47386.357000,240.276,-4.016,101.376,339.078,-166.727,356.769,20.220,-250.600,-61.060
360,47386.397000,258.948,-1.004,98.304,342.923,-162.136,354.883,-17.780,-196.600,-114.060
361,47386.441000,253.052,-1.004,90.112,348.542,-165.823,349.840,-115.780,-173.600,-198.060
362,47386.484000,237.328,-2.008,84.992,349.539,-162.146,349.920,-192.780,-93.600,-242.060
363,47386.518000,237.328,-18.071,78.848,353.381,-157.574,347.039,-278.780,-41.600,-238.060
364,47386.558000,235.363,-11.043,75.776,355.217,-161.291,342.984,-250.780,61.400,-257.060
365,47386.598000,234.380,-13.051,71.680,352.346,-164.019,345.905,-220.780,105.400,-265.060
366,47386.617000,226.518,-10.039,75.776,357.145,-159.317,348.996,-212.780,189.400,-290.060
367,47386.656000,217.674,-13.051,77.824,355.251,-159.361,347.998,-241.780,190.400,-302.060
368,47386.698000,222.587,-15.059,91.136,349.540,-162.126,350.915,-245.780,237.400,-312.060
369,47386.741000,230.449,-22.086,118.784,350.540,-158.410,352.985,-251.780,200.400,-323.060
370,47386.786000,227.501,-3.012,155.648,350.488,-162.094,351.911,-258.780,183.400,-419.060
371,47386.821000,210.795,17.067,159.744,355.364,-151.876,356.115,-218.780,16.400,-509.060
372,47386.837000,216.691,44.173,177.152,357.198,-155.613,351.065,-361.780,-78.600,-622.060
373,47386.877000,220.622,51.200,178.176,365.846,-145.501,347.314,-394.780,-182.600,-540.060
374,47386.916000,217.674,61.239,171.008,373.426,-143.745,338.411,-409.780,-253.600,-450.060
375,47386.957000,210.795,68.267,156.672,381.878,-147.472,329.392,-509.780,-292.600,-387.060
376,47387.21000,203.916,70.275,144.384,391.225,-154.872,319.302,-644.780,-332.600,-383.060
377,47387.41000,205.881,65.255,129.024,401.611,-155.007,305.390,-766.780,-334.600,-394.060
378,47387.61000,214.726,58.227,110.592,407.263,-156.005,297.420,-830.780,-335.600,-392.060
379,47387.101000,205.881,52.204,104.448,414.672,-166.255,283.288,-810.780,-310.600,-397.060
380,47387.141000,205.881,35.137,98.304,419.412,-164.556,273.385,-767.780,-232.600,-418.060
381,47387.181000,211.777,58.227,89.088,428.780,-170.162,261.344,-815.780,-232.600,-426.060
382,47387.221000,218.656,45.176,94.208,435.424,-167.540,250.468,-853.780,-134.600,-369.060
383,47387.261000,223.570,31.122,95.232,438.276,-165.807,243.547,-747.780,-90.600,-407.060
384,47387.296000,227.501,58.227,92.160,444.768,-174.959,239.383,-708.780,-59.600,-440.060
385,47387.316000,213.743,52.204,98.304,445.812,-166.877,230.605,-716.780,-68.600,-427.060
386,47387.359000,217.674,54.212,97.280,450.538,-166.113,219.687,-722.780,-41.600,-456.060
387,47387.402000,213.743,67.263,102.400,450.516,-167.146,213.697,-765.780,-57.600,-426.060
388,47387.455000,210.795,62.243,101.376,454.282,-168.090,209.704,-861.780,-92.600,-384.060
389,47387.476000,207.846,67.263,94.208,455.208,-168.312,197.765,-865.780,-126.600,-366.060
390,47387.516000,229.466,50.196,105.472,460.802,-173.072,184.742,-990.780,-149.600,-352.060
391,47387.542000,261.896,11.043,137.216,468.395,-170.399,175.858,-1116.780,-117.600,-334.060
392,47387.576000,256.000,-11.043,149.504,464.444,-181.618,166.662,-932.780,-49.600,-163.060
393,47387.616000,229.466,-28.110,184.320,470.071,-184.448,158.653,-540.780,60.400,-35.060
394,47387.658000,202.933,-30.118,181.248,468.229,-180.808,158.728,-245.780,22.400,12.940
395,47387.698000,178.365,-28.110,183.296,469.031,-190.951,154.534,-79.780,-35.600,33.940
396,47387.742000,184.261,-18.071,182.272,468.174,-184.531,155.664,51.220,-87.600,-65.060
397,47387.764000,178.365,-12.047,172.032,471.992,-181.791,152.745,120.220,-142.600,-74.060
398,47387.796000,180.330,-5.020,163.840,474.845,-180.818,153.764,136.220,-149.600,-104.060
399,47387.842000,193.106,0.000,144.384,474.916,-175.360,151.891,132.220,-179.600,-67.060
400,47387.876000,195.071,2.008,126.976,473.008,-176.341,149.878,104.220,-151.600,-10.060
401,47387.916000,213.743,4.016,121.856,478.570,-184.550,147.722,198.220,-35.600,81.940
402,47387.962000,216.691,16.063,112.640,475.783,-180.903,148.790,310.220,43.400,114.940
403,47387.996000,244.207,31.122,105.472,472.081,-175.359,153.876,337.220,108.400,134.940
404,47388.16000,255.017,61.239,108.544,473.938,-178.823,162.757,416.220,141.400,70.940
405,47388.62000,258.948,77.302,107.520,472.204,-167.757,167.963,429.220,155.400,21.940
406,47388.101000,241.259,64.251,101.376,469.289,-174.070,174.787,417.220,111.400,122.940
407,47388.147000,226.518,55.216,77.824,468.367,-173.030,181.770,471.220,8.400,263.940
408,47388.183000,217.674,55.216,72.704,464.607,-171.248,181.802,464.220,-2.600,333.940
409,47388.219000,219.639,44.173,68.608,462.579,-182.091,190.520,451.220,23.400,370.940
410,47388.243000,229.466,51.200,67.584,457.817,-184.824,194.434,491.220,84.400,336.940
411,47388.278000,233.397,55.216,69.632,453.099,-184.730,202.386,495.220,146.400,305.940
412,47388.320000,240.276,63.247,77.824,446.466,-186.455,212.286,466.220,199.400,319.940
413,47388.360000,235.363,62.243,77.824,441.698,-190.026,220.160,443.220,210.400,376.940
414,47388.400000,231.432,60.235,80.896,432.132,-198.279,225.938,417.220,192.400,454.940
415,47388.437000,230.449,55.216,83.968,426.366,-205.546,232.737,349.220,145.400,537.940
416,47388.460000,237.328,53.208,97.280,422.539,-209.163,237.628,325.220,121.400,538.940
417,47388.499000,249.121,42.165,116.736,408.147,-224.749,246.226,141.220,142.400,511.940
418,47388.544000,253.052,21.082,148.480,401.449,-231.094,254.039,137.220,111.400,507.940
419,47388.582000,219.639,10.039,160.768,397.640,-232.956,254.988,243.220,81.400,409.940
420,47388.623000,194.088,-13.051,139.264,395.537,-248.536,255.648,222.220,-47.600,386.940
421,47388.657000,221.605,-39.153,161.792,388.958,-245.778,260.670,192.220,-26.600,345.940
422,47388.697000,226.518,-26.102,151.552,381.268,-254.980,263.447,400.220,-51.600,302.940
423,47388.717000,220.622,-21.082,148.480,380.458,-245.695,270.606,555.220,-0.600,240.940
424,47388.758000,206.864,2.008,143.360,375.635,-252.989,275.416,514.220,-47.600,147.940
425,47388.797000,199.985,-13.051,122.880,377.675,-242.769,281.605,491.220,-106.600,140.940
426,47388.844000,200.967,-4.016,109.568,375.772,-243.691,282.577,514.220,-166.600,145.940
427,47388.877000,207.846,-16.063,103.424,374.896,-239.025,287.648,524.220,-138.600,179.940
428,47388.917000,221.605,-14.055,98.304,376.800,-238.864,294.617,511.220,-114.600,214.940
429,47388.937000,219.639,-18.071,103.424,376.896,-232.353,299.729,636.220,-8.600,210.940
430,47388.977000,224.553,-17.067,101.376,374.183,-223.989,307.860,752.220,18.400,235.940
431,47389.20000,232.415,-15.059,94.208,371.425,-219.231,318.898,844.220,70.400,202.940
432,47389.61000,231.432,-9.035,84.992,367.833,-206.241,330.110,960.220,76.400,228.940
433,47389.107000,230.449,-5.020,79.872,362.277,-198.733,343.192,996.220,88.400,240.940
434,47389.137000,238.311,2.008,84.992,355.818,-187.651,352.370,926.220,125.400,235.940
435,47389.162000,269.758,29.114,119.808,349.314,-180.176,364.455,905.220,229.400,236.940
436,47389.202000,262.879,51.200,138.240,349.571,-162.535,376.767,816.220,185.400,143.940
437,47389.241000,240.276,79.310,145.408,340.280,-151.413,389.920,616.220,292.400,8.940
438,47389.282000,218.656,81.318,148.480,333.697,-149.473,399.898,464.220,282.400,-7.060
439,47389.322000,186.226,76.298,159.744,331.869,-144.898,400.987,298.220,196.400,-9.060
440,47389.361000,176.399,79.310,164.864,326.265,-140.255,408.040,116.220,154.400,26.940
441,47389.400000,174.434,69.271,171.008,323.383,-143.879,411.937,57.220,118.400,68.940
442,47389.421000,171.486,65.255,168.960,322.504,-139.253,415.018,61.220,10.400,41.940
443,47389.461000,174.434,72.282,165.888,322.562,-134.730,412.131,62.220,-50.600,44.940
444,47389.501000,175.417,74.290,159.744,322.547,-135.666,411.116,88.220,-169.600,11.940
445,47389.544000,184.261,79.310,147.456,329.245,-130.101,410.250,57.220,-224.600,-20.060
446,47389.587000,183.278,79.310,141.312,332.972,-133.813,405.203,-49.780,-266.600,-16.060
447,47389.623000,187.209,68.267,128.000,338.629,-134.752,400.218,-150.780,-233.600,-27.060
448,47389.641000,194.088,61.239,123.904,345.143,-142.111,394.104,-238.780,-196.600,-41.060
449,47389.682000,224.553,53.208,114.688,346.968,-146.725,391.024,-295.780,-183.600,-51.060
450,47389.721000,234.380,50.196,101.376,352.572,-151.367,383.971,-357.780,-123.600,-104.060
451,47389.764000,242.242,30.118,94.208,354.381,-156.937,378.882,-414.780,-66.600,-141.060
452,47389.802000,259.931,2.008,93.184,357.160,-160.681,372.839,-482.780,-45.600,-43.060
453,47389.843000,259.931,-14.055,84.992,358.908,-170.811,368.647,-545.780,-70.600,-14.060
454,47389.863000,255.017,-16.063,86.016,356.934,-176.411,364.547,-525.780,-34.600,-79.060
455,47389.905000,238.311,-17.067,74.752,361.692,-173.737,357.648,-400.780,-85.600,-222.060
456,47389.939000,229.466,-8.031,65.536,367.236,-182.921,352.488,-311.780,-84.600,-309.060
457,47389.981000,228.484,-1.004,66.560,367.347,-174.695,351.668,-277.780,-67.600,-370.060
458,47390.23000,234.380,3.012,74.752,373.991,-172.834,348.734,-319.780,-7.600,-400.060
459,47390.64000,244.207,6.024,70.656,380.621,-171.908,344.785,-404.780,-18.600,-431.060
460,47390.82000,240.276,0.000,72.704,378.672,-175.676,340.723,-512.780,-24.600,-490.060
461,47390.122000,240.276,0.000,69.632,390.127,-167.437,332.958,-534.780,-66.600,-595.060
462,47390.167000,254.035,4.016,76.800,394.727,-176.614,328.791,-479.780,-61.600,-618.060
463,47390.203000,241.259,29.114,94.208,397.734,-163.828,325.089,-395.780,-15.600,-637.060
464,47390.240000,251.086,51.200,139.264,401.658,-153.681,326.306,-317.780,113.400,-572.060
465,47390.281000,241.259,71.278,151.552,402.590,-154.604,325.293,-244.780,157.400,-419.060
466,47390.322000,193.106,85.333,148.480,403.697,-143.481,331.499,-131.780,84.400,-326.060
467,47390.347000,195.071,96.376,152.576,403.622,-148.978,331.382,-169.780,116.400,-305.060
468,47390.382000,210.795,105.412,160.768,405.597,-142.599,328.537,-338.780,-5.600,-247.060
469,47390.423000,207.846,92.361,151.552,404.588,-147.192,328.437,-430.780,-33.600,-171.060
470,47390.463000,206.864,77.302,145.408,405.460,-151.897,321.376,-419.780,-51.600,-153.060
471,47390.508000,191.140,82.322,131.072,409.189,-155.589,317.324,-436.780,-116.600,-144.060
472,47390.543000,189.175,76.298,113.664,411.982,-158.398,312.296,-456.780,-137.600,-100.060
473,47390.563000,189.175,67.263,105.472,410.872,-169.560,304.099,-515.780,-158.600,-76.060
474,47390.598000,189.175,62.243,98.304,418.333,-176.906,297.986,-484.780,-97.600,-55.060
475,47390.644000,191.140,60.235,102.400,415.424,-181.602,293.903,-444.780,-65.600,-64.060
476,47390.684000,200.967,64.251,111.616,415.344,-187.158,290.801,-471.780,-55.600,-85.060
477,47390.722000,199.985,67.263,117.760,415.350,-186.320,286.840,-517.780,-17.600,-104.060
478,47390.764000,209.812,77.302,118.784,414.214,-199.334,277.610,-578.780,-29.600,-112.060
479,47390.784000,206.864,77.302,117.760,412.288,-201.288,272.592,-689.780,-89.600,-135.060
480,47390.823000,201.950,71.278,119.808,414.055,-209.665,264.460,-729.780,-125.600,-161.060
481,47390.868000,202.933,53.208,110.592,419.677,-212.553,253.465,-805.780,-209.600,-118.060
482,47390.900000,247.155,-1.004,141.312,418.577,-222.058,236.353,-957.780,-149.600,-34.060
483,47390.942000,239.294,-26.102,173.056,418.386,-235.079,226.129,-739.780,-47.600,29.940
484,47390.982000,226.518,-37.145,195.584,413.483,-247.149,220.892,-483.780,113.400,67.940
485,47391.22000,216.691,-28.110,197.632,413.383,-254.478,220.735,-247.780,99.400,55.940
486,47391.45000,189.175,-17.067,186.368,413.519,-244.420,219.955,-144.780,13.400,32.940
487,47391.85000,172.468,-17.067,174.080,411.500,-253.626,218.762,-91.780,-75.600,5.940
488,47391.131000,173.451,-9.035,160.768,407.670,-256.503,214.716,-13.780,-141.600,-5.060
489,47391.160000,176.399,-12.047,156.672,413.368,-254.654,211.780,-32.780,-149.600,21.940
490,47391.200000,189.175,-13.051,153.600,417.147,-254.682,207.806,-39.780,-165.600,61.940
491,47391.240000,200.967,-21.082,145.408,412.485,-249.306,204.930,-43.780,-156.600,91.940
492,47391.260000,206.864,-19.075,142.336,413.394,-252.042,204.873,27.220,-137.600,103.940
493,47391.300000,225.536,-13.051,135.168,410.527,-253.951,202.839,163.220,-60.600,113.940
494,47391.343000,234.380,1.004,128.000,415.277,-252.894,206.847,252.220,-19.600,62.940
495,47391.384000,233.397,20.078,112.640,415.190,-259.307,206.710,311.220,15.400,29.940
496,47391.423000,238.311,33.129,100.352,413.406,-251.906,211.839,330.220,1.400,24.940
497,47391.465000,236.345,37.145,95.232,417.282,-245.404,213.972,333.220,-19.600,38.940
498,47391.480000,236.345,43.169,93.184,413.428,-250.872,217.828,361.220,-17.600,97.940
499,47391.521000,229.466,41.161,87.040,413.538,-243.426,223.955,383.220,-23.600,163.940
500,47391.560000,219.639,42.165,86.016,412.580,-245.115,231.875,403.220,-18.600,200.940
501,47391.602000,223.570,44.173,83.968,409.707,-247.862,233.801,355.220,-0.600,250.940
502,47391.648000,229.466,48.188,83.968,405.963,-245.124,235.843,333.220,3.400,247.940
503,47391.684000,232.415,48.188,88.064,400.298,-245.043,243.794,316.220,26.400,257.940
504,47391.722000,238.311,53.208,94.208,393.640,-247.840,245.713,282.220,46.400,266.940
505,47391.742000,239.294,52.204,99.328,389.816,-251.418,252.594,267.220,27.400,314.940
506,47391.782000,256.000,45.176,100.352,386.954,-253.268,253.545,198.220,66.400,358.940
507,47391.823000,245.190,25.098,118.784,379.203,-267.032,257.219,148.220,70.400,350.940
508,47391.862000,214.726,0.000,122.880,372.590,-266.983,264.173,136.220,56.400,314.940
509,47391.900000,192.123,-17.067,113.664,364.011,-271.676,264.060,160.220,45.400,269.940
510,47391.941000,218.656,-32.125,126.976,357.412,-270.691,272.029,135.220,179.400,239.940
511,47391.962000,236.345,-28.110,146.432,357.419,-270.613,276.009,252.220,161.400,229.940
512,47392.2000,230.449,-17.067,147.456,348.830,-276.963,284.813,400.220,217.400,147.940
513,47392.43000,209.812,-7.027,148.480,345.158,-269.528,292.923,423.220,186.400,113.940
514,47392.83000,201.950,-11.043,133.120,337.652,-265.788,301.943,429.220,98.400,125.940
515,47392.126000,196.054,-10.039,120.832,333.866,-266.617,308.882,378.220,4.400,115.940
516,47392.165000,197.036,-9.035,119.808,331.122,-260.164,312.994,417.220,0.400,156.940
517,47392.186000,201.950,-19.075,122.880,329.302,-255.491,319.059,478.220,64.400,194.940
518,47392.228000,209.812,-22.086,134.144,322.746,-251.699,330.071,570.220,120.400,216.940
519,47392.264000,205.881,-31.122,145.408,315.181,-252.501,340.983,715.220,171.400,243.940
520,47392.303000,211.777,-28.110,134.144,311.527,-244.091,352.098,987.220,116.400,274.940
521,47392.343000,206.864,-17.067,123.904,304.226,-225.634,364.416,1001.220,34.400,287.940
522,47392.385000,234.380,1.004,118.784,302.618,-206.167,377.758,1088.220,9.400,307.940
523,47392.406000,238.311,13.051,122.880,298.963,-197.757,388.872,1156.220,-13.600,338.940
524,47392.446000,251.086,48.188,122.880,294.564,-174.682,401.293,1163.220,36.400,320.940
525,47392.486000,230.449,76.298,118.784,290.926,-165.317,414.417,897.220,129.400,148.940
526,47392.526000,213.743,86.337,132.096,286.415,-149.707,419.716,732.220,220.400,46.940
527,47392.566000,182.296,90.353,148.480,278.051,-139.567,428.871,617.220,268.400,10.940
528,47392.601000,175.417,85.333,162.816,273.479,-128.519,435.067,438.220,322.400,-16.060
529,47392.645000,175.417,87.341,158.720,266.918,-124.786,443.094,406.220,221.400,-2.060
530,47392.663000,175.417,81.318,155.648,266.168,-110.958,448.360,395.220,152.400,44.940
531,47392.710000,178.365,84.329,151.552,261.465,-109.150,450.381,372.220,-9.600,63.940
532,47392.745000,185.244,87.341,146.432,260.609,-102.710,452.506,379.220,-58.600,85.940
533,47392.785000,185.244,88.345,141.312,267.360,-93.442,453.708,354.220,-101.600,81.940
534,47392.831000,186.226,86.337,140.288,268.308,-93.410,454.705,304.220,-98.600,65.940
535,47392.866000,184.261,91.357,135.168,270.371,-80.617,451.996,269.220,-102.600,37.940
536,47392.881000,185.244,101.396,138.240,269.376,-84.275,452.911,196.220,-128.600,-3.060
537,47392.922000,199.002,106.416,138.240,273.277,-75.941,455.084,59.220,-105.600,-2.060
538,47392.964000,207.846,102.400,131.072,277.986,-76.911,449.102,-32.780,-124.600,13.940
539,47393.5000,225.536,92.361,122.880,285.488,-81.470,445.038,-241.780,-135.600,21.940
540,47393.45000,210.795,73.286,111.616,289.085,-95.162,444.752,-345.780,-137.600,-8.060
541,47393.85000,204.898,66.259,103.424,288.049,-100.847,435.677,-490.780,-148.600,-50.060
542,47393.105000,254.035,32.125,100.352,291.756,-106.333,433.577,-632.780,-65.600,38.940
543,47393.146000,243.225,3.012,109.568,293.374,-125.683,426.205,-604.780,-129.600,102.940
544,47393.181000,243.225,-1.004,114.688,297.055,-133.021,423.070,-560.780,-67.600,96.940
545,47393.225000,226.518,-5.020,99.328,300.644,-146.811,417.809,-484.780,-131.600,31.940
546,47393.265000,230.449,-4.016,87.040,300.475,-158.798,413.575,-390.780,-184.600,-32.060
547,47393.311000,230.449,-5.020,81.920,305.252,-154.350,403.730,-282.780,-214.600,-62.060
548,47393.344000,233.397,-3.012,86.016,308.982,-158.023,400.674,-215.780,-190.600,-87.060
549,47393.366000,237.328,3.012,95.232,309.910,-159.005,396.676,-181.780,-110.600,-103.060
550,47393.407000,219.639,27.106,114.688,314.638,-158.982,394.694,-115.780,-36.600,-135.060
551,47393.445000,209.812,48.188,135.168,313.671,-160.768,397.639,-130.780,31.400,-223.060
552,47393.485000,201.950,76.298,161.792,314.605,-161.671,397.621,-159.780,79.400,-332.060
553,47393.526000,193.106,94.369,177.152,316.557,-157.105,395.732,-244.780,53.400,-322.060
554,47393.569000,196.054,104.408,178.176,320.286,-160.797,391.680,-298.780,5.400,-303.060
555,47393.582000,204.898,103.404,179.200,323.107,-161.735,388.680,-440.780,-97.600,-238.060
556,47393.622000,193.106,97.380,162.816,327.688,-171.906,380.513,-572.780,-147.600,-188.060
557,47393.666000,182.296,84.329,137.216,333.318,-174.696,374.495,-681.780,-171.600,-171.060
558,47393.708000,174.434,84.329,112.640,336.960,-184.022,363.360,-912.780,-123.600,-227.060
559,47393.745000,198.019,71.278,98.304,341.473,-198.832,352.111,-1148.780,-48.600,-282.060
560,47393.782000,203.916,59.231,99.328,345.925,-217.444,333.818,-1425.780,-4.600,-288.060
561,47393.806000,208.829,9.035,102.400,349.467,-233.319,315.582,-1477.780,130.400,-288.060
562,47393.845000,290.395,-24.094,126.976,351.236,-241.676,308.444,-1284.780,214.400,-304.060
563,47393.888000,262.879,-34.133,151.552,346.277,-257.489,299.148,-891.780,130.400,-147.060
564,47393.922000,227.501,-34.133,160.768,354.762,-259.287,295.144,-675.780,130.400,-178.060
565,47393.962000,198.019,-16.063,141.312,355.546,-270.404,287.946,-449.780,37.400,-140.060
566,47394.2000,186.226,-12.047,135.168,360.286,-268.705,278.043,-430.780,-133.600,-212.060
567,47394.42000,192.123,-15.059,134.144,361.284,-264.248,271.177,-348.780,-202.600,-230.060
568,47394.62000,203.916,-8.031,123.904,373.549,-266.054,264.194,-279.780,-211.600,-196.060
569,47394.102000,207.846,-3.012,129.024,377.360,-263.393,257.294,-251.780,-188.600,-157.060
570,47394.142000,214.726,-15.059,128.000,382.092,-262.551,250.356,-170.780,-174.600,-123.060
571,47394.187000,215.708,-10.039,124.928,387.687,-268.070,245.274,-80.780,-172.600,-56.060
572,47394.227000,209.812,-6.024,123.904,383.913,-267.223,244.292,-74.780,-182.600,-83.060
573,47394.275000,206.864,-17.067,124.928,395.322,-262.590,239.434,-92.780,-171.600,-97.060
574,47394.291000,206.864,-11.043,120.832,395.277,-265.436,234.400,-71.780,-162.600,-128.060
575,47394.325000,213.743,-13.051,113.664,403.913,-256.221,231.625,-62.780,-132.600,-144.060
576,47394.368000,240.276,-6.024,114.688,408.627,-257.133,228.629,-116.780,-17.600,-198.060
577,47394.411000,228.484,23.090,100.352,409.635,-252.559,227.733,11.220,25.400,-282.060
578,47394.450000,233.397,53.208,120.832,414.471,-245.109,230.883,-25.780,126.400,-365.060
579,47394.486000,267.793,65.255,119.808,415.567,-234.103,231.119,-212.780,114.400,-399.060
580,47394.506000,266.810,86.337,109.568,425.141,-225.753,230.316,-164.780,5.400,-333.060
581,47394.545000,246.173,68.267,102.400,431.818,-221.201,224.455,-154.780,-50.600,-250.060
582,47394.597000,222.587,49.192,76.800,433.684,-223.028,223.424,-125.780,-138.600,-61.060
583,47394.627000,221.605,44.173,69.632,431.699,-229.525,220.299,-25.780,-109.600,65.940
584,47394.667000,219.639,43.169,76.800,435.543,-224.933,218.413,21.220,-53.600,101.940
585,47394.703000,224.553,46.180,78.848,430.770,-228.563,223.302,-2.780,30.400,50.940
586,47394.725000,230.449,53.208,82.944,430.753,-229.537,220.297,-78.780,41.400,-0.060
587,47394.768000,227.501,55.216,84.992,431.740,-226.737,222.348,-123.780,36.400,-16.060
588,47394.809000,227.501,48.188,105.472,430.688,-234.137,219.205,-186.780,72.400,5.940
589,47394.849000,215.708,18.071,119.808,426.955,-230.503,220.271,-219.780,30.400,67.940
590,47394.883000,197.036,-14.055,144.384,424.025,-236.993,218.139,-76.780,68.400,124.940
591,47394.923000,191.140,-32.125,168.960,418.261,-243.461,218.988,63.220,139.400,179.940
592,47394.963000,187.209,-45.176,202.752,420.076,-249.732,224.825,287.220,153.400,198.940
593,47394.991000,191.140,-31.122,192.512,418.347,-238.607,233.016,546.220,57.400,156.940
594,47395.35000,218.656,-29.114,181.248,413.632,-238.475,242.958,677.220,61.400,144.940
595,47395.71000,236.345,-12.047,161.792,413.824,-225.454,253.182,799.220,79.400,132.940
596,47395.103000,229.466,7.027,141.312,411.037,-223.347,269.137,944.220,168.400,152.940
597,47395.143000,221.605,24.094,134.144,409.342,-210.273,283.338,981.220,227.400,139.940
598,47395.183000,206.864,55.216,111.616,403.845,-198.223,294.527,920.220,198.400,143.940
599,47395.206000,191.140,82.322,113.664,402.024,-194.330,307.538,807.220,193.400,107.940
600,47395.250000,208.829,99.388,135.168,395.556,-184.125,318.686,611.220,192.400,103.940
601,47395.286000,205.881,86.337,142.336,400.382,-177.572,322.811,477.220,91.400,218.940
602,47395.328000,206.864,74.290,141.312,391.872,-177.606,326.777,464.220,41.400,297.940
603,47395.368000,211.777,69.271,135.168,389.986,-177.553,330.753,502.220,-17.600,368.940
604,47395.408000,204.898,56.220,128.000,390.940,-177.443,335.730,480.220,-99.600,451.940
605,47395.428000,202.933,45.176,121.856,384.254,-182.111,335.621,589.220,-135.600,483.940
606,47395.474000,204.898,47.184,111.616,382.396,-180.187,341.627,548.220,-121.600,420.940
607,47395.508000,211.777,51.200,113.664,384.292,-180.123,343.621,655.220,-95.600,386.940
608,47395.543000,199.002,59.231,125.952,382.440,-177.360,345.666,641.220,-56.600,380.940
609,47395.586000,210.795,63.247,125.952,376.910,-167.241,351.841,528.220,-34.600,321.940
610,47395.625000,204.898,65.255,125.952,377.863,-167.150,355.823,541.220,-33.600,333.940
611,47395.666000,204.898,71.278,128.000,375.117,-160.716,358.940,483.220,-14.600,308.940
612,47395.686000,206.864,65.255,124.928,369.379,-165.333,360.822,290.220,-0.600,291.940
613,47395.723000,189.175,58.227,113.664,371.261,-166.205,361.801,162.220,15.400,253.940
614,47395.763000,200.967,37.145,110.592,366.442,-172.680,361.656,-57.780,88.400,163.940
615,47395.808000,228.484,29.114,112.640,363.628,-170.885,361.690,-147.780,112.400,116.940
616,47395.851000,226.518,21.082,107.520,360.636,-181.955,359.461,-192.780,58.400,84.940
617,47395.886000,230.449,-1.004,107.520,360.611,-183.788,359.422,-258.780,85.400,77.940
618,47395.906000,289.413,-29.114,105.472,354.819,-192.127,358.241,-257.780,82.400,96.940
619,47395.947000,303.171,-13.051,117.760,356.672,-194.870,357.191,-176.780,90.400,116.940
620,47395.988000,256.983,-18.071,105.472,355.623,-202.251,355.043,-61.780,0.400,135.940
621,47396.35000,213.743,-12.047,73.728,353.789,-197.734,353.147,-97.780,-107.600,64.940
622,47396.66000,209.812,-14.055,65.536,355.624,-201.471,348.097,-203.780,-110.600,-24.060
623,47396.106000,219.639,-24.094,67.584,355.615,-201.569,343.122,-129.780,-148.600,-25.060
624,47396.126000,233.397,-24.094,78.848,362.250,-200.585,342.158,-80.780,-79.600,3.940
625,47396.167000,242.242,-25.098,80.896,360.295,-205.191,342.057,38.220,-14.600,24.940
626,47396.208000,243.225,-24.094,82.944,363.186,-201.469,343.135,149.220,-49.600,-43.060
627,47396.252000,251.086,-10.039,86.016,363.162,-203.282,344.091,123.220,-81.600,-126.060
628,47396.287000,245.190,-3.012,92.160,367.939,-199.613,341.192,55.220,-159.600,-252.060
629,47396.327000,229.466,22.086,109.568,371.898,-186.757,340.477,51.220,-177.600,-324.060
630,47396.368000,221.605,53.208,118.784,381.340,-187.646,335.499,7.220,-202.600,-394.060
631,47396.386000,209.812,70.275,140.288,385.297,-174.809,333.789,-93.780,-132.600,-331.060
632,47396.435000,197.036,90.353,167.936,388.128,-175.629,336.760,-119.780,-13.600,-298.060
633,47396.470000,188.192,102.400,181.248,392.875,-173.851,330.837,-324.780,84.400,-224.060
634,47396.511000,189.175,97.380,171.008,387.253,-169.424,326.944,-495.780,7.400,-174.060
635,47396.552000,179.347,96.376,165.888,395.649,-177.654,321.808,-610.780,-114.600,-237.060
636,47396.588000,175.417,100.392,140.288,400.239,-186.168,304.725,-839.780,-287.600,-360.060
637,47396.608000,185.244,89.349,104.448,409.643,-189.045,291.747,-1064.780,-289.600,-423.060
638,47396.648000,214.726,77.302,92.160,413.344,-193.830,278.720,-1301.780,-202.600,-490.060
639,47396.685000,247.155,49.192,93.184,416.873,-210.641,259.470,-1622.780,-90.600,-464.060
640,47396.732000,256.000,21.082,90.112,430.024,-215.456,238.499,-1754.780,-92.600,-436.060
641,47396.767000,260.914,4.016,97.280,427.983,-224.916,224.370,-1328.780,37.400,-370.060
642,47396.815000,285.482,-22.086,116.736,431.746,-225.120,211.441,-1217.780,147.400,-338.060
643,47396.830000,255.017,-27.106,133.120,431.626,-232.683,199.344,-908.780,104.400,-238.060
644,47396.876000,216.691,-20.078,128.000,433.453,-237.278,197.260,-576.780,52.400,-193.060
645,47396.905000,196.054,-16.063,116.736,439.237,-229.036,193.465,-365.780,-3.600,-168.060
646,47396.958000,197.036,2.008,112.640,442.117,-225.431,188.573,-269.780,-92.600,-177.060
647,47396.991000,199.985,0.000,107.520,440.182,-227.503,177.585,-257.780,-256.600,-178.060
648,47397.25000,205.881,7.027,114.688,445.848,-227.565,170.630,-230.780,-314.600,-185.060
649,47397.68000,215.708,5.020,109.568,448.712,-224.915,163.728,-214.780,-299.600,-177.060
650,47397.88000,232.415,8.031,105.472,453.468,-222.261,155.834,-145.780,-273.600,-135.060
651,47397.128000,227.501,5.020,105.472,460.201,-213.207,146.091,-236.780,-246.600,-124.060
652,47397.170000,223.570,-1.004,97.280,458.223,-218.846,140.000,-248.780,-222.600,-115.060
653,47397.208000,227.501,-1.004,98.304,463.874,-219.863,131.035,-228.780,-177.600,-87.060
654,47397.263000,225.536,1.004,95.232,464.935,-210.806,125.261,-283.780,-131.600,-128.060
655,47397.288000,229.466,-9.035,91.136,468.654,-215.376,123.180,-265.780,3.400,-158.060
656,47397.312000,234.380,-2.008,95.232,467.892,-201.685,121.481,-215.780,134.400,-235.060
657,47397.347000,224.553,23.090,93.184,472.743,-193.299,125.645,-71.780,189.400,-355.060
658,47397.387000,214.726,48.188,97.280,468.032,-192.348,130.632,-126.780,224.400,-387.060
659,47397.430000,230.449,52.204,97.280,471.010,-182.214,131.847,-152.780,251.400,-334.060
660,47397.470000,290.395,80.314,112.640,473.968,-173.853,136.008,-73.780,247.400,-272.060
661,47397.510000,263.862,86.337,116.736,477.762,-173.705,140.989,-65.780,141.400,-192.060
662,47397.526000,229.466,60.235,82.944,476.951,-163.660,140.207,-82.780,23.400,-117.060
663,47397.566000,202.933,49.192,75.776,478.705,-173.732,139.001,1.220,-67.600,43.940
664,47397.611000,203.916,50.196,79.872,480.672,-168.210,139.121,10.220,-99.600,83.940
665,47397.650000,217.674,51.200,83.968,482.476,-174.617,137.993,-11.780,-93.600,48.940
666,47397.688000,227.501,60.235,84.992,481.546,-172.895,133.055,10.220,-79.600,-6.060
667,47397.736000,240.276,68.267,83.968,479.713,-168.379,131.159,-12.780,-109.600,-54.060
668,47397.771000,229.466,68.267,80.896,483.546,-164.684,130.249,-44.780,-150.600,-16.060
669,47397.790000,218.656,65.255,88.064,485.397,-167.466,127.209,-110.780,-179.600,61.940
670,47397.831000,227.501,49.192,102.400,480.514,-177.762,119.025,-168.780,-175.600,121.940
671,47397.871000,234.380,6.024,104.448,483.377,-175.132,111.128,-158.780,-186.600,194.940
672,47397.906000,224.553,-10.039,115.712,479.406,-188.904,111.824,-44.780,-88.600,263.940
673,47397.946000,224.553,-31.122,141.312,476.471,-196.232,113.653,96.220,7.400,323.940
674,47397.988000,223.570,-45.176,162.816,473.612,-198.043,116.594,308.220,70.400,275.940
675,47398.8000,231.432,-36.141,154.624,471.737,-197.093,119.595,524.220,37.400,209.940
676,47398.50000,209.812,-29.114,147.456,470.796,-197.807,130.520,736.220,-7.600,128.940
677,47398.90000,203.916,-22.086,117.760,471.765,-196.762,136.511,882.220,-51.600,98.940
678,47398.130000,206.864,-17.067,106.496,472.760,-193.864,143.537,955.220,40.400,75.940
679,47398.171000,215.708,8.031,97.280,463.464,-182.800,153.705,1013.220,189.400,100.940
680,47398.211000,229.466,27.106,92.160,463.555,-177.888,170.719,1002.220,360.400,131.940
681,47398.231000,248.138,55.216,79.872,457.076,-169.340,190.784,958.220,421.400,167.940
682,47398.270000,246.173,76.298,109.568,455.264,-165.349,208.769,825.220,479.400,126.940
683,47398.310000,245.190,92.361,128.000,448.695,-163.253,226.708,785.220,446.400,135.940
684,47398.350000,235.363,92.361,139.264,448.727,-162.103,238.668,690.220,364.400,168.940
685,47398.390000,213.743,92.361,137.216,441.332,-150.137,246.869,692.220,191.400,255.940
686,47398.430000,202.933,76.298,119.808,439.400,-153.709,252.758,617.220,41.400,360.940
687,47398.450000,203.916,61.239,108.544,435.646,-151.849,256.770,606.220,-89.600,458.940
688,47398.488000,202.933,53.208,103.424,432.659,-162.861,257.526,635.220,-157.600,518.940
689,47398.530000,209.812,45.176,101.376,431.793,-157.318,260.627,681.220,-136.600,541.940
690,47398.573000,216.691,47.184,100.352,428.923,-160.026,264.543,718.220,-104.600,541.940
691,47398.608000,219.639,51.200,104.448,425.119,-161.830,268.478,692.220,-75.600,497.940
692,47398.648000,217.674,54.212,100.352,417.557,-161.832,273.440,699.220,-63.600,495.940
693,47398.695000,212.760,46.180,95.232,416.594,-163.579,278.374,658.220,-16.600,475.940
694,47398.712000,209.812,56.220,97.280,408.968,-168.182,282.244,618.220,36.400,427.940
695,47398.747000,205.881,56.220,94.208,408.024,-168.935,291.178,536.220,94.400,389.940
696,47398.787000,246.173,50.196,95.232,402.365,-168.016,295.168,415.220,215.400,312.940
697,47398.827000,256.000,47.184,102.400,395.714,-170.735,301.068,313.220,297.400,304.940
698,47398.867000,231.432,30.118,107.520,388.182,-168.846,309.054,62.220,310.400,326.940
699,47398.913000,236.345,8.031,104.448,378.569,-180.725,316.744,-71.780,380.400,328.940
700,47398.933000,243.225,-15.059,114.688,370.938,-185.386,317.628,-239.780,355.400,346.940
701,47398.977000,244.207,-28.110,128.000,360.448,-191.858,321.454,-293.780,201.400,339.940
702,47399.11000,242.242,-30.118,117.760,362.253,-198.246,321.320,-163.780,61.400,259.940
703,47399.52000,234.380,-28.110,110.592,359.373,-201.071,319.267,-90.780,-106.600,95.940
704,47399.87000,223.570,-14.055,92.160,362.154,-204.796,314.218,-81.780,-176.600,-46.060
705,47399.128000,222.587,-15.059,86.016,361.272,-199.429,308.363,-113.780,-177.600,-73.060
706,47399.150000,225.536,-12.047,80.896,362.103,-207.700,306.199,-123.780,-153.600,-26.060
707,47399.191000,231.432,-18.071,82.944,364.973,-204.993,302.283,-128.780,-94.600,48.940
708,47399.231000,244.207,-20.078,77.824,362.966,-213.282,301.109,-71.780,-63.600,78.940
709,47399.268000,250.104,-17.067,77.824,367.760,-208.639,301.215,-28.780,-3.600,63.940
710,47399.313000,250.104,-16.063,81.920,364.957,-205.948,300.273,-10.780,26.400,9.940
711,47399.352000,243.225,-12.047,86.016,366.738,-214.148,301.096,-44.780,56.400,-79.060
712,47399.388000,238.311,-6.024,87.040,363.092,-204.101,302.299,-64.780,72.400,-161.060
713,47399.413000,238.311,-12.047,83.968,366.867,-204.948,303.281,-103.780,80.400,-176.060
714,47399.452000,234.380,-10.039,84.992,367.824,-204.039,302.307,-67.780,75.400,-170.060
715,47399.488000,230.449,-13.051,87.040,366.890,-203.135,302.325,-55.780,70.400,-144.060
716,47399.528000,225.536,-16.063,88.064,370.713,-200.337,302.390,-77.780,51.400,-135.060
717,47399.574000,225.536,-20.078,96.256,371.584,-205.821,302.275,-57.780,28.400,-124.060
718,47399.607000,222.587,-30.118,101.376,371.714,-196.601,305.455,9.220,-10.600,-155.060
719,47399.631000,217.674,-33.129,109.568,373.614,-195.719,302.493,-42.780,-66.600,-244.060
720,47399.670000,215.708,-14.055,105.472,383.069,-195.691,297.534,9.220,-207.600,-368.060
721,47399.713000,230.449,6.024,108.544,392.721,-181.805,298.839,-16.780,-269.600,-450.060
722,47399.757000,239.294,22.086,111.616,400.399,-172.758,288.102,-60.780,-294.600,-585.060
723,47399.791000,259.931,53.208,107.520,409.952,-165.421,282.304,-148.780,-276.600,-566.060
724,47399.832000,245.190,66.259,103.424,416.657,-158.999,278.472,-223.780,-239.600,-494.060
725,47399.852000,225.536,72.282,97.280,424.253,-156.287,271.579,-374.780,-140.600,-446.060
726,47399.892000,249.121,85.333,118.784,427.112,-154.476,268.637,-498.780,-27.600,-415.060
727,47399.932000,240.276,77.302,121.856,432.819,-151.750,263.731,-610.780,-39.600,-301.060
728,47399.972000,235.363,68.267,114.688,433.659,-159.145,259.596,-669.780,-19.600,-323.060
729,47400.11000,218.656,61.239,98.304,439.368,-155.620,248.738,-668.780,-99.600,-327.060
730,47400.52000,203.916,58.227,86.016,442.070,-164.880,241.583,-675.780,-134.600,-327.060
731,47400.92000,205.881,52.204,77.824,445.806,-167.715,234.566,-660.780,-128.600,-309.060
732,47400.112000,203.916,49.192,84.992,447.814,-158.646,228.794,-669.780,-59.600,-303.060
733,47400.152000,212.760,49.192,84.992,453.364,-166.992,219.673,-646.780,-31.600,-281.060
734,47400.192000,211.777,49.192,93.184,452.402,-167.959,217.661,-636.780,44.400,-296.060
735,47400.231000,222.587,76.298,95.232,452.436,-165.250,215.730,-610.780,40.400,-308.060
736,47400.268000,210.795,73.286,101.376,451.430,-169.044,209.680,-712.780,9.400,-265.060
737,47400.311000,212.760,69.271,89.088,455.152,-172.815,201.648,-821.780,-33.600,-235.060
738,47400.333000,222.587,60.235,87.040,458.835,-179.353,192.562,-926.780,-104.600,-186.060
739,47400.368000,240.276,49.192,104.448,457.811,-184.122,183.508,-994.780,-105.600,-174.060
740,47400.413000,245.190,27.106,115.712,463.444,-186.114,171.538,-996.780,-71.600,-148.060
741,47400.453000,246.173,1.004,133.120,462.439,-189.888,166.483,-800.780,35.400,-61.060
742,47400.491000,223.570,-23.090,152.576,460.362,-202.856,160.236,-671.780,86.400,10.940
743,47400.532000,204.898,-31.122,180.224,455.663,-200.229,157.301,-500.780,144.400,52.940
744,47400.552000,202.933,-24.094,184.320,459.369,-205.715,155.201,-269.780,100.400,62.940
745,47400.591000,185.244,-15.059,176.128,454.624,-206.713,154.178,-125.780,-6.600,32.940
746,47400.631000,188.192,-14.055,162.816,455.508,-211.281,154.082,-6.780,-107.600,37.940
747,47400.673000,189.175,-15.059,157.696,458.386,-208.476,155.140,24.220,-191.600,54.940
748,47400.713000,195.071,-14.055,147.456,457.323,-216.012,145.032,26.220,-228.600,80.940
749,47400.752000,203.916,-14.055,138.240,458.289,-214.226,142.088,-5.780,-244.600,101.940
750,47400.793000,202.933,-16.063,129.024,457.243,-220.788,134.984,7.220,-211.600,102.940
751,47400.813000,211.777,-18.071,113.664,457.234,-221.665,136.954,65.220,-148.600,103.940
752,47400.853000,229.466,-10.039,96.256,458.236,-217.150,133.074,209.220,-86.600,86.940
753,47400.892000,237.328,-1.004,92.160,461.095,-216.118,137.078,254.220,-36.600,75.940
754,47400.932000,253.052,26.102,96.256,458.276,-215.142,142.068,239.220,67.400,-58.060
755,47400.978000,272.706,58.227,93.184,459.262,-212.362,143.123,179.220,42.400,-91.060
756,47401.12000,259.931,42.165,83.968,458.428,-204.129,143.297,193.220,-3.600,-17.060
757,47401.33000,240.276,34.133,61.440,455.485,-212.314,148.092,286.220,-65.600,120.940
758,47401.73000,226.518,30.118,49.152,459.294,-210.451,147.143,366.220,-64.600,201.940
759,47401.113000,224.553,29.114,50.176,455.393,-219.546,152.911,421.220,-39.600,262.940
760,47401.153000,230.449,34.133,57.344,448.829,-215.852,158.948,470.220,31.400,256.940
761,47401.191000,237.328,44.173,59.392,449.682,-223.090,162.774,495.220,102.400,224.940
762,47401.233000,239.294,49.192,64.512,442.139,-222.098,171.735,479.220,115.400,258.940
763,47401.253000,230.449,46.180,69.632,436.494,-221.023,183.685,475.220,108.400,322.940
764,47401.293000,218.656,41.161,74.752,435.477,-226.474,186.552,471.220,68.400,382.940
765,47401.333000,214.726,42.165,84.992,425.979,-230.088,195.413,403.220,43.400,385.940
766,47401.372000,274.672,33.129,112.640,424.031,-234.615,199.292,291.220,89.400,399.940
767,47401.413000,254.035,2.008,133.120,416.392,-240.134,203.142,357.220,3.400,403.940
768,47401.455000,247.155,1.004,133.120,413.429,-250.093,210.882,474.220,-33.600,327.940
769,47401.493000,223.570,-20.078,113.664,406.860,-246.457,213.934,395.220,-41.600,329.940
770,47401.513000,247.155,-27.106,136.192,400.171,-251.924,219.776,358.220,24.400,309.940
771,47401.563000,248.138,-10.039,137.216,400.161,-253.581,228.692,602.220,15.400,276.940
772,47401.593000,234.380,-10.039,126.976,399.288,-248.876,235.753,709.220,79.400,234.940
773,47401.635000,216.691,3.012,113.664,394.516,-253.266,248.583,589.220,51.400,208.940
774,47401.675000,203.916,-7.027,103.424,390.780,-250.431,255.600,482.220,-4.600,206.940
775,47401.715000,208.829,-9.035,98.304,391.780,-246.715,257.670,422.220,-52.600,199.940
776,47401.735000,212.760,-17.067,94.208,384.244,-244.865,263.666,394.220,-13.600,172.940
777,47401.776000,215.708,-14.055,92.160,386.159,-243.807,269.660,432.220,-15.600,100.940
778,47401.812000,219.639,-13.051,91.136,384.334,-239.193,272.739,458.220,27.400,51.940
779,47401.853000,222.587,-13.051,83.968,386.240,-239.012,280.703,521.220,60.400,41.940
780,47401.893000,222.587,-10.039,93.184,381.593,-234.240,293.728,546.220,130.400,40.940
781,47401.933000,225.536,-10.039,91.136,378.970,-219.424,303.985,666.220,122.400,17.940
782,47401.953000,219.639,-4.016,105.472,378.013,-221.113,311.905,715.220,110.400,24.940
783,47402.0,254.035,3.012,108.544,371.553,-210.031,321.083,833.220,103.400,78.940
784,47402.30000,272.706,21.082,113.664,374.678,-190.482,335.429,791.220,126.400,60.940
785,47402.70000,248.138,61.239,134.144,368.147,-184.858,346.480,858.220,93.400,23.940
786,47402.110000,229.466,75.294,141.312,369.359,-166.347,355.827,759.220,134.400,-30.060
787,47402.150000,197.036,82.322,148.480,365.691,-158.093,358.982,559.220,186.400,-23.060
788,47402.190000,194.088,89.349,152.576,361.115,-147.863,370.134,389.220,195.400,-19.060
789,47402.212000,182.296,76.298,159.744,356.373,-148.822,371.101,233.220,140.400,47.940
790,47402.250000,179.347,75.294,161.792,356.367,-149.661,375.061,141.220,46.400,-5.060
791,47402.291000,171.486,83.325,157.696,359.268,-145.042,375.164,68.220,-54.600,-52.060
792,47402.332000,171.486,84.329,150.528,360.313,-137.720,374.327,73.220,-170.600,-106.060
793,47402.385000,182.296,97.380,136.192,366.896,-140.420,372.290,62.220,-230.600,-113.060
794,47402.416000,186.226,90.353,114.688,372.566,-140.443,367.324,0.220,-237.600,-92.060
795,47402.435000,193.106,79.310,94.208,377.259,-142.369,359.333,-149.780,-215.600,-53.060
796,47402.472000,212.760,72.282,99.328,380.157,-137.790,357.446,-375.780,-119.600,-84.060
797,47402.511000,221.605,54.212,89.088,380.085,-142.487,351.378,-309.780,-100.600,-22.060
798,47402.551000,205.881,32.125,86.016,382.853,-147.128,346.310,-322.780,-74.600,4.940
799,47402.591000,338.549,32.125,132.096,375.232,-150.893,346.219,-406.780,298.400,29.940
800,47402.631000,240.276,6.024,83.968,377.904,-162.823,342.985,-357.780,-72.600,214.940
801,47402.656000,300.223,-3.012,58.368,372.005,-178.570,337.668,-370.780,-84.600,205.940
802,47402.691000,221.605,-1.004,38.912,380.442,-184.013,334.580,-193.780,-207.600,146.940
803,47402.731000,201.950,-1.004,45.056,380.478,-181.284,333.644,-96.780,-69.600,-44.060
804,47402.777000,198.019,-5.020,48.128,380.437,-184.072,331.595,-112.780,-107.600,-134.060
805,47402.812000,233.397,13.051,83.968,384.265,-180.435,327.700,-177.780,-3.600,-161.060
806,47402.855000,285.482,2.008,104.448,382.313,-184.242,321.648,-313.780,75.400,-140.060
807,47402.895000,277.620,-5.020,101.376,384.193,-185.133,321.632,-296.780,-23.600,-116.060
808,47402.912000,260.914,-7.027,86.016,384.243,-181.468,321.710,-326.780,-133.600,-165.060
809,47402.951000,251.086,-5.020,96.256,389.882,-183.382,313.720,-293.780,-201.600,-212.060
810,47402.991000,228.484,-5.020,95.232,395.394,-194.496,303.546,-201.780,-308.600,-257.060
811,47403.33000,234.380,13.051,90.112,403.093,-184.416,298.798,-160.780,-326.600,-323.060
812,47403.71000,255.017,29.114,87.040,412.647,-176.299,286.055,-174.780,-323.600,-321.060
813,47403.115000,246.173,55.216,89.088,413.565,-178.158,284.028,-211.780,-280.600,-319.060
814,47403.135000,220.622,64.251,79.872,422.186,-169.898,279.243,-238.780,-209.600,-272.060
815,47403.175000,218.656,73.286,82.944,424.970,-173.583,276.185,-287.780,-50.600,-312.060
816,47403.215000,224.553,85.333,102.400,426.947,-167.184,274.335,-452.780,54.400,-270.060
817,47403.251000,234.380,78.306,98.304,428.760,-172.715,271.236,-531.780,95.400,-208.060
818,47403.293000,217.674,65.255,95.232,427.802,-173.624,272.209,-516.780,70.400,-165.060
819,47403.331000,218.656,66.259,90.112,423.887,-182.894,269.022,-582.780,44.400,-175.060
820,47403.351000,206.864,58.227,87.040,425.645,-192.147,262.860,-547.780,72.400,-111.060
821,47403.392000,210.795,56.220,88.064,423.715,-194.921,262.798,-543.780,71.400,-85.060
822,47403.433000,218.656,56.220,88.064,422.762,-195.011,258.817,-564.780,113.400,-56.060
823,47403.480000,215.708,57.224,97.280,425.549,-198.658,257.748,-591.780,121.400,-87.060
824,47403.515000,220.622,53.208,95.232,423.471,-211.626,251.502,-650.780,120.400,-112.060
825,47403.555000,208.829,53.208,96.256,417.787,-211.779,247.511,-643.780,87.400,-133.060
826,47403.576000,212.760,54.212,101.376,419.635,-214.580,243.476,-754.780,75.400,-162.060
827,47403.616000,205.881,53.208,101.376,414.714,-227.644,234.239,-819.780,54.400,-155.060
828,47403.667000,209.812,49.192,103.424,417.496,-231.349,230.186,-804.780,32.400,-162.060
829,47403.692000,197.036,42.165,112.640,421.189,-236.991,220.125,-811.780,-30.600,-178.060
830,47403.733000,285.482,36.141,128.000,417.288,-244.566,210.011,-1065.780,150.400,-239.060
831,47403.777000,228.484,-22.086,136.192,420.055,-248.446,197.002,-802.780,-130.600,-78.060
832,47403.813000,244.207,-43.169,184.320,413.319,-255.999,189.869,-676.780,193.400,-33.060
833,47403.833000,221.605,-40.157,195.584,413.230,-262.432,188.738,-421.780,113.400,32.940
834,47403.873000,212.760,-27.106,185.344,410.350,-265.257,186.684,-218.780,8.400,24.940
835,47403.912000,184.261,-23.090,176.128,410.397,-261.631,184.772,-81.780,-39.600,-41.060
836,47403.957000,174.434,-19.075,159.744,407.433,-270.830,184.572,-0.780,-116.600,-38.060
837,47403.997000,174.434,-15.059,145.408,415.145,-259.834,179.844,-13.780,-174.600,-24.060
838,47404.37000,185.244,-20.078,138.240,410.348,-264.516,177.748,-60.780,-174.600,27.940
839,47404.60000,198.019,-26.102,141.312,412.193,-267.357,171.722,-128.780,-128.600,55.940
840,47404.92000,202.933,-29.114,145.408,413.170,-264.674,167.802,-151.780,-101.600,58.940
841,47404.135000,203.916,-32.125,142.336,412.154,-269.345,163.723,-110.780,-28.600,11.940
842,47404.172000,226.518,-25.098,139.264,416.997,-261.057,162.912,-34.780,-20.600,-53.060
843,47404.212000,220.622,-13.051,116.736,417.943,-261.045,162.913,137.220,60.400,-153.060
844,47404.258000,243.225,27.106,113.664,420.778,-261.826,167.874,177.220,111.400,-230.060
845,47404.272000,248.138,43.169,105.472,422.890,-246.148,172.190,149.220,90.400,-202.060
846,47404.312000,245.190,47.184,103.424,424.776,-246.961,176.154,126.220,94.400,-150.060
847,47404.356000,256.983,47.184,103.424,421.987,-243.334,176.227,115.220,63.400,-54.060
848,47404.398000,234.380,37.145,89.088,425.767,-244.122,180.194,157.220,21.400,57.940
849,47404.435000,227.501,36.141,81.920,428.609,-244.046,182.189,169.220,-50.600,146.940
850,47404.477000,222.587,29.114,76.800,422.847,-250.495,184.033,194.220,-58.600,159.940
851,47404.517000,219.639,32.125,77.824,422.900,-246.791,186.101,229.220,-40.600,164.940
852,47404.537000,223.570,35.137,79.872,421.872,-253.158,188.948,225.220,-22.600,134.940
853,47404.578000,229.466,38.149,80.896,418.989,-256.782,192.845,228.220,4.400,144.940
854,47404.615000,234.380,43.169,81.920,415.184,-258.606,195.784,273.220,16.400,175.940
855,47404.652000,234.380,41.161,82.944,410.531,-253.132,197.883,316.220,27.400,230.940
856,47404.696000,230.449,46.180,81.920,408.614,-255.750,205.782,351.220,2.400,314.940
857,47404.736000,228.484,38.149,82.944,401.029,-257.565,211.700,384.220,8.400,384.940
858,47404.758000,230.449,31.122,102.400,391.508,-262.212,214.571,355.220,19.400,419.940
859,47404.795000,249.121,24.094,118.784,383.833,-270.460,219.357,352.220,111.400,443.940
860,47404.835000,261.896,-4.016,150.528,378.131,-273.127,227.249,413.220,91.400,474.940
861,47404.875000,222.587,-8.031,153.600,367.549,-286.831,235.893,529.220,135.400,388.940
862,47404.926000,211.777,-24.094,145.408,359.162,-278.503,246.005,538.220,85.400,394.940
863,47404.957000,225.536,-34.133,154.624,354.377,-283.809,258.815,568.220,90.400,377.940
864,47404.978000,224.553,-12.047,152.576,347.802,-281.011,265.827,667.220,102.400,353.940
865,47405.18000,215.708,-15.059,152.576,339.403,-273.580,276.914,767.220,130.400,334.940
866,47405.57000,202.933,-7.027,140.288,330.942,-271.509,294.849,765.220,76.400,377.940
867,47405.96000,198.019,-12.047,123.904,324.368,-268.692,302.856,728.220,26.400,368.940
868,47405.136000,195.071,-16.063,120.832,318.823,-260.287,314.962,699.220,22.400,376.940
869,47405.176000,202.933,-20.078,118.784,312.250,-257.470,322.970,685.220,47.400,383.940
870,47405.218000,201.950,-23.090,122.880,304.660,-260.104,333.844,776.220,119.400,360.940
871,47405.238000,208.829,-27.106,134.144,299.160,-248.094,343.043,813.220,174.400,350.940
872,47405.273000,207.846,-31.122,140.288,288.793,-246.964,360.955,953.220,201.400,390.940
873,47405.313000,206.864,-25.098,133.120,284.435,-221.101,375.424,1125.220,134.400,430.940
874,47405.355000,226.518,-22.086,125.952,277.930,-213.626,387.509,1154.220,108.400,430.940
875,47405.402000,228.484,6.024,112.640,273.413,-199.634,403.714,1298.220,-4.600,427.940
876,47405.435000,233.397,39.153,122.880,268.977,-179.307,416.076,1206.220,78.400,306.940
877,47405.458000,233.397,51.200,115.712,264.547,-158.123,425.472,1063.220,87.400,202.940
878,47405.498000,221.605,82.322,134.144,257.230,-140.641,434.785,788.220,164.400,11.940
879,47405.537000,204.898,79.310,148.480,255.449,-133.200,441.903,521.220,149.400,-63.060
880,47405.575000,195.071,86.337,152.576,258.446,-122.072,447.118,366.220,135.400,-119.060
881,47405.621000,183.278,81.318,149.504,254.675,-121.186,448.126,162.220,-4.600,-72.060
882,47405.657000,185.244,75.294,139.264,256.667,-113.832,448.285,60.220,-84.600,-85.060
883,47405.675000,198.019,70.275,131.072,265.106,-119.255,446.193,-2.780,-153.600,-75.060
884,47405.713000,201.950,68.267,119.808,268.009,-114.617,447.290,38.220,-195.600,-116.060
885,47405.757000,203.916,70.275,112.640,273.769,-108.188,444.452,54.220,-169.600,-121.060
886,47405.793000,214.726,79.310,113.664,273.730,-110.956,443.398,-20.780,-81.600,-129.060
887,47405.837000,212.760,81.318,122.880,271.858,-109.207,440.449,-44.780,4.400,-93.060
888,47405.873000,198.019,81.318,137.216,275.657,-108.222,441.470,-123.780,45.400,-71.060
889,47405.917000,189.175,88.345,136.192,275.632,-110.054,441.431,-182.780,40.400,-55.060
890,47405.941000,186.226,86.337,135.168,279.250,-121.972,438.199,-267.780,-45.600,-58.060
891,47405.973000,185.244,88.345,128.000,281.184,-118.380,433.305,-346.780,-119.600,-102.060
892,47406.17000,210.795,92.361,123.904,284.802,-130.298,430.073,-630.780,-99.600,-214.060
893,47406.61000,241.259,75.294,132.096,291.281,-139.607,417.949,-875.780,-75.600,-272.060
894,47406.98000,236.345,57.224,122.880,291.133,-149.801,411.764,-1015.780,-93.600,-325.060
895,47406.136000,251.086,29.114,125.952,297.422,-172.890,397.357,-1260.780,-27.600,-367.060
896,47406.160000,255.017,15.059,128.000,303.865,-184.927,386.169,-1362.780,-56.600,-382.060
897,47406.206000,223.570,-11.043,114.688,310.155,-207.997,372.757,-1267.780,-104.600,-377.060
898,47406.237000,211.777,-13.051,126.976,312.780,-222.013,356.548,-1152.780,-72.600,-424.060
899,47406.277000,213.743,-6.024,140.288,324.010,-229.485,341.486,-1119.780,-95.600,-467.060
900,47406.317000,207.846,-5.020,131.072,333.394,-234.136,331.455,-966.780,-119.600,-460.060
901,47406.362000,210.795,-1.004,128.000,339.898,-241.612,319.370,-832.780,-132.600,-450.060
902,47406.377000,213.743,1.004,120.832,346.471,-243.669,303.421,-704.780,-192.600,-395.060
903,47406.415000,218.656,10.039,113.664,355.767,-254.732,293.253,-691.780,-254.600,-398.060
904,47406.456000,219.639,6.024,110.592,364.223,-257.642,279.279,-651.780,-222.600,-342.060
905,47406.495000,220.622,15.059,118.784,372.832,-250.298,274.475,-626.780,-190.600,-307.060
906,47406.541000,210.795,16.063,133.120,378.375,-258.721,261.374,-683.780,-141.600,-344.060
907,47406.576000,207.846,17.067,121.856,384.066,-256.191,246.516,-695.780,-187.600,-266.060
908,47406.618000,198.019,0.000,132.096,391.529,-262.738,234.452,-832.780,-122.600,-161.060
909,47406.638000,205.881,-21.082,134.144,392.363,-269.431,219.391,-876.780,-57.600,-86.060
910,47406.680000,212.760,-35.137,136.192,391.269,-279.638,213.205,-804.780,-47.600,-86.060
911,47406.720000,229.466,-36.141,130.048,397.914,-276.997,203.324,-579.780,52.400,-113.060
912,47406.758000,249.121,-27.106,133.120,398.791,-281.644,199.248,-363.780,176.400,-163.060
913,47406.798000,226.518,14.055,135.168,401.757,-272.425,200.444,-246.780,142.400,-301.060
914,47406.836000,241.259,36.141,123.904,407.397,-275.099,200.395,-198.780,142.400,-335.060
915,47406.865000,244.207,39.153,118.784,410.438,-260.383,201.707,-160.780,14.400,-287.060
916,47406.897000,238.311,35.137,103.424,413.231,-263.192,196.678,-69.780,-88.600,-191.060
917,47406.937000,231.432,32.125,93.184,418.900,-263.215,191.713,2.220,-164.600,-82.060
918,47406.980000,220.622,27.106,81.920,418.875,-265.047,191.674,61.220,-193.600,-11.060
919,47407.20000,225.536,26.102,71.680,426.562,-255.883,186.907,135.220,-193.600,24.940
920,47407.55000,231.432,34.133,78.848,424.716,-252.283,184.992,142.220,-155.600,-2.060
921,47407.75000,232.415,36.141,79.872,421.876,-252.340,183.992,48.220,-161.600,-63.060
922,47407.117000,228.484,43.169,79.872,428.568,-246.833,180.140,17.220,-157.600,-112.060
923,47407.157000,217.674,45.176,89.088,431.251,-257.867,175.931,-93.780,-143.600,-98.060
924,47407.195000,203.916,39.153,103.424,432.324,-247.895,170.177,-216.780,-175.600,-74.060
925,47407.241000,244.207,10.039,126.976,430.427,-247.978,167.189,-289.780,-125.600,-49.060
926,47407.278000,219.639,-27.106,133.120,432.231,-253.606,159.114,-148.780,-152.600,63.940
927,47407.318000,220.622,-42.165,151.552,427.515,-252.713,161.116,10.220,75.400,188.940
928,47407.338000,229.466,-59.231,182.272,424.519,-264.602,163.842,275.220,132.400,251.940
929,47407.378000,208.829,-45.176,173.056,417.876,-267.223,174.718,566.220,109.400,218.940
930,47407.417000,201.950,-41.161,162.816,419.822,-264.255,184.730,658.220,141.400,232.940
931,47407.458000,204.898,-36.141,142.336,419.024,-254.833,198.854,787.220,119.400,222.940
932,47407.501000,214.726,-15.059,117.760,410.593,-250.091,212.868,978.220,178.400,257.940
933,47407.548000,219.639,17.067,96.256,409.741,-245.152,231.870,1079.220,233.400,267.940
934,47407.558000,223.570,37.145,103.424,406.048,-240.270,249.871,1054.220,304.400,260.940
935,47407.598000,245.190,65.255,117.760,399.483,-238.135,269.800,922.220,297.400,201.940
936,47407.638000,243.225,70.275,137.216,397.752,-227.030,276.996,867.220,221.400,198.940
937,47407.680000,220.622,68.267,137.216,394.931,-226.853,287.937,817.220,90.400,260.940
938,47407.718000,206.864,63.247,124.928,391.378,-211.094,300.203,780.220,-83.600,351.940
939,47407.760000,198.019,48.188,111.616,393.248,-212.882,301.162,734.220,-177.600,431.940
940,47407.780000,194.088,49.192,108.544,388.484,-215.635,304.080,696.220,-287.600,451.940
941,47407.820000,213.743,31.122,102.400,389.547,-207.318,307.243,728.220,-229.600,496.940
942,47407.858000,212.760,43.169,94.208,389.577,-205.428,310.267,894.220,-274.600,549.940
943,47407.898000,219.639,41.161,104.448,388.693,-201.639,317.309,787.220,-204.600,459.940
944,47407.943000,225.536,40.157,106.496,386.816,-200.709,319.315,743.220,-157.600,443.940
945,47407.978000,225.536,45.176,100.352,382.093,-200.674,324.282,742.220,-120.600,427.940
946,47408.16000,223.570,41.161,104.448,377.395,-198.806,329.288,666.220,-61.600,386.940
947,47408.36000,221.605,54.212,106.496,374.666,-191.398,335.409,580.220,7.400,342.940
948,47408.77000,213.743,47.184,101.376,370.871,-192.325,337.373,394.220,17.400,275.940
949,47408.118000,198.019,35.137,83.968,370.937,-187.705,339.461,199.220,47.400,188.940
950,47408.160000,210.795,30.118,86.016,366.114,-194.999,344.272,112.220,116.400,102.940
951,47408.201000,229.466,16.063,98.304,363.323,-191.392,343.350,22.220,117.400,114.940
952,47408.236000,228.484,4.016,92.160,358.617,-189.622,343.381,-60.780,102.400,125.940
953,47408.256000,271.724,-16.063,99.328,353.749,-199.742,344.153,-148.780,166.400,134.940
954,47408.301000,321.843,-37.145,111.616,350.898,-200.696,344.128,-154.780,70.400,199.940
955,47408.340000,269.758,-38.149,108.544,350.777,-209.039,338.977,-90.780,-52.600,235.940
956,47408.381000,236.345,-31.122,66.560,349.840,-208.174,337.005,-77.780,-259.600,70.940
957,47408.421000,224.553,-22.086,47.104,359.207,-214.560,331.910,-131.780,-353.600,-99.060
958,47408.461000,226.518,-24.094,60.416,366.739,-216.448,323.923,-156.780,-379.600,-109.060
959,47408.481000,237.328,-23.090,56.320,371.393,-221.142,314.879,-196.780,-292.600,-88.060
960,47408.521000,241.259,-29.114,57.344,375.244,-215.712,309.032,-263.780,-196.600,-56.060
961,47408.556000,241.259,-34.133,53.248,377.942,-225.791,306.832,-249.780,-107.600,-45.060
962,47408.597000,241.259,-36.141,50.176,381.745,-223.987,302.898,-220.780,-53.600,-126.060
963,47408.638000,239.294,-27.106,58.368,380.876,-217.703,297.062,-264.780,-40.600,-199.060
964,47408.680000,248.138,-21.082,70.656,386.553,-217.648,296.077,-305.780,18.400,-318.060
965,47408.721000,254.035,-8.031,81.920,389.452,-213.049,295.185,-302.780,44.400,-429.060
966,47408.736000,242.242,19.075,93.184,392.322,-210.341,291.268,-345.780,30.400,-509.060
967,47408.787000,248.138,33.129,100.352,400.036,-199.326,287.536,-350.780,154.400,-501.060
968,47408.817000,253.052,45.176,129.024,399.934,-206.675,286.384,-419.780,126.400,-436.060
969,47408.863000,228.484,56.220,137.216,402.850,-201.121,287.502,-416.780,88.400,-381.060
970,47408.902000,207.846,65.255,152.576,405.706,-199.349,282.570,-523.780,90.400,-380.060
971,47408.942000,204.898,70.275,157.696,409.481,-199.416,276.607,-594.780,11.400,-383.060
972,47408.962000,194.088,69.271,151.552,413.281,-197.650,270.682,-655.780,-154.600,-364.060
973,47409.2000,187.209,68.267,145.408,420.733,-205.094,259.594,-677.780,-292.600,-343.060
974,47409.42000,193.106,63.247,130.048,426.447,-200.751,243.780,-680.780,-365.600,-324.060
975,47409.82000,196.054,61.239,112.640,436.817,-201.842,227.858,-605.780,-393.600,-281.060
976,47409.117000,204.898,58.227,102.400,441.928,-198.869,469.626,-559.780,-343.600,-243.060
977,47409.160000,216.691,58.227,95.232,443.353,-205.868,204.906,-544.780,-276.600,-217.060
978,47409.180000,232.415,56.220,86.016,450.958,-202.279,196.041,-522.780,-195.600,-168.060
979,47409.223000,244.207,48.188,79.872,449.897,-209.796,186.928,-523.780,-115.600,-141.060
980,47409.263000,249.121,37.145,75.776,453.728,-205.360,177.082,-543.780,-15.600,-76.060
981,47409.297000,231.432,32.125,71.680,449.820,-213.773,170.929,-497.780,60.400,-19.060
982,47409.337000,276.637,21.082,74.752,448.865,-214.662,172.898,-498.780,227.400,57.940
983,47409.377000,290.395,10.039,90.112,443.046,-224.854,170.683,-289.780,238.400,273.940
984,47409.426000,262.879,-2.008,82.944,436.296,-234.882,177.422,-159.780,365.400,304.940
985,47409.441000,254.035,1.004,83.968,429.709,-233.001,184.415,-124.780,307.400,312.940
986,47409.481000,233.397,0.000,58.368,423.966,-238.455,190.258,66.220,264.400,260.940
987,47409.521000,224.553,-2.008,69.632,423.878,-245.648,197.068,248.220,310.400,240.940
988,47409.561000,229.466,4.016,77.824,415.368,-246.442,208.974,244.220,345.400,216.940
989,47409.599000,225.536,5.020,101.376,408.734,-248.186,217.879,187.220,368.400,203.940
990,47409.645000,229.466,5.020,104.448,403.943,-253.570,226.709,158.220,366.400,197.940
991,47409.660000,230.449,2.008,114.688,397.371,-250.734,235.711,72.220,291.400,198.940
992,47409.700000,221.605,-3.012,119.808,394.485,-254.397,237.618,45.220,189.400,129.940
993,47409.739000,214.726,-7.027,118.784,394.378,-262.583,240.428,43.220,101.400,133.940
994,47409.781000,226.518,-10.039,109.568,390.698,-255.246,243.562,84.220,-22.600,90.940
995,47409.831000,225.536,-10.039,108.544,391.553,-261.685,241.437,181.220,-81.600,91.940
996,47409.860000,233.397,-9.035,108.544,388.778,-257.122,242.525,207.220,-116.600,84.940
997,47409.881000,229.466,-10.039,108.544,387.880,-253.490,241.606,243.220,-144.600,72.940
998,47409.921000,228.484,-7.027,99.328,392.617,-253.369,244.600,216.220,-164.600,50.940
999,47409.957000,226.518,-4.016,106.496,394.578,-247.925,240.740,203.220,-163.600,12.940
1000,47410.999000,225.536,-4.016,105.472,394.581,-247.886,242.730,155.220,-153.600,0.940
1001,47410.57000,228.484,1.004,105.472,397.403,-248.823,239.730,141.220,-138.600,-24.060
1002,47410.81000,228.484,0.000,103.424,394.574,-247.964,238.750,114.220,-110.600,-0.060
1003,47410.120000,225.536,-3.012,111.616,401.222,-246.064,237.805,106.220,-93.600,19.940
1004,47410.140000,219.639,-1.004,119.808,400.256,-247.850,240.750,188.220,-153.600,30.940
1005,47410.183000,222.587,3.012,117.760,404.159,-238.717,236.971,215.220,-213.600,65.940
1006,47410.220000,226.518,1.004,110.592,406.945,-242.383,234.908,252.220,-270.600,73.940
1007,47410.262000,227.501,7.027,100.352,410.700,-244.224,231.891,304.220,-323.600,68.940
1008,47410.311000,230.449,7.027,96.256,410.843,-233.308,228.145,278.220,-372.600,65.940
1009,47410.341000,234.380,13.051,86.016,417.475,-232.363,225.191,219.220,-399.600,63.940
1010,47410.364000,230.449,19.075,89.088,420.260,-235.269,215.187,106.220,-411.600,38.940
1011,47410.402000,235.363,11.043,79.872,422.189,-231.736,207.308,64.220,-417.600,32.940
1012,47410.442000,239.294,11.043,70.656,428.810,-231.687,205.329,129.220,-395.600,51.940
1013,47410.481000,245.190,9.035,61.440,431.551,-238.180,199.227,235.220,-370.600,84.940
1014,47410.522000,243.225,11.043,63.488,437.337,-229.918,196.428,245.220,-357.600,103.940
1015,47410.562000,249.121,16.063,55.296,439.168,-233.694,189.388,310.220,-378.600,67.940
1016,47410.578000,246.173,13.051,54.272,441.096,-230.940,188.454,324.220,-334.600,45.940
1017,47410.621000,249.121,14.055,50.176,441.118,-229.147,186.503,303.220,-340.600,34.940
1018,47410.661000,245.190,13.051,49.152,446.828,-226.382,183.587,244.220,-331.600,67.940
1019,47410.702000,248.138,15.059,43.008,447.795,-223.817,173.696,217.220,-339.600,51.940
1020,47410.742000,246.173,13.051,43.008,452.456,-228.432,168.632,179.220,-326.600,70.940
1021,47410.783000,253.052,10.039,35.840,451.473,-230.414,161.626,167.220,-338.600,51.940
1022,47410.803000,257.965,9.035,29.696,456.182,-231.384,155.644,127.220,-322.600,0.940
1023,47410.843000,255.017,11.043,20.480,457.236,-223.185,152.836,149.220,-327.600,-55.060
1024,47410.883000,246.173,15.059,24.576,464.791,-224.040,150.840,121.220,-277.600,-173.060
1025,47410.923000,246.173,27.106,27.648,467.759,-214.023,146.084,60.220,-169.600,-179.060
1026,47410.964000,245.190,27.106,28.672,469.585,-218.618,144.000,-13.780,46.400,-169.060
1027,47411.1000,246.173,28.110,31.744,471.641,-207.443,152.198,-24.780,167.400,-152.060
1028,47411.41000,246.173,28.110,37.888,467.895,-204.725,153.245,-33.780,209.400,-152.060
1029,47411.63000,245.190,28.110,35.840,468.881,-201.945,154.300,-48.780,195.400,-177.060
1030,47411.103000,244.207,36.141,41.984,469.776,-206.376,161.170,-66.780,116.400,-159.060
1031,47411.141000,244.207,39.153,43.008,473.694,-196.307,158.406,-71.780,47.400,-117.060
1032,47411.189000,245.190,37.145,39.936,473.569,-205.469,158.211,-29.780,-59.600,-68.060
1033,47411.218000,245.190,36.141,35.840,474.634,-196.373,154.427,-28.780,-96.600,-42.060
1034,47411.258000,250.104,31.122,35.840,477.529,-191.833,150.550,-33.780,-135.600,-14.060
1035,47411.286000,246.173,32.125,28.672,475.547,-198.290,149.415,-38.780,-138.600,-4.060
1036,47411.321000,249.121,32.125,28.672,475.617,-192.852,146.547,-79.780,-104.600,-23.060
1037,47411.362000,250.104,30.118,26.624,477.443,-197.447,144.462,-80.780,-90.600,-32.060
1038,47411.406000,249.121,30.118,24.576,480.358,-191.133,137.639,-83.780,-66.600,-32.060
1039,47411.446000,248.138,30.118,24.576,479.387,-192.978,137.598,-126.780,-46.600,-28.060
1040,47411.481000,249.121,32.125,22.528,482.208,-193.915,134.598,-135.780,-53.600,-15.060
1041,47411.501000,251.086,28.110,23.552,480.264,-197.624,133.522,-122.780,-58.600,-24.060
1042,47411.540000,249.121,31.122,25.600,480.325,-193.063,132.624,-131.780,-50.600,-23.060
1043,47411.585000,251.086,32.125,21.504,485.061,-192.182,127.677,-125.780,-45.600,-16.060
1044,47411.621000,252.069,30.118,25.600,484.041,-197.671,128.553,-111.780,-15.600,-12.060
1045,47411.664000,250.104,29.114,27.648,485.034,-194.033,126.643,-102.780,20.400,2.940
1046,47411.706000,249.121,28.110,26.624,484.934,-201.362,126.487,-85.780,14.400,0.940
1047,47411.739000,249.121,27.106,30.720,484.055,-196.736,129.568,-66.780,33.400,-1.060
1048,47411.767000,247.155,29.114,30.720,486.866,-198.570,127.543,-24.780,37.400,0.940
1049,47411.802000,250.104,28.110,29.696,482.195,-194.071,126.638,15.220,39.400,0.940
1050,47411.848000,248.138,27.106,32.768,482.188,-194.928,129.603,40.220,30.400,5.940
1051,47411.882000,245.190,28.110,31.744,483.150,-193.961,131.615,47.220,21.400,8.940
1052,47411.922000,247.155,28.110,32.768,480.272,-196.766,130.556,48.220,20.400,9.940
1053,47411.967000,248.138,27.106,30.720,477.445,-195.888,130.571,52.220,-7.600,-3.060
1054,47411.982000,248.138,29.114,30.720,481.298,-191.198,133.660,45.220,-1.600,-6.060
1055,47412.22000,247.155,29.114,29.696,478.356,-198.604,131.509,34.220,-10.600,-4.060
1056,47412.68000,249.121,28.110,28.672,483.186,-191.232,130.678,-2.780,-5.600,7.940
1057,47412.102000,248.138,28.110,29.696,482.152,-197.657,130.540,-18.780,-8.600,0.940
1058,47412.143000,248.138,27.106,30.720,481.212,-197.592,134.518,-31.780,16.400,-3.060
1059,47412.183000,250.104,29.114,31.744,480.350,-191.230,132.663,-58.780,24.400,-19.060
1060,47412.203000,249.121,27.106,33.792,481.234,-195.799,132.567,-63.780,11.400,-22.060
1061,47412.240000,246.173,29.114,32.768,479.413,-190.366,130.691,-70.780,0.400,-41.060
1062,47412.279000,247.155,30.118,32.768,482.252,-190.328,130.696,-68.780,-6.600,-57.060
