Sample, Time, ACCX, ACCY, ACCZ, MAGX, MAGY, MAGZ, GYRX, GYRY, GYRZ
0,47476.525000,238.311,6.024,77.824,419.419,-226.355,203.439,-165.780,70.400,20.940
1,47476.564000,237.328,11.043,83.968,421.261,-229.994,203.365,-207.780,104.400,-0.060
2,47476.624000,234.380,14.055,84.992,425.969,-231.744,204.329,-217.780,116.400,8.940
3,47476.645000,237.328,12.047,89.088,419.281,-236.432,203.225,-223.780,86.400,23.940
4,47476.682000,236.345,10.039,91.136,422.991,-241.879,203.114,-237.780,45.400,39.940
5,47476.726000,230.449,9.035,90.112,423.015,-240.066,202.158,-224.780,56.400,20.940
6,47476.745000,234.380,2.008,87.040,419.223,-240.194,198.171,-186.780,64.400,24.940
7,47476.785000,233.397,-2.008,92.160,417.303,-242.071,197.134,-165.780,54.400,26.940
8,47476.825000,234.380,-4.016,88.064,417.271,-244.761,200.061,-74.780,26.400,33.940
9,47476.870000,235.363,0.000,92.160,417.274,-244.722,202.051,-55.780,84.400,6.940
10,47476.904000,233.397,4.016,93.184,412.464,-250.320,199.935,-77.780,39.400,18.940
11,47476.944000,231.432,-1.004,94.208,415.289,-251.218,198.926,-95.780,22.400,-8.060
12,47476.964000,232.415,-2.008,92.160,411.529,-249.436,198.958,-66.780,46.400,-23.060
13,47477.4000,234.380,-2.008,88.064,413.443,-247.618,197.010,-72.780,86.400,-48.060
14,47477.45000,237.328,4.016,88.064,417.273,-244.741,201.056,-33.780,139.400,-79.060
15,47477.85000,239.294,8.031,87.040,415.338,-248.333,205.950,-38.780,201.400,-96.060
16,47477.132000,237.328,12.047,95.232,412.608,-240.944,211.076,-59.780,252.400,-91.060
17,47477.164000,231.432,13.051,97.280,407.869,-241.864,214.033,-165.780,392.400,-87.060
18,47477.184000,220.622,16.063,108.544,407.891,-240.831,220.023,-167.780,401.400,-76.060
19,47477.227000,224.553,13.051,112.640,403.084,-247.170,226.844,-206.780,483.400,-55.060
20,47477.262000,220.622,15.059,122.880,398.385,-246.082,238.795,-191.780,610.400,-55.060
21,47477.309000,210.795,12.047,123.904,387.076,-243.366,244.804,-111.780,628.400,-41.060
22,47477.348000,233.397,9.035,101.376,386.153,-243.106,258.733,-114.780,611.400,-55.060
23,47477.385000,217.674,11.043,120.832,375.684,-248.564,267.553,-262.780,942.400,-111.060
24,47477.412000,221.605,12.047,109.568,369.112,-246.507,283.502,-116.780,799.400,-54.060
25,47477.450000,207.846,8.031,132.096,355.901,-245.473,298.424,-296.780,1217.400,-60.060
26,47477.494000,190.157,12.047,157.696,339.706,-255.412,316.092,-218.780,1160.400,-44.060
27,47477.528000,197.036,16.063,163.840,320.908,-248.001,333.131,-77.780,993.400,29.940
28,47477.565000,175.417,10.039,174.080,308.484,-258.066,341.850,-115.780,1045.400,-3.060
29,47477.605000,162.641,18.071,190.464,292.496,-252.489,356.864,11.220,903.400,51.940
30,47477.650000,152.814,19.075,183.296,277.325,-256.119,368.700,16.220,853.400,81.940
31,47477.663000,139.056,23.090,202.752,262.194,-256.982,381.590,-21.780,844.400,87.940
32,47477.704000,134.142,22.086,204.800,243.309,-255.204,391.546,-4.780,761.400,111.940
33,47477.744000,129.228,24.094,208.896,232.781,-264.425,395.313,-34.780,727.400,143.940
34,47477.784000,119.401,20.078,219.136,218.553,-268.082,405.160,-61.780,675.400,157.940
35,47477.823000,111.539,12.047,228.352,204.351,-269.127,408.101,-80.780,649.400,161.940
36,47477.864000,102.695,8.031,233.472,191.990,-273.831,409.972,-119.780,563.400,130.940
37,47477.884000,99.747,-11.043,244.736,177.702,-281.270,413.771,-202.780,530.400,112.940
38,47477.929000,84.023,-25.098,260.096,166.407,-276.858,412.853,-264.780,525.400,40.940
39,47477.963000,82.058,-33.129,266.240,157.854,-279.700,413.775,-188.780,383.400,-21.060
40,47478.3000,75.178,-31.122,268.288,153.060,-284.343,413.669,-95.780,251.400,-43.060
41,47478.43000,75.178,-26.102,262.144,151.114,-288.072,411.598,-64.780,78.400,-10.060
42,47478.83000,81.075,-24.094,256.000,155.868,-286.216,409.655,-76.780,-139.600,23.940
43,47478.112000,93.850,-31.122,243.712,156.796,-287.178,406.652,-82.780,-257.600,68.940
44,47478.145000,109.574,-33.129,226.304,163.278,-297.227,403.464,-33.780,-313.600,88.940
45,47478.194000,111.539,-35.137,223.232,163.376,-289.917,402.625,-0.780,-317.600,70.940
46,47478.223000,116.453,-42.165,216.064,172.777,-294.373,402.544,-0.780,-315.600,28.940
47,47478.264000,122.349,-41.161,214.016,175.597,-295.329,398.549,48.220,-280.600,-75.060
48,47478.305000,117.436,-48.188,214.016,182.326,-287.854,401.702,64.220,-265.600,-110.060
49,47478.325000,125.298,-49.192,214.016,193.638,-290.531,397.683,45.220,-240.600,-165.060
50,47478.365000,121.367,-45.176,211.968,196.551,-284.996,397.805,226.220,-321.600,-188.060
51,47478.415000,128.246,-39.153,217.088,212.797,-273.693,403.043,290.220,-306.600,-231.060
52,47478.443000,124.315,-24.094,233.472,220.491,-264.451,402.257,511.220,-577.600,-186.060
53,47478.483000,141.021,-8.031,228.352,234.811,-255.102,402.477,592.220,-636.600,-135.060
54,47478.523000,134.142,18.071,207.872,248.325,-235.649,404.900,692.220,-658.600,-82.060
55,47478.564000,121.367,54.212,203.776,262.594,-229.965,405.042,725.220,-671.600,-62.060
56,47478.584000,139.056,64.251,173.056,279.896,-209.663,401.521,544.220,-724.600,-89.060
57,47478.624000,159.693,81.318,197.632,293.213,-204.069,397.681,384.220,-635.600,-169.060
58,47478.664000,176.399,88.345,193.536,301.782,-199.493,391.824,216.220,-552.600,-168.060
59,47478.709000,183.278,80.314,198.656,314.229,-188.395,389.094,109.220,-457.600,-138.060
60,47478.757000,175.417,83.325,203.776,322.706,-190.291,380.115,87.220,-411.600,-116.060
61,47478.784000,160.676,84.329,188.416,331.341,-181.095,376.345,105.220,-441.600,-91.060
62,47478.804000,159.693,89.349,169.984,343.682,-177.405,369.479,99.220,-474.600,-67.060
63,47478.845000,153.797,87.341,158.720,347.469,-176.556,363.535,64.220,-551.600,-27.060
64,47478.885000,155.762,86.337,156.672,357.796,-181.233,351.515,-30.780,-565.600,-32.060
65,47478.924000,166.572,88.345,154.624,365.377,-179.476,342.612,-58.780,-565.600,-27.060
66,47478.964000,192.123,84.329,155.648,370.026,-184.229,330.582,-134.780,-526.600,40.940
67,47479.5000,193.106,62.243,150.528,378.508,-185.286,317.642,-206.780,-529.600,134.940
68,47479.27000,190.157,42.165,142.336,381.251,-191.759,312.535,-166.780,-519.600,203.940
69,47479.67000,198.019,31.122,133.120,385.786,-204.776,299.334,-108.780,-532.600,292.940
70,47479.120000,198.019,26.102,123.904,383.863,-205.932,288.366,-50.780,-514.600,299.940
71,47479.148000,202.933,15.059,115.712,390.369,-213.388,277.276,-84.780,-449.600,273.940
72,47479.193000,253.052,7.027,119.808,388.350,-221.814,269.136,-108.780,-320.600,271.940
73,47479.233000,236.345,0.000,130.048,387.327,-227.343,268.022,-22.780,-276.600,295.940
74,47479.272000,225.536,-11.043,134.144,389.131,-233.751,266.894,-42.780,-66.600,307.940
75,47479.290000,212.760,-8.031,128.000,381.464,-240.361,261.769,6.220,-55.600,276.940
76,47479.325000,209.812,-5.020,128.000,381.445,-241.355,257.769,-18.780,-94.600,236.940
77,47479.368000,212.760,-7.027,128.000,379.413,-251.477,256.556,-62.780,-153.600,186.940
78,47479.404000,217.674,-14.055,124.928,376.513,-255.316,249.508,-88.780,-167.600,158.940
79,47479.444000,221.605,-16.063,120.832,379.389,-252.530,249.571,-104.780,-178.600,139.940
80,47479.489000,216.691,-28.110,124.928,381.091,-266.286,247.292,-115.780,-182.600,147.940
81,47479.504000,210.795,-42.165,122.880,378.276,-263.731,239.385,-63.780,-188.600,208.940
82,47479.548000,215.708,-43.169,119.808,377.269,-268.305,240.281,46.220,-198.600,217.940
83,47479.584000,225.536,-41.161,111.616,374.372,-272.105,235.222,136.220,-239.600,178.940
84,47479.625000,236.345,-33.129,110.592,379.123,-270.268,232.284,171.220,-246.600,117.940
85,47479.665000,242.242,-25.098,112.640,382.022,-265.689,230.397,222.220,-244.600,7.940
86,47479.707000,230.449,-14.055,98.304,386.792,-262.859,231.459,265.220,-243.600,-77.060
87,47479.728000,227.501,-7.027,93.184,390.665,-256.396,231.602,257.220,-198.600,-126.060
88,47479.768000,229.466,-5.020,91.136,393.502,-256.378,230.612,261.220,-163.600,-138.060
89,47479.808000,234.380,2.008,90.112,394.472,-254.553,229.658,233.220,-98.600,-118.060
90,47479.848000,237.328,6.024,92.160,397.443,-245.276,233.838,236.220,-25.600,-87.060
91,47479.888000,233.397,18.071,98.304,399.312,-247.064,234.797,262.220,32.400,-51.060
92,47479.930000,227.501,26.102,99.328,397.592,-235.062,241.018,245.220,50.400,-55.060
93,47479.950000,227.501,34.133,101.376,402.369,-232.153,246.060,173.220,28.400,-89.060
94,47479.985000,223.570,38.149,100.352,403.351,-229.412,245.125,112.220,2.400,-110.060
95,47480.27000,227.501,39.153,104.448,403.351,-229.412,245.125,61.220,2.400,-140.060
96,47480.67000,233.397,43.169,105.472,402.491,-223.031,244.265,14.220,10.400,-127.060
97,47480.107000,226.518,37.145,102.400,404.271,-231.251,244.093,-46.780,6.400,-120.060
98,47480.150000,217.674,32.125,101.376,409.165,-219.279,244.355,-110.780,2.400,-108.060
99,47480.190000,216.691,27.106,104.448,410.136,-217.434,244.396,-123.780,7.400,-91.060
100,47480.209000,217.674,23.090,112.640,410.017,-225.757,240.240,-126.780,3.400,-60.060
101,47480.249000,222.587,22.086,113.664,408.201,-220.266,241.349,-95.780,27.400,-33.060
102,47480.289000,239.294,23.090,112.640,408.181,-222.040,244.295,-13.780,3.400,1.940
103,47480.328000,242.242,20.078,108.544,403.410,-224.870,243.233,26.220,2.400,21.940
104,47480.368000,231.432,20.078,104.448,406.310,-220.272,242.340,71.220,-13.600,23.940
105,47480.409000,221.605,24.094,99.328,412.007,-219.202,246.350,93.220,-18.600,12.940
106,47480.429000,218.656,26.102,101.376,408.131,-225.704,244.217,79.220,-19.600,-0.060
107,47480.478000,220.622,26.102,100.352,410.150,-216.499,245.410,51.220,-31.600,-15.060
108,47480.507000,228.484,28.110,105.472,411.951,-222.945,242.292,9.220,-29.600,-45.060
109,47480.554000,235.363,25.098,107.520,412.924,-221.081,243.328,-37.780,-36.600,-57.060
110,47480.589000,229.466,25.098,103.424,413.904,-218.359,241.398,-72.780,-44.600,-60.060
111,47480.627000,225.536,24.094,101.376,413.902,-218.378,240.403,-106.780,-37.600,-53.060
112,47480.647000,227.501,20.078,100.352,414.872,-216.553,239.448,-85.780,-44.600,-16.060
113,47480.687000,227.501,21.082,101.376,415.790,-218.412,237.421,-56.780,-24.600,6.940
114,47480.725000,233.397,21.082,100.352,412.948,-218.488,235.426,-15.780,-22.600,34.940
115,47480.765000,233.397,21.082,102.400,411.962,-221.269,234.370,9.220,-22.600,34.940
116,47480.812000,228.484,22.086,99.328,412.974,-216.637,236.460,17.220,-27.600,27.940
117,47480.845000,230.449,24.094,97.280,411.905,-225.791,237.258,11.220,-17.600,18.940
118,47480.887000,229.466,24.094,97.280,412.939,-219.366,237.396,-12.780,10.400,25.940
119,47480.905000,227.501,24.094,100.352,411.060,-218.455,238.408,-9.780,43.400,24.940
120,47480.947000,225.536,25.098,102.400,409.067,-225.809,238.248,1.220,68.400,34.940
121,47480.987000,228.484,26.102,97.280,409.060,-226.667,241.214,-8.780,71.400,47.940
122,47481.32000,228.484,23.090,98.304,406.271,-223.040,241.287,-4.780,68.400,63.940
123,47481.70000,232.415,25.098,98.304,403.423,-223.954,243.252,-10.780,79.400,72.940
124,47481.105000,241.259,23.090,110.592,405.328,-223.013,243.275,-35.780,103.400,71.940
125,47481.125000,227.501,17.067,108.544,405.306,-224.806,245.226,-45.780,94.400,72.940
126,47481.170000,229.466,17.067,109.568,399.530,-232.191,246.055,-93.780,104.400,59.940
127,47481.212000,224.553,18.071,107.520,397.652,-231.280,247.066,-128.780,78.400,49.940
128,47481.258000,225.536,14.055,108.544,394.677,-241.376,247.842,-157.780,58.400,29.940
129,47481.294000,223.570,11.043,112.640,397.559,-237.752,243.945,-161.780,42.400,19.940
130,47481.328000,226.518,6.024,112.640,398.470,-240.468,244.883,-167.780,30.400,6.940
131,47481.348000,222.587,8.031,114.688,395.542,-246.938,243.746,-162.780,17.400,-5.060
132,47481.393000,225.536,7.027,112.640,397.499,-241.533,237.896,-137.780,-3.600,-5.060
133,47481.430000,227.501,3.012,109.568,399.292,-248.837,237.743,-144.780,-31.600,-28.060
134,47481.467000,225.536,7.027,109.568,395.550,-245.301,233.835,-137.780,-46.600,-42.060
135,47481.507000,226.518,3.012,111.616,395.577,-243.449,234.869,-148.780,-58.600,-49.060
136,47481.550000,228.484,3.012,112.640,400.244,-247.987,233.784,-162.780,-65.600,-58.060
137,47481.613000,228.484,2.008,108.544,400.171,-252.685,227.717,-147.780,-75.600,-63.060
138,47481.620000,228.484,3.012,107.520,404.984,-246.287,223.881,-140.780,-85.600,-56.060
139,47481.647000,227.501,0.000,104.448,402.997,-252.803,219.761,-119.780,-84.600,-57.060
140,47481.690000,229.466,0.000,108.544,404.886,-252.817,217.774,-97.780,-79.600,-62.060
141,47481.742000,227.501,0.000,107.520,407.836,-244.554,216.960,-44.780,-81.600,-60.060
142,47481.777000,229.466,0.000,105.472,408.731,-248.226,215.888,-13.780,-72.600,-57.060
143,47481.810000,227.501,5.020,104.448,408.787,-243.723,212.006,7.220,-51.600,-50.060
144,47481.830000,227.501,7.027,108.544,411.638,-242.769,212.030,59.220,-39.600,-16.060
145,47481.870000,228.484,8.031,103.424,409.760,-241.859,213.042,91.220,-15.600,-0.060
146,47481.909000,230.449,14.055,101.376,409.784,-240.806,220.026,136.220,14.400,21.940
147,47481.950000,227.501,17.067,107.520,408.850,-239.902,220.044,167.220,54.400,33.940
148,47481.987000,225.536,20.078,100.352,405.018,-243.578,221.950,190.220,71.400,32.940
149,47482.28000,227.501,21.082,104.448,406.987,-238.036,223.065,167.220,83.400,44.940
150,47482.53000,228.484,23.090,104.448,407.956,-236.991,229.057,164.220,67.400,50.940
151,47482.87000,229.466,22.086,107.520,406.069,-236.957,232.039,144.220,61.400,47.940
152,47482.128000,230.449,21.082,109.568,405.188,-232.350,234.125,137.220,27.400,63.940
153,47482.173000,228.484,18.071,103.424,402.238,-240.613,234.939,147.220,1.400,74.940
154,47482.207000,227.501,17.067,102.400,401.372,-235.070,238.040,153.220,-7.600,78.940
155,47482.247000,234.380,16.063,103.424,401.388,-234.115,240.049,163.220,3.400,76.940
156,47482.297000,231.432,19.075,104.448,403.295,-233.154,241.067,207.220,15.400,59.940
157,47482.319000,229.466,19.075,106.496,402.385,-231.198,248.070,195.220,46.400,61.940
158,47482.347000,224.553,16.063,109.568,396.670,-234.022,248.001,174.220,65.400,65.940
159,47482.387000,220.622,17.067,110.592,398.621,-230.234,253.058,160.220,62.400,73.940
160,47482.427000,221.605,16.063,112.640,392.843,-237.638,252.892,60.220,38.400,62.940
161,47482.468000,228.484,13.051,110.592,396.719,-231.137,255.025,40.220,15.400,36.940
162,47482.514000,226.518,5.020,108.544,394.764,-235.742,254.924,-4.780,-20.600,12.940
163,47482.535000,228.484,5.020,106.496,397.642,-232.937,255.983,-44.780,-42.600,-13.060
164,47482.569000,227.501,2.008,108.544,396.590,-240.337,252.840,-56.780,-49.600,-9.060
165,47482.613000,227.501,2.008,107.520,396.701,-232.111,252.021,-46.780,-21.600,-21.060
166,47482.654000,227.501,6.024,111.616,394.818,-231.259,250.047,-28.780,-16.600,-23.060
167,47482.688000,228.484,11.043,106.496,397.657,-231.222,250.052,-12.780,-22.600,-30.060
168,47482.729000,226.518,16.063,106.496,399.535,-232.132,249.040,-4.780,-38.600,-53.060
169,47482.748000,226.518,15.059,105.472,397.591,-235.841,247.964,-30.780,-49.600,-58.060
170,47482.788000,225.536,17.067,102.400,401.443,-230.392,243.112,-46.780,-48.600,-75.060
171,47482.828000,229.466,14.055,104.448,400.487,-231.282,245.081,-64.780,-64.600,-85.060
172,47482.871000,233.397,18.071,104.448,403.346,-229.470,242.140,-105.780,-36.600,-84.060
173,47482.927000,228.484,18.071,102.400,404.241,-233.142,241.069,-115.780,-49.600,-56.060
174,47482.958000,225.536,21.082,103.424,403.357,-228.574,241.165,-101.780,-22.600,-32.060
175,47482.972000,223.570,23.090,101.376,403.390,-225.884,238.238,-81.780,-13.600,3.940
176,47483.24000,223.570,22.086,103.424,405.170,-234.104,238.066,-30.780,-3.600,12.940
177,47483.48000,228.484,23.090,103.424,405.184,-233.169,239.080,-9.780,-2.600,22.940
178,47483.88000,230.449,24.094,105.472,409.962,-229.480,237.177,6.220,1.400,6.940
179,47483.128000,226.518,23.090,105.472,407.971,-236.815,238.012,3.220,4.400,-7.060
180,47483.169000,227.501,20.078,104.448,402.322,-235.019,240.031,-11.780,-2.600,-17.060
181,47483.208000,228.484,16.063,101.376,409.016,-229.493,237.175,-40.780,1.400,-28.060
182,47483.232000,226.518,10.039,102.400,407.021,-236.867,236.020,-103.780,5.400,-57.060
183,47483.268000,225.536,-1.004,97.280,408.068,-229.525,236.178,-179.780,-18.600,-101.060
184,47483.309000,226.518,-16.063,102.400,408.077,-228.648,234.208,-303.780,-3.600,-148.060
185,47483.348000,227.501,-22.086,118.784,414.591,-236.007,228.093,-302.780,18.400,-153.060
186,47483.392000,232.415,-19.075,119.808,412.754,-231.529,224.207,-298.780,-7.600,-164.060
187,47483.434000,227.501,-3.012,114.688,416.597,-226.957,221.326,-236.780,-66.600,-179.060
188,47483.455000,230.449,-7.027,114.688,420.306,-232.423,220.220,-184.780,-43.600,-121.060
189,47483.488000,238.311,3.012,109.568,426.000,-230.613,215.294,-127.780,-47.600,-75.060
190,47483.528000,237.328,17.067,97.280,423.110,-234.335,214.216,-83.780,7.400,6.940
191,47483.582000,221.605,19.075,86.016,426.920,-232.453,214.262,-109.780,13.400,72.940
192,47483.619000,245.190,32.125,102.400,421.344,-225.179,215.403,-135.780,142.400,-44.060
193,47483.648000,256.983,40.157,102.400,424.047,-235.200,216.188,-138.780,84.400,-44.060
194,47483.672000,247.155,24.094,109.568,422.138,-236.180,214.175,-177.780,105.400,-52.060
195,47483.712000,240.276,21.082,105.472,425.070,-229.671,217.302,-78.780,77.400,-134.060
196,47483.752000,226.518,29.114,95.232,426.030,-228.723,218.318,-54.780,-5.600,-166.060
197,47483.789000,203.916,28.110,107.520,428.830,-231.453,217.270,-80.780,16.400,-216.060
198,47483.830000,184.261,33.129,112.640,432.796,-217.739,213.589,-90.780,27.400,-289.060
199,47483.872000,161.658,31.122,111.616,435.701,-213.082,215.682,-164.780,25.400,-330.060
200,47483.914000,141.021,24.094,101.376,442.453,-203.034,209.938,-119.780,-95.600,-380.060
201,47483.938000,197.036,9.035,119.808,448.166,-200.230,209.011,-250.780,46.400,-448.060
202,47483.974000,259.931,16.063,113.664,451.038,-197.503,206.090,1.220,-108.600,-368.060
203,47484.15000,306.119,42.165,116.736,456.003,-180.852,211.424,228.220,11.400,-343.060
204,47484.52000,281.551,72.282,143.360,457.116,-168.872,214.665,407.220,123.400,-354.060
205,47484.90000,254.035,90.353,129.024,457.228,-161.406,221.786,417.220,138.400,-189.060
206,47484.139000,215.708,88.345,112.640,457.285,-157.663,225.845,384.220,88.400,-36.060
207,47484.155000,193.106,85.333,111.616,462.095,-152.065,227.960,352.220,-1.600,9.940
208,47484.195000,165.589,86.337,102.400,458.273,-154.844,228.890,218.220,-108.600,31.940
209,47484.229000,164.607,77.302,91.136,463.991,-152.001,229.954,89.220,-156.600,85.940
210,47484.269000,184.261,79.310,88.064,463.888,-158.589,220.862,-41.780,-194.600,96.940
211,47484.323000,199.985,66.259,83.968,461.915,-164.170,217.756,-202.780,-213.600,117.940
212,47484.350000,228.484,72.282,83.968,465.721,-162.346,214.817,-239.780,-175.600,52.940
213,47484.377000,224.553,64.251,80.896,467.520,-168.033,203.757,-211.780,-158.600,22.940
214,47484.410000,197.036,52.204,65.536,458.928,-173.642,203.625,-113.780,-17.600,-44.060
215,47484.449000,225.536,35.137,84.992,464.703,-167.037,209.742,-258.780,162.400,-32.060
216,47484.489000,208.829,18.071,86.016,459.995,-165.287,208.778,-37.780,147.400,-122.060
217,47484.529000,242.242,5.020,113.664,452.424,-166.166,215.710,-46.780,330.400,-177.060
218,47484.569000,257.965,-6.024,159.744,453.493,-157.791,221.858,-8.780,297.400,-98.060
219,47484.623000,260.914,-2.008,181.248,450.539,-166.873,227.628,64.220,239.400,-64.060
220,47484.630000,288.430,22.086,191.488,451.658,-154.834,233.854,52.220,163.400,-2.060
221,47484.670000,259.931,37.145,164.864,450.578,-164.105,228.682,-10.780,-13.600,67.940
222,47484.710000,214.726,45.176,121.856,450.542,-166.834,229.618,-77.780,-165.600,109.940
223,47484.750000,200.967,39.153,95.232,451.499,-165.165,220.703,-169.780,-202.600,104.940
224,47484.804000,205.881,62.243,90.112,456.173,-168.845,216.653,-173.780,-199.600,-41.060
225,47484.832000,222.587,72.282,82.944,453.364,-166.232,211.732,-223.780,-68.600,5.940
226,47484.855000,220.622,56.220,77.824,458.029,-170.789,209.652,-273.780,-64.600,-15.060
227,47484.903000,229.466,44.173,84.992,456.087,-174.478,209.571,-182.780,42.400,-37.060
228,47484.930000,234.380,54.212,73.728,458.879,-178.066,211.488,-84.780,19.400,14.940
229,47484.970000,228.484,48.188,75.776,459.870,-174.448,208.583,-10.780,36.400,40.940
230,47485.10000,209.812,52.204,96.256,456.050,-177.987,217.453,58.220,107.400,112.940
231,47485.62000,192.123,52.204,112.640,454.151,-178.090,213.470,-11.780,104.400,92.940
232,47485.70000,181.313,66.259,103.424,454.148,-178.889,219.421,-117.780,58.400,42.940
233,47485.110000,168.537,70.275,112.640,454.054,-185.380,215.304,-312.780,-29.600,39.940
234,47485.158000,236.345,66.259,133.120,453.048,-189.174,209.254,-586.780,-48.600,3.940
235,47485.192000,237.328,13.051,150.528,453.818,-201.227,201.041,-514.780,-92.600,180.940
236,47485.230000,249.121,-6.024,183.296,450.878,-208.613,199.885,-334.780,76.400,190.940
237,47485.275000,252.069,-13.051,183.296,447.005,-215.076,199.742,-109.780,160.400,208.940
238,47485.315000,233.397,3.012,174.080,448.986,-209.398,207.823,327.220,151.400,-43.060
239,47485.335000,224.553,27.106,142.336,447.155,-205.622,214.863,534.220,64.400,-142.060
240,47485.373000,186.226,58.227,122.880,450.190,-191.745,220.136,679.220,-27.600,-178.060
241,47485.413000,222.587,92.361,115.712,451.201,-187.893,229.171,627.220,73.400,-103.060
242,47485.454000,214.726,81.318,117.760,451.256,-184.170,232.234,420.220,20.400,69.940
243,47485.493000,220.622,80.314,123.904,445.594,-183.289,234.234,360.220,54.400,198.940
244,47485.533000,216.691,79.310,116.736,445.629,-181.340,240.243,340.220,-1.600,257.940
245,47485.554000,201.950,73.286,103.424,438.007,-185.124,239.157,296.220,-80.600,293.940
246,47485.590000,199.002,71.278,92.160,438.866,-191.524,239.022,155.220,-151.600,275.940
247,47485.634000,200.967,68.267,84.992,437.858,-196.098,239.918,56.220,-157.600,256.940
248,47485.670000,204.898,63.247,87.040,433.952,-204.491,234.760,6.220,-113.600,279.940
249,47485.710000,210.795,60.235,98.304,432.061,-204.496,235.752,28.220,9.400,289.940
250,47485.758000,212.760,63.247,107.520,425.366,-210.042,237.613,48.220,70.400,276.940
251,47485.773000,209.812,53.208,115.712,419.600,-216.530,237.466,34.220,59.400,271.940
252,47485.812000,216.691,40.157,115.712,414.733,-226.650,238.239,65.220,95.400,256.940
253,47485.852000,237.328,30.118,125.952,410.010,-226.615,243.205,51.220,88.400,212.940
254,47485.897000,233.397,10.039,122.880,403.390,-226.644,246.179,61.220,43.400,160.940
255,47485.930000,218.656,-7.027,123.904,399.493,-234.939,245.997,59.220,101.400,109.940
256,47485.970000,229.466,-29.114,132.096,391.951,-233.168,248.012,-35.780,173.400,137.940
257,47486.16000,244.207,-27.106,139.264,391.915,-235.897,248.949,124.220,130.400,167.940
258,47486.34000,249.121,-18.071,136.192,387.175,-237.596,258.852,122.220,176.400,179.940
259,47486.72000,223.570,-24.094,146.432,381.429,-243.090,262.705,163.220,138.400,138.940
260,47486.112000,201.950,-26.102,124.928,377.698,-239.417,265.762,216.220,-11.600,146.940
261,47486.152000,189.175,-22.086,109.568,374.824,-242.183,266.693,260.220,-77.600,158.940
262,47486.190000,189.175,-23.090,117.760,372.856,-247.705,266.573,271.220,-111.600,129.940
263,47486.237000,176.399,-14.055,115.712,377.705,-239.339,269.742,360.220,-134.600,121.940
264,47486.250000,194.088,-18.071,106.496,377.735,-237.448,272.766,420.220,-76.600,66.940
265,47486.290000,218.656,1.004,115.712,376.917,-228.260,274.950,467.220,-52.600,38.940
266,47486.330000,254.035,4.016,124.928,376.056,-222.659,281.036,483.220,-45.600,61.940
267,47486.372000,289.413,30.118,130.048,373.331,-214.432,282.201,459.220,-15.600,41.940
268,47486.413000,268.775,53.208,124.928,377.170,-210.678,284.276,340.220,-81.600,-94.060
269,47486.463000,248.138,42.165,126.976,378.146,-208.775,287.302,168.220,-112.600,-108.060
270,47486.477000,227.501,17.067,109.568,378.144,-208.794,286.307,52.220,-162.600,-68.060
271,47486.517000,205.881,12.047,103.424,381.025,-205.190,281.415,20.220,-182.600,-59.060
272,47486.552000,198.019,13.051,102.400,387.597,-208.786,280.353,-1.780,-179.600,-52.060
273,47486.597000,203.916,11.043,97.280,386.682,-206.129,276.430,8.220,-156.600,-60.060
274,47486.637000,212.760,13.051,95.232,390.540,-200.601,275.559,-13.780,-141.600,-53.060
275,47486.677000,227.501,15.059,96.256,391.396,-207.041,273.434,2.220,-103.600,-54.060
276,47486.694000,237.328,14.055,97.280,391.511,-197.997,267.658,8.220,-130.600,1.940
277,47486.735000,235.363,19.075,86.016,393.386,-198.946,264.657,-3.780,-123.600,42.940
278,47486.782000,221.605,30.118,79.872,396.173,-202.593,263.589,-47.780,-148.600,48.940
279,47486.815000,218.656,41.161,80.896,395.145,-208.180,259.490,-171.780,-149.600,87.940
280,47486.865000,197.036,44.173,74.752,393.205,-211.071,253.458,-266.780,-181.600,167.940
281,47486.902000,225.536,36.141,88.064,395.889,-222.085,250.243,-330.780,-12.600,175.940
282,47486.934000,230.449,67.263,103.424,393.952,-224.937,246.201,-208.780,-25.600,173.940
283,47486.954000,281.551,61.239,144.384,392.970,-227.678,247.136,-238.780,106.400,154.940
284,47487.7000,287.447,67.263,142.336,393.876,-230.453,245.089,-169.780,29.400,65.940
285,47487.34000,267.793,33.129,117.760,391.930,-234.182,243.018,-211.780,-39.600,18.940
286,47487.74000,232.415,18.071,91.136,393.775,-237.022,236.992,-255.780,-125.600,-72.060
287,47487.114000,218.656,10.039,93.184,391.790,-243.519,233.867,-163.780,-121.600,-98.060
288,47487.154000,234.380,-8.031,75.776,396.579,-238.934,230.988,-190.780,-109.600,-58.060
289,47487.175000,234.380,-18.071,82.944,396.600,-237.141,229.037,-162.780,-19.600,-26.060
290,47487.220000,222.587,-2.008,87.040,396.495,-244.528,225.895,-90.780,-1.600,-14.060
291,47487.254000,216.691,-11.043,96.256,396.533,-241.780,225.954,-114.780,106.400,25.940
292,47487.302000,217.674,-13.051,87.040,393.592,-249.166,224.798,-118.780,93.400,33.940
293,47487.334000,215.708,-16.063,83.968,392.671,-247.346,224.835,-174.780,47.400,27.940
294,47487.373000,214.726,-22.086,84.992,389.859,-245.532,225.864,-219.780,51.400,-2.060
295,47487.393000,222.587,-21.082,98.304,394.524,-250.089,223.785,-141.780,76.400,-51.060
296,47487.434000,228.484,-19.075,97.280,390.771,-248.229,227.797,-44.780,124.400,-52.060
297,47487.474000,239.294,-17.067,108.544,391.739,-246.423,225.848,123.220,195.400,-102.060
298,47487.520000,245.190,-10.039,117.760,391.761,-245.390,231.838,262.220,167.400,-129.060
299,47487.553000,225.536,2.008,121.856,389.982,-237.930,239.951,306.220,65.400,-205.060
300,47487.611000,221.605,4.016,121.856,398.686,-224.075,240.259,204.220,-93.600,-299.060
301,47487.633000,212.760,0.000,110.592,405.332,-222.194,238.319,115.220,-219.600,-333.060
302,47487.653000,209.812,4.016,102.400,412.136,-208.463,233.649,31.220,-275.600,-344.060
303,47487.694000,216.691,1.004,101.376,418.791,-205.705,229.739,-6.780,-312.600,-315.060
304,47487.734000,230.449,-3.012,95.232,422.587,-203.979,221.824,-34.780,-319.600,-278.060
305,47487.774000,251.086,2.008,87.040,430.289,-193.879,218.072,-115.780,-308.600,-296.060
306,47487.815000,251.086,6.024,84.992,438.861,-188.504,206.263,-204.780,-330.600,-303.060
307,47487.858000,253.052,10.039,69.632,445.548,-183.056,199.426,-328.780,-273.600,-342.060
308,47487.878000,252.069,15.059,57.344,453.116,-182.216,190.504,-566.780,-199.600,-355.060
309,47487.918000,233.397,24.094,57.344,461.599,-183.273,177.564,-616.780,-130.600,-386.060
310,47487.958000,261.896,32.125,69.632,463.576,-176.874,175.713,-741.780,105.400,-359.060
311,47487.997000,255.017,47.184,105.472,469.332,-171.263,177.831,-659.780,311.400,-290.060
312,47488.37000,244.207,63.247,109.568,468.403,-170.301,180.834,-502.780,369.400,-284.060
313,47488.83000,219.639,85.333,122.880,471.233,-171.141,182.809,-366.780,372.400,-246.060
314,47488.105000,198.019,106.416,133.120,472.212,-169.198,187.825,-389.780,263.400,-268.060
315,47488.142000,214.726,107.420,133.120,475.178,-159.980,189.020,-432.780,148.400,-197.060
316,47488.177000,221.605,97.380,135.168,477.960,-163.685,184.967,-427.780,38.400,-127.060
317,47488.217000,215.708,79.310,126.976,479.853,-163.660,184.970,-407.780,4.400,-68.060
318,47488.257000,217.674,73.286,120.832,477.943,-164.660,181.962,-338.780,-22.600,-35.060
319,47488.310000,208.829,68.267,114.688,479.782,-168.338,179.898,-238.780,-43.600,-32.060
320,47488.338000,197.036,67.263,111.616,484.559,-164.670,176.999,-222.780,-25.600,-57.060
321,47488.353000,182.296,69.271,112.640,484.539,-165.664,172.999,-300.780,-51.600,-121.060
322,47488.394000,186.226,75.294,113.664,490.242,-163.757,173.048,-411.780,-20.600,-197.060
323,47488.433000,168.537,56.220,111.616,486.469,-162.131,165.120,-513.780,-61.600,-185.060
324,47488.474000,167.555,45.176,108.544,489.241,-165.953,155.096,-670.780,-38.600,-200.060
325,47488.515000,190.157,32.125,119.808,487.382,-163.269,153.161,-583.780,-22.600,-173.060
326,47488.572000,217.674,35.137,122.880,491.190,-160.646,144.271,-522.780,-113.600,-169.060
327,47488.590000,272.706,30.118,131.072,495.926,-159.765,139.324,-274.780,-92.600,-147.060
328,47488.617000,277.620,45.176,138.240,496.005,-153.449,134.485,-16.780,-98.600,-108.060
329,47488.657000,268.775,51.200,122.880,497.912,-152.489,135.503,204.220,-41.600,0.940
330,47488.709000,241.259,58.227,111.616,493.139,-156.118,140.392,385.220,4.400,135.940
331,47488.737000,219.639,58.227,107.520,494.118,-154.176,145.408,463.220,25.400,218.940
332,47488.777000,199.002,45.176,102.400,493.016,-166.020,149.133,552.220,55.400,291.940
333,47488.799000,196.054,41.161,92.160,488.318,-164.153,154.139,571.220,48.400,369.940
334,47488.834000,203.916,45.176,98.304,489.206,-169.442,163.974,661.220,70.400,382.940
335,47488.874000,215.708,51.200,101.376,485.381,-173.039,169.859,677.220,100.400,345.940
336,47488.913000,216.691,57.224,109.568,480.691,-171.074,179.841,684.220,96.400,299.940
337,47488.953000,212.760,67.263,104.448,475.924,-174.626,188.710,703.220,70.400,226.940
338,47488.999000,212.760,78.306,90.112,471.167,-177.300,195.608,623.220,29.400,186.940
339,47489.17000,214.726,79.310,87.040,470.261,-174.525,197.655,518.220,26.400,169.940
340,47489.62000,221.605,74.290,98.304,470.334,-169.827,203.723,338.220,82.400,197.940
341,47489.97000,216.691,58.227,97.280,466.439,-178.083,205.531,267.220,108.400,227.940
342,47489.137000,205.881,32.125,99.328,460.711,-182.603,212.389,184.220,105.400,236.940
343,47489.177000,222.587,25.098,97.280,455.950,-185.316,217.297,155.220,182.400,116.940
344,47489.217000,219.639,13.051,123.904,453.216,-177.966,220.433,165.220,50.400,83.940
345,47489.256000,235.363,-12.047,141.312,453.219,-177.927,222.424,3.220,80.400,56.940
346,47489.276000,259.931,-27.106,155.648,451.266,-182.513,223.318,69.220,20.400,72.940
347,47489.318000,260.914,-6.024,155.648,453.094,-187.088,222.228,86.220,-18.600,78.940
348,47489.357000,245.190,10.039,131.072,450.291,-184.397,221.287,30.220,-137.600,102.940
349,47489.417000,232.415,22.086,112.640,455.030,-183.477,218.330,-40.780,-159.600,103.940
350,47489.435000,208.829,21.082,84.992,450.160,-192.857,210.166,-177.780,-191.600,99.940
351,47489.476000,208.829,36.141,81.920,455.888,-189.117,210.254,-261.780,-75.600,-62.060
352,47489.497000,249.121,63.247,87.040,455.796,-195.589,207.132,-300.780,34.400,-106.060
353,47489.537000,236.345,41.161,95.232,455.823,-192.957,201.220,-353.780,46.400,-74.060
354,47489.577000,224.553,42.165,104.448,458.703,-190.132,203.274,-230.780,95.400,-184.060
355,47489.624000,230.449,50.196,95.232,460.617,-188.314,201.326,-207.780,55.400,-195.060
356,47489.655000,206.864,46.180,93.184,463.495,-185.509,202.385,-142.780,5.400,-162.060
357,47489.696000,206.864,47.184,97.280,461.650,-181.908,200.469,-121.780,21.400,-141.060
358,47489.715000,192.123,49.192,121.856,464.392,-189.161,202.308,-163.780,49.400,-154.060
359,47489.758000,202.933,55.216,124.928,466.331,-185.510,200.400,-223.780,71.400,-208.060
360,47489.798000,218.656,52.204,125.952,465.383,-185.542,199.403,-239.780,2.400,-183.060
361,47489.838000,238.311,57.224,118.784,469.199,-182.822,195.488,-260.780,-62.600,-186.060
362,47489.880000,238.311,47.184,116.736,471.196,-174.649,190.692,-130.780,-124.600,-65.060
363,47489.914000,235.363,48.188,112.640,471.110,-181.043,191.550,51.220,-87.600,20.940
364,47489.954000,220.622,56.220,110.592,473.062,-176.476,189.661,240.220,-62.600,113.940
365,47489.975000,217.674,58.227,109.568,469.227,-180.191,189.576,285.220,-24.600,143.940
366,47490.18000,213.743,69.271,107.520,471.143,-179.113,196.564,342.220,3.400,194.940
367,47490.58000,209.812,68.267,105.472,467.235,-188.305,197.358,337.220,0.400,284.940
368,47490.97000,211.777,70.275,103.424,463.506,-184.612,201.409,334.220,-5.600,326.940
369,47490.136000,217.674,71.278,98.304,460.624,-188.236,205.306,330.220,-8.600,380.940
370,47490.176000,210.795,66.259,96.256,452.880,-201.142,206.015,333.220,-8.600,415.940
371,47490.197000,223.570,67.263,87.040,442.337,-211.318,207.772,292.220,18.400,425.940
372,47490.237000,219.639,59.231,91.136,441.393,-212.071,216.706,316.220,55.400,451.940
373,47490.277000,218.656,66.259,104.448,429.040,-216.678,223.552,378.220,162.400,461.940
374,47490.319000,224.553,55.216,106.496,424.228,-223.075,227.388,374.220,196.400,474.940
375,47490.355000,217.674,45.176,108.544,413.763,-228.475,239.193,379.220,266.400,428.940
376,47490.398000,223.570,30.118,119.808,403.251,-236.741,244.969,324.220,276.400,362.940
377,47490.418000,209.812,13.051,119.808,394.787,-233.929,253.968,271.220,191.400,322.940
378,47490.458000,243.225,-22.086,150.528,386.148,-243.944,262.694,192.220,251.400,252.940
379,47490.499000,254.035,-32.125,156.672,378.582,-243.985,265.666,189.220,126.400,240.940
380,47490.540000,230.449,-38.149,151.552,377.668,-242.087,269.684,285.220,79.400,197.940
381,47490.578000,245.190,-37.145,145.408,372.896,-245.697,275.568,290.220,80.400,111.940
382,47490.618000,217.674,-25.098,137.216,369.219,-238.321,280.692,301.220,-15.600,74.940
383,47490.657000,202.933,-13.051,130.048,373.033,-236.399,282.728,245.220,-61.600,8.940
384,47490.675000,199.985,-15.059,119.808,369.269,-234.656,280.770,165.220,-101.600,7.940
385,47490.730000,199.985,-14.055,114.688,369.212,-239.178,283.658,148.220,-115.600,25.940
386,47490.755000,206.864,-16.063,116.736,371.151,-235.528,281.749,106.220,-77.600,47.940
387,47490.799000,206.864,-11.043,117.760,372.063,-238.225,283.682,130.220,-94.600,38.940
388,47490.839000,203.916,-18.071,116.736,373.156,-227.258,281.928,156.220,-71.600,6.940
389,47490.879000,209.812,-4.016,110.592,374.021,-233.580,285.773,230.220,-87.600,-65.060
390,47490.899000,216.691,-9.035,114.688,376.012,-226.245,284.938,294.220,-80.600,-69.060
391,47490.944000,243.225,7.027,110.592,374.193,-220.793,284.057,310.220,-85.600,-105.060
392,47490.978000,257.965,24.094,119.808,380.969,-209.692,285.297,273.220,-79.600,-133.060
393,47491.19000,252.069,28.110,121.856,381.988,-204.982,291.367,246.220,-133.600,-213.060
394,47491.55000,252.069,55.216,114.688,388.813,-189.457,284.745,142.220,-156.600,-296.060
395,47491.98000,244.207,52.204,111.616,392.607,-188.530,282.781,31.220,-181.600,-278.060
396,47491.115000,237.328,42.165,92.160,393.504,-192.182,282.705,-37.780,-243.600,-227.060
397,47491.159000,222.587,41.161,89.088,402.154,-181.271,273.003,-98.780,-258.600,-166.060
398,47491.204000,218.656,33.129,81.920,406.825,-184.990,266.963,-102.780,-247.600,-74.060
399,47491.238000,219.639,31.122,84.992,409.693,-182.302,262.052,-112.780,-195.600,-24.060
400,47491.275000,223.570,30.118,84.992,405.803,-189.739,258.904,-117.780,-130.600,51.940
401,47491.315000,225.536,28.110,89.088,407.717,-187.921,256.956,-110.780,-88.600,84.940
402,47491.337000,232.415,21.082,78.848,407.678,-190.689,255.902,-111.780,-70.600,102.940
403,47491.377000,236.345,30.118,79.872,409.519,-194.348,254.833,-130.780,-23.600,92.940
404,47491.417000,226.518,27.106,79.872,405.627,-201.805,250.689,-177.780,-37.600,83.940
405,47491.469000,223.570,24.094,78.848,406.531,-204.600,247.647,-322.780,-33.600,85.940
406,47491.496000,217.674,29.114,82.944,408.290,-213.834,242.480,-336.780,-26.600,75.940
407,47491.537000,235.363,23.090,97.280,400.651,-218.592,238.389,-354.780,25.400,72.940
408,47491.578000,244.207,35.137,115.712,400.667,-217.637,240.399,-218.780,103.400,39.940
409,47491.598000,252.069,39.153,141.312,402.522,-220.361,240.344,-178.780,160.400,-26.060
410,47491.643000,235.363,31.122,125.952,403.459,-221.225,242.316,-72.780,91.400,-91.060
411,47491.679000,224.553,23.090,114.688,405.387,-218.471,241.383,-16.780,31.400,-114.060
412,47491.719000,229.466,14.055,104.448,403.480,-219.432,240.365,-29.780,-18.600,-121.060
413,47491.759000,217.674,24.094,104.448,402.611,-213.928,241.475,72.220,-87.600,-94.060
414,47491.801000,241.259,11.043,93.184,406.442,-211.032,246.516,36.220,-81.600,-33.060
415,47491.823000,236.345,16.063,87.040,413.020,-213.791,241.494,63.220,-116.600,-67.060
416,47491.868000,226.518,11.043,84.992,412.039,-215.753,235.483,14.220,-119.600,-31.060
417,47491.900000,230.449,9.035,82.944,413.135,-204.746,235.718,-24.780,-121.600,-53.060
418,47491.983000,222.587,13.051,82.944,415.864,-212.155,229.597,-89.780,-104.600,-99.060
419,47492.0,219.639,11.043,80.896,419.782,-202.086,226.833,-102.780,-93.600,-116.060
420,47492.31000,217.674,11.043,81.920,417.844,-205.717,229.737,-117.780,-28.600,-146.060
421,47492.39000,229.466,18.071,86.016,418.839,-202.060,228.822,-92.780,14.400,-162.060
422,47492.80000,241.259,17.067,78.848,422.680,-197.507,224.946,3.220,13.400,-129.060
423,47492.116000,256.000,31.122,91.136,421.751,-196.545,227.949,24.220,82.400,-151.060
424,47492.157000,256.983,38.149,99.328,422.851,-185.500,230.175,128.220,94.400,-229.060
425,47492.209000,250.104,55.216,101.376,425.657,-188.152,233.106,171.220,58.400,-251.060
426,47492.240000,240.276,46.180,94.208,430.539,-177.096,233.349,88.220,-20.600,-238.060
427,47492.278000,231.432,38.149,87.040,425.779,-179.030,231.311,-46.780,-105.600,-187.060
428,47492.298000,226.518,26.102,89.088,434.417,-169.795,229.531,-128.780,-120.600,-140.060
429,47492.350000,217.674,18.071,89.088,439.092,-173.475,225.481,-91.780,-143.600,-113.060
430,47492.378000,216.691,18.071,86.016,440.964,-174.464,220.490,-60.780,-151.600,-106.060
431,47492.419000,228.484,12.047,76.800,443.843,-170.879,214.603,-18.780,-146.600,-138.060
432,47492.465000,227.501,16.063,75.776,453.386,-165.198,217.722,-14.780,-152.600,-147.060
433,47492.499000,244.207,15.059,71.680,446.827,-159.906,211.857,-59.780,-144.600,-145.060
434,47492.519000,249.121,28.110,72.704,453.554,-151.691,206.074,-159.780,-114.600,-175.060
435,47492.560000,246.173,37.145,65.536,459.184,-154.481,200.055,-386.780,-96.600,-193.060
436,47492.596000,242.242,35.137,66.560,461.934,-160.876,198.928,-580.780,-56.600,-208.060
437,47492.636000,235.363,38.149,72.704,466.743,-154.518,193.103,-840.780,11.400,-204.060
438,47492.677000,249.121,42.165,86.016,468.613,-155.526,187.116,-858.780,146.400,-144.060
439,47492.720000,253.052,52.204,124.928,469.458,-162.862,185.967,-825.780,225.400,-69.060
440,47492.740000,247.155,67.263,139.264,471.214,-172.895,186.750,-660.780,245.400,-54.060
441,47492.780000,211.777,76.298,141.312,474.037,-173.813,184.746,-552.780,212.400,-66.060
442,47492.819000,211.777,90.353,145.408,471.264,-169.230,186.828,-493.780,164.400,-143.060
443,47492.859000,217.674,92.361,139.264,475.977,-170.162,182.837,-495.780,36.400,-100.060
444,47492.898000,215.708,76.298,134.144,477.818,-173.821,181.767,-486.780,-20.600,-76.060
445,47492.951000,207.846,73.286,121.856,482.552,-172.960,175.825,-357.780,-41.600,-64.060
446,47492.984000,199.985,63.247,107.520,484.414,-174.825,172.804,-297.780,-76.600,-23.060
447,47492.998000,195.071,59.231,110.592,480.522,-182.283,168.661,-235.780,-56.600,-6.060
448,47493.43000,193.106,63.247,107.520,483.403,-178.678,163.769,-268.780,-55.600,-34.060
449,47493.83000,181.313,57.224,112.640,484.330,-179.660,159.771,-304.780,-59.600,-69.060
450,47493.121000,193.106,56.220,111.616,486.216,-179.713,155.794,-413.780,-74.600,-67.060
451,47493.159000,182.296,32.125,104.448,487.113,-182.585,148.771,-451.780,-114.600,-74.060
452,47493.203000,204.898,24.094,105.472,491.783,-186.324,141.736,-378.780,-77.600,-63.060
453,47493.219000,254.035,20.078,112.640,487.072,-184.613,138.782,-290.780,-23.600,-6.060
454,47493.264000,256.983,31.122,133.120,490.905,-180.918,137.872,-1.780,32.400,23.940
455,47493.302000,259.931,36.141,138.240,488.932,-187.278,141.712,121.220,95.400,38.940
456,47493.351000,242.242,39.153,130.048,483.232,-189.146,143.653,226.220,50.400,126.940
457,47493.387000,230.449,38.149,124.928,487.074,-185.353,147.718,239.220,1.400,157.940
458,47493.422000,212.760,42.165,115.712,480.380,-190.879,150.574,263.220,-74.600,182.940
459,47493.441000,199.985,38.149,102.400,485.069,-193.624,147.539,256.220,-139.600,219.940
460,47493.480000,212.760,34.133,91.136,481.180,-201.042,145.386,246.220,-134.600,240.940
461,47493.520000,214.726,34.133,92.160,483.070,-201.816,151.340,247.220,-119.600,251.940
462,47493.560000,232.415,42.165,97.280,475.470,-203.807,148.303,258.220,-45.600,229.940
463,47493.600000,238.311,37.145,95.232,476.371,-207.400,151.211,226.220,-20.600,215.940
464,47493.639000,235.363,31.122,89.088,471.654,-206.527,152.218,246.220,17.400,179.940
465,47493.659000,234.380,27.106,87.040,469.745,-208.287,157.150,215.220,43.400,151.940
466,47493.714000,226.518,9.035,90.112,467.795,-212.834,160.035,224.220,46.400,143.940
467,47493.742000,220.622,3.012,91.136,469.519,-225.556,163.745,290.220,61.400,66.940
468,47493.782000,224.553,5.020,95.232,467.880,-207.980,174.063,343.220,117.400,-24.060
469,47493.822000,227.501,10.039,111.616,467.868,-208.896,174.044,324.220,100.400,-89.060
470,47493.861000,228.484,-2.008,130.048,468.938,-200.502,181.186,158.220,107.400,-135.060
471,47493.902000,248.138,14.055,148.480,469.952,-195.850,184.271,115.220,131.400,-107.060
472,47493.922000,228.484,22.086,133.120,466.133,-198.609,186.196,59.220,8.400,-24.060
473,47493.959000,221.605,29.114,113.664,471.809,-198.554,185.211,34.220,-6.600,-22.060
474,47494.2000,212.760,33.129,106.496,470.939,-193.050,186.321,-19.780,-42.600,-75.060
475,47494.38000,237.328,59.231,113.664,468.992,-196.798,183.254,-130.780,-6.600,-181.060
476,47494.84000,239.294,51.200,97.280,474.770,-189.394,183.421,-212.780,-11.600,-149.060
477,47494.135000,223.570,44.173,98.304,475.797,-183.047,179.579,-161.780,-22.600,-152.060
478,47494.143000,224.553,50.196,90.112,477.625,-187.622,178.489,-118.780,-69.600,-165.060
479,47494.180000,213.743,48.188,89.088,477.742,-178.558,173.709,-99.780,-83.600,-142.060
480,47494.221000,204.898,40.157,91.136,477.762,-176.784,170.763,-17.780,-65.600,-138.060
481,47494.259000,198.019,55.216,94.208,484.382,-177.515,175.730,11.220,-29.600,-177.060
482,47494.313000,227.501,60.235,104.448,482.563,-171.284,167.903,-79.780,5.400,-178.060
483,47494.340000,234.380,58.227,107.520,483.509,-172.051,174.851,-57.780,14.400,-71.060
484,47494.361000,245.190,57.224,110.592,479.756,-169.411,171.918,-7.780,14.400,8.940
485,47494.408000,238.311,51.200,106.496,483.527,-170.296,170.910,113.220,-10.600,104.940
486,47494.444000,238.311,54.212,107.520,477.883,-168.441,175.914,327.220,-15.600,206.940
487,47494.479000,221.605,56.220,106.496,480.607,-176.669,174.748,433.220,-32.600,254.940
488,47494.524000,214.726,60.235,97.280,478.750,-174.744,180.754,487.220,-43.600,285.940
489,47494.566000,217.674,64.251,97.280,471.989,-185.669,188.469,485.220,-31.600,324.940
490,47494.599000,217.674,67.263,94.208,469.996,-193.023,188.309,451.220,-27.600,381.940
491,47494.627000,219.639,66.259,91.136,464.308,-193.995,189.275,395.220,-46.600,428.940
492,47494.660000,221.605,63.247,87.040,461.393,-200.309,196.099,360.220,-51.600,437.940
493,47494.700000,223.570,61.239,83.968,457.547,-204.920,196.990,340.220,-40.600,429.940
494,47494.740000,225.536,60.235,76.800,450.753,-217.775,199.690,350.220,-13.600,403.940
495,47494.788000,221.605,61.239,81.920,442.244,-217.790,204.650,350.220,48.400,381.940
496,47494.821000,215.708,61.239,92.160,436.515,-222.309,211.508,352.220,131.400,356.940
497,47494.841000,218.656,57.224,96.256,431.810,-221.299,219.480,372.220,206.400,323.940
498,47494.902000,220.622,48.188,93.184,422.246,-229.533,226.253,387.220,255.400,289.940
499,47494.928000,213.743,44.173,100.352,411.794,-234.017,238.077,375.220,282.400,182.940
500,47494.961000,231.432,38.149,108.544,407.038,-236.671,245.971,317.220,238.400,146.940
501,47495.0,240.276,3.012,130.048,401.458,-230.216,252.068,206.220,264.400,153.940
502,47495.39000,286.464,-24.094,146.432,393.961,-225.599,259.118,174.220,225.400,178.940
503,47495.59000,240.276,-30.118,146.432,385.314,-235.711,262.868,259.220,140.400,230.940
504,47495.103000,241.259,-33.129,142.336,378.678,-237.475,270.778,232.220,174.400,180.940
505,47495.139000,229.466,-21.082,130.048,374.965,-232.827,276.839,300.220,18.400,130.940
506,47495.179000,215.708,-16.063,114.688,373.073,-232.852,276.836,200.220,-35.600,109.940
507,47495.225000,203.916,-14.055,112.640,370.246,-231.973,276.850,146.220,-73.600,79.940
508,47495.259000,198.019,-18.071,110.592,373.090,-231.877,279.840,80.220,-102.600,102.940
509,47495.299000,204.898,-22.086,105.472,368.252,-239.347,275.696,33.220,-43.600,152.940
510,47495.325000,205.881,-19.075,110.592,363.510,-240.306,276.663,58.220,20.400,196.940
511,47495.368000,206.864,-27.106,113.664,361.538,-246.646,281.498,152.220,34.400,185.940
512,47495.402000,206.864,-20.078,114.688,364.428,-242.925,282.576,255.220,38.400,114.940
513,47495.441000,215.708,-20.078,117.760,363.589,-235.530,286.711,360.220,20.400,59.940
514,47495.482000,222.587,-11.043,117.760,360.780,-233.677,289.730,396.220,-45.600,31.940
515,47495.520000,244.207,5.020,117.760,360.924,-223.521,293.925,390.220,-89.600,-4.060
516,47495.546000,261.896,7.027,129.024,363.852,-217.051,295.062,301.220,-117.600,-86.060
517,47495.593000,258.948,32.125,124.928,369.508,-218.770,297.023,193.220,-150.600,-144.060
518,47495.621000,243.225,27.106,119.808,372.416,-213.313,293.165,4.220,-220.600,-242.060
519,47495.661000,232.415,21.082,102.400,381.958,-206.873,288.343,-97.780,-256.600,-269.060
520,47495.703000,221.605,16.063,95.232,385.728,-206.999,279.394,-134.780,-297.600,-233.060
521,47495.745000,215.708,15.059,91.136,393.362,-201.538,272.559,-196.780,-293.600,-225.060
522,47495.765000,218.656,17.067,84.992,397.139,-201.586,267.590,-200.780,-302.600,-214.060
523,47495.804000,219.639,15.059,81.920,400.895,-202.647,257.627,-221.780,-273.600,-197.060
524,47495.844000,231.432,20.078,77.824,403.724,-202.727,251.662,-239.780,-257.600,-170.060
525,47495.893000,234.380,24.094,71.680,413.227,-199.054,245.786,-253.780,-227.600,-191.060
526,47495.920000,247.155,24.094,68.608,415.131,-197.353,237.868,-365.780,-178.600,-170.060
527,47495.969000,244.207,25.098,67.584,415.129,-196.613,228.932,-503.780,-156.600,-138.060
528,47495.983000,254.035,24.094,66.560,422.613,-202.146,221.863,-646.780,-77.600,-141.060
529,47496.24000,255.017,16.063,69.632,419.648,-210.585,213.722,-818.780,-17.600,-113.060
530,47496.64000,253.052,15.059,70.656,420.547,-213.438,207.695,-841.780,12.400,-135.060
531,47496.104000,243.225,1.004,70.656,426.078,-222.778,194.574,-893.780,8.400,-202.060
532,47496.144000,240.276,-22.086,77.824,426.952,-227.463,188.507,-830.780,36.400,-233.060
533,47496.185000,229.466,-47.184,83.968,428.943,-219.349,180.726,-699.780,53.400,-182.060
534,47496.220000,224.553,-52.204,88.064,432.575,-230.332,178.508,-371.780,115.400,-177.060
535,47496.246000,224.553,-57.224,86.016,432.724,-219.358,177.747,-48.780,116.400,-179.060
536,47496.293000,217.674,-39.153,82.944,436.626,-211.004,180.915,153.220,92.400,-264.060
537,47496.320000,230.449,-22.086,78.848,444.282,-205.290,187.016,316.220,63.400,-332.060
538,47496.360000,231.432,-4.016,76.800,450.102,-195.079,190.226,275.220,61.400,-360.060
539,47496.403000,237.328,13.051,78.848,453.012,-190.363,195.303,179.220,40.400,-379.060
540,47496.441000,238.311,33.129,82.944,458.857,-178.320,198.552,-106.780,79.400,-367.060
541,47496.461000,235.363,44.173,94.208,461.857,-166.392,197.816,-380.780,114.400,-334.060
542,47496.508000,271.724,62.243,133.120,465.625,-167.317,194.818,-533.780,191.400,-384.060
543,47496.546000,263.862,107.420,150.528,470.372,-166.299,196.836,-581.780,222.400,-344.060
544,47496.584000,224.553,103.404,161.792,473.391,-153.378,200.099,-554.780,228.400,-325.060
545,47496.621000,219.639,124.486,153.600,479.052,-154.277,197.105,-490.780,179.400,-271.060
546,47496.664000,204.898,113.443,146.432,476.222,-153.438,195.129,-476.780,61.400,-204.060
547,47496.684000,211.777,106.416,148.480,480.029,-151.594,193.185,-449.780,20.400,-125.060
548,47496.724000,183.278,89.349,134.144,480.947,-153.453,191.157,-290.780,-24.600,-67.060
549,47496.766000,181.313,85.333,118.784,485.505,-166.197,191.887,-230.780,-58.600,2.940
550,47496.809000,180.330,71.278,108.544,488.446,-158.031,186.098,-240.780,-90.600,41.940
551,47496.849000,181.313,60.235,110.592,487.427,-162.742,180.028,-220.780,-68.600,53.940
552,47496.881000,178.365,56.220,120.832,491.234,-160.898,178.084,-189.780,-30.600,14.940
553,47496.921000,161.658,52.204,139.264,488.297,-168.245,178.917,-174.780,-7.600,-38.060
554,47496.944000,167.555,46.180,132.096,490.236,-164.595,177.009,-223.780,-81.600,-82.060
555,47496.983000,177.382,38.149,126.976,489.339,-160.183,169.144,-241.780,-127.600,-121.060
556,47497.21000,215.708,44.173,130.048,495.068,-155.664,162.286,-247.780,-184.600,-151.060
557,47497.63000,253.052,41.161,129.024,496.018,-154.833,157.332,-154.780,-234.600,-111.060
558,47497.106000,283.516,54.212,139.264,494.082,-157.684,153.290,52.220,-196.600,-86.060
559,47497.144000,276.637,68.267,123.904,496.043,-152.241,149.430,315.220,-169.600,-16.060
560,47497.165000,261.896,67.263,113.664,499.751,-157.707,148.325,430.220,-152.600,90.940
561,47497.203000,220.622,62.243,96.256,499.815,-153.107,149.418,467.220,-175.600,188.940
562,47497.245000,197.036,54.212,78.848,501.608,-160.411,149.265,448.220,-163.600,256.940
563,47497.285000,204.898,57.224,77.824,502.533,-162.191,151.218,397.220,-111.600,276.940
564,47497.325000,220.622,57.224,76.800,495.857,-165.963,150.133,345.220,-83.600,280.940
565,47497.365000,233.397,57.224,76.800,493.996,-164.078,154.149,316.220,-43.600,233.940
566,47497.385000,237.328,57.224,76.800,494.899,-167.652,158.053,299.220,-6.600,184.940
567,47497.425000,236.345,52.204,70.656,492.049,-168.586,159.023,283.220,51.400,138.940
568,47497.465000,215.708,43.169,72.704,491.095,-169.456,161.987,278.220,113.400,112.940
569,47497.505000,202.933,36.141,71.680,488.180,-175.770,168.811,267.220,138.400,49.940
570,47497.545000,205.881,22.086,82.944,489.265,-166.440,176.968,181.220,159.400,24.940
571,47497.585000,227.501,22.086,116.736,487.335,-169.213,176.906,146.220,178.400,-34.060
572,47497.604000,248.138,16.063,135.168,485.534,-163.546,186.971,74.220,269.400,2.940
573,47497.644000,277.620,30.118,167.936,482.678,-165.318,191.902,109.220,245.400,11.940
574,47497.688000,261.896,58.227,144.384,479.779,-169.917,192.794,82.220,58.400,-0.060
575,47497.721000,223.570,56.220,109.568,479.827,-166.272,191.877,-63.780,-64.600,-4.060
576,47497.765000,221.605,65.255,93.184,485.537,-163.507,188.961,-218.780,-136.600,-111.060
577,47497.801000,231.432,62.243,87.040,490.175,-169.936,184.852,-363.780,-120.600,-117.060
578,47497.846000,228.484,54.212,86.016,485.486,-166.412,180.942,-395.780,-41.600,-117.060
579,47497.861000,217.674,54.212,92.160,488.358,-163.684,178.020,-328.780,13.400,-136.060
580,47497.903000,210.795,56.220,90.112,485.411,-171.148,172.884,-296.780,-16.600,-103.060
581,47497.946000,207.846,54.212,92.160,491.189,-163.744,173.050,-292.780,-19.600,-103.060
582,47497.986000,201.950,49.192,101.376,491.116,-168.442,166.982,-274.780,-6.600,-99.060
583,47498.23000,196.054,49.192,114.688,491.143,-166.590,168.016,-255.780,23.400,-107.060
584,47498.68000,211.777,52.204,114.688,492.148,-162.036,166.125,-236.780,27.400,-102.060
585,47498.83000,222.587,49.192,113.664,492.040,-169.463,160.994,-197.780,-5.600,-50.060
586,47498.123000,238.311,48.188,119.808,489.265,-164.900,162.081,-87.780,-20.600,58.940
587,47498.164000,242.242,44.173,120.832,487.347,-166.757,162.039,62.220,-55.600,163.940
588,47498.205000,244.207,49.192,111.616,490.106,-173.055,165.888,310.220,-63.600,245.940
589,47498.245000,226.518,50.196,105.472,485.277,-180.407,167.713,446.220,-65.600,286.940
590,47498.283000,218.656,58.227,105.472,484.370,-177.652,168.765,500.220,-41.600,304.940
591,47498.303000,212.760,57.224,96.256,477.594,-189.532,174.470,515.220,-36.600,360.940
592,47498.343000,211.777,58.227,94.208,474.708,-193.195,176.377,499.220,-14.600,344.940
593,47498.389000,207.846,58.227,94.208,468.988,-196.837,181.264,490.220,-22.600,355.940
594,47498.425000,211.777,65.255,91.136,469.866,-202.243,185.129,461.220,3.400,282.940
595,47498.465000,210.795,74.290,99.328,465.193,-198.544,190.174,460.220,28.400,248.940
596,47498.506000,204.898,77.302,106.496,458.520,-203.056,198.025,447.220,49.400,241.940
597,47498.546000,203.916,74.290,105.472,453.859,-198.440,203.090,432.220,16.400,284.940
598,47498.566000,211.777,60.235,104.448,453.781,-203.976,200.983,448.220,7.400,300.940
599,47498.606000,219.639,44.173,100.352,445.279,-203.913,209.923,569.220,-10.600,246.940
600,47498.646000,228.484,38.149,83.968,440.482,-209.355,215.768,565.220,-17.600,165.940
601,47498.683000,252.069,34.133,93.184,438.662,-204.682,221.833,611.220,88.400,41.940
602,47498.723000,270.741,25.098,113.664,434.006,-200.787,236.828,571.220,177.400,-1.060
603,47498.763000,276.637,23.090,118.784,432.262,-190.598,244.005,398.220,184.400,20.940
604,47498.783000,266.810,7.027,120.832,423.735,-191.607,244.965,323.220,205.400,102.940
605,47498.829000,261.896,8.031,109.568,419.007,-192.391,254.888,355.220,150.400,187.940
606,47498.863000,237.328,8.031,113.664,415.285,-188.620,262.920,274.220,134.400,193.940
607,47498.903000,209.812,0.000,91.136,414.316,-190.445,263.874,173.220,3.400,223.940
608,47498.950000,206.864,-7.027,87.040,403.847,-195.125,265.749,154.220,-26.600,262.940
609,47498.985000,206.864,-6.024,93.184,400.946,-199.743,265.646,172.220,-6.600,266.940
610,47499.13000,203.916,-17.067,98.304,400.910,-202.472,266.583,201.220,19.400,283.940
611,47499.46000,206.864,-18.071,109.568,394.247,-206.087,273.458,394.220,65.400,236.940
612,47499.83000,218.656,-12.047,117.760,392.438,-200.518,278.547,442.220,98.400,127.940
613,47499.123000,222.587,-5.020,108.544,391.577,-194.916,284.633,581.220,-10.600,79.940
614,47499.164000,228.484,6.024,92.160,394.446,-192.988,287.662,567.220,-55.600,46.940
615,47499.204000,242.242,20.078,97.280,391.701,-186.535,291.774,455.220,-62.600,-30.060
616,47499.251000,253.052,28.110,92.160,395.704,-170.852,295.098,489.220,-119.600,-93.060
617,47499.265000,256.000,49.192,91.136,398.699,-159.743,299.317,428.220,-95.600,-193.060
618,47499.305000,257.965,69.271,95.232,401.587,-156.060,298.405,345.220,-71.600,-249.060
619,47499.351000,249.121,63.247,91.136,405.422,-152.345,298.490,157.220,-70.600,-217.060
620,47499.385000,241.259,56.220,92.160,404.522,-148.732,296.576,42.220,-89.600,-139.060
621,47499.424000,219.639,53.208,82.944,407.434,-143.218,295.703,-33.780,-159.600,-32.060
622,47499.471000,221.605,44.173,78.848,409.255,-147.890,289.639,-138.780,-180.600,-5.060
623,47499.485000,218.656,47.184,81.920,412.991,-150.725,282.621,-226.780,-159.600,17.940
624,47499.530000,223.570,32.125,77.824,414.883,-150.700,282.625,-265.780,-158.600,-26.060
625,47499.571000,228.484,34.133,80.896,415.671,-161.779,277.417,-273.780,-100.600,-42.060
626,47499.606000,234.380,36.141,75.776,414.742,-160.057,272.479,-195.780,-46.600,-26.060
627,47499.660000,234.380,32.125,74.752,417.615,-157.310,270.552,-198.780,-24.600,21.940
628,47499.685000,236.345,39.153,72.704,414.624,-168.361,269.318,-227.780,-10.600,42.940
629,47499.704000,222.587,52.204,70.656,412.675,-172.128,265.256,-346.780,-12.600,74.940
630,47499.750000,212.760,42.165,74.752,410.641,-182.270,263.048,-455.780,-17.600,105.940
631,47499.793000,201.950,36.141,70.656,412.483,-185.149,255.033,-539.780,-34.600,177.940
632,47499.839000,230.449,37.145,100.352,415.210,-193.357,254.862,-610.780,37.400,228.940
633,47499.866000,296.292,45.176,123.904,409.334,-207.291,248.589,-537.780,126.400,167.940
634,47499.906000,287.447,54.212,130.048,406.378,-215.632,245.423,-490.780,44.400,109.940
635,47499.946000,263.862,-7.027,88.064,403.530,-215.767,240.443,-567.780,-47.600,27.940
636,47499.973000,255.017,-21.082,81.920,406.251,-223.274,229.346,-657.780,-109.600,21.940
637,47500.19000,231.432,-12.047,77.824,406.124,-231.695,220.215,-532.780,-179.600,-84.060
638,47500.49000,206.864,-27.106,91.136,413.631,-235.415,212.190,-599.780,-126.600,-83.060
639,47500.84000,218.656,-48.188,82.944,414.451,-243.804,204.055,-626.780,-111.600,-122.060
640,47500.126000,218.656,-42.165,84.992,414.399,-246.728,195.041,-549.780,-102.600,-173.060
641,47500.183000,239.294,-31.122,96.256,424.891,-239.457,185.265,-611.780,-107.600,-243.060
642,47500.191000,248.138,-28.110,91.136,429.569,-242.338,175.264,-602.780,-147.600,-324.060
643,47500.228000,243.225,-17.067,95.232,435.353,-233.316,164.524,-652.780,-147.600,-346.060
644,47500.264000,236.345,-12.047,99.328,440.957,-237.958,157.471,-655.780,-129.600,-348.060
645,47500.304000,232.415,-2.008,91.136,450.475,-232.571,145.664,-581.780,-85.600,-270.060
646,47500.348000,259.931,25.098,74.752,452.409,-228.979,140.770,-689.780,-41.600,-290.060
647,47500.388000,242.242,36.141,81.920,460.947,-226.313,130.893,-700.780,-20.600,-294.060
648,47500.408000,242.242,60.235,95.232,465.673,-225.549,119.975,-668.780,69.400,-469.060
649,47500.446000,246.173,63.247,89.088,468.596,-219.138,118.127,-622.780,47.400,-458.060
650,47500.486000,240.276,55.216,91.136,475.393,-206.244,117.417,-530.780,79.400,-412.060
651,47500.538000,224.553,57.224,75.776,482.910,-209.087,107.421,-402.780,107.400,-360.060
652,47500.568000,222.587,54.212,76.800,484.064,-194.319,112.710,-327.780,146.400,-279.060
653,47500.609000,216.691,46.180,80.896,487.815,-196.978,114.648,-335.780,204.400,-205.060
654,47500.626000,196.054,35.137,105.472,488.910,-185.992,113.889,-292.780,240.400,-219.060
655,47500.668000,173.451,39.153,109.568,489.827,-188.630,118.808,-257.780,238.400,-264.060
656,47500.706000,192.123,41.161,120.832,492.855,-174.831,120.100,-246.780,249.400,-276.060
657,47500.745000,213.743,38.149,123.904,490.919,-178.443,123.999,-241.780,135.400,-205.060
658,47500.788000,248.138,33.129,133.120,492.021,-167.378,127.220,-117.780,137.400,-110.060
659,47500.826000,262.879,36.141,136.192,491.996,-169.210,127.181,99.220,134.400,-16.060
660,47500.866000,266.810,44.173,142.336,489.179,-168.215,133.166,349.220,95.400,33.940
661,47500.886000,254.035,47.184,126.976,491.096,-167.137,140.154,570.220,42.400,138.940
662,47500.925000,225.536,44.173,114.688,487.321,-167.070,146.118,673.220,0.400,212.940
663,47500.968000,208.829,52.204,108.544,488.265,-167.856,152.071,719.220,-10.600,259.940
664,47501.8000,200.967,56.220,104.448,488.176,-175.049,158.880,707.220,-12.600,285.940
665,47501.49000,199.985,57.224,104.448,487.247,-174.087,161.883,612.220,-22.600,268.940
666,47501.99000,201.950,56.220,96.256,483.492,-172.246,164.900,558.220,-78.600,262.940
667,47501.114000,214.726,60.235,92.160,482.529,-173.993,169.835,520.220,-121.600,280.940
668,47501.148000,227.501,58.227,82.944,481.505,-179.541,167.726,444.220,-161.600,263.940
669,47501.188000,235.363,58.227,82.944,482.428,-181.341,168.684,448.220,-144.600,252.940
670,47501.229000,231.432,55.216,78.848,479.522,-186.778,173.537,432.220,-135.600,233.940
671,47501.269000,231.432,54.212,75.776,480.507,-183.998,174.592,439.220,-75.600,191.940
672,47501.310000,237.328,51.200,74.752,478.661,-181.177,179.623,482.220,99.400,156.940
673,47501.325000,245.190,51.200,76.800,474.856,-183.761,190.503,549.220,221.400,117.940
674,47501.368000,235.363,60.235,84.992,470.148,-183.550,204.426,612.220,307.400,55.940
675,47501.405000,230.449,70.275,83.968,462.643,-179.810,213.446,634.220,392.400,45.940
676,47501.445000,218.656,74.290,101.376,459.936,-171.368,225.557,596.220,419.400,31.940
677,47501.488000,209.812,76.298,104.448,456.293,-162.821,243.637,595.220,351.400,12.940
678,47501.528000,198.019,99.388,119.808,454.492,-157.154,253.701,629.220,285.400,-21.060
679,47501.568000,199.985,116.455,126.976,447.037,-149.750,262.800,535.220,161.400,24.940
680,47501.589000,199.002,115.451,125.952,444.239,-147.000,264.843,368.220,35.400,81.940
681,47501.626000,201.950,109.427,123.904,442.392,-144.179,269.874,286.220,-69.600,139.940
682,47501.671000,201.950,97.380,111.616,442.271,-152.521,264.723,271.220,-162.600,183.940
683,47501.705000,203.916,83.325,113.664,443.277,-147.967,262.832,256.220,-190.600,244.940
684,47501.745000,212.760,76.298,109.568,439.368,-157.159,263.625,196.220,-192.600,237.940
685,47501.793000,221.605,63.247,97.280,438.370,-160.856,262.550,235.220,-174.600,221.940
686,47501.806000,244.207,36.141,94.208,435.587,-156.391,258.663,187.220,-119.600,217.940
687,47501.846000,276.637,22.086,99.328,431.750,-160.125,257.583,169.220,-54.600,246.940
688,47501.895000,259.931,19.075,93.184,426.945,-165.664,258.453,230.220,-91.600,340.940
689,47501.929000,247.155,8.031,89.088,425.910,-172.109,257.319,236.220,-84.600,378.940
690,47501.975000,249.121,16.063,84.992,423.966,-175.818,256.243,274.220,-55.600,375.940
691,47502.8000,237.328,23.090,78.848,416.314,-182.253,260.073,258.220,-121.600,442.940
692,47502.28000,235.363,9.035,68.608,414.343,-187.814,257.963,239.220,-66.600,477.940
693,47502.75000,231.432,15.059,72.704,408.513,-199.682,263.669,186.220,-24.600,537.940
694,47502.108000,228.484,9.035,71.680,400.846,-207.072,265.490,203.220,20.400,599.940
695,47502.148000,214.726,8.031,78.848,396.071,-210.721,269.384,187.220,86.400,595.940
696,47502.189000,209.812,2.008,78.848,386.427,-224.510,273.055,263.220,148.400,624.940
697,47502.230000,207.846,-2.008,78.848,373.124,-229.168,277.909,258.220,174.400,648.940
698,47502.270000,207.846,-12.047,83.968,362.589,-239.246,284.641,247.220,181.400,709.940
699,47502.290000,224.553,-24.094,96.256,348.231,-252.123,291.308,269.220,194.400,805.940
700,47502.330000,248.138,-40.157,112.640,333.016,-258.580,299.106,346.220,186.400,914.940
701,47502.376000,291.378,-44.173,116.736,323.508,-262.311,301.996,311.220,139.400,836.940
702,47502.411000,290.395,-37.145,110.592,308.180,-277.013,309.618,269.220,6.400,737.940
703,47502.446000,244.207,-26.102,95.232,305.327,-277.986,308.598,86.220,-74.600,492.940
704,47502.489000,213.743,-38.149,89.088,299.496,-289.094,306.364,-141.780,-168.600,180.940
705,47502.523000,221.605,-61.239,82.944,301.338,-291.973,298.348,-320.780,-163.600,145.940
706,47502.550000,215.708,-72.282,95.232,298.406,-298.482,295.221,-421.780,-143.600,136.940
707,47502.590000,226.518,-81.318,94.208,295.438,-306.960,285.090,-492.780,-67.600,68.940
708,47502.630000,225.536,-82.322,94.208,297.280,-309.840,277.074,-459.780,-91.600,15.940
709,47502.679000,220.622,-74.290,76.800,301.920,-315.469,267.015,-432.780,-152.600,-77.060
710,47502.714000,220.622,-68.267,61.440,304.690,-319.311,255.996,-374.780,-202.600,-108.060
711,47502.728000,232.415,-68.267,46.080,307.555,-316.661,249.095,-381.780,-219.600,-111.060
712,47502.774000,245.190,-62.243,32.768,311.195,-326.786,243.911,-376.780,-129.600,-79.060
713,47502.809000,246.173,-68.267,37.888,311.097,-333.317,237.804,-481.780,28.400,-36.060
714,47502.849000,236.345,-71.278,44.032,312.068,-330.712,229.904,-587.780,207.400,-46.060
715,47502.889000,229.466,-75.294,50.176,307.154,-343.678,225.642,-615.780,365.400,-29.060
716,47502.929000,241.259,-80.314,64.512,305.189,-348.401,219.571,-744.780,505.400,-114.060
717,47502.949000,241.259,-88.345,62.464,304.275,-345.724,216.643,-692.780,508.400,-178.060
718,47502.989000,223.570,-99.388,81.920,304.187,-351.377,208.565,-939.780,515.400,-350.060
719,47503.29000,217.674,-110.431,95.232,306.989,-353.308,201.566,-1030.780,467.400,-513.060
720,47503.70000,216.691,-106.416,110.592,318.317,-353.490,184.670,-1031.780,398.400,-662.060
721,47503.106000,212.760,-102.400,117.760,326.813,-354.391,179.690,-987.780,393.400,-796.060
722,47503.148000,213.743,-85.333,112.640,338.239,-348.023,169.896,-866.780,336.400,-873.060
723,47503.191000,216.691,-70.275,112.640,354.487,-335.160,161.242,-683.780,279.400,-924.060
724,47503.211000,216.691,-62.243,116.736,370.695,-325.826,159.476,-499.780,228.400,-940.060
725,47503.249000,225.536,-41.161,105.472,383.241,-307.418,155.907,-344.780,191.400,-895.060
726,47503.293000,230.449,-18.071,108.544,392.868,-295.364,157.173,-93.780,188.400,-833.060
727,47503.333000,229.466,-17.067,114.688,405.311,-285.085,159.399,39.220,112.400,-744.060
728,47503.379000,225.536,-29.114,115.712,418.854,-263.761,163.852,213.220,-3.600,-595.060
729,47503.410000,218.656,-21.082,104.448,426.533,-255.455,162.051,304.220,-110.600,-586.060
730,47503.430000,203.916,-10.039,107.520,440.040,-236.860,167.439,290.220,-158.600,-603.060
731,47503.470000,203.916,-2.008,95.232,443.042,-224.133,160.752,263.220,-248.600,-634.060
732,47503.513000,211.777,-6.024,87.040,453.653,-209.318,162.078,207.220,-269.600,-630.060
733,47503.556000,223.570,-3.012,81.920,462.385,-192.832,156.474,180.220,-295.600,-614.060
734,47503.590000,242.242,11.043,64.512,479.621,-177.150,150.865,97.220,-249.600,-587.060
735,47503.630000,244.207,41.161,38.912,482.675,-160.739,145.251,-80.780,-216.600,-564.060
736,47503.658000,237.328,57.224,29.696,490.200,-163.485,140.231,-357.780,-67.600,-562.060
737,47503.690000,264.845,80.314,62.464,493.381,-138.653,143.748,-542.780,269.400,-566.060
738,47503.731000,266.810,114.447,108.544,496.318,-132.086,149.860,-638.780,582.400,-534.060
739,47503.770000,267.793,112.439,124.928,492.638,-125.508,160.935,-660.780,707.400,-394.060
740,47503.814000,204.898,107.420,173.056,496.497,-121.520,174.951,-492.780,627.400,-332.060
741,47503.851000,213.743,140.549,187.392,497.525,-115.933,179.050,-412.780,427.400,-180.060
742,47503.890000,216.691,114.447,178.176,493.759,-114.989,183.043,-281.780,98.400,17.940
743,47503.910000,201.950,102.400,164.864,497.467,-120.455,181.937,-38.780,-39.600,82.940
744,47503.964000,189.175,95.373,137.216,499.330,-122.321,178.917,115.220,-143.600,135.940
745,47503.989000,170.503,86.337,114.688,502.205,-119.554,177.985,223.220,-227.600,157.940
746,47504.28000,159.693,78.306,111.616,499.307,-123.354,172.927,255.220,-226.600,221.940
747,47504.83000,152.814,85.333,107.520,503.887,-134.305,171.706,192.220,-200.600,177.940
748,47504.109000,153.797,87.341,115.712,505.836,-129.777,167.826,3.220,-161.600,153.940
749,47504.130000,174.434,70.275,109.568,506.624,-140.856,162.619,-168.780,-137.600,142.940
750,47504.174000,206.864,65.255,103.424,503.816,-138.223,158.692,-326.780,-97.600,126.940
751,47504.210000,245.190,52.204,107.520,504.516,-155.714,153.348,-410.780,-136.600,115.940
752,47504.276000,252.069,39.153,103.424,502.628,-154.921,148.389,-299.780,-188.600,149.940
753,47504.291000,255.017,37.145,110.592,500.723,-155.083,141.420,-49.780,-224.600,217.940
754,47504.331000,249.121,47.184,102.400,504.455,-158.736,139.358,142.220,-189.600,284.940
755,47504.351000,234.380,49.192,101.376,500.477,-172.587,136.074,209.220,-177.600,305.940
756,47504.391000,222.587,49.192,98.304,499.476,-176.322,133.009,212.220,-201.600,319.940
757,47504.431000,231.432,46.180,80.896,501.217,-187.310,131.783,256.220,-189.600,348.940
758,47504.468000,225.536,40.157,80.896,498.251,-196.529,130.588,391.220,-109.600,392.940
759,47504.514000,231.432,37.145,75.776,490.686,-196.570,133.560,479.220,-12.600,406.940
760,47504.554000,241.259,29.114,72.704,485.852,-204.761,139.346,526.220,92.400,419.940
761,47504.603000,233.397,20.078,68.608,480.167,-207.233,157.188,635.220,270.400,424.940
762,47504.611000,237.328,19.075,69.632,472.577,-209.867,168.062,720.220,399.400,369.940
763,47504.651000,240.276,27.106,75.776,465.011,-211.448,185.921,844.220,498.400,275.940
764,47504.694000,228.484,32.125,91.136,452.796,-207.516,207.868,863.220,514.400,218.940
765,47504.734000,235.363,66.259,113.664,453.852,-201.597,228.883,843.220,488.400,107.940
766,47504.783000,221.605,69.271,137.216,443.496,-199.571,245.820,700.220,342.400,71.940
767,47504.809000,211.777,78.306,136.192,439.815,-193.012,255.900,669.220,219.400,121.940
768,47504.829000,206.864,76.298,124.928,434.108,-195.738,260.807,607.220,81.400,186.940
769,47504.870000,206.864,83.325,114.688,435.139,-190.112,266.896,555.220,-8.600,289.940
770,47504.910000,199.985,90.353,113.664,427.576,-190.134,270.863,431.220,-58.600,309.940
771,47504.950000,200.967,92.361,107.520,425.581,-197.507,269.709,191.220,-79.600,301.940
772,47504.990000,202.933,96.376,109.568,423.594,-204.803,272.534,-3.780,-95.600,306.940
773,47505.30000,206.864,87.341,98.304,416.952,-205.865,269.518,-103.780,-107.600,292.940
774,47505.64000,206.864,70.275,80.896,413.974,-216.000,268.303,-97.780,-93.600,305.940
775,47505.99000,203.916,57.224,78.848,404.392,-224.448,264.131,-75.780,-31.600,308.940
776,47505.133000,210.795,46.180,82.944,399.624,-227.239,265.059,-21.780,67.400,253.940
777,47505.169000,231.432,17.067,92.160,394.860,-229.992,267.977,5.220,232.400,233.940
778,47505.213000,258.948,-11.043,123.904,385.245,-241.909,273.677,116.220,343.400,272.940
779,47505.253000,265.827,-30.118,147.456,375.784,-242.775,282.596,247.220,233.400,267.940
780,47505.273000,258.948,-51.200,173.056,364.401,-245.556,288.488,309.220,193.400,319.940
781,47505.319000,254.035,-57.224,177.152,357.888,-238.178,295.598,326.220,123.400,307.940
782,47505.353000,225.536,-33.129,158.720,354.990,-242.757,297.486,372.220,-30.600,225.940
783,47505.389000,231.432,-37.145,149.504,355.954,-241.770,300.492,137.220,-131.600,121.940
784,47505.429000,198.019,-34.133,131.072,354.066,-240.976,295.533,97.220,-240.600,-5.060
785,47505.470000,186.226,-21.082,111.616,359.773,-238.251,290.626,25.220,-265.600,-66.060
786,47505.509000,207.846,-21.082,99.328,362.496,-246.497,288.465,-69.780,-252.600,-98.060
787,47505.536000,205.881,-11.043,110.592,359.709,-242.071,282.588,-72.780,-242.600,-74.060
788,47505.570000,201.950,-15.059,119.808,365.420,-239.306,279.671,18.220,-191.600,-40.060
789,47505.610000,205.881,-13.051,121.856,367.311,-239.301,278.679,143.220,-93.600,-60.060
790,47505.650000,218.656,-8.031,112.640,365.416,-239.345,277.681,175.220,-96.600,-40.060
791,47505.696000,214.726,2.008,103.424,370.221,-233.806,276.811,174.220,-131.600,-17.060
792,47505.730000,231.432,6.024,90.112,369.328,-230.115,278.878,230.220,-155.600,-4.060
793,47505.750000,255.017,12.047,90.112,369.377,-226.469,277.961,242.220,-118.600,69.940
794,47505.796000,270.741,17.067,82.944,371.321,-222.760,279.037,256.220,-121.600,99.940
795,47505.830000,261.896,21.082,90.112,370.325,-226.437,278.958,211.220,-36.600,53.940
796,47505.870000,246.173,32.125,92.160,371.344,-220.948,278.081,103.220,-53.600,-9.060
797,47505.910000,237.328,18.071,91.136,370.293,-228.348,274.938,-63.780,-62.600,-7.060
798,47505.950000,224.553,20.078,94.208,373.074,-232.832,277.831,-185.780,-101.600,-6.060
799,47505.970000,220.622,11.043,91.136,374.100,-226.505,272.994,-274.780,-120.600,37.940
800,47506.10000,222.587,2.008,90.112,373.940,-237.615,266.789,-336.780,-117.600,57.940
801,47506.64000,224.553,-2.008,91.136,370.054,-244.234,258.686,-362.780,-113.600,75.940
802,47506.93000,221.605,-4.016,81.920,377.655,-241.464,254.777,-298.780,-132.600,103.940
803,47506.135000,224.553,-12.047,77.824,372.818,-248.914,251.628,-196.780,-109.600,131.940
804,47506.175000,232.415,-15.059,74.752,373.694,-253.580,246.556,-93.780,-100.600,157.940
805,47506.214000,244.207,-12.047,75.776,374.649,-252.690,244.587,-42.780,-113.600,178.940
806,47506.234000,242.242,-11.043,82.944,369.738,-265.637,241.321,-42.780,-75.600,188.940
807,47506.274000,242.242,-15.059,92.160,369.774,-262.908,240.384,-95.780,-83.600,165.940
808,47506.313000,240.276,-18.071,90.112,366.946,-262.049,239.404,-83.780,-140.600,118.940
809,47506.353000,252.069,-15.059,87.040,370.607,-270.381,232.269,-74.780,-156.600,44.940
810,47506.393000,254.035,-15.059,94.208,371.593,-266.821,226.379,-120.780,-162.600,-39.060
811,47506.434000,251.086,-22.086,87.040,377.241,-268.637,223.365,-175.780,-159.600,-126.060
812,47506.455000,240.276,-26.102,77.824,379.198,-263.232,217.515,-209.780,-108.600,-198.060
813,47506.490000,241.259,-26.102,73.728,378.263,-262.348,216.537,-145.780,-52.600,-229.060
814,47506.533000,241.259,-21.082,73.728,385.891,-257.726,213.663,-80.780,20.400,-262.060
815,47506.571000,242.242,-12.047,73.728,387.773,-258.598,214.642,-13.780,115.400,-275.060
816,47506.611000,239.294,-9.035,68.608,386.983,-247.538,218.855,56.220,131.400,-238.060
817,47506.650000,235.363,3.012,69.632,390.703,-252.868,224.715,74.220,183.400,-267.060
818,47506.679000,225.536,2.008,77.824,395.563,-243.605,226.908,88.220,201.400,-236.060
819,47506.711000,209.812,7.027,83.968,396.677,-231.624,230.149,32.220,179.400,-260.060
820,47506.750000,213.743,5.020,83.968,396.660,-233.359,235.085,21.220,181.400,-210.060
821,47506.790000,223.570,-1.004,87.040,396.815,-222.307,238.304,60.220,223.400,-175.060
822,47506.831000,239.294,8.031,96.256,399.652,-223.068,244.260,165.220,183.400,-200.060
823,47506.871000,258.948,21.082,102.400,399.787,-213.790,250.426,248.220,96.400,-217.060
824,47506.911000,255.017,46.180,113.664,402.763,-203.675,250.645,289.220,19.400,-316.060
825,47506.931000,248.138,44.173,99.328,405.731,-194.437,252.836,191.220,-113.600,-333.060
826,47506.971000,241.259,43.169,101.376,413.335,-191.628,250.917,70.220,-179.600,-340.060
827,47507.11000,227.501,40.157,91.136,417.264,-180.662,247.178,-16.780,-237.600,-306.060
828,47507.53000,216.691,35.137,86.016,424.892,-176.040,244.304,-77.780,-249.600,-258.060
829,47507.94000,215.708,35.137,81.920,431.479,-177.922,237.311,-116.780,-245.600,-220.060
830,47507.134000,217.674,28.110,76.800,433.482,-168.911,228.554,-167.780,-247.600,-194.060
831,47507.154000,224.553,21.082,78.848,441.937,-172.599,221.526,-198.780,-220.600,-164.060
832,47507.194000,230.449,19.075,79.872,442.005,-167.181,217.663,-201.780,-217.600,-138.060
833,47507.241000,235.363,19.075,78.848,445.834,-163.544,213.767,-244.780,-210.600,-90.060
834,47507.271000,244.207,16.063,72.704,454.286,-167.272,204.748,-369.780,-177.600,-75.060
835,47507.311000,248.138,17.067,66.560,453.315,-168.337,197.762,-475.780,-124.600,-85.060
836,47507.358000,251.086,17.067,58.368,456.103,-171.204,189.748,-710.780,-14.600,-82.060
837,47507.373000,245.190,12.047,60.416,456.921,-180.392,187.564,-868.780,104.400,-108.060
838,47507.411000,243.225,15.059,66.560,458.681,-189.626,182.397,-886.780,179.400,-177.060
839,47507.453000,251.086,17.067,82.944,463.518,-181.396,178.601,-937.780,254.400,-134.060
840,47507.493000,259.931,25.098,109.568,462.470,-188.757,177.448,-746.780,332.400,-198.060
841,47507.533000,242.242,65.255,116.736,464.427,-184.132,178.544,-679.780,232.400,-163.060
842,47507.573000,241.259,83.325,128.000,468.134,-189.618,176.444,-517.780,184.400,-265.060
843,47507.591000,235.363,104.408,126.976,469.114,-186.896,174.514,-502.780,66.400,-256.060
844,47507.634000,246.173,80.314,125.952,472.969,-181.408,171.652,-513.780,27.400,-163.060
845,47507.678000,211.777,68.267,115.712,477.719,-179.591,167.719,-368.780,39.400,-151.060
846,47507.711000,207.846,62.243,97.280,475.788,-182.384,166.662,-244.780,23.400,-106.060
847,47507.753000,192.123,64.251,94.208,480.582,-177.741,166.768,-27.780,5.400,-69.060
848,47507.791000,179.347,67.263,100.352,483.465,-174.877,170.812,26.220,58.400,-55.060
849,47507.831000,172.468,71.278,121.856,483.401,-179.477,169.719,-10.780,109.400,-35.060
850,47507.854000,183.278,73.286,113.664,484.397,-175.800,169.799,-106.780,70.400,-9.060
851,47507.894000,189.175,63.247,112.640,482.490,-176.761,168.781,-254.780,-5.600,30.940
852,47507.934000,213.743,56.220,117.760,483.406,-178.639,165.759,-366.780,-98.600,70.940
853,47507.974000,257.965,36.141,121.856,483.332,-183.356,158.696,-299.780,-142.600,176.940
854,47508.14000,256.983,29.114,122.880,484.114,-195.273,157.449,-117.780,-164.600,226.940
855,47508.55000,257.965,36.141,110.592,479.367,-196.291,155.431,187.220,-120.600,273.940
856,47508.75000,243.225,33.129,105.472,479.265,-203.639,154.280,311.220,-101.600,327.940
857,47508.114000,230.449,35.137,103.424,475.460,-205.463,157.219,347.220,-99.600,334.940
858,47508.154000,210.795,29.114,89.088,474.390,-214.617,158.017,365.220,-104.600,357.940
859,47508.194000,216.691,21.082,75.776,471.530,-216.448,159.963,419.220,-66.600,387.940
860,47508.234000,229.466,22.086,75.776,464.770,-226.594,160.732,465.220,-14.600,404.940
861,47508.274000,235.363,24.094,79.872,464.826,-223.631,171.736,464.220,66.400,345.940
862,47508.294000,240.276,23.090,78.848,457.065,-238.272,177.381,410.220,94.400,274.940
863,47508.331000,241.259,22.086,81.920,451.521,-229.088,182.541,372.220,169.400,165.940
864,47508.373000,231.432,17.067,81.920,451.550,-227.976,192.511,386.220,173.400,101.940
865,47508.413000,225.536,12.047,90.112,446.747,-234.257,202.317,352.220,236.400,54.940
866,47508.455000,226.518,9.035,105.472,445.016,-223.151,209.513,288.220,236.400,-35.060
867,47508.496000,225.536,0.000,125.952,443.214,-217.504,218.583,257.220,187.400,-92.060
868,47508.538000,217.674,4.016,149.504,444.238,-212.735,227.637,216.220,167.400,-138.060
869,47508.555000,217.674,6.024,150.528,445.191,-211.865,224.673,115.220,64.400,-136.060
870,47508.595000,213.743,19.075,146.432,447.126,-209.033,227.720,35.220,-69.600,-125.060
871,47508.635000,203.916,40.157,128.000,449.970,-208.177,222.770,-96.780,-212.600,-197.060
872,47508.678000,211.777,58.227,108.544,456.715,-198.207,213.045,-232.780,-310.600,-308.060
873,47508.718000,241.259,65.255,107.520,461.450,-196.566,200.157,-386.780,-313.600,-356.060
874,47508.753000,241.259,56.220,96.256,471.886,-193.797,194.264,-395.780,-304.600,-292.060
875,47508.774000,242.242,49.192,94.208,475.643,-194.859,184.300,-341.780,-286.600,-232.060
876,47508.814000,238.311,51.200,78.848,480.381,-193.179,173.402,-261.780,-268.600,-203.060
877,47508.854000,234.380,48.188,69.632,480.480,-185.090,165.617,-224.780,-218.600,-122.060
878,47508.903000,222.587,44.173,80.896,484.248,-186.014,162.619,-197.780,-153.600,-92.060
879,47508.940000,220.622,42.165,78.848,484.255,-185.157,159.653,-181.780,-88.600,-90.060
880,47508.973000,223.570,41.161,88.064,486.105,-187.939,156.613,-152.780,-6.600,-105.060
881,47508.993000,226.518,50.196,88.064,488.952,-187.044,153.652,-115.780,12.400,-95.060
882,47509.35000,243.225,54.212,89.088,485.159,-187.951,156.611,-91.780,-4.600,-40.060
883,47509.75000,241.259,59.231,97.280,487.095,-184.340,152.713,-44.780,-41.600,33.940
884,47509.115000,234.380,56.220,99.328,485.151,-188.049,151.636,58.220,-65.600,100.940
885,47509.154000,228.484,49.192,93.184,483.208,-191.738,151.555,181.220,-79.600,210.940
886,47509.194000,223.570,52.204,84.992,482.265,-191.712,153.543,244.220,-80.600,246.940
887,47509.214000,220.622,57.224,81.920,475.502,-201.896,152.322,311.220,-91.600,255.940
888,47509.255000,224.553,60.235,81.920,473.636,-200.069,153.353,380.220,-66.600,263.940
889,47509.295000,227.501,61.239,75.776,471.708,-203.583,162.227,416.220,-43.600,236.940
890,47509.333000,223.570,62.243,79.872,468.835,-206.330,164.153,446.220,27.400,233.940
891,47509.373000,220.622,70.275,78.848,462.173,-209.946,171.029,503.220,64.400,223.940
892,47509.413000,221.605,68.267,79.872,460.242,-213.499,177.913,506.220,112.400,257.940
893,47509.453000,216.691,66.259,83.968,451.677,-218.016,186.756,505.220,239.400,264.940
894,47509.473000,218.656,62.243,78.848,443.154,-219.746,197.647,554.220,296.400,235.940
895,47509.514000,225.536,43.169,79.872,442.342,-211.260,210.757,512.220,378.400,171.940
896,47509.553000,239.294,42.165,95.232,430.958,-214.821,223.595,515.220,351.400,94.940
897,47509.593000,257.965,29.114,125.952,423.446,-211.918,236.576,426.220,366.400,81.940
898,47509.639000,248.138,2.008,129.024,418.769,-209.037,246.576,336.220,228.400,132.940
899,47509.674000,285.482,-9.035,142.336,411.244,-206.291,251.597,282.220,217.400,159.940
900,47509.694000,279.585,-5.020,136.192,408.381,-208.921,259.494,327.220,77.400,275.940
901,47509.735000,234.380,-5.020,143.360,399.866,-209.014,260.474,282.220,3.400,245.940
902,47509.775000,212.760,-4.016,109.568,394.131,-213.611,263.352,265.220,-156.600,253.940
903,47509.829000,195.071,-10.039,92.160,399.811,-212.737,257.411,159.220,-257.600,262.940
904,47509.859000,209.812,-6.024,84.992,399.749,-217.318,257.313,147.220,-309.600,252.940
905,47509.903000,215.708,-17.067,95.232,395.766,-231.227,251.043,203.220,-258.600,223.940
906,47509.919000,215.708,-16.063,102.400,397.707,-227.557,250.130,238.220,-148.600,117.940
907,47509.959000,210.795,-23.090,102.400,401.533,-224.720,252.185,313.220,-143.600,70.940
908,47510.0,214.726,-10.039,83.968,398.849,-213.705,255.399,250.220,-77.600,-47.060
909,47510.39000,242.242,-4.016,80.896,401.736,-210.022,254.487,262.220,-114.600,-18.060
910,47510.79000,244.207,1.004,76.800,404.597,-208.192,252.541,318.220,-167.600,-5.060
911,47510.118000,268.775,27.106,76.800,400.876,-203.642,253.627,276.220,-103.600,-84.060
912,47510.158000,270.741,29.114,73.728,408.551,-196.154,256.782,323.220,-149.600,-173.060
913,47510.179000,269.758,53.208,68.608,410.464,-194.355,253.839,176.220,-97.600,-239.060
914,47510.229000,254.035,52.204,74.752,411.557,-183.388,252.085,94.220,-119.600,-230.060
915,47510.256000,244.207,42.165,61.440,415.390,-179.693,251.175,-57.780,-162.600,-150.060
916,47510.301000,231.432,37.145,59.392,415.218,-191.720,244.950,-165.780,-143.600,-84.060
917,47510.335000,220.622,30.118,59.392,416.259,-184.437,242.123,-268.780,-124.600,-5.060
918,47510.376000,229.466,13.051,66.560,419.931,-191.872,234.013,-300.780,-59.600,60.940
919,47510.396000,228.484,18.071,70.656,417.095,-191.871,235.998,-231.780,-5.600,53.940
920,47510.436000,235.363,15.059,71.680,411.297,-200.288,230.837,-196.780,26.400,63.940
921,47510.476000,228.484,14.055,72.704,413.275,-193.870,229.982,-110.780,30.400,39.940
922,47510.516000,238.311,19.075,65.536,414.114,-202.044,232.793,36.220,-24.600,92.940
923,47510.556000,237.328,24.094,63.488,411.272,-202.121,230.798,-34.780,-72.600,148.940
924,47510.595000,232.415,20.078,60.416,408.295,-212.236,230.579,-0.780,-120.600,211.940
925,47510.615000,240.276,12.047,67.584,412.945,-217.748,226.490,-52.780,-92.600,226.940
926,47510.655000,254.035,7.027,72.704,410.106,-217.785,226.485,-43.780,-37.600,274.940
927,47510.696000,285.482,9.035,75.776,404.352,-223.377,225.363,-21.780,47.400,304.940
928,47510.736000,271.724,17.067,84.992,402.398,-227.963,226.257,-87.780,110.400,136.940
929,47510.778000,260.914,-3.012,83.968,397.586,-234.360,230.092,-157.780,123.400,85.940
930,47510.818000,225.536,-17.067,72.704,400.415,-234.440,224.127,-215.780,62.400,-29.060
931,47510.858000,227.501,-22.086,76.800,401.396,-232.478,230.138,-309.780,174.400,-149.060
932,47510.880000,233.397,-5.020,81.920,403.310,-230.660,228.190,-236.780,193.400,-218.060
933,47510.928000,223.570,4.016,86.016,400.416,-235.200,232.068,-234.780,260.400,-312.060
934,47510.955000,225.536,10.039,83.968,403.410,-224.110,235.292,-267.780,305.400,-370.060
935,47510.996000,205.881,9.035,79.872,408.189,-220.403,234.383,-315.780,208.400,-370.060
936,47511.40000,213.743,4.016,93.184,411.013,-221.320,232.379,-453.780,230.400,-376.060
937,47511.80000,213.743,-1.004,101.376,411.102,-214.888,233.510,-441.780,187.400,-329.060
938,47511.100000,235.363,-4.016,106.496,414.854,-216.768,228.503,-346.780,143.400,-358.060
939,47511.136000,245.190,2.008,124.928,416.912,-204.794,230.750,-149.780,25.400,-358.060
940,47511.180000,257.965,2.008,120.832,418.887,-198.415,227.905,-20.780,-156.600,-345.060
941,47511.216000,242.242,14.055,107.520,431.295,-190.085,224.122,140.220,-336.600,-433.060
942,47511.256000,225.536,23.090,83.968,438.940,-183.728,216.311,161.220,-449.600,-487.060
943,47511.296000,215.708,28.110,78.848,452.432,-164.529,205.799,142.220,-530.600,-520.060
944,47511.316000,216.691,29.114,60.416,462.024,-153.664,193.114,38.220,-562.600,-524.060
945,47511.356000,217.674,37.145,56.320,465.880,-147.396,183.307,-70.780,-514.600,-462.060
946,47511.401000,238.311,34.133,52.224,478.340,-134.603,173.651,-198.780,-406.600,-419.060
947,47511.443000,246.173,32.125,53.248,483.058,-134.697,165.699,-359.780,-256.600,-366.060
948,47511.476000,253.052,50.196,52.224,484.137,-123.905,154.989,-515.780,-152.600,-362.060
949,47511.524000,258.948,57.224,47.104,492.763,-114.807,146.244,-697.780,-92.600,-352.060
950,47511.558000,261.896,63.247,45.056,498.466,-112.900,146.293,-975.780,77.400,-296.060
951,47511.583000,269.758,69.271,52.224,494.612,-117.609,142.208,-1050.780,217.400,-279.060
952,47511.616000,269.758,89.349,89.088,500.345,-113.811,145.282,-1010.780,385.400,-183.060
953,47511.661000,250.104,86.337,113.664,498.244,-129.351,147.932,-908.780,381.400,-113.060
954,47511.695000,200.967,118.463,133.120,502.213,-116.378,153.187,-671.780,288.400,-155.060
955,47511.735000,209.812,132.518,137.216,505.080,-114.469,155.221,-502.780,169.400,-122.060
956,47511.775000,208.829,119.467,136.192,504.952,-123.669,153.036,-474.780,71.400,-21.060
957,47511.795000,198.019,99.388,130.048,506.890,-120.038,150.132,-257.780,-8.600,74.940
958,47511.836000,202.933,97.380,115.712,510.616,-124.530,152.031,-112.780,-48.600,170.940
959,47511.883000,201.950,82.322,105.472,506.675,-135.632,148.805,-8.780,-84.600,248.940
960,47511.918000,188.192,76.298,102.400,506.650,-137.464,148.766,139.220,-45.600,266.940
961,47511.963000,181.313,81.318,103.424,506.638,-138.381,148.746,147.220,-15.600,249.940
962,47511.998000,175.417,82.322,116.736,502.658,-153.030,151.413,-65.780,66.400,212.940
963,47512.18000,172.468,77.302,106.496,504.574,-151.192,150.460,-195.780,22.400,210.940
964,47512.55000,190.157,53.208,98.304,502.493,-164.959,150.164,-358.780,112.400,233.940
965,47512.96000,225.536,48.188,99.328,501.450,-171.502,144.055,-394.780,-24.600,235.940
966,47512.136000,252.069,32.125,110.592,495.668,-178.945,141.899,-242.780,-109.600,234.940
967,47512.176000,259.931,40.157,129.024,496.572,-181.739,138.857,21.220,-105.600,190.940
968,47512.218000,256.983,50.196,125.952,494.726,-178.139,136.942,274.220,-144.600,105.940
969,47512.236000,244.207,64.251,117.760,494.665,-182.700,137.839,360.220,-147.600,138.940
970,47512.278000,211.777,64.251,107.520,494.651,-183.636,136.825,356.220,-201.600,151.940
971,47512.319000,199.985,56.220,83.968,491.681,-192.913,132.644,388.220,-230.600,215.940
972,47512.361000,204.898,50.196,73.728,493.641,-188.248,135.730,425.220,-204.600,289.940
973,47512.409000,222.587,47.184,70.656,488.823,-194.704,136.580,456.220,-112.600,308.940
974,47512.463000,231.432,45.176,71.680,483.988,-202.914,141.372,497.220,13.400,296.940
975,47512.483000,247.155,52.204,76.800,482.073,-205.512,150.265,561.220,134.400,248.940
976,47512.496000,235.363,70.275,89.088,480.151,-208.188,155.179,593.220,197.400,203.940
977,47512.536000,219.639,84.329,86.016,472.680,-202.499,170.208,598.220,200.400,225.940
978,47512.576000,211.777,85.333,84.992,467.000,-203.373,176.149,559.220,131.400,272.940
979,47512.621000,216.691,82.322,88.064,462.157,-212.440,183.906,504.220,40.400,330.940
980,47512.656000,211.777,78.306,87.040,455.533,-213.288,191.835,477.220,20.400,319.940
981,47512.696000,217.674,84.329,81.920,450.785,-215.085,196.763,500.220,71.400,268.940
982,47512.716000,223.570,64.251,81.920,445.979,-221.404,204.579,460.220,169.400,305.940
983,47512.756000,249.121,49.192,91.136,436.606,-215.857,213.635,406.220,245.400,352.940
984,47512.796000,256.983,25.098,87.040,426.054,-227.670,225.303,431.220,299.400,406.940
985,47512.836000,252.069,-16.063,122.880,411.835,-231.229,240.126,442.220,459.400,550.940
986,47512.876000,265.827,-35.137,158.720,401.429,-232.088,250.039,532.220,476.400,674.940
987,47512.916000,256.000,-27.106,166.912,388.954,-246.596,265.626,615.220,239.400,573.940
988,47512.936000,233.397,-28.110,152.576,378.633,-241.081,273.685,572.220,69.400,415.940
989,47512.976000,202.933,-27.106,125.952,375.815,-240.104,278.675,539.220,-95.600,298.940
990,47513.18000,193.106,-11.043,107.520,371.038,-243.773,281.574,444.220,-272.600,259.940
991,47513.58000,203.916,-19.075,99.328,370.073,-244.780,277.572,295.220,-352.600,321.940
992,47513.98000,200.967,-32.125,100.352,367.206,-246.688,275.538,220.220,-327.600,395.940
993,47513.138000,216.691,-36.141,97.280,362.377,-254.041,277.364,119.220,-230.600,492.940
994,47513.158000,223.570,-42.165,107.520,364.194,-258.753,269.309,72.220,-198.600,513.940
995,47513.198000,238.311,-52.204,105.472,354.533,-273.516,269.975,37.220,-205.600,412.940
996,47513.238000,239.294,-53.208,88.064,353.555,-275.439,265.954,45.220,-269.600,297.940
997,47513.278000,238.311,-44.173,81.920,352.620,-273.776,258.031,-65.780,-269.600,165.940
998,47513.319000,234.380,-35.137,75.776,355.377,-279.313,253.939,-140.780,-250.600,-17.060
999,47513.359000,235.363,-33.129,75.776,358.208,-279.373,248.968,-185.780,-160.600,-115.060
1000,47513.400000,241.259,-28.110,71.680,363.926,-275.751,243.086,-240.780,-48.600,-181.060
1001,47513.420000,242.242,-24.094,69.632,362.890,-282.196,241.953,-295.780,95.400,-227.060
1002,47513.460000,242.242,-21.082,72.704,365.701,-284.029,239.929,-322.780,198.400,-243.060
1003,47513.496000,248.138,-13.051,70.656,365.862,-272.139,239.187,-381.780,216.400,-254.060
1004,47513.536000,236.345,-16.063,82.944,369.528,-280.412,235.038,-454.780,249.400,-219.060
1005,47513.583000,237.328,-15.059,81.920,364.859,-275.894,235.127,-443.780,245.400,-188.060
1006,47513.623000,233.397,-21.082,88.064,368.655,-274.948,234.159,-392.780,152.400,-141.060
1007,47513.643000,230.449,-24.094,91.136,365.745,-279.663,229.081,-370.780,84.400,-109.060
1008,47513.678000,237.328,-35.137,94.208,370.483,-278.763,225.128,-337.780,34.400,-91.060
1009,47513.719000,240.276,-34.133,93.184,370.435,-281.628,219.099,-324.780,-36.600,-101.060
1010,47513.760000,236.345,-32.125,89.088,373.210,-286.191,218.012,-267.780,-69.600,-130.060
1011,47513.800000,237.328,-28.110,86.016,373.184,-287.263,210.032,-205.780,-135.600,-172.060
1012,47513.846000,234.380,-25.098,86.016,383.624,-284.455,206.129,-188.780,-202.600,-242.060
1013,47513.868000,234.380,-24.094,86.016,387.435,-281.794,199.228,-198.780,-203.600,-273.060
1014,47513.901000,232.415,-18.071,88.064,393.214,-273.610,192.449,-264.780,-219.600,-283.060
1015,47513.938000,238.311,-15.059,80.896,402.595,-279.060,188.368,-270.780,-166.600,-253.060
1016,47513.984000,236.345,-16.063,81.920,401.797,-267.338,179.664,-287.780,-124.600,-241.060
1017,47514.18000,237.328,-15.059,83.968,403.720,-264.643,175.746,-208.780,-71.600,-227.060
1018,47514.61000,245.190,-14.055,83.968,410.347,-263.756,169.807,-170.780,-21.600,-224.060
1019,47514.105000,238.311,-5.020,84.992,413.137,-267.364,170.729,-75.780,-45.600,-212.060
1020,47514.126000,238.311,-4.016,83.968,418.990,-254.463,171.012,29.220,-52.600,-181.060
1021,47514.161000,234.380,4.016,81.920,419.997,-249.889,170.116,100.220,-81.600,-165.060
1022,47514.201000,237.328,2.008,78.848,423.720,-254.420,170.025,178.220,-115.600,-130.060
1023,47514.250000,238.311,14.055,77.824,425.774,-242.505,169.287,161.220,-159.600,-113.060
1024,47514.278000,238.311,14.055,78.848,433.366,-240.612,167.350,182.220,-203.600,-90.060
1025,47514.318000,239.294,20.078,69.632,433.430,-236.011,168.442,181.220,-255.600,-61.060
1026,47514.338000,238.311,23.090,68.608,439.127,-233.403,157.565,160.220,-250.600,-48.060
1027,47514.378000,241.259,27.106,67.584,440.068,-233.449,154.582,156.220,-226.600,-28.060
1028,47514.418000,237.328,21.082,62.464,440.106,-230.700,154.640,181.220,-202.600,-1.060
1029,47514.458000,240.276,22.086,55.296,444.771,-235.258,152.561,246.220,-186.600,-14.060
1030,47514.498000,243.225,22.086,52.224,446.762,-227.923,151.725,270.220,-178.600,8.940
1031,47514.538000,243.225,28.110,51.200,445.793,-229.748,152.680,285.220,-153.600,31.940
1032,47514.558000,244.207,29.114,47.104,451.516,-226.067,149.783,303.220,-142.600,53.940
1033,47514.598000,247.155,25.098,45.056,449.664,-223.305,151.828,341.220,-121.600,80.940
1034,47514.645000,253.052,26.102,40.960,450.599,-224.189,152.805,331.220,-101.600,89.940
1035,47514.679000,248.138,25.098,39.936,449.685,-222.291,156.823,310.220,-95.600,96.940
1036,47514.736000,250.104,24.094,44.032,446.794,-226.013,155.745,257.220,-73.600,86.940
1037,47514.758000,251.086,26.102,43.008,448.665,-227.781,157.699,203.220,-85.600,83.940
1038,47514.798000,250.104,23.090,41.984,447.711,-228.651,160.663,194.220,-76.600,73.940
1039,47514.821000,247.155,20.078,41.984,453.373,-229.531,158.663,223.220,-72.600,68.940
1040,47514.861000,248.138,24.094,40.960,450.636,-222.220,159.810,198.220,-66.600,34.940
1041,47514.901000,249.121,21.082,35.840,447.704,-229.509,163.629,172.220,-88.600,13.940
1042,47514.941000,250.104,25.098,35.840,450.575,-226.781,160.707,103.220,-73.600,-15.060
1043,47514.990000,250.104,26.102,32.768,450.684,-218.575,158.893,32.220,-61.600,-29.060
1044,47515.48000,247.155,27.106,32.768,454.446,-220.338,159.855,-39.780,-40.600,-42.060
1045,47515.56000,250.104,25.098,33.792,454.449,-219.539,153.904,-81.780,-27.600,-53.060
1046,47515.84000,251.086,23.090,35.840,456.279,-224.094,153.810,-121.780,-3.600,-49.060
1047,47515.124000,250.104,27.106,37.888,455.458,-214.946,154.004,-154.780,3.400,-66.060
1048,47515.168000,248.138,27.106,37.888,453.412,-226.003,151.776,-168.780,14.400,-68.060
1049,47515.200000,248.138,23.090,43.008,454.508,-214.997,152.012,-181.780,50.400,-55.060
1050,47515.241000,245.190,24.094,40.960,454.401,-222.404,147.876,-160.780,48.400,-47.060
1051,47515.268000,247.155,19.075,46.080,454.469,-217.765,150.958,-136.780,75.400,-47.060
1052,47515.301000,247.155,22.086,46.080,453.519,-217.817,148.967,-108.780,61.400,-42.060
1053,47515.341000,248.138,22.086,44.032,455.378,-220.501,150.901,-85.780,38.400,-39.060
1054,47515.383000,247.155,21.082,47.104,453.526,-217.738,152.947,-71.780,20.400,-29.060
1055,47515.434000,246.173,24.094,47.104,454.481,-216.849,150.978,-52.780,11.400,-34.060
1056,47515.466000,249.121,22.086,43.008,453.432,-224.229,148.830,-58.780,2.400,-27.060
1057,47515.488000,247.155,23.090,41.984,456.367,-216.902,147.001,-77.780,15.400,-26.060
1058,47515.521000,248.138,23.090,41.984,454.365,-225.133,148.812,-82.780,53.400,-31.060
1059,47515.561000,249.121,23.090,41.984,457.259,-221.372,151.880,-92.780,84.400,-36.060
1060,47515.608000,244.207,22.086,47.104,453.554,-215.867,154.976,-112.780,111.400,-19.060
1061,47515.640000,246.173,24.094,49.152,452.552,-220.382,158.857,-131.780,149.400,-34.060
1062,47515.679000,247.155,22.086,52.224,455.397,-219.507,154.901,-135.780,136.400,-29.060
1063,47515.725000,242.242,25.098,55.296,452.597,-216.776,155.950,-155.780,115.400,-16.060
1064,47515.739000,243.225,25.098,57.344,451.631,-218.562,158.894,-152.780,104.400,-9.060
1065,47515.786000,242.242,22.086,60.416,447.735,-226.838,159.707,-117.780,106.400,13.940
1066,47515.821000,243.225,21.082,61.440,446.847,-222.309,157.813,-87.780,93.400,35.940
1067,47515.863000,242.242,21.082,62.464,443.993,-224.062,163.739,-66.780,90.400,48.940
1068,47515.899000,242.242,17.067,63.488,445.844,-226.844,160.699,-33.780,61.400,58.940
1069,47515.943000,243.225,20.078,59.392,445.888,-224.017,164.737,-9.780,55.400,46.940
