Sample, Time, ACCX, ACCY, ACCZ, MAGX, MAGY, MAGZ, GYRX, GYRY, GYRZ
0,36944.865000,257.977,14.585,-28.887,453.404,234.152,-89.357,-63.040,204.510,89.980
1,36944.892000,255.012,3.521,-20.918,451.358,222.504,-88.639,-111.040,210.510,80.980
2,36944.912000,251.058,2.515,-16.934,452.376,226.526,-82.664,-98.040,199.510,54.980
3,36944.951000,255.012,13.580,-20.918,453.371,227.679,-74.791,-150.040,242.510,45.980
4,36944.991000,254.023,10.562,-15.938,455.296,225.843,-70.905,-118.040,315.510,31.980
5,36945.31000,253.035,13.580,-9.961,452.483,232.826,-60.949,-157.040,261.510,21.980
6,36945.71000,256.000,15.591,-4.981,457.350,234.923,-55.989,-179.040,219.510,-0.020
7,36945.111000,253.035,7.544,-2.988,459.300,235.093,-49.116,-172.040,175.510,20.980
8,36945.151000,256.988,4.527,0.996,455.402,231.258,-45.287,-227.040,132.510,-7.020
9,36945.197000,252.046,-10.562,14.942,458.363,236.248,-40.267,-133.040,110.510,-50.020
10,36945.237000,252.046,6.538,6.973,457.404,236.325,-36.345,-63.040,134.510,-16.020
11,36945.257000,255.012,-3.521,10.957,456.439,235.453,-31.463,-23.040,145.510,-22.020
12,36945.297000,254.023,-8.550,5.977,458.385,236.464,-30.455,101.960,176.510,-31.020
13,36945.337000,259.954,20.621,-3.984,456.424,233.554,-29.543,331.960,279.510,-37.020
14,36945.376000,259.954,11.568,0.996,456.444,233.748,-20.713,222.960,330.510,-46.020
15,36945.427000,258.965,-2.515,8.965,455.582,243.555,-15.594,218.960,403.510,-60.020
16,36945.456000,251.058,29.674,8.965,458.441,237.003,-5.927,315.960,459.510,-74.020
17,36945.496000,254.023,30.680,25.899,453.688,243.925,2.062,-23.040,410.510,-63.020
18,36945.533000,251.058,4.527,45.821,450.828,246.938,8.007,-215.040,336.510,-101.020
19,36945.553000,243.151,-3.521,63.751,447.953,248.053,15.871,-261.040,128.510,-191.020
20,36945.593000,251.058,-0.503,58.770,447.969,249.089,18.836,-244.040,-55.490,-230.020
21,36945.633000,255.012,5.532,54.786,445.178,261.574,14.204,-125.040,-262.490,-256.020
22,36945.678000,257.977,20.621,35.860,442.321,267.263,9.421,-99.040,-389.490,-253.020
23,36945.715000,260.942,17.603,22.911,439.316,259.209,-2.532,-104.040,-418.490,-165.020
24,36945.752000,253.035,27.662,-24.903,438.398,264.960,-5.348,-15.040,-522.490,-51.020
25,36945.792000,248.093,24.644,-43.829,437.435,267.626,-16.079,101.960,-570.490,-12.020
26,36945.832000,249.081,32.692,-38.848,433.600,274.967,-33.576,347.960,-698.490,-77.020
27,36945.879000,237.220,24.644,1.992,434.551,277.458,-53.132,377.960,-630.490,-58.020
28,36945.892000,230.301,3.521,21.914,426.732,271.341,-63.090,631.960,-137.490,-75.020
29,36945.932000,221.405,38.727,33.868,427.675,267.597,-57.288,599.960,429.510,44.980
30,36945.972000,246.116,46.774,39.844,433.466,263.123,-42.665,-436.040,747.510,293.980
31,36946.12000,253.035,66.892,17.930,435.442,263.530,-25.000,-967.040,651.510,302.980
32,36946.53000,259.954,87.010,38.848,443.205,262.073,-6.383,-624.040,375.510,54.980
33,36946.93000,291.583,-35.709,35.860,440.262,255.486,4.252,226.960,356.510,358.980
34,36946.133000,250.069,30.680,17.930,447.940,250.578,-1.725,780.960,159.510,232.980
35,36946.173000,252.046,14.585,32.872,450.812,246.787,1.139,-114.040,79.510,188.980
36,36946.193000,244.139,-19.615,40.840,452.723,243.937,3.041,-345.040,12.510,128.980
37,36946.233000,255.012,3.521,29.883,448.851,243.877,2.051,-44.040,-45.490,47.980
38,36946.278000,249.081,10.562,34.864,450.762,241.911,0.050,-207.040,-120.490,31.980
39,36946.319000,250.069,6.538,35.860,451.702,239.008,-0.013,-43.040,-208.490,27.980
40,36946.357000,252.046,7.544,22.911,449.718,234.998,-5.009,62.960,-252.490,36.980
41,36946.408000,257.977,11.568,16.934,451.640,235.772,-14.794,205.960,-274.490,22.980
42,36946.437000,250.069,11.568,17.930,453.618,241.487,-20.547,142.960,-300.490,-4.020
43,36946.477000,248.093,2.515,19.922,449.666,235.387,-31.478,151.960,-319.490,16.980
44,36946.517000,255.012,13.580,1.992,447.732,236.252,-35.386,66.960,-318.490,14.980
45,36946.537000,251.058,12.574,-0.996,451.534,231.242,-44.315,7.960,-265.490,53.980
46,36946.585000,258.965,11.568,-0.996,448.677,236.931,-49.098,-97.040,-250.490,56.980
47,36946.618000,252.046,4.527,1.992,452.527,235.890,-54.016,-27.040,-212.490,89.980
48,36946.658000,253.035,6.538,6.973,451.517,231.954,-56.067,-45.040,-176.490,110.980
49,36946.705000,254.023,4.527,-1.992,450.434,220.272,-57.309,-130.040,-166.490,104.980
50,36946.742000,254.023,1.509,-4.981,450.460,224.048,-62.129,-78.040,-179.490,82.980
51,36946.777000,254.023,1.509,-8.965,450.472,225.040,-61.126,-147.040,-198.490,68.980
52,36946.817000,255.012,-2.515,-12.949,452.396,224.951,-66.027,-136.040,-166.490,64.980
53,36946.837000,259.954,2.515,-23.907,451.433,225.870,-67.970,-14.040,-98.490,36.980
54,36946.883000,259.954,3.521,-14.942,454.293,221.087,-66.109,-132.040,-20.490,16.980
55,36946.917000,247.104,-15.591,-6.973,451.410,223.000,-66.073,47.960,-19.490,12.980
56,36946.957000,255.012,3.521,-14.942,451.452,227.811,-67.927,31.960,-42.490,-26.020
57,36946.998000,254.023,3.521,-14.942,450.443,223.875,-69.978,-33.040,-63.490,-27.020
58,36947.33000,250.069,-1.509,-10.957,452.342,220.917,-72.982,39.960,-96.490,-45.020
59,36947.73000,252.046,3.521,-16.934,448.517,225.712,-73.864,-14.040,-126.490,-60.020
60,36947.115000,255.012,2.515,-14.942,447.496,220.783,-76.917,-10.040,-131.490,-52.020
61,36947.154000,253.035,5.532,-22.911,446.631,232.316,-81.567,46.960,-119.490,-54.020
62,36947.174000,256.000,6.538,-26.895,450.498,232.333,-82.539,17.960,-94.490,-52.020
63,36947.218000,254.023,12.574,-33.868,445.623,228.402,-82.636,-1.040,6.510,-46.020
64,36947.258000,259.954,17.603,-36.856,444.707,233.290,-80.568,-91.040,91.510,-22.020
65,36947.293000,256.988,6.538,-23.907,445.646,228.618,-72.825,-93.040,179.510,13.980
66,36947.333000,256.000,-2.515,-18.926,448.579,231.580,-71.772,27.960,231.510,14.980
67,36947.381000,246.116,11.568,-0.996,450.555,234.641,-65.816,138.960,205.510,-24.020
68,36947.413000,242.162,5.532,7.969,450.569,235.655,-63.832,-21.040,50.510,-35.020
69,36947.453000,251.058,-0.503,-4.981,451.500,233.550,-71.722,27.960,-67.490,-45.020
70,36947.478000,258.965,6.538,-28.887,447.679,237.504,-66.739,-20.040,-47.490,-121.020
71,36947.522000,262.919,5.532,-18.926,444.840,243.365,-63.673,-347.040,-4.490,-154.020
72,36947.554000,244.139,-1.509,9.961,444.818,240.518,-60.795,-101.040,-5.490,-144.020
73,36947.600000,241.174,-1.509,17.930,441.034,250.102,-64.512,189.960,-176.490,-186.020
74,36947.633000,255.012,-0.503,0.000,438.126,251.778,-75.269,134.960,-382.490,-276.020
75,36947.673000,249.081,33.697,-12.949,428.457,254.381,-85.038,-0.040,-524.490,-330.020
76,36947.713000,254.023,32.692,-9.961,422.725,264.702,-98.550,-91.040,-665.490,-302.020
77,36947.753000,256.000,28.668,-32.872,416.926,267.342,-108.310,60.960,-692.490,-249.020
78,36947.793000,253.035,43.756,-45.821,415.019,273.753,-124.843,172.960,-623.490,-191.020
79,36947.820000,250.069,62.868,-50.802,410.176,276.295,-139.507,-117.040,-670.490,-114.020
80,36947.859000,268.849,38.727,-56.778,402.416,276.025,-148.355,-446.040,-714.490,-42.020
81,36947.900000,262.919,32.692,-58.770,395.662,279.648,-157.115,-324.040,-607.490,-45.020
82,36947.940000,253.035,12.574,-68.732,393.749,284.247,-167.804,-170.040,-574.490,-47.020
83,36947.984000,239.197,36.715,-80.685,390.859,286.980,-174.614,-117.040,-430.490,-54.020
84,36948.18000,228.324,24.644,-66.739,391.837,288.845,-178.494,-129.040,-214.490,-84.020
85,36948.58000,208.556,34.703,-42.833,394.691,283.134,-174.692,87.960,305.510,24.980
86,36948.98000,202.625,44.762,-56.778,398.576,281.554,-160.009,60.960,691.510,136.980
87,36948.118000,206.579,60.857,-62.755,409.244,280.147,-140.404,-97.040,1065.510,142.980
88,36948.158000,228.324,54.821,-49.805,419.961,283.616,-119.711,-68.040,1290.510,105.980
89,36948.199000,245.127,51.804,-113.556,430.551,272.652,-93.454,16.960,1220.510,103.980
90,36948.240000,288.618,-9.556,-235.082,429.609,275.534,-94.373,416.960,24.510,17.980
91,36948.281000,256.000,82.986,-11.953,430.527,268.898,-87.653,-392.040,607.510,190.980
92,36948.316000,261.931,94.051,-1.992,431.563,272.208,-69.926,-569.040,406.510,65.980
93,36948.356000,251.058,12.574,-2.988,438.357,271.605,-56.195,-46.040,488.510,226.980
94,36948.396000,245.127,23.639,16.934,440.232,264.008,-49.496,192.960,408.510,206.980
95,36948.436000,255.012,29.674,6.973,446.954,257.429,-42.763,-36.040,253.510,184.980
96,36948.456000,262.919,9.556,13.946,445.070,261.423,-36.794,-90.040,201.510,143.980
97,36948.494000,246.116,18.609,0.000,447.857,248.895,-34.124,-33.040,193.510,83.980
98,36948.536000,246.116,14.585,14.942,445.997,255.759,-30.053,-103.040,82.510,51.980
99,36948.576000,249.081,22.633,8.965,446.976,256.760,-29.048,-17.040,-4.490,37.980
100,36948.616000,249.081,11.568,15.938,447.861,248.938,-32.162,-4.040,-82.490,41.980
101,36948.656000,254.023,16.597,7.969,444.945,247.896,-34.153,52.960,-99.490,44.980
102,36948.696000,259.954,14.585,-4.981,448.876,254.687,-35.955,23.960,-84.490,47.980
103,36948.736000,256.000,18.609,-8.965,450.769,249.894,-34.096,-48.040,-28.490,39.980
104,36948.756000,254.023,14.585,-3.984,451.781,254.736,-34.967,-183.040,42.510,56.980
105,36948.803000,252.046,21.627,0.000,452.698,248.101,-28.248,-255.040,65.510,55.980
106,36948.836000,248.093,2.515,10.957,453.626,244.205,-29.313,-197.040,11.510,52.980
107,36948.876000,250.069,13.580,6.973,453.665,247.226,-24.343,-0.040,-34.490,43.980
108,36948.918000,253.035,10.562,2.988,455.624,250.114,-26.236,-82.040,-76.490,19.980
109,36948.959000,252.046,12.574,0.996,453.671,249.038,-30.186,-65.040,-93.490,10.980
110,36948.995000,253.035,11.568,-2.988,454.659,251.011,-29.160,-70.040,-99.490,20.980
111,36949.41000,254.023,15.591,1.992,452.668,246.051,-33.197,9.960,-77.490,18.980
112,36949.74000,256.000,15.591,-4.981,451.667,242.201,-31.323,4.960,-13.490,25.980
113,36949.101000,251.058,12.574,0.996,453.687,250.958,-31.124,-47.040,-56.490,6.980
114,36949.141000,254.023,8.550,-5.977,455.599,248.992,-33.125,-7.040,-75.490,10.980
115,36949.181000,256.000,19.615,-5.977,453.610,244.054,-36.181,46.960,-75.490,1.980
116,36949.221000,255.012,13.580,-7.969,453.511,234.302,-38.359,-7.040,-53.490,7.980
117,36949.259000,252.046,10.562,-5.977,455.500,240.125,-39.206,68.960,-5.490,19.980
118,36949.296000,254.023,14.585,-6.973,452.641,244.908,-41.067,0.960,-25.490,17.980
119,36949.344000,251.058,13.580,-7.969,451.628,240.066,-40.196,22.960,-9.490,14.980
120,36949.379000,255.012,10.562,-3.984,457.506,247.868,-40.991,-5.040,-31.490,9.980
121,36949.401000,252.046,9.556,-7.969,454.526,240.051,-42.152,28.960,-38.490,11.980
122,36949.441000,253.035,11.568,-5.977,457.485,245.904,-42.016,28.960,-25.490,14.980
123,36949.481000,250.069,10.562,-6.973,456.496,243.932,-43.042,56.960,-15.490,20.980
124,36949.521000,249.081,8.550,-3.984,451.643,242.849,-46.018,117.960,-14.490,16.980
125,36949.561000,249.081,14.585,-6.973,452.627,244.778,-46.954,153.960,11.510,37.980
126,36949.601000,254.023,12.574,-9.961,453.538,238.963,-47.081,117.960,-2.490,26.980
127,36949.641000,251.058,6.538,-13.946,452.559,238.845,-51.989,334.960,-7.490,-7.020
128,36949.681000,256.000,-26.656,1.992,449.665,240.651,-56.859,547.960,-165.490,-31.020
129,36949.721000,243.151,-8.550,-10.957,455.438,240.406,-70.581,763.960,-179.490,-26.020
130,36949.747000,256.000,18.609,-24.903,449.627,241.169,-77.441,492.960,-167.490,-102.020
131,36949.787000,253.035,49.792,1.992,446.706,240.083,-81.394,-213.040,-116.490,-26.020
132,36949.821000,254.023,-32.692,25.899,450.498,232.333,-82.539,221.960,-26.490,147.980
133,36949.861000,266.873,105.116,-74.708,449.559,236.120,-86.379,132.960,-105.490,-18.020
134,36949.899000,257.977,27.662,-25.899,452.481,238.090,-86.329,-588.040,-84.490,53.980
135,36949.943000,254.023,-5.532,-22.911,454.368,232.370,-82.530,-162.040,-72.490,88.980
136,36949.981000,253.035,16.597,-21.914,453.379,230.398,-83.556,-114.040,-112.490,41.980
137,36950.16000,258.965,5.532,-27.891,452.482,237.227,-81.445,-236.040,26.510,88.980
138,36950.37000,254.023,8.550,-20.918,453.322,223.688,-79.783,20.960,82.510,95.980
139,36950.77000,249.081,6.538,-11.953,455.340,232.423,-80.565,-39.040,44.510,82.980
140,36950.118000,253.035,9.556,-19.922,459.209,231.576,-76.653,-29.040,-2.490,69.980
141,36950.163000,253.035,1.509,-18.926,461.121,229.610,-78.654,-84.040,-1.490,61.980
142,36950.196000,253.035,7.544,-11.953,458.161,222.872,-74.887,-29.040,-3.490,58.980
143,36950.236000,253.035,9.556,-13.946,459.105,220.897,-76.891,14.960,-27.490,56.980
144,36950.277000,251.058,-2.515,-17.930,460.092,222.848,-76.845,-51.040,-44.490,47.980
145,36950.320000,250.069,1.509,-17.930,461.081,225.705,-79.722,12.960,-51.490,46.980
146,36950.359000,253.035,6.538,-19.922,460.071,220.884,-77.869,19.960,-21.490,51.980
147,36950.380000,256.000,3.521,-21.914,457.147,218.893,-78.900,41.960,-15.490,49.980
148,36950.419000,257.977,6.538,-27.891,462.957,219.877,-80.828,66.960,55.510,76.980
149,36950.460000,251.058,0.503,-13.946,463.938,220.016,-74.939,-18.040,133.510,84.980
150,36950.498000,249.081,2.515,-8.965,462.005,220.019,-73.962,6.960,90.510,72.980
151,36950.547000,250.069,0.503,-9.961,464.884,217.177,-72.058,-44.040,4.510,54.980
152,36950.582000,256.988,-6.538,-7.969,462.883,211.247,-76.116,-103.040,-50.490,23.980
153,36950.622000,255.012,2.515,-19.922,461.909,210.288,-75.159,-62.040,-28.490,22.980
154,36950.662000,256.000,7.544,-21.914,461.962,215.207,-72.107,27.960,28.510,53.980
155,36950.682000,254.023,-9.556,-12.949,462.918,214.224,-73.108,-26.040,69.510,53.980
156,36950.722000,252.046,-2.515,-8.965,467.680,205.620,-69.366,31.960,62.510,30.980
157,36950.762000,255.012,-0.503,-10.957,466.795,214.327,-70.156,-55.040,19.510,-7.020
158,36950.802000,253.035,-0.503,-8.965,465.764,207.543,-69.328,-44.040,-8.490,-16.020
159,36950.837000,254.023,-5.532,-9.961,460.934,208.445,-70.298,-24.040,-43.490,-33.020
160,36950.877000,256.988,-0.503,-14.942,462.977,220.071,-71.997,-75.040,-38.490,-37.020
161,36950.917000,256.000,3.521,-17.930,466.828,218.167,-72.032,6.960,-12.490,-37.020
162,36950.957000,254.023,-0.503,-20.918,461.950,213.330,-69.207,-120.040,12.510,-29.020
163,36950.997000,255.012,-2.515,-12.949,467.821,220.183,-69.043,-86.040,40.510,-61.020
164,36951.17000,255.012,3.521,-11.953,461.978,215.358,-65.239,-136.040,34.510,-92.020
165,36951.57000,254.023,0.503,-12.949,463.059,227.018,-64.978,-236.040,13.510,-123.020
166,36951.97000,255.012,6.538,-11.953,464.047,228.106,-60.049,-277.040,10.510,-132.020
167,36951.137000,256.000,3.521,-7.969,461.189,232.026,-57.026,-359.040,15.510,-116.020
168,36951.182000,250.069,0.503,-6.973,458.333,235.968,-53.022,-75.040,8.510,-97.020
169,36951.224000,249.081,6.538,-11.953,457.317,231.082,-54.113,21.960,-15.490,-72.020
170,36951.258000,255.012,6.538,-16.934,453.487,234.950,-53.055,-3.040,6.510,-67.020
171,36951.302000,251.058,9.556,-9.961,456.443,240.782,-53.900,37.960,14.510,-58.020
172,36951.328000,255.012,17.603,-9.961,457.444,244.631,-55.773,106.960,26.510,-39.020
173,36951.362000,254.023,8.550,-12.949,453.501,236.848,-54.974,51.960,48.510,-25.020
174,36951.402000,252.046,-2.515,-8.965,457.413,240.813,-52.916,73.960,45.510,-14.020
175,36951.441000,246.116,-18.609,-1.992,455.490,242.671,-55.821,295.960,38.510,14.980
176,36951.479000,255.012,10.562,-11.953,454.478,238.713,-58.853,604.960,16.510,25.980
177,36951.521000,254.023,14.585,-11.953,454.437,235.671,-64.804,558.960,36.510,49.980
178,36951.562000,256.988,33.697,-6.973,452.469,233.581,-70.739,485.960,18.510,47.980
179,36951.602000,252.046,22.633,-5.977,453.376,227.722,-72.828,197.960,-44.490,38.980
180,36951.644000,251.058,4.527,-7.969,451.399,223.777,-74.881,125.960,-76.490,21.980
181,36951.658000,256.000,14.585,-11.953,454.344,229.501,-80.632,86.960,-98.490,-13.020
182,36951.698000,249.081,8.550,-5.977,453.356,228.413,-85.562,-36.040,-115.490,-25.020
183,36951.763000,249.081,2.515,-3.984,452.424,231.381,-82.556,53.960,-183.490,-43.020
184,36951.778000,250.069,1.509,-3.984,449.498,230.252,-88.471,65.960,-216.490,-72.020
185,36951.819000,244.139,14.585,-14.942,452.404,232.071,-95.289,-34.040,-278.490,-3.020
186,36951.859000,256.000,6.538,-29.883,448.499,229.056,-98.306,-42.040,-233.490,59.980
187,36951.911000,258.965,3.521,-42.833,451.416,231.868,-104.122,236.960,-116.490,85.980
188,36951.938000,262.919,7.544,-45.821,453.232,221.056,-111.223,152.960,-20.490,49.980
189,36951.958000,259.954,11.568,-35.860,451.383,228.912,-106.149,80.960,86.510,4.980
190,36952.6000,254.023,35.709,-2.988,450.406,227.047,-102.270,-6.040,215.510,25.980
191,36952.43000,247.104,26.656,4.981,450.420,228.061,-100.286,-289.040,85.510,16.980
192,36952.82000,243.151,20.621,7.969,451.456,234.888,-99.151,-523.040,-304.490,-35.020
193,36952.136000,241.174,-23.639,-9.961,450.442,231.793,-107.067,-401.040,-539.490,-44.020
194,36952.169000,237.220,-38.727,-32.872,439.774,232.315,-122.769,220.960,-745.490,-183.020
195,36952.206000,218.440,-16.597,-76.700,433.039,240.534,-143.195,716.960,-757.490,-192.020
196,36952.242000,278.734,63.874,-52.794,430.983,231.433,-159.091,313.960,-566.490,12.980
197,36952.283000,278.734,10.562,-96.623,428.932,221.489,-169.123,242.960,-315.490,26.980
198,36952.309000,271.815,44.762,-106.584,428.965,225.330,-170.999,110.960,155.510,-31.020
199,36952.352000,256.000,-3.521,-101.603,431.876,224.560,-163.165,198.960,547.510,-92.020
200,36952.380000,248.093,35.709,-49.805,440.576,220.178,-145.592,114.960,810.510,-35.020
201,36952.427000,242.162,19.615,-7.969,443.637,233.173,-129.606,-50.040,599.510,13.980
202,36952.459000,237.220,7.544,-1.992,444.607,233.204,-128.623,-92.040,358.510,1.980
203,36952.499000,243.151,14.585,4.981,441.677,228.516,-119.907,7.960,91.510,-4.020
204,36952.539000,245.127,16.597,8.965,443.597,228.383,-126.771,16.960,-116.490,4.980
205,36952.587000,247.104,-4.527,-12.949,445.435,219.557,-131.866,3.960,-264.490,-13.020
206,36952.599000,249.081,81.980,-15.938,438.809,234.097,-129.596,-467.040,-152.490,-0.020
207,36952.639000,253.035,-20.621,-48.809,441.761,239.001,-128.500,-832.040,-385.490,74.980
208,36952.679000,255.012,-12.574,-74.708,439.820,239.802,-135.351,-238.040,-234.490,-106.020
209,36952.719000,261.931,16.597,-72.716,436.008,244.726,-130.347,-213.040,-38.490,-204.020
210,36952.759000,257.977,27.662,-71.720,437.948,244.788,-128.380,-28.040,155.510,-190.020
211,36952.799000,252.046,24.644,-55.782,433.178,250.674,-123.356,-219.040,292.510,-202.020
212,36952.838000,247.104,21.627,-31.875,434.274,261.601,-112.324,-271.040,312.510,-204.020
213,36952.879000,242.162,14.585,-23.907,431.425,265.607,-105.376,-102.040,294.510,-183.020
214,36952.919000,248.093,24.644,-18.926,429.487,263.797,-98.556,-202.040,192.510,-204.020
215,36952.939000,247.104,-0.503,-12.949,425.733,274.547,-93.422,-182.040,113.510,-238.020
216,36952.980000,252.046,31.686,-16.934,428.634,273.690,-89.512,-32.040,59.510,-350.020
217,36953.27000,241.174,49.792,-2.988,417.193,291.031,-90.132,-65.040,-13.490,-372.020
218,36953.59000,237.220,15.591,1.992,413.387,297.768,-90.971,13.960,-200.490,-380.020
219,36953.104000,245.127,22.633,-40.840,408.609,306.221,-101.581,290.960,-293.490,-507.020
220,36953.143000,254.023,68.904,-42.833,392.187,309.815,-107.420,-27.040,-374.490,-631.020
221,36953.183000,256.988,15.591,-50.802,379.779,328.916,-115.848,28.960,-263.490,-616.020
222,36953.222000,319.259,101.092,-22.911,366.301,336.464,-119.631,-82.040,70.510,-829.020
223,36953.244000,296.525,152.393,0.996,359.651,347.250,-111.561,-141.040,313.510,-789.020
224,36953.285000,271.815,62.868,-0.996,351.193,371.567,-105.155,-19.040,-178.490,-606.020
225,36953.324000,276.757,66.892,-31.875,339.551,369.382,-111.112,307.960,-237.490,-400.020
226,36953.364000,248.093,50.798,-62.755,337.630,374.779,-129.629,953.960,-21.490,-283.020
227,36953.404000,159.135,193.635,-55.782,329.950,381.435,-132.439,338.960,119.510,-313.020
228,36953.446000,171.985,140.322,-35.860,325.188,389.155,-132.278,226.960,293.510,-537.020
229,36953.483000,190.764,105.116,-59.767,322.292,389.191,-129.341,326.960,372.510,-396.020
230,36953.524000,196.695,119.198,-42.833,318.393,387.104,-134.299,486.960,283.510,-288.020
231,36953.564000,195.707,110.145,-45.821,310.762,398.636,-136.020,124.960,229.510,-258.020
232,36953.584000,201.637,80.974,-56.778,310.766,398.679,-134.058,127.960,184.510,-209.020
233,36953.631000,200.649,96.063,-55.782,310.818,403.576,-131.988,94.960,123.510,-84.020
234,36953.664000,205.591,77.957,-48.809,306.915,400.583,-134.024,142.960,107.510,-20.020
235,36953.699000,192.741,114.169,-40.840,312.604,388.083,-131.347,-141.040,58.510,150.980
236,36953.739000,190.764,119.198,-41.837,316.532,393.083,-126.325,-365.040,8.510,181.980
237,36953.784000,190.764,106.122,-40.840,314.604,393.128,-123.386,-353.040,-135.490,185.980
238,36953.822000,201.637,108.134,-37.852,319.453,395.053,-126.275,-169.040,-207.490,189.980
239,36953.863000,200.649,111.151,-32.872,324.274,392.295,-121.423,-201.040,-250.490,259.980
240,36953.884000,208.556,126.240,-35.860,324.158,380.623,-122.663,-296.040,-240.490,336.980
241,36953.924000,232.278,104.110,-34.864,329.951,378.803,-119.749,-360.040,-200.490,376.980
242,36953.964000,233.266,88.016,-18.926,332.832,377.752,-124.669,-9.040,-155.490,464.980
243,36954.999000,237.220,121.210,-0.996,341.437,368.927,-132.692,373.960,-173.490,485.980
244,36954.47000,223.382,174.523,-62.755,353.907,357.464,-129.979,-722.040,-127.490,682.980
245,36954.84000,210.533,107.128,-100.607,366.425,347.338,-110.564,-1159.040,143.510,820.980
246,36954.124000,468.510,7.544,53.790,375.915,328.058,-109.010,897.960,238.510,724.980
247,36954.164000,228.324,46.774,-57.774,388.422,321.342,-111.094,-27.040,101.510,688.980
248,36954.204000,241.174,0.503,-45.821,401.850,308.917,-108.400,185.960,259.510,530.980
249,36954.226000,252.046,52.809,-19.922,404.688,301.286,-103.660,171.960,562.510,434.980
250,36954.259000,243.151,72.927,-0.996,413.373,296.754,-92.955,3.960,445.510,260.980
251,36954.306000,247.104,98.075,-23.907,416.180,285.304,-85.358,-440.040,244.510,222.980
252,36954.346000,248.093,65.886,-2.988,421.067,287.595,-71.568,-752.040,116.510,278.980
253,36954.387000,242.162,-14.585,16.934,422.910,277.043,-66.895,-237.040,-38.490,222.980
254,36954.421000,253.035,33.697,-1.992,426.832,282.862,-68.718,-113.040,-131.490,108.980
255,36954.461000,246.116,29.674,0.000,426.775,277.922,-72.751,-218.040,-277.490,91.980
256,36954.506000,249.081,39.733,12.949,429.709,281.769,-75.601,-30.040,-433.490,69.980
257,36954.524000,260.942,15.591,29.883,424.774,274.624,-89.500,-255.040,-837.490,34.980
258,36954.566000,317.282,66.892,8.965,418.979,279.939,-109.988,148.960,-1134.490,-40.020
259,36954.608000,341.004,137.305,-25.899,417.009,282.229,-137.400,-289.040,-1257.490,109.980
260,36954.642000,281.699,47.780,-79.689,408.278,282.792,-152.115,-531.040,-1099.490,98.980
261,36954.682000,251.058,33.697,-144.436,412.040,272.991,-158.209,38.960,-423.490,28.980
262,36954.733000,190.764,-4.527,-160.374,413.981,275.707,-167.951,88.960,-354.490,-61.020
263,36954.766000,137.390,12.574,-114.553,408.139,273.536,-175.857,60.960,-322.490,-46.020
264,36954.808000,116.633,-10.562,-75.704,407.285,285.177,-175.600,-117.040,-101.490,76.980
265,36954.841000,122.564,-12.574,-45.821,410.149,280.437,-171.777,48.960,217.510,223.980
266,36954.861000,117.622,38.727,-33.868,418.826,274.956,-160.112,-198.040,773.510,316.980
267,36954.901000,140.355,78.963,-383.502,427.512,268.676,-140.620,-388.040,719.510,221.980
268,36954.941000,382.517,133.281,-96.623,430.414,267.820,-136.710,-384.040,72.510,232.980
269,36954.981000,374.610,137.305,119.533,426.588,269.961,-125.884,-639.040,356.510,101.980
270,36955.28000,317.282,188.605,-19.922,426.556,267.890,-131.814,857.960,-109.490,-124.020
271,36955.61000,275.768,159.434,-116.545,432.383,272.563,-142.485,20.960,-500.490,-284.020
272,36955.131000,270.826,183.576,-111.564,418.906,281.881,-154.075,-872.040,-899.490,-697.020
273,36955.146000,197.683,185.587,-8.965,404.739,317.619,-155.272,-1420.040,-802.490,-1027.020
274,36955.166000,183.846,36.715,-8.965,391.486,345.814,-146.829,-837.040,-371.490,-1120.020
275,36955.207000,131.459,38.727,-13.946,381.099,368.407,-129.678,-660.040,672.510,-1139.020
276,36955.241000,177.915,50.798,-40.840,373.598,389.108,-111.583,-750.040,1279.510,-1197.020
277,36955.282000,276.757,40.739,-138.459,366.151,410.327,-69.940,-619.040,1760.510,-1122.020
278,36955.322000,278.734,-224.817,-191.253,355.761,432.013,-49.867,224.960,1583.510,-815.020
279,36955.362000,231.290,-76.951,-284.887,356.634,430.232,-87.170,2894.960,649.510,-272.020
280,36955.402000,284.664,-62.868,34.864,354.628,426.007,-101.978,627.960,263.510,-74.020
281,36955.442000,314.317,-50.798,-8.965,357.513,418.829,-76.634,-1801.040,-186.490,502.980
282,36955.484000,334.085,60.857,48.809,363.334,415.520,-53.159,-1268.040,-98.490,325.980
283,36955.504000,301.467,217.776,77.696,364.323,419.261,-59.939,507.960,11.510,59.980
284,36955.544000,304.432,149.375,20.918,370.007,410.235,-75.818,590.960,-47.490,17.980
285,36955.584000,286.641,87.010,-6.973,367.169,417.866,-80.558,489.960,33.510,-93.020
286,36955.624000,280.710,78.963,-4.981,363.226,410.967,-83.661,232.960,51.510,-120.020
287,36955.666000,257.977,52.809,0.000,364.251,417.687,-87.432,163.960,-41.490,-104.020
288,36955.702000,242.162,16.597,-7.969,359.415,420.293,-99.153,556.960,-164.490,-81.020
289,36955.742000,231.290,42.750,-24.903,355.525,420.946,-111.895,676.960,-259.490,-57.020
290,36955.782000,215.475,136.299,-50.802,354.505,416.902,-118.851,-295.040,-506.490,135.980
291,36955.811000,234.255,24.644,-192.249,358.496,422.506,-86.357,-2526.040,-880.490,301.980
292,36955.843000,256.988,5.532,-165.354,359.423,414.209,-66.926,-1595.040,-1251.490,677.980
293,36955.883000,246.116,-54.821,-90.646,359.327,408.880,-88.619,112.960,-1548.490,401.980
294,36955.923000,211.521,38.727,-62.755,360.931,387.238,-146.955,2689.960,-972.490,542.980
295,36955.963000,167.042,80.974,-102.599,364.407,356.208,-191.766,2061.960,-673.490,854.980
296,36956.3000,152.216,57.839,-66.739,369.945,332.576,-209.931,1248.960,-340.490,973.980
297,36956.43000,152.216,70.916,-49.805,380.216,297.427,-224.419,1194.960,112.510,1056.980
298,36956.83000,186.811,115.175,-78.693,394.490,273.275,-225.905,945.960,682.510,914.980
299,36956.123000,219.429,128.251,-79.689,410.701,246.531,-213.716,765.960,1239.510,685.980
300,36956.151000,254.023,140.322,-77.696,429.044,236.656,-185.457,490.960,1588.510,585.980
301,36956.191000,369.668,513.509,-153.401,427.197,240.996,-163.791,-1854.040,-87.490,-279.020
302,36956.232000,258.965,69.910,4.981,427.268,244.318,-145.084,-882.040,776.510,201.980
303,36956.266000,311.351,48.786,48.809,433.989,236.854,-134.448,722.960,665.510,124.980
304,36956.307000,252.046,54.821,-80.685,439.827,237.234,-119.718,-648.040,461.510,33.980
305,36956.347000,250.069,-24.644,-25.899,444.788,246.386,-102.833,-570.040,374.510,171.980
306,36956.387000,256.000,-4.527,-33.868,447.644,238.928,-90.244,-208.040,361.510,42.980
307,36956.429000,260.942,-90.028,8.965,445.734,240.031,-83.359,208.960,331.510,59.980
308,36956.442000,248.093,-67.898,36.856,447.712,244.861,-85.209,605.960,135.510,-53.020
309,36956.482000,229.313,35.709,-34.864,441.840,240.640,-98.063,1115.960,-206.490,-247.020
310,36956.522000,245.127,62.868,-18.926,440.813,237.416,-111.866,787.960,-317.490,-240.020
311,36956.562000,246.116,-13.580,-12.949,435.999,242.871,-126.465,454.960,-458.490,-49.020
312,36956.602000,232.278,53.815,-77.696,429.113,234.671,-143.333,566.960,-515.490,34.980
313,36956.642000,260.942,30.680,-62.755,429.074,233.420,-156.109,564.960,-431.490,1.980
314,36956.691000,255.012,0.503,-77.696,424.205,233.071,-169.857,435.960,-363.490,-165.020
315,36956.723000,267.861,45.768,-94.630,421.327,236.797,-175.664,255.960,-138.490,-231.020
316,36956.763000,249.081,40.739,-90.646,421.330,236.818,-174.683,96.960,269.510,-149.020
317,36956.783000,259.954,22.633,-48.809,421.310,233.107,-166.920,-62.040,417.510,-96.020
318,36956.823000,249.081,4.527,-20.918,422.363,240.107,-157.936,-247.040,262.510,-157.020
319,36956.868000,235.243,26.656,0.996,420.555,251.868,-151.795,-321.040,16.510,-214.020
320,36956.914000,235.243,17.603,2.988,416.721,256.577,-156.602,-139.040,-398.490,-226.020
321,36956.987000,237.220,19.615,-37.852,406.997,254.239,-170.404,-93.040,-591.490,-257.020
322,36957.2000,226.347,68.904,-34.864,405.185,267.726,-174.031,-293.040,-790.490,-247.020
323,36957.28000,218.440,37.721,-47.813,392.527,262.425,-188.885,-265.040,-980.490,-185.020
324,36957.108000,248.093,27.662,-68.732,379.030,272.434,-213.208,40.960,-1156.490,-104.020
325,36957.116000,186.811,2.515,-171.331,369.340,275.705,-236.692,-30.040,-1159.490,-249.020
326,36957.132000,255.012,91.033,-113.556,350.950,277.209,-248.465,-138.040,-930.490,-347.020
327,36957.163000,255.012,54.821,-112.560,335.569,290.327,-262.916,-390.040,-831.490,-208.020
328,36957.204000,225.359,41.745,-178.303,328.842,295.093,-263.805,-109.040,-346.490,-196.020
329,36957.246000,228.324,77.957,-146.428,326.801,284.373,-265.028,-20.040,203.510,-48.020
330,36957.286000,218.440,97.069,-140.451,332.633,285.573,-257.144,124.960,457.510,148.980
331,36957.324000,225.359,67.898,-144.436,346.231,288.855,-246.255,26.960,727.510,366.980
332,36957.364000,240.185,29.674,-101.603,363.532,273.858,-229.880,-42.040,911.510,423.980
333,36957.403000,240.185,1.509,-97.619,379.030,272.434,-213.208,110.960,1031.510,357.980
334,36957.423000,225.359,25.650,-82.677,394.503,268.118,-195.619,214.960,1067.510,237.980
335,36957.463000,238.208,36.715,-46.817,402.238,263.749,-177.067,230.960,990.510,201.980
336,36957.511000,233.266,66.892,-56.778,410.012,265.033,-166.235,-298.040,811.510,171.980
337,36957.543000,247.104,24.644,-40.840,417.690,254.839,-147.813,-476.040,729.510,248.980
338,36957.583000,241.174,9.556,-10.957,423.530,254.356,-128.198,-269.040,553.510,210.980
339,36957.623000,242.162,15.591,-12.949,430.407,262.469,-115.255,-254.040,416.510,192.980
340,36957.663000,244.139,18.609,-19.922,432.299,255.907,-105.590,-227.040,368.510,175.980
341,36957.704000,244.139,10.562,8.965,433.206,248.301,-98.892,-146.040,211.510,145.980
342,36957.724000,245.127,50.798,-34.864,441.002,254.202,-98.745,74.960,45.510,115.980
343,36957.764000,258.965,47.780,-34.864,438.069,250.355,-95.894,-375.040,-30.490,141.980
344,36957.804000,244.139,-8.550,14.942,442.866,245.612,-93.047,-331.040,-208.490,102.980
345,36957.844000,256.988,-21.627,8.965,437.104,251.251,-98.818,65.960,-356.490,-55.020
346,36957.884000,285.652,130.263,-50.802,436.997,243.182,-112.727,209.960,-505.490,-42.020
347,36957.928000,298.502,58.845,-28.887,434.108,246.800,-123.440,-604.040,-634.490,39.980
348,36957.967000,316.293,50.798,-4.981,432.254,257.245,-133.019,-399.040,-655.490,12.980
349,36958.7000,312.340,80.974,-20.918,428.352,254.252,-135.055,-940.040,-833.490,-54.020
350,36958.47000,229.313,-19.615,-73.712,433.328,268.840,-135.701,-642.040,-392.490,2.980
351,36958.67000,237.220,-27.662,-184.280,426.494,265.538,-150.499,747.960,-591.490,-166.020
352,36958.107000,215.475,32.692,-106.584,421.537,258.177,-174.208,430.960,-888.490,-23.020
353,36958.147000,137.390,44.762,-48.809,412.940,271.469,-183.738,-644.040,-670.490,-92.020
354,36958.188000,101.807,-27.662,-49.805,412.016,273.638,-172.905,-848.040,-56.490,12.980
355,36958.224000,65.236,9.556,-64.747,414.987,277.852,-159.076,-231.040,647.510,-85.020
356,36958.266000,167.042,-77.957,-36.856,420.755,272.278,-150.361,595.960,1250.510,165.980
357,36958.308000,279.722,-61.862,-339.673,437.137,262.125,-133.881,1279.960,1358.510,337.980
358,36958.348000,426.008,248.959,95.626,431.179,247.398,-139.123,97.960,-100.490,-115.020
359,36958.368000,453.683,159.434,11.953,436.219,262.590,-112.298,-2529.040,-12.490,316.980
360,36958.408000,392.402,191.623,24.903,443.962,261.824,-106.414,-307.040,-100.490,279.980
361,36958.448000,272.803,210.735,5.977,444.939,261.920,-102.488,-332.040,-194.490,28.980
362,36958.548000,201.637,79.969,-83.673,444.996,269.514,-110.164,376.960,-353.490,-617.020
363,36958.563000,194.718,142.334,-169.339,436.289,274.715,-134.584,809.960,-542.490,-853.020
364,36958.589000,126.517,104.110,-50.802,417.219,304.494,-139.847,-1210.040,-605.490,-1129.020
365,36958.604000,160.124,16.597,-27.891,404.033,339.486,-131.253,-1040.040,-209.490,-1256.020
366,36958.644000,163.089,-12.574,-30.879,385.935,366.685,-121.861,-149.040,672.510,-1380.020
367,36958.684000,178.903,22.633,-84.669,368.740,387.982,-116.521,681.960,1136.510,-1563.020
368,36958.704000,305.421,-37.721,-28.887,351.442,401.254,-123.128,1645.960,1229.510,-1276.020
369,36958.749000,258.965,-65.886,-94.630,337.981,414.239,-144.443,2319.960,958.510,-1034.020
370,36958.789000,232.278,240.912,0.996,339.733,401.939,-175.112,-207.040,290.510,-73.020
371,36958.829000,384.494,-304.283,1.992,347.619,409.587,-139.622,-2016.040,-88.490,466.980
372,36958.869000,322.224,182.570,56.778,347.586,404.862,-133.843,-371.040,-89.490,311.980
373,36958.909000,347.923,219.788,32.872,347.634,407.969,-124.948,-494.040,-171.490,-150.020
374,36958.949000,300.479,161.446,-5.977,345.651,405.728,-137.751,682.960,-69.490,0.980
375,36958.989000,314.317,78.963,-21.914,350.474,404.761,-139.723,139.960,-25.490,-173.020
376,36959.9000,293.560,93.045,-20.918,342.827,414.373,-140.507,59.960,-87.490,-185.020
377,36959.56000,268.849,62.868,-15.938,342.871,418.321,-137.477,-60.040,-139.490,-36.020
378,36959.91000,240.185,22.633,-45.821,339.889,410.483,-139.619,24.960,-199.490,103.980
379,36959.124000,203.614,45.768,-91.642,342.861,414.696,-125.790,-1123.040,-235.490,340.980
380,36959.202000,218.440,-2.515,-146.428,350.673,418.116,-106.084,-1698.040,-825.490,513.980
381,36959.217000,225.359,14.585,-116.545,354.523,414.442,-98.312,-1170.040,-1381.490,660.980
382,36959.244000,231.290,-28.668,-59.767,352.465,404.435,-111.287,307.960,-1346.490,578.980
383,36959.284000,198.672,26.656,-90.646,353.161,385.113,-151.922,1808.960,-1036.490,849.980
384,36959.331000,177.915,77.957,-69.728,360.422,343.614,-189.112,1619.960,-621.490,1076.980
385,36959.344000,156.170,82.986,-47.813,368.841,318.047,-208.294,1205.960,-180.490,1100.980
386,36959.384000,181.869,88.016,-42.833,385.991,291.917,-212.761,767.960,422.510,1054.980
387,36959.431000,208.556,111.151,-40.840,406.072,264.326,-196.660,630.960,952.510,1024.980
388,36959.464000,220.417,149.375,-45.821,426.181,238.764,-176.591,415.960,1318.510,806.980
389,36959.512000,271.815,104.110,-256.996,433.868,231.288,-166.934,664.960,1093.510,678.980
390,36959.546000,310.363,288.189,27.891,424.242,235.185,-161.964,-2008.040,-101.490,-229.020
391,36959.594000,391.413,-159.434,-21.914,429.184,243.280,-149.026,227.960,218.510,212.980
392,36959.627000,303.444,104.110,-66.739,433.890,230.619,-153.219,799.960,552.510,117.980
393,36959.654000,253.035,0.503,-75.704,439.719,230.029,-138.510,-591.040,495.510,138.980
394,36959.687000,253.035,8.550,-72.716,443.558,223.615,-122.954,-332.040,553.510,84.980
395,36959.727000,259.954,11.568,-54.786,448.439,225.842,-112.107,-230.040,578.510,47.980
396,36959.767000,244.139,-16.597,-16.934,448.485,227.157,-96.387,-90.040,516.510,-3.020
397,36959.807000,250.069,-23.639,-4.981,449.532,234.092,-90.347,-29.040,362.510,-121.020
398,36959.847000,218.440,-8.550,18.926,447.582,231.290,-84.529,53.960,185.510,-121.020
399,36959.897000,245.127,25.650,22.911,450.504,234.145,-88.383,45.960,-243.490,-138.020
400,36959.931000,240.185,-19.615,0.996,440.852,238.668,-99.090,1.960,-531.490,-120.020
401,36959.977000,244.139,5.532,-26.895,437.883,235.360,-115.841,342.960,-513.490,22.980
402,36960.1000,250.069,72.927,-65.743,439.741,229.360,-124.796,182.960,-505.490,27.980
403,36960.29000,241.174,56.833,-53.790,441.745,237.965,-131.465,-68.040,-422.490,133.980
404,36960.76000,280.710,-30.680,-91.642,436.866,234.876,-137.428,-255.040,-203.490,212.980
405,36960.111000,259.954,8.550,-85.665,442.604,227.252,-133.663,110.960,381.510,-39.020
406,36960.157000,248.093,0.503,-56.778,442.659,230.424,-121.824,-69.040,556.510,-142.020
407,36960.191000,241.174,16.597,-16.934,441.808,239.454,-107.896,-54.040,518.510,-115.020
408,36960.229000,226.347,12.574,-0.996,447.133,488.110,-98.443,-133.040,144.510,-66.020
409,36960.271000,237.220,8.550,44.825,438.917,240.418,-106.900,-431.040,-366.490,-100.020
410,36960.294000,248.093,-10.562,-3.984,437.031,247.023,-114.603,-103.040,-804.490,-35.020
411,36960.329000,231.290,41.745,-43.829,433.105,246.446,-139.141,90.960,-1070.490,-35.020
412,36960.369000,224.371,66.892,-19.922,415.571,239.847,-166.782,-637.040,-1469.490,30.980
413,36960.408000,236.232,-25.650,-95.626,409.767,245.076,-191.195,-433.040,-1424.490,93.980
414,36960.451000,236.232,12.574,-113.556,398.090,244.316,-220.657,250.960,-1222.490,9.980
415,36960.503000,234.255,29.674,-131.486,386.459,244.872,-234.398,-15.040,-1088.490,-51.020
416,36960.531000,242.162,13.580,-137.463,380.566,239.573,-252.180,1.960,-662.490,-111.020
417,36960.578000,227.336,19.615,-175.315,369.914,240.246,-261.013,229.960,-194.490,-196.020
418,36960.606000,238.208,54.821,-185.276,370.019,250.062,-255.892,-111.040,341.510,-131.020
419,36960.626000,233.266,47.780,-173.323,379.723,249.552,-239.212,-89.040,733.510,56.980
420,36960.666000,239.197,-0.503,-140.451,395.202,245.302,-218.679,-12.040,1123.510,203.980
421,36960.711000,241.174,15.591,-123.518,405.822,237.272,-191.377,78.960,1436.510,89.980
422,36960.772000,225.359,28.668,-71.720,421.390,241.802,-168.688,70.960,1458.510,-0.020
423,36960.787000,224.371,1.509,-51.798,428.265,246.377,-140.133,-31.040,1274.510,-31.020
424,36960.829000,226.347,11.568,-15.938,436.066,247.919,-117.527,130.960,1082.510,-104.020
425,36960.868000,246.116,42.750,3.984,437.163,256.213,-93.805,-331.040,1026.510,37.980
426,36960.912000,230.301,3.521,6.973,442.932,248.891,-76.303,-117.040,655.510,114.980
427,36960.932000,248.093,19.615,4.981,442.894,244.123,-72.486,276.960,203.510,85.980
428,36960.971000,251.058,6.538,0.996,445.820,246.136,-70.474,90.960,7.510,49.980
429,36961.16000,256.000,12.574,-13.946,442.890,244.080,-74.449,-81.040,-77.490,12.980
430,36961.57000,244.139,-28.668,-3.984,446.750,243.147,-74.461,279.960,-81.490,36.980
431,36961.94000,257.977,19.615,-13.946,446.742,243.945,-82.289,237.960,-132.490,38.980
432,36961.127000,239.197,82.986,-9.961,442.819,240.758,-93.155,417.960,-372.490,-122.020
433,36961.176000,285.652,67.898,35.860,437.034,244.412,-100.932,-854.040,-814.490,-53.020
434,36961.208000,300.479,3.521,-147.424,438.017,248.974,-114.558,-251.040,-525.490,165.980
435,36961.248000,298.502,75.945,-106.584,438.970,247.969,-116.539,-255.040,-347.490,-32.020
436,36961.268000,301.467,65.886,-5.977,438.101,255.942,-106.557,-1387.040,-329.490,-51.020
437,36961.308000,230.301,-5.532,-20.918,438.136,258.920,-103.549,-905.040,-403.490,-90.020
438,36961.351000,260.942,-1.509,-111.564,436.217,264.338,-121.085,757.960,-490.490,-158.020
439,36961.391000,227.336,50.798,-145.432,434.185,258.106,-138.879,256.960,-840.490,-114.020
440,36961.431000,148.263,35.709,-11.953,423.599,266.459,-151.465,-660.040,-855.490,-147.020
441,36961.471000,28.664,46.774,-41.837,419.842,277.187,-147.312,-560.040,186.510,-185.020
442,36961.511000,94.888,7.544,-58.770,423.816,284.388,-130.473,160.960,1130.510,-413.020
443,36961.552000,180.880,-146.358,-144.436,430.577,280.829,-118.769,1967.960,1615.510,-245.020
444,36961.578000,492.232,-152.393,-36.856,425.612,269.865,-129.811,1490.960,-57.490,-51.020
445,36961.612000,369.668,90.028,-18.926,430.525,274.162,-113.034,-1469.040,316.510,322.980
446,36961.648000,354.842,283.159,76.700,430.624,280.397,-94.262,-1410.040,47.510,12.980
447,36961.688000,363.737,281.147,51.798,437.330,272.783,-90.495,-84.040,-99.490,181.980
448,36961.728000,256.000,219.788,21.914,440.250,273.868,-86.542,-1725.040,-464.490,261.980
449,36961.776000,196.695,93.045,-46.817,442.273,279.130,-68.769,-1432.040,-561.490,-163.020
450,36961.816000,189.776,-8.550,-146.428,438.509,293.310,-84.153,1059.960,-291.490,-594.020
451,36961.847000,169.019,183.576,-108.576,428.025,314.975,-109.191,356.960,-446.490,-1208.020
452,36961.893000,148.263,60.857,-55.782,409.889,340.039,-108.673,-622.040,-258.490,-1269.020
453,36961.907000,138.378,-18.609,-57.774,393.639,357.613,-96.549,-480.040,338.510,-1276.020
454,36961.948000,161.112,13.580,-82.677,372.717,392.572,-86.011,182.960,937.510,-1410.020
455,36961.988000,224.371,146.358,-121.525,354.489,408.833,-88.630,622.960,1004.510,-1788.020
456,36962.28000,235.243,-73.933,-105.588,334.345,429.649,-103.901,2237.960,1077.510,-1121.020
457,36962.69000,237.220,98.075,-88.654,330.236,416.753,-159.113,3334.960,662.510,-238.020
458,36962.109000,282.687,-23.639,-20.918,332.257,418.476,-125.728,-2962.040,-204.490,425.980
459,36962.149000,387.459,-33.697,29.883,337.148,419.041,-102.169,-1205.040,-133.490,369.980
460,36962.189000,342.981,206.711,37.852,340.057,419.134,-99.219,-20.040,-33.490,41.980
461,36962.209000,331.120,208.723,36.856,340.075,420.191,-95.273,-382.040,-78.490,40.980
462,36962.251000,319.259,140.322,31.875,336.193,418.276,-92.382,473.960,37.510,-91.020
463,36962.292000,290.595,7.544,-6.973,336.247,426.712,-105.924,799.960,-8.490,-116.020
464,36962.332000,242.162,-27.662,-40.840,336.089,414.630,-125.805,754.960,-165.490,8.980
465,36962.373000,191.753,55.827,-108.576,334.175,416.575,-124.786,-157.040,-277.490,267.980
466,36962.438000,208.556,26.656,-158.381,345.843,419.018,-107.055,-1965.040,-979.490,711.980
467,36962.463000,243.151,-18.609,-102.599,349.639,409.541,-98.431,-1503.040,-1481.490,742.980
468,36962.492000,223.382,-34.703,-60.763,349.549,403.392,-113.278,216.960,-1442.490,663.980
469,36962.532000,222.394,19.615,-48.809,353.988,371.444,-156.146,1893.960,-904.490,980.980
470,36962.553000,179.892,68.904,-75.704,363.239,335.789,-193.202,1752.960,-526.490,1107.980
471,36962.588000,168.031,98.075,-52.794,376.516,311.348,-207.446,864.960,47.510,1157.980
472,36962.628000,161.112,94.051,-63.751,389.810,283.540,-198.229,177.960,531.510,1101.980
473,36962.672000,204.602,122.216,-58.770,409.961,262.789,-180.014,512.960,1099.510,816.980
474,36962.717000,284.664,99.081,-93.634,421.555,259.234,-170.262,823.960,1434.510,601.980
475,36962.757000,297.514,139.316,-181.292,434.925,236.562,-148.182,490.960,770.510,396.980
476,36962.789000,278.734,295.230,-27.891,434.086,246.585,-133.251,-1598.040,112.510,-96.020
477,36962.837000,361.761,-195.646,-6.973,439.918,247.785,-125.367,1382.960,475.510,151.980
478,36962.852000,266.873,81.980,-71.720,437.852,235.943,-133.480,1048.960,274.510,-5.020
479,36962.894000,234.255,0.503,-66.739,439.766,231.366,-121.809,-53.040,464.510,131.980
480,36962.929000,255.012,16.597,-35.860,443.703,234.683,-105.056,-190.040,681.510,96.980
481,36962.969000,253.035,39.733,-16.934,447.527,229.004,-100.271,143.960,449.510,79.980
482,36963.21000,257.977,18.609,8.965,450.426,227.241,-93.439,-171.040,200.510,91.980
483,36963.66000,247.104,-6.538,-15.938,449.498,230.252,-88.471,-147.040,134.510,57.980
484,36963.96000,242.162,0.503,-7.969,452.386,228.382,-86.545,-388.040,-93.490,8.980
485,36963.133000,236.232,-14.585,14.942,450.447,228.320,-88.512,-160.040,-226.490,-39.020
486,36963.153000,236.232,1.509,9.961,445.640,234.724,-104.071,223.960,-604.490,-74.020
487,36963.193000,247.104,4.527,-39.844,441.708,230.565,-114.958,192.960,-810.490,-20.020
488,36963.233000,246.116,3.521,-77.696,437.760,227.140,-136.617,357.960,-767.490,3.980
489,36963.273000,256.000,22.633,-89.650,434.836,228.665,-154.241,241.960,-616.490,-46.020
490,36963.335000,268.849,-10.562,-116.545,428.010,223.680,-157.308,156.960,-171.490,-78.020
491,36963.351000,257.977,34.703,-87.658,430.934,225.672,-156.277,287.960,315.510,-139.020
492,36963.392000,252.046,52.809,-58.770,432.936,230.739,-147.335,-149.040,396.510,-70.020
493,36963.431000,238.208,2.515,-36.856,433.992,237.761,-137.370,-350.040,335.510,-55.020
494,36963.471000,232.278,-2.515,-11.953,433.033,236.953,-129.545,-304.040,164.510,-100.020
495,36963.499000,234.255,13.580,-15.938,430.180,242.685,-132.366,-165.040,-167.490,-125.020
496,36963.529000,239.197,17.603,-12.949,430.101,235.760,-138.403,-188.040,-457.490,-129.020
497,36963.576000,229.313,27.662,-41.837,423.382,243.245,-148.058,-303.040,-821.490,-114.020
498,36963.609000,231.290,20.621,-28.887,413.780,254.413,-165.482,-574.040,-1117.490,-29.020
499,36963.649000,228.324,9.556,-96.623,403.998,248.882,-192.104,-144.040,-1207.490,38.980
500,36963.689000,225.359,7.544,-114.553,389.486,254.026,-216.536,30.960,-1200.490,-18.020
501,36963.729000,223.382,24.644,-138.459,384.542,245.025,-226.553,-236.040,-1190.490,-12.020
502,36963.769000,258.965,29.674,-142.444,375.877,253.269,-245.021,-133.040,-925.490,-45.020
503,36963.789000,215.475,5.532,-156.389,365.211,253.812,-259.741,170.960,-655.490,-113.020
504,36963.839000,222.394,35.709,-189.261,360.358,253.614,-266.621,-11.040,-131.490,-75.020
505,36963.873000,222.394,30.680,-174.319,364.220,250.933,-257.846,-44.040,275.510,-65.020
506,36963.919000,228.324,68.904,-168.342,369.098,252.253,-244.077,-53.040,736.510,172.980
507,36963.957000,235.243,18.609,-143.440,382.629,248.739,-233.340,-14.040,1034.510,322.980
508,36963.991000,237.220,9.556,-116.545,399.148,250.474,-205.808,109.960,1345.510,242.980
509,36964.31000,240.185,-5.532,-80.685,414.574,239.557,-179.540,-45.040,1380.510,187.980
510,36964.71000,219.429,0.503,-50.802,423.314,238.196,-156.996,201.960,1185.510,-85.020
511,36964.119000,227.336,28.668,-62.755,429.225,243.668,-131.365,-445.040,991.510,-87.020
512,36964.132000,239.197,35.709,-21.914,434.226,254.977,-104.626,-548.040,814.510,30.980
513,36964.174000,242.162,7.544,-18.926,440.982,248.721,-83.176,-360.040,698.510,113.980
514,36964.214000,248.093,4.527,-1.992,441.009,248.980,-71.402,-183.040,515.510,95.980
515,36964.261000,235.243,3.521,-4.981,442.022,252.075,-63.486,-65.040,300.510,45.980
516,36964.294000,239.197,29.674,1.992,442.954,248.222,-62.589,67.960,37.510,-27.020
517,36964.333000,249.081,5.532,-9.961,441.053,252.044,-64.469,14.960,-204.490,6.980
518,36964.374000,254.023,-54.821,-13.946,443.964,255.675,-77.131,328.960,-237.490,-124.020
519,36964.414000,256.988,73.933,-8.965,437.169,255.394,-86.958,403.960,-434.490,-212.020
520,36964.434000,293.560,84.998,-6.973,434.254,257.890,-104.561,71.960,-633.490,-63.020
521,36964.474000,359.784,167.481,-12.949,431.266,250.871,-113.549,-338.040,-704.490,15.980
522,36964.510000,259.954,207.717,-83.673,432.268,253.858,-110.539,-1896.040,-614.490,254.980
523,36964.554000,242.162,87.010,-75.704,433.382,268.473,-108.251,-1081.040,-620.490,-195.020
524,36964.594000,197.683,44.762,-157.385,428.580,275.805,-125.750,873.960,-411.490,-580.020
525,36964.636000,192.741,156.417,-151.409,416.078,286.966,-142.200,500.960,-656.490,-681.020
526,36964.671000,178.903,117.187,-69.728,398.883,310.032,-144.666,-1129.040,-675.490,-972.020
527,36964.711000,178.903,16.597,-56.778,391.364,330.561,-134.419,-1338.040,-279.490,-1058.020
528,36964.751000,161.112,27.662,-53.790,374.232,356.863,-122.104,-692.040,295.510,-962.020
529,36964.771000,160.124,60.857,-54.786,365.820,383.380,-103.881,-576.040,562.510,-1010.020
530,36964.811000,190.764,51.804,-35.860,351.544,402.224,-78.976,-747.040,1022.510,-1018.020
531,36964.854000,234.255,53.815,-154.397,335.248,414.081,-62.076,60.960,1138.510,-1087.020
532,36964.894000,259.954,-106.122,-140.451,325.541,418.949,-101.215,3035.960,446.510,-391.020
533,36964.934000,297.514,291.206,8.965,319.572,407.631,-127.957,1842.960,760.510,-309.020
534,36964.974000,342.981,143.340,26.895,326.526,419.131,-93.364,-2131.040,129.510,229.980
535,36965.14000,309.375,135.293,35.860,330.545,426.763,-56.901,-1518.040,87.510,-0.020
536,36965.53000,277.745,118.193,20.918,329.628,429.882,-47.027,-211.040,268.510,-97.020
537,36965.74000,242.162,14.585,-40.840,328.614,425.903,-51.041,1113.960,633.510,-187.020
538,36965.115000,139.367,99.081,-116.545,324.777,433.222,-69.519,1202.960,522.510,-303.020
539,36965.154000,143.320,138.310,2.988,320.050,443.919,-66.349,-422.040,97.510,-319.020
540,36965.194000,139.367,76.951,37.852,313.317,445.989,-57.492,-289.040,387.510,-398.020
541,36965.234000,149.251,45.768,8.965,314.373,452.126,-43.624,-297.040,621.510,-181.020
542,36965.274000,176.927,33.697,-190.257,307.601,452.060,-43.640,92.960,172.510,-550.020
543,36965.314000,211.521,-1.509,-132.482,302.728,453.437,-67.155,1175.960,-549.490,-133.020
544,36965.352000,299.490,121.210,26.895,294.916,451.786,-94.667,863.960,-224.490,-156.020
545,36965.394000,354.842,103.104,27.891,296.848,450.014,-87.837,-706.040,-439.490,265.980
546,36965.414000,357.807,224.817,58.770,307.514,443.300,-44.815,-2298.040,-167.490,587.980
547,36965.454000,308.386,54.821,-42.833,318.284,444.633,11.135,-4493.040,-720.490,730.980
548,36965.496000,292.571,-51.804,-160.374,337.440,413.927,62.469,-2539.040,-1092.490,737.980
549,36965.536000,267.861,-62.868,-62.755,348.952,406.942,48.609,274.960,-1076.490,712.980
550,36965.576000,257.977,-43.756,-46.817,362.248,393.245,-6.584,3284.960,-436.490,734.980
551,36965.616000,228.324,55.827,-69.728,374.502,374.425,-73.661,3819.960,-89.490,796.980
552,36965.651000,197.683,176.534,-60.763,381.881,345.504,-112.533,1869.960,-369.490,904.980
553,36965.691000,214.486,77.957,-58.770,391.371,329.741,-127.573,1467.960,-358.490,852.980
554,36965.711000,170.996,99.081,-88.654,396.899,306.022,-149.662,1030.960,-217.490,834.980
555,36965.751000,175.938,118.193,-83.673,405.447,291.372,-157.815,804.960,-138.490,828.980
556,36965.791000,185.822,133.281,-29.883,411.987,268.957,-165.163,826.960,289.510,735.980
557,36965.832000,218.440,141.328,-52.794,420.462,243.928,-159.817,949.960,663.510,627.980
558,36965.883000,273.792,464.220,-137.463,418.615,250.037,-145.956,-1775.040,-113.490,-180.020
559,36965.914000,295.537,43.756,-48.809,424.440,250.287,-137.112,-239.040,260.510,308.980
560,36965.951000,304.432,-44.762,-48.809,425.384,247.427,-135.212,527.960,326.510,165.980
561,36965.997000,256.000,33.697,-64.747,425.395,247.535,-130.307,22.960,337.510,-133.020
562,36966.14000,239.197,38.727,-25.899,431.210,246.815,-121.484,-111.040,530.510,14.980
563,36966.53000,258.965,24.644,-1.992,431.125,238.077,-121.679,927.960,328.510,116.980
564,36966.94000,239.197,6.538,-71.720,433.086,240.987,-122.590,859.960,208.510,2.980
565,36966.144000,260.942,46.774,-55.782,435.979,240.045,-122.605,89.960,143.510,-66.020
566,36966.201000,260.942,7.544,-36.856,432.067,235.196,-120.760,27.960,223.510,11.980
567,36966.226000,246.116,-17.603,-10.957,435.018,240.100,-119.664,179.960,153.510,-52.020
568,36966.253000,236.232,0.503,4.981,433.053,236.262,-116.811,-125.040,-78.490,-120.020
569,36966.293000,237.220,25.650,-2.988,426.286,238.009,-122.671,17.960,-415.490,-137.020
570,36966.333000,243.151,26.656,-15.938,422.425,242.459,-139.252,174.960,-636.490,-73.020
571,36966.361000,231.290,41.745,-60.763,421.370,237.207,-157.022,272.960,-696.490,11.980
572,36966.402000,257.977,37.721,-45.821,416.440,230.105,-168.958,28.960,-625.490,173.980
573,36966.434000,250.069,-29.674,-100.607,414.534,234.767,-176.704,-62.040,-532.490,136.980
574,36966.472000,259.954,13.580,-129.494,413.504,229.753,-183.682,25.960,-173.490,-21.020
575,36966.512000,250.069,12.574,-117.541,409.704,235.670,-177.675,60.960,219.510,-67.020
576,36966.552000,252.046,7.544,-93.634,417.490,238.830,-169.743,82.960,544.510,-108.020
577,36966.599000,250.069,27.662,-43.829,416.528,237.116,-158.996,-238.040,477.510,-108.020
578,36966.632000,232.278,17.603,-14.942,418.479,236.402,-148.220,-511.040,134.510,-87.020
579,36966.658000,218.440,2.515,-5.977,419.566,248.126,-145.016,-310.040,-233.490,-83.020
580,36966.693000,241.174,15.591,-11.953,412.842,254.684,-152.730,-184.040,-679.490,-119.020
581,36966.732000,228.324,26.656,-43.829,405.945,246.376,-174.503,35.960,-898.490,-98.020
582,36966.776000,213.498,59.851,-98.615,397.320,258.524,-191.904,-185.040,-1077.490,-2.020
583,36966.816000,225.359,23.639,-81.681,381.725,251.103,-213.676,-586.040,-1329.490,-12.020
584,36966.857000,253.035,12.574,-68.732,369.055,246.558,-238.320,-80.040,-1308.490,0.980
585,36966.899000,225.359,11.568,-132.482,352.700,260.486,-259.620,150.960,-1088.490,-143.020
586,36966.932000,219.429,20.621,-158.381,342.057,262.130,-268.432,15.960,-852.490,-268.020
587,36966.972000,221.405,35.709,-204.202,335.314,266.745,-276.189,15.960,-323.490,-247.020
588,36966.997000,215.475,15.591,-203.206,330.465,265.706,-277.203,-6.040,171.510,-164.020
589,36967.41000,219.429,67.898,-178.303,337.227,263.032,-269.402,281.960,721.510,-87.020
590,36967.72000,217.452,57.839,-161.370,351.763,262.526,-254.673,204.960,1050.510,61.980
591,36967.122000,226.347,60.857,-138.459,369.219,261.336,-228.185,-30.040,1283.510,250.980
592,36967.157000,230.301,27.662,-111.564,387.640,260.134,-202.676,-25.040,1402.510,289.980
593,36967.192000,233.266,22.633,-77.696,399.273,258.716,-184.050,-42.040,1482.510,180.980
594,36967.232000,221.405,24.644,-42.833,410.897,253.694,-152.756,-122.040,1299.510,90.980
595,36967.272000,247.104,19.615,-8.965,416.789,257.224,-127.168,-376.040,1057.510,47.980
596,36967.298000,217.452,37.721,-3.984,428.496,260.918,-96.661,-564.040,1105.510,180.980
597,36967.338000,229.313,72.927,-7.969,430.384,252.566,-80.171,-303.040,510.510,177.980
598,36967.378000,248.093,-9.556,-10.957,439.074,248.961,-71.406,-380.040,162.510,245.980
599,36967.421000,252.046,-34.703,-19.922,439.111,251.960,-67.417,-21.040,167.510,110.980
600,36967.453000,262.919,10.562,-23.907,437.138,247.173,-63.605,-201.040,175.510,-30.020
601,36967.521000,242.162,9.556,-4.981,440.124,254.170,-55.598,-111.040,139.510,-5.020
602,36967.534000,245.127,-13.580,16.934,437.251,257.939,-59.443,-86.040,-92.490,-80.020
603,36967.574000,240.185,-3.521,25.899,439.122,252.068,-62.511,-226.040,-321.490,-132.020
604,36967.614000,255.012,14.585,-19.922,431.370,252.748,-72.319,159.960,-514.490,-144.020
605,36967.634000,261.931,12.574,0.000,427.568,263.045,-87.789,-11.040,-702.490,-204.020
606,36967.674000,298.502,61.862,10.957,424.657,263.815,-95.624,-346.040,-928.490,-143.020
607,36967.714000,358.795,204.699,-15.938,423.712,269.307,-110.214,-732.040,-924.490,54.980
608,36967.754000,256.000,26.656,-96.623,422.804,276.029,-113.008,-1181.040,-751.490,57.980
609,36967.793000,230.301,-47.780,-120.529,420.835,275.686,-127.730,540.960,-450.490,-228.020
610,36967.834000,206.579,-32.692,-155.393,415.000,276.212,-145.383,670.960,-448.490,-195.020
611,36967.874000,158.147,-59.851,-79.689,417.879,275.140,-151.284,-97.040,-300.490,155.980
612,36967.913000,129.483,-53.815,-20.918,417.884,275.184,-149.322,-395.040,178.510,243.980
613,36967.933000,121.575,-37.721,-20.918,428.509,269.850,-131.766,-249.040,915.510,392.980
614,36967.973000,184.834,-51.804,-270.942,438.045,251.886,-114.493,-43.040,652.510,428.980
615,36968.13000,351.876,164.464,89.650,431.320,256.675,-114.401,-451.040,238.510,-280.020
616,36968.53000,481.359,175.528,54.786,431.497,270.698,-94.476,-834.040,347.510,-17.020
617,36968.93000,391.413,260.024,38.848,434.330,262.140,-87.795,-123.040,373.510,329.980
618,36968.133000,270.826,205.705,16.934,440.165,263.361,-78.930,-863.040,-62.490,-82.020
619,36968.174000,235.243,74.939,-44.825,437.374,275.846,-83.562,290.960,-148.490,-564.020
620,36968.218000,197.683,127.246,-135.471,424.827,282.175,-99.138,773.960,-235.490,-938.020
621,36968.258000,156.170,121.210,-42.833,413.494,311.123,-101.462,-737.040,-346.490,-1094.020
622,36968.278000,170.996,29.674,-11.953,401.222,339.457,-87.129,-1063.040,96.510,-1094.020
623,36968.318000,208.556,-0.503,-30.879,388.898,362.894,-74.867,-259.040,615.510,-1204.020
624,36968.358000,210.533,12.574,-41.837,370.724,383.190,-70.532,566.960,1001.510,-1232.020
625,36968.393000,206.579,96.063,-83.673,350.571,400.403,-73.135,498.960,824.510,-1520.020
626,36968.456000,242.162,-4.527,-71.720,338.073,411.607,-87.622,2139.960,998.510,-1031.020
627,36968.476000,340.015,-29.674,4.981,331.101,400.818,-133.968,3329.960,407.510,-147.020
628,36968.521000,370.656,-65.886,-16.934,330.150,405.361,-147.598,-1022.040,290.510,84.980
629,36968.567000,367.691,44.762,25.899,336.927,401.954,-129.027,-822.040,86.510,214.980
630,36968.574000,366.703,143.340,51.798,333.132,404.397,-104.464,-1519.040,-53.490,92.980
631,36968.621000,309.375,215.764,37.852,337.132,415.373,-92.444,-181.040,-21.490,38.980
632,36968.656000,296.525,90.028,17.930,335.196,416.217,-97.333,359.960,73.510,-29.020
633,36968.703000,258.965,1.509,-28.887,339.054,416.147,-102.230,160.960,-73.490,75.980
634,36968.738000,206.579,4.527,-86.661,339.983,410.504,-94.508,-508.040,-221.490,288.980
635,36968.779000,167.042,4.527,-135.471,343.845,407.823,-85.733,-1013.040,-814.490,461.980
636,36968.819000,221.405,18.609,-94.630,346.711,402.220,-77.025,-1334.040,-1214.490,621.980
637,36968.862000,228.324,-11.568,-69.728,351.473,396.270,-84.993,-427.040,-1365.490,740.980
638,36968.899000,214.486,-19.615,-52.794,361.801,370.462,-115.944,652.960,-1194.490,1001.980
639,36968.919000,237.220,43.756,-42.833,370.323,355.574,-134.889,1200.960,-734.490,1269.980
640,36968.959000,206.579,97.069,-23.907,382.516,320.314,-155.259,1085.960,-319.490,1234.980
641,36969.1000,186.811,117.187,-6.973,394.841,295.130,-158.734,502.960,198.510,1028.980
642,36969.34000,214.486,110.145,-14.942,412.128,280.003,-148.247,695.960,993.510,719.980
643,36969.83000,238.208,174.523,-220.140,424.501,255.271,-131.117,1060.960,1328.510,756.980
644,36969.116000,243.151,392.802,-242.054,428.383,254.554,-121.319,-840.040,-74.490,89.980
645,36969.156000,238.208,51.804,0.000,435.183,255.763,-113.432,-394.040,512.510,107.980
646,36969.207000,359.784,171.505,25.899,426.337,241.137,-112.795,1843.960,664.510,98.980
647,36969.234000,261.931,-37.721,-51.798,431.216,244.226,-106.832,-505.040,263.510,273.980
648,36969.293000,252.046,-26.656,-31.875,437.965,239.675,-96.131,35.960,475.510,58.980
649,36969.309000,247.104,-0.503,-13.946,438.939,237.980,-85.380,276.960,449.510,10.980
650,36969.338000,255.012,26.656,11.953,440.848,235.108,-84.459,140.960,202.510,2.980
651,36969.378000,247.104,-5.532,-4.981,441.869,240.921,-85.308,-3.040,8.510,30.980
652,36969.416000,241.174,-8.550,0.996,441.837,237.965,-87.335,199.960,-190.490,-60.020
653,36969.463000,238.208,40.739,15.938,438.961,243.482,-99.968,68.960,-596.490,-132.020
654,36969.496000,239.197,30.680,-26.895,435.063,244.048,-116.634,-91.040,-808.490,-58.020
655,36969.516000,251.058,20.621,-73.712,429.168,237.843,-131.495,265.960,-644.490,109.980
656,36969.556000,258.965,13.580,-78.693,423.308,234.615,-143.346,112.960,-409.490,120.980
657,36969.612000,263.907,1.509,-78.693,425.243,235.518,-147.245,-94.040,-182.490,27.980
658,36969.634000,252.046,-22.633,-96.623,427.174,235.494,-149.203,144.960,73.510,-61.020
659,36969.674000,258.965,18.609,-72.716,427.232,240.456,-144.189,4.960,391.510,-100.020
660,36969.714000,239.197,32.692,-52.794,429.135,234.002,-129.618,-114.040,443.510,-58.020
661,36969.756000,239.197,13.580,-29.883,431.102,236.092,-123.684,-148.040,207.510,-48.020
662,36969.794000,238.208,4.527,-9.961,429.186,238.015,-123.645,-156.040,-29.490,-80.020
663,36969.839000,240.185,-4.527,-12.949,423.457,246.610,-127.389,-27.040,-252.490,-139.020
664,36969.866000,242.162,6.538,-9.961,423.421,245.381,-139.185,-67.040,-544.490,-178.020
665,36969.899000,237.220,19.615,-31.875,411.855,250.963,-144.969,-134.040,-758.490,-174.020
666,36969.939000,236.232,18.609,-50.802,409.872,250.491,-165.578,-7.040,-989.490,-127.020
667,36969.979000,226.347,27.662,-91.642,398.277,255.794,-184.117,-237.040,-1097.490,-101.020
668,36970.19000,212.510,35.709,-100.607,388.603,260.101,-204.636,-218.040,-1103.490,-56.020
669,36970.61000,255.012,52.809,-104.591,377.927,259.673,-219.377,-323.040,-1035.490,31.980
670,36970.101000,235.243,4.527,-123.518,367.249,259.225,-235.101,-185.040,-872.490,21.980
671,36970.141000,225.359,15.591,-155.393,356.625,262.810,-243.869,-28.040,-597.490,2.980
672,36970.161000,224.371,31.686,-158.381,352.680,255.890,-247.954,-87.040,-138.490,-15.020
673,36970.201000,223.382,52.809,-165.354,358.565,263.757,-245.805,-4.040,260.510,2.980
674,36970.247000,231.290,60.857,-155.393,364.403,265.022,-234.978,-143.040,547.510,176.980
675,36970.284000,232.278,13.580,-140.451,375.966,256.764,-218.466,-118.040,887.510,268.980
676,36970.319000,244.139,-0.503,-118.537,388.552,253.456,-197.919,-3.040,1089.510,224.980
677,36970.359000,234.255,13.580,-93.634,400.272,259.027,-170.312,120.960,1328.510,72.980
678,36970.399000,232.278,39.733,-73.712,410.947,258.570,-151.667,152.960,1322.510,-73.020
679,36970.446000,229.313,37.721,-30.879,419.731,261.157,-126.094,-358.040,1146.510,72.980
680,36970.479000,234.255,-0.503,-30.879,430.431,261.822,-100.559,-76.040,1046.510,150.980
681,36970.511000,245.127,56.833,-3.984,432.345,254.591,-77.180,-420.040,905.510,199.980
682,36970.539000,256.000,11.568,-1.992,437.236,256.041,-57.524,-471.040,703.510,237.980
683,36970.579000,241.174,-8.550,8.965,443.076,254.673,-34.006,-492.040,508.510,100.980
684,36970.621000,230.301,-22.633,25.899,441.153,254.762,-29.105,-298.040,157.510,5.980
685,36970.661000,243.151,-22.633,32.872,443.957,245.923,-35.179,116.960,-173.490,-18.020
686,36970.701000,255.012,37.721,-4.981,442.065,251.600,-40.941,159.960,-404.490,-124.020
687,36970.741000,256.000,6.538,-24.903,440.112,252.293,-52.698,-34.040,-469.490,-91.020
688,36970.781000,269.838,-3.521,-10.957,436.308,261.684,-65.246,532.960,-384.490,-171.020
689,36970.801000,282.687,81.980,-3.984,433.423,266.229,-77.900,247.960,-488.490,-205.020
690,36970.841000,280.710,73.933,-1.992,427.570,263.066,-86.808,-649.040,-723.490,-116.020
691,36970.883000,279.722,61.862,-6.973,426.642,269.594,-98.433,-487.040,-832.490,-103.020
692,36970.916000,262.919,13.580,-44.825,421.803,270.410,-103.329,-407.040,-660.490,-41.020
693,36970.956000,293.560,-203.694,-118.537,419.865,274.771,-124.810,785.960,-624.490,-226.020
694,36971.2000,206.579,-22.633,-71.720,415.846,266.254,-157.370,1556.960,-493.490,-54.020
695,36971.46000,92.911,14.585,0.000,417.755,263.382,-156.449,-521.040,170.510,296.980
696,36971.79000,93.900,-49.792,-255.004,428.334,249.678,-122.408,-1492.040,972.510,717.980
697,36971.119000,282.687,166.475,-90.646,432.284,254.009,-103.671,-1189.040,-83.490,364.980
698,36971.139000,246.116,144.346,79.689,429.402,253.290,-90.944,-790.040,472.510,-103.020
699,36971.179000,411.181,91.033,20.918,434.274,256.315,-87.925,404.960,161.510,50.980
700,36971.218000,398.332,128.251,9.961,437.141,252.481,-87.023,-366.040,-90.490,32.980
701,36971.267000,303.444,222.806,20.918,438.126,252.663,-79.172,-1350.040,-419.490,13.980
702,36971.298000,179.892,94.051,-75.704,437.234,259.536,-75.098,-1204.040,-441.490,-116.020
703,36971.338000,192.741,36.715,-122.521,433.470,274.601,-94.385,968.960,-323.490,-645.020
704,36971.381000,147.274,96.063,-114.553,422.936,288.736,-108.803,1084.960,-200.490,-893.020
705,36971.421000,130.471,174.523,-20.918,412.499,309.970,-109.335,-738.040,40.510,-1451.020
706,36971.441000,161.112,61.862,-22.911,393.519,345.013,-95.848,-691.040,599.510,-1622.020
707,36971.481000,212.510,21.627,-35.860,374.446,368.600,-73.790,35.960,1207.510,-1518.020
708,36971.527000,279.722,38.727,-51.798,349.621,400.566,-65.288,81.960,1148.510,-1685.020
709,36971.561000,249.081,25.650,-70.724,328.447,412.850,-70.944,1313.960,1359.510,-1303.020
710,36971.601000,405.251,-261.029,-36.856,323.604,419.793,-106.104,2070.960,530.510,-433.020
711,36971.641000,263.907,278.130,41.837,324.484,415.445,-127.773,1939.960,892.510,-316.020
712,36971.682000,386.471,-94.051,18.926,331.333,416.244,-94.398,-1501.040,246.510,465.980
713,36971.722000,332.108,101.092,60.763,332.382,418.799,-66.881,-1188.040,186.510,136.980
714,36971.762000,316.293,133.281,80.685,333.432,423.124,-47.169,-727.040,-93.490,128.980
715,36971.782000,280.710,37.721,20.918,343.098,419.615,-34.478,-741.040,-117.490,296.980
716,36971.822000,261.931,29.674,-85.665,347.882,412.111,-24.828,-907.040,-756.490,292.980
717,36971.868000,252.046,-16.597,-124.514,347.750,402.035,-41.723,-465.040,-1198.490,351.980
718,36971.906000,237.220,0.503,-73.712,349.579,396.639,-67.337,1973.960,-1165.490,72.980
719,36971.941000,210.533,60.857,-63.751,337.717,383.538,-128.453,3037.960,-960.490,162.980
720,36971.981000,186.811,78.963,-73.712,339.329,362.846,-187.749,2126.960,-854.490,703.980
721,36972.21000,201.637,76.951,-71.720,346.755,336.147,-213.823,879.960,-644.490,929.980
722,36972.61000,187.799,64.880,-70.724,354.287,314.863,-214.280,-252.040,-471.490,1017.980
723,36972.81000,180.880,50.798,-83.673,364.865,306.423,-205.619,-786.040,-193.490,1054.980
724,36972.121000,186.811,93.045,-73.712,376.402,297.044,-195.996,-518.040,46.510,1090.980
725,36972.161000,184.834,102.098,-53.790,386.976,286.813,-180.510,-513.040,400.510,1045.980
726,36972.202000,203.614,121.210,-37.852,406.247,274.812,-161.123,-540.040,692.510,886.980
727,36972.241000,260.942,99.081,-48.809,414.887,261.045,-129.048,-761.040,1082.510,726.980
728,36972.302000,238.208,223.811,-205.198,426.456,251.083,-101.786,-485.040,861.510,406.980
729,36972.318000,316.293,32.692,52.794,424.574,254.214,-90.934,-645.040,73.510,5.980
730,36972.359000,330.131,67.898,-43.829,428.381,249.246,-97.901,1204.960,134.510,184.980
731,36972.381000,233.266,79.969,-91.642,429.384,254.002,-102.696,366.960,43.510,99.980
732,36972.436000,257.977,-4.527,-70.724,431.283,250.159,-101.797,70.960,251.510,119.980
733,36972.466000,260.942,-5.532,-59.767,435.112,244.523,-95.049,111.960,389.510,37.980
734,36972.509000,254.023,-5.532,-29.883,432.223,242.855,-81.363,189.960,571.510,15.980
735,36972.543000,241.174,25.650,-14.942,435.186,247.867,-75.362,233.960,406.510,0.980
736,36972.583000,239.197,4.527,11.953,439.020,244.042,-74.458,129.960,-58.490,18.980
737,36972.623000,228.324,-1.509,-10.957,439.021,245.812,-82.264,422.960,-374.490,-42.020
738,36972.666000,239.197,53.815,-29.883,434.148,245.419,-97.973,146.960,-589.490,-4.020
739,36972.699000,258.965,9.556,-62.755,431.155,239.242,-112.827,99.960,-525.490,76.980
740,36972.728000,263.907,16.597,-106.584,431.144,239.134,-117.732,314.960,-37.490,-43.020
741,36972.766000,295.537,55.827,-59.767,430.180,237.399,-107.966,-449.040,473.510,50.980
742,36972.807000,234.255,-2.515,-49.805,437.993,241.703,-92.164,-343.040,513.510,81.980
743,36972.848000,237.220,5.532,-13.946,439.934,240.902,-85.313,-211.040,291.510,59.980
744,36972.884000,233.266,-35.709,16.934,441.871,240.058,-80.424,-402.040,-7.490,34.980
745,36972.918000,231.290,-40.739,9.961,437.983,238.963,-84.379,-25.040,-396.490,-50.020
746,36972.958000,233.266,-9.556,-17.930,434.145,244.513,-95.051,153.960,-667.490,-96.020
747,36973.7000,223.382,41.745,-17.930,425.406,247.643,-125.401,41.960,-1242.490,-198.020
748,36973.19000,243.151,14.585,-31.875,415.654,245.046,-150.976,-412.040,-1590.490,-57.020
749,36973.59000,217.452,-5.532,-107.580,397.159,240.250,-184.464,263.960,-1382.490,-99.020
750,36973.103000,238.208,29.674,-79.689,388.418,240.727,-203.105,-204.040,-1327.490,-7.020
751,36973.143000,231.290,-27.662,-153.401,373.900,244.037,-222.675,187.960,-1117.490,27.980
752,36973.178000,220.417,-21.627,-196.233,364.208,246.424,-242.256,262.960,-749.490,-167.020
753,36973.218000,208.556,17.603,-213.167,359.372,248.146,-250.073,98.960,-111.490,-179.020
754,36973.258000,225.359,56.833,-197.230,364.175,242.584,-240.380,-156.040,358.510,-28.020
755,36973.299000,236.232,62.868,-172.327,370.023,243.935,-225.627,-140.040,767.510,232.980
756,36973.319000,232.278,-7.544,-136.467,390.407,245.664,-200.049,-242.040,1171.510,385.980
757,36973.359000,224.371,-1.509,-99.611,401.953,235.486,-182.599,-123.040,1280.510,234.980
758,36973.402000,224.371,-15.591,-79.689,412.698,240.099,-154.034,-77.040,1200.510,94.980
759,36973.441000,232.278,-6.538,-54.786,423.458,248.379,-135.195,115.960,1089.510,-32.020
760,36973.488000,230.301,14.585,-41.837,425.412,245.939,-114.651,-66.040,890.510,-107.020
761,36973.522000,242.162,1.509,-24.903,430.299,247.345,-96.958,-206.040,717.510,-36.020
762,36973.562000,251.058,36.715,-23.907,433.263,250.609,-82.169,-53.040,549.510,-21.020
763,36973.598000,255.012,13.580,-18.926,434.268,252.733,-74.275,-342.040,466.510,52.980
764,36973.647000,245.127,-2.515,-10.957,438.152,251.153,-59.592,-196.040,387.510,72.980
765,36973.658000,241.174,-0.503,-20.918,439.084,246.416,-54.792,-64.040,202.510,1.980
766,36973.698000,244.139,-10.562,-4.981,438.086,243.472,-55.840,17.960,13.510,-42.020
767,36973.739000,246.116,4.527,-33.868,434.287,251.158,-57.639,263.960,-78.490,-67.020
768,36973.779000,251.058,47.780,-22.911,439.174,256.966,-60.441,-35.040,-170.490,-89.020
769,36973.824000,262.919,-19.615,7.969,436.199,250.961,-67.446,-477.040,-389.490,-80.020
770,36973.859000,278.734,6.538,-20.918,429.475,256.634,-71.256,198.960,-430.490,-161.020
771,36973.904000,305.421,136.299,-15.938,428.485,257.294,-84.973,109.960,-602.490,-114.020
772,36973.944000,333.097,106.122,-14.942,421.747,262.837,-94.671,-609.040,-760.490,34.980
773,36973.964000,314.317,130.263,-30.879,429.490,264.703,-101.478,-1229.040,-578.490,121.980
774,36974.4000,203.614,2.515,-66.739,425.672,270.448,-103.320,-617.040,-503.490,-142.020
775,36974.43000,205.591,-17.603,-143.440,420.774,268.933,-125.919,1359.960,-371.490,-471.020
776,36974.84000,161.112,99.081,-15.938,413.959,268.458,-144.576,1022.960,-213.490,-567.020
777,36974.124000,102.795,29.674,-17.930,406.377,283.096,-137.403,-679.040,291.510,-738.020
778,36974.159000,141.344,-28.668,-31.875,404.759,309.895,-109.353,-880.040,1074.510,-547.020
779,36974.199000,356.819,-165.470,-259.984,400.972,314.172,-89.653,-733.040,661.510,-567.020
780,36974.239000,295.537,-60.857,-19.922,398.934,307.875,-110.391,2315.960,597.510,-108.020
781,36974.279000,372.633,279.136,38.848,399.035,314.131,-90.638,-796.040,387.510,-116.020
782,36974.311000,283.676,118.193,3.984,404.005,319.852,-53.236,-2230.040,82.510,311.980
783,36974.344000,247.104,109.139,-23.907,405.950,321.727,-57.113,160.960,-78.490,-143.020
784,36974.386000,202.625,121.210,-91.642,401.156,329.145,-70.687,762.960,-309.490,-386.020
785,36974.419000,186.811,156.417,-61.759,393.520,342.381,-83.158,-161.040,-505.490,-542.020
786,36974.464000,184.834,121.210,6.973,383.997,355.188,-70.145,-1332.040,-142.490,-849.020
787,36974.499000,172.973,27.662,7.969,371.668,376.813,-52.039,-782.040,518.510,-937.020
788,36974.548000,202.625,42.750,1.992,356.427,396.554,-30.059,-1.040,1286.510,-899.020
789,36974.581000,233.266,-0.503,-29.883,343.984,409.160,-24.902,25.960,1107.510,-1169.020
790,36974.601000,217.452,-61.862,-272.934,337.288,417.746,-28.648,1348.960,996.510,-373.020
791,36974.641000,350.888,25.650,51.798,336.207,414.004,-65.999,1770.960,355.510,-135.020
792,36974.681000,377.575,95.057,52.794,336.240,413.443,-47.378,-1811.040,-83.490,230.980
793,36974.722000,380.541,111.151,87.658,342.094,408.688,-1.381,-2114.040,-84.490,186.980
794,36974.762000,322.224,120.204,91.642,343.106,409.129,18.245,-1158.040,-89.490,89.980
795,36974.803000,270.826,-0.503,17.930,349.882,406.585,31.932,-475.040,-115.490,248.980
796,36974.843000,233.266,-6.538,-80.685,354.683,402.770,32.838,-439.040,-243.490,394.980
797,36974.883000,200.649,-8.550,-184.280,364.237,389.380,37.464,-790.040,-1050.490,431.980
798,36974.903000,211.521,19.615,-128.498,368.970,381.380,24.548,-540.040,-1533.490,545.980
799,36974.944000,235.243,11.568,-47.813,377.543,373.137,-1.114,574.960,-1312.490,521.980
800,36974.984000,218.440,9.556,-53.790,384.091,359.611,-45.530,1630.960,-1111.490,545.980
801,36975.24000,230.301,58.845,-48.809,389.603,338.373,-87.178,2077.960,-807.490,590.980
802,36975.64000,220.417,145.352,-75.704,387.482,324.245,-111.032,1662.960,-389.490,615.980
803,36975.104000,246.116,109.139,-65.743,390.191,308.329,-130.012,730.960,-466.490,517.980
804,36975.144000,228.324,114.169,-51.798,393.881,292.553,-143.103,673.960,-227.490,451.980
805,36975.184000,219.429,141.328,-54.786,396.732,288.568,-149.070,548.960,-150.490,296.980
806,36975.224000,176.927,152.393,-21.914,398.568,278.835,-151.243,44.960,50.510,97.980
807,36975.244000,164.077,86.004,-16.934,399.544,278.046,-143.413,32.960,505.510,105.980
808,36975.291000,215.475,14.585,-83.673,409.217,275.487,-131.682,507.960,868.510,281.980
809,36975.324000,222.394,133.281,-293.852,415.895,265.844,-131.882,893.960,306.510,225.980
810,36975.372000,294.548,44.762,24.903,416.893,268.788,-130.833,-423.040,168.510,68.980
811,36975.406000,367.691,61.862,-11.953,414.969,267.992,-122.029,-191.040,108.510,112.980
812,36975.452000,240.185,59.851,-74.708,417.836,264.159,-121.128,118.960,98.510,98.980
813,36975.483000,243.151,-3.521,-85.665,416.861,262.315,-116.267,367.960,383.510,160.980
814,36975.556000,261.931,19.615,-57.774,421.674,258.608,-110.455,508.960,486.510,73.980
815,36975.579000,248.093,-14.585,-50.802,428.414,253.971,-103.680,116.960,474.510,36.980
816,36975.633000,242.162,29.674,-40.840,429.386,254.024,-101.715,685.960,491.510,7.980
817,36975.666000,248.093,6.538,-4.981,433.268,255.054,-100.703,379.960,266.510,5.980
818,36975.681000,251.058,-8.550,-3.984,431.194,241.378,-103.953,371.960,-53.490,-123.020
819,36975.702000,234.255,22.633,-20.918,425.487,253.706,-114.479,40.960,-377.490,-234.020
820,36975.742000,236.232,80.974,-41.837,422.635,260.322,-121.203,-219.040,-380.490,-74.020
821,36975.789000,262.919,52.809,-87.658,421.576,250.626,-120.439,56.960,-74.490,183.980
822,36975.822000,255.012,-5.532,-71.720,424.506,253.567,-120.368,48.960,98.510,187.980
823,36975.862000,258.965,5.532,-48.809,422.486,243.926,-116.664,15.960,204.510,68.980
824,36975.882000,240.185,2.515,-41.837,430.277,248.014,-110.673,-74.040,300.510,72.980
825,36975.922000,246.116,0.503,-31.875,426.433,249.983,-107.695,29.960,166.510,32.980
826,36975.969000,247.104,-11.568,-20.918,427.426,252.883,-108.609,-27.040,-77.490,-82.020
827,36976.2000,241.174,20.621,-17.930,423.526,250.796,-113.567,-82.040,-300.490,-127.020
828,36976.49000,237.220,17.603,-4.981,417.742,255.335,-125.246,-101.040,-690.490,-96.020
829,36976.82000,226.347,29.674,-11.953,411.875,252.042,-140.042,-156.040,-1060.490,-89.020
830,36976.133000,237.220,0.503,-69.728,403.145,254.374,-162.564,48.960,-1277.490,-30.020
831,36976.167000,220.417,-8.550,-127.502,389.544,253.702,-187.124,93.960,-1214.490,-53.020
832,36976.181000,213.498,46.774,-103.595,376.925,254.055,-209.698,-59.040,-1093.490,-61.020
833,36976.221000,218.440,7.544,-122.521,365.262,252.539,-229.369,-76.040,-1132.490,-82.020
834,36976.262000,223.382,1.509,-179.300,350.733,253.994,-245.058,70.960,-711.490,-172.020
835,36976.301000,211.521,11.568,-200.218,344.948,256.764,-248.931,-18.040,-347.490,-230.020
836,36976.349000,225.359,50.798,-183.284,345.002,262.568,-249.783,0.960,121.510,-163.020
837,36976.383000,228.324,68.904,-164.358,348.917,264.806,-237.957,40.960,681.510,27.980
838,36976.423000,232.278,63.874,-134.475,368.217,256.602,-222.408,-58.040,974.510,269.980
839,36976.471000,231.290,52.809,-119.533,381.761,251.448,-197.977,-122.040,1137.510,437.980
840,36976.503000,229.313,33.697,-101.603,400.206,253.116,-174.366,-310.040,1145.510,449.980
841,36976.523000,244.139,-4.527,-80.685,413.799,251.953,-144.943,-543.040,1155.510,303.980
842,36976.566000,214.486,-25.650,-32.872,425.462,252.584,-121.368,-694.040,1264.510,181.980
843,36976.606000,233.266,-18.609,-35.860,430.365,254.141,-96.807,-255.040,844.510,33.980
844,36976.646000,242.162,28.668,-15.938,435.196,249.722,-79.243,-178.040,610.510,50.980
845,36976.686000,242.162,-6.538,-3.984,431.365,251.820,-70.379,-125.040,255.510,90.980
846,36976.732000,236.232,9.556,-22.911,439.123,252.953,-66.414,-57.040,108.510,28.980
847,36976.772000,254.023,15.591,-35.860,439.188,257.980,-58.457,-181.040,168.510,38.980
848,36976.807000,246.116,14.585,-33.868,437.210,253.150,-56.608,-75.040,196.510,36.980
849,36976.827000,250.069,-10.562,-2.988,439.072,245.423,-55.794,-181.040,88.510,19.980
850,36976.867000,252.046,13.580,-24.903,437.163,247.411,-52.812,-9.040,-58.490,-19.020
851,36976.911000,256.000,11.568,-15.938,438.236,258.121,-51.592,-52.040,-113.490,-62.020
852,36976.943000,249.081,6.538,-1.992,436.283,257.930,-59.445,-333.040,-306.490,-114.020
853,36976.983000,268.849,16.597,-24.903,434.269,250.985,-65.488,117.960,-323.490,-131.020
854,36977.22000,298.502,75.945,-33.868,430.520,263.547,-66.197,-481.040,-380.490,-91.020
855,36977.66000,291.583,132.275,-4.981,431.435,258.659,-68.265,-817.040,-434.490,-38.020
856,36977.107000,246.116,219.788,-9.961,431.499,264.549,-65.192,-2119.040,-777.490,24.980
857,36977.147000,229.313,18.609,-53.790,425.743,269.369,-64.117,-1038.040,-819.490,-207.020
858,36977.166000,198.672,41.745,-148.420,420.966,282.223,-95.223,1592.960,-434.490,-606.020
859,36977.207000,178.903,162.452,-64.747,409.470,297.277,-111.584,578.960,-319.490,-1064.020
860,36977.261000,136.402,111.151,21.914,394.255,320.794,-94.423,-1176.040,222.510,-1202.020
861,36977.282000,196.695,5.532,-94.630,383.804,335.728,-72.539,-368.040,1183.510,-998.020
862,36977.322000,304.432,-100.086,-166.350,374.425,362.235,-54.319,-448.040,859.510,-1085.020
863,36977.368000,322.224,-50.798,-108.576,358.087,378.968,-80.459,2756.960,562.510,-785.020
864,36977.403000,357.807,196.652,71.720,352.224,377.466,-102.080,1107.960,362.510,-515.020
865,36977.446000,242.162,70.916,-16.934,353.315,383.063,-68.611,-1954.040,153.510,195.980
866,36977.466000,254.023,25.650,-37.852,354.350,389.006,-63.573,-357.040,-245.490,10.980
867,36977.506000,221.405,73.933,-85.665,351.354,385.439,-92.098,1691.960,-200.490,-301.020
868,36977.546000,124.541,203.694,14.942,347.526,392.845,-106.652,583.960,-123.490,-231.020
869,36977.587000,147.274,70.916,10.957,348.560,397.018,-93.808,-1135.040,138.510,-208.020
870,36977.627000,136.402,84.998,-3.984,344.822,404.402,-65.213,-1107.040,688.510,-395.020
871,36977.668000,176.927,119.198,-55.782,338.272,420.560,-33.487,-711.040,1072.510,-606.020
872,36977.703000,189.776,89.022,-109.572,336.447,428.632,-18.602,340.960,1265.510,-320.020
873,36977.743000,152.216,87.010,-371.549,329.631,426.387,-29.453,390.960,428.510,-319.020
874,36977.763000,391.413,26.656,159.377,323.784,425.920,-48.108,947.960,197.510,-281.020
875,36977.803000,489.266,-9.556,86.661,329.629,427.250,-34.337,-1377.040,-183.490,302.980
876,36977.843000,336.062,201.682,69.728,330.578,420.916,-13.882,-943.040,-10.490,70.980
877,36977.883000,321.236,164.464,61.759,330.610,422.103,-4.049,-372.040,61.510,42.980
878,36977.931000,269.838,48.786,6.973,330.687,429.006,1.008,18.960,332.510,165.980
879,36977.963000,218.440,13.580,-100.607,340.290,421.377,2.820,-55.040,-304.490,227.980
880,36978.3000,219.429,13.580,-187.268,340.208,417.947,-20.792,631.960,-882.490,197.980
881,36978.56000,211.521,44.762,-49.805,337.261,416.602,-36.519,750.960,-967.490,78.980
882,36978.83000,154.193,58.845,-38.848,331.381,414.949,-65.007,1152.960,-691.490,287.980
883,36978.103000,191.753,27.662,-82.677,337.975,402.740,-93.703,919.960,-637.490,457.980
884,36978.144000,220.417,48.786,-83.673,338.677,381.714,-123.589,1122.960,-854.490,460.980
885,36978.185000,206.579,68.904,-71.720,340.429,368.529,-150.355,805.960,-853.490,626.980
886,36978.227000,206.579,68.904,-69.728,343.201,358.504,-166.263,271.960,-796.490,854.980
887,36978.267000,200.649,49.792,-65.743,354.627,341.012,-172.511,39.960,-579.490,1035.980
888,36978.307000,199.660,75.945,-47.813,364.167,328.377,-177.674,239.960,-246.490,1029.980
889,36978.347000,190.764,98.075,-7.969,383.365,311.262,-170.169,-37.040,383.510,975.980
890,36978.387000,259.954,104.110,-13.946,394.804,289.499,-150.034,111.960,914.510,888.980
891,36978.407000,284.664,97.069,-47.813,414.087,278.490,-129.643,209.960,1304.510,646.980
892,36978.447000,260.942,181.564,-71.720,425.637,266.586,-102.425,148.960,1232.510,457.980
893,36978.487000,218.440,177.540,-230.101,425.643,264.881,-91.675,-53.040,79.510,-27.020
894,36978.527000,325.189,52.809,58.770,425.685,269.692,-93.530,688.960,171.510,4.980
895,36978.564000,258.965,61.862,-52.794,429.386,254.024,-101.715,1050.960,133.510,216.980
896,36978.604000,248.093,-5.532,-45.821,429.318,247.206,-102.847,26.960,110.510,156.980
897,36978.652000,257.977,-5.532,-46.817,433.223,250.221,-99.830,-80.040,190.510,61.980
898,36978.696000,257.977,29.674,-23.907,435.235,256.259,-90.866,-17.040,325.510,10.980
899,36978.733000,250.069,16.597,-21.914,435.128,244.674,-88.181,21.960,152.510,28.980
900,36978.754000,246.116,-0.503,-15.938,433.208,246.553,-90.105,52.960,-103.490,-3.020
901,36978.788000,238.208,7.544,-10.957,432.229,246.436,-95.013,57.960,-295.490,-19.020
902,36978.828000,238.208,15.591,-11.953,431.246,247.160,-105.786,138.960,-500.490,86.980
903,36978.909000,241.174,31.686,-61.759,429.259,244.876,-120.551,283.960,-502.490,162.980
904,36978.926000,255.012,32.692,-88.654,429.221,240.993,-120.637,-372.040,65.510,223.980
905,36978.948000,256.988,19.615,-74.708,434.043,237.372,-110.901,-397.040,43.510,102.980
906,36978.994000,259.954,-6.538,-71.720,432.176,244.171,-109.773,-215.040,-26.490,55.980
907,36979.28000,253.035,0.503,-66.739,436.071,244.446,-98.972,-223.040,198.510,6.980
908,36979.54000,249.081,-5.532,-34.864,435.979,235.643,-102.109,-219.040,177.510,-11.020
909,36979.93000,230.301,4.527,15.938,437.059,246.419,-97.945,-139.040,-167.490,-19.020
910,36979.126000,216.463,2.515,-3.984,430.234,243.203,-108.818,-10.040,-677.490,-21.020
911,36979.166000,254.023,-31.686,-27.891,418.552,240.630,-132.436,-41.040,-1090.490,-55.020
912,36979.208000,208.556,14.585,-85.665,410.818,246.768,-158.794,412.960,-1191.490,-146.020
913,36979.249000,218.440,55.827,-79.689,399.106,242.146,-187.360,33.960,-1243.490,-55.020
914,36979.284000,246.116,-12.574,-113.556,393.287,244.592,-205.951,160.960,-1160.490,-102.020
915,36979.329000,207.568,32.692,-156.389,381.649,245.083,-222.635,152.960,-776.490,-81.020
916,36979.376000,263.907,16.597,-158.381,373.800,236.918,-237.543,22.960,-428.490,-94.020
917,36979.384000,226.347,32.692,-186.272,371.961,245.744,-232.448,-19.040,214.510,-127.020
918,36979.424000,239.197,30.680,-162.366,375.834,244.056,-222.671,-37.040,617.510,3.980
919,36979.479000,238.208,18.609,-136.467,388.480,247.479,-204.916,17.960,931.510,101.980
920,36979.508000,238.208,-7.544,-110.568,402.008,241.290,-183.450,62.960,1163.510,72.980
921,36979.548000,223.382,9.556,-75.704,412.676,240.768,-167.749,157.960,1167.510,-26.020
922,36979.594000,232.278,29.674,-61.759,417.600,245.173,-146.066,-203.040,997.510,-63.020
923,36979.626000,252.046,24.644,-41.837,426.360,246.639,-127.383,-370.040,895.510,53.980
924,36979.683000,248.093,13.580,-24.903,430.276,245.360,-98.963,-450.040,921.510,182.980
925,36979.692000,232.278,32.692,-21.914,440.980,246.068,-71.467,-730.040,915.510,169.980
926,36979.724000,245.127,-18.609,-11.953,442.963,247.424,-54.761,-729.040,319.510,110.980
927,36979.764000,243.151,-2.515,-17.930,441.112,253.489,-42.863,-610.040,168.510,11.980
928,36979.806000,248.093,1.509,-39.844,441.092,250.663,-39.003,-614.040,120.510,-7.020
929,36979.846000,243.151,-0.503,-15.938,445.974,253.774,-32.059,-349.040,91.510,-13.020
930,36979.886000,251.058,-21.627,-1.992,443.092,255.709,-31.041,-85.040,-16.490,-22.020
931,36979.926000,246.116,-29.674,-5.977,442.099,252.808,-30.127,122.960,-81.490,-35.020
932,36979.977000,246.116,49.792,-5.977,442.138,259.345,-41.750,368.960,-227.490,-79.020
933,36980.14000,250.069,52.809,23.907,435.324,257.122,-51.620,-211.040,-596.490,-61.020
934,36980.28000,256.000,-57.839,-16.934,439.178,257.009,-58.479,257.960,-671.490,-35.020
935,36980.68000,253.035,59.851,-72.716,430.432,258.305,-83.966,636.960,-642.490,-121.020
936,36980.109000,301.467,105.116,-52.794,428.407,253.022,-102.720,399.960,-653.490,10.980
937,36980.149000,379.552,86.004,-2.988,422.554,250.743,-115.532,-494.040,-831.490,-18.020
938,36980.189000,303.444,115.175,-20.918,422.629,260.258,-124.146,-804.040,-837.490,-48.020
939,36980.229000,206.579,-29.674,-128.498,417.863,268.819,-129.850,-561.040,-378.490,-98.020
940,36980.269000,199.660,-59.851,-142.444,415.833,261.724,-142.760,779.960,-314.490,-326.020
941,36980.309000,105.761,-53.815,-130.490,411.055,270.177,-153.370,904.960,69.510,-329.020
942,36980.329000,93.900,12.574,-28.887,414.000,273.247,-147.412,-125.040,563.510,-349.020
943,36980.369000,135.413,68.904,-194.241,413.180,283.464,-123.651,-578.040,910.510,-486.020
944,36980.411000,346.934,62.868,-93.634,408.369,286.308,-124.579,996.960,101.510,-254.020
945,36980.464000,401.297,192.629,102.599,413.253,289.440,-116.654,-573.040,259.510,-34.020
946,36980.529000,301.467,157.422,4.981,414.246,287.055,-93.168,-1417.040,66.510,170.980
947,36980.558000,235.243,107.128,-31.875,416.308,299.738,-90.921,-776.040,-185.490,54.980
948,36980.584000,212.510,76.951,-87.658,413.352,295.675,-97.882,299.960,-171.490,-340.020
949,36980.607000,160.124,197.658,-58.770,405.811,316.873,-101.350,-405.040,-118.490,-842.020
950,36980.647000,118.610,106.122,1.992,394.491,341.549,-77.291,-1461.040,606.510,-1110.020
951,36980.676000,199.660,13.580,4.981,386.996,359.661,-44.543,-1048.040,1198.510,-943.020
952,36980.711000,244.139,-46.774,-46.817,368.902,384.249,-21.480,730.960,1810.510,-1057.020
953,36980.746000,196.695,208.723,-250.023,352.664,408.102,-32.752,1990.960,1598.510,-1284.020
954,36980.786000,278.734,20.621,-58.770,333.412,419.413,-39.407,1372.960,610.510,-952.020
955,36980.826000,225.359,15.591,-27.891,326.625,425.366,-74.593,1725.960,382.510,-312.020
956,36980.866000,438.857,-54.821,27.891,326.620,423.554,-68.749,-834.040,-86.490,-12.020
957,36980.907000,362.749,-34.703,5.977,328.494,417.704,-70.836,332.960,99.510,228.980
958,36980.948000,324.201,192.629,35.860,330.472,419.018,-56.093,-598.040,-2.490,216.980
959,36980.969000,273.792,95.057,19.922,347.905,413.211,-18.920,-1775.040,-37.490,652.980
960,36981.9000,253.035,61.862,6.973,354.703,407.365,21.172,-2232.040,-164.490,726.980
961,36981.57000,212.510,71.921,-25.899,368.144,392.416,41.462,-2293.040,-482.490,681.980
962,36981.91000,214.486,35.709,-87.658,376.654,365.079,74.216,-2373.040,-593.490,720.980
963,36981.131000,242.162,-16.597,-100.607,385.210,348.746,77.794,-585.040,-1086.490,385.980
964,36981.171000,247.104,-30.680,-39.844,390.037,355.740,40.694,1699.960,-1061.490,219.980
965,36981.211000,265.884,36.715,-69.728,393.704,349.435,-27.104,3181.960,-966.490,355.980
966,36981.266000,256.988,113.163,-28.887,390.519,333.485,-89.246,2996.960,-1010.490,300.980
967,36981.273000,246.116,94.051,-38.848,392.318,325.155,-115.905,2000.960,-842.490,424.980
968,36981.307000,226.347,96.063,-14.942,391.989,297.345,-144.962,1124.960,-557.490,544.980
969,36981.347000,187.799,92.039,21.914,397.712,291.339,-155.871,786.960,-6.490,454.980
970,36981.387000,184.834,117.187,25.899,410.196,280.890,-151.173,829.960,1057.510,399.980
971,36981.427000,256.000,60.857,-62.755,420.736,264.165,-122.102,512.960,1630.510,493.980
972,36981.469000,264.896,143.340,-187.268,435.167,250.326,-95.901,377.960,1347.510,337.980
973,36981.517000,472.463,91.033,130.490,432.279,252.197,-97.827,270.960,-218.490,-114.020
974,36981.550000,247.104,216.770,-23.907,432.165,239.662,-94.183,-488.040,158.510,171.980
975,36981.590000,229.313,-47.780,1.992,439.024,247.602,-89.089,-231.040,164.510,273.980
976,36981.617000,246.116,-14.585,-17.930,440.930,243.824,-85.246,221.960,132.510,125.980
977,36981.647000,242.162,4.527,-19.922,443.790,239.041,-83.385,-436.040,-21.490,56.980
978,36981.697000,256.988,-12.574,-17.930,439.998,246.792,-82.240,-280.040,-69.490,83.980
979,36981.737000,251.058,7.544,-26.895,444.795,242.934,-83.296,66.960,-3.490,54.980
980,36981.772000,250.069,13.580,-24.903,436.060,239.937,-83.381,56.960,37.510,81.980
981,36981.818000,261.931,10.562,-11.953,443.732,231.447,-75.708,-97.040,147.510,107.980
982,36981.852000,241.174,-1.509,-9.961,443.740,233.281,-80.571,154.960,-109.490,21.980
983,36981.896000,256.988,-0.503,-11.953,444.682,232.168,-87.458,-23.040,-288.490,-19.020
984,36981.908000,252.046,8.550,-40.840,439.869,235.875,-93.270,-37.040,-307.490,-28.020
985,36981.948000,255.012,21.627,-49.805,440.868,239.703,-96.125,-103.040,-171.490,2.980
986,36981.988000,259.954,11.568,-49.805,437.963,239.653,-97.113,-165.040,-60.490,45.980
987,36982.31000,257.977,12.574,-43.829,440.799,232.001,-93.354,-193.040,38.510,48.980
988,36982.71000,254.023,9.556,-37.852,439.836,232.035,-91.394,-261.040,80.510,56.980
989,36982.111000,254.023,2.515,-34.864,439.899,237.040,-84.418,-216.040,75.510,49.980
990,36982.151000,252.046,-1.509,-34.864,441.862,239.087,-80.446,-199.040,112.510,37.980
991,36982.191000,250.069,-11.568,-41.837,441.854,237.253,-75.583,-145.040,157.510,34.980
992,36982.217000,258.965,25.650,-40.840,443.755,232.547,-69.800,-22.040,264.510,12.980
993,36982.252000,271.815,19.615,-38.848,447.714,240.481,-63.731,-216.040,372.510,41.980
994,36982.296000,259.954,13.580,-29.883,449.607,233.057,-49.182,-131.040,509.510,94.980
995,36982.328000,248.093,-7.544,-4.981,452.556,236.170,-41.261,-35.040,492.510,99.980
996,36982.372000,242.162,-7.544,26.895,453.560,237.409,-29.464,46.960,366.510,33.980
997,36982.412000,256.000,34.703,11.953,451.633,236.592,-21.641,-328.040,193.510,-40.020
998,36982.447000,252.046,-35.709,19.922,454.528,234.786,-16.772,-653.040,27.510,-54.020
999,36982.487000,237.220,-29.674,24.903,453.640,242.587,-14.639,-149.040,-119.490,-119.020
1000,36982.541000,248.093,-0.503,24.903,454.495,231.831,-18.799,-153.040,-303.490,-218.020
1001,36982.549000,245.127,-1.509,6.973,447.900,251.074,-23.289,-164.040,-488.490,-232.020
1002,36982.591000,256.988,-2.515,-10.957,444.070,257.574,-34.920,-49.040,-475.490,-228.020
1003,36982.631000,253.035,41.745,-32.872,440.140,254.321,-48.730,55.960,-435.490,-245.020
1004,36982.671000,254.023,23.639,-26.895,433.465,265.755,-55.355,-75.040,-417.490,-227.020
1005,36982.711000,256.000,4.527,-20.918,428.584,262.644,-62.299,-68.040,-422.490,-220.020
1006,36982.769000,253.035,20.621,-34.864,427.681,271.178,-70.937,147.960,-409.490,-219.020
1007,36982.792000,253.035,48.786,-40.840,421.883,273.819,-80.698,17.960,-394.490,-203.020
1008,36982.838000,248.093,32.692,-50.802,420.944,278.491,-88.441,-64.040,-332.490,-167.020
1009,36982.852000,247.104,30.680,-54.786,416.030,271.540,-93.509,94.960,-258.490,-161.020
1010,36982.896000,257.977,38.727,-53.790,411.316,284.999,-97.143,56.960,-188.490,-144.020
1011,36982.929000,253.035,39.733,-51.798,414.169,281.036,-102.128,-69.040,-174.490,-120.020
1012,36982.969000,251.058,37.721,-43.829,409.393,287.741,-103.951,-106.040,-220.490,-99.020
1013,36983.9000,236.232,45.768,-29.883,405.550,291.479,-108.779,-76.040,-353.490,-110.020
1014,36983.49000,251.058,76.951,-24.903,402.646,293.198,-117.573,-483.040,-679.490,-82.020
1015,36983.89000,289.606,61.862,-22.911,395.842,291.061,-123.519,-726.040,-715.490,-58.020
1016,36983.129000,265.884,27.662,-54.786,392.058,302.415,-135.043,-172.040,-771.490,-189.020
1017,36983.152000,256.988,48.786,-105.588,386.267,307.774,-153.569,-8.040,-867.490,-284.020
