Sample, Time, ACCX, ACCY, ACCZ, MAGX, MAGY, MAGZ, GYRX, GYRY, GYRZ
0,36944.797000,246.135,-3.535,-65.628,416.006,191.399,-125.159,11.800,-103.710,61.420
1,36944.835000,245.148,1.515,-69.636,416.013,196.635,-123.996,-51.200,-168.710,103.420
2,36944.877000,235.283,9.594,-88.673,415.999,188.738,-127.231,-187.200,-263.710,147.420
3,36944.917000,229.364,21.712,-118.732,413.352,195.596,-129.996,-440.200,-434.710,185.420
4,36944.956000,236.270,21.712,-121.738,415.105,191.201,-132.119,-640.200,-603.710,185.420
5,36944.996000,233.310,1.515,-109.714,409.794,190.944,-141.081,-371.200,-765.710,132.420
6,36945.36000,231.337,10.604,-100.697,405.356,194.914,-153.875,-291.200,-702.710,27.420
7,36945.56000,228.378,6.564,-115.726,397.391,195.410,-166.794,-200.200,-717.710,-76.580
8,36945.96000,235.283,20.702,-117.730,386.797,192.601,-173.870,5.800,-873.710,-174.580
9,36945.136000,237.256,31.811,-104.704,382.345,200.743,-192.487,-12.200,-928.710,-221.580
10,36945.181000,221.472,9.594,-76.650,371.736,203.813,-206.323,168.800,-787.710,-272.580
11,36945.221000,215.553,6.564,-51.601,365.536,200.894,-217.360,525.800,-462.710,-323.580
12,36945.261000,232.324,-1.515,-13.526,361.993,205.007,-225.182,700.800,-137.710,-340.580
13,36945.281000,250.081,5.554,39.577,361.972,203.073,-232.196,905.800,285.290,-342.580
14,36945.321000,280.663,24.742,91.679,368.167,195.604,-220.503,539.800,931.290,-429.580
15,36945.360000,312.231,-28.781,-86.669,372.602,198.493,-210.465,374.800,584.290,-174.580
16,36945.413000,261.919,27.771,-59.616,377.056,207.599,-195.260,-619.200,562.290,-147.580
17,36945.439000,249.094,-2.525,-70.638,378.866,215.834,-180.092,-498.200,606.290,-224.580
18,36945.479000,261.919,20.702,-50.599,385.073,224.857,-167.864,-132.200,665.290,-225.580
19,36945.518000,288.555,1.515,-24.548,392.170,230.521,-151.769,-315.200,634.290,-203.580
20,36945.538000,262.906,-20.702,-40.579,391.326,234.330,-139.733,-22.200,594.290,-261.580
21,36945.578000,245.148,62.107,-11.523,388.711,244.941,-132.446,-90.200,396.290,-233.580
22,36945.618000,241.202,55.037,-37.573,388.733,248.610,-125.376,-307.200,261.290,-173.580
23,36945.658000,253.040,19.692,-42.583,387.009,256.731,-114.195,-405.200,274.290,-154.580
24,36945.700000,257.973,36.860,-21.542,386.152,259.560,-106.162,-301.200,329.290,-126.580
25,36945.736000,245.148,40.899,-11.523,391.447,256.204,-102.282,-256.200,359.290,-93.580
26,36945.757000,244.162,26.761,-12.524,390.595,257.353,-92.317,-324.200,127.290,-64.580
27,36945.797000,243.175,33.830,-5.511,392.367,266.931,-91.008,-193.200,47.290,-65.580
28,36945.837000,252.054,42.919,-21.542,388.844,268.664,-90.963,-45.200,-54.710,-25.580
29,36945.876000,254.027,12.623,-29.558,387.980,268.832,-85.002,-15.200,45.290,20.420
30,36945.922000,254.027,25.751,-20.540,388.857,266.201,-86.078,224.800,94.290,9.420
31,36945.957000,247.121,28.781,-21.542,389.729,266.117,-89.057,107.800,69.290,-25.580
32,36945.997000,250.081,33.830,-19.538,389.730,264.409,-88.119,201.800,67.290,-64.580
33,36946.17000,253.040,41.909,-24.548,386.201,264.350,-90.118,120.800,54.290,-78.580
34,36946.58000,249.094,53.018,-17.534,388.849,267.852,-89.003,68.800,47.290,-24.580
35,36946.98000,246.135,50.998,-13.526,389.727,266.957,-90.022,82.800,17.290,39.420
36,36946.138000,242.189,47.968,5.511,390.596,262.533,-93.142,279.800,-15.710,116.420
37,36946.178000,249.094,38.880,-2.505,391.455,259.733,-100.181,202.800,-132.710,136.420
38,36946.217000,250.081,41.909,-10.521,390.562,254.439,-103.335,221.800,-164.710,146.420
39,36946.238000,245.148,32.821,-15.530,392.308,249.120,-107.474,163.800,-208.710,180.420
40,36946.282000,254.027,23.732,-27.554,394.937,245.537,-111.554,122.800,-247.710,176.420
41,36946.316000,251.067,30.801,-31.562,395.793,241.841,-119.615,159.800,-238.710,175.420
42,36946.361000,247.121,28.781,-29.558,396.649,234.700,-126.795,214.800,-236.710,185.420
43,36946.401000,242.189,34.840,-27.554,394.869,237.106,-133.673,214.800,-279.710,191.420
44,36946.441000,246.135,23.732,-31.562,395.732,231.757,-138.809,56.800,-325.710,185.420
45,36946.481000,258.960,7.574,-43.585,397.465,227.165,-147.889,94.800,-347.710,191.420
46,36946.501000,254.027,7.574,-46.591,393.923,221.814,-153.039,140.800,-343.710,177.420
47,36946.541000,258.960,16.663,-48.595,393.010,212.880,-162.269,50.800,-346.710,168.420
48,36946.581000,250.081,18.682,-50.599,392.106,216.097,-171.104,-33.200,-381.710,159.420
49,36946.622000,239.229,17.673,-51.601,391.210,215.088,-176.105,-99.200,-452.710,152.420
50,36946.662000,250.081,-1.515,-45.589,383.249,209.592,-186.239,0.800,-553.710,119.420
51,36946.699000,262.906,0.505,-53.605,380.583,207.629,-194.255,215.800,-621.710,78.420
52,36946.721000,272.771,-9.594,-58.614,380.541,205.499,-208.226,268.800,-495.710,39.420
53,36946.761000,250.081,-0.505,-78.654,371.705,200.059,-216.375,227.800,-492.710,0.420
54,36946.801000,259.946,4.544,-95.687,364.622,193.668,-227.528,-76.200,-607.710,10.420
55,36946.841000,237.256,4.544,-109.714,360.193,199.459,-237.284,-21.200,-571.710,32.420
56,36946.880000,230.351,7.574,-78.654,355.758,196.570,-247.322,62.800,-511.710,22.420
57,36946.921000,218.513,9.594,-71.640,351.334,197.238,-254.265,8.800,-271.710,20.420
58,36946.961000,214.566,12.623,-72.642,346.924,198.046,-256.239,-25.200,-40.710,39.420
59,36946.981000,214.566,17.673,-68.634,347.813,193.820,-252.401,-138.200,191.290,44.420
60,36947.17000,220.486,10.604,-66.630,352.239,194.888,-245.402,-201.200,443.290,48.420
61,36947.58000,227.391,9.594,-76.650,360.197,200.355,-236.262,-190.200,596.290,41.420
62,36947.99000,229.364,10.604,-77.652,368.176,200.000,-218.374,-178.200,674.290,16.420
63,36947.140000,234.297,11.613,-73.644,371.727,202.860,-209.333,-201.200,758.290,-12.580
64,36947.179000,242.189,14.643,-64.626,379.692,202.364,-196.415,-212.200,815.290,-31.580
65,36947.201000,241.202,11.613,-63.624,389.436,206.350,-178.380,-156.200,872.290,-31.580
66,36947.242000,244.162,15.653,-56.611,393.888,209.408,-162.379,-80.200,943.290,-69.580
67,36947.283000,248.108,19.692,-58.614,398.352,212.579,-142.402,-78.200,947.290,-102.580
68,36947.318000,248.108,22.722,-57.613,400.162,212.191,-125.528,-179.200,893.290,-96.580
69,36947.358000,232.324,16.663,-66.630,407.248,215.166,-112.500,-210.200,752.290,-79.580
70,36947.398000,235.283,-3.535,-58.614,412.575,220.744,-99.393,-109.200,582.290,-48.580
71,36947.438000,238.243,-12.623,-86.669,411.726,222.790,-88.406,27.800,499.290,-118.580
72,36947.458000,321.110,26.761,-13.526,409.970,219.401,-85.543,-291.200,-44.710,-51.580
73,36947.498000,313.218,0.505,38.575,407.356,231.748,-78.200,-731.200,13.290,-180.580
74,36947.539000,254.027,-31.811,-14.528,406.482,233.540,-76.158,215.800,68.290,-206.580
75,36947.580000,249.094,55.037,4.509,403.830,239.473,-80.939,155.800,65.290,-264.580
76,36947.618000,250.081,36.860,7.515,399.439,243.054,-76.865,-179.200,-26.710,-184.580
77,36947.658000,250.081,36.860,-0.501,399.435,241.290,-77.915,15.800,-41.710,-143.580
78,36947.678000,250.081,40.899,-0.501,401.193,243.839,-79.813,-116.200,-47.710,-129.580
79,36947.718000,255.013,26.761,-10.521,397.684,252.601,-76.561,-104.200,-12.710,-134.580
80,36947.758000,255.013,25.751,-4.509,396.808,255.233,-75.485,-35.200,0.290,-117.580
81,36947.798000,252.054,25.751,3.507,393.274,249.098,-77.682,-13.200,3.290,-126.580
82,36947.842000,243.175,63.116,1.503,390.635,250.860,-76.640,63.800,6.290,-123.580
83,36947.883000,242.189,58.067,1.503,387.997,256.934,-76.451,-294.200,-58.710,-104.580
84,36947.925000,242.189,89.373,8.517,388.013,256.235,-70.516,-422.200,-41.710,-116.580
85,36947.943000,254.027,22.722,-17.534,389.805,270.321,-63.102,-889.200,-21.710,-101.580
86,36947.980000,257.973,9.594,-10.521,389.820,271.330,-58.104,-273.200,9.290,-59.580
87,36948.22000,258.960,17.673,-5.511,386.304,273.988,-56.044,-307.200,-13.710,-75.580
88,36948.62000,257.973,14.643,-4.509,386.306,273.148,-55.078,82.800,15.290,-3.580
89,36948.102000,251.067,39.890,0.501,388.063,266.205,-55.297,151.800,-4.710,28.420
90,36948.142000,255.013,35.850,-13.526,388.939,267.018,-57.254,242.800,35.290,13.420
91,36948.182000,251.067,40.899,-3.507,389.826,267.075,-55.264,165.800,169.290,-8.580
92,36948.203000,264.879,14.643,-17.534,388.065,272.253,-56.094,179.800,220.290,-65.580
93,36948.243000,246.135,65.136,5.511,386.314,272.365,-52.124,204.800,291.290,-73.580
94,36948.284000,241.202,54.028,15.530,387.198,272.393,-51.127,180.800,269.290,37.420
95,36948.321000,238.243,47.968,21.542,388.076,268.922,-51.237,319.800,184.290,35.420
96,36948.361000,240.216,45.949,25.550,387.189,264.553,-52.375,69.800,-8.710,13.420
97,36948.401000,251.067,37.870,4.509,385.427,263.684,-52.409,250.800,-11.710,10.420
98,36948.421000,246.135,45.949,11.523,389.827,268.811,-55.207,109.800,13.290,-0.580
99,36948.461000,247.121,43.929,14.528,388.073,264.582,-51.378,-29.200,-17.710,0.420
100,36948.499000,246.135,49.988,16.532,388.054,265.253,-58.307,-3.200,-40.710,30.420
101,36948.541000,249.094,44.939,10.521,385.415,263.571,-56.384,8.800,-41.710,59.420
102,36948.581000,251.067,41.909,9.519,390.694,260.915,-58.440,12.800,-44.710,59.420
103,36948.621000,250.081,39.890,9.519,389.815,260.942,-57.449,5.800,-42.710,46.420
104,36948.661000,250.081,47.968,6.513,389.807,257.414,-59.549,-43.200,-22.710,49.420
105,36948.681000,246.135,39.890,6.513,391.573,262.623,-59.374,-49.200,-3.710,44.420
106,36948.721000,254.027,31.811,8.517,391.575,258.340,-57.527,65.800,25.290,53.420
107,36948.761000,246.135,40.899,12.524,395.107,261.871,-55.416,88.800,8.290,64.420
108,36948.798000,249.094,39.890,10.521,392.445,261.672,-62.381,31.800,-31.710,66.420
109,36948.841000,252.054,30.801,5.511,395.968,257.362,-61.517,-68.200,-47.710,47.420
110,36948.881000,253.040,29.791,4.509,395.091,258.258,-60.498,-72.200,-37.710,34.420
111,36948.901000,249.094,35.850,8.517,395.966,258.202,-62.483,-39.200,-23.710,39.420
112,36948.942000,251.067,33.830,5.511,395.966,253.890,-61.630,-1.200,-3.710,41.420
113,36948.980000,249.094,32.821,7.515,397.731,254.788,-60.602,19.800,5.290,44.420
114,36949.19000,251.067,31.811,7.515,396.857,256.579,-58.561,30.800,1.290,35.420
115,36949.60000,251.067,33.830,6.513,396.856,255.711,-58.589,13.800,9.290,26.420
116,36949.105000,250.081,35.850,5.511,395.973,256.551,-59.557,4.800,24.290,17.420
117,36949.144000,251.067,28.781,7.515,395.097,255.738,-57.601,38.800,27.290,22.420
118,36949.165000,249.094,33.830,9.519,395.964,251.286,-61.714,54.800,16.290,25.420
119,36949.203000,248.108,34.840,9.519,396.856,251.400,-57.736,43.800,1.290,29.420
120,36949.245000,250.081,34.840,9.519,397.726,252.156,-61.680,21.800,-15.710,24.420
121,36949.281000,250.081,28.781,10.521,397.728,254.760,-61.596,-27.200,-36.710,20.420
122,36949.321000,252.054,35.850,8.517,398.604,252.128,-62.671,12.800,-30.710,26.420
123,36949.363000,252.054,29.791,5.511,400.367,253.865,-62.609,-9.200,-22.710,31.420
124,36949.383000,250.081,31.811,8.517,400.365,250.393,-62.722,9.800,-22.710,36.420
125,36949.425000,251.067,33.830,8.517,396.840,245.211,-61.909,-7.200,-39.710,37.420
126,36949.464000,251.067,32.821,4.509,400.358,245.157,-63.885,-45.200,-47.710,32.420
127,36949.504000,250.081,24.742,6.513,401.231,245.073,-66.864,-72.200,-55.710,23.420
128,36949.545000,254.027,30.801,8.517,402.126,248.659,-62.773,-64.200,-58.710,20.420
129,36949.585000,251.067,34.840,6.513,398.594,249.440,-65.738,-70.200,-70.710,34.420
130,36949.623000,246.135,22.722,6.513,400.351,243.365,-65.929,-79.200,-87.710,36.420
131,36949.645000,252.054,37.870,6.513,399.460,240.676,-68.998,-75.200,-94.710,25.420
132,36949.685000,254.027,21.712,-3.507,399.461,241.544,-68.970,-53.200,-79.710,50.420
133,36949.725000,252.054,23.732,-4.509,401.228,245.045,-67.858,-30.200,-47.710,59.420
134,36949.765000,253.040,29.791,-0.501,400.340,238.940,-69.052,-36.200,-30.710,56.420
135,36949.804000,250.081,30.801,-4.509,403.861,239.783,-70.006,-31.200,-6.710,36.420
136,36949.845000,241.202,27.771,-3.507,403.874,241.631,-65.974,-103.200,-8.710,34.420
137,36949.865000,259.946,22.722,2.505,405.628,238.972,-68.041,17.800,0.290,77.420
138,36949.904000,248.108,30.801,5.511,404.741,238.047,-70.060,0.800,-46.710,77.420
139,36949.939000,250.081,31.811,5.511,400.328,234.516,-72.174,-43.200,-95.710,84.420
140,36949.986000,248.108,30.801,-0.501,405.617,231.104,-70.282,-232.200,-124.710,65.420
141,36950.21000,249.094,13.633,-10.521,408.250,230.153,-73.283,-254.200,-139.710,70.420
142,36950.62000,253.040,11.613,-9.519,403.856,236.283,-71.113,-180.200,-133.710,72.420
143,36950.102000,255.013,11.613,-9.519,409.134,237.070,-74.049,-89.200,-119.710,76.420
144,36950.123000,254.027,10.604,-6.513,406.487,235.304,-75.108,-41.200,-121.710,78.420
145,36950.159000,256.987,17.673,-8.517,407.349,232.531,-81.153,28.800,-122.710,82.420
146,36950.201000,251.067,14.643,-12.524,408.226,228.192,-81.291,39.800,-121.710,88.420
147,36950.241000,250.081,12.623,-12.524,409.102,225.561,-82.367,89.800,-122.710,92.420
148,36950.281000,252.054,17.673,-12.524,410.853,225.449,-86.337,52.800,-132.710,88.420
149,36950.323000,255.013,10.604,-18.536,410.842,221.893,-89.431,45.800,-136.710,90.420
150,36950.363000,251.067,10.604,-16.532,408.200,222.759,-89.411,89.800,-139.710,87.420
151,36950.383000,253.040,11.613,-19.538,414.351,221.754,-94.389,84.800,-155.710,80.420
152,36950.423000,255.013,9.594,-23.546,411.698,219.064,-97.464,40.800,-162.710,70.420
153,36950.463000,256.000,4.544,-26.552,411.683,217.187,-102.490,98.800,-148.710,60.420
154,36950.503000,255.013,2.525,-26.552,412.554,215.367,-105.525,175.800,-145.710,44.420
155,36950.542000,256.987,2.525,-24.548,412.537,208.311,-109.726,252.800,-164.710,29.420
156,36950.586000,256.000,-0.505,-22.544,413.403,207.302,-114.721,173.800,-52.710,13.420
157,36950.606000,257.973,-2.525,-23.546,412.515,204.641,-116.796,174.800,-104.710,8.420
158,36950.646000,255.013,2.525,-38.575,408.089,210.461,-125.559,234.800,-297.710,-31.580
159,36950.686000,250.081,8.584,-29.558,409.830,208.529,-132.567,238.800,-343.710,-63.580
160,36950.726000,249.094,16.663,-48.595,404.519,205.696,-140.619,360.800,-377.710,-74.580
161,36950.766000,242.189,31.811,-39.577,400.970,209.751,-150.429,363.800,-320.710,-81.580
162,36950.806000,240.216,8.584,-43.585,401.829,206.951,-157.468,134.800,-235.710,-75.580
163,36950.842000,234.297,10.604,-44.587,395.659,209.494,-159.391,161.800,-20.710,-65.580
164,36950.862000,230.351,24.742,-43.585,398.292,204.232,-161.540,-22.200,104.290,-54.580
165,36950.902000,234.297,30.801,-40.579,400.957,207.035,-154.489,-280.200,195.290,-48.580
166,36950.942000,245.148,3.535,-51.601,399.216,208.099,-147.509,-216.200,252.290,-35.580
167,36950.982000,254.027,35.850,-103.703,400.992,215.996,-144.268,167.800,244.290,-69.580
168,36951.22000,262.906,8.584,-87.671,397.461,210.758,-145.443,105.800,36.290,-18.580
169,36951.62000,261.919,-21.712,-64.626,404.521,208.300,-140.535,63.800,311.290,2.420
170,36951.82000,262.906,-23.732,-33.566,405.444,214.742,-127.414,-370.200,375.290,-96.580
171,36951.122000,251.067,10.604,-24.548,404.591,219.335,-118.331,-65.200,430.290,-144.580
172,36951.166000,249.094,16.663,-22.544,409.018,225.584,-112.156,-32.200,427.290,-164.580
173,36951.206000,252.054,10.604,-21.542,409.042,230.989,-105.030,86.800,433.290,-163.580
174,36951.243000,252.054,27.771,-10.521,407.309,233.005,-95.040,95.800,434.290,-174.580
175,36951.284000,243.175,26.761,-3.507,404.682,234.880,-90.022,24.800,360.290,-166.580
176,36951.324000,253.040,10.604,-4.509,403.808,236.672,-87.981,196.800,348.290,-162.580
177,36951.346000,245.148,38.880,11.523,402.057,236.783,-84.011,198.800,320.290,-148.580
178,36951.386000,253.040,29.791,9.519,403.826,237.709,-81.989,65.800,214.290,-127.580
179,36951.425000,244.162,24.742,8.517,400.329,239.696,-72.999,41.800,303.290,-119.580
180,36951.465000,249.094,40.899,17.534,402.979,249.246,-72.681,106.800,64.290,-42.580
181,36951.504000,246.135,48.978,13.526,402.974,246.613,-73.759,98.800,-22.710,-25.580
182,36951.546000,250.081,35.850,7.515,398.561,246.526,-76.755,36.800,-56.710,-11.580
183,36951.566000,253.040,37.870,5.511,399.449,245.743,-73.799,20.800,-41.710,2.420
184,36951.606000,253.040,34.840,1.503,399.441,241.347,-75.927,-50.200,-0.710,11.420
185,36951.648000,252.054,34.840,6.513,402.081,237.876,-76.032,14.800,66.290,42.420
186,36951.683000,249.094,38.880,12.524,405.621,244.068,-71.847,-12.200,-1.710,66.420
187,36951.723000,246.135,35.850,15.530,403.847,243.086,-75.857,24.800,-64.710,105.420
188,36951.767000,243.175,37.870,29.558,407.347,238.551,-82.944,42.800,-223.710,154.420
189,36951.803000,241.202,34.840,31.562,402.043,235.774,-89.009,99.800,-584.710,251.420
190,36951.824000,253.040,50.998,56.611,403.753,226.645,-105.187,76.800,-926.710,365.420
191,36951.864000,303.353,11.613,36.571,401.913,213.816,-129.441,-324.200,-1275.710,351.420
192,36951.907000,334.921,-39.890,-51.601,393.046,214.954,-150.286,-367.200,-1298.710,-9.580
193,36951.943000,286.582,37.870,-150.795,392.999,220.523,-167.979,57.800,-1183.710,-104.580
194,36951.983000,260.933,71.195,-141.777,378.845,225.969,-189.693,-120.200,-1148.710,-195.580
195,36952.23000,182.012,20.702,-94.685,376.168,228.204,-202.538,-171.200,-825.710,-55.580
196,36952.47000,146.497,19.692,-88.673,369.979,225.399,-209.600,-119.200,-457.710,27.420
197,36952.86000,144.524,27.771,-85.667,369.090,217.558,-210.850,-236.200,-143.710,60.420
198,36952.124000,143.538,16.663,-70.638,370.869,218.596,-204.853,-257.200,275.290,99.420
199,36952.166000,133.672,-3.535,-43.585,377.072,225.855,-193.675,-392.200,543.290,165.420
200,36952.202000,116.902,-17.673,-165.824,382.402,224.573,-177.811,-369.200,734.290,102.420
201,36952.246000,467.114,100.481,21.542,381.556,229.222,-166.740,-380.200,395.290,-266.580
202,36952.287000,471.060,-29.791,0.501,380.676,234.402,-167.568,89.800,127.290,39.420
203,36952.306000,363.530,-97.452,0.501,381.548,230.874,-169.666,78.800,-188.710,20.420
204,36952.344000,335.908,-21.712,-17.534,380.644,229.780,-177.648,237.800,-443.710,-46.580
205,36952.384000,274.744,43.929,-53.605,374.450,226.918,-186.698,370.800,-368.710,-58.580
206,36952.423000,202.728,56.047,-154.802,376.186,225.798,-195.665,-120.200,-639.710,11.420
207,36952.464000,139.592,45.949,-85.667,370.001,232.512,-203.411,-112.200,-486.710,-58.580
208,36952.504000,78.428,29.791,-53.605,372.632,227.221,-206.554,339.800,145.290,57.420
209,36952.524000,136.632,40.899,-50.599,378.818,226.555,-199.604,358.800,715.290,40.420
210,36952.565000,151.430,7.574,-87.671,380.608,219.082,-187.925,149.800,918.290,32.420
211,36952.604000,199.769,119.669,-321.127,384.168,222.895,-175.874,191.800,633.290,-277.580
212,36952.643000,322.096,-55.037,-22.544,378.882,226.335,-176.773,247.800,135.290,-423.580
213,36952.684000,365.503,-64.126,-0.501,376.249,228.153,-173.743,111.800,224.290,-50.580
214,36952.724000,321.110,-92.402,-41.581,373.617,242.039,-173.301,-325.200,-54.710,-275.580
215,36952.764000,299.407,-70.185,-76.650,368.328,245.451,-175.193,-6.200,-428.710,-156.580
216,36952.784000,296.447,-96.442,-94.685,360.365,240.796,-186.293,801.800,-401.710,4.420
217,36952.828000,269.811,-104.521,-51.601,363.810,218.478,-208.851,1426.800,-329.710,418.420
218,36952.865000,230.351,-43.929,-26.552,371.687,193.842,-221.542,1147.800,-202.710,729.420
219,36952.904000,219.499,-29.791,-53.605,374.310,182.448,-225.875,432.800,11.290,779.420
220,36952.944000,217.526,-1.515,-38.575,378.716,168.675,-222.336,170.800,209.290,797.420
221,36952.984000,198.782,13.633,-53.605,390.172,154.937,-217.780,131.800,462.290,824.420
222,36953.23000,196.809,33.830,-21.542,401.648,137.083,-205.413,-24.200,628.290,790.420
223,36953.44000,191.877,32.821,-34.568,404.323,131.375,-192.681,-367.200,776.290,743.420
224,36953.99000,263.892,38.880,-35.569,416.705,116.352,-172.276,-72.200,1135.290,770.420
225,36953.127000,227.391,165.112,-54.607,426.456,110.931,-149.582,-259.200,1044.290,303.420
226,36953.167000,209.634,107.550,-52.603,427.395,120.986,-131.379,-595.200,537.290,-382.580
227,36953.207000,341.827,194.398,-76.650,425.628,129.553,-135.079,154.800,-273.710,-693.580
228,36953.248000,432.586,-69.176,-18.536,423.869,137.335,-135.825,-283.200,-197.710,-417.580
229,36953.268000,252.054,-145.925,-54.607,419.468,157.183,-139.167,-191.200,-132.710,-787.580
230,36953.308000,245.148,9.594,-84.665,408.908,172.799,-138.694,330.800,102.290,-756.580
231,36953.348000,264.879,2.525,-33.566,405.388,181.449,-139.417,287.800,304.290,-503.580
232,36953.388000,260.933,-14.643,-19.538,403.648,185.117,-132.353,639.800,376.290,-321.580
233,36953.428000,244.162,-22.722,-17.534,408.049,183.356,-133.389,732.800,332.290,-264.580
234,36953.466000,239.229,38.880,-4.509,402.763,182.484,-133.434,547.800,239.290,-258.580
235,36953.507000,234.297,58.067,-2.505,404.523,188.505,-135.219,472.800,166.290,-236.580
236,36953.528000,246.135,19.692,-1.503,402.760,190.211,-136.163,203.800,92.290,-156.580
237,36953.568000,256.000,-0.505,-2.505,401.885,190.267,-134.178,150.800,40.290,-98.580
238,36953.608000,256.000,-12.623,-20.540,400.992,190.154,-138.156,240.800,2.290,-75.580
239,36953.648000,255.013,16.663,-13.526,400.990,190.993,-139.122,279.800,46.290,-26.580
240,36953.684000,252.054,39.890,-10.521,398.343,184.916,-139.328,189.800,73.290,52.420
241,36953.724000,248.108,4.544,-17.534,400.987,183.210,-138.381,80.800,106.290,92.420
242,36953.744000,252.054,16.663,-14.528,403.641,179.012,-133.544,-22.200,106.290,70.420
243,36953.788000,255.013,12.623,8.517,405.399,177.250,-134.589,-106.200,93.290,125.420
244,36953.827000,246.135,29.791,4.509,406.282,176.410,-133.620,-336.200,-15.710,155.420
245,36953.867000,251.067,1.515,-5.511,409.819,178.262,-129.577,-306.200,-69.710,226.420
246,36953.908000,249.094,27.771,4.509,408.937,177.393,-129.608,-302.200,-91.710,289.420
247,36953.948000,256.000,18.682,-13.526,410.704,172.271,-126.789,-481.200,-98.710,369.420
248,36953.983000,264.879,-16.663,-23.546,415.108,164.518,-125.041,-296.200,-18.710,412.420
249,36954.4000,259.946,15.653,-10.521,418.618,153.181,-127.383,-402.200,-36.710,539.420
250,36954.43000,261.919,-27.771,10.521,424.799,146.438,-120.632,-311.200,-87.710,666.420
251,36954.88000,269.811,126.738,50.599,426.551,136.863,-121.930,-245.200,-112.710,633.420
252,36954.128000,313.218,40.899,16.532,430.949,130.762,-123.106,-1425.200,-550.710,678.420
253,36954.168000,305.326,10.604,-31.562,430.930,127.989,-129.154,-655.200,-807.710,427.420
254,36954.208000,260.933,76.245,-167.828,425.598,134.422,-146.837,-511.200,-1126.710,-348.580
255,36954.229000,271.784,77.254,-166.826,410.556,148.407,-173.242,-346.200,-1378.710,-927.580
256,36954.264000,196.809,41.909,-82.661,394.659,170.400,-192.439,-1004.200,-1349.710,-788.580
257,36954.309000,174.119,-0.505,-86.669,377.899,190.854,-204.738,-1036.200,-1021.710,-925.580
258,36954.349000,180.039,18.682,-78.654,372.618,215.881,-208.908,-514.200,-475.710,-1051.580
259,36954.391000,179.052,-0.505,-63.624,359.437,235.164,-201.373,-675.200,-15.710,-992.580
260,36954.426000,193.850,-58.067,-85.667,351.543,258.764,-194.675,-515.200,377.290,-987.580
261,36954.466000,206.674,-73.215,-62.622,346.291,269.429,-185.408,310.800,906.290,-869.580
262,36954.489000,231.337,-99.471,-62.622,347.211,268.956,-171.519,168.800,1264.290,-576.580
263,36954.529000,244.162,-68.166,-159.812,351.657,271.090,-157.534,561.800,1470.290,-464.580
264,36954.569000,357.611,-117.649,78.654,358.693,267.538,-160.605,1055.800,950.290,-26.580
265,36954.604000,334.921,35.850,-53.605,368.463,270.910,-133.654,-1843.200,355.290,181.420
266,36954.647000,312.231,-45.949,-17.534,364.967,278.077,-125.489,172.800,350.290,32.420
267,36954.687000,254.027,57.057,-46.591,369.372,275.504,-124.565,-46.200,262.290,49.420
268,36954.707000,255.013,45.949,-38.575,371.156,273.995,-116.664,-250.200,324.290,150.420
269,36954.744000,254.027,27.771,-46.591,376.462,270.752,-108.809,27.800,403.290,240.420
270,36954.789000,238.243,-0.505,-17.534,380.868,265.604,-106.976,276.800,302.290,210.420
271,36954.826000,234.297,66.146,20.540,379.978,256.895,-108.254,411.800,88.290,138.420
272,36954.866000,236.270,63.116,12.524,379.962,250.706,-112.427,349.800,-124.710,127.420
273,36954.906000,210.620,20.702,-43.585,381.701,253.926,-121.254,238.800,-244.710,71.420
274,36954.946000,240.216,76.245,-2.505,379.039,254.595,-128.191,103.800,-375.710,45.420
275,36954.966000,257.973,56.047,-55.609,380.787,251.011,-132.274,-363.200,-293.710,113.420
276,36955.6000,241.202,112.600,-49.597,378.163,253.783,-126.235,-793.200,-122.710,173.420
277,36955.44000,273.757,-44.939,-61.620,386.112,250.542,-118.370,-961.200,-53.710,331.420
278,36955.88000,260.933,4.544,-44.587,387.896,246.456,-109.560,-232.200,178.290,198.420
279,36955.127000,246.135,48.978,-19.538,392.320,249.233,-103.498,-329.200,170.290,152.420
280,36955.169000,227.391,38.880,-13.526,395.846,248.395,-102.521,-175.200,46.290,217.420
281,36955.189000,239.229,-34.840,14.528,396.710,240.471,-106.747,367.800,-320.710,186.420
282,36955.226000,235.283,43.929,-13.526,395.783,239.152,-122.681,123.800,-611.710,67.420
283,36955.266000,231.337,22.722,-33.566,386.923,232.619,-138.809,-64.200,-799.710,63.420
284,36955.307000,237.256,-20.702,-42.583,385.999,227.884,-152.868,-25.200,-1040.710,-18.580
285,36955.346000,233.310,28.781,-58.614,377.132,226.446,-172.803,54.800,-1111.710,-95.580
286,36955.387000,239.229,59.077,-105.706,366.514,232.007,-190.530,-267.200,-1008.710,-23.580
287,36955.427000,252.054,-4.544,-97.691,362.077,226.515,-200.652,167.800,-605.710,58.420
288,36955.453000,251.067,28.781,-121.738,362.941,227.214,-206.585,323.800,-352.710,132.420
289,36955.488000,247.121,28.781,-106.708,362.039,220.969,-212.748,221.800,80.290,182.420
290,36955.528000,234.297,13.633,-115.726,367.347,221.198,-204.780,-111.200,91.290,145.420
291,36955.568000,254.027,-20.702,-117.730,371.751,219.465,-204.822,-200.200,242.290,91.420
292,36955.608000,249.094,-17.673,-97.691,373.526,214.427,-199.022,-84.200,385.290,-1.580
293,36955.662000,237.256,-16.663,-83.663,374.444,219.106,-186.951,12.800,503.290,-124.580
294,36955.692000,240.216,29.791,-84.665,378.867,221.014,-180.917,156.800,509.290,-168.580
295,36955.707000,242.189,58.067,-67.632,383.307,226.535,-169.801,65.800,578.290,-83.580
296,36955.747000,239.229,59.077,-68.634,386.866,228.612,-157.806,-278.200,624.290,18.420
297,36955.787000,244.162,-18.682,-38.575,386.899,226.346,-145.964,-325.200,555.290,-23.580
298,36955.827000,246.135,-1.515,-33.566,386.056,236.203,-134.724,-169.200,437.290,-124.580
299,36955.868000,253.040,3.535,-34.568,387.846,239.930,-125.660,-36.200,401.290,-147.580
300,36955.908000,245.148,33.830,-30.560,388.741,239.203,-120.716,273.800,383.290,-130.580
301,36955.928000,238.243,55.037,-26.552,394.035,239.292,-117.717,-43.200,245.290,-67.580
302,36955.968000,260.933,5.554,-34.568,392.290,242.903,-112.641,89.800,249.290,-50.580
303,36956.8000,249.094,8.584,-33.566,394.068,246.517,-107.553,297.800,418.290,-97.580
304,36956.48000,228.378,53.018,-9.519,394.954,245.706,-105.590,318.800,288.290,-125.580
305,36956.88000,237.256,33.830,9.519,391.438,248.364,-103.529,163.800,38.290,-74.580
306,36956.128000,241.202,23.732,11.523,391.416,245.563,-110.571,328.800,-247.710,-53.580
307,36956.168000,247.121,31.811,-14.528,386.967,238.221,-124.725,269.800,-464.710,7.420
308,36956.187000,275.730,41.909,-29.558,384.298,241.410,-134.560,38.800,-512.710,-55.580
309,36956.228000,300.393,40.899,-17.534,380.755,245.522,-142.382,96.800,-527.710,-64.580
310,36956.269000,332.948,-50.998,-6.513,378.075,245.154,-155.312,113.800,-697.710,52.420
311,36956.311000,337.881,-89.373,11.523,375.362,238.428,-178.377,1357.800,-722.710,-158.580
312,36956.351000,336.894,-84.323,-13.526,364.691,226.235,-210.583,1723.800,-674.710,-139.580
313,36956.391000,217.526,145.925,-122.740,358.460,215.251,-230.819,353.800,-903.710,162.420
314,36956.411000,160.308,97.452,-223.937,356.699,223.873,-232.531,-1331.200,-942.710,289.420
315,36956.447000,122.821,-46.959,-64.626,353.157,222.834,-238.534,-705.200,-717.710,382.420
316,36956.487000,79.414,-24.742,-49.597,357.550,217.544,-241.671,132.800,-47.710,673.420
317,36956.527000,50.805,36.860,-78.654,367.273,208.398,-228.034,-193.200,524.290,651.420
318,36956.567000,133.672,28.781,-79.656,376.121,203.619,-213.266,-1100.200,888.290,597.420
319,36956.607000,235.283,6.564,-301.088,386.787,209.736,-181.258,-1703.200,696.290,291.420
320,36956.647000,397.071,-20.702,79.656,386.798,208.981,-177.310,328.800,263.290,-32.580
321,36956.673000,449.356,-99.471,36.571,382.377,206.233,-182.379,1650.800,370.290,-507.580
322,36956.708000,414.829,-176.221,-2.505,383.225,199.876,-192.512,1842.800,252.290,-563.580
323,36956.748000,271.784,-127.748,-53.605,379.665,196.931,-204.535,952.800,-121.710,-84.580
324,36956.788000,234.297,-47.968,-146.787,380.551,203.008,-204.335,-948.200,-525.710,427.420
325,36956.828000,236.270,-147.945,-115.726,379.627,190.517,-216.659,389.800,-564.710,809.420
326,36956.872000,174.119,-42.919,-37.573,383.977,155.519,-227.711,1470.800,-140.710,1079.420
327,36956.887000,144.524,9.594,-53.605,391.902,139.117,-225.239,643.800,504.290,1108.420
328,36956.937000,182.998,31.811,-13.526,403.379,115.244,-211.082,-100.200,830.290,1098.420
329,36956.974000,211.607,35.850,-32.564,416.637,101.901,-192.605,-540.200,886.290,1107.420
330,36957.7000,162.281,110.580,-106.708,427.246,86.763,-176.182,-921.200,762.290,709.420
331,36957.54000,217.526,109.570,-141.777,427.258,84.300,-171.297,-1106.200,87.290,1007.420
332,36957.87000,154.389,127.748,-116.728,429.933,93.235,-162.061,-2930.200,-200.710,442.420
333,36957.128000,327.029,-24.742,-13.526,422.882,85.446,-161.343,1249.800,192.290,-373.580
334,36957.148000,364.516,114.619,30.560,425.506,86.119,-168.264,1273.800,5.290,-336.580
335,36957.188000,389.179,-154.004,-27.554,421.088,83.399,-172.339,-740.200,-382.710,211.420
336,36957.228000,333.935,-129.767,-99.695,420.200,93.674,-176.973,-209.200,-236.710,-212.580
337,36957.272000,318.150,-23.732,-100.697,421.090,98.071,-174.841,225.800,155.290,-8.580
338,36957.309000,304.339,-11.613,-64.626,424.634,91.383,-166.110,-192.200,367.290,189.420
339,36957.349000,285.595,-34.840,-15.530,429.066,96.819,-157.976,323.800,427.290,88.420
340,36957.369000,263.892,-13.633,21.542,433.479,92.595,-154.127,301.800,269.290,38.420
341,36957.408000,235.283,-10.604,-7.515,432.606,92.679,-151.148,-49.200,53.290,-73.580
342,36957.448000,245.148,22.722,-46.591,430.833,96.877,-155.982,778.800,-143.710,-272.580
343,36957.487000,200.755,29.791,-128.751,428.156,99.113,-168.827,1240.800,-426.710,-601.580
344,36957.528000,225.418,43.929,-222.935,419.315,98.797,-179.788,849.800,-1026.710,-955.580
345,36957.568000,203.715,67.156,-110.716,406.036,114.518,-206.132,-1004.200,-1297.710,-730.580
346,36957.608000,164.254,48.978,-70.638,391.936,154.098,-216.808,-2022.200,-1072.710,-867.580
347,36957.628000,173.133,3.535,-64.626,373.472,190.625,-212.703,-1638.200,-452.710,-1063.580
348,36957.668000,153.403,-4.544,-86.669,371.730,210.644,-210.073,-603.200,25.290,-1036.580
349,36957.709000,146.497,6.564,-94.685,364.707,228.112,-205.557,-76.200,379.290,-1105.580
350,36957.749000,192.863,-46.959,-89.675,360.343,241.438,-194.216,640.800,996.290,-1089.580
351,36957.788000,260.933,-44.939,-128.751,361.250,246.872,-186.093,862.800,1281.290,-962.580
352,36957.829000,360.570,-199.448,-101.699,363.037,253.147,-178.932,944.800,1192.290,-783.580
353,36957.849000,416.802,-316.592,79.656,372.737,240.331,-172.366,602.800,1035.290,502.420
354,36957.889000,437.518,-4.544,-44.587,378.115,253.304,-143.131,-2860.200,161.290,-53.580
355,36957.932000,204.701,-14.643,-86.669,378.146,257.057,-133.079,435.800,352.290,-174.580
356,36957.971000,228.378,141.886,-70.638,378.173,259.047,-124.078,-355.200,554.290,-13.580
357,36958.11000,282.636,-83.314,-12.524,378.203,255.045,-112.292,-367.200,553.290,111.420
358,36958.51000,238.243,42.919,-17.534,379.980,252.611,-106.407,438.800,608.290,-139.580
359,36958.91000,234.297,100.481,3.507,380.883,255.413,-99.362,168.800,402.290,-82.580
360,36958.111000,234.297,66.146,16.532,381.777,257.262,-95.327,109.800,227.290,61.420
361,36958.157000,233.310,76.245,18.536,387.950,262.503,-94.145,-139.200,3.290,43.420
362,36958.202000,234.297,31.811,-5.511,386.197,262.586,-91.169,-579.200,-265.710,88.420
363,36958.229000,235.283,-10.604,35.569,387.057,261.522,-98.151,16.800,-453.710,160.420
364,36958.271000,233.310,33.830,-2.505,384.358,254.069,-116.276,283.800,-602.710,57.420
365,36958.312000,258.960,16.663,-44.587,379.919,252.859,-128.245,239.800,-553.710,21.420
366,36958.352000,250.081,54.028,-77.652,379.897,246.614,-134.406,-27.200,-477.710,29.420
367,36958.372000,264.879,54.028,-101.699,380.766,242.191,-137.525,-22.200,-67.710,181.420
368,36958.412000,258.960,55.037,-72.642,382.544,240.625,-131.613,-154.200,247.290,229.420
369,36958.452000,248.108,48.978,-42.583,387.854,242.590,-123.588,-389.200,442.290,217.420
370,36958.491000,245.148,7.574,-4.509,387.878,244.551,-115.580,-290.200,278.290,152.420
371,36958.531000,237.256,20.702,10.521,395.819,242.962,-110.641,-192.200,71.290,142.420
372,36958.568000,229.364,43.929,-8.517,389.660,242.174,-107.708,-57.200,-163.710,137.420
373,36958.593000,241.202,-10.604,8.517,394.020,230.527,-120.980,-143.200,-488.710,144.420
374,36958.629000,233.310,-8.584,-6.513,393.991,233.689,-131.801,229.800,-791.710,94.420
375,36958.669000,238.243,0.505,3.507,389.520,232.170,-154.703,380.800,-1082.710,-10.580
376,36958.709000,230.351,26.761,-102.701,379.762,228.911,-177.679,12.800,-1221.710,-79.580
377,36958.753000,238.243,12.623,-56.611,365.590,228.140,-204.560,455.800,-1251.710,-159.580
378,36958.793000,243.175,46.959,-93.683,346.130,223.894,-231.571,197.800,-1303.710,-214.580
379,36958.833000,248.108,44.939,-153.800,338.165,224.390,-244.490,-112.200,-975.710,-89.580
380,36958.853000,233.310,39.890,-129.753,329.318,218.837,-256.614,110.800,-660.710,108.420
381,36958.893000,227.391,34.840,-155.804,326.662,212.675,-259.801,132.800,-241.710,258.420
382,36958.933000,235.283,-10.604,-160.814,334.612,214.614,-252.762,-88.200,278.290,177.420
383,36958.973000,242.189,-27.771,-143.781,339.903,218.986,-251.610,-15.200,435.290,-59.580
384,36959.13000,241.202,-13.633,-130.755,343.456,223.582,-242.513,-133.200,610.290,-301.580
385,36959.52000,240.216,-1.515,-122.740,349.674,231.849,-226.337,171.800,860.290,-375.580
386,36959.73000,237.256,38.880,-112.720,349.702,235.575,-217.279,356.800,887.290,-345.580
387,36959.114000,226.405,69.176,-84.665,358.542,230.711,-205.492,446.800,1024.290,-122.580
388,36959.148000,227.391,81.294,-54.607,367.399,230.328,-188.596,231.800,1070.290,85.420
389,36959.191000,231.337,22.722,-31.562,378.025,227.427,-168.796,-37.200,962.290,172.420
390,36959.229000,230.351,37.870,-16.532,386.876,229.564,-154.796,-89.200,725.290,60.420
391,36959.269000,233.310,26.761,-9.519,389.567,234.357,-138.744,-361.200,502.290,14.420
392,36959.314000,242.189,29.791,-14.528,388.690,235.252,-137.725,4.800,377.290,0.420
393,36959.334000,245.148,38.880,-21.542,387.838,237.269,-127.732,-312.200,151.290,4.420
394,36959.369000,237.256,15.653,-11.523,391.376,240.857,-123.633,-227.200,59.290,-3.580
395,36959.409000,236.270,14.643,-12.524,388.726,238.194,-125.714,-185.200,-153.710,-15.580
396,36959.449000,245.148,1.515,-18.536,391.360,234.668,-127.806,-8.200,-361.710,-24.580
397,36959.498000,239.229,37.870,-3.507,386.048,240.430,-138.559,216.800,-525.710,-32.580
398,36959.531000,232.324,39.890,-52.603,384.247,237.459,-151.570,-145.200,-675.710,66.420
399,36959.551000,307.299,-26.761,-37.573,377.158,238.767,-166.445,79.800,-819.710,-204.580
400,36959.589000,418.775,-72.205,-46.591,370.071,235.792,-179.473,220.800,-894.710,-280.580
401,36959.632000,448.370,-163.093,-36.571,359.425,234.184,-205.377,1727.800,-696.710,-348.580
402,36959.672000,272.771,-46.959,-64.626,354.941,214.437,-228.871,1244.800,-371.710,-199.580
403,36959.712000,193.850,-7.574,-139.773,352.298,225.634,-231.495,-330.200,-441.710,322.420
404,36959.762000,145.511,11.613,-144.783,354.078,227.541,-225.469,-1606.200,-328.710,763.420
405,36959.792000,134.659,62.107,-97.691,364.706,230.687,-206.466,-1726.200,-143.710,1184.420
406,36959.812000,121.834,50.998,-65.628,377.078,218.155,-189.953,-1132.200,193.290,1286.420
407,36959.852000,129.726,105.531,-60.618,395.606,198.627,-175.632,-213.200,537.290,1262.420
408,36959.893000,139.592,228.734,-77.652,410.645,184.615,-150.221,-1006.200,794.290,912.420
409,36959.934000,161.295,119.669,-44.587,417.743,180.815,-131.455,-1928.200,818.290,770.420
410,36959.973000,307.299,189.349,-181.855,423.966,183.959,-112.466,-888.200,128.290,-4.580
411,36960.12000,329.988,-259.030,46.591,413.394,195.150,-115.115,433.800,328.290,-660.580
412,36960.33000,461.195,-266.099,6.513,421.296,181.967,-121.476,2778.800,720.290,-85.580
413,36960.72000,371.422,-315.582,51.601,420.426,188.967,-119.265,-153.200,48.290,-171.580
414,36960.114000,406.936,-266.099,28.556,416.881,190.475,-127.172,1812.800,92.290,-314.580
415,36960.153000,244.162,40.899,-37.573,417.723,184.062,-139.293,1470.800,106.290,-129.580
416,36960.194000,182.998,-44.939,-237.965,414.189,174.483,-140.608,-471.200,-494.710,266.420
417,36960.234000,205.688,-140.876,-169.832,416.794,168.071,-152.724,800.800,-478.710,529.420
418,36960.274000,128.740,-80.284,-58.614,421.145,141.696,-165.482,1723.800,-111.710,852.420
419,36960.298000,140.578,1.515,-10.521,429.058,120.870,-166.132,801.800,436.290,985.420
420,36960.333000,141.565,39.890,-37.573,436.133,100.466,-151.877,-459.200,616.290,1038.420
421,36960.373000,178.066,-40.899,-198.888,443.205,91.233,-141.231,-1580.200,508.290,1269.420
422,36960.413000,217.526,-43.929,-172.838,446.742,70.685,-131.956,-1132.200,78.290,1285.420
423,36960.454000,146.497,7.574,-59.616,446.749,76.789,-130.765,-4184.200,-253.710,601.420
424,36960.493000,360.570,32.821,-10.521,443.217,69.814,-131.996,897.800,-27.710,157.420
425,36960.514000,367.476,86.343,12.524,441.446,67.992,-135.040,931.800,-69.710,-357.580
426,36960.549000,422.721,-149.964,0.501,443.194,72.165,-140.857,404.800,-83.710,-63.580
427,36960.591000,394.112,-147.945,-45.589,440.567,70.596,-134.958,22.800,-7.710,56.420
428,36960.631000,390.166,-127.748,-13.526,442.332,75.805,-134.783,321.800,197.290,-154.580
429,36960.671000,323.083,21.712,21.542,443.222,76.758,-131.770,433.800,183.290,-250.580
430,36960.714000,247.121,62.107,-42.583,444.114,76.004,-127.820,667.800,228.290,-410.580
431,36960.758000,180.039,37.870,-171.836,442.336,84.457,-135.495,1571.800,-315.710,-919.580
432,36960.777000,207.661,46.959,-173.840,432.582,98.473,-160.890,1347.800,-968.710,-1168.580
433,36960.813000,201.742,52.008,-104.704,417.547,122.006,-186.985,-772.200,-1371.710,-1015.580
434,36960.853000,155.376,23.732,-57.613,406.069,148.455,-202.051,-1649.200,-1276.710,-1073.580
435,36960.893000,176.092,-55.037,-57.613,389.337,182.966,-207.936,-1606.200,-882.710,-1166.580
436,36960.936000,170.173,-28.781,-58.614,375.257,203.787,-207.306,-668.200,-263.710,-927.580
437,36960.976000,172.146,-38.880,-74.646,369.120,228.199,-202.561,-546.200,224.290,-869.580
438,36961.12000,175.106,-53.018,-69.636,364.757,242.394,-191.192,-88.200,617.290,-869.580
439,36961.33000,203.715,-72.205,-57.613,363.016,240.014,-183.330,447.800,1150.290,-649.580
440,36961.76000,257.973,14.643,-168.830,369.232,245.677,-167.239,243.800,1342.290,-408.580
441,36961.111000,408.909,-184.300,37.573,371.008,245.819,-162.264,653.800,366.290,-120.580
442,36961.152000,339.854,-10.604,-155.804,370.184,246.382,-142.388,-1059.200,578.290,146.420
443,36961.192000,318.150,-96.442,21.542,375.510,255.404,-130.162,-1169.200,343.290,-45.580
444,36961.233000,229.364,79.274,-78.654,379.068,259.188,-119.105,199.800,383.290,-9.580
445,36961.252000,275.730,-64.126,-60.618,379.115,257.931,-102.265,-673.200,379.290,434.420
446,36961.292000,252.054,13.633,-31.562,383.538,252.952,-94.469,201.800,427.290,107.420
447,36961.333000,243.175,78.264,-5.511,385.334,260.179,-84.298,-683.200,343.290,-30.580
448,36961.379000,238.243,49.988,9.519,386.255,264.886,-71.234,-572.200,358.290,-12.580
449,36961.414000,232.324,20.702,-8.517,389.826,267.943,-55.235,-515.200,349.290,7.420
450,36961.454000,229.364,56.047,41.581,391.615,269.934,-46.228,-588.200,-58.710,44.420
451,36961.494000,228.378,53.018,25.550,390.704,263.603,-55.373,-427.200,-638.710,207.420
452,36961.514000,246.135,-20.702,-38.575,389.784,249.433,-65.766,-40.200,-797.710,225.420
453,36961.556000,258.960,-20.702,-38.575,388.861,253.322,-81.531,167.800,-791.710,42.420
454,36961.596000,256.000,3.535,-69.636,387.058,255.502,-96.361,97.800,-638.710,-71.580
455,36961.643000,263.892,14.643,-83.663,382.625,255.217,-106.314,299.800,-326.710,-92.580
456,36961.672000,270.798,79.274,-102.701,383.492,250.765,-110.428,216.800,127.290,25.420
457,36961.713000,256.987,4.544,-78.654,387.038,247.549,-101.584,-126.200,439.290,134.420
458,36961.733000,236.270,23.732,-36.571,391.465,246.042,-93.674,116.800,620.290,99.420
459,36961.772000,237.256,20.702,-11.523,392.382,253.296,-82.513,28.800,411.290,15.420
460,36961.812000,229.364,41.909,14.528,395.028,246.439,-79.748,73.800,85.290,33.420
461,36961.852000,233.310,40.899,1.503,392.375,248.060,-83.676,31.800,-266.710,80.420
462,36961.897000,233.310,24.742,-5.511,392.341,247.722,-95.603,-71.200,-683.710,79.420
463,36961.933000,222.459,7.574,-16.532,386.992,245.362,-117.543,57.800,-1024.710,29.420
464,36961.973000,235.283,16.663,-78.654,382.520,242.975,-140.473,197.800,-1174.710,-67.580
465,36961.993000,252.054,-8.584,-80.658,372.775,241.565,-159.417,338.800,-1096.710,-189.580
466,36962.33000,227.391,21.712,-77.652,360.370,236.540,-183.452,383.800,-965.710,-256.580
467,36962.74000,243.175,28.781,-118.732,347.089,237.590,-207.292,211.800,-1066.710,-252.580
468,36962.114000,235.283,65.136,-115.726,335.607,239.008,-218.206,107.800,-770.710,-172.580
469,36962.154000,228.378,32.821,-176.845,337.346,247.408,-227.857,42.800,-567.710,44.420
470,36962.194000,239.229,16.663,-159.812,334.690,240.377,-231.073,204.800,-157.710,174.420
471,36962.221000,242.189,5.554,-161.816,338.210,239.484,-232.084,-34.200,149.290,134.420
472,36962.256000,240.216,4.544,-147.789,342.644,237.193,-221.221,-62.200,532.290,-5.580
473,36962.296000,242.189,1.515,-129.753,343.552,234.871,-211.363,-226.200,808.290,-125.580
474,36962.336000,228.378,40.899,-107.710,353.303,240.650,-191.285,-58.200,1026.290,-196.580
475,36962.377000,229.364,45.949,-100.697,362.173,245.559,-171.237,-60.200,1091.290,-53.580
476,36962.416000,223.445,49.988,-70.638,370.158,242.685,-150.452,88.800,1088.290,114.420
477,36962.459000,233.310,38.880,-54.607,377.234,242.104,-140.518,186.800,956.290,155.420
478,36962.476000,234.297,18.682,-36.571,382.572,240.039,-121.702,2.800,810.290,101.420
479,36962.516000,238.243,34.840,-25.550,387.884,242.032,-112.683,21.800,598.290,-15.580
480,36962.557000,236.270,52.008,-17.534,388.812,247.663,-97.602,-132.200,449.290,-48.580
481,36962.593000,233.310,52.008,-9.519,389.706,250.380,-93.539,-290.200,282.290,-18.580
482,36962.633000,243.175,-7.574,-12.524,393.238,249.599,-90.574,-87.200,13.290,13.420
483,36962.676000,252.054,14.643,5.511,387.948,251.275,-92.523,39.800,-205.710,-36.580
484,36962.697000,248.108,30.801,-36.571,388.809,251.947,-99.449,273.800,-276.710,-35.580
485,36962.739000,251.067,27.771,-18.536,386.117,250.598,-116.383,519.800,-358.710,23.420
486,36962.774000,253.040,42.919,9.519,382.573,246.086,-122.498,180.800,-674.710,-50.580
487,36962.814000,293.487,45.949,-18.536,378.122,244.765,-138.443,1.800,-843.710,-165.580
488,36962.856000,389.179,-111.590,-57.613,370.131,244.139,-160.335,1180.800,-732.710,-236.580
489,36962.904000,350.705,3.535,-43.585,366.516,234.611,-190.445,2062.800,-338.710,-207.580
490,36962.934000,208.647,45.949,-93.683,368.244,230.831,-201.485,1091.800,-349.710,-17.580
491,36962.954000,177.079,95.432,-143.781,366.454,227.972,-210.521,-408.200,-450.710,116.420
492,36962.995000,139.592,48.978,-134.763,362.050,235.725,-212.269,-786.200,-311.710,85.420
493,36963.33000,117.888,35.850,-82.661,365.592,234.188,-205.357,-338.200,37.290,107.420
494,36963.77000,135.645,64.126,-87.671,373.528,228.231,-201.553,93.800,382.290,175.420
495,36963.113000,132.686,47.968,-120.736,375.305,226.665,-195.640,-8.200,567.290,103.420
496,36963.157000,143.538,27.771,-117.730,383.275,221.046,-179.909,39.800,593.290,175.420
497,36963.177000,178.066,89.373,-184.861,387.700,222.114,-172.909,-179.200,445.290,-5.580
498,36963.217000,365.503,-35.850,34.568,380.671,227.458,-167.793,11.800,231.290,-144.580
499,36963.257000,430.613,-156.024,13.526,384.181,221.300,-170.961,725.800,148.290,-3.580
500,36963.296000,416.802,-197.428,-14.528,377.988,223.617,-180.836,1225.800,14.290,-391.580
501,36963.339000,322.096,-93.412,-12.524,373.545,220.644,-193.855,1007.800,-322.710,-258.580
502,36963.376000,252.054,-82.304,-97.691,373.523,214.399,-200.016,104.800,-363.710,429.420
503,36963.416000,200.755,-5.554,-165.824,378.814,214.459,-198.011,-825.200,-403.710,646.420
504,36963.436000,193.850,-89.373,-84.665,382.316,203.037,-203.335,395.800,-197.710,834.420
505,36963.476000,151.430,-13.633,-38.575,397.249,171.603,-211.258,1655.800,438.290,1069.420
506,36963.514000,171.160,50.998,-25.550,406.069,139.831,-200.345,1103.800,868.290,997.420
507,36963.554000,195.823,52.008,-31.562,414.898,124.524,-189.891,146.800,1084.290,1042.420
508,36963.595000,207.661,35.850,-49.597,429.946,107.152,-160.617,-1135.200,998.290,1148.420
509,36963.634000,159.322,88.363,-171.836,438.808,93.890,-139.173,-1819.200,579.290,1106.420
510,36963.654000,192.863,109.570,-65.628,443.229,88.882,-132.370,-2886.200,-221.710,1303.420
511,36963.694000,262.906,-119.669,-15.530,443.248,92.523,-126.294,-2536.200,-339.710,625.420
512,36963.734000,303.353,19.692,-11.523,440.600,96.777,-129.143,608.800,-12.710,-148.580
513,36963.774000,337.881,102.501,-16.532,440.583,93.164,-134.226,957.800,15.290,-232.580
514,36963.814000,389.179,-150.974,16.532,438.797,91.201,-142.239,186.800,-380.710,147.420
515,36963.857000,353.665,-126.738,-93.683,431.728,96.151,-151.038,-455.200,-460.710,-78.580
516,36963.897000,349.719,-28.781,-83.663,436.130,89.238,-150.255,407.800,-5.710,-96.580
517,36963.916000,307.299,10.604,-30.560,437.894,90.975,-150.193,-304.200,162.290,37.420
518,36963.961000,293.487,-2.525,-14.528,441.440,98.091,-143.993,-334.200,121.290,-2.580
519,36963.996000,225.418,13.633,-33.566,442.337,101.704,-138.908,32.800,518.290,-195.580
520,36964.36000,196.809,7.574,-182.857,435.276,109.314,-145.634,1291.800,-436.710,-941.580
521,36964.82000,212.593,57.057,-173.840,425.525,119.915,-169.153,1597.800,-919.710,-1232.580
522,36964.116000,183.985,35.850,-73.644,406.949,135.520,-199.489,48.800,-1320.710,-1054.580
523,36964.158000,179.052,27.771,-62.622,389.306,160.257,-213.638,-1044.200,-1108.710,-1113.580
524,36964.178000,165.241,11.613,-84.665,370.806,186.954,-219.782,-1035.200,-822.710,-1140.580
525,36964.218000,158.335,-38.880,-61.620,364.654,214.669,-220.888,-721.200,-346.710,-997.580
526,36964.257000,142.551,-54.028,-49.597,359.402,233.090,-213.356,-349.200,436.290,-888.580
527,36964.298000,176.092,-53.018,-59.616,355.929,244.794,-198.093,138.800,1031.290,-819.580
528,36964.337000,208.647,29.791,-141.777,361.277,256.617,-178.825,473.800,1503.290,-766.580
529,36964.378000,414.829,-159.053,-151.796,357.734,246.086,-183.150,1900.800,789.290,-366.580
530,36964.398000,262.906,-56.047,-131.757,363.944,243.069,-167.340,-748.200,554.290,253.420
531,36964.438000,379.314,-197.428,-31.562,365.767,257.466,-148.994,-1105.200,178.290,-276.580
532,36964.479000,216.540,102.501,-101.699,362.244,258.331,-148.977,856.800,317.290,-327.580
533,36964.514000,241.202,106.540,-72.642,361.375,262.755,-145.857,187.800,489.290,-90.580
534,36964.558000,234.297,65.136,-65.628,370.215,261.335,-134.952,-271.200,551.290,133.420
535,36964.598000,251.067,36.860,-31.562,373.785,263.524,-118.982,-287.200,518.290,31.420
536,36964.639000,237.256,27.771,-19.538,374.713,265.712,-103.020,-544.200,440.290,2.420
537,36964.654000,235.283,30.801,-10.521,376.502,267.703,-94.013,-205.200,252.290,-1.580
538,36964.696000,231.337,52.008,28.556,377.374,267.619,-96.991,-106.200,-54.710,33.420
539,36964.736000,237.256,58.067,6.513,379.120,264.875,-102.040,-227.200,-430.710,103.420
540,36964.776000,237.256,26.761,-14.528,374.687,257.703,-110.231,-195.200,-770.710,112.420
541,36964.816000,231.337,7.574,-50.599,368.473,262.399,-127.972,-101.200,-904.710,45.420
542,36964.858000,242.189,12.623,-54.607,365.790,261.135,-141.924,16.800,-1019.710,-150.580
543,36964.878000,231.337,37.870,-96.689,352.526,263.222,-159.772,-162.200,-1029.710,-217.580
544,36964.918000,231.337,45.949,-128.751,342.795,261.085,-173.775,337.800,-762.710,-169.580
545,36964.958000,274.744,31.811,-110.716,337.465,258.922,-188.757,186.800,-421.710,-50.580
546,36964.998000,254.027,35.850,-137.769,340.986,265.784,-191.502,-40.200,-67.710,-32.580
547,36965.38000,243.175,42.919,-136.767,341.014,266.066,-181.563,-183.200,265.290,74.420
548,36965.78000,234.297,29.791,-80.658,346.314,262.767,-175.695,-16.200,473.290,144.420
549,36965.118000,215.553,57.057,-39.577,352.505,264.733,-167.667,-140.200,294.290,112.420
550,36965.138000,211.607,50.998,-49.597,353.400,260.562,-161.842,-279.200,1.290,96.420
551,36965.178000,218.513,26.761,-42.583,355.143,258.659,-167.856,64.800,-308.710,96.420
552,36965.218000,215.553,11.613,-23.546,347.186,257.503,-177.849,31.800,-638.710,-22.580
553,36965.258000,249.094,9.594,-101.699,340.976,257.076,-192.777,-52.200,-785.710,-130.580
554,36965.298000,210.620,49.988,-117.730,333.019,263.676,-204.505,77.800,-763.710,-182.580
555,36965.337000,216.540,38.880,-127.750,324.185,261.709,-212.541,217.800,-585.710,-211.580
556,36965.357000,241.202,54.028,-150.795,320.631,263.132,-223.429,277.800,-336.710,-182.580
557,36965.398000,239.229,41.909,-175.843,315.341,263.940,-225.405,79.800,105.290,-3.580
558,36965.438000,239.229,39.890,-159.812,317.118,262.374,-219.493,-19.200,437.290,66.420
559,36965.478000,237.256,27.771,-134.763,328.594,259.164,-210.623,-54.200,726.290,74.420
560,36965.519000,235.283,39.890,-126.748,338.334,261.386,-193.639,-67.200,1002.290,75.420
561,36965.559000,241.202,7.574,-102.701,348.075,264.476,-176.627,104.800,1169.290,71.420
562,36965.599000,235.283,46.959,-78.654,359.585,262.472,-155.802,339.800,1216.290,34.420
563,36965.619000,221.472,58.067,-52.603,365.795,260.323,-139.964,24.800,1156.290,140.420
564,36965.656000,220.486,56.047,-28.556,375.530,255.601,-123.205,264.800,1019.290,206.420
565,36965.696000,232.324,38.880,7.515,379.097,252.582,-107.404,262.800,848.290,161.420
566,36965.736000,224.432,49.988,-1.503,382.642,255.386,-100.350,-99.200,424.290,35.420
567,36965.776000,231.337,35.850,3.507,383.540,255.556,-94.384,-165.200,140.290,7.420
568,36965.817000,244.162,17.673,8.517,385.303,256.425,-94.350,-237.200,-132.710,-24.580
569,36965.837000,247.121,56.047,-20.540,382.646,257.150,-99.300,-224.200,-382.710,22.420
570,36965.899000,241.202,-15.653,-31.562,380.871,257.876,-104.247,-462.200,-538.710,72.420
571,36965.933000,274.744,-19.692,-45.589,376.445,259.384,-112.157,205.800,-517.710,-78.580
572,36965.956000,253.040,65.136,-51.601,375.537,253.950,-120.280,-79.200,-536.710,26.420
573,36966.1000,273.757,-9.594,-58.614,376.382,251.008,-132.288,94.800,-463.710,23.420
574,36966.43000,324.069,-49.988,-40.579,374.581,248.037,-145.299,810.800,-424.710,-89.580
575,36966.78000,346.759,-63.116,-23.546,368.333,244.640,-173.233,1493.800,-524.710,-110.580
576,36966.99000,335.908,-31.811,-20.540,364.760,242.422,-190.198,1134.800,-580.710,-183.580
577,36966.141000,273.757,22.722,-56.611,360.320,236.901,-201.314,576.800,-268.710,-78.580
578,36966.177000,155.376,83.314,-171.836,359.422,233.288,-206.399,-431.200,-421.710,68.420
579,36966.218000,103.091,31.811,-87.671,361.196,238.581,-203.243,-930.200,-269.710,325.420
580,36966.258000,99.145,19.692,-6.513,372.697,231.313,-184.575,-356.200,661.290,676.420
581,36966.298000,140.578,66.146,-53.605,380.653,226.421,-173.785,329.800,1209.290,629.420
582,36966.317000,143.538,113.609,-157.808,397.440,215.712,-154.219,-202.200,1090.290,423.420
583,36966.357000,226.405,100.481,-290.067,395.702,218.540,-146.189,-848.200,-313.710,-129.580
584,36966.398000,285.595,-61.097,91.679,389.528,215.875,-148.281,594.800,95.290,-149.580
585,36966.438000,494.736,-135.826,8.517,391.274,217.444,-154.183,1220.800,184.290,-126.580
586,36966.477000,398.058,-219.645,-10.521,389.474,211.896,-166.284,1073.800,76.290,-348.580
587,36966.517000,370.435,-181.270,-24.548,384.162,214.215,-176.156,1153.800,-95.710,-277.580
588,36966.557000,235.283,-16.663,-94.685,387.673,208.057,-179.323,344.800,-99.710,212.420
589,36966.577000,207.661,-12.623,-192.877,389.437,207.218,-178.352,-613.200,-372.710,621.420
590,36966.617000,155.376,-96.442,-51.601,393.820,193.221,-182.764,763.800,-132.710,897.420
591,36966.662000,132.686,0.505,-24.548,406.996,164.418,-189.615,1282.800,332.290,1200.420
592,36966.698000,155.376,39.890,-36.571,421.993,135.339,-175.615,255.800,848.290,1200.420
593,36966.737000,201.742,8.584,-47.593,428.184,111.462,-161.475,-601.200,833.290,1246.420
594,36966.779000,213.580,-20.702,-49.597,437.922,95.569,-141.107,-1245.200,463.290,1355.420
595,36966.819000,151.430,28.781,-239.969,444.102,78.467,-132.705,-1907.200,26.290,1135.420
596,36966.839000,177.079,-66.146,0.501,444.131,83.060,-123.619,-3794.200,-282.710,614.420
597,36966.881000,264.879,-91.393,-60.618,438.838,76.952,-124.827,93.800,-133.710,210.420
598,36966.916000,299.407,90.383,8.517,441.468,75.105,-128.851,954.800,-109.710,-178.580
599,36966.957000,408.909,4.544,0.501,437.925,80.086,-136.644,623.800,-330.710,-124.580
600,36967.7000,384.247,-154.004,-88.673,440.553,75.635,-140.752,-504.200,-238.710,36.420
601,36967.37000,361.557,-101.491,-92.681,437.903,76.416,-143.714,220.800,267.290,-131.580
602,36967.57000,317.164,39.890,-31.562,442.343,81.937,-132.598,-8.200,563.290,33.420
603,36967.97000,300.393,25.751,5.511,447.673,81.524,-116.707,-327.200,556.290,-4.580
604,36967.139000,221.472,-12.623,4.509,449.479,87.996,-102.589,339.800,655.290,-296.580
605,36967.179000,210.620,-8.584,-74.646,447.696,93.817,-111.343,1741.800,-60.710,-734.580
606,36967.217000,192.863,81.294,-181.855,441.482,97.645,-129.112,1858.800,-1022.710,-1086.580
607,36967.257000,209.634,66.146,-70.638,425.551,112.413,-158.474,-39.200,-1395.710,-1096.580
608,36967.302000,195.823,24.742,-53.605,410.538,147.370,-179.233,-1399.200,-1346.710,-1022.580
609,36967.322000,195.823,-44.939,-55.609,393.792,178.296,-189.206,-1414.200,-882.710,-1198.580
610,36967.362000,209.634,-66.146,-52.603,380.577,199.817,-194.508,-76.200,-421.710,-1207.580
611,36967.402000,218.513,-37.870,-74.646,371.767,215.322,-198.005,95.800,-78.710,-1040.580
612,36967.438000,226.405,-69.176,-68.634,365.635,234.611,-190.448,-283.200,245.290,-661.580
613,36967.482000,215.553,-106.540,-69.636,366.539,243.460,-184.200,-179.200,515.290,-466.580
614,36967.517000,228.378,-60.087,-40.579,365.706,247.382,-168.188,23.800,926.290,-261.580
615,36967.539000,237.256,-12.623,-141.777,368.392,248.675,-153.242,-334.200,912.290,-296.580
616,36967.579000,320.123,-13.633,12.524,370.186,249.854,-142.276,46.800,463.290,-226.580
617,36967.619000,291.514,-143.905,-175.843,373.740,255.318,-133.150,-513.200,214.290,261.420
618,36967.659000,324.069,-65.136,-10.521,373.769,257.336,-123.154,-593.200,209.290,-83.580
619,36967.699000,307.299,-8.584,-39.577,369.376,260.889,-120.074,-36.200,213.290,-312.580
620,36967.739000,228.378,112.600,-57.613,369.391,266.210,-115.930,-65.200,396.290,-117.580
621,36967.778000,248.108,63.116,-46.591,372.942,264.758,-106.035,-257.200,414.290,46.420
622,36967.798000,255.013,9.594,-29.558,374.734,259.889,-94.272,-148.200,389.290,132.420
623,36967.839000,238.243,33.830,-17.534,380.931,258.468,-83.375,48.800,524.290,48.420
624,36967.879000,242.189,30.801,-12.524,382.703,264.601,-81.184,16.800,271.290,64.420
625,36967.918000,229.364,5.554,15.530,382.684,262.696,-87.204,425.800,-87.710,21.420
626,36967.958000,224.432,65.136,9.519,379.127,263.224,-99.114,247.800,-505.710,-79.580
627,36967.998000,229.364,109.570,-51.601,378.223,262.998,-107.069,-185.200,-589.710,-70.580
628,36968.18000,260.933,-17.673,-67.632,372.924,259.409,-111.174,-595.200,-617.710,86.420
629,36968.58000,283.622,-9.594,-74.646,372.023,252.324,-116.372,-138.200,-393.710,42.420
630,36968.98000,279.676,19.692,-106.708,370.253,255.682,-120.240,13.800,27.290,64.420
631,36968.138000,247.121,35.850,-69.636,376.449,253.392,-109.372,93.800,602.290,100.420
632,36968.179000,235.283,39.890,-26.552,379.120,257.120,-100.306,64.800,575.290,86.420
633,36968.222000,223.445,45.949,12.524,382.672,257.404,-90.355,-15.200,287.290,86.420
634,36968.262000,214.566,67.156,62.622,380.884,249.393,-97.572,14.800,-232.710,69.420
635,36968.282000,220.486,75.235,18.536,378.217,254.318,-107.350,-482.200,-910.710,69.420
636,36968.322000,233.310,-6.564,-23.546,373.769,260.780,-124.036,-804.200,-1291.710,15.420
637,36968.362000,227.391,-31.811,-73.644,364.896,250.662,-144.252,90.800,-1513.710,-171.580
638,36968.398000,231.337,74.225,-109.714,349.842,252.466,-172.046,166.800,-1335.710,-224.580
639,36968.453000,238.243,27.771,-121.738,335.691,257.940,-192.766,-100.200,-1204.710,-176.580
640,36968.481000,212.593,46.959,-126.748,325.061,258.209,-213.644,175.800,-1049.710,-141.580
641,36968.524000,225.418,87.353,-159.812,315.337,251.844,-223.812,-71.200,-855.710,14.420
642,36968.539000,231.337,46.959,-178.849,313.568,256.938,-227.624,-73.200,-465.710,227.420
643,36968.579000,243.175,5.554,-180.853,317.076,247.309,-230.904,83.800,120.290,289.420
644,36968.624000,242.189,-2.525,-166.826,324.133,237.067,-225.256,-1.200,540.290,176.420
645,36968.661000,234.297,-2.525,-148.791,330.342,248.693,-212.943,-73.200,815.290,-1.580
646,36968.699000,234.297,8.584,-142.779,340.964,255.228,-196.809,-51.200,1076.290,-172.580
647,36968.742000,230.351,31.811,-116.728,348.961,260.221,-173.783,85.800,1216.290,-165.580
648,36968.762000,225.418,71.195,-81.659,360.472,259.085,-152.930,253.800,1302.290,-23.580
649,36968.803000,215.553,57.057,-51.601,371.111,258.901,-129.070,44.800,1190.290,186.420
650,36968.843000,223.445,28.781,-24.548,376.419,251.374,-119.367,-44.200,1003.290,208.420
651,36968.879000,227.391,28.781,-16.532,379.979,247.431,-105.582,-78.200,764.290,127.420
652,36968.923000,234.297,28.781,3.507,383.543,251.272,-92.537,-133.200,366.290,31.420
653,36968.963000,235.283,41.909,11.523,384.434,249.649,-88.615,-241.200,1.290,8.420
654,36969.5000,246.135,10.604,-30.560,385.317,256.566,-89.381,-239.200,-228.710,72.420
655,36969.24000,246.135,17.673,-41.581,381.774,249.478,-94.587,3.800,-254.710,20.420
656,36969.64000,244.162,26.761,-48.595,380.875,248.441,-100.582,-8.200,-256.710,-15.580
657,36969.99000,252.054,32.821,-46.591,381.728,244.716,-109.637,346.800,-253.710,-15.580
658,36969.139000,272.771,18.682,-40.579,385.246,244.662,-111.613,24.800,-379.710,34.420
659,36969.179000,304.339,-41.909,-38.575,379.931,246.952,-122.479,232.800,-536.710,-59.580
660,36969.224000,384.247,-60.087,-32.564,372.814,244.535,-146.412,1193.800,-619.710,-209.580
661,36969.239000,360.570,-30.801,-26.552,372.744,237.811,-169.469,1653.800,-500.710,-114.580
662,36969.281000,265.865,35.850,-49.597,370.930,236.435,-187.393,871.800,-18.710,-55.580
663,36969.322000,154.389,90.383,-173.840,368.279,232.037,-189.530,-315.200,-416.710,122.420
664,36969.362000,140.578,82.304,-126.748,365.646,238.167,-187.354,-673.200,-248.710,95.420
665,36969.399000,118.875,18.682,-18.536,368.298,235.678,-183.454,-406.200,167.290,134.420
666,36969.444000,94.212,55.037,-111.718,378.883,227.203,-176.744,635.800,770.290,129.420
667,36969.481000,116.902,-0.505,-105.706,385.059,220.404,-171.980,1026.800,1005.290,133.420
668,36969.501000,134.659,171.172,-315.115,391.237,217.077,-167.103,1118.800,815.290,-122.580
669,36969.541000,372.408,-117.649,108.712,387.720,218.867,-165.071,438.800,403.290,-182.580
670,36969.579000,450.343,-98.462,6.513,387.687,212.510,-175.207,1245.800,85.290,-59.580
671,36969.624000,404.963,-132.797,44.587,383.244,201.781,-186.492,1269.800,-268.710,-172.580
672,36969.659000,370.435,-107.550,13.526,379.681,195.364,-198.628,1392.800,-210.710,-257.580
673,36969.699000,243.175,-38.880,-59.616,378.767,192.449,-209.648,-104.200,-310.710,134.420
674,36969.719000,175.106,-16.663,-94.685,378.825,201.636,-191.476,-2110.200,-309.710,439.420
675,36969.761000,191.877,-76.245,-97.691,381.504,213.204,-181.162,-1444.200,-79.710,707.420
676,36969.799000,163.268,-74.225,-49.597,389.426,196.774,-179.684,681.800,320.290,1089.420
677,36969.843000,170.173,3.535,-29.558,407.033,160.472,-175.841,1406.800,725.290,1262.420
678,36969.883000,211.607,78.264,-14.528,422.935,134.223,-153.803,-356.200,1054.290,1376.420
679,36969.923000,229.364,47.968,-84.665,435.330,114.161,-127.603,-2165.200,850.290,1418.420
680,36969.963000,212.593,84.323,-92.681,444.154,99.665,-119.108,-2029.200,137.290,1844.420
681,36969.983000,188.917,-84.323,-10.521,446.817,99.864,-112.142,-3976.200,-313.710,640.420
682,36970.23000,283.622,61.097,-0.501,444.181,97.343,-109.254,129.800,-101.710,-28.580
683,36970.64000,264.879,39.890,-29.558,443.275,97.956,-118.174,975.800,-75.710,-177.580
684,36970.105000,286.582,-117.649,-27.554,439.744,99.605,-121.110,1219.800,-102.710,-114.580
685,36970.144000,372.408,13.633,11.523,438.831,98.427,-132.074,-353.200,-478.710,-95.580
686,36970.185000,302.366,-102.501,-114.724,433.529,103.434,-138.880,141.800,-351.710,-83.580
687,36970.204000,313.218,-31.811,-102.701,435.294,103.463,-137.880,227.800,68.290,-59.580
688,36970.243000,328.015,-31.811,-79.656,439.699,92.267,-135.250,272.800,405.290,105.420
689,36970.288000,303.353,0.505,-40.579,439.724,95.096,-127.215,-146.200,568.290,90.420
690,36970.323000,287.568,-26.761,15.530,445.052,99.835,-113.142,139.800,543.290,-91.580
691,36970.363000,210.620,12.623,-21.542,447.722,105.270,-105.013,720.800,650.290,-396.580
692,36970.403000,181.025,28.781,-156.806,441.536,113.692,-113.697,1799.800,-227.710,-886.580
693,36970.442000,187.931,61.097,-192.877,435.317,119.200,-133.398,1693.800,-862.710,-1122.580
694,36970.463000,220.486,52.008,-100.697,421.156,134.053,-159.772,199.800,-1227.710,-1042.580
695,36970.502000,169.187,20.702,-48.595,405.278,162.263,-173.802,-1316.200,-1113.710,-999.580
696,36970.543000,188.917,1.515,-55.609,391.184,195.011,-180.729,-1450.200,-796.710,-1120.580
697,36970.583000,186.944,-15.653,-72.642,380.632,216.732,-179.065,-771.200,-408.710,-1078.580
698,36970.624000,187.931,-6.564,-79.656,370.946,231.424,-180.605,363.800,110.290,-924.580
699,36970.664000,193.850,-53.018,-53.605,363.904,242.675,-181.255,818.800,474.290,-852.580
700,36970.684000,257.973,-84.323,-45.589,363.923,245.448,-175.207,711.800,875.290,-642.580
701,36970.724000,401.017,-133.807,-46.591,368.332,231.704,-170.674,586.800,918.290,310.420
702,36970.764000,319.137,-56.047,-51.601,378.992,244.652,-142.416,-2892.200,316.290,291.420
703,36970.804000,330.975,-132.797,-25.550,377.330,253.393,-109.369,-1779.200,338.290,-16.580
704,36970.844000,247.121,4.544,-45.589,380.846,254.179,-112.311,955.800,590.290,-105.580
705,36970.879000,202.728,115.629,-33.566,380.873,257.036,-103.282,-547.200,377.290,-85.580
706,36970.921000,236.270,41.909,-21.542,382.695,265.385,-84.138,-663.200,350.290,-16.580
707,36970.941000,263.892,21.712,8.517,384.483,263.064,-74.278,-244.200,210.290,32.420
708,36970.986000,240.216,-5.554,9.519,381.852,264.042,-70.282,-313.200,-72.710,60.420
709,36971.28000,245.148,-14.643,14.528,381.826,262.921,-79.256,121.800,-467.710,-20.580
710,36971.63000,231.337,20.702,0.501,378.265,254.797,-90.454,200.800,-759.710,-24.580
711,36971.103000,235.283,41.909,-61.620,377.322,258.488,-113.176,315.800,-771.710,-45.580
712,36971.143000,238.243,19.692,-94.685,368.502,262.681,-118.033,-520.200,-659.710,-108.580
713,36971.163000,275.730,89.373,-105.706,364.082,265.981,-123.898,-141.200,-332.710,-147.580
714,36971.202000,282.636,65.136,-120.736,364.973,266.934,-120.885,-154.200,123.290,10.420
715,36971.243000,263.892,2.525,-102.701,372.036,261.060,-114.102,362.800,767.290,107.420
716,36971.283000,245.148,6.564,-54.607,375.608,258.098,-96.313,138.800,948.290,-7.580
717,36971.323000,238.243,41.909,6.513,380.046,256.703,-84.428,231.800,855.290,-107.580
718,36971.362000,213.580,44.939,40.579,378.300,267.202,-81.114,269.800,228.290,-27.580
719,36971.403000,211.607,68.166,35.569,378.283,267.033,-87.078,209.800,-445.710,-13.580
720,36971.424000,223.445,60.087,-11.523,373.832,265.711,-103.023,-7.200,-932.710,12.420
721,36971.464000,227.391,14.643,-31.562,366.720,262.482,-124.996,-176.200,-1362.710,-81.580
722,36971.504000,248.108,-0.505,-28.556,352.540,266.807,-155.684,313.800,-1410.710,-241.580
723,36971.543000,249.094,55.037,-116.728,341.037,258.536,-171.877,198.800,-1247.710,-297.580
724,36971.584000,232.324,22.722,-117.730,331.295,262.334,-190.652,-103.200,-983.710,-126.580
725,36971.624000,231.337,27.771,-123.742,322.441,259.301,-205.673,191.800,-860.710,-147.580
726,36971.666000,225.418,70.185,-129.753,311.830,263.210,-220.475,167.800,-694.710,-161.580
727,36971.686000,237.256,58.067,-165.824,312.713,269.259,-221.269,-35.200,-247.710,64.420
728,36971.726000,250.081,-0.505,-157.808,313.595,266.684,-220.357,150.800,211.290,143.420
729,36971.766000,245.148,25.751,-156.806,318.023,264.336,-211.482,72.800,646.290,11.420
730,36971.806000,233.310,32.821,-145.785,327.750,268.153,-199.411,1.800,923.290,-26.580
731,36971.844000,235.283,66.146,-116.728,337.471,259.847,-186.741,140.800,1144.290,44.420
732,36971.884000,217.526,64.126,-82.661,349.854,262.071,-169.748,-8.200,1173.290,229.420
733,36971.909000,225.418,7.574,-63.624,362.255,261.888,-145.882,17.800,1118.290,182.420
734,36971.944000,231.337,37.870,-46.591,368.464,261.447,-130.982,128.800,1025.290,89.420
735,36971.984000,234.297,8.584,-12.524,375.552,258.402,-116.163,394.800,878.290,34.420
736,36972.24000,242.189,24.742,-5.511,376.441,257.619,-113.207,609.800,675.290,-34.580
737,36972.64000,227.391,28.781,-21.542,380.864,252.640,-105.410,383.800,686.290,-114.580
738,36972.104000,237.256,66.146,-3.507,379.117,252.780,-100.446,331.800,343.290,-14.580
739,36972.144000,242.189,28.781,-3.507,381.756,255.329,-102.341,232.800,86.290,70.420
740,36972.164000,246.135,49.988,-5.511,383.511,253.538,-104.380,172.800,-101.710,29.420
741,36972.207000,250.081,33.830,-47.593,379.974,251.687,-108.423,-64.200,-171.710,19.420
742,36972.244000,247.121,30.801,2.505,380.839,253.254,-114.327,241.800,-240.710,23.420
743,36972.297000,226.405,93.412,-2.505,377.290,246.111,-121.521,108.800,-531.710,93.420
744,36972.323000,289.541,-8.584,-23.546,373.746,245.043,-128.518,-620.200,-814.710,35.420
745,36972.364000,374.382,-17.673,-9.519,372.826,245.516,-142.408,9.800,-816.710,27.420
746,36972.385000,364.516,-96.442,-20.540,367.467,241.336,-167.385,735.800,-845.710,-9.580
747,36972.423000,314.204,5.554,-58.614,362.984,231.949,-192.529,411.800,-835.710,130.420
748,36972.462000,202.728,69.176,-172.838,357.689,241.324,-198.200,-576.200,-633.710,186.420
749,36972.506000,122.821,122.698,-149.793,358.587,238.049,-191.352,-1285.200,-535.710,383.420
750,36972.547000,116.902,19.692,-81.659,359.496,245.219,-183.173,-1025.200,-248.710,302.420
751,36972.587000,112.956,39.890,-42.583,363.017,241.750,-183.274,541.800,91.290,273.420
752,36972.627000,91.252,27.771,-57.613,370.931,230.415,-185.603,1092.800,663.290,110.420
753,36972.651000,203.715,-33.830,-214.920,378.852,215.693,-185.062,1278.800,563.290,313.420
754,36972.684000,402.990,-95.432,63.624,377.129,226.418,-173.796,-932.200,237.290,-8.580
755,36972.724000,434.559,-11.613,8.517,378.892,227.287,-173.763,321.800,78.290,-205.580
756,36972.769000,364.516,-87.353,-11.523,374.450,223.474,-185.816,1101.800,-112.710,-266.580
757,36972.803000,316.177,-88.363,-41.581,370.893,217.114,-195.964,1046.800,-249.710,-212.580
758,36972.844000,219.499,-97.452,-94.685,367.343,211.678,-204.096,-75.200,-362.710,83.420
759,36972.868000,189.904,-94.422,-100.697,364.683,207.195,-209.215,-244.200,-187.710,416.420
760,36972.903000,160.308,-109.570,-55.609,375.271,198.748,-201.511,-608.200,26.290,848.420
761,36972.943000,148.470,-73.215,-43.585,387.617,190.274,-194.796,148.800,553.290,1554.420
762,36972.984000,163.268,-23.732,-39.577,407.902,156.048,-178.960,91.800,1011.290,1667.420
763,36973.24000,172.146,44.939,-43.585,426.459,129.914,-152.938,-532.200,1212.290,1668.420
764,36973.64000,178.066,-126.738,-236.963,440.593,98.428,-132.069,-1509.200,568.290,2005.420
765,36973.107000,235.283,174.201,-152.798,445.909,74.607,-115.944,-1458.200,276.290,1604.420
766,36973.127000,338.867,-49.988,92.681,445.031,78.078,-115.834,-4152.200,-261.710,295.420
767,36973.162000,398.058,41.909,0.501,446.805,67.861,-109.209,1689.800,351.290,-68.580
768,36973.203000,453.303,-95.432,40.579,452.963,60.025,-110.436,1076.800,-17.710,133.420
769,36973.243000,378.328,-127.748,-29.558,446.770,66.655,-121.164,-151.200,-300.710,-53.580
770,36973.285000,399.044,-77.254,-35.569,444.125,64.049,-121.257,1082.800,81.290,-364.580
771,36973.324000,259.946,90.383,-60.618,443.267,75.473,-115.924,1071.800,112.290,-526.580
772,36973.344000,230.351,34.840,-113.722,440.603,85.605,-125.534,493.800,-377.710,-711.580
773,36973.391000,208.647,35.850,-152.798,435.280,96.435,-141.087,909.800,-600.710,-885.580
774,36973.424000,192.863,25.751,-92.681,431.717,104.662,-156.720,309.800,-779.710,-900.580
775,36973.466000,180.039,-22.722,-57.613,420.242,130.271,-170.820,-101.200,-844.710,-1032.580
776,36973.506000,214.566,-52.008,-71.640,409.640,150.644,-186.081,-73.200,-775.710,-1097.580
777,36973.546000,222.459,-26.761,-66.630,396.393,167.544,-201.463,63.800,-793.710,-958.580
778,36973.588000,228.378,-21.712,-67.632,379.639,183.742,-210.921,-760.200,-739.710,-853.580
779,36973.603000,203.715,-62.107,-72.642,369.073,202.746,-213.317,-477.200,-520.710,-867.580
780,36973.643000,185.958,-35.850,-75.648,362.904,219.092,-217.771,-237.200,-232.710,-753.580
781,36973.688000,154.389,-55.037,-58.614,359.398,224.439,-212.644,-189.200,281.290,-442.580
782,36973.724000,157.349,-47.968,-11.523,358.584,238.021,-192.346,-461.200,770.290,-301.580
783,36973.764000,184.971,-48.978,-19.538,363.051,245.532,-172.228,-514.200,1413.290,-236.580
784,36973.804000,269.811,81.294,-464.407,368.391,253.827,-155.061,399.800,550.290,-573.580
785,36973.828000,245.148,-72.205,92.681,369.283,250.496,-150.202,614.800,799.290,-69.580
786,36973.872000,350.705,-41.909,-49.597,372.891,257.363,-122.163,-1903.200,245.290,288.420
787,36973.908000,355.638,-53.018,-28.556,371.137,255.711,-119.244,563.800,391.290,-95.580
788,36973.948000,189.904,124.718,-46.591,375.548,257.506,-117.185,97.800,370.290,-102.580
789,36973.988000,238.243,93.412,-63.624,377.356,257.958,-101.277,-1016.200,313.290,49.420
790,36974.28000,253.040,-23.732,-36.571,377.407,261.909,-84.268,-203.200,466.290,21.420
791,36974.68000,242.189,21.712,-18.536,377.423,265.522,-79.186,-43.200,562.290,-112.580
792,36974.88000,230.351,70.185,17.534,377.445,264.879,-71.262,-134.200,112.290,-49.580
793,36974.128000,235.283,48.978,1.503,376.550,263.870,-76.263,-119.200,-372.710,84.420
794,36974.164000,236.270,16.663,-14.528,374.763,265.351,-85.158,-112.200,-488.710,77.420
795,36974.204000,284.609,-28.781,-48.595,373.850,259.861,-95.269,562.800,-267.710,-39.580
796,36974.244000,251.067,24.742,-79.656,370.311,262.293,-101.159,338.800,8.290,-109.580
797,36974.284000,261.919,38.880,-89.675,373.820,260.419,-106.173,360.800,111.290,-49.580
798,36974.307000,247.121,43.929,-57.613,371.197,264.926,-100.078,262.800,289.290,-50.580
799,36974.348000,231.337,66.146,-33.566,372.965,264.983,-98.084,110.800,278.290,4.420
800,36974.389000,223.445,96.442,2.505,375.629,266.918,-91.062,-4.200,130.290,58.420
801,36974.424000,209.634,58.067,-30.560,379.148,264.289,-92.129,-491.200,-100.710,132.420
802,36974.468000,245.148,-6.564,16.532,376.496,263.334,-95.147,-151.200,-368.710,127.420
803,36974.504000,229.364,23.732,12.524,376.462,256.109,-105.312,-97.200,-800.710,27.420
804,36974.544000,225.418,29.791,4.509,372.005,258.174,-124.126,-171.200,-1310.710,-87.580
805,36974.566000,226.405,5.554,-88.673,356.092,261.911,-144.908,-44.200,-1293.710,-171.580
806,36974.606000,229.364,52.008,-103.703,346.335,263.832,-168.709,247.800,-1190.710,-139.580
807,36974.646000,239.229,33.830,-128.751,335.712,263.317,-186.634,127.800,-875.710,-128.580
808,36974.686000,248.108,79.274,-168.830,332.170,264.854,-193.546,88.800,-522.710,-47.580
809,36974.726000,251.067,13.633,-171.836,329.511,258.663,-197.728,-35.200,-45.710,124.420
810,36974.767000,251.067,23.732,-160.814,334.820,255.448,-188.878,103.800,561.290,106.420
811,36974.787000,250.081,5.554,-129.753,342.787,258.424,-175.847,10.800,852.290,-16.580
812,36974.827000,231.337,35.850,-94.685,349.880,258.880,-159.922,-78.200,1008.290,-85.580
813,36974.867000,227.391,70.185,-75.648,359.621,266.282,-143.762,-237.200,1059.290,69.420
814,36974.907000,232.324,22.722,-44.587,369.367,265.116,-123.909,-111.200,1060.290,218.420
815,36974.948000,230.351,2.525,-35.569,374.708,263.080,-104.098,86.800,938.290,135.420
816,36974.988000,224.432,43.929,-7.515,378.271,266.052,-91.081,-119.200,570.290,-56.580
817,36975.28000,235.283,58.067,-5.511,377.400,260.985,-86.284,-215.200,321.290,-58.580
818,36975.48000,246.135,35.850,-34.568,379.181,262.891,-80.258,-166.200,214.290,-10.580
819,36975.88000,253.040,24.742,-30.560,380.086,261.409,-71.366,-210.200,205.290,-30.580
820,36975.128000,248.108,39.890,-31.562,380.099,267.570,-68.188,-249.200,199.290,-28.580
821,36975.168000,241.202,27.771,-11.523,380.997,272.051,-63.074,-55.200,151.290,57.420
822,36975.208000,257.973,1.515,-21.542,381.875,272.023,-64.065,108.800,44.290,66.420
823,36975.248000,249.094,28.781,-12.524,380.979,266.702,-68.213,791.800,75.290,-3.580
824,36975.268000,232.324,82.304,-1.503,381.834,269.025,-78.065,419.800,-118.710,-42.580
825,36975.313000,233.310,28.781,-15.530,380.044,261.855,-86.247,224.800,-313.710,83.420
826,36975.348000,244.162,18.682,-20.540,381.776,256.394,-95.356,77.800,-466.710,42.420
827,36975.389000,249.094,36.860,-11.523,374.700,259.551,-106.199,304.800,-700.710,28.420
828,36975.429000,291.514,20.702,-57.613,374.645,257.280,-125.139,163.800,-741.710,19.420
829,36975.469000,310.258,-32.821,-66.630,369.308,257.637,-143.019,412.800,-595.710,-115.580
830,36975.508000,352.678,-74.225,-34.568,363.985,252.087,-155.132,1282.800,-468.710,-117.580
831,36975.531000,346.759,-36.860,-26.552,359.494,243.483,-183.229,1186.800,-446.710,-60.580
832,36975.567000,245.148,-14.643,-68.634,359.460,235.390,-193.422,449.800,-189.710,21.420
833,36975.606000,130.713,65.136,-208.908,355.929,232.727,-195.505,-869.200,-552.710,308.420
834,36975.644000,121.834,116.639,-64.626,358.591,244.125,-191.155,-1432.200,-335.710,547.420
835,36975.686000,77.441,45.949,-6.513,371.863,244.698,-171.234,-1298.200,470.290,929.420
836,36975.727000,57.711,139.866,-86.669,388.650,227.102,-149.906,-115.200,1124.290,608.420
837,36975.747000,340.840,189.349,-335.155,389.558,229.961,-140.873,-225.200,-46.710,-170.580
838,36975.786000,307.299,-152.994,109.714,390.412,223.660,-149.019,1805.800,650.290,-177.580
839,36975.827000,382.274,-218.635,33.566,388.637,217.498,-152.203,462.800,76.290,-100.580
840,36975.867000,330.975,-123.708,-10.521,388.613,211.225,-159.358,830.800,-39.710,-156.580
841,36975.906000,239.229,13.633,-57.613,389.469,204.952,-166.510,479.800,-179.710,191.420
842,36975.947000,195.823,43.929,-139.773,387.703,206.631,-168.447,-1106.200,-539.710,532.420
843,36975.987000,193.850,-95.432,-120.736,391.206,201.256,-174.568,-93.200,-575.710,687.420
844,36976.7000,132.686,-53.018,-22.544,396.449,178.439,-184.228,1289.800,34.290,896.420
845,36976.46000,168.200,44.939,-8.517,408.778,153.417,-180.036,577.800,668.290,1036.420
846,36976.87000,182.998,36.860,-74.646,419.409,135.061,-154.780,-1025.200,835.290,1141.420
847,36976.136000,171.160,-7.574,-165.824,431.759,122.303,-146.217,-1822.200,508.290,1568.420
848,36976.171000,216.540,66.146,-69.636,441.479,101.061,-130.987,-2444.200,56.290,1341.420
849,36976.211000,244.162,68.166,17.534,439.742,97.001,-121.195,-3643.200,-281.710,1179.420
850,36976.252000,341.827,1.515,-8.517,445.032,98.769,-120.128,-423.200,-139.710,232.420
851,36976.267000,373.395,44.939,-33.566,445.026,95.269,-121.234,749.800,41.290,-93.580
852,36976.306000,381.287,-27.771,-41.581,439.726,83.057,-123.633,816.800,104.290,-39.580
853,36976.346000,369.449,-104.521,-62.622,440.609,78.774,-121.784,82.800,74.290,-58.580
854,36976.388000,353.665,-91.393,-56.611,439.749,91.906,-117.388,625.800,267.290,-194.580
855,36976.428000,302.366,-25.751,-18.536,445.053,92.947,-111.379,264.800,259.290,-125.580
856,36976.467000,208.647,-31.811,-34.568,443.314,94.039,-103.406,226.800,628.290,-190.580
857,36976.488000,207.661,-15.653,-140.775,445.952,101.740,-107.119,1251.800,-154.710,-673.580
858,36976.528000,199.769,58.067,-178.849,437.080,109.738,-130.720,2211.800,-596.710,-1011.580
859,36976.569000,231.337,68.166,-104.704,422.925,124.647,-155.106,491.800,-1252.710,-999.580
860,36976.609000,182.012,-5.554,-44.587,412.304,137.068,-175.590,-890.200,-1237.710,-941.580
861,36976.649000,214.566,-5.554,-70.638,403.476,165.311,-188.604,-694.200,-922.710,-988.580
862,36976.689000,194.836,-19.692,-63.624,388.482,184.086,-198.966,-563.200,-573.710,-987.580
863,36976.728000,186.944,-38.880,-73.644,376.158,203.985,-200.345,-27.200,-237.710,-988.580
864,36976.749000,179.052,-7.574,-75.648,367.353,216.942,-201.939,384.800,90.290,-938.580
865,36976.789000,174.119,-42.919,-71.640,361.213,230.127,-195.573,44.800,452.290,-664.580
866,36976.831000,175.106,-47.968,-48.595,363.010,236.514,-184.437,-20.200,928.290,-497.580
867,36976.871000,269.811,52.008,-137.769,368.380,246.826,-157.274,-205.200,1362.290,-425.580
868,36976.907000,319.137,-10.604,-285.057,368.441,252.598,-137.227,-60.200,725.290,-413.580
869,36976.948000,299.407,-81.294,54.607,375.476,243.866,-139.474,673.800,653.290,193.420
870,36976.968000,346.759,-34.840,-101.699,379.943,252.245,-119.328,-1812.200,278.290,195.420
871,36977.12000,292.501,-105.531,-7.515,380.875,259.640,-103.197,-267.200,292.290,-122.580
872,36977.47000,217.526,67.156,-68.634,379.117,261.403,-102.152,540.800,332.290,-179.580
873,36977.91000,236.270,113.609,-59.616,381.781,262.470,-95.158,-501.200,368.290,-57.580
874,36977.131000,238.243,36.860,-40.579,380.057,261.127,-81.306,-429.200,430.290,-0.580
875,36977.171000,256.987,11.613,-2.505,377.443,265.719,-72.228,-254.200,371.290,-50.580
876,36977.211000,225.418,32.821,13.526,378.332,264.936,-69.272,-299.200,-179.710,-45.580
877,36977.231000,237.256,30.801,1.503,380.082,271.712,-75.004,-29.200,-510.710,-16.580
878,36977.266000,225.418,53.018,-21.542,373.878,270.474,-87.973,186.800,-691.710,-66.580
879,36977.307000,234.297,75.235,-36.571,369.427,273.464,-104.771,-197.200,-913.710,-77.580
880,36977.346000,250.081,7.574,-88.673,366.746,271.359,-117.757,-138.200,-739.710,-42.580
881,36977.388000,261.919,48.978,-113.722,362.321,271.159,-124.729,170.800,-368.710,9.420
882,36977.429000,256.987,59.077,-110.716,360.556,265.950,-124.903,-65.200,42.290,183.420
883,36977.449000,259.946,-5.554,-86.669,367.625,261.000,-116.104,-150.200,287.290,189.420
884,36977.489000,246.135,12.623,-61.620,370.279,261.115,-112.120,74.800,379.290,93.420
885,36977.529000,225.418,42.919,-10.521,373.817,264.702,-108.020,-42.200,39.290,90.420
886,36977.569000,209.634,46.959,-15.530,373.799,263.665,-114.012,20.800,-342.710,45.420
887,36977.611000,235.283,3.535,-3.507,370.243,261.617,-125.013,-63.200,-697.710,-12.580
888,36977.652000,213.580,40.899,-73.644,358.739,263.677,-143.850,-39.200,-1159.710,-145.580
889,36977.688000,216.540,24.742,-98.693,347.213,264.673,-169.672,148.800,-1158.710,-166.580
890,36977.708000,241.202,2.525,-96.689,340.120,256.461,-183.863,370.800,-1129.710,-167.580
891,36977.748000,227.391,43.929,-150.795,326.849,260.200,-204.637,87.800,-994.710,-189.580
892,36977.788000,225.418,61.097,-177.847,315.365,262.458,-216.517,10.800,-696.710,-67.580
893,36977.828000,234.297,28.781,-190.873,312.707,253.691,-219.788,129.800,-208.710,103.420
894,36977.868000,245.148,-0.505,-180.853,318.880,258.064,-218.634,-16.200,418.290,80.420
895,36977.908000,239.229,-18.682,-158.810,329.485,258.410,-206.673,-14.200,762.290,-58.580
896,36977.927000,230.351,14.643,-136.767,333.923,257.015,-194.788,55.800,943.290,-221.580
897,36977.968000,242.189,10.604,-126.748,341.910,263.632,-175.681,131.800,1153.290,-215.580
898,36978.8000,182.012,7.574,-120.736,354.315,265.213,-150.765,421.800,2152.290,-105.580
899,36978.52000,228.378,43.929,-66.630,361.390,263.764,-140.859,741.800,1302.290,8.420
900,36978.88000,225.418,47.968,-49.597,372.000,262.430,-126.967,823.800,1161.290,11.420
901,36978.127000,209.634,121.688,-1.503,377.311,258.375,-117.151,777.800,995.290,13.420
902,36978.168000,226.405,41.909,-7.515,379.973,253.395,-109.361,274.800,558.290,99.420
903,36978.191000,254.027,8.584,-5.511,380.862,256.924,-107.257,309.800,328.290,14.420
904,36978.231000,244.162,43.929,-11.523,385.287,254.548,-99.376,24.800,370.290,-15.580
905,36978.271000,242.189,36.860,-35.569,384.417,253.792,-95.432,6.800,235.290,58.420
906,36978.311000,242.189,17.673,-4.509,388.823,247.776,-93.627,51.800,52.290,38.420
907,36978.351000,242.189,48.978,9.519,387.065,248.671,-92.610,-12.200,-102.710,10.420
908,36978.391000,238.243,64.126,-21.542,385.281,249.312,-100.539,-99.200,-253.710,-2.580
909,36978.411000,251.067,28.781,-25.550,385.278,250.152,-101.505,-98.200,-312.710,34.420
910,36978.451000,241.202,52.008,-17.534,383.497,254.265,-109.321,-109.200,-397.710,66.420
911,36978.491000,262.906,31.811,-23.546,384.364,247.237,-112.525,-342.200,-492.710,99.420
912,36978.531000,293.487,-5.554,-35.569,379.933,246.113,-121.513,-147.200,-584.710,94.420
913,36978.569000,348.732,-64.126,5.511,378.126,245.661,-137.421,349.800,-655.710,71.420
914,36978.609000,367.476,-42.919,5.511,373.650,240.641,-161.430,1075.800,-678.710,-27.580
915,36978.648000,210.620,116.639,-126.748,367.416,230.497,-182.632,907.800,-512.710,49.420
916,36978.681000,181.025,162.083,-181.855,370.041,225.151,-187.762,-305.200,-448.710,127.420
917,36978.711000,127.753,79.274,-130.755,367.443,240.243,-175.365,-1603.200,-388.710,109.420
918,36978.749000,106.050,-13.633,-68.634,367.451,246.347,-174.174,-353.200,51.290,27.420
919,36978.792000,118.875,42.919,-55.609,370.977,238.622,-171.434,690.800,433.290,149.420
920,36978.832000,152.416,23.732,-215.922,377.171,237.172,-161.531,388.800,637.290,-14.580
921,36978.871000,311.245,24.742,-165.824,378.938,232.918,-158.685,-37.200,258.290,-172.580
922,36978.888000,361.557,-90.383,38.575,380.716,232.220,-152.744,224.800,305.290,85.420
923,36978.931000,394.112,-185.310,-9.519,376.294,227.736,-157.869,159.800,-209.710,-63.580
924,36978.972000,302.366,-98.462,-50.599,378.025,227.427,-168.796,300.800,-388.710,178.420
925,36979.12000,232.324,-47.968,-89.675,378.907,224.852,-167.884,-1353.200,-510.710,504.420
926,36979.51000,225.418,-38.880,-121.738,384.185,217.884,-169.086,-160.200,-279.710,608.420
927,36979.89000,185.958,-104.521,-21.542,391.197,193.416,-175.815,1405.800,282.290,868.420
928,36979.131000,179.052,-22.722,-17.534,406.177,167.612,-168.661,1615.800,1012.290,1060.420
929,36979.151000,202.728,-14.643,-25.550,416.758,142.730,-159.504,814.800,1331.290,1072.420
930,36979.191000,209.634,27.771,-51.601,432.680,123.566,-132.271,-17.200,1181.290,1263.420
931,36979.233000,204.701,-5.554,-292.070,445.055,103.307,-113.029,-2060.200,357.290,1370.420
932,36979.269000,249.094,58.067,-66.630,448.578,87.798,-109.549,-2224.200,-357.710,1392.420
933,36979.313000,294.474,-2.525,5.511,447.694,75.701,-107.959,-2719.200,-242.710,724.420
934,36979.353000,342.813,110.580,-19.538,449.449,73.910,-109.997,993.800,97.290,-33.580
935,36979.379000,379.314,-57.057,-9.519,447.681,77.297,-112.872,1443.800,142.290,-175.580
936,36979.409000,367.476,-111.590,-15.530,448.582,74.051,-105.030,865.800,252.290,-77.580
937,36979.448000,331.961,-129.767,-2.505,449.463,77.495,-105.909,1035.800,443.290,-417.580
938,36979.492000,270.798,-49.988,9.519,453.019,78.676,-94.936,1710.800,554.290,-478.580
939,36979.531000,221.472,-2.525,-8.517,450.386,80.494,-91.907,1555.800,462.290,-423.580
940,36979.572000,202.728,-71.195,15.530,451.270,81.391,-90.882,782.800,203.290,-213.580
941,36979.616000,199.769,-82.304,-8.517,450.405,87.579,-86.712,567.800,60.290,-162.580
942,36979.631000,192.863,-49.988,-28.556,454.787,87.357,-94.649,268.800,-236.710,-180.580
943,36979.678000,187.931,62.107,-189.871,445.068,93.956,-106.382,-464.200,-1059.710,-365.580
944,36979.709000,258.960,31.811,-116.728,437.951,115.674,-135.490,-1483.200,-1542.710,-325.580
945,36979.749000,222.459,-9.594,-72.642,424.696,135.933,-154.734,-2170.200,-1490.710,-421.580
946,36979.789000,198.782,20.702,-81.659,414.983,143.456,-164.451,-1266.200,-1069.710,-636.580
947,36979.830000,188.917,58.067,-84.665,402.636,167.441,-174.636,-805.200,-824.710,-773.580
948,36979.851000,184.971,59.077,-81.659,394.701,185.466,-181.027,-908.200,-401.710,-817.580
949,36979.891000,213.580,17.673,-72.642,388.574,208.255,-172.363,-980.200,-68.710,-839.580
950,36979.931000,237.256,-12.623,-64.626,381.567,225.891,-161.883,-433.200,260.290,-809.580
951,36979.982000,242.189,-72.205,-31.562,376.321,245.237,-152.336,152.800,741.290,-907.580
952,36980.11000,285.595,0.505,-75.648,372.809,253.103,-150.106,1720.800,1226.290,-1097.580
953,36980.52000,336.894,-225.704,13.526,373.683,251.311,-152.147,2333.800,964.290,-614.580
954,36980.92000,318.150,-37.870,-82.661,374.589,250.697,-143.227,-1321.200,188.290,77.420
955,36980.113000,354.651,-42.919,11.523,376.402,255.517,-126.184,-1965.200,20.290,-201.580
956,36980.153000,234.297,88.363,-114.724,374.661,260.893,-120.057,427.800,205.290,-127.580
957,36980.193000,248.108,91.393,-58.614,375.581,270.751,-108.811,-777.200,330.290,41.420
958,36980.233000,245.148,11.613,-48.595,376.509,270.363,-91.940,-784.200,393.290,80.420
959,36980.273000,255.013,29.791,-19.538,380.949,271.572,-79.971,-583.200,507.290,76.420
960,36980.313000,243.175,20.702,-1.503,380.103,272.778,-68.019,-479.200,178.290,98.420
961,36980.333000,243.175,-4.544,15.530,381.858,270.986,-70.057,179.800,-44.710,32.420
962,36980.374000,245.148,23.732,-6.513,379.192,266.447,-77.164,173.800,-288.710,-80.580
963,36980.414000,245.148,54.028,-36.571,376.546,274.173,-79.901,109.800,-356.710,-69.580
964,36980.454000,262.906,44.939,-71.640,379.167,271.374,-86.934,199.800,-138.710,13.420
965,36980.489000,269.811,41.909,-55.609,379.160,266.138,-88.097,142.800,142.290,35.420
966,36980.533000,243.175,6.564,-36.571,377.421,273.249,-81.914,-31.200,238.290,-23.580
967,36980.571000,227.391,65.136,15.530,377.403,264.457,-86.171,192.800,-0.710,-25.580
968,36980.597000,224.432,71.195,-15.530,375.631,266.079,-90.096,126.800,-322.710,45.420
969,36980.632000,229.364,29.791,-16.532,379.132,265.856,-98.036,157.800,-646.710,55.420
970,36980.671000,229.364,39.890,-15.530,372.017,262.599,-121.003,76.800,-1017.710,-56.580
971,36980.714000,221.472,52.008,-60.618,357.855,264.517,-144.818,-156.200,-1421.710,-173.580
972,36980.751000,236.270,4.544,-98.693,349.000,271.815,-162.484,55.800,-1315.710,-136.580
973,36980.791000,253.040,34.840,-88.673,340.129,268.613,-183.469,247.800,-1108.710,-128.580
974,36980.811000,218.513,71.195,-126.748,324.221,268.095,-201.410,-22.200,-989.710,-109.580
975,36980.851000,221.472,61.097,-157.808,318.023,264.336,-211.482,29.800,-671.710,-12.580
976,36980.891000,243.175,60.087,-163.820,318.884,264.140,-218.437,216.800,-213.710,114.420
977,36980.932000,253.040,9.594,-177.847,323.302,258.236,-212.656,-39.200,351.290,253.420
978,36980.973000,236.270,4.544,-139.773,330.374,257.627,-203.716,-123.200,675.290,186.420
979,36981.14000,233.310,8.584,-116.728,340.113,262.424,-187.642,-100.200,814.290,48.420
980,36981.53000,225.418,42.919,-96.689,345.432,264.474,-176.635,-192.200,823.290,-18.580
981,36981.74000,230.351,43.929,-84.665,351.653,270.194,-158.556,-147.200,876.290,54.420
982,36981.114000,240.216,21.712,-73.644,362.267,269.756,-143.641,-51.200,891.290,97.420
983,36981.154000,237.256,26.761,-71.640,370.243,261.617,-125.013,-2.200,869.290,66.420
984,36981.194000,233.310,27.771,-48.595,373.799,267.109,-114.893,75.800,829.290,43.420
985,36981.239000,243.175,40.899,-37.573,378.221,262.970,-108.062,190.800,751.290,33.420
986,36981.281000,241.202,27.771,-31.562,380.012,264.988,-98.061,203.800,668.290,36.420
987,36981.312000,241.202,38.880,-24.548,382.685,267.008,-88.057,250.800,556.290,-21.580
988,36981.332000,248.108,27.771,-26.552,385.351,264.660,-79.188,49.800,470.290,-63.580
989,36981.372000,244.162,34.840,-14.528,385.364,269.952,-76.037,137.800,426.290,-79.580
990,36981.412000,249.094,34.840,-4.509,388.026,269.283,-69.100,176.800,405.290,-97.580
991,36981.452000,260.933,29.791,-25.550,387.147,264.999,-67.255,421.800,382.290,-89.580
992,36981.494000,222.459,97.452,5.511,386.283,267.743,-62.204,-113.200,300.290,-39.580
993,36981.534000,251.067,-0.505,26.552,389.823,271.358,-57.111,-298.200,106.290,39.420
994,36981.554000,232.324,56.047,29.558,385.411,273.007,-60.050,323.800,-234.710,130.420
995,36981.594000,235.283,84.323,29.558,388.899,266.623,-71.169,249.800,-408.710,197.420
996,36981.636000,244.162,28.781,-17.534,389.747,260.266,-81.303,214.800,-476.710,238.420
997,36981.674000,250.081,2.525,-37.573,390.585,255.533,-95.355,198.800,-526.710,143.420
998,36981.713000,268.825,47.968,-32.564,387.044,247.605,-99.596,-42.200,-505.710,114.420
999,36981.754000,267.838,2.525,-41.581,388.773,252.449,-112.342,-15.200,-410.710,107.420
1000,36981.796000,259.946,12.623,-39.577,388.738,243.487,-122.563,338.800,-350.710,46.420
1001,36981.814000,258.960,-5.554,-39.577,385.173,237.042,-135.692,488.800,-445.710,21.420
1002,36981.856000,268.825,-0.505,-27.554,383.381,241.911,-147.456,904.800,-488.710,-55.580
1003,36981.892000,286.582,7.574,-41.581,378.915,236.136,-167.517,807.800,-550.710,-84.580
1004,36981.933000,280.663,-3.535,-40.579,374.447,231.202,-188.545,969.800,-550.710,-103.580
1005,36981.973000,258.960,1.515,-59.616,366.460,220.273,-206.799,988.800,-417.710,-62.580
1006,36982.13000,248.108,9.594,-80.658,362.015,207.808,-218.140,704.800,-433.710,20.420
1007,36982.34000,218.513,30.801,-110.716,360.211,203.940,-232.174,135.800,-453.710,59.420
1008,36982.74000,203.715,28.781,-115.726,355.801,204.749,-234.147,-219.200,-403.710,47.420
1009,36982.114000,189.904,46.959,-81.659,354.028,204.635,-238.129,-344.200,-195.710,127.420
1010,36982.154000,206.674,40.899,-56.611,357.549,205.477,-239.083,-321.200,-0.710,159.420
1011,36982.194000,195.823,42.919,-47.593,358.457,210.911,-230.960,-117.200,299.290,165.420
1012,36982.236000,190.890,46.959,-48.595,365.536,211.226,-220.004,-109.200,622.290,170.420
1013,36982.277000,196.809,38.880,-54.607,374.397,208.296,-201.204,-151.200,816.290,157.420
1014,36982.292000,213.580,44.939,-43.585,385.036,212.423,-178.197,-352.200,1131.290,66.420
1015,36982.333000,242.189,38.880,-46.591,393.020,206.944,-157.497,-564.200,1538.290,-30.580
1016,36982.376000,268.825,86.343,-92.681,402.826,214.126,-118.506,-663.200,1721.290,-144.580
1017,36982.416000,279.676,59.077,-164.822,408.221,225.560,-82.370,-1337.200,992.290,-116.580
1018,36982.452000,362.543,2.525,-21.542,410.038,231.276,-64.304,-1399.200,105.290,215.420
1019,36982.492000,294.474,-186.320,-54.607,409.217,231.867,-43.435,-1472.200,406.290,74.420
1020,36982.518000,241.202,-56.047,29.558,405.704,235.421,-40.352,741.800,429.290,-358.580
1021,36982.554000,241.202,73.215,11.523,403.066,241.495,-40.163,230.800,195.290,-468.580
1022,36982.594000,242.189,60.087,7.515,396.914,245.943,-36.067,-200.200,136.290,-285.580
1023,36982.634000,247.121,40.899,18.536,400.437,240.766,-35.230,372.800,307.290,-93.580
1024,36982.674000,249.094,39.890,13.526,399.578,255.634,-30.779,88.800,180.290,-96.580
1025,36982.714000,251.067,18.682,17.534,396.946,258.321,-27.721,11.800,118.290,-119.580
1026,36982.754000,254.027,28.781,20.540,396.076,257.565,-23.776,58.800,82.290,-140.580
1027,36982.774000,245.148,42.919,24.548,396.077,262.744,-24.601,-114.200,54.290,-144.580
1028,36982.814000,246.135,39.890,24.548,390.785,258.372,-25.753,-165.200,-79.710,-122.580
1029,36982.856000,252.054,30.801,10.521,389.912,265.344,-24.537,-28.200,-61.710,-74.580
1030,36982.899000,248.108,39.890,18.536,389.900,265.231,-28.512,68.800,-61.710,-63.580
1031,36982.934000,253.040,34.840,10.521,386.376,264.361,-28.552,-32.200,-97.710,-85.580
1032,36982.974000,249.094,33.830,15.530,387.258,269.541,-29.374,-109.200,-149.710,-100.580
1033,36982.994000,245.148,48.978,15.530,385.497,270.408,-29.352,-73.200,-157.710,-102.580
1034,36983.34000,247.121,48.978,12.524,382.841,272.001,-34.273,-19.200,-152.710,-82.580
1035,36983.74000,252.054,38.880,7.515,381.080,272.868,-34.251,-199.200,-162.710,-116.580
1036,36983.114000,250.081,44.939,4.509,379.312,272.810,-36.244,-109.200,-126.710,-117.580
1037,36983.156000,254.027,41.909,-2.505,379.313,273.678,-36.216,-65.200,-76.710,-118.580
