Sample, Time, ACCX, ACCY, ACCZ, MAGX, MAGY, MAGZ, GYRX, GYRY, GYRZ
0,37069.698000,246.135,49.988,19.538,386.410,280.210,-20.094,-143.200,28.290,-21.580
1,37069.736000,247.121,45.949,22.544,389.937,276.797,-18.207,-155.200,1.290,-20.580
2,37069.778000,248.108,31.811,21.542,386.414,281.974,-19.043,-119.200,-22.710,-11.580
3,37069.817000,245.148,48.978,19.538,384.644,274.133,-20.296,-24.200,-60.710,17.420
4,37069.856000,249.094,37.870,14.528,389.939,275.089,-17.270,-62.200,-77.710,39.420
5,37069.878000,249.094,37.870,13.526,389.939,278.533,-18.151,11.800,-49.710,39.420
6,37069.916000,248.108,46.959,17.534,391.692,275.006,-20.246,-2.200,-49.710,39.420
7,37069.956000,249.094,40.899,15.530,387.288,280.183,-21.085,1.800,-46.710,47.420
8,37069.999000,249.094,42.919,14.528,391.686,277.525,-23.143,23.800,-44.710,46.420
9,37070.39000,252.054,36.860,12.524,389.042,272.344,-22.326,40.800,-34.710,59.420
10,37070.79000,247.121,39.890,14.528,389.912,269.656,-25.390,55.800,-26.710,48.420
11,37070.119000,250.081,38.880,12.524,390.800,268.005,-22.462,-24.200,-5.710,40.420
12,37070.146000,246.135,39.890,14.528,394.318,267.083,-24.466,-23.200,0.290,27.420
13,37070.179000,251.067,40.899,11.523,393.439,273.130,-25.266,-31.200,17.290,35.420
14,37070.219000,250.081,35.850,12.524,391.682,272.317,-23.312,-43.200,20.290,42.420
15,37070.255000,250.081,36.860,13.526,396.088,270.613,-22.360,6.800,30.290,41.420
16,37070.301000,252.054,37.870,11.523,395.211,268.933,-20.431,35.800,52.290,53.420
17,37070.335000,245.148,41.909,21.542,395.202,263.668,-22.588,3.800,14.290,75.420
18,37070.355000,250.081,31.811,16.532,396.966,267.141,-22.470,23.800,-0.710,84.420
19,37070.395000,247.121,36.860,17.534,397.843,254.178,-20.902,13.800,-10.710,81.420
20,37070.435000,252.054,31.811,16.532,400.481,258.436,-23.734,-29.200,-44.710,80.420
21,37070.475000,250.081,35.850,14.528,401.374,262.861,-20.609,6.800,-48.710,88.420
22,37070.519000,250.081,32.821,16.532,401.363,260.173,-23.675,9.800,-54.710,93.420
23,37070.555000,250.081,28.781,18.536,398.717,259.274,-24.705,-33.200,-78.710,92.420
24,37070.595000,249.094,31.811,16.532,400.464,258.267,-29.698,-11.200,-111.710,95.420
25,37070.620000,247.121,28.781,13.526,402.222,253.060,-29.861,24.800,-152.710,106.420
26,37070.660000,249.094,28.781,13.526,407.492,246.875,-34.017,31.800,-229.710,110.420
27,37070.700000,253.040,21.712,9.519,409.239,250.180,-39.862,50.800,-252.710,130.420
28,37070.736000,254.027,27.771,7.515,407.463,246.594,-43.956,56.800,-271.710,159.420
29,37070.779000,249.094,17.673,8.517,411.844,244.636,-51.949,57.800,-312.710,180.420
30,37070.819000,251.067,22.722,6.513,410.069,237.606,-55.162,30.800,-350.710,192.420
31,37070.839000,255.013,20.702,3.507,415.332,233.940,-62.215,-12.200,-375.710,206.420
32,37070.880000,251.067,9.594,-11.523,413.538,228.449,-72.329,58.800,-386.710,199.420
33,37070.923000,254.027,6.564,-10.521,416.160,227.386,-79.306,71.800,-418.710,172.420
34,37070.958000,256.000,5.554,-25.550,414.371,225.395,-88.313,-5.200,-431.710,145.420
35,37070.999000,253.040,1.515,-32.564,412.587,222.593,-95.361,68.800,-402.710,124.420
36,37071.39000,254.027,1.515,-36.571,416.084,216.294,-103.498,119.800,-371.710,94.420
37,37071.79000,254.027,5.554,-34.568,416.929,213.353,-115.506,56.800,-337.710,71.420
38,37071.99000,256.987,1.515,-43.585,412.511,214.077,-120.462,-9.200,-294.710,67.420
39,37071.139000,247.121,1.515,-51.601,410.733,208.755,-124.612,97.800,-234.710,47.420
40,37071.184000,246.135,3.535,-47.593,410.720,209.482,-129.554,150.800,-190.710,20.420
41,37071.217000,246.135,5.554,-48.595,412.464,204.134,-134.687,127.800,-186.710,17.420
42,37071.258000,247.121,6.564,-51.601,411.575,204.917,-137.643,129.800,-181.710,12.420
43,37071.297000,253.040,5.554,-51.601,412.443,206.513,-142.553,130.800,-158.710,9.420
44,37071.318000,265.865,6.564,-41.581,411.569,209.173,-140.484,69.800,73.290,2.420
45,37071.359000,253.040,-6.564,-56.611,410.684,206.540,-141.565,112.800,-15.710,6.420
46,37071.399000,246.135,20.702,-54.607,409.787,203.795,-146.622,61.800,-105.710,36.420
47,37071.439000,250.081,12.623,-57.613,410.664,199.455,-146.760,-160.200,-99.710,-4.580
48,37071.479000,238.243,2.525,-59.616,410.670,202.955,-145.654,-162.200,-97.710,-58.580
49,37071.520000,246.135,9.594,-64.626,405.386,209.867,-146.439,-48.200,-89.710,-114.580
50,37071.559000,240.216,36.860,-74.646,404.497,213.226,-150.305,-117.200,-135.710,-187.580
51,37071.579000,243.175,35.850,-75.648,400.984,220.224,-148.103,-295.200,-249.710,-256.580
52,37071.616000,239.229,33.830,-73.644,391.280,217.500,-152.195,-178.200,-326.710,-261.580
53,37071.656000,235.283,48.978,-68.634,389.500,223.349,-159.955,18.800,-330.710,-334.580
54,37071.698000,236.270,40.899,-59.616,385.068,225.668,-169.823,392.800,-234.710,-514.580
55,37071.739000,230.351,24.742,-48.595,377.124,234.985,-177.490,747.800,-127.710,-571.580
56,37071.779000,226.405,-1.515,2.505,376.224,239.967,-185.276,1012.800,47.290,-505.580
57,37071.820000,236.270,-98.462,-171.836,373.573,232.993,-186.503,781.800,436.290,-130.580
58,37071.843000,269.811,-25.751,-145.785,376.218,234.731,-186.439,72.800,232.290,39.420
59,37071.880000,260.933,65.136,-55.609,376.252,239.381,-175.365,-780.200,281.290,-98.580
60,37071.924000,279.676,10.604,-41.581,374.503,242.096,-171.310,131.800,426.290,-31.580
61,37071.957000,237.256,29.791,-53.605,378.049,237.144,-162.523,171.800,399.290,-12.580
62,37071.997000,256.000,25.751,-37.573,380.709,240.759,-157.432,-97.200,332.290,-67.580
63,37072.41000,248.108,19.692,-40.579,381.605,242.637,-152.403,97.800,293.290,-80.580
64,37072.61000,243.175,41.909,-34.568,383.381,249.667,-149.190,95.800,235.290,-57.580
65,37072.101000,246.135,38.880,-35.569,385.154,249.780,-145.209,-8.200,174.290,-63.580
66,37072.143000,250.081,25.751,-37.573,382.526,250.787,-140.220,23.800,153.290,-95.580
67,37072.178000,243.175,54.028,-45.589,382.530,255.995,-140.051,-39.200,144.290,-92.580
68,37072.218000,251.067,38.880,-41.581,381.667,257.032,-134.062,-246.200,146.290,-62.580
69,37072.258000,249.094,46.959,-40.579,382.552,251.909,-131.246,-150.200,184.290,-52.580
70,37072.298000,255.013,27.771,-39.577,383.452,254.683,-125.195,-202.200,238.290,-52.580
71,37072.318000,246.135,39.890,-34.568,385.235,260.061,-119.057,25.800,314.290,-48.580
72,37072.358000,248.108,47.968,-31.562,385.259,262.022,-111.050,-0.200,431.290,-51.580
73,37072.397000,255.013,29.791,-21.542,386.162,265.692,-103.977,-26.200,530.290,-47.580
74,37072.437000,233.310,41.909,-5.511,385.312,265.133,-93.075,-38.200,376.290,-49.580
75,37072.477000,251.067,40.899,-6.513,387.092,267.039,-87.049,-66.200,298.290,-51.580
76,37072.517000,251.067,40.899,-17.534,387.115,262.953,-78.245,-92.200,283.290,-37.580
77,37072.539000,254.027,31.811,-15.530,388.892,268.275,-74.094,-21.200,346.290,-54.580
78,37072.579000,252.054,58.067,4.509,389.797,274.549,-66.937,44.800,402.290,-56.580
79,37072.619000,245.148,66.146,11.523,389.822,277.378,-58.901,-108.200,412.290,-57.580
80,37072.659000,252.054,42.919,13.526,392.486,275.869,-50.998,49.800,382.290,-5.580
81,37072.700000,235.283,49.988,36.571,392.505,270.019,-43.244,76.800,312.290,18.420
82,37072.740000,235.283,61.097,41.581,388.982,267.440,-42.346,78.800,169.290,31.420
83,37072.780000,242.189,54.028,23.546,388.972,266.488,-45.355,88.800,49.290,54.420
84,37072.801000,240.216,58.067,28.556,391.616,263.914,-44.438,32.800,-27.710,85.420
85,37072.840000,245.148,50.998,20.540,392.488,262.962,-47.445,-63.200,-88.710,84.420
86,37072.881000,250.081,40.899,13.526,392.497,267.358,-45.316,-86.200,-88.710,74.420
87,37072.923000,252.054,43.929,12.524,392.495,264.754,-45.400,-24.200,-34.710,72.420
88,37072.957000,250.081,37.870,15.530,392.496,262.179,-44.491,-10.200,9.290,81.420
89,37073.0,251.067,36.860,14.528,396.022,265.653,-44.367,0.800,32.290,63.420
90,37073.21000,245.148,48.978,22.544,397.789,264.843,-42.402,-128.200,13.290,35.420
91,37073.61000,249.094,36.860,18.536,397.792,261.427,-40.526,-251.200,9.290,19.420
92,37073.98000,251.067,28.781,16.532,397.797,264.059,-39.448,-229.200,-11.710,12.420
93,37073.138000,253.040,28.781,16.532,400.447,261.542,-36.542,-81.200,-21.710,42.420
94,37073.178000,247.121,38.880,20.540,398.683,263.248,-37.486,37.800,-17.710,72.420
95,37073.219000,250.081,33.830,17.534,398.677,262.324,-39.502,78.800,-54.710,90.420
96,37073.259000,245.148,41.909,19.538,397.784,253.587,-41.774,117.800,-82.710,87.420
97,37073.279000,251.067,34.840,15.530,400.418,250.061,-43.866,-2.200,-84.710,72.420
98,37073.320000,254.027,28.781,11.523,398.654,250.899,-44.837,-3.200,-75.710,60.420
99,37073.360000,252.054,32.821,10.521,403.941,256.083,-45.645,19.800,-72.710,47.420
100,37073.401000,251.067,24.742,10.521,404.813,255.131,-48.652,31.800,-83.710,56.420
101,37073.440000,252.054,31.811,12.524,404.802,248.131,-50.865,119.800,-45.710,59.420
102,37073.481000,249.094,33.830,13.526,406.567,252.472,-50.719,71.800,-42.710,51.420
103,37073.501000,252.054,32.821,13.526,403.040,240.374,-49.137,7.800,-43.710,40.420
104,37073.543000,250.081,31.811,12.524,406.552,248.019,-54.835,9.800,-38.710,43.420
105,37073.582000,250.081,30.801,12.524,405.668,243.679,-54.979,0.800,-40.710,41.420
106,37073.623000,250.081,32.821,12.524,407.429,241.944,-55.030,-44.200,-47.710,32.420
107,37073.663000,250.081,38.880,9.519,406.550,248.859,-55.801,-127.200,-52.710,25.420
108,37073.703000,252.054,22.722,8.517,408.315,248.888,-54.801,-140.200,-27.710,19.420
109,37073.743000,249.094,27.771,10.521,406.552,247.151,-54.863,-119.200,-16.710,-0.580
110,37073.762000,255.013,26.761,10.521,404.801,247.263,-50.894,-147.200,-19.710,-9.580
111,37073.799000,253.040,22.722,9.519,407.437,242.028,-52.048,-71.200,-4.710,-0.580
112,37073.839000,251.067,28.781,10.521,408.322,243.793,-50.995,-36.200,1.290,4.420
113,37073.880000,252.054,24.742,10.521,407.445,248.132,-50.857,-21.200,2.290,3.420
114,37073.925000,252.054,25.751,9.519,407.454,249.085,-47.847,-0.200,6.290,-1.580
115,37073.959000,250.081,26.761,9.519,408.321,248.945,-52.814,14.800,9.290,-4.580
116,37073.979000,250.081,29.791,9.519,404.809,249.923,-48.821,16.800,6.290,-3.580
117,37074.19000,249.094,29.791,13.526,406.565,246.424,-49.922,26.800,-3.710,6.420
118,37074.59000,251.067,29.791,11.523,403.911,242.866,-53.025,33.800,-21.710,11.420
119,37074.99000,248.108,29.791,10.521,407.435,242.868,-53.014,17.800,-34.710,16.420
120,37074.139000,253.040,26.761,7.515,407.435,249.756,-54.776,3.800,-40.710,16.420
121,37074.179000,254.027,26.761,9.519,408.323,248.973,-51.820,9.800,-28.710,10.420
122,37074.219000,252.054,26.761,7.515,405.674,248.047,-53.844,6.800,-14.710,1.420
123,37074.239000,252.054,27.771,7.515,408.314,247.152,-54.858,-7.200,4.290,-4.580
124,37074.279000,251.067,26.761,8.517,404.787,243.678,-54.982,-5.200,10.290,-11.580
125,37074.324000,252.054,27.771,9.519,405.672,241.131,-53.076,-4.200,10.290,-11.580
126,37074.359000,251.067,26.761,9.519,410.083,246.370,-51.899,23.800,8.290,-4.580
127,37074.400000,250.081,30.801,11.523,410.073,243.682,-54.965,30.800,1.290,0.420
128,37074.441000,249.094,31.811,10.521,406.556,244.604,-52.960,34.800,-2.710,4.420
129,37074.461000,251.067,24.742,10.521,409.198,248.049,-53.833,1.800,-10.710,2.420
130,37074.501000,253.040,27.771,9.519,404.788,248.858,-55.807,34.800,-7.710,2.420
131,37074.541000,250.081,28.781,10.521,407.431,245.416,-54.917,13.800,-17.710,1.420
132,37074.586000,250.081,29.791,10.521,405.665,243.650,-55.973,42.800,-28.710,12.420
133,37074.621000,251.067,26.761,9.519,408.310,241.944,-55.027,54.800,-41.710,28.420
134,37074.663000,250.081,31.811,8.517,407.429,246.256,-55.883,70.800,-44.710,27.420
135,37074.703000,252.054,24.742,8.517,406.543,247.067,-57.845,19.800,-50.710,19.420
136,37074.722000,253.040,23.732,7.515,406.537,246.142,-59.861,32.800,-42.710,11.420
137,37074.764000,253.040,29.791,5.511,408.292,244.351,-61.900,30.800,-26.710,-0.580
138,37074.806000,254.027,28.781,5.511,410.054,240.909,-61.013,-13.200,-7.710,-6.580
139,37074.842000,252.054,27.771,5.511,407.416,239.227,-59.090,12.800,10.290,-4.580
140,37074.880000,251.067,26.761,9.519,404.764,242.585,-62.961,10.800,9.290,-2.580
141,37074.920000,251.067,31.811,7.515,405.652,244.378,-60.914,2.800,-8.710,2.420
142,37074.940000,253.040,30.801,9.519,409.173,245.220,-61.869,-32.200,-17.710,8.420
143,37074.980000,250.081,31.811,9.519,404.771,240.933,-60.036,-34.200,-34.710,11.420
144,37075.20000,251.067,34.840,8.517,407.408,247.766,-63.778,-128.200,-59.710,3.420
145,37075.61000,249.094,26.761,5.511,408.296,246.115,-60.849,-185.200,-69.710,6.420
146,37075.106000,252.054,23.732,6.513,409.181,244.436,-58.915,-156.200,-64.710,5.420
147,37075.140000,255.013,22.722,3.507,407.415,241.803,-59.999,-127.200,-68.710,1.420
148,37075.180000,249.094,25.751,6.513,408.295,240.936,-60.025,-104.200,-78.710,-8.580
149,37075.200000,252.054,21.712,2.505,408.299,246.144,-59.856,-85.200,-79.710,-19.580
150,37075.240000,254.027,22.722,1.503,403.880,242.556,-63.958,-51.200,-70.710,-36.580
151,37075.282000,253.040,24.742,-4.509,403.003,243.451,-62.939,-27.200,-52.710,-47.580
152,37075.320000,253.040,23.732,-2.505,402.118,242.554,-63.964,5.800,-19.710,-66.580
153,37075.361000,252.054,24.742,-1.503,405.641,241.689,-63.981,24.800,0.290,-83.580
154,37075.407000,253.040,27.771,-1.503,403.889,251.264,-62.682,33.800,25.290,-96.580
155,37075.421000,251.067,34.840,-2.505,402.124,254.678,-64.563,20.800,51.290,-107.580
156,37075.462000,256.987,21.712,-2.505,400.367,257.309,-63.491,-24.200,60.290,-116.580
157,37075.503000,253.040,28.781,2.505,399.499,259.157,-59.461,54.800,109.290,-130.580
158,37075.543000,244.162,39.890,9.519,397.745,258.372,-56.514,-81.200,35.290,-113.580
159,37075.583000,249.094,34.840,7.515,395.981,259.211,-57.485,-2.200,31.290,-116.580
160,37075.623000,249.094,35.850,7.515,393.349,266.209,-55.280,81.800,24.290,-109.580
161,37075.663000,246.135,49.988,9.519,394.211,263.437,-61.326,42.800,2.290,-109.580
162,37075.682000,251.067,44.939,10.521,390.698,262.679,-57.389,-91.200,44.290,-115.580
163,37075.722000,253.040,30.801,1.503,392.478,272.341,-53.098,-84.200,127.290,-141.580
164,37075.767000,251.067,41.909,6.513,388.961,277.575,-51.947,34.800,78.290,-128.580
165,37075.805000,253.040,53.018,-1.503,385.429,278.356,-54.912,97.800,50.290,-102.580
166,37075.841000,253.040,47.968,1.503,387.201,280.177,-51.868,119.800,143.290,-79.580
167,37075.881000,249.094,44.939,4.509,385.441,275.024,-50.055,126.800,201.290,-66.580
168,37075.901000,248.108,47.968,8.517,384.558,272.420,-50.142,165.800,186.290,-51.580
169,37075.941000,238.243,58.067,19.538,382.808,281.155,-47.878,150.800,126.290,9.420
170,37075.993000,248.108,52.008,18.536,386.328,275.949,-48.036,243.800,53.290,48.420
171,37076.25000,241.202,54.028,25.550,385.440,274.156,-50.083,274.800,-1.710,94.420
172,37076.65000,248.108,47.968,16.532,388.948,275.726,-55.979,310.800,-60.710,112.420
173,37076.105000,247.121,39.890,18.536,389.803,271.161,-64.068,292.800,-102.710,106.420
174,37076.147000,244.162,60.087,10.521,389.795,264.189,-65.287,242.800,-127.710,95.420
175,37076.161000,248.108,48.978,3.507,390.654,260.521,-72.354,157.800,-147.710,94.420
176,37076.203000,239.229,65.136,19.538,391.530,265.645,-75.164,-22.200,-186.710,139.420
177,37076.245000,249.094,29.791,25.550,395.925,263.827,-78.188,-160.200,-355.710,169.420
178,37076.283000,241.202,53.018,34.568,391.463,252.061,-95.465,-9.200,-699.710,240.420
179,37076.323000,247.121,38.880,40.579,393.189,249.121,-107.471,-370.200,-1143.710,267.420
180,37076.363000,296.447,-10.604,-15.530,388.744,243.543,-120.575,-588.200,-1210.710,89.420
181,37076.382000,287.568,-37.870,-80.658,384.291,250.817,-139.220,224.800,-895.710,-87.580
182,37076.423000,254.027,2.525,-77.652,377.193,248.597,-156.196,217.800,-662.710,-56.580
183,37076.467000,266.852,-86.343,-53.605,373.644,251.785,-166.034,-18.200,-554.710,-16.580
184,37076.504000,258.960,-55.037,-58.614,375.380,247.221,-174.120,604.800,-243.710,105.420
185,37076.544000,256.987,-49.988,-52.603,378.005,242.742,-179.222,400.800,-131.710,299.420
186,37076.584000,247.121,-40.899,-47.593,377.997,231.458,-179.588,379.800,-52.710,498.420
187,37076.625000,240.216,-19.692,-30.560,385.019,220.010,-185.895,353.800,105.290,556.420
188,37076.648000,232.324,-17.673,-30.560,391.185,203.635,-182.435,209.800,269.290,588.420
189,37076.681000,231.337,-24.742,-28.556,394.721,193.419,-175.804,267.800,514.290,591.420
190,37076.723000,235.283,-20.702,-43.585,409.720,186.767,-166.042,318.800,676.290,586.420
191,37076.764000,244.162,-9.594,-66.630,416.792,176.666,-155.424,98.800,682.290,587.420
192,37076.804000,254.027,-17.673,-68.634,427.382,163.936,-145.873,215.800,566.290,648.420
193,37076.844000,262.906,0.505,-50.599,426.516,157.188,-139.144,-4.200,420.290,647.420
194,37076.869000,248.108,-18.682,-67.632,433.580,145.295,-130.570,-230.200,277.290,581.420
195,37076.902000,234.297,-10.604,-55.609,436.208,133.089,-132.944,-275.200,-19.710,529.420
196,37076.942000,213.580,6.564,-61.620,437.968,126.174,-132.170,-566.200,-241.710,460.420
197,37076.983000,192.863,33.830,-60.618,440.608,127.016,-133.127,-619.200,-330.710,374.420
198,37077.22000,195.823,34.840,-56.611,437.950,120.825,-137.308,-1256.200,-452.710,362.420
199,37077.62000,188.917,15.653,-49.597,435.309,123.427,-137.232,-1581.200,-487.710,304.420
200,37077.104000,203.715,3.535,-73.644,436.186,130.287,-139.986,-968.200,-169.710,-168.580
201,37077.124000,299.407,34.840,-26.552,425.614,140.611,-142.664,585.800,237.290,-814.580
202,37077.165000,511.507,96.442,56.611,424.738,147.555,-142.441,86.800,249.290,-225.580
203,37077.205000,218.513,-177.231,-91.679,415.959,162.501,-135.033,-777.200,-76.710,-604.580
204,37077.257000,248.108,52.008,-79.656,417.749,177.428,-128.585,222.800,464.290,-771.580
205,37077.285000,244.162,45.949,-65.628,411.628,184.761,-114.465,-374.200,558.290,-511.580
206,37077.326000,254.027,-28.781,-24.548,415.186,197.169,-105.114,198.800,646.290,-357.580
207,37077.349000,240.216,-14.643,-7.515,412.569,205.177,-97.912,49.800,499.290,-428.580
208,37077.383000,241.202,2.525,-15.530,409.079,212.400,-87.759,-108.200,644.290,-416.580
209,37077.423000,247.121,15.653,-6.513,405.602,223.208,-73.517,-255.200,419.290,-345.580
210,37077.465000,241.202,2.525,-6.513,402.983,224.299,-65.546,-401.200,231.290,-380.580
211,37077.504000,252.054,6.564,5.511,399.477,237.401,-62.153,-220.200,183.290,-404.580
212,37077.545000,245.148,30.801,9.519,397.735,244.484,-56.964,-287.200,50.290,-209.580
213,37077.585000,242.189,21.712,23.546,393.331,246.217,-56.922,-74.200,-99.710,-128.580
214,37077.605000,246.135,27.771,-1.503,391.559,246.971,-60.875,-229.200,-265.710,-135.580
215,37077.645000,254.027,26.761,-25.550,388.910,243.469,-61.990,-78.200,-246.710,-92.580
216,37077.684000,263.892,24.742,-46.591,389.791,243.470,-61.988,-401.200,-117.710,-116.580
217,37077.722000,255.013,0.505,-13.526,388.922,243.582,-58.015,-455.200,-34.710,-98.580
218,37077.764000,255.013,15.653,-9.519,388.049,247.110,-55.917,-149.200,24.290,-82.580
219,37077.805000,256.987,17.673,-14.528,389.831,259.375,-51.541,-200.200,108.290,-13.580
220,37077.825000,250.081,-47.968,-13.526,387.205,259.543,-45.586,33.800,217.290,-6.580
221,37077.870000,258.960,-5.554,2.505,386.312,257.693,-49.621,798.800,337.290,-181.580
222,37077.903000,227.391,108.560,-6.513,383.678,262.956,-47.473,18.800,48.290,-47.580
223,37077.943000,259.946,-27.771,3.507,382.795,256.039,-46.707,57.800,42.290,-7.580
224,37077.984000,256.987,47.968,-18.536,382.789,262.870,-50.458,24.800,14.290,-113.580
225,37078.29000,260.933,18.682,-18.536,381.912,260.322,-48.557,-74.200,112.290,-28.580
226,37078.64000,266.852,4.544,-19.538,383.690,259.625,-42.616,143.800,274.290,-10.580
227,37078.84000,256.987,35.850,5.511,382.817,263.152,-40.518,40.800,325.290,1.420
228,37078.134000,255.013,46.959,44.587,382.839,265.085,-33.505,-20.200,163.290,68.420
229,37078.166000,231.337,72.205,51.601,382.830,260.689,-35.633,-143.200,-178.710,103.420
230,37078.203000,256.000,104.521,49.597,382.835,260.745,-33.646,-611.200,-476.710,138.420
231,37078.243000,269.811,95.432,44.587,391.626,253.667,-38.812,-857.200,-680.710,197.420
232,37078.289000,273.757,39.890,-0.501,392.508,251.960,-37.872,-685.200,-547.710,125.420
233,37078.330000,266.852,-11.613,-36.571,393.378,259.603,-43.579,85.800,-440.710,-172.580
234,37078.349000,244.162,73.215,-63.624,385.397,265.110,-63.285,1244.800,-237.710,-402.580
235,37078.386000,228.378,119.669,-50.599,380.964,269.137,-74.092,631.800,-250.710,-504.580
236,37078.426000,215.553,101.491,-20.540,372.162,278.679,-73.810,-541.200,-190.710,-603.580
237,37078.464000,210.620,58.067,6.513,363.402,289.511,-58.592,-1132.200,91.290,-664.580
238,37078.529000,206.674,-37.870,-1.503,357.297,299.590,-39.418,-564.200,435.290,-493.580
239,37078.546000,220.486,56.047,-13.526,354.693,306.002,-27.302,-223.200,577.290,-226.580
240,37078.569000,233.310,59.077,-8.517,354.743,313.396,-11.174,-621.200,668.290,-124.580
241,37078.606000,232.324,29.791,-23.546,357.457,314.102,13.682,-1084.200,626.290,-10.580
242,37078.646000,235.283,9.594,-46.591,354.881,312.172,37.443,-925.200,446.290,-1.580
243,37078.691000,232.324,-19.692,-41.581,358.454,310.946,55.288,-860.200,125.290,95.420
244,37078.724000,272.771,137.846,151.796,360.222,303.248,59.016,-483.200,227.290,12.420
245,37078.765000,288.555,-11.613,-26.552,362.923,298.662,80.722,-2354.200,-364.710,103.420
246,37078.813000,231.337,12.623,1.503,363.847,287.017,98.221,-1294.200,-282.710,-3.580
247,37078.826000,297.434,-86.343,-77.652,370.017,281.030,101.025,-860.200,-513.710,90.420
248,37078.864000,241.202,-10.604,15.530,369.103,285.004,88.242,656.800,-272.710,-4.580
249,37078.904000,221.472,89.373,34.568,369.955,289.034,77.453,159.800,-392.710,40.420
250,37078.945000,230.351,76.245,22.544,373.450,284.443,68.378,423.800,-416.710,73.420
251,37078.986000,256.000,54.028,-1.503,375.179,288.418,55.604,255.800,-485.710,67.420
252,37079.30000,248.108,68.166,-13.526,376.029,285.533,45.583,-144.200,-456.710,73.420
253,37079.45000,261.919,23.732,-30.560,380.422,281.112,42.475,32.800,-318.710,153.420
254,37079.85000,260.933,19.692,-23.546,383.043,278.313,35.442,223.800,-153.710,142.420
255,37079.125000,253.040,42.919,-11.523,385.674,277.334,31.446,253.800,-74.710,154.420
256,37079.166000,254.027,33.830,-9.519,387.418,276.298,25.460,422.800,-56.710,154.420
257,37079.209000,250.081,32.821,-7.515,389.173,277.951,22.541,426.800,-73.710,135.420
258,37079.250000,245.148,47.968,-7.515,389.138,273.301,11.467,350.800,-142.710,159.420
259,37079.284000,237.256,41.909,-8.517,394.399,269.608,3.420,389.800,-232.710,197.420
260,37079.308000,239.229,36.860,-18.536,397.892,262.413,-5.739,254.800,-356.710,239.420
261,37079.348000,248.108,23.732,-27.554,401.374,248.218,-17.112,176.800,-376.710,237.420
262,37079.388000,252.054,27.771,-23.546,401.363,255.861,-22.822,142.800,-399.710,238.420
263,37079.425000,245.148,23.732,-29.558,405.736,251.242,-32.888,68.800,-472.710,266.420
264,37079.466000,253.040,7.574,-32.564,408.335,245.642,-46.963,247.800,-530.710,321.420
265,37079.506000,254.027,9.594,-55.609,409.183,234.973,-56.243,320.800,-475.710,363.420
266,37079.526000,275.730,13.633,-59.616,410.029,226.012,-66.461,462.800,-354.710,362.420
267,37079.566000,305.326,-2.525,-75.648,417.047,212.800,-73.818,516.800,-108.710,441.420
268,37079.607000,283.622,-25.751,-74.646,424.083,208.381,-76.918,879.800,213.290,456.420
269,37079.645000,237.256,27.771,-60.618,431.131,190.299,-72.517,469.800,582.290,393.420
270,37079.692000,239.229,84.323,-63.624,434.655,193.745,-73.387,253.800,101.290,276.420
271,37079.725000,218.513,107.550,-181.855,432.855,191.641,-86.370,1172.800,-361.710,-199.580
272,37079.765000,241.202,99.471,-198.888,422.182,192.356,-122.129,1971.800,-1218.710,-737.580
273,37079.785000,263.892,89.373,-179.851,401.786,194.461,-169.789,1989.800,-1602.710,-1013.580
274,37079.830000,262.906,91.393,-161.816,383.175,189.037,-207.759,1974.800,-1890.710,-1122.580
275,37079.868000,248.108,68.166,-127.750,350.439,189.341,-257.503,1430.800,-2010.710,-1088.580
276,37079.909000,218.513,32.821,-106.708,317.727,192.474,-299.212,919.800,-1898.710,-1073.580
277,37079.949000,182.998,29.791,-96.689,279.759,195.885,-330.999,678.800,-1613.710,-1073.580
278,37079.989000,175.106,24.742,-85.667,253.285,204.039,-348.693,273.800,-1107.710,-1118.580
279,37080.9000,161.295,-6.564,-71.640,239.172,206.435,-355.611,477.800,-609.710,-1064.580
280,37080.52000,177.079,1.515,-67.632,222.404,208.717,-366.514,409.800,-173.710,-964.580
281,37080.87000,205.688,-16.663,-46.591,221.534,214.849,-364.332,211.800,363.290,-748.580
282,37080.127000,237.256,-12.623,-38.575,226.824,213.173,-362.383,275.800,703.290,-560.580
283,37080.167000,235.283,-8.584,-53.605,239.182,208.256,-352.573,57.800,957.290,-302.580
284,37080.212000,223.445,-16.663,-23.546,253.325,215.633,-337.394,110.800,1193.290,32.420
285,37080.246000,213.580,139.866,-266.020,268.328,213.321,-327.491,238.800,779.290,-58.580
286,37080.266000,193.850,-15.653,-140.775,271.888,220.578,-316.321,-620.200,727.290,-402.580
287,37080.306000,308.285,-63.116,-103.703,282.476,212.999,-308.589,117.800,1016.290,-81.580
288,37080.346000,332.948,20.702,-70.638,293.124,228.410,-285.216,-1440.200,908.290,-25.580
289,37080.386000,315.191,35.850,-89.675,305.538,246.455,-260.759,-1006.200,925.290,122.420
290,37080.435000,296.447,34.840,-56.611,323.205,246.079,-243.834,-14.200,859.290,229.420
291,37080.469000,249.094,122.698,-62.622,329.420,250.006,-227.798,-671.200,703.290,148.420
292,37080.489000,264.879,-42.919,-79.656,334.759,260.877,-211.541,-515.200,753.290,239.420
293,37080.529000,240.216,46.959,-54.607,344.491,256.126,-195.776,39.800,854.290,34.420
294,37080.569000,223.445,65.136,-39.577,355.990,261.765,-180.661,-294.200,659.290,-5.580
295,37080.608000,232.324,81.294,-42.583,356.924,264.877,-162.683,-439.200,519.290,-2.580
296,37080.648000,231.337,21.712,-21.542,360.470,271.992,-156.483,-418.200,370.290,-24.580
297,37080.689000,242.189,60.087,14.528,359.601,272.973,-152.482,55.800,175.290,-37.580
298,37080.725000,236.270,80.284,-20.540,360.490,272.190,-149.526,117.800,45.290,15.420
299,37080.745000,248.108,70.185,-30.560,361.374,272.218,-148.529,-169.200,34.290,-6.580
300,37080.787000,239.229,63.116,-26.552,359.610,270.481,-148.591,-66.200,39.290,-8.580
301,37080.827000,246.135,42.919,-19.538,357.844,267.848,-149.675,106.800,-22.710,37.420
302,37080.868000,242.189,70.185,-24.548,358.719,272.104,-152.513,180.800,-99.710,7.420
303,37080.906000,237.256,53.018,-29.558,356.070,271.178,-154.538,149.800,-129.710,20.420
304,37080.946000,246.135,69.176,-27.554,359.575,272.719,-161.427,129.800,-173.710,-52.580
305,37080.966000,239.229,60.087,-26.552,355.168,272.688,-162.436,40.800,-181.710,-55.580
306,37081.6000,241.202,59.077,-24.548,352.494,265.488,-171.615,396.800,-146.710,-26.580
307,37081.48000,239.229,32.821,-29.558,349.834,264.449,-177.615,259.800,-317.710,-104.580
308,37081.99000,241.202,65.136,-25.550,345.378,264.807,-195.491,356.800,-482.710,-108.580
309,37081.126000,252.054,61.097,-24.548,343.582,256.712,-205.690,475.800,-589.710,-59.580
310,37081.166000,257.973,47.968,-32.564,331.195,256.168,-224.614,522.800,-973.710,-54.580
311,37081.208000,337.881,30.801,-62.622,317.907,248.538,-248.736,528.800,-1068.710,28.420
312,37081.227000,312.231,-32.821,-43.585,302.841,238.162,-277.917,868.800,-1207.710,-154.580
313,37081.267000,326.042,-38.880,-41.581,293.100,230.761,-294.077,1055.800,-1246.710,-330.580
314,37081.306000,322.096,-7.574,-43.585,269.198,210.633,-330.554,2142.800,-1151.710,-344.580
315,37081.347000,246.135,65.136,-97.691,251.467,173.319,-361.611,1723.800,-979.710,-51.580
316,37081.395000,194.836,95.432,-194.881,229.386,169.296,-380.680,103.800,-1307.710,44.420
317,37081.428000,203.715,66.146,-137.769,217.932,174.440,-382.535,-808.200,-1171.710,59.420
318,37081.468000,176.092,-28.781,-76.650,203.835,191.648,-386.987,-131.200,-437.710,145.420
319,37081.492000,155.376,-5.554,-88.673,209.086,171.491,-394.575,962.800,226.290,453.420
320,37081.527000,154.389,17.673,-76.650,224.926,143.755,-394.432,1043.800,678.290,633.420
321,37081.566000,142.551,30.801,-65.628,251.373,137.923,-386.592,119.800,1251.290,637.420
322,37081.606000,182.012,6.564,-85.667,274.349,147.268,-363.376,-795.200,1551.290,598.420
323,37081.646000,210.620,-14.643,-85.667,310.559,150.772,-332.364,-1123.200,1757.290,691.420
324,37081.686000,219.499,30.801,-82.661,343.283,164.998,-290.092,-1442.200,1952.290,773.420
325,37081.709000,241.202,35.850,-91.679,371.620,175.947,-240.989,-1843.200,2017.290,826.420
326,37081.749000,255.013,33.830,-83.663,391.982,174.372,-205.227,-1747.200,2075.290,933.420
327,37081.788000,345.773,69.176,-92.681,422.098,173.424,-147.568,-1515.200,2242.290,1127.420
328,37081.826000,308.285,104.521,-110.716,444.284,168.158,-89.082,-2846.200,1655.290,1152.420
329,37081.866000,230.351,24.742,-100.697,454.103,166.856,-43.415,-3251.200,1013.290,541.420
330,37081.906000,198.782,-3.535,-240.971,458.557,164.763,-25.595,-748.200,320.290,312.420
331,37081.946000,223.445,187.329,-150.795,455.014,173.186,-34.270,847.800,-223.710,-556.580
332,37081.966000,322.096,34.840,86.669,449.702,182.393,-45.904,690.800,-128.710,-298.580
333,37082.6000,307.299,-2.525,-5.511,447.051,183.174,-48.866,-665.200,-194.710,-425.580
334,37082.50000,273.757,-116.639,-27.554,443.539,196.220,-47.461,-193.200,5.290,-485.580
335,37082.88000,252.054,11.613,-5.511,438.258,209.180,-49.043,376.800,168.290,-679.580
336,37082.129000,227.391,76.245,3.507,430.346,223.986,-46.602,-324.200,-13.710,-601.580
337,37082.169000,254.027,33.830,5.511,428.610,231.994,-39.397,-578.200,4.290,-374.580
338,37082.189000,253.040,12.623,-4.509,422.459,239.046,-35.216,-551.200,94.290,-347.580
339,37082.230000,258.960,-30.801,18.536,418.071,238.344,-29.295,-196.200,221.290,-456.580
340,37082.272000,252.054,20.702,13.526,414.561,257.437,-28.686,127.800,16.290,-487.580
341,37082.310000,250.081,44.939,-23.546,409.267,265.105,-33.419,52.800,-15.710,-401.580
342,37082.350000,251.067,64.126,-16.532,402.239,268.741,-27.366,-147.200,80.290,-324.580
343,37082.394000,253.040,56.047,1.503,400.501,277.588,-21.127,-270.200,355.290,-324.580
344,37082.427000,255.013,-12.623,18.536,395.247,283.074,-11.035,-309.200,156.290,-209.580
345,37082.454000,252.054,26.761,25.550,392.613,286.600,-8.943,135.800,9.290,-258.580
346,37082.491000,234.297,87.353,16.532,390.844,292.562,-12.728,-57.200,-103.710,-277.580
347,37082.529000,245.148,66.146,-1.503,388.202,293.429,-12.708,-227.200,-105.710,-150.580
348,37082.569000,253.040,64.126,-10.521,383.805,296.954,-10.622,-254.200,20.290,-173.580
349,37082.614000,253.040,41.909,0.501,384.726,300.792,2.415,-874.200,68.290,-178.580
350,37082.651000,253.040,6.564,18.536,378.596,304.598,14.434,-477.200,73.290,-131.580
351,37082.669000,252.054,52.008,17.534,376.838,302.049,16.332,-60.200,33.290,-171.580
352,37082.710000,254.027,48.978,7.515,375.076,298.604,17.208,-148.200,-41.710,-136.580
353,37082.750000,249.094,5.554,24.548,373.318,308.122,16.518,296.800,19.290,-152.580
354,37082.790000,243.175,63.116,3.507,373.300,310.529,9.645,245.800,47.290,-172.580
355,37082.831000,254.027,48.978,-0.501,366.249,317.384,6.866,490.800,189.290,-191.580
356,37082.870000,256.000,61.097,6.513,365.369,313.939,7.744,91.800,264.290,-209.580
357,37082.909000,250.081,61.097,-2.505,361.867,324.493,13.040,58.800,311.290,-201.580
358,37082.929000,266.852,50.998,-9.519,353.079,330.732,19.173,49.800,542.290,-303.580
359,37082.969000,282.636,49.988,-12.524,348.699,330.114,28.075,214.800,767.290,-213.580
360,37083.14000,304.339,14.643,41.581,346.961,335.518,35.196,502.800,910.290,-33.580
361,37083.48000,273.757,23.732,67.632,347.863,334.008,43.094,-249.200,615.290,263.420
362,37083.96000,240.216,39.890,80.658,351.464,327.016,71.675,-1437.200,402.290,351.420
363,37083.128000,230.351,27.771,70.638,356.821,301.013,102.624,-1653.200,273.290,478.420
364,37083.151000,207.661,28.781,4.509,357.695,296.645,101.493,31.800,-169.710,353.420
365,37083.189000,206.674,101.491,4.509,362.061,301.434,86.767,712.800,-557.710,172.420
366,37083.237000,227.391,80.284,55.609,368.155,305.018,60.092,879.800,-755.710,192.420
367,37083.271000,237.256,83.314,41.581,370.733,297.484,39.003,137.800,-877.710,297.420
368,37083.309000,232.324,89.373,61.620,377.762,288.697,34.769,-727.200,-846.710,218.420
369,37083.357000,225.418,61.097,43.585,377.752,286.008,31.702,-1052.200,-696.710,195.420
370,37083.390000,238.243,57.057,43.585,376.876,280.884,34.512,-1104.200,-617.710,246.420
371,37083.409000,239.229,58.067,33.566,382.154,274.784,33.338,-764.200,-483.710,182.420
372,37083.450000,233.310,52.008,2.505,382.137,267.727,29.137,-204.200,-390.710,-35.580
373,37083.487000,233.310,53.018,-2.505,383.011,276.267,24.452,257.800,-405.710,-151.580
374,37083.530000,243.175,68.166,24.548,382.088,276.712,9.569,182.800,-345.710,-153.580
375,37083.569000,241.202,66.146,36.571,379.440,281.833,6.747,177.800,-137.710,-106.580
376,37083.611000,256.987,60.087,55.609,379.435,282.645,4.788,108.800,-9.710,-140.580
377,37083.655000,258.960,73.215,63.624,378.559,277.521,7.598,-150.200,89.290,-67.580
378,37083.670000,256.987,65.136,64.626,377.711,280.434,18.612,-545.200,235.290,-100.580
379,37083.716000,246.135,44.939,53.605,378.629,285.113,30.683,-250.200,443.290,-141.580
380,37083.753000,231.337,55.037,32.564,378.669,284.639,44.570,-20.200,697.290,-159.580
381,37083.789000,224.432,56.047,0.501,375.175,291.834,53.729,21.800,830.290,-116.580
382,37083.829000,227.391,64.126,-20.540,369.053,293.988,68.674,-89.200,678.290,-201.580
383,37083.871000,201.742,13.633,-44.587,365.564,299.503,79.765,-197.200,381.290,-222.580
384,37083.891000,207.661,22.722,-58.614,366.467,295.418,88.572,-998.200,-189.710,-32.580
385,37083.930000,435.545,213.586,342.168,368.273,286.378,106.158,-1663.200,-90.710,-89.580
386,37083.976000,163.268,-6.564,48.595,373.597,276.416,121.740,-2656.200,-629.710,52.420
387,37084.9000,375.368,-88.363,13.526,377.134,267.936,128.427,-1146.200,-854.710,210.420
388,37084.49000,263.892,4.544,1.503,382.407,266.091,124.412,-60.200,-545.710,48.420
389,37084.91000,244.162,57.057,9.519,383.257,265.782,113.482,-93.200,-488.710,-53.580
390,37084.113000,249.094,44.939,7.515,387.639,261.248,106.398,-12.200,-494.710,17.420
391,37084.150000,254.027,10.604,6.513,390.258,255.845,99.280,-137.200,-499.710,28.420
392,37084.190000,248.108,53.018,-4.509,396.401,262.512,89.586,29.800,-500.710,29.420
393,37084.230000,257.973,37.870,-16.532,399.901,257.109,82.471,-102.200,-438.710,102.420
394,37084.273000,260.933,30.801,-18.536,401.646,260.385,75.632,-6.200,-355.710,144.420
395,37084.311000,257.973,27.771,-17.534,404.272,253.331,71.440,38.800,-278.710,167.420
396,37084.349000,252.054,22.722,-10.521,406.010,251.371,63.438,26.800,-262.710,157.420
397,37084.372000,243.175,11.613,-23.546,405.988,248.569,56.396,122.800,-273.710,144.420
398,37084.410000,237.256,22.722,-22.544,408.605,240.562,49.193,178.800,-291.710,112.420
399,37084.452000,243.175,24.742,-30.560,414.758,241.294,44.272,232.800,-295.710,132.420
400,37084.492000,254.027,24.742,-33.566,413.858,241.964,37.340,250.800,-257.710,145.420
401,37084.534000,257.973,7.574,-47.593,419.995,239.951,27.364,238.800,-147.710,178.420
402,37084.572000,251.067,-1.515,-28.556,425.259,229.398,22.074,380.800,-136.710,208.420
403,37084.610000,232.324,17.673,-3.507,421.705,227.378,12.067,547.800,-279.710,240.420
404,37084.629000,240.216,25.751,-37.573,425.183,222.618,-2.971,574.800,-541.710,295.420
405,37084.669000,256.000,5.554,-42.583,431.298,217.803,-19.989,543.800,-579.710,351.420
406,37084.711000,265.865,-0.505,-58.614,435.658,207.024,-33.234,400.800,-586.710,367.420
407,37084.751000,312.231,3.535,-92.681,436.504,204.951,-45.214,409.800,-374.710,511.420
408,37084.789000,293.487,-44.939,-108.712,440.886,189.217,-49.682,614.800,-21.710,473.420
409,37084.831000,269.811,18.682,-78.654,445.280,171.021,-49.266,955.800,391.290,456.420
410,37084.851000,256.987,41.909,-76.650,450.596,169.599,-38.372,668.800,766.290,454.420
411,37084.890000,185.958,87.353,-77.652,455.018,158.571,-29.779,963.800,870.290,102.420
412,37084.939000,182.998,102.501,-172.838,452.351,160.920,-38.648,2160.800,127.290,-415.580
413,37084.971000,217.526,106.540,-175.843,444.307,169.251,-81.102,3108.800,-1095.710,-543.580
414,37085.14000,259.946,68.166,-170.834,427.415,170.293,-135.737,2068.800,-1759.710,-727.580
415,37085.53000,298.420,32.821,-163.820,402.593,174.774,-191.279,1984.800,-2097.710,-1152.580
416,37085.90000,261.919,94.422,-130.755,376.958,178.194,-223.025,1518.800,-2141.710,-1111.580
417,37085.110000,263.892,83.314,-95.687,342.469,179.449,-269.766,636.800,-2069.710,-1143.580
418,37085.152000,246.135,-4.544,-88.673,308.897,187.959,-305.345,613.800,-1665.710,-1207.580
419,37085.190000,215.553,2.525,-83.663,277.987,186.308,-332.308,1218.800,-1317.710,-1120.580
420,37085.232000,191.877,42.919,-95.687,264.725,187.555,-349.191,995.800,-1047.710,-1084.580
421,37085.270000,208.647,48.978,-87.671,239.145,193.246,-361.997,-6.200,-726.710,-1132.580
422,37085.312000,229.364,-16.663,-62.622,220.635,201.744,-367.739,77.800,-346.710,-1013.580
423,37085.331000,240.216,-4.544,-43.585,215.341,206.835,-371.563,373.800,61.290,-846.580
424,37085.374000,227.391,-18.682,-23.546,214.456,204.202,-372.644,281.800,490.290,-741.580
425,37085.411000,196.809,-32.821,-15.530,224.155,205.162,-369.603,224.800,842.290,-593.580
426,37085.458000,206.674,-30.801,-3.507,240.051,203.832,-355.693,119.800,1347.290,-288.580
427,37085.494000,200.755,-12.623,-109.714,271.838,210.607,-331.539,-136.200,1880.290,16.420
428,37085.531000,178.066,267.108,-503.483,279.821,215.460,-313.483,-786.200,900.290,-211.580
429,37085.570000,218.513,-42.919,-57.613,287.825,236.889,-291.909,-1213.200,887.290,-140.580
430,37085.594000,317.164,-70.185,-57.613,300.190,230.320,-279.173,-281.200,887.290,49.420
431,37085.631000,309.272,-54.028,-75.648,309.939,236.939,-260.061,-762.200,670.290,61.420
432,37085.674000,298.420,25.751,-93.683,317.025,239.914,-247.032,-238.200,748.290,-36.580
433,37085.711000,272.771,58.067,-66.630,327.613,246.110,-242.826,355.800,820.290,77.420
434,37085.754000,266.852,21.712,-103.703,335.585,248.275,-227.835,-46.200,765.290,117.420
435,37085.791000,239.229,50.998,-58.614,347.943,242.489,-218.053,376.800,822.290,104.420
436,37085.810000,246.135,68.166,-43.585,358.541,236.731,-207.283,488.800,865.290,66.420
437,37085.852000,209.634,106.540,-17.534,359.447,236.985,-198.335,32.800,777.290,0.420
438,37085.890000,207.661,29.791,-40.579,370.080,243.632,-178.225,-1018.200,453.290,13.420
439,37085.932000,267.838,-27.771,-16.532,370.106,244.754,-169.252,66.800,320.290,-69.580
440,37085.970000,232.324,120.679,-0.501,371.878,253.463,-167.971,183.800,242.290,-94.580
441,37086.13000,234.297,105.531,-11.523,371.884,246.632,-164.220,-196.200,205.290,10.420
442,37086.52000,251.067,21.712,-10.521,369.266,253.771,-157.046,-204.200,125.290,-32.580
443,37086.71000,243.175,43.929,-15.530,371.033,257.272,-155.934,-16.200,38.290,-44.580
444,37086.114000,246.135,46.959,-15.530,371.904,251.141,-158.116,331.800,71.290,6.420
445,37086.154000,248.108,55.037,-20.540,373.651,245.821,-162.255,343.800,59.290,-19.580
446,37086.215000,245.148,53.018,-17.534,372.766,252.680,-165.014,272.800,16.290,-38.580
447,37086.231000,248.108,60.087,-18.536,372.756,249.992,-168.081,597.800,2.290,49.420
448,37086.275000,243.175,60.087,-9.519,371.835,241.841,-180.264,794.800,-36.710,71.420
449,37086.294000,250.081,54.028,-16.532,374.452,232.966,-187.494,444.800,-158.710,15.420
450,37086.334000,232.324,87.353,-22.544,370.035,228.538,-190.631,188.800,-268.710,6.420
451,37086.371000,245.148,67.156,-32.564,369.141,233.576,-196.429,-50.200,-310.710,10.420
452,37086.415000,236.270,63.116,-17.534,365.596,228.197,-202.572,77.800,-348.710,16.420
453,37086.452000,237.256,46.959,-29.558,358.528,223.683,-208.700,100.800,-503.710,20.420
454,37086.504000,242.189,36.860,-42.583,352.334,225.132,-218.602,69.800,-591.710,1.420
455,37086.531000,235.283,60.087,-35.569,347.888,226.443,-233.469,168.800,-668.710,-84.580
456,37086.558000,256.987,61.097,-37.573,332.872,229.481,-248.313,-113.200,-880.710,-131.580
457,37086.595000,327.029,89.373,-38.575,323.136,229.024,-264.247,-2.200,-1138.710,15.420
458,37086.635000,321.110,-54.028,-57.613,314.275,217.311,-279.550,380.800,-1174.710,-25.580
459,37086.673000,294.474,-40.899,-71.640,297.475,216.679,-301.471,691.800,-1070.710,-201.580
460,37086.715000,345.773,-66.146,-24.548,281.514,194.962,-333.009,2043.800,-939.710,-293.580
461,37086.755000,262.906,112.600,-86.669,262.011,152.383,-366.229,2353.800,-900.710,-110.580
462,37086.778000,216.540,113.609,-137.769,243.451,143.154,-385.455,277.800,-1308.710,121.420
463,37086.814000,228.378,74.225,-181.855,226.694,144.680,-392.410,-411.200,-1374.710,111.420
464,37086.851000,196.809,25.751,-106.708,205.536,143.656,-397.476,-315.200,-943.710,58.420
465,37086.904000,182.012,-11.613,-88.673,195.797,135.415,-412.669,879.800,-372.710,278.420
466,37086.935000,148.470,14.643,-59.616,205.471,119.741,-415.133,908.800,152.290,419.420
467,37086.974000,141.565,9.594,-76.650,214.277,104.208,-412.630,279.800,839.290,501.420
468,37087.12000,155.376,-0.505,-95.687,238.114,112.488,-396.397,-521.200,1193.290,598.420
469,37087.33000,197.796,-17.673,-86.669,268.137,127.858,-374.949,-1071.200,1421.290,720.420
470,37087.75000,205.688,18.682,-91.679,296.423,134.856,-342.856,-1528.200,1685.290,818.420
471,37087.115000,237.256,22.722,-93.683,320.293,149.493,-316.486,-1923.200,1814.290,868.420
472,37087.154000,258.960,27.771,-101.699,353.910,164.701,-270.208,-2062.200,1882.290,978.420
473,37087.193000,257.973,37.870,-108.712,387.526,172.994,-223.160,-1932.200,1838.290,1087.420
474,37087.234000,255.013,54.028,-110.716,413.212,176.968,-175.285,-1722.200,1723.290,1044.420
475,37087.254000,247.121,65.136,-104.704,430.957,168.757,-128.824,-1729.200,1589.290,941.420
476,37087.295000,258.960,69.176,-118.732,437.209,173.051,-99.868,-1614.200,1243.290,622.420
477,37087.331000,202.728,91.393,-143.781,447.861,163.515,-69.361,-1218.200,760.290,459.420
478,37087.371000,203.715,112.600,-234.959,447.007,173.260,-62.097,-846.200,30.290,-321.580
479,37087.411000,461.195,14.643,189.871,441.701,173.059,-69.071,-569.200,-123.710,-534.580
480,37087.457000,274.744,-47.968,-10.521,437.298,190.303,-72.498,-424.200,-299.710,-582.580
481,37087.495000,275.730,-52.008,-58.614,432.900,206.735,-73.964,-453.200,-55.710,-607.580
482,37087.512000,267.838,-0.505,-27.554,426.753,218.996,-69.614,-20.200,221.290,-593.580
483,37087.553000,248.108,26.761,-18.536,423.254,228.710,-63.352,26.800,285.290,-496.580
484,37087.594000,241.202,39.890,-17.534,421.516,234.114,-56.232,-491.200,193.290,-390.580
485,37087.634000,244.162,15.653,8.517,411.850,241.248,-49.080,-492.200,127.290,-363.580
486,37087.675000,249.094,2.525,12.524,408.357,251.887,-40.802,-377.200,-29.710,-345.580
487,37087.715000,256.000,6.564,-9.519,404.832,257.904,-42.604,-348.200,-114.710,-392.580
488,37087.735000,262.906,5.554,-16.532,401.326,266.694,-38.358,-320.200,-48.710,-403.580
489,37087.775000,253.040,28.781,-7.515,393.401,268.452,-37.334,-130.200,15.290,-404.580
490,37087.815000,253.040,18.682,1.503,390.766,275.423,-36.123,-197.200,-78.710,-361.580
491,37087.855000,244.162,46.959,9.519,384.600,284.042,-37.849,-151.200,-199.710,-337.580
492,37087.894000,262.906,20.702,-26.552,380.182,284.766,-42.805,-73.200,-199.710,-209.580
493,37087.934000,268.825,23.732,-38.575,381.944,289.079,-43.652,197.800,24.290,-159.580
494,37087.974000,263.892,32.821,-29.558,378.428,290.869,-41.619,257.800,168.290,-191.580
495,37087.992000,235.283,36.860,-28.556,374.025,297.781,-42.402,204.800,225.290,-240.580
496,37088.40000,240.216,80.284,-9.519,374.052,304.083,-34.253,-221.200,221.290,-201.580
497,37088.74000,218.513,44.939,-13.526,371.425,310.269,-30.089,-475.200,167.290,-198.580
498,37088.115000,250.081,66.146,-0.501,365.286,313.122,-21.079,-69.200,264.290,-264.580
499,37088.156000,264.879,66.146,-13.526,362.667,314.214,-13.108,-347.200,381.290,-248.580
500,37088.200000,270.798,-43.929,-16.532,353.900,318.942,0.919,36.800,597.290,-369.580
501,37088.216000,284.609,25.751,-20.540,348.619,329.326,0.246,511.800,745.290,-444.580
502,37088.259000,304.339,9.594,17.534,344.228,336.351,3.439,411.800,661.290,-131.580
503,37088.295000,289.541,-1.515,33.566,346.046,327.424,25.001,-705.200,728.290,371.420
504,37088.334000,275.730,-24.742,-8.517,354.066,310.244,61.210,-2520.200,-302.710,642.420
505,37088.375000,235.283,71.195,-44.587,356.753,296.893,79.652,-2959.200,-583.710,332.420
506,37088.416000,251.067,-39.890,-88.673,363.806,282.311,85.159,-510.200,-796.710,389.420
507,37088.456000,226.405,-36.860,-77.652,375.154,274.390,50.184,1560.800,-995.710,775.420
508,37088.477000,201.742,110.580,-63.624,382.938,261.759,2.135,2075.800,-1170.710,807.420
509,37088.516000,254.027,19.692,-43.585,381.941,253.716,-36.855,842.800,-1282.710,463.420
510,37088.556000,262.906,19.692,-50.599,379.226,248.698,-60.859,1422.800,-1181.710,433.420
511,37088.597000,252.054,70.185,-57.613,374.703,225.981,-97.358,1282.800,-1144.710,592.420
512,37088.634000,237.256,79.274,-55.609,368.453,219.980,-125.377,751.800,-1086.710,557.420
513,37088.674000,222.459,47.968,-42.583,364.856,204.602,-147.733,384.800,-937.710,541.420
514,37088.694000,203.715,0.505,-3.507,362.170,192.110,-160.063,651.800,-641.710,543.420
515,37088.734000,205.688,-34.840,-30.560,363.000,180.404,-175.335,1134.800,-231.710,607.420
516,37088.789000,208.647,199.448,19.538,364.753,169.121,-175.695,399.800,461.290,-122.580
517,37088.818000,415.815,31.811,63.624,366.572,180.885,-158.427,-1291.200,879.290,-73.580
518,37088.854000,331.961,128.757,67.632,371.010,180.358,-146.514,165.800,555.290,47.420
519,37088.895000,293.487,60.087,49.597,372.777,175.236,-143.696,-426.200,-113.710,2.420
520,37088.935000,283.622,-8.584,4.509,369.242,182.877,-149.417,-662.200,-616.710,-145.580
521,37088.955000,319.137,1.515,-31.562,358.613,190.061,-171.064,169.800,-1087.710,-555.580
522,37088.995000,279.676,47.968,-27.554,343.569,192.818,-195.847,382.800,-1321.710,-415.580
523,37089.35000,215.553,57.057,36.571,336.501,196.060,-203.709,-342.200,-812.710,-368.580
524,37089.77000,209.634,21.712,32.564,335.653,214.484,-196.162,-1199.200,144.290,-350.580
525,37089.117000,221.472,25.751,19.538,342.778,226.449,-171.920,-987.200,851.290,-264.580
526,37089.160000,232.324,68.166,-12.524,352.560,236.849,-141.761,-1038.200,1367.290,-164.580
527,37089.174000,263.892,73.215,-41.581,362.352,240.446,-106.858,-1604.200,1644.290,-113.580
528,37089.218000,303.353,87.353,-64.626,373.956,249.703,-55.878,-1964.200,1709.290,-130.580
529,37089.257000,321.110,36.860,-103.703,383.810,253.920,0.891,-2153.200,1628.290,34.420
530,37089.298000,241.202,35.850,-62.622,390.160,249.707,66.312,-3075.200,1354.290,259.420
531,37089.335000,230.351,17.673,-83.663,392.024,239.523,104.714,-1888.200,1573.290,-145.580
532,37089.378000,235.283,-8.584,-89.675,377.170,251.923,144.788,-240.200,1491.290,-503.580
533,37089.414000,201.742,25.751,-108.712,361.358,266.138,157.115,1192.800,1158.290,-763.580
534,37089.440000,172.146,15.653,-100.697,344.616,287.628,150.808,1426.800,604.290,-742.580
535,37089.476000,202.728,-8.584,-61.620,343.720,302.130,142.338,799.800,-53.710,-407.580
536,37089.520000,241.202,-18.682,19.538,348.992,298.549,138.267,-707.200,-422.710,86.420
537,37089.555000,411.869,-41.909,-98.693,356.086,285.230,157.717,-2160.200,-770.710,26.420
538,37089.596000,272.771,-78.264,9.519,361.324,281.311,141.719,-152.200,-1130.710,-127.580
539,37089.634000,264.879,121.688,-37.573,368.321,285.989,123.027,558.800,-663.710,2.420
540,37089.654000,227.391,112.600,25.550,370.932,281.369,112.955,214.800,-451.710,155.420
541,37089.696000,229.364,93.412,29.558,371.798,283.805,107.079,-390.200,-310.710,41.420
542,37089.738000,249.094,64.126,11.523,377.106,271.966,117.635,-979.200,-348.710,63.420
543,37089.780000,264.879,-82.304,17.534,383.280,266.876,121.461,-1006.200,-562.710,95.420
544,37089.818000,250.081,24.742,16.532,385.893,271.747,109.712,414.800,-573.710,-18.580
545,37089.858000,267.838,29.791,-25.550,390.272,271.497,100.781,93.800,-484.710,102.420
546,37089.897000,264.879,24.742,-23.546,392.874,269.369,86.818,627.800,-253.710,155.420
547,37089.917000,258.960,34.840,-22.544,394.617,270.909,79.923,502.800,-41.710,128.420
548,37089.955000,245.148,48.978,-9.519,394.591,265.475,71.803,304.800,-18.710,146.420
549,37089.994000,245.148,59.077,1.503,395.462,260.212,69.649,202.800,-28.710,136.420
550,37090.40000,254.027,16.663,-2.505,400.741,262.735,66.768,254.800,-85.710,170.420
551,37090.80000,248.108,39.890,2.505,403.374,260.917,63.739,272.800,-75.710,179.420
552,37090.119000,244.162,30.801,10.521,404.247,260.833,60.760,143.800,-168.710,234.420
553,37090.139000,234.297,26.761,21.542,405.973,254.448,49.635,227.800,-469.710,270.420
554,37090.179000,248.108,3.535,-8.517,411.211,244.510,35.428,114.800,-654.710,252.420
555,37090.218000,248.108,16.663,-27.554,416.438,241.346,15.482,393.800,-676.710,240.420
556,37090.259000,253.040,23.732,-33.566,419.904,235.606,-3.560,217.800,-764.710,271.420
557,37090.299000,257.973,16.663,-46.591,426.039,230.988,-13.620,218.800,-744.710,337.420
558,37090.335000,291.514,15.653,-74.646,433.036,222.731,-29.753,243.800,-528.710,446.420
559,37090.381000,293.487,-13.633,-89.675,438.288,212.065,-39.019,747.800,-12.710,554.420
560,37090.404000,269.811,7.574,-53.605,442.692,195.689,-35.565,1042.800,462.290,589.420
561,37090.435000,239.229,64.126,-76.650,446.203,178.332,-36.117,839.800,434.290,352.420
562,37090.476000,218.513,157.034,-100.697,443.538,183.284,-44.902,1633.800,-173.710,-256.580
563,37090.515000,225.418,132.797,-248.986,433.735,186.462,-85.542,3214.800,-1000.710,-756.580
564,37090.556000,250.081,118.659,-175.843,409.768,194.134,-150.908,2881.800,-1549.710,-1115.580
565,37090.597000,273.757,121.688,-146.787,395.550,195.488,-194.601,2360.800,-2100.710,-1235.580
566,37090.617000,243.175,61.097,-107.710,359.277,193.941,-248.389,1672.800,-2139.710,-1185.580
567,37090.656000,221.472,69.176,-100.697,323.029,194.355,-294.169,933.800,-1883.710,-1093.580
568,37090.696000,189.904,55.037,-91.679,290.357,198.750,-321.935,284.800,-1550.710,-1129.580
569,37090.736000,182.012,12.623,-70.638,261.254,204.439,-334.753,240.800,-1118.710,-1138.580
570,37090.776000,169.187,13.633,-69.636,246.240,210.949,-349.484,545.800,-448.710,-1103.580
571,37090.816000,192.863,14.643,-59.616,237.410,214.190,-357.351,264.800,-62.710,-1058.580
572,37090.856000,214.566,-38.880,-11.523,234.787,217.829,-351.284,307.800,476.290,-873.580
573,37090.876000,251.067,-54.028,-10.521,248.889,208.432,-346.578,721.800,1243.290,-495.580
574,37090.916000,294.474,-21.712,-7.515,260.355,199.089,-339.894,528.800,1538.290,-248.580
575,37090.957000,261.919,14.643,-125.746,280.683,201.488,-316.912,-340.200,1373.290,29.420
576,37090.997000,232.324,109.570,-121.738,291.308,212.362,-300.637,-870.200,421.290,6.420
577,37091.36000,203.715,54.028,-136.767,295.767,231.856,-286.089,-734.200,510.290,-71.580
578,37091.76000,275.730,-22.722,-102.701,301.976,243.482,-273.776,-1243.200,441.290,139.420
579,37091.96000,304.339,-25.751,-132.759,314.402,259.064,-244.433,-1853.200,1002.290,350.420
580,37091.136000,393.125,-188.339,-23.546,323.308,271.228,-213.228,-1223.200,688.290,102.420
581,37091.176000,221.472,117.649,-104.704,328.602,267.004,-209.376,482.800,628.290,-166.580
582,37091.221000,244.162,76.245,-76.650,333.912,261.214,-199.617,192.800,728.290,197.420
583,37091.257000,252.054,70.185,-58.614,345.389,252.852,-188.928,165.800,737.290,207.420
584,37091.298000,212.593,61.097,-35.569,352.489,261.988,-172.721,-433.200,618.290,34.420
585,37091.343000,226.405,71.195,-23.546,356.052,269.273,-160.558,-554.200,443.290,11.420
586,37091.357000,246.135,18.682,-18.536,358.722,268.688,-150.638,24.800,292.290,77.420
587,37091.399000,233.310,58.067,-11.523,356.079,263.506,-149.822,249.800,142.290,17.420
588,37091.440000,232.324,91.393,-20.540,357.831,265.999,-153.707,48.800,-34.710,49.420
589,37091.476000,238.243,82.304,-37.573,360.469,255.613,-153.043,-184.200,-53.710,65.420
590,37091.520000,225.418,92.402,-38.575,357.843,263.536,-148.822,-689.200,-49.710,-24.580
591,37091.556000,249.094,16.663,-32.564,361.388,275.803,-144.441,-654.200,-114.710,-2.580
592,37091.582000,256.000,15.653,-39.577,361.400,276.784,-140.437,-253.200,-171.710,-11.580
593,37091.627000,245.148,34.840,-32.564,356.982,274.932,-144.483,316.800,-179.710,-14.580
594,37091.656000,248.108,40.899,-36.571,356.068,272.017,-155.503,309.800,-239.710,-6.580
595,37091.698000,242.189,67.156,-39.577,352.514,265.685,-164.657,509.800,-207.710,-31.580
596,37091.739000,238.243,53.018,-28.556,354.252,260.281,-171.778,347.800,-369.710,-38.580
597,37091.777000,232.324,73.215,-32.564,347.158,258.958,-187.731,311.800,-562.710,-46.580
598,37091.822000,274.744,36.860,-36.571,341.825,255.031,-203.764,343.800,-731.710,74.420
599,37091.840000,282.636,27.771,-39.577,336.493,245.953,-217.977,644.800,-899.710,48.420
600,37091.876000,301.380,-0.505,-53.605,326.750,244.571,-235.927,525.800,-1056.710,-7.580
601,37091.916000,293.487,-15.653,-72.642,315.222,236.914,-261.037,358.800,-1127.710,-124.580
602,37091.956000,326.042,-29.791,-58.614,291.364,235.325,-285.990,887.800,-1039.710,-308.580
603,37091.996000,290.528,0.505,-43.585,276.279,210.108,-318.633,1660.800,-974.710,-153.580
604,37092.45000,243.175,39.890,-99.695,272.697,200.051,-336.844,1534.800,-968.710,-9.580
605,37092.84000,206.674,20.702,-161.816,258.537,188.193,-357.134,672.800,-871.710,-3.580
606,37092.103000,194.836,25.751,-161.816,247.047,184.375,-369.211,353.800,-749.710,151.420
607,37092.136000,156.362,44.939,-69.636,243.519,189.496,-372.035,-667.200,-354.710,208.420
608,37092.182000,161.295,-6.564,-92.681,239.129,190.501,-367.051,-518.200,56.290,298.420
609,37092.216000,157.349,19.692,-85.667,249.722,188.998,-359.122,-190.200,461.290,446.420
610,37092.256000,175.106,-7.574,-56.611,270.895,183.276,-347.324,16.800,1101.290,649.420
611,37092.300000,192.863,3.535,-71.640,301.780,177.786,-327.544,58.800,1511.290,735.420
612,37092.317000,222.459,9.594,-80.658,324.745,179.262,-306.569,-292.200,1769.290,759.420
613,37092.357000,243.175,8.584,-86.669,360.973,180.359,-268.684,-929.200,1977.290,828.420
614,37092.397000,264.879,39.890,-87.671,388.409,179.910,-223.926,-1119.200,2047.290,862.420
615,37092.444000,284.609,55.037,-82.661,419.398,180.614,-169.189,-1185.200,2064.290,829.420
616,37092.478000,267.838,83.314,-90.677,438.025,177.583,-123.550,-1243.200,1859.290,712.420
617,37092.517000,264.879,79.274,-160.814,447.799,168.076,-92.052,-1409.200,1387.290,640.420
618,37092.559000,210.620,67.156,-191.875,453.179,169.009,-59.236,-1194.200,819.290,109.420
619,37092.579000,431.599,80.284,133.761,450.524,180.094,-65.835,-442.200,-735.710,-446.580
620,37092.616000,295.461,-80.284,19.538,446.992,191.206,-71.444,-0.200,-123.710,-443.580
621,37092.660000,247.121,-47.968,-56.611,439.947,198.117,-72.235,393.800,-147.710,-486.580
622,37092.699000,267.838,5.554,-33.566,432.892,208.387,-76.890,32.800,-17.710,-569.580
623,37092.739000,256.000,20.702,-25.550,428.503,218.016,-73.612,295.800,168.290,-526.580
624,37092.779000,244.162,41.909,6.513,422.343,223.248,-72.469,284.800,212.290,-476.580
625,37092.799000,242.189,19.692,7.515,423.238,238.033,-70.994,-282.200,23.290,-460.580
626,37092.837000,252.054,22.722,2.505,417.964,246.765,-68.741,-366.200,-104.710,-390.580
627,37092.879000,247.121,29.791,-18.536,410.921,256.280,-69.448,-322.200,-167.710,-350.580
628,37092.924000,257.973,14.643,-12.524,407.410,262.438,-66.281,-388.200,-145.710,-389.580
629,37092.957000,252.054,13.633,-24.548,401.250,264.226,-64.256,-292.200,-94.710,-423.580
630,37092.999000,257.973,24.742,-25.550,392.451,273.795,-62.981,-141.200,20.290,-444.580
631,37093.39000,256.000,37.870,-14.528,388.057,284.236,-61.663,-86.200,79.290,-367.580
632,37093.57000,235.283,53.018,7.515,383.673,289.610,-55.545,-142.200,102.290,-275.580
633,37093.101000,253.040,45.949,-10.521,383.675,292.214,-55.461,-209.200,-43.710,-224.580
634,37093.144000,242.189,54.028,-20.540,378.404,300.975,-52.214,-130.200,22.290,-225.580
635,37093.180000,253.040,58.067,-29.558,375.769,307.945,-51.003,-60.200,42.290,-256.580
636,37093.224000,246.135,88.363,-18.536,371.390,311.639,-42.954,-555.200,73.290,-224.580
637,37093.261000,251.067,42.919,5.511,366.990,314.268,-41.889,-135.200,78.290,-254.580
638,37093.279000,256.987,72.205,-4.509,364.363,320.455,-37.725,-113.200,35.290,-269.580
639,37093.320000,247.121,65.136,-13.526,361.723,324.793,-37.593,-322.200,46.290,-280.580
640,37093.364000,276.717,48.978,-19.538,356.474,332.911,-26.423,-324.200,73.290,-308.580
641,37093.397000,271.784,48.978,-9.519,351.227,339.321,-14.316,-395.200,165.290,-326.580
642,37093.440000,279.676,41.909,9.519,345.073,341.165,-10.304,-574.200,166.290,-133.580
643,37093.480000,325.056,-64.126,33.566,348.650,336.523,9.416,-485.200,693.290,235.420
644,37093.519000,322.096,-85.333,62.622,349.618,327.905,41.909,-1177.200,970.290,420.420
645,37093.540000,212.593,5.554,-76.650,357.649,313.414,81.184,-1082.200,1221.290,708.420
646,37093.581000,179.052,52.008,-186.865,373.566,292.486,107.366,-1794.200,-5.710,889.420
647,37093.619000,232.324,-14.643,-182.857,387.664,268.389,113.581,-2315.200,-1446.710,817.420
648,37093.657000,257.973,-23.732,-82.661,397.277,248.681,91.126,-619.200,-1641.710,657.420
649,37093.697000,278.690,40.899,-75.648,405.083,242.296,49.238,991.800,-1632.710,502.420
650,37093.739000,255.013,83.314,-47.593,405.814,239.095,-2.499,1316.800,-1635.710,377.420
651,37093.760000,257.973,67.156,-40.579,405.729,233.939,-31.463,1283.800,-1536.710,316.420
652,37093.804000,254.027,76.245,-29.558,398.532,218.665,-80.638,1325.800,-1369.710,289.420
653,37093.839000,241.202,69.176,-39.577,391.382,210.758,-114.679,1322.800,-1075.710,214.420
654,37093.879000,240.216,69.176,-43.585,382.494,199.632,-139.894,1105.800,-912.710,169.420
655,37093.919000,235.283,38.880,-32.564,367.476,197.491,-153.913,793.800,-714.710,126.420
656,37093.964000,212.593,12.623,-62.622,367.421,187.464,-171.120,729.800,-386.710,177.420
657,37093.999000,191.877,2.525,-55.609,361.215,180.177,-183.292,769.800,-328.710,229.420
658,37094.25000,221.472,124.718,71.640,361.213,176.705,-183.405,320.800,127.290,-109.580
659,37094.59000,436.532,212.576,-40.579,362.142,181.496,-167.358,-386.200,654.290,-510.580
660,37094.103000,286.582,-48.978,-69.636,364.804,187.715,-162.183,331.800,352.290,-40.580
661,37094.142000,306.312,-127.748,-38.575,365.695,186.093,-158.261,-450.200,155.290,182.420
662,37094.179000,310.258,-125.728,-22.544,368.340,185.255,-157.287,145.800,45.290,7.420
663,37094.219000,285.595,0.505,1.503,364.812,186.932,-159.229,-250.200,-209.710,51.420
664,37094.240000,234.297,45.949,-0.501,369.208,186.850,-162.197,-441.200,-564.710,173.420
665,37094.282000,305.326,-4.544,2.505,360.355,177.798,-175.428,-384.200,-1168.710,95.420
666,37094.323000,314.204,82.304,-48.595,353.242,181.457,-199.164,46.800,-1235.710,-38.580
667,37094.363000,272.771,115.629,-125.746,342.615,181.754,-219.048,78.800,-1214.710,-35.580
668,37094.402000,240.216,107.550,-91.679,336.420,182.335,-228.979,-504.200,-761.710,-97.580
669,37094.445000,168.200,27.771,50.599,335.563,195.496,-223.590,-762.200,188.290,-177.580
670,37094.479000,177.079,54.028,13.526,352.375,203.996,-199.428,-1025.200,1350.290,-276.580
671,37094.515000,226.405,92.402,-34.568,367.500,225.295,-152.018,-1675.200,1878.290,-381.580
672,37094.542000,269.811,41.909,-58.614,381.790,240.156,-86.946,-2272.200,2270.290,-331.580
673,37094.581000,303.353,64.126,-90.677,391.616,252.714,-41.822,-1014.200,2545.290,-175.580
674,37094.620000,324.069,-5.554,-172.838,394.416,258.577,11.999,-368.200,2226.290,-246.580
675,37094.660000,236.270,36.860,-134.763,387.505,271.992,57.097,-814.200,1792.290,-507.580
676,37094.702000,248.108,-3.535,-104.704,378.798,287.643,89.352,243.800,1511.290,-708.580
677,37094.744000,224.432,7.574,-94.685,369.136,295.673,97.526,527.800,1121.290,-607.580
678,37094.765000,194.836,-16.663,-106.708,357.735,308.239,112.792,-65.200,564.290,-584.580
679,37094.800000,200.755,-81.294,-95.687,352.457,307.452,115.728,-554.200,-300.710,-242.580
680,37094.840000,447.383,181.270,474.427,363.938,292.231,129.173,-1084.200,-227.710,384.420
681,37094.881000,271.784,-105.531,-43.585,368.364,278.656,139.670,-3032.200,-1080.710,-15.580
682,37094.920000,256.000,3.535,-45.589,379.812,273.456,139.538,-1133.200,-884.710,-10.580
683,37094.961000,289.541,-31.811,-25.550,384.183,266.234,129.387,-82.200,-691.710,162.420
684,37094.979000,239.229,47.968,-26.552,391.198,264.193,118.421,-192.200,-486.710,48.420
685,37095.25000,258.960,7.574,-0.501,393.830,260.638,115.335,-305.200,-486.710,9.420
686,37095.67000,244.162,73.215,7.515,395.563,255.178,106.226,-65.200,-427.710,34.420
687,37095.101000,251.067,46.959,-7.515,400.823,248.041,99.061,-442.200,-483.710,122.420
688,37095.141000,255.013,35.850,-8.517,404.350,248.071,100.066,-448.200,-454.710,151.420
689,37095.186000,258.960,18.682,-19.538,407.856,242.725,94.939,-172.200,-376.710,182.420
690,37095.220000,253.040,34.840,-5.511,409.607,247.794,90.144,-169.200,-298.710,165.420
691,37095.244000,249.094,16.663,-13.526,413.109,237.239,84.848,-22.200,-257.710,173.420
692,37095.280000,245.148,27.771,-16.532,414.857,237.100,79.884,4.800,-297.710,167.420
693,37095.324000,255.013,27.771,-25.550,418.362,234.329,73.847,75.800,-293.710,178.420
694,37095.360000,253.040,11.613,-32.564,421.868,226.407,69.629,84.800,-260.710,210.420
695,37095.401000,249.094,11.613,-29.558,424.488,221.872,62.540,278.800,-203.710,192.420
696,37095.441000,252.054,21.712,-20.540,427.113,224.281,55.675,258.800,-239.710,195.420
697,37095.460000,253.040,-36.860,-34.568,431.485,217.926,45.553,378.800,-272.710,285.420
698,37095.500000,264.879,-13.633,-31.562,435.858,216.752,34.606,912.800,-270.710,218.420
699,37095.540000,257.973,44.939,-44.587,434.937,216.357,20.688,844.800,-313.710,194.420
700,37095.581000,285.595,39.890,-61.620,442.818,202.108,7.343,815.800,-125.710,388.420
701,37095.622000,247.121,28.781,-65.628,448.084,189.848,2.990,1006.800,377.290,401.420
702,37095.664000,272.771,81.294,-63.624,446.286,183.460,-8.146,797.800,-386.710,270.420
703,37095.706000,259.946,139.866,-231.953,442.702,197.510,-32.527,1820.800,-993.710,-516.580
704,37095.726000,241.202,171.172,-228.947,429.325,207.094,-91.838,2781.800,-1570.710,-935.580
705,37095.760000,262.906,122.698,-178.849,402.722,214.820,-155.224,2290.800,-1979.710,-1275.580
706,37095.800000,246.135,82.304,-127.750,370.835,214.814,-215.899,2369.800,-2056.710,-1300.580
707,37095.844000,234.297,74.225,-107.710,345.171,209.329,-255.879,1905.800,-1897.710,-1217.580
708,37095.884000,226.405,52.008,-72.642,311.578,212.462,-297.590,1013.800,-1683.710,-1224.580
709,37095.924000,212.593,26.761,-64.626,277.142,212.516,-325.503,724.800,-1371.710,-1236.580
710,37095.944000,178.066,9.594,-104.704,252.419,212.803,-345.432,876.800,-898.710,-1215.580
711,37095.984000,182.998,53.018,-93.683,235.649,215.056,-357.329,866.800,-518.710,-1163.580
712,37096.24000,183.985,44.939,-73.644,222.409,219.105,-367.170,281.800,-176.710,-1085.580
713,37096.62000,200.755,34.840,-89.675,211.840,229.457,-368.854,-47.200,228.290,-858.580
714,37096.102000,204.701,-4.544,-67.632,210.974,230.465,-363.859,129.800,501.290,-710.580
715,37096.142000,203.715,-23.732,-47.593,223.308,220.143,-361.175,621.800,834.290,-549.580
716,37096.182000,202.728,13.633,-21.542,233.878,210.659,-359.463,587.800,1379.290,-374.580
717,37096.202000,230.351,2.525,13.526,258.611,215.636,-337.377,-146.200,1895.290,-186.580
718,37096.246000,212.593,33.830,-384.250,287.764,226.806,-311.103,-636.200,1678.290,142.420
719,37096.280000,299.407,-78.264,-18.536,291.343,240.279,-294.766,-1008.200,505.290,-296.580
720,37096.320000,267.838,-25.751,-103.703,298.405,237.849,-288.865,421.800,876.290,-51.580
721,37096.360000,285.595,2.525,-53.605,309.908,237.497,-270.965,-313.200,787.290,4.420
722,37096.402000,276.717,52.008,-80.658,318.757,241.341,-257.903,-211.200,693.290,45.420
723,37096.457000,238.243,83.314,-70.638,326.718,242.525,-246.917,90.800,779.290,55.420
724,37096.467000,215.553,133.807,-80.658,337.323,249.758,-236.718,-669.200,874.290,78.420
725,37096.501000,225.418,65.136,-68.634,346.224,262.734,-207.472,-1487.200,722.290,159.420
726,37096.542000,333.935,-103.511,11.523,351.546,262.236,-194.562,187.800,538.290,-23.580
727,37096.582000,212.593,119.669,-11.523,350.678,264.952,-190.505,-58.200,95.290,-26.580
728,37096.624000,229.364,115.629,-25.550,354.179,252.661,-195.857,311.800,-85.710,191.420
729,37096.664000,245.148,61.097,-67.632,350.650,256.914,-198.710,-113.200,-250.710,209.420
730,37096.682000,246.135,13.633,-100.697,352.417,252.660,-195.863,-842.200,-241.710,97.420
731,37096.724000,264.879,-24.742,-76.650,351.550,252.800,-190.896,-107.200,81.290,43.420
732,37096.762000,252.054,40.899,-59.616,355.086,258.095,-187.734,117.800,230.290,-29.580
733,37096.804000,236.270,53.018,-41.581,356.852,262.437,-187.588,312.800,226.290,-1.580
734,37096.844000,233.310,81.294,-24.548,359.490,256.363,-187.776,331.800,140.290,11.420
735,37096.884000,221.472,64.126,-29.558,356.848,258.097,-187.728,47.800,-32.710,41.420
736,37096.930000,231.337,66.146,-27.554,355.947,253.587,-193.836,-139.200,-258.710,39.420
737,37096.942000,255.013,34.840,-56.611,356.819,249.191,-195.961,190.800,-204.710,26.420
738,37096.985000,235.283,42.919,-54.607,355.044,250.785,-200.880,145.800,-197.710,-4.580
739,37097.25000,247.121,48.978,-41.581,354.132,250.475,-211.816,308.800,-283.710,-21.580
740,37097.65000,241.202,61.097,-37.573,343.528,240.666,-221.105,267.800,-460.710,-32.580
741,37097.105000,251.067,54.028,-30.560,340.853,238.618,-232.103,248.800,-702.710,-24.580
742,37097.141000,296.447,31.811,-51.601,331.996,235.557,-248.119,-79.200,-1025.710,13.420
743,37097.161000,317.164,-13.633,-58.614,316.969,232.463,-265.148,82.800,-1126.710,-65.580
744,37097.201000,318.150,-29.791,-60.618,301.929,234.408,-287.972,537.800,-1176.710,-307.580
745,37097.242000,393.125,-90.383,-10.521,279.825,224.112,-314.195,1127.800,-1184.710,-444.580
746,37097.282000,391.152,-118.659,-7.515,269.158,206.795,-343.588,2696.800,-1019.710,-273.580
747,37097.322000,206.674,101.491,-172.838,253.187,174.634,-376.458,1219.800,-1088.710,9.420
748,37097.362000,192.863,57.057,-181.855,232.894,174.310,-387.457,-194.200,-1119.710,89.420
749,37097.402000,141.565,29.791,-118.732,217.045,189.026,-388.023,-709.200,-706.710,12.420
750,37097.422000,144.524,-22.722,-67.632,217.044,188.158,-388.051,353.800,103.290,231.420
751,37097.462000,130.713,-14.643,-72.642,231.140,177.837,-385.362,456.800,639.290,493.420
752,37097.502000,136.632,16.663,-73.644,257.582,160.749,-376.895,498.800,1183.290,729.420
753,37097.544000,161.295,15.653,-87.671,292.010,158.035,-351.055,-306.200,1711.290,845.420
754,37097.584000,204.701,-7.574,-120.736,313.226,164.802,-326.935,-945.200,1846.290,899.420
755,37097.627000,264.879,-16.663,-160.814,347.692,166.766,-289.027,-1008.200,1813.290,1030.420
756,37097.641000,256.987,33.830,-143.781,378.618,162.538,-255.304,-854.200,1540.290,1074.420
757,37097.681000,244.162,38.880,-124.744,400.741,155.784,-218.711,-1049.200,1333.290,1042.420
758,37097.721000,233.310,50.998,-103.703,421.091,148.049,-186.129,-1358.200,1221.290,1019.420
759,37097.762000,240.216,40.899,-77.652,438.778,152.181,-163.099,-1473.200,1240.290,919.420
760,37097.802000,253.040,78.264,-69.636,450.335,145.476,-124.553,-1527.200,1209.290,722.420
761,37097.847000,219.499,93.412,-100.697,461.889,152.518,-90.526,-1784.200,1073.290,290.420
762,37097.887000,218.513,77.254,-102.701,462.851,162.799,-64.371,-1267.200,624.290,-307.580
763,37097.907000,222.459,71.195,-331.147,461.085,165.346,-66.280,-78.200,-306.710,-586.580
764,37097.946000,311.245,-101.491,87.671,452.282,178.331,-66.880,-1138.200,-217.710,-316.580
765,37097.986000,254.027,-204.497,-69.636,449.653,188.801,-64.563,-1461.200,-154.710,-599.580
766,37098.26000,273.757,-25.751,-57.613,441.746,206.240,-61.043,-144.200,170.290,-746.580
767,37098.65000,256.987,25.751,-39.577,441.773,221.165,-54.601,27.800,321.290,-636.580
768,37098.106000,253.040,27.771,-18.536,432.114,232.667,-46.315,84.800,577.290,-475.580
769,37098.126000,241.202,-14.643,-22.544,431.264,243.308,-38.028,167.800,540.290,-406.580
770,37098.166000,256.000,-2.525,-1.503,421.591,247.782,-32.949,216.800,276.290,-494.580
771,37098.202000,251.067,24.742,-19.538,415.436,256.514,-30.699,232.800,236.290,-514.580
772,37098.246000,246.135,46.959,-4.509,411.039,262.615,-29.523,241.800,229.290,-399.580
773,37098.286000,241.202,35.850,4.509,411.922,269.531,-30.288,282.800,122.290,-318.580
774,37098.322000,247.121,64.126,21.542,405.767,281.707,-28.920,5.800,22.290,-302.580
775,37098.362000,243.175,44.939,-12.524,402.245,287.752,-29.728,-54.200,3.290,-280.580
776,37098.385000,251.067,36.860,-13.526,392.559,286.065,-27.828,-90.200,65.290,-270.580
777,37098.426000,233.310,46.959,-4.509,390.807,292.196,-25.649,-428.200,40.290,-293.580
778,37098.462000,256.987,25.751,-5.511,386.429,297.626,-17.542,-270.200,55.290,-222.580
779,37098.506000,252.054,35.850,-1.503,383.806,305.577,-12.328,-276.200,115.290,-295.580
780,37098.545000,256.987,62.107,-27.554,383.821,310.898,-8.183,-233.200,241.290,-345.580
781,37098.587000,235.283,75.235,6.513,379.460,316.497,5.886,-753.200,359.290,-255.580
782,37098.604000,258.960,31.811,7.515,372.477,323.159,26.933,-490.200,423.290,-327.580
783,37098.647000,251.067,77.254,14.528,363.715,327.076,42.920,-645.200,422.290,-318.580
784,37098.686000,239.229,31.811,4.509,361.120,322.373,60.633,-928.200,449.290,-225.580
785,37098.730000,258.960,22.722,37.573,354.993,326.207,73.646,177.800,701.290,-136.580
786,37098.764000,276.717,41.909,31.562,352.388,324.863,87.496,33.800,864.290,-79.580
787,37098.806000,284.609,7.574,75.648,348.900,326.934,99.468,32.800,741.290,346.420
788,37098.849000,274.744,65.136,110.716,353.365,305.998,125.614,-1683.200,263.290,408.420
789,37098.862000,253.040,45.949,47.593,355.168,303.818,140.444,-1430.200,15.290,358.420
790,37098.902000,213.580,21.712,-49.597,364.862,290.078,144.994,-432.200,-743.710,405.420
791,37098.946000,223.445,16.663,-3.507,370.953,285.878,119.060,522.800,-985.710,250.420
792,37098.986000,216.540,63.116,43.585,377.028,288.425,86.393,1220.800,-903.710,269.420
793,37099.22000,221.472,87.353,50.599,382.260,284.450,68.407,604.800,-776.710,215.420
794,37099.64000,225.418,63.116,42.583,385.730,280.473,50.415,113.800,-642.710,165.420
795,37099.84000,237.256,42.919,36.571,385.687,279.183,35.478,318.800,-527.710,194.420
796,37099.124000,238.243,79.274,47.593,390.950,278.961,27.544,150.800,-364.710,151.420
797,37099.164000,241.202,89.373,46.591,387.410,277.082,22.507,29.800,-211.710,43.420
798,37099.206000,244.162,79.274,46.591,387.404,279.601,19.609,6.800,-87.710,-76.580
799,37099.246000,245.148,86.343,57.613,386.518,276.969,18.528,176.800,137.290,-199.580
800,37099.286000,241.202,79.274,55.609,383.883,280.495,20.620,197.800,308.290,-231.580
801,37099.327000,242.189,75.235,43.585,380.378,286.709,25.776,222.800,461.290,-251.580
802,37099.344000,239.229,48.978,43.585,377.767,294.773,34.966,167.800,802.290,-222.580
803,37099.384000,244.162,64.126,32.564,375.175,298.722,51.966,121.800,960.290,-183.580
804,37099.427000,241.202,64.126,26.552,368.168,304.291,65.034,83.800,837.290,-336.580
805,37099.467000,220.486,52.008,1.503,359.398,311.566,77.157,-218.200,345.290,-432.580
806,37099.510000,185.958,10.604,-33.566,354.129,308.288,83.985,-673.200,-127.710,-259.580
807,37099.552000,311.245,84.323,290.067,356.827,306.249,103.787,-2350.200,-60.710,-5.580
808,37099.590000,314.204,-116.639,-17.534,362.181,291.418,131.127,-2591.200,-579.710,-263.580
809,37099.607000,255.013,14.643,21.542,363.061,286.238,131.955,-646.200,-564.710,-107.580
810,37099.646000,249.094,57.057,33.566,366.568,290.384,125.150,-109.200,-428.710,7.420
811,37099.687000,245.148,26.761,38.575,370.077,289.378,120.163,-130.200,-412.710,9.420
812,37099.727000,246.135,40.899,24.548,372.707,290.975,115.259,23.800,-379.710,4.420
813,37099.770000,248.108,27.771,25.550,371.801,291.589,106.339,157.800,-343.710,13.420
814,37099.805000,253.040,53.018,12.524,373.544,285.373,101.178,154.800,-336.710,7.420
815,37099.825000,251.067,54.028,11.523,378.816,286.104,96.253,24.800,-298.710,54.420
816,37099.864000,259.946,16.663,6.513,382.312,285.825,86.325,275.800,-208.710,144.420
817,37099.905000,251.067,27.771,10.521,382.286,285.571,77.380,709.800,-137.710,145.420
818,37099.946000,243.175,47.968,12.524,386.669,286.217,69.471,429.800,-156.710,142.420
819,37099.990000,250.081,42.919,11.523,389.292,286.890,62.551,479.800,-124.710,171.420
820,37100.27000,249.094,38.880,12.524,392.790,281.459,54.442,494.800,-145.710,165.420
821,37100.66000,243.175,40.899,15.530,395.409,280.368,46.471,417.800,-219.710,173.420
822,37100.85000,243.175,50.998,10.521,398.877,272.919,28.366,333.800,-332.710,191.420
823,37100.125000,245.148,46.959,9.519,401.508,269.365,25.280,141.800,-416.710,206.420
824,37100.164000,250.081,20.702,-11.523,407.651,271.720,16.440,27.800,-480.710,220.420
825,37100.206000,249.094,14.643,-3.507,409.363,265.194,0.345,138.800,-630.710,258.420
826,37100.245000,253.040,22.722,-22.544,413.739,256.292,-7.873,16.800,-680.710,280.420
827,37100.284000,253.040,0.505,-40.579,417.220,244.673,-20.155,274.800,-519.710,278.420
828,37100.310000,261.919,32.821,-20.540,418.938,245.959,-35.996,334.800,-508.710,335.420
829,37100.347000,264.879,6.564,-64.626,425.063,231.766,-47.359,103.800,-491.710,439.420
830,37100.385000,302.366,-13.633,-64.626,434.727,222.896,-54.567,463.800,-143.710,516.420
831,37100.427000,290.528,-21.712,-83.663,435.585,214.048,-60.810,732.800,182.290,537.420
832,37100.465000,273.757,2.525,-72.642,442.637,208.929,-57.974,939.800,441.290,527.420
833,37100.512000,206.674,35.850,-77.652,449.719,194.629,-42.528,782.800,892.290,497.420
834,37100.549000,215.553,158.043,-57.613,450.604,184.326,-38.887,709.800,503.290,292.420
835,37100.571000,218.513,76.245,-234.959,447.889,182.752,-63.772,1324.800,-417.710,-190.580
836,37100.607000,238.243,95.432,-196.885,435.454,178.285,-98.711,3265.800,-1459.710,-687.580
837,37100.647000,260.933,109.570,-176.845,414.141,181.760,-159.239,2002.800,-1938.710,-955.580
838,37100.689000,300.393,66.146,-157.808,384.907,182.709,-216.895,2042.800,-2115.710,-1133.580
839,37100.727000,243.175,94.422,-115.726,348.646,182.142,-266.680,1170.800,-2180.710,-996.580
840,37100.771000,230.351,41.909,-85.667,324.794,188.365,-291.379,449.800,-2007.710,-1022.580
841,37100.789000,225.418,6.564,-74.646,293.876,188.365,-321.268,516.800,-1601.710,-1055.580
842,37100.829000,195.823,-12.623,-51.601,262.965,182.402,-347.378,1162.800,-985.710,-1010.580
843,37100.879000,173.133,49.988,-71.640,248.813,177.517,-366.449,922.800,-630.710,-932.580
844,37100.911000,184.971,48.978,-36.571,232.793,-35.211,-375.389,-156.200,-332.710,-851.580
845,37100.951000,177.079,-24.742,26.552,236.507,202.764,-362.690,-534.200,465.290,-394.580
846,37100.987000,231.337,-11.613,43.585,248.893,210.196,-345.528,-244.200,1136.290,-198.580
847,37101.25000,253.040,-3.535,-118.732,273.614,206.437,-325.711,636.800,1763.290,-373.580
848,37101.49000,403.977,-45.949,67.632,286.875,208.634,-309.710,-28.200,1272.290,-283.580
849,37101.86000,357.611,-75.235,-53.605,291.326,214.267,-294.618,-1023.200,863.290,155.420
850,37101.129000,326.042,-80.284,-71.640,305.489,226.153,-273.334,-571.200,844.290,32.420
851,37101.169000,311.245,26.761,-72.642,316.990,226.640,-256.400,-276.200,882.290,73.420
852,37101.206000,289.541,9.594,-73.644,328.487,229.675,-241.370,177.800,928.290,79.420
853,37101.256000,252.054,54.028,-54.607,335.553,227.274,-234.474,-123.200,820.290,17.420
854,37101.265000,249.094,36.860,-45.589,343.530,236.382,-219.258,-167.200,697.290,90.420
855,37101.307000,231.337,53.018,-40.579,349.726,237.536,-209.271,160.800,596.290,48.420
856,37101.350000,233.310,45.949,-36.571,353.287,234.461,-195.458,19.800,447.290,54.420
857,37101.387000,239.229,44.939,-31.562,358.576,234.493,-194.447,49.800,370.290,56.420
858,37101.425000,241.202,39.890,-38.575,363.879,235.534,-188.438,36.800,324.290,14.420
859,37101.465000,251.067,39.890,-48.595,366.533,234.780,-184.482,-24.200,339.290,-25.580
860,37101.507000,249.094,44.939,-44.587,370.089,236.829,-173.481,-151.200,326.290,-35.580
861,37101.526000,237.256,42.919,-21.542,369.229,238.761,-166.470,-356.200,241.290,-11.580
862,37101.572000,240.216,67.156,-7.515,370.992,231.875,-164.702,-26.200,166.290,5.420
863,37101.607000,240.216,71.195,3.507,372.764,238.009,-162.511,-11.200,144.290,53.420
864,37101.645000,244.162,57.057,-27.554,373.649,228.574,-158.843,-134.200,151.290,72.420
865,37101.687000,255.013,21.712,-13.526,378.074,236.530,-153.605,16.800,122.290,98.420
866,37101.731000,244.162,57.057,-0.501,379.829,239.051,-156.497,228.800,47.290,74.420
867,37101.749000,252.054,44.939,-3.507,378.065,236.445,-156.587,22.800,-54.710,93.420
868,37101.786000,242.189,48.978,-10.521,379.813,232.862,-160.670,253.800,-106.710,135.420
869,37101.829000,239.229,47.968,19.538,378.006,217.767,-173.081,599.800,-255.710,238.420
870,37101.866000,222.459,80.284,68.634,377.102,216.673,-181.064,53.800,-972.710,334.420
871,37101.909000,309.272,13.633,51.601,368.209,207.226,-208.210,-176.200,-1543.710,280.420
872,37101.946000,420.748,-100.481,-30.560,353.149,203.794,-237.166,-331.200,-1842.710,117.420
873,37101.986000,377.341,-52.008,-82.661,331.896,193.217,-273.325,620.800,-1617.710,135.420
874,37102.10000,269.811,28.781,-3.507,320.412,198.918,-286.086,-475.200,-1198.710,326.420
875,37102.49000,215.553,-47.968,39.577,316.888,198.916,-286.097,-1217.200,-527.710,546.420
876,37102.86000,202.728,-52.008,29.558,328.392,211.498,-270.757,-961.200,519.290,750.420
877,37102.126000,215.553,-29.791,-3.507,351.352,206.899,-249.980,-542.200,1167.290,904.420
878,37102.169000,233.310,1.515,-19.538,378.751,194.016,-215.555,-410.200,1585.290,1054.420
879,37102.209000,262.906,22.722,-46.591,400.848,181.829,-187.083,-775.200,1770.290,1140.420
880,37102.230000,254.027,40.899,-59.616,423.870,172.669,-143.615,-973.200,1779.290,1053.420
881,37102.270000,262.906,44.939,-73.644,444.255,162.696,-98.196,-1106.200,1805.290,960.420
882,37102.310000,265.865,59.077,-69.636,457.601,154.538,-49.761,-696.200,1801.290,653.420
883,37102.350000,246.135,60.087,-66.630,455.921,150.174,-20.118,-538.200,1697.290,275.420
884,37102.390000,235.283,77.254,-91.679,461.291,150.155,9.688,-38.200,1181.290,22.420
885,37102.430000,192.863,106.540,-126.748,457.789,152.953,16.718,607.800,172.290,-382.580
886,37102.470000,349.719,-111.590,106.708,455.996,152.642,5.780,229.800,-546.710,124.420
887,37102.490000,314.204,-53.018,-43.585,455.974,164.484,-4.759,-776.200,-665.710,-533.580
888,37102.530000,269.811,-68.166,-47.593,454.191,178.929,-15.219,-399.200,-723.710,-674.580
889,37102.566000,266.852,-37.870,-6.513,448.009,191.691,-23.762,190.800,-423.710,-707.580
890,37102.612000,246.135,102.501,-0.501,443.588,204.454,-32.299,141.800,-299.710,-591.580
891,37102.646000,267.838,-16.663,-12.524,436.539,217.356,-35.874,-722.200,-358.710,-381.580
892,37102.686000,256.987,-57.057,7.515,435.670,218.336,-31.873,-288.200,-191.710,-390.580
893,37102.706000,260.933,-43.929,11.523,430.367,221.607,-38.735,175.800,-57.710,-465.580
894,37102.747000,258.960,-20.702,8.517,425.069,231.822,-45.372,545.800,-123.710,-459.580
895,37102.787000,262.906,-23.732,-23.546,424.168,239.380,-54.066,819.800,-153.710,-315.580
896,37102.829000,259.946,43.929,-17.534,416.205,246.792,-67.753,891.800,-74.710,-257.580
897,37102.872000,254.027,29.791,-33.566,411.777,244.827,-75.775,937.800,104.290,-218.580
898,37102.906000,253.040,23.732,-9.519,410.881,251.574,-82.510,996.800,220.290,-184.580
899,37102.946000,251.067,29.791,3.507,406.464,250.590,-86.528,729.800,216.290,-123.580
900,37102.970000,244.162,-17.673,1.503,409.093,243.563,-89.726,719.800,150.290,3.420
901,37103.12000,227.391,56.047,21.542,409.075,245.102,-96.628,557.800,79.290,31.420
902,37103.47000,258.960,72.205,5.511,411.709,245.019,-99.601,490.800,81.290,9.420
903,37103.87000,244.162,106.540,0.501,405.522,240.506,-105.725,589.800,84.290,-58.580
904,37103.129000,231.337,124.718,-5.511,408.166,246.556,-106.513,78.800,39.290,-156.580
905,37103.175000,236.270,57.057,0.501,405.527,244.006,-104.618,76.800,33.290,-125.580
906,37103.189000,260.933,15.653,7.515,403.763,243.977,-105.618,247.800,58.290,-125.580
907,37103.229000,256.000,6.564,10.521,402.001,244.843,-105.595,-145.200,-20.710,-127.580
908,37103.269000,236.270,38.880,18.536,401.108,243.862,-109.602,126.800,-95.710,-39.580
909,37103.314000,254.027,49.988,8.517,400.231,252.513,-110.317,-237.200,-248.710,-48.580
910,37103.347000,258.960,76.245,-11.523,394.952,254.302,-108.290,-459.200,-224.710,-43.580
911,37103.387000,279.676,-21.712,3.507,394.978,258.867,-100.198,-884.200,-151.710,51.420
912,37103.427000,268.825,-68.166,39.577,398.485,258.701,-106.150,296.800,-274.710,89.420
913,37103.451000,272.771,1.515,16.532,394.916,250.492,-120.330,328.800,-603.710,-24.580
914,37103.491000,267.838,-18.682,-46.591,388.712,253.565,-134.152,92.800,-825.710,-149.580
915,37103.531000,256.000,0.505,-109.714,383.373,254.762,-152.997,-69.200,-968.710,-29.580
916,37103.571000,275.730,-80.284,-145.785,379.788,248.120,-173.084,-116.200,-1246.710,426.420
917,37103.610000,247.121,-42.919,-109.714,370.908,236.210,-195.344,-419.200,-1379.710,713.420
918,37103.650000,249.094,-44.939,-99.695,365.588,232.424,-206.407,-778.200,-1342.710,908.420
919,37103.690000,237.256,-32.821,-58.614,362.028,226.036,-217.549,-1063.200,-1210.710,1086.420
920,37103.709000,222.459,-24.742,-42.583,357.585,215.307,-228.834,-938.200,-1047.710,1160.420
921,37103.749000,192.863,11.613,-19.538,360.220,204.893,-229.164,-989.200,-714.710,1174.420
922,37103.787000,195.823,-1.515,-20.540,363.740,191.932,-227.587,-774.200,-121.710,1071.420
923,37103.827000,205.688,26.761,-33.566,372.574,187.012,-217.788,-455.200,355.290,816.420
924,37103.871000,222.459,21.712,-77.652,380.538,177.892,-203.164,-368.200,727.290,617.420
925,37103.911000,234.297,20.702,-91.679,389.387,170.537,-187.486,-320.200,862.290,480.420
926,37103.931000,244.162,25.751,-89.675,397.360,169.258,-171.615,-395.200,757.290,421.420
927,37103.967000,224.432,48.978,-88.673,402.688,168.816,-156.717,-860.200,445.290,322.420
928,37104.7000,224.432,30.801,-39.577,400.081,168.312,-143.833,-1122.200,367.290,27.420
929,37104.55000,286.582,11.613,-53.605,399.218,169.349,-137.844,210.800,390.290,-282.580
930,37104.89000,320.123,26.761,-39.577,398.362,184.245,-132.398,709.800,740.290,-706.580
931,37104.140000,364.516,-25.751,-36.571,394.884,196.760,-119.094,-591.200,625.290,-357.580
932,37104.172000,303.353,-74.225,-35.569,394.939,209.363,-102.797,-599.200,413.290,-550.580
933,37104.187000,233.310,43.929,-52.603,386.164,221.762,-93.486,-277.200,421.290,-460.580
934,37104.234000,255.013,44.939,-18.536,386.202,228.176,-81.362,-416.200,369.290,-318.580
935,37104.269000,256.987,-15.653,-35.569,380.941,226.690,-72.490,-608.200,255.290,-250.580
936,37104.314000,249.094,-43.929,-31.562,379.192,232.849,-69.317,-145.200,117.290,-206.580
937,37104.350000,255.013,7.574,-39.577,379.205,238.141,-66.166,91.800,227.290,-245.580
938,37104.395000,254.027,10.604,-31.562,376.571,239.092,-63.165,200.800,311.290,-151.580
939,37104.411000,244.162,20.702,-13.526,376.590,246.177,-57.970,299.800,286.290,-139.580
940,37104.455000,237.256,55.037,-11.523,376.591,243.601,-57.061,-116.200,103.290,-106.580
941,37104.495000,248.108,23.732,-23.546,374.845,245.477,-52.040,-266.200,54.290,-54.580
942,37104.531000,248.108,33.830,-28.556,379.271,248.281,-44.984,-341.200,103.290,-75.580
943,37104.569000,257.973,10.604,-23.546,373.120,249.285,-40.007,-371.200,144.290,-36.580
944,37104.614000,259.946,-1.515,-16.532,373.132,247.690,-35.093,-95.200,172.290,-25.580
945,37104.651000,247.121,18.682,-8.517,373.142,249.511,-32.055,-81.200,121.290,-36.580
946,37104.670000,247.121,24.742,-9.519,372.266,255.586,-31.861,-33.200,85.290,-30.580
947,37104.708000,244.162,37.870,-13.526,373.153,256.511,-29.842,104.800,66.290,-26.580
948,37104.750000,243.175,54.028,10.521,371.389,257.350,-30.813,-222.200,-150.710,89.420
949,37104.795000,242.189,24.742,31.562,375.776,256.316,-36.791,-109.200,-411.710,137.420
950,37104.829000,279.676,14.643,-17.534,375.757,250.099,-41.958,-231.200,-643.710,102.420
951,37104.869000,308.285,45.949,-17.534,375.732,246.402,-50.022,-219.200,-301.710,61.420
952,37104.889000,284.609,54.028,-49.597,376.606,252.366,-53.797,-86.200,-409.710,-56.580
953,37104.930000,256.987,56.047,-70.638,375.704,250.432,-60.814,153.800,-436.710,-177.580
954,37104.972000,250.081,116.639,-19.538,371.256,256.894,-77.499,696.800,-224.710,-247.580
955,37105.15000,227.391,67.156,5.511,372.125,260.225,-82.353,478.800,74.290,-287.580
956,37105.49000,216.540,68.166,6.513,367.739,258.683,-75.466,199.800,350.290,-566.580
957,37105.92000,218.513,55.037,14.528,364.265,276.407,-61.994,-582.200,672.290,-600.580
958,37105.130000,229.364,23.732,39.577,359.076,288.560,-30.833,-985.200,966.290,-523.580
959,37105.149000,249.094,1.515,20.540,355.639,287.695,-0.090,-54.200,1456.290,-281.580
960,37105.191000,255.013,68.166,4.509,358.348,300.412,20.192,-23.200,1469.290,-222.580
961,37105.231000,254.027,57.057,-16.532,354.029,305.566,49.142,-673.200,1252.290,-247.580
962,37105.275000,249.094,13.633,-11.523,349.722,308.256,82.977,-914.200,1010.290,-210.580
963,37105.310000,214.566,-22.722,-32.564,340.099,311.501,105.890,-408.200,752.290,-325.580
964,37105.348000,219.499,-2.525,-19.538,337.492,317.885,117.012,-244.200,414.290,-281.580
965,37105.369000,205.688,1.515,-28.556,339.273,306.016,126.562,-1075.200,-241.710,-26.580
966,37105.420000,269.811,96.442,163.820,337.537,307.136,135.530,-872.200,-178.710,-128.580
967,37105.449000,262.906,96.442,69.636,338.431,308.986,139.565,-279.200,-32.710,-249.580
968,37105.492000,316.177,44.939,47.593,341.088,301.373,146.277,-989.200,-445.710,38.420
969,37105.531000,253.040,-70.185,50.599,341.963,297.873,145.174,-422.200,-558.710,9.420
970,37105.574000,263.892,47.968,17.534,348.973,300.088,131.366,588.800,-484.710,57.420
971,37105.611000,238.243,69.176,31.562,350.688,297.035,115.385,560.800,-359.710,154.420
972,37105.630000,237.256,75.235,26.552,353.290,295.774,101.450,655.800,-319.710,165.420
973,37105.670000,235.283,82.304,21.542,361.207,302.555,95.738,304.800,-300.710,91.420
974,37105.710000,246.135,43.929,29.558,362.949,302.359,88.786,191.800,-307.710,67.420
975,37105.751000,249.094,50.998,24.548,364.695,300.483,83.766,142.800,-311.710,31.420
976,37105.790000,251.067,57.057,8.517,368.195,302.837,74.916,69.800,-268.710,37.420
977,37105.836000,249.094,56.047,9.519,367.297,298.355,69.803,22.800,-179.710,62.420
978,37105.854000,251.067,45.949,13.526,370.814,288.810,69.505,46.800,-119.710,69.420
979,37105.899000,245.148,50.998,16.532,369.931,297.404,66.802,35.800,-120.710,87.420
980,37105.940000,247.121,48.978,20.540,373.445,292.143,64.656,113.800,-133.710,94.420
981,37105.974000,249.094,38.880,17.534,373.417,288.417,55.598,118.800,-169.710,107.420
982,37106.11000,245.148,58.067,11.523,374.286,288.305,51.626,37.800,-240.710,87.420
983,37106.51000,247.121,55.037,7.515,378.695,293.516,51.809,42.800,-249.710,126.420
984,37106.91000,250.081,40.899,-0.501,382.195,283.802,45.547,98.800,-242.710,142.420
985,37106.111000,255.013,30.801,-2.505,380.414,285.340,38.640,114.800,-277.710,164.420
986,37106.151000,253.040,32.821,1.503,387.435,283.355,29.661,212.800,-321.710,177.420
987,37106.191000,250.081,41.909,-9.519,388.286,277.894,20.550,218.800,-334.710,193.420
988,37106.236000,249.094,47.968,-12.524,394.428,275.069,12.534,82.800,-346.710,256.420
989,37106.272000,247.121,3.535,-20.540,397.039,270.450,2.463,213.800,-310.710,261.420
990,37106.310000,256.000,40.899,-4.509,397.905,268.573,-2.561,311.800,-303.710,274.420
991,37106.334000,262.906,45.949,-11.523,402.288,262.332,-8.707,-121.200,-395.710,359.420
992,37106.374000,269.811,16.663,-14.528,406.658,249.061,-18.061,44.800,-400.710,430.420
993,37106.412000,259.946,-6.564,-30.560,413.669,238.369,-28.315,238.800,-415.710,479.420
994,37106.456000,259.946,-2.525,-39.577,418.917,228.515,-39.541,431.800,-347.710,419.420
995,37106.491000,245.148,12.623,-68.634,424.193,227.566,-42.534,212.800,-230.710,421.420
996,37106.534000,228.378,8.584,-66.630,428.575,215.277,-47.883,-32.200,-121.710,423.420
997,37106.572000,250.081,-20.702,-55.609,430.341,210.154,-45.065,42.800,29.290,370.420
998,37106.590000,261.919,-34.840,-40.579,437.389,202.404,-43.308,278.800,139.290,333.420
999,37106.632000,253.040,-32.821,-33.566,438.249,185.828,-46.822,572.800,192.290,283.420
1000,37106.677000,247.121,-28.781,-26.552,436.491,183.279,-44.924,791.800,155.290,252.420
1001,37106.710000,248.108,-1.515,-25.550,443.507,178.663,-54.981,791.800,109.290,228.420
1002,37106.752000,244.162,-9.594,-34.568,447.901,171.665,-57.180,955.800,94.290,116.420
1003,37106.790000,261.919,3.535,-17.534,444.374,175.079,-59.067,1183.800,185.290,19.420
1004,37106.814000,227.391,-5.554,-25.550,446.127,170.684,-61.190,1108.800,231.290,-73.580
1005,37106.851000,232.324,-4.544,-15.530,445.218,171.269,-71.104,913.800,-84.710,-115.580
1006,37106.891000,232.324,-24.742,-23.546,442.540,169.193,-83.096,847.800,-188.710,-102.580
1007,37106.934000,243.175,-25.751,-22.544,443.388,170.592,-94.963,912.800,-229.710,-149.580
1008,37106.971000,259.946,-39.890,-22.544,440.716,162.553,-103.177,860.800,-155.710,-206.580
1009,37107.14000,271.784,-56.047,-29.558,436.301,163.305,-107.138,820.800,-51.710,-200.580
1010,37107.57000,267.838,-65.136,-31.562,437.165,166.580,-113.980,667.800,-6.710,-135.580
1011,37107.75000,264.879,-77.254,-25.550,438.921,167.393,-115.934,207.800,89.290,-63.580
1012,37107.114000,250.081,-53.018,-44.587,438.047,168.317,-113.921,11.800,124.290,-93.580
1013,37107.154000,239.229,-30.801,-76.650,433.647,167.502,-111.976,79.800,68.290,-111.580
1014,37107.192000,235.283,27.771,-106.708,432.751,169.936,-117.858,134.800,-245.710,-107.580
1015,37107.231000,227.391,32.821,-124.744,426.552,167.886,-128.867,8.800,-570.710,-131.580
1016,37107.273000,236.270,22.722,-137.769,422.998,177.065,-141.489,26.800,-877.710,-226.580
1017,37107.292000,247.121,22.722,-126.748,409.712,178.927,-167.289,426.800,-1182.710,-413.580
1018,37107.335000,249.094,26.761,-113.722,392.882,177.146,-199.177,447.800,-1290.710,-471.580
1019,37107.372000,234.297,12.623,-95.687,374.322,184.296,-221.843,378.800,-1317.710,-471.580
1020,37107.412000,230.351,16.663,-87.671,356.471,-29.977,-254.671,67.800,-1162.710,-446.580
1021,37107.455000,219.499,25.751,-66.630,346.035,190.206,-257.489,-102.200,-950.710,-482.580
1022,37107.492000,205.688,-6.564,10.521,336.331,202.993,-265.049,32.800,-547.710,-516.580
1023,37107.539000,212.593,34.840,91.679,334.569,202.124,-265.083,477.800,503.290,-561.580
1024,37107.551000,360.570,-32.821,-157.808,343.412,198.157,-252.275,806.800,1104.290,-247.580
1025,37107.591000,357.611,-35.850,-38.575,348.736,208.886,-240.987,-1571.200,725.290,129.420
1026,37107.634000,302.366,17.673,-91.679,357.659,228.106,-205.580,-2221.200,730.290,-17.580
1027,37107.677000,299.407,-56.047,-47.593,364.773,233.939,-183.522,-375.200,918.290,-3.580
1028,37107.712000,245.148,-22.722,-51.601,365.703,238.731,-167.476,-196.200,732.290,-220.580
1029,37107.759000,236.270,58.067,-35.569,367.493,243.325,-158.384,-360.200,568.290,-220.580
1030,37107.771000,219.499,66.146,-16.532,370.176,247.166,-145.342,-85.200,463.290,-88.580
