Sample, Time, ACCX, ACCY, ACCZ, MAGX, MAGY, MAGZ, GYRX, GYRY, GYRZ
0,36844.879000,239.033,-29.558,19.845,478.379,-289.232,46.580,103.850,-70.370,-50.930
1,36844.919000,253.006,-36.571,20.837,475.597,-280.683,49.764,91.850,-65.370,-54.930
2,36844.939000,266.979,-35.569,26.791,482.401,-279.694,47.835,145.850,3.630,-16.930
3,36844.979000,271.969,-37.573,28.775,482.421,-278.670,50.815,215.850,104.630,22.070
4,36845.19000,248.016,-30.560,28.775,479.395,-287.090,55.494,235.850,138.630,50.070
5,36845.59000,236.039,-22.544,36.713,477.466,-286.959,61.396,161.850,38.630,65.070
6,36845.99000,240.031,-22.544,35.721,476.493,-287.000,60.409,172.850,-45.370,18.070
7,36845.139000,251.010,-24.548,29.767,483.296,-286.798,64.361,251.850,-68.370,-27.930
8,36845.185000,256.998,-25.550,27.783,476.561,-283.059,66.421,165.850,-45.370,-23.930
9,36845.219000,256.998,-23.546,22.822,479.447,-284.883,67.358,97.850,-39.370,-42.930
10,36845.239000,251.010,-19.538,26.791,477.631,-276.373,68.576,118.850,31.630,-5.930
11,36845.284000,257.996,-13.526,29.767,482.481,-277.118,73.481,83.850,73.630,17.070
12,36845.319000,242.027,-16.532,31.752,480.512,-279.037,73.424,-5.150,61.630,-31.930
13,36845.359000,241.029,-18.536,30.760,487.348,-276.104,73.517,-18.150,6.630,-59.930
14,36845.399000,255.002,-19.538,30.760,485.391,-277.104,72.503,-19.150,6.630,-42.930
15,36845.439000,249.014,-15.530,34.729,485.448,-273.295,73.592,-106.150,12.630,-56.930
16,36845.478000,247.018,-15.530,36.713,485.456,-272.428,70.666,-138.150,10.630,-55.930
17,36845.519000,252.008,-13.526,36.713,485.475,-270.642,66.781,-145.150,-19.370,-59.930
18,36845.539000,253.006,-10.521,37.705,488.261,-279.138,65.566,-193.150,-45.370,-90.930
19,36845.580000,260.990,0.501,37.705,485.434,-272.718,59.838,-250.150,-59.370,-148.930
20,36845.618000,255.002,-2.505,39.690,493.342,-262.311,56.206,-249.150,-23.370,-284.930
21,36845.658000,257.996,-5.511,40.682,495.244,-264.333,50.252,-263.150,-19.370,-341.930
22,36845.698000,244.023,-24.548,39.690,503.199,-251.010,49.652,-202.150,10.630,-261.930
23,36845.746000,217.076,-25.550,26.791,504.170,-250.235,42.790,-205.150,-194.370,22.070
24,36845.781000,265.980,-17.534,9.922,503.090,-256.265,29.833,-283.150,-473.370,-15.930
25,36845.816000,280.951,10.521,-41.674,506.061,-250.866,18.185,-519.150,-146.370,-140.930
26,36845.836000,283.945,35.569,7.938,506.088,-248.213,11.374,-453.150,-258.370,-159.930
27,36845.876000,293.926,4.509,11.907,506.137,-244.510,8.526,-333.150,273.630,-230.930
28,36845.920000,218.074,-18.536,52.589,508.175,-238.624,15.579,-195.150,316.630,-231.930
29,36845.960000,218.074,-40.579,62.512,514.924,-242.179,20.409,-16.150,204.630,-79.930
30,36846.0,225.060,-45.589,45.643,513.001,-241.969,29.264,427.850,79.630,44.070
31,36846.40000,233.045,-5.511,42.667,511.088,-240.867,36.177,474.850,32.630,141.070
32,36846.81000,260.990,12.524,43.659,513.031,-240.813,37.165,341.850,-26.370,152.070
33,36846.124000,257.996,9.519,52.589,511.114,-239.763,42.109,231.850,47.630,22.070
34,36846.139000,251.010,3.507,52.589,511.100,-241.470,48.947,325.850,21.630,-9.930
35,36846.180000,245.021,-7.515,41.674,512.034,-244.241,50.839,279.850,62.630,-61.930
36,36846.220000,243.025,4.509,41.674,511.189,-235.717,52.058,151.850,32.630,-1.930
37,36846.261000,245.021,4.509,44.651,512.115,-239.355,56.876,179.850,-47.370,-1.930
38,36846.296000,243.025,-1.503,35.721,515.064,-236.529,54.993,190.850,-84.370,-69.930
39,36846.336000,256.998,11.523,36.713,505.746,-476.829,47.309,214.850,-91.370,0.070
40,36846.376000,256.000,-3.507,25.798,516.086,-233.547,59.995,245.850,-34.370,28.070
41,36846.421000,240.031,-3.507,30.760,511.162,-238.370,58.869,274.850,-31.370,26.070
42,36846.441000,260.990,17.534,19.845,513.172,-233.614,59.005,247.850,-128.370,80.070
43,36846.481000,258.994,13.526,13.891,513.077,-240.207,59.805,215.850,-71.370,61.070
44,36846.521000,249.014,19.538,11.907,515.115,-233.561,59.993,209.850,-57.370,-1.930
45,36846.561000,252.008,24.548,13.891,513.083,-240.129,62.758,36.850,-54.370,30.070
46,36846.601000,256.000,25.550,13.891,509.236,-237.426,59.876,-79.150,23.630,107.070
47,36846.638000,242.027,10.521,17.860,507.146,-247.829,60.567,-35.150,64.630,143.070
48,36846.678000,246.020,-3.507,19.845,507.177,-245.885,62.588,3.850,-78.370,80.070
49,36846.701000,256.000,-5.511,19.845,507.204,-243.232,55.777,-86.150,-123.370,83.070
50,36846.741000,272.967,-6.513,26.791,506.124,-250.811,55.564,43.850,-48.370,32.070
51,36846.781000,266.979,-15.530,23.814,507.142,-247.881,58.598,123.850,143.630,3.070
52,36846.821000,237.037,-8.517,23.814,505.254,-244.914,64.579,156.850,174.630,50.070
53,36846.860000,235.041,-2.505,28.775,506.183,-247.737,64.502,78.850,-26.370,99.070
54,36846.898000,255.002,0.501,33.736,503.277,-247.699,67.449,97.850,53.630,78.070
55,36846.938000,256.998,-7.515,31.752,502.179,-257.038,72.106,150.850,40.630,105.070
56,36846.978000,256.998,-13.526,35.721,500.338,-250.393,74.254,172.850,63.630,54.070
57,36846.999000,256.998,-0.501,36.713,501.301,-251.246,77.183,170.850,56.630,35.070
58,36847.39000,249.014,-1.503,29.767,495.453,-253.167,79.087,88.850,46.630,28.070
59,36847.79000,245.021,-2.505,27.783,500.309,-253.072,80.082,33.850,-2.370,11.070
60,36847.119000,250.012,-7.515,24.806,496.383,-255.990,79.010,18.850,-47.370,-3.930
61,36847.159000,252.008,-15.530,21.829,498.326,-255.937,79.999,1.850,-46.370,-1.930
62,36847.199000,253.006,-13.526,20.837,495.422,-255.111,77.066,11.850,-37.370,9.070
63,36847.239000,254.004,-9.519,23.814,502.234,-254.017,79.075,61.850,-33.370,34.070
64,36847.280000,251.010,-16.532,20.837,495.414,-255.978,79.993,99.850,19.630,28.070
65,36847.320000,252.008,-11.523,23.814,499.326,-254.005,81.038,66.850,-14.370,42.070
66,36847.340000,252.008,-5.511,24.806,493.416,-259.814,78.899,75.850,-9.370,30.070
67,36847.380000,254.004,-5.511,26.791,495.457,-253.115,81.056,26.850,-6.370,35.070
68,36847.420000,252.008,-6.513,25.798,495.446,-254.034,82.014,38.850,14.630,15.070
69,36847.460000,254.004,-10.521,27.783,496.403,-254.966,81.990,6.850,-3.370,15.070
70,36847.500000,252.008,-6.513,28.775,490.484,-261.641,82.778,-7.150,27.630,8.070
71,36847.540000,252.008,-9.519,26.791,497.265,-262.491,82.765,-46.150,3.630,24.070
72,36847.580000,252.008,-11.523,25.798,492.453,-259.723,82.834,-40.150,0.630,5.070
73,36847.621000,254.004,-16.532,25.798,500.258,-256.802,81.945,-50.150,22.630,-1.930
74,36847.641000,252.008,-12.524,32.744,493.440,-258.737,83.847,-30.150,16.630,10.070
75,36847.681000,249.014,-15.530,29.767,494.432,-256.911,80.949,2.850,44.630,9.070
76,36847.721000,250.012,-16.532,28.775,489.518,-261.603,84.744,-16.150,29.630,19.070
77,36847.760000,251.010,-12.524,29.767,494.401,-259.616,85.791,27.850,5.630,10.070
78,36847.800000,254.004,-6.513,27.783,488.520,-263.508,84.690,14.850,33.630,-3.930
79,36847.840000,246.020,-1.503,26.791,495.401,-257.685,86.830,-42.150,10.630,0.070
80,36847.880000,250.012,-2.505,25.798,495.338,-261.573,82.788,-119.150,-3.370,-3.930
81,36847.921000,252.008,-3.507,25.798,493.394,-261.627,81.799,-176.150,-8.370,-10.930
82,36847.948000,254.004,-6.513,26.791,490.416,-266.370,82.646,-204.150,-3.370,-19.930
83,36847.983000,248.016,-7.515,29.767,496.222,-266.524,73.799,-271.150,-12.370,-16.930
84,36848.28000,250.012,-11.523,34.729,493.317,-265.699,70.866,-236.150,-17.370,-24.930
85,36848.63000,251.010,-12.524,36.713,493.423,-258.186,69.108,-233.150,-35.370,-7.930
86,36848.103000,253.006,-20.540,32.744,492.303,-267.814,62.937,-134.150,-39.370,-46.930
87,36848.143000,256.000,-20.540,34.729,492.413,-260.249,63.147,-166.150,-16.370,0.070
88,36848.179000,248.016,-13.526,34.729,495.299,-262.073,64.085,-58.150,-19.370,2.070
89,36848.219000,243.025,-13.526,29.767,493.270,-267.853,60.970,-36.150,-39.370,-9.930
90,36848.245000,256.000,-4.509,29.767,498.211,-261.270,57.227,-133.150,-39.370,24.070
91,36848.280000,255.002,-15.530,24.806,496.176,-267.891,58.023,-66.150,-1.370,35.070
92,36848.329000,248.016,-22.544,23.814,492.261,-269.890,55.994,-19.150,-16.370,0.070
93,36848.359000,252.008,-16.532,27.783,489.410,-266.070,59.046,-13.150,-24.370,1.070
94,36848.399000,254.004,-11.523,25.798,490.389,-265.189,56.121,29.850,-3.370,18.070
95,36848.444000,254.004,-14.528,22.822,489.477,-261.368,58.193,-3.150,5.630,10.070
96,36848.479000,249.014,-12.524,28.775,493.332,-263.204,58.149,-16.150,13.630,-1.930
97,36848.525000,250.012,-14.528,24.806,492.275,-268.944,56.020,54.850,-3.370,-3.930
98,36848.540000,251.010,-10.521,23.814,495.285,-262.257,57.195,-14.150,6.630,18.070
99,36848.580000,249.014,-12.524,24.806,491.295,-269.851,57.960,16.850,2.630,9.070
100,36848.620000,252.008,-15.530,25.798,491.405,-262.286,58.171,26.850,6.630,16.070
101,36848.660000,252.008,-12.524,26.791,492.291,-267.972,57.031,12.850,-15.370,28.070
102,36848.700000,248.016,-12.524,28.775,493.346,-262.258,58.175,37.850,-21.370,16.070
103,36848.746000,251.010,-9.519,25.798,489.367,-268.933,57.983,7.850,-30.370,23.070
104,36848.783000,258.994,-6.513,22.822,490.403,-264.244,56.148,-2.150,-11.370,26.070
105,36848.823000,256.000,-18.536,24.806,491.297,-269.825,58.945,-30.150,34.630,-4.930
106,36848.843000,246.020,-13.526,28.775,489.344,-270.771,59.899,1.850,26.630,-8.930
107,36848.883000,253.006,-14.528,25.798,492.250,-270.809,56.952,-23.150,0.630,10.070
108,36848.923000,252.008,-12.524,27.783,492.307,-267.000,58.041,-50.150,-6.370,10.070
109,36848.960000,250.012,-15.530,25.798,491.318,-268.012,56.044,-4.150,-3.370,3.070
110,36849.0,249.014,-16.532,24.806,490.310,-270.810,57.932,10.850,-1.370,4.070
111,36849.40000,253.006,-11.523,27.783,490.253,-274.619,56.842,1.850,-10.370,5.070
112,36849.80000,253.006,-10.521,25.798,490.375,-266.135,56.095,7.850,-8.370,-0.930
113,36849.120000,250.012,-14.528,24.806,493.224,-270.743,58.922,4.850,-2.370,-0.930
114,36849.140000,252.008,-15.530,26.791,493.358,-261.339,57.217,8.850,-0.370,-2.930
115,36849.180000,252.008,-14.528,26.791,490.338,-268.919,57.985,16.850,15.630,-6.930
116,36849.220000,250.012,-12.524,28.775,489.410,-266.070,59.046,1.850,5.630,3.070
117,36849.260000,248.016,-14.528,27.783,490.299,-271.730,58.890,5.850,-0.370,-3.930
118,36849.300000,250.012,-17.534,28.775,488.373,-270.024,53.033,-9.150,-11.370,-17.930
119,36849.340000,256.998,-14.528,23.814,490.320,-269.917,55.990,45.850,-8.370,-19.930
120,36849.380000,251.010,-15.530,22.822,490.369,-266.975,60.006,50.850,35.630,-5.930
121,36849.433000,248.016,-11.523,26.791,493.325,-264.071,61.075,18.850,23.630,6.070
122,36849.441000,254.004,-12.524,27.783,487.510,-263.260,59.121,20.850,-11.370,1.070
123,36849.481000,253.006,-17.534,26.791,493.325,-264.071,61.075,37.850,8.630,-4.930
124,36849.521000,250.012,-15.530,25.798,487.379,-272.637,61.811,37.850,9.630,-3.930
125,36849.561000,253.006,-14.528,27.783,490.468,-260.329,61.175,28.850,-0.370,2.070
126,36849.600000,251.010,-13.526,25.798,487.475,-266.018,61.995,46.850,-1.370,-0.930
127,36849.640000,252.008,-13.526,26.791,492.335,-265.870,64.958,25.850,-7.370,-3.930
128,36849.680000,254.004,-12.524,22.822,494.219,-269.652,63.872,17.850,-6.370,-2.930
129,36849.720000,253.006,-15.530,26.791,492.330,-265.923,62.989,16.850,-5.370,-1.930
130,36849.740000,252.008,-14.528,26.791,490.373,-266.922,61.975,10.850,16.630,3.070
131,36849.781000,253.006,-12.524,27.783,492.260,-270.677,61.873,6.850,9.630,4.070
132,36849.823000,251.010,-13.526,27.783,490.391,-265.924,63.970,1.850,10.630,-4.930
133,36849.863000,251.010,-11.523,28.775,491.366,-265.858,65.940,-21.150,2.630,-5.930
134,36849.903000,251.010,-14.528,27.783,488.379,-270.706,62.850,-17.150,1.630,-9.930
135,36849.943000,253.006,-14.528,26.791,490.318,-270.705,61.869,-17.150,0.630,-1.930
136,36849.983000,250.012,-14.528,25.798,485.506,-267.937,61.938,-11.150,3.630,-6.930
137,36850.3000,251.010,-14.528,25.798,488.422,-267.843,63.913,1.850,3.630,0.070
138,36850.43000,252.008,-13.526,28.775,495.211,-268.587,67.838,-16.150,-6.370,5.070
139,36850.83000,250.012,-12.524,26.791,494.317,-263.006,65.041,-7.150,-1.370,2.070
140,36850.123000,250.012,-13.526,28.775,493.315,-264.964,63.018,-20.150,10.630,-3.930
141,36850.163000,251.010,-12.524,27.783,492.358,-264.032,63.042,-9.150,-8.370,-4.930
142,36850.203000,251.010,-12.524,28.775,495.183,-269.717,60.921,-13.150,-5.370,-4.930
143,36850.243000,249.014,-11.523,27.783,491.429,-261.209,63.119,-28.150,-4.370,4.070
144,36850.283000,253.006,-15.530,26.791,492.256,-270.730,59.905,-33.150,-26.370,-0.930
145,36850.303000,252.008,-13.526,26.791,489.454,-263.206,60.109,-13.150,-4.370,-3.930
146,36850.343000,253.006,-13.526,26.791,491.387,-264.045,63.040,-26.150,-13.370,2.070
147,36850.383000,251.010,-14.528,27.783,489.302,-273.608,59.820,4.850,-1.370,-2.930
148,36850.423000,249.014,-14.528,26.791,490.407,-264.191,58.116,7.850,-4.370,1.070
149,36850.464000,253.006,-13.526,28.775,491.262,-272.582,61.819,14.850,-11.370,3.070
150,36850.504000,253.006,-14.528,27.783,493.352,-262.179,61.128,4.850,1.630,2.070
151,36850.544000,252.008,-13.526,25.798,489.428,-265.071,61.041,26.850,5.630,-1.930
152,36850.584000,251.010,-15.530,27.783,491.399,-263.126,62.082,15.850,-14.370,7.070
153,36850.604000,250.012,-12.524,27.783,487.542,-261.316,61.142,34.850,-9.370,5.070
154,36850.644000,253.006,-12.524,26.791,491.425,-261.261,61.150,26.850,-4.370,7.070
155,36850.693000,253.006,-13.526,25.798,490.364,-267.815,63.917,33.850,-3.370,9.070
156,36850.721000,252.008,-11.523,26.791,495.268,-264.017,62.064,27.850,-9.370,7.070
157,36850.761000,252.008,-12.524,25.798,494.284,-264.976,62.035,26.850,18.630,4.070
158,36850.806000,251.010,-14.528,28.775,493.329,-264.018,63.044,20.850,3.630,6.070
159,36850.841000,248.016,-14.528,26.791,491.315,-268.826,60.940,21.850,2.630,-2.930
160,36850.881000,253.006,-10.521,26.791,492.332,-265.897,63.974,29.850,-12.370,-2.930
161,36850.908000,255.002,-12.524,26.791,489.366,-269.720,63.862,16.850,-1.370,0.070
162,36850.943000,253.006,-14.528,27.783,493.388,-260.183,65.118,15.850,11.630,1.070
163,36850.983000,251.010,-14.528,27.783,491.366,-265.858,65.940,2.850,6.630,-3.930
164,36851.23000,253.006,-14.528,27.783,493.331,-263.992,64.028,21.850,4.630,-12.930
165,36851.63000,252.008,-13.526,27.783,492.225,-273.435,64.747,16.850,19.630,-3.930
166,36851.103000,252.008,-12.524,24.806,493.388,-260.183,65.118,8.850,6.630,0.070
167,36851.143000,253.006,-13.526,28.775,493.252,-269.613,65.839,22.850,15.630,-9.930
168,36851.183000,250.012,-11.523,27.783,493.331,-263.992,64.028,-12.150,11.630,-5.930
169,36851.203000,254.004,-11.523,28.775,496.190,-267.707,64.913,-29.150,-17.370,-1.930
170,36851.243000,252.008,-12.524,26.791,494.250,-267.708,65.894,-17.150,-5.370,-2.930
171,36851.281000,252.008,-15.530,26.791,492.332,-265.897,63.974,-31.150,4.630,-3.930
172,36851.321000,252.008,-15.530,25.798,491.395,-263.940,66.977,3.850,1.630,-5.930
173,36851.361000,250.012,-11.523,26.791,491.374,-264.991,63.014,2.850,16.630,-4.930
174,36851.401000,253.006,-9.519,27.783,492.346,-264.951,64.000,-22.150,-5.370,-0.930
175,36851.441000,252.008,-11.523,27.783,491.329,-268.642,67.830,-26.150,16.630,-5.930
176,36851.481000,250.012,-10.521,25.798,492.395,-261.247,61.152,-39.150,1.630,-5.930
177,36851.501000,251.010,-13.526,25.798,493.329,-264.018,63.044,-41.150,-6.370,-4.930
178,36851.541000,253.006,-17.534,28.775,490.417,-264.059,63.038,-21.150,-4.370,-8.930
179,36851.581000,248.016,-15.530,30.760,493.258,-268.772,61.928,-93.150,-31.370,25.070
180,36851.626000,247.018,-2.505,19.845,494.205,-269.836,56.982,-234.150,-117.370,49.070
181,36851.666000,258.994,-13.526,19.845,491.351,-265.281,52.186,-261.150,-94.370,-0.930
182,36851.706000,253.006,-25.550,4.961,491.408,-261.472,53.276,-77.150,27.630,-170.930
183,36851.746000,249.014,-12.524,18.853,495.304,-259.710,46.446,-108.150,-44.370,-158.930
184,36851.785000,260.990,-8.517,18.853,496.295,-257.910,42.563,-167.150,-116.370,-79.930
185,36851.806000,250.012,-12.524,17.860,500.230,-254.099,41.692,-202.150,-94.370,-99.930
186,36851.851000,248.016,-13.526,27.783,500.189,-256.174,34.749,-206.150,-128.370,-153.930
187,36851.886000,226.058,-24.548,35.721,507.050,-251.376,33.910,-249.150,24.630,-64.930
188,36851.926000,214.082,-30.560,32.744,498.233,-256.386,27.855,-198.150,-42.370,226.070
189,36851.978000,246.020,-17.534,-4.961,498.109,-263.374,13.890,-172.150,-586.370,293.070
190,36852.3000,344.827,20.540,-47.628,493.131,-271.192,6.778,-217.150,-196.370,78.070
191,36852.48000,302.908,53.605,-39.690,495.053,-272.951,10.667,-243.150,405.630,-135.930
192,36852.83000,249.014,8.517,-19.845,500.040,-264.240,15.836,-297.150,454.630,-243.930
193,36852.103000,211.088,-4.509,-2.977,499.176,-258.264,27.804,-2.150,526.630,-104.930
194,36852.143000,224.062,-2.505,-7.938,504.006,-260.795,36.594,-50.150,301.630,35.070
195,36852.183000,246.020,-5.511,-3.969,498.240,-257.830,44.536,42.850,354.630,121.070
196,36852.223000,236.039,-9.519,-16.868,498.922,-278.436,50.849,13.850,262.630,182.070
197,36852.268000,216.078,4.509,3.969,494.102,-276.534,53.845,42.850,134.630,157.070
198,36852.303000,237.037,-8.517,7.938,490.265,-272.938,49.020,95.850,-240.370,68.070
199,36852.343000,333.848,-60.618,52.589,490.219,-275.828,46.973,151.850,-578.370,31.070
200,36852.381000,296.920,-3.507,16.868,493.186,-272.004,47.084,610.850,-58.370,-485.930
201,36852.403000,284.943,73.644,47.628,493.293,-265.253,52.190,307.850,-28.370,57.070
202,36852.443000,303.906,47.593,49.612,486.270,-281.346,54.681,-133.150,196.630,355.070
203,36852.483000,232.047,-47.593,66.481,488.247,-279.322,58.675,-129.150,415.630,152.070
204,36852.523000,176.156,-76.650,70.450,484.267,-286.784,64.363,-20.150,85.630,-143.930
205,36852.563000,195.119,-60.618,54.574,489.281,-275.421,62.720,53.850,-108.370,-190.930
206,36852.603000,291.930,-31.562,40.682,491.136,-281.120,60.597,264.850,-348.370,9.070
207,36852.643000,260.990,-27.554,39.690,486.257,-283.053,61.519,230.850,-135.370,161.070
208,36852.688000,263.984,-13.526,39.690,484.217,-289.726,60.346,139.850,-48.370,77.070
209,36852.709000,248.016,-13.526,34.729,483.365,-282.070,64.492,42.850,68.630,59.070
210,36852.748000,241.029,-25.550,37.705,484.198,-291.512,64.231,-20.150,69.630,64.070
211,36852.783000,248.016,-37.573,44.651,479.394,-288.639,68.237,-34.150,128.630,101.070
212,36852.824000,213.084,-37.573,43.659,483.300,-287.507,73.194,109.850,213.630,93.070
213,36852.863000,206.097,-41.581,44.651,481.310,-291.238,76.037,167.850,-30.370,33.070
214,36852.905000,239.033,-46.591,48.620,482.295,-290.278,76.066,302.850,-175.370,-53.930
215,36852.945000,249.014,-33.566,41.674,483.313,-287.349,79.100,336.850,-98.370,-128.930
216,36852.985000,211.088,-21.542,32.744,485.295,-284.484,79.183,328.850,-201.370,-181.930
217,36853.13000,239.033,-23.546,50.605,484.385,-279.875,75.375,192.850,-522.370,-186.930
218,36853.46000,352.811,-1.503,72.434,489.295,-274.475,62.746,-143.150,-404.370,47.070
219,36853.86000,283.945,-0.501,97.240,485.355,-278.339,61.649,119.850,-61.370,200.070
220,36853.131000,268.975,-21.542,42.667,488.293,-277.194,67.587,444.850,3.630,-105.930
221,36853.166000,229.053,10.521,25.798,489.260,-278.756,79.349,437.850,285.630,-216.930
222,36853.206000,247.018,28.556,43.659,494.245,-270.071,83.533,239.850,0.630,-64.930
223,36853.258000,246.020,16.532,36.713,493.279,-270.032,85.500,276.850,31.630,-10.930
224,36853.283000,239.033,20.540,32.744,496.204,-269.045,85.532,159.850,-123.370,45.070
225,36853.304000,245.021,25.550,29.767,491.381,-267.196,86.559,161.850,-36.370,-2.930
226,36853.344000,228.055,18.536,44.651,491.314,-271.898,87.412,63.850,-14.370,-19.930
227,36853.390000,222.066,12.524,51.597,492.228,-275.693,86.324,13.850,-141.370,56.070
228,36853.425000,227.057,12.524,53.581,493.233,-272.921,83.452,-101.150,-150.370,150.070
229,36853.465000,224.062,25.550,59.535,489.219,-280.831,72.406,-335.150,-111.370,251.070
230,36853.505000,219.072,31.562,71.442,489.197,-281.882,68.442,-526.150,-147.370,207.070
231,36853.548000,239.033,8.517,63.504,485.247,-285.116,55.558,-540.150,-116.370,155.070
232,36853.588000,255.002,4.509,86.326,484.173,-291.067,45.555,-513.150,-175.370,215.070
233,36853.608000,347.821,-73.644,72.434,482.163,-295.061,38.555,-426.150,-91.370,-109.930
234,36853.648000,249.014,-82.661,30.760,485.250,-283.541,43.799,-25.150,355.630,-246.930
235,36853.688000,278.955,17.534,-5.953,483.270,-286.379,44.700,-180.150,34.630,140.070
236,36853.734000,310.893,-34.568,-30.760,484.258,-284.605,39.833,-304.150,77.630,-67.930
237,36853.764000,287.938,-53.605,-12.899,481.281,-288.561,34.800,-434.150,-124.370,52.070
238,36853.811000,257.996,-25.550,-25.798,480.314,-287.761,29.903,-436.150,73.630,193.070
239,36853.846000,222.066,-51.601,-12.899,479.201,-297.283,27.669,-338.150,184.630,115.070
240,36853.886000,220.070,-56.611,-18.853,479.227,-295.418,26.737,-292.150,130.630,92.070
241,36853.906000,235.041,-47.593,11.907,477.195,-301.225,22.638,-168.150,72.630,43.070
242,36853.945000,220.070,-40.579,18.853,473.364,-298.311,27.630,-120.150,113.630,-33.930
243,36853.986000,224.062,-33.566,18.853,477.325,-292.635,25.828,-149.150,51.630,-55.930
244,36854.25000,250.012,-34.568,23.814,478.258,-294.645,20.855,-166.150,-47.370,-112.930
245,36854.65000,248.016,-62.622,42.667,485.031,-295.599,16.906,-116.150,7.630,-159.930
246,36854.105000,228.055,-57.613,51.597,484.217,-285.132,20.146,-47.150,24.630,-139.930
247,36854.145000,213.084,-38.575,57.550,487.147,-283.331,15.283,-68.150,-112.370,-51.930
248,36854.193000,216.078,-38.575,57.550,485.178,-284.489,8.362,-104.150,-106.370,-45.930
249,36854.208000,223.064,-31.562,58.543,486.244,-277.855,8.549,39.850,-79.370,-77.930
250,36854.244000,264.982,-12.524,73.426,485.392,-269.437,5.831,-97.150,-75.370,-51.930
251,36854.286000,258.994,-12.524,83.349,489.243,-271.326,3.817,-141.150,159.630,-166.930
252,36854.333000,398.721,-58.614,45.643,495.052,-271.428,-3.061,-301.150,-405.370,-156.930
253,36854.368000,388.741,-41.581,-15.876,496.122,-265.530,4.974,24.850,682.630,91.070
254,36854.414000,245.021,-15.530,-6.946,492.249,-266.215,16.752,89.850,50.630,28.070
255,36854.449000,323.867,-15.530,-59.535,492.319,-262.248,23.747,133.850,378.630,75.070
256,36854.489000,232.047,-54.607,28.775,491.378,-261.867,38.510,673.850,616.630,-197.930
257,36854.505000,178.152,-52.603,-6.946,496.346,-254.180,40.700,794.850,-321.370,-281.930
258,36854.544000,257.996,71.640,-20.837,497.415,-248.282,48.734,727.850,0.630,1.070
259,36854.586000,277.957,96.689,-34.729,503.300,-245.099,58.669,220.850,266.630,-83.930
260,36854.626000,235.041,37.573,21.829,505.287,-242.182,60.721,-52.150,233.630,-226.930
261,36854.666000,220.070,-14.528,21.829,508.334,-232.711,60.006,-55.150,98.630,-159.930
262,36854.706000,238.035,-23.546,23.814,506.312,-238.386,60.828,214.850,48.630,-45.930
263,36854.748000,271.969,-1.503,13.891,510.276,-233.445,66.874,375.850,7.630,43.070
264,36854.788000,258.994,37.573,26.791,507.329,-237.006,76.606,412.850,327.630,59.070
265,36854.807000,244.023,49.597,42.667,506.408,-234.838,87.484,264.850,360.630,111.070
266,36854.846000,237.037,35.569,29.767,501.565,-235.537,99.260,109.850,405.630,113.070
267,36854.900000,202.105,44.587,68.465,494.677,-242.988,106.910,-34.150,335.630,217.070
268,36854.928000,231.049,-8.517,55.566,491.806,-240.192,106.983,48.850,54.630,265.070
269,36854.965000,219.072,-7.515,79.380,487.853,-245.763,112.723,-68.150,244.630,387.070
270,36855.11000,225.060,-31.562,81.364,482.878,-254.316,113.460,101.850,-58.370,439.070
271,36855.46000,230.051,-38.575,68.465,472.101,-261.901,118.149,115.850,82.630,423.070
272,36855.86000,301.910,-23.546,43.659,470.049,-269.493,117.935,218.850,-76.370,110.070
273,36855.106000,286.940,-43.585,27.783,467.137,-269.534,117.929,163.850,-153.370,83.070
274,36855.151000,290.932,-9.519,0.992,468.177,-264.792,118.062,217.850,-5.370,1.070
275,36855.186000,249.014,4.509,-6.946,465.171,-271.427,118.856,-226.150,162.630,173.070
276,36855.226000,256.000,-37.573,23.814,462.225,-273.438,115.845,-482.150,113.630,202.070
277,36855.266000,226.058,-71.640,24.806,460.172,-281.057,114.646,-265.150,186.630,-0.930
278,36855.313000,244.023,-64.626,21.829,463.151,-276.314,113.799,-183.150,-74.370,9.070
279,36855.348000,253.006,-59.616,23.814,455.277,-283.201,107.692,-27.150,-46.370,71.070
280,36855.385000,245.021,-65.628,33.736,461.134,-281.149,110.710,117.850,-23.370,-27.930
281,36855.410000,256.000,-55.609,21.829,459.250,-277.367,111.796,153.850,-26.370,-14.930
282,36855.445000,260.990,-54.607,25.798,463.123,-278.205,113.746,103.850,58.630,-53.930
283,36855.485000,259.992,-49.597,41.674,460.164,-281.924,117.572,73.850,136.630,-81.930
284,36855.530000,230.051,-34.568,41.674,463.247,-271.217,127.711,116.850,238.630,-96.930
285,36855.570000,216.078,-38.575,38.698,463.106,-280.726,125.479,52.850,52.630,-119.930
286,36855.610000,234.043,-42.583,31.752,465.185,-271.242,125.747,113.850,-73.370,-217.930
287,36855.650000,238.035,-43.585,37.705,469.063,-271.240,123.786,89.850,-170.370,-288.930
288,36855.685000,227.057,-23.546,77.395,474.038,-261.926,116.185,-141.150,-505.370,-198.930
289,36855.705000,343.828,-14.528,55.566,474.757,-275.153,80.408,-635.150,-1194.370,372.070
290,36855.754000,287.938,-42.583,52.589,483.544,-270.538,71.699,-263.150,-241.370,-174.930
291,36855.800000,227.057,-29.558,52.589,485.544,-266.675,73.777,123.850,169.630,-643.930
292,36855.830000,174.160,18.536,38.698,493.555,-249.570,73.282,-130.150,-65.370,-352.930
293,36855.870000,216.078,29.558,55.566,493.484,-252.802,58.438,-287.150,-546.370,29.070
294,36855.906000,324.866,-8.517,6.946,496.387,-252.105,47.643,-269.150,-215.370,-49.930
295,36855.946000,258.994,-3.507,34.729,499.358,-248.228,49.723,-148.150,177.630,-247.930
296,36855.986000,263.984,5.511,31.752,496.407,-251.080,50.622,2.850,180.630,-200.930
297,36856.6000,249.014,5.511,41.674,502.272,-248.922,57.577,-103.150,365.630,-150.930
298,36856.46000,234.043,-1.503,40.682,504.220,-248.816,60.534,-246.150,242.630,-149.930
299,36856.86000,234.043,3.507,27.783,505.256,-245.649,72.428,80.850,230.630,-108.930
300,36856.129000,230.051,12.524,22.822,504.383,-239.017,73.594,103.850,156.630,-67.930
301,36856.169000,255.002,14.528,23.814,504.362,-240.829,76.495,92.850,166.630,66.070
302,36856.208000,227.057,20.540,17.860,495.601,-243.579,84.272,151.850,260.630,219.070
303,36856.250000,228.055,29.558,17.860,494.422,-258.565,89.755,-35.150,54.630,233.070
304,36856.291000,242.027,32.564,16.868,491.363,-268.194,84.564,-292.150,-78.370,370.070
305,36856.306000,240.031,-0.501,16.868,485.503,-270.273,80.562,-203.150,-9.370,330.070
306,36856.351000,241.029,0.501,21.829,478.526,-282.716,78.237,-66.150,-132.370,196.070
307,36856.386000,306.901,-50.599,94.264,481.441,-281.099,66.483,-172.150,-625.370,154.070
308,36856.428000,354.807,-74.646,1.984,480.593,-273.390,72.598,347.850,-23.370,-376.930
309,36856.468000,241.029,28.556,57.550,484.401,-278.142,69.521,-71.150,-73.370,348.070
310,36856.508000,263.984,19.538,57.550,476.425,-293.250,74.006,-134.150,73.630,405.070
311,36856.546000,182.144,-51.601,73.426,473.478,-296.050,76.874,-276.150,383.630,68.070
312,36856.589000,153.201,-119.734,90.295,472.516,-295.958,80.809,-111.150,201.630,-188.930
313,36856.616000,276.959,-74.646,61.519,472.645,-286.607,77.135,95.850,-226.370,-271.930
314,36856.646000,261.988,-4.509,47.628,473.563,-290.349,78.016,214.850,38.630,188.070
315,36856.686000,228.055,-22.544,51.597,471.594,-292.268,77.959,40.850,-34.370,123.070
316,36856.726000,258.994,-33.566,46.636,471.376,-307.372,78.523,-30.150,-26.370,40.070
317,36856.766000,249.014,-46.591,49.612,472.466,-298.900,76.793,-3.150,82.630,-32.930
318,36856.808000,225.060,-50.599,37.705,472.447,-300.686,80.678,6.850,78.630,17.070
319,36856.848000,231.049,-28.556,34.729,471.513,-297.916,78.786,-38.150,-68.370,134.070
320,36856.888000,251.010,-51.601,41.674,471.480,-300.647,82.644,2.850,80.630,49.070
321,36856.908000,222.066,-41.581,27.783,475.353,-301.485,84.595,174.850,-90.370,-84.930
322,36856.948000,228.055,-26.552,19.845,471.410,-305.402,81.528,170.850,-165.370,-67.930
323,36856.989000,249.014,-61.620,40.682,473.530,-293.081,81.874,224.850,-52.370,-113.930
324,36857.29000,240.031,-63.624,39.690,478.379,-293.826,86.780,457.850,-144.370,-264.930
325,36857.69000,233.045,-26.552,22.822,479.515,-282.465,87.098,407.850,-257.370,-240.930
326,36857.110000,251.010,-8.517,77.395,485.408,-277.654,87.242,237.850,-297.370,-125.930
327,36857.150000,359.797,23.546,55.566,487.167,-288.424,72.191,-195.150,-588.370,187.070
328,36857.190000,257.996,-49.597,81.364,481.180,-299.066,65.983,-204.150,62.630,480.070
329,36857.210000,275.961,-76.650,33.736,484.320,-283.789,70.348,201.850,-210.370,-392.930
330,36857.250000,248.016,-31.562,42.667,491.184,-279.726,77.358,496.850,258.630,-260.930
331,36857.290000,213.084,47.593,60.527,486.398,-276.616,90.223,475.850,-35.370,39.070
332,36857.330000,268.975,40.579,48.620,487.349,-277.627,87.246,266.850,-99.370,92.070
333,36857.370000,259.992,12.524,45.643,487.392,-275.525,95.173,225.850,128.630,-152.930
334,36857.410000,224.062,3.507,47.628,495.193,-273.418,99.179,223.850,115.630,-234.930
335,36857.450000,223.064,18.536,41.674,498.206,-266.705,101.338,155.850,32.630,-168.930
336,36857.470000,256.998,32.564,34.729,501.141,-264.825,99.428,-219.150,-80.370,-25.930
337,36857.510000,241.029,29.558,61.519,495.256,-268.769,96.358,-263.150,63.630,9.070
338,36857.550000,216.078,13.526,61.519,499.156,-266.955,91.497,-320.150,53.630,25.070
339,36857.590000,220.070,-7.515,63.504,493.234,-273.683,90.316,-287.150,-82.370,89.070
340,36857.630000,223.064,-12.524,74.419,494.257,-269.152,82.575,-189.150,-92.370,21.070
341,36857.670000,245.021,23.546,71.442,491.213,-277.809,78.395,-207.150,-133.370,157.070
342,36857.716000,256.998,18.536,65.488,491.130,-282.721,71.373,-88.150,-114.370,206.070
343,36857.751000,256.998,-30.560,58.543,489.140,-285.691,67.352,3.850,-173.370,157.070
344,36857.771000,252.008,-35.569,69.457,486.128,-292.404,65.193,162.850,-273.370,165.070
345,36857.811000,256.000,-2.505,51.597,484.276,-285.891,62.420,192.850,-231.370,209.070
346,36857.851000,227.057,11.523,47.628,482.172,-297.240,63.085,129.850,-47.370,125.070
347,36857.891000,232.047,17.534,81.364,481.335,-287.850,61.377,-0.150,-107.370,56.070
348,36857.931000,341.832,-3.507,48.620,478.354,-291.858,54.376,-183.150,-391.370,230.070
349,36857.971000,333.848,-72.642,11.907,478.214,-301.341,53.128,-157.150,408.630,-217.930
350,36858.11000,247.018,41.581,-2.977,480.343,-288.915,57.412,-486.150,355.630,-79.930
351,36858.51000,189.131,17.534,-9.922,479.277,-294.760,51.346,-772.150,280.630,-21.930
352,36858.71000,250.012,-67.632,5.953,477.343,-293.160,41.551,-804.150,-109.370,54.070
353,36858.111000,259.992,-80.658,-2.977,478.202,-299.976,33.494,-675.150,54.630,40.070
354,36858.151000,222.066,-54.607,3.969,480.150,-298.321,23.707,-623.150,-18.370,18.070
355,36858.196000,225.060,-46.591,0.992,477.204,-299.571,13.831,-451.150,-93.370,13.070
356,36858.233000,274.963,-55.609,-12.899,480.081,-301.526,9.847,-131.150,115.630,-109.930
357,36858.273000,254.004,-57.613,7.938,484.997,-297.569,13.900,-40.150,254.630,-277.930
358,36858.310000,232.047,-53.605,36.713,485.113,-289.925,17.064,-23.150,48.630,-229.930
359,36858.381000,219.072,-52.603,37.705,488.076,-286.154,15.206,85.850,11.630,-60.930
360,36858.391000,199.111,-56.611,50.605,484.242,-282.506,12.350,105.850,-156.370,4.070
361,36858.421000,233.045,-55.609,49.612,488.125,-282.451,12.359,185.850,-311.370,-2.930
362,36858.450000,231.049,-25.550,63.504,485.278,-277.816,10.515,187.850,-114.370,-49.930
363,36858.491000,252.008,-3.507,89.302,490.170,-274.937,9.620,-55.150,-21.370,-87.930
364,36858.531000,277.957,-6.513,94.264,492.222,-267.345,9.835,-118.150,153.630,-180.930
365,36858.571000,326.862,-38.575,79.380,496.053,-270.258,4.842,-263.150,57.630,-113.930
366,36858.611000,289.934,-53.605,26.791,494.228,-262.642,8.002,-253.150,478.630,60.070
367,36858.651000,284.943,-48.595,-27.783,497.112,-264.492,7.955,166.850,-106.370,-3.930
368,36858.671000,318.877,-32.564,-37.705,492.216,-268.185,13.746,405.850,-27.370,267.070
369,36858.711000,258.994,-15.530,-12.899,491.195,-273.451,29.335,630.850,309.630,24.070
370,36858.751000,213.084,15.530,-18.853,495.249,-261.970,32.612,732.850,-95.370,-419.930
371,36858.793000,230.051,79.656,-35.721,502.250,-248.450,39.885,463.850,70.630,-181.930
372,36858.833000,239.033,67.632,-24.806,503.231,-248.305,44.809,209.850,96.630,-26.930
373,36858.878000,268.975,13.526,-22.822,502.294,-246.348,47.813,39.850,73.630,-15.930
374,36858.913000,220.070,-5.511,20.837,502.325,-244.405,49.834,-99.150,154.630,64.070
375,36858.953000,223.064,-22.544,30.760,503.282,-245.336,49.810,209.850,6.630,115.070
376,36858.973000,244.023,-1.503,19.845,497.360,-252.826,55.493,332.850,-52.370,183.070
377,36859.13000,253.006,28.556,32.744,496.394,-252.787,57.460,255.850,21.630,185.070
378,36859.51000,237.037,27.554,43.659,494.435,-254.574,62.325,259.850,66.630,87.070
379,36859.91000,229.053,8.517,58.543,493.523,-250.753,64.397,126.850,-26.370,135.070
380,36859.131000,216.078,33.566,81.364,486.520,-265.060,63.004,19.850,52.630,334.070
381,36859.178000,212.086,20.540,88.310,479.763,-263.133,67.964,80.850,72.630,372.070
382,36859.213000,291.930,-59.616,72.434,475.743,-273.406,74.557,262.850,98.630,220.070
383,36859.249000,239.033,-49.597,90.295,470.861,-276.915,87.238,433.850,655.630,151.070
384,36859.269000,239.033,-42.583,39.690,470.035,-268.155,97.316,311.850,-90.370,150.070
385,36859.309000,372.772,-32.564,-35.721,471.915,-271.227,87.398,-24.150,-472.370,-126.930
386,36859.349000,263.984,23.546,-16.868,475.960,-259.851,86.737,-111.150,-23.370,-107.930
387,36859.389000,255.002,9.519,-33.736,469.047,-266.856,75.711,-580.150,-136.370,252.070
388,36859.434000,269.973,-79.656,0.000,464.080,-274.543,73.522,-572.150,39.630,235.070
389,36859.474000,249.014,-93.683,3.969,466.878,-282.119,71.349,-270.150,300.630,42.070
390,36859.514000,224.062,-72.642,11.907,462.046,-281.137,75.302,-34.150,129.630,16.070
391,36859.553000,227.057,-55.609,9.922,462.098,-278.169,80.303,202.850,204.630,179.070
392,36859.578000,246.020,-41.581,15.876,461.011,-286.588,84.001,186.850,38.630,185.070
393,36859.614000,254.004,-31.562,9.922,459.159,-280.862,87.108,157.850,24.630,4.070
394,36859.658000,233.045,-33.566,19.845,460.090,-284.421,94.880,148.850,160.630,-108.930
395,36859.691000,242.027,-47.593,21.829,462.102,-279.639,96.000,115.850,143.630,-158.930
396,36859.731000,265.980,-53.605,25.798,460.169,-279.561,99.933,58.850,229.630,-220.930
397,36859.771000,243.025,-48.595,27.783,462.207,-273.675,106.985,85.850,319.630,-244.930
398,36859.811000,240.031,-43.585,27.783,462.284,-269.603,117.919,146.850,301.630,-186.930
399,36859.851000,228.055,-37.573,32.744,463.473,-255.247,124.221,150.850,246.630,-171.930
400,36859.876000,246.020,-25.550,32.744,472.139,-260.639,129.988,116.850,158.630,-212.930
401,36859.911000,243.025,-17.534,33.736,468.398,-251.185,132.212,-44.150,184.630,-277.930
402,36859.951000,232.047,-21.542,41.674,474.276,-247.320,132.329,-78.150,19.630,-215.930
403,36859.991000,255.002,-11.523,58.543,477.149,-248.567,119.512,-562.150,-447.370,-116.930
404,36860.31000,287.938,-2.505,68.465,482.836,-255.630,99.653,-501.150,-588.370,29.070
405,36860.71000,239.033,-44.587,47.628,481.890,-253.018,91.855,-390.150,-297.370,29.070
406,36860.112000,248.016,-58.614,43.659,482.832,-252.611,71.213,-375.150,-685.370,-111.930
407,36860.153000,274.963,-51.601,69.457,485.768,-249.970,62.438,-92.150,-282.370,-110.930
408,36860.173000,234.043,-4.509,67.473,490.607,-250.847,62.422,243.850,-15.370,-61.930
409,36860.213000,217.076,50.599,55.566,488.638,-252.004,55.501,67.850,-242.370,16.070
410,36860.253000,258.994,24.548,34.729,491.532,-252.961,53.512,-152.150,-264.370,36.070
411,36860.292000,280.951,-20.540,23.814,493.493,-251.148,49.632,-83.150,-40.370,-270.930
412,36860.334000,255.002,-14.528,31.752,501.333,-246.231,52.733,49.850,91.630,-275.930
413,36860.374000,248.016,12.524,28.775,498.543,-238.549,58.843,229.850,199.630,-97.930
414,36860.414000,245.021,12.524,21.829,502.404,-240.306,61.752,61.850,136.630,-82.930
415,36860.454000,250.012,16.532,20.837,497.467,-246.836,67.463,55.850,214.630,-62.930
416,36860.474000,232.047,17.534,22.822,499.540,-238.954,78.506,130.850,301.630,29.070
417,36860.515000,209.092,21.542,19.845,497.501,-246.389,84.197,160.850,201.630,69.070
418,36860.555000,223.064,25.550,1.984,498.488,-245.403,85.210,-64.150,-33.370,161.070
419,36860.590000,227.057,22.544,15.876,491.606,-251.226,83.069,-230.150,-54.370,221.070
420,36860.631000,236.039,9.519,13.891,489.531,-259.896,77.906,-276.150,-172.370,199.070
421,36860.671000,267.977,-18.536,-0.992,487.366,-274.344,68.648,34.850,-260.370,179.070
422,36860.711000,256.998,-9.519,58.543,482.575,-269.003,58.953,23.850,-418.370,188.070
423,36860.751000,405.708,-70.638,50.605,487.390,-270.957,53.989,248.850,-250.370,-387.930
424,36860.771000,251.010,1.503,58.543,493.337,-263.913,66.981,505.850,273.630,-77.930
425,36860.811000,254.004,44.587,38.698,483.416,-279.101,69.493,31.850,-129.370,400.070
426,36860.868000,218.074,-5.511,55.566,482.420,-280.980,70.423,-158.150,191.630,216.070
427,36860.891000,185.138,-64.626,79.380,478.471,-285.737,71.267,-186.150,137.630,14.070
428,36860.940000,259.992,-78.654,58.543,479.469,-283.832,71.322,24.850,-36.370,-145.930
429,36860.975000,255.002,-47.593,45.643,478.461,-286.630,73.210,206.850,39.630,84.070
430,36861.15000,245.021,-36.571,38.698,475.594,-283.781,75.251,153.850,-78.370,227.070
431,36861.55000,260.990,-27.554,33.736,474.516,-291.334,76.023,112.850,-69.370,107.070
432,36861.75000,255.002,-25.550,36.713,473.567,-290.297,79.985,92.850,92.630,34.070
433,36861.115000,240.031,-44.587,45.643,474.449,-296.797,83.740,128.850,163.630,128.070
434,36861.153000,240.031,-55.609,45.643,470.565,-297.640,89.612,201.850,55.630,127.070
435,36861.193000,246.020,-54.607,38.698,472.479,-300.265,96.427,284.850,155.630,9.070
436,36861.235000,236.039,-37.573,38.698,464.795,-295.489,102.449,323.850,46.630,-43.930
437,36861.275000,232.047,-27.554,27.783,468.780,-289.497,112.458,335.850,126.630,-114.930
438,36861.315000,206.097,-27.554,25.798,469.733,-291.243,117.329,367.850,101.630,-118.930
439,36861.354000,228.055,-31.562,23.814,471.757,-286.303,124.355,432.850,-40.370,-149.930
440,36861.374000,236.039,-40.579,22.822,476.725,-278.616,126.545,385.850,-109.370,-285.930
441,36861.414000,254.004,-21.542,24.806,481.743,-267.200,126.871,221.850,-284.370,-270.930
442,36861.454000,298.916,-4.509,16.868,491.532,-260.627,120.185,131.850,-271.370,-118.930
443,36861.500000,273.965,-28.556,90.295,491.587,-257.606,127.154,166.850,80.630,-199.930
444,36861.535000,334.846,2.505,51.597,490.600,-257.830,119.277,-93.150,-354.370,-99.930
445,36861.575000,291.930,-15.530,68.465,485.670,-262.733,115.198,-203.150,53.630,349.070
446,36861.615000,239.033,-41.581,51.597,489.517,-264.674,111.216,43.850,-192.370,-148.930
447,36861.655000,238.035,3.507,51.597,490.594,-257.148,109.460,127.850,-124.370,-201.930
448,36861.675000,220.070,49.597,67.473,492.545,-256.989,114.386,144.850,-123.370,-208.930
449,36861.715000,274.963,72.642,56.558,500.312,-256.091,108.522,-77.150,-153.370,-61.930
450,36861.755000,261.988,41.581,59.535,500.283,-258.009,107.485,-175.150,139.630,-6.930
451,36861.795000,233.045,8.517,54.574,500.373,-252.230,111.581,-173.150,183.630,-114.930
452,36861.835000,226.058,13.526,59.535,499.334,-256.972,111.447,-220.150,131.630,-190.930
453,36861.875000,229.053,15.530,61.519,502.350,-249.444,108.711,-194.150,45.630,-40.930
454,36861.915000,233.045,14.528,62.512,504.183,-256.956,109.488,-108.150,45.630,97.070
455,36861.961000,232.047,16.532,70.450,498.341,-258.036,107.481,-129.150,84.630,162.070
456,36861.991000,232.047,2.505,67.473,493.355,-267.509,109.177,-84.150,10.630,178.070
457,36862.11000,227.057,-1.503,65.488,492.403,-265.737,105.290,-17.150,-28.370,200.070
458,36862.54000,236.039,2.505,67.473,495.205,-273.260,105.085,36.850,-103.370,295.070
459,36862.94000,239.033,4.509,70.450,488.340,-278.111,103.955,-102.150,14.630,321.070
460,36862.134000,231.049,-17.534,81.364,486.312,-283.865,101.825,-81.150,-136.370,8.070
461,36862.174000,242.027,-8.517,72.434,486.375,-279.216,99.003,25.850,-84.370,104.070
462,36862.216000,214.082,12.524,72.434,483.264,-292.575,95.675,19.850,-99.370,230.070
463,36862.254000,233.045,6.513,62.512,477.517,-287.063,92.868,-178.150,-159.370,228.070
464,36862.274000,232.047,4.509,80.372,477.336,-298.621,84.678,-253.150,-125.370,215.070
465,36862.315000,242.027,-33.566,96.248,471.518,-297.863,80.754,-150.150,-176.370,311.070
466,36862.356000,314.885,-54.607,100.217,474.264,-308.408,73.581,-35.150,-228.370,72.070
467,36862.396000,329.856,-24.548,67.473,470.497,-300.058,69.872,-199.150,13.630,-80.930
468,36862.436000,259.992,-9.519,21.829,477.367,-295.154,72.971,-325.150,397.630,-168.930
469,36862.478000,271.969,-29.558,-0.992,472.596,-290.311,79.983,-272.150,452.630,-263.930
470,36862.512000,256.000,-32.564,-0.992,483.287,-288.452,73.167,-454.150,-50.370,-245.930
471,36862.552000,241.029,-18.536,-21.829,475.497,-288.878,61.339,-631.150,-364.370,159.070
472,36862.573000,234.043,-54.607,-8.930,476.353,-294.960,45.433,-527.150,-225.370,299.070
473,36862.614000,256.000,-68.634,-10.915,472.398,-299.795,43.325,-222.150,38.630,70.070
474,36862.655000,238.035,-41.581,-13.891,474.276,-303.656,39.286,-173.150,-103.370,99.070
475,36862.695000,236.039,-34.568,7.938,470.383,-303.842,34.357,-133.150,-48.370,50.070
476,36862.734000,251.010,-39.577,18.853,471.307,-306.744,31.327,-129.150,7.630,9.070
477,36862.775000,244.023,-54.607,23.814,470.377,-303.921,31.404,-136.150,16.630,-68.930
478,36862.815000,244.023,-60.618,36.713,477.246,-298.257,27.638,-73.150,-16.370,-144.930
479,36862.856000,234.043,-52.603,49.612,474.391,-294.489,28.722,9.850,66.630,-121.930
480,36862.876000,234.043,-45.589,53.581,478.302,-292.543,28.783,-57.150,-65.370,-51.930
481,36862.916000,228.055,-41.581,57.550,483.096,-296.309,26.719,22.850,9.630,-93.930
482,36862.956000,225.060,-33.566,67.473,484.196,-286.944,23.047,-79.150,125.630,-148.930
483,36862.998000,235.041,-35.569,67.473,483.235,-286.826,27.966,26.850,188.630,-263.930
484,36863.33000,254.004,-31.562,81.364,492.221,-269.655,29.443,-192.150,133.630,-317.930
485,36863.74000,297.918,-35.569,64.496,494.181,-267.842,25.562,-306.150,-62.370,-257.930
486,36863.114000,334.846,-0.501,4.961,492.266,-266.765,31.490,119.850,678.630,220.070
487,36863.152000,267.977,-3.507,8.930,491.335,-265.491,44.311,218.850,370.630,24.070
488,36863.173000,333.848,-28.556,-32.744,494.360,-258.620,52.376,280.850,472.630,4.070
489,36863.212000,190.129,-43.585,34.729,498.174,-264.816,65.981,567.850,441.630,-113.930
490,36863.253000,174.160,-13.526,10.915,503.271,-248.540,71.360,702.850,-289.370,-286.930
491,36863.293000,274.963,67.632,-7.938,507.173,-246.699,67.483,472.850,-347.370,58.070
492,36863.338000,279.953,69.636,-20.837,495.512,-248.571,74.297,282.850,180.630,214.070
493,36863.378000,225.060,20.540,35.721,498.316,-256.830,81.941,30.850,123.630,-12.930
494,36863.418000,223.064,0.501,35.721,498.503,-243.670,79.356,-58.150,-26.370,7.070
495,36863.458000,236.039,-12.524,44.651,498.363,-253.152,78.109,91.850,-41.370,101.070
496,36863.500000,233.045,-10.521,44.651,495.583,-244.578,82.277,288.850,8.630,87.070
497,36863.519000,237.037,0.501,44.651,494.507,-252.104,84.033,360.850,-33.370,214.070
498,36863.560000,241.029,14.528,47.628,492.587,-251.080,87.993,392.850,-71.370,262.070
499,36863.595000,231.049,25.550,47.628,495.448,-254.769,89.862,276.850,-48.370,249.070
500,36863.635000,247.018,33.566,47.628,485.598,-264.442,86.626,28.850,-197.370,371.070
501,36863.675000,236.039,14.528,57.550,481.631,-270.197,85.475,10.850,-18.370,384.070
502,36863.715000,221.068,-13.526,83.349,471.922,-270.361,84.471,32.850,-18.370,297.070
503,36863.754000,277.957,-35.569,100.217,471.844,-275.982,86.282,301.850,-115.370,372.070
504,36863.775000,286.940,-45.589,72.434,463.102,-276.946,90.175,194.850,115.630,293.070
505,36863.815000,245.021,-28.556,46.636,465.040,-277.732,95.074,73.850,122.630,-115.930
506,36863.856000,305.903,-26.552,7.938,466.128,-269.287,92.360,-181.150,-79.370,-96.930
507,36863.896000,294.924,14.528,-15.876,471.044,-265.330,96.413,-284.150,460.630,-349.930
508,36863.938000,238.035,-13.526,0.000,470.058,-266.316,95.400,-683.150,117.630,-21.930
509,36863.978000,248.016,-49.597,0.000,468.936,-275.970,88.244,-722.150,51.630,278.070
510,36864.17000,246.020,-69.636,13.891,459.164,-280.022,83.197,-572.150,145.630,186.070
511,36864.57000,237.037,-68.634,3.969,458.146,-282.952,80.163,-409.150,34.630,118.070
512,36864.78000,255.002,-78.654,7.938,453.140,-293.449,78.879,-107.150,125.630,287.070
513,36864.118000,256.000,-79.656,18.853,446.328,-295.305,83.734,-14.150,168.630,314.070
514,36864.158000,244.023,-35.569,13.891,442.268,-307.627,84.368,16.850,122.630,191.070
515,36864.196000,232.047,-34.568,17.860,439.400,-304.805,85.425,-47.150,149.630,97.070
516,36864.239000,226.058,-62.622,34.729,440.288,-311.226,92.134,-40.150,208.630,74.070
517,36864.274000,229.053,-69.636,45.643,441.306,-308.296,95.168,46.850,91.630,-19.930
518,36864.314000,237.037,-71.640,41.674,439.341,-310.162,97.080,187.850,16.630,-116.930
519,36864.359000,256.000,-62.622,38.698,443.379,-299.653,99.346,254.850,0.630,-131.930
520,36864.374000,242.027,-60.618,32.744,442.407,-300.454,105.224,229.850,69.630,-64.930
521,36864.414000,243.025,-49.597,43.659,440.415,-304.212,107.083,241.850,86.630,-94.930
522,36864.454000,248.016,-50.599,44.651,440.607,-291.734,114.316,211.850,149.630,-119.930
523,36864.494000,242.027,-63.624,47.628,446.496,-287.737,119.355,286.850,133.630,-162.930
524,36864.534000,227.057,-64.626,43.659,449.344,-293.133,128.062,360.850,66.630,-210.930
525,36864.575000,215.080,-59.616,32.744,451.527,-276.924,132.451,421.850,54.630,-184.930
526,36864.615000,211.088,-37.573,19.845,456.444,-273.729,143.368,524.850,-43.370,-172.930
527,36864.635000,256.998,-16.532,18.853,456.585,-264.220,145.600,460.850,-210.370,-77.930
528,36864.676000,283.945,-25.550,25.798,461.411,-266.043,145.557,220.850,-50.370,-77.930
529,36864.716000,237.037,-30.560,26.791,461.501,-259.502,142.788,117.850,-170.370,-163.930
530,36864.756000,229.053,-13.526,47.628,467.254,-263.413,134.820,-188.150,-546.370,-224.930
531,36864.803000,325.864,24.548,59.535,475.963,-261.347,101.450,-736.150,-1081.370,-30.930
532,36864.838000,326.862,-46.591,49.612,473.824,-273.144,85.380,-342.150,-249.370,98.070
533,36864.882000,206.097,-96.689,65.488,477.833,-264.552,86.610,-21.150,15.630,-274.930
534,36864.924000,233.045,-21.542,61.519,480.715,-266.428,85.579,161.850,-138.370,-89.930
535,36864.939000,225.060,19.538,50.605,481.723,-263.630,83.691,-4.150,-80.370,-60.930
536,36864.979000,215.080,62.622,56.558,485.478,-271.377,74.629,-193.150,-330.370,29.070
537,36865.19000,301.910,12.524,22.822,486.493,-266.951,62.951,-144.150,-220.370,-237.930
538,36865.59000,265.980,-22.544,25.798,491.494,-257.294,68.146,-175.150,82.630,-493.930
539,36865.99000,256.998,-23.546,23.814,495.506,-248.650,71.344,146.850,95.630,-488.930
540,36865.139000,236.039,6.513,24.806,501.407,-243.734,75.425,173.850,110.630,-173.930
541,36865.175000,256.998,16.532,26.791,498.550,-240.754,82.388,8.850,98.630,-108.930
542,36865.216000,232.047,14.528,28.775,495.637,-241.583,88.262,216.850,212.630,-128.930
543,36865.236000,219.072,29.558,21.829,501.565,-234.776,92.396,178.850,103.630,-84.930
544,36865.276000,228.055,41.581,22.822,499.577,-238.480,96.224,9.850,68.630,42.070
545,36865.318000,241.029,18.536,20.837,495.527,-249.909,94.916,-215.150,17.630,160.070
546,36865.358000,228.055,-4.509,22.822,496.541,-247.032,95.981,-261.150,66.630,195.070
547,36865.398000,229.053,-4.509,26.791,494.399,-260.404,91.671,-131.150,-92.370,190.070
548,36865.438000,238.035,2.505,10.915,490.408,-267.236,85.573,-54.150,-168.370,300.070
549,36865.478000,236.039,18.536,92.279,476.687,-276.045,81.370,37.850,-260.370,471.070
550,36865.517000,462.596,-133.761,40.682,484.521,-270.445,74.654,70.850,-449.370,-315.930
551,36865.536000,228.055,-2.505,72.434,484.356,-282.554,81.202,140.850,268.630,-35.930
552,36865.580000,253.006,57.613,43.659,474.620,-283.848,73.281,-303.150,15.630,373.070
553,36865.615000,219.072,-0.501,48.620,473.645,-284.676,78.174,-302.150,542.630,86.070
554,36865.655000,180.148,-98.693,68.465,475.606,-283.624,81.157,-216.150,248.630,-154.930
555,36865.695000,266.979,-61.620,40.682,477.434,-291.214,78.982,-69.150,-199.370,-87.930
556,36865.735000,267.977,-26.552,39.690,474.604,-285.581,79.134,-80.150,30.630,116.070
557,36865.775000,251.010,-37.573,36.713,472.492,-297.035,75.861,-76.150,0.630,62.070
558,36865.815000,252.008,-26.552,37.705,474.482,-294.066,79.881,-88.150,63.630,9.070
559,36865.835000,230.051,-46.591,43.659,474.559,-288.471,77.086,-65.150,225.630,-7.930
560,36865.880000,224.062,-52.603,45.643,468.629,-296.827,85.696,9.850,191.630,97.070
561,36865.920000,240.031,-53.605,44.651,466.716,-295.725,92.609,84.850,140.630,115.070
562,36865.980000,237.037,-49.597,40.682,464.767,-296.619,95.532,128.850,51.630,26.070
563,36866.9000,233.045,-52.603,47.628,465.734,-297.419,100.429,289.850,-5.370,-87.930
564,36866.40000,225.060,-48.595,38.698,469.607,-298.257,102.380,394.850,-45.370,-110.930
565,36866.77000,239.033,-44.587,39.690,472.625,-291.465,107.492,575.850,-102.370,-136.930
566,36866.118000,246.020,-38.575,30.760,475.632,-285.592,113.562,659.850,9.630,-115.930
567,36866.138000,240.031,-35.569,39.690,480.588,-279.586,123.573,578.850,-118.370,-195.930
568,36866.177000,254.004,-16.532,113.116,479.804,-267.201,127.851,403.850,-217.370,-209.930
569,36866.218000,381.754,40.579,77.395,477.669,-278.945,113.750,5.850,-667.370,343.070
570,36866.258000,248.016,-15.530,55.566,477.693,-277.867,118.698,351.850,282.630,20.070
571,36866.297000,236.039,15.530,37.705,483.594,-273.713,129.643,408.850,133.630,-328.930
572,36866.338000,241.029,39.577,34.729,481.826,-263.049,140.757,342.850,373.630,-217.930
573,36866.379000,225.060,49.597,65.488,483.748,-264.807,144.645,29.850,151.630,-133.930
574,36866.419000,239.033,25.550,74.419,486.646,-265.712,144.625,-191.150,-25.370,-57.930
575,36866.439000,246.020,21.542,73.426,487.631,-264.752,144.654,79.850,76.630,-98.930
576,36866.480000,231.049,10.521,59.535,487.769,-256.057,151.781,87.850,98.630,-111.930
577,36866.521000,224.062,14.528,61.519,484.890,-253.367,147.916,-48.150,-98.370,-75.930
578,36866.556000,240.031,11.523,57.550,485.888,-251.462,147.971,-30.150,-119.370,-69.930
579,36866.597000,234.043,13.526,62.512,487.770,-255.270,145.901,10.850,-58.370,12.070
580,36866.637000,232.047,20.540,65.488,483.886,-255.351,144.909,-12.150,-55.370,106.070
581,36866.684000,239.033,11.523,71.442,487.786,-253.536,140.048,-72.150,-102.370,128.070
582,36866.719000,229.053,19.538,77.395,484.858,-254.550,139.031,-91.150,-112.370,161.070
583,36866.739000,224.062,20.540,80.372,487.650,-262.205,133.905,-132.150,-163.370,180.070
584,36866.779000,206.097,24.548,79.380,479.784,-268.226,124.872,-224.150,-168.370,249.070
585,36866.820000,192.125,22.544,88.310,479.610,-278.917,113.754,-377.150,-240.370,351.070
586,36866.860000,185.138,17.534,85.333,478.461,-290.463,106.546,-403.150,-322.370,394.070
587,36866.900000,288.936,-4.509,79.380,469.685,-291.113,86.841,-604.150,-463.370,243.070
588,36866.940000,326.862,-51.601,47.628,470.531,-298.849,79.742,-519.150,95.630,-123.930
589,36866.980000,320.873,-33.566,20.837,470.517,-298.272,65.987,-678.150,-155.370,152.070
590,36867.1000,322.869,-23.546,-24.806,466.532,-305.025,62.842,-586.150,291.630,-59.930
591,36867.36000,252.008,-43.585,-5.953,469.512,-299.494,56.116,-701.150,109.630,-131.930
592,36867.76000,250.012,-59.616,5.953,469.368,-308.268,46.035,-559.150,-53.370,-107.930
593,36867.116000,234.043,-62.622,11.907,471.488,-295.186,39.517,-360.150,110.630,-61.930
594,36867.156000,209.092,-61.620,6.946,468.531,-298.117,37.464,-175.150,111.630,-12.930
595,36867.196000,230.051,-51.601,4.961,473.368,-299.020,36.463,-98.150,-75.370,78.070
596,36867.241000,242.027,-44.587,14.884,466.464,-306.682,36.238,-73.150,-26.370,58.070
597,36867.281000,249.014,-40.579,9.922,473.295,-303.801,34.363,27.850,9.630,-64.930
598,36867.301000,255.002,-38.575,17.860,471.423,-299.100,34.490,-7.150,-43.370,-64.930
599,36867.343000,261.988,-40.579,19.845,476.339,-294.382,31.679,-79.150,14.630,-13.930
600,36867.383000,243.025,-43.585,34.729,472.413,-297.301,30.608,-86.150,55.630,-14.930
601,36867.417000,229.053,-42.583,42.667,472.458,-294.411,32.655,-103.150,-4.370,22.070
602,36867.457000,206.097,-48.595,44.651,471.411,-299.258,28.584,-28.150,-120.370,-32.930
603,36867.497000,227.057,-46.591,45.643,479.244,-293.659,21.868,-47.150,-266.370,-88.930
604,36867.540000,254.004,-41.581,45.643,480.203,-293.803,15.964,-93.150,-256.370,-169.930
605,36867.580000,226.058,-41.581,64.496,484.323,-277.620,18.388,-10.150,89.630,-301.930
606,36867.600000,260.990,-18.536,81.364,487.221,-277.763,11.504,-274.150,-84.370,-233.930
607,36867.646000,318.877,-24.548,75.411,487.276,-273.219,4.745,-242.150,57.630,104.070
608,36867.681000,325.864,-43.585,25.798,483.260,-283.439,13.306,168.850,539.630,399.070
609,36867.717000,296.920,-41.581,-23.814,483.336,-280.154,30.119,428.850,416.630,-35.930
610,36867.757000,307.899,-25.550,-26.791,485.303,-279.785,42.920,619.850,317.630,-55.930
611,36867.797000,228.055,-18.536,-2.977,484.567,-266.007,63.958,799.850,518.630,-56.930
612,36867.841000,165.177,-4.509,2.977,491.421,-262.837,72.910,741.850,-221.370,-224.930
613,36867.883000,214.082,44.587,-5.953,495.426,-254.297,72.170,566.850,-363.370,-226.930
614,36867.897000,280.951,76.650,-13.891,500.234,-257.118,70.133,368.850,-171.370,-60.930
615,36867.950000,278.955,41.581,-6.946,499.355,-251.326,75.210,31.850,167.630,17.070
616,36867.979000,256.000,2.505,21.829,495.559,-245.655,77.329,-106.150,77.630,-41.930
617,36868.19000,241.029,-4.509,27.783,494.571,-246.667,75.332,48.850,224.630,-47.930
618,36868.59000,223.064,0.501,31.752,497.487,-247.334,84.171,214.850,128.630,-0.930
619,36868.100000,260.990,19.538,39.690,494.609,-245.405,87.171,153.850,-8.370,93.070
620,36868.140000,238.035,32.564,50.605,490.585,-255.731,91.795,98.850,207.630,153.070
621,36868.180000,202.105,22.544,60.527,491.554,-255.743,90.812,30.850,83.630,182.070
622,36868.200000,218.074,11.523,58.543,486.669,-258.517,95.645,-45.150,78.630,400.070
623,36868.241000,220.070,17.534,57.550,473.907,-268.231,92.402,-231.150,128.630,599.070
624,36868.281000,215.080,10.521,104.186,466.840,-287.214,92.846,-256.150,-57.370,686.070
625,36868.328000,319.875,-100.697,75.411,460.051,-287.231,95.785,315.850,313.630,-7.930
626,36868.357000,228.055,-119.734,36.713,460.239,-276.355,113.793,93.850,511.630,-230.930
627,36868.398000,314.885,31.562,22.822,461.140,-279.547,99.935,-50.150,-537.370,118.070
628,36868.438000,331.852,-13.526,-10.915,463.059,-280.570,95.975,-70.150,112.630,142.070
629,36868.477000,242.027,-48.595,2.977,458.132,-286.208,99.745,-206.150,262.630,-24.930
630,36868.498000,225.060,-53.605,15.876,460.130,-282.371,100.838,-275.150,100.630,13.070
631,36868.543000,244.023,-71.640,29.767,456.176,-287.181,99.714,-169.150,201.630,160.070
632,36868.582000,223.064,-84.665,35.721,455.232,-286.091,105.645,90.850,289.630,198.070
633,36868.621000,231.049,-62.622,25.798,448.345,-293.515,114.279,184.850,40.630,193.070
634,36868.660000,238.035,-37.573,26.791,447.302,-298.310,112.177,199.850,-63.370,204.070
635,36868.700000,239.033,-34.568,23.814,442.445,-299.193,117.062,237.850,-8.370,150.070
636,36868.740000,256.998,-47.593,22.822,442.474,-297.275,118.099,190.850,23.630,98.070
637,36868.780000,251.010,-46.591,29.767,438.460,-306.707,120.781,122.850,124.630,2.070
638,36868.799000,242.027,-41.581,28.775,439.616,-295.083,130.942,72.850,73.630,14.070
639,36868.842000,248.016,-50.599,30.760,439.498,-302.753,126.794,9.850,122.630,29.070
640,36868.882000,245.021,-53.605,37.705,440.569,-296.829,135.813,77.850,161.630,-56.930
641,36868.923000,218.074,-52.603,32.744,443.566,-291.087,136.962,114.850,98.630,-129.930
642,36868.963000,221.068,-57.613,44.651,445.568,-287.198,140.024,144.850,-33.370,-182.930
643,36868.999000,253.006,-51.601,35.721,447.488,-288.222,136.064,199.850,-60.370,-262.930
644,36869.39000,257.996,-47.593,21.829,453.438,-280.364,144.162,322.850,26.630,-255.930
645,36869.79000,257.996,-42.583,18.853,452.532,-276.463,149.187,283.850,68.630,-107.930
646,36869.99000,232.047,-38.575,27.783,454.605,-267.820,153.365,239.850,60.630,-79.930
647,36869.139000,219.072,-25.550,54.574,453.572,-272.483,156.184,184.850,-151.370,-116.930
648,36869.179000,224.062,-8.517,84.341,461.421,-265.150,143.615,-160.150,-669.370,-131.930
649,36869.219000,301.910,1.503,44.651,464.096,-278.927,121.597,-398.150,-798.370,213.070
650,36869.259000,275.961,-61.620,59.535,467.864,-284.967,105.697,-292.150,-436.370,-13.930
651,36869.305000,291.930,-82.661,63.504,471.842,-277.531,99.026,-0.150,-163.370,-256.930
652,36869.341000,216.078,-10.521,52.589,469.029,-271.688,107.052,404.850,159.630,32.070
653,36869.381000,213.084,71.640,53.581,472.792,-280.091,108.792,125.850,-255.370,92.070
654,36869.408000,316.881,46.591,19.845,472.856,-274.654,100.091,-241.150,-408.370,-188.930
655,36869.442000,261.988,9.519,34.729,481.623,-271.825,95.266,-301.150,121.630,-478.930
656,36869.482000,245.021,3.507,42.667,481.755,-262.448,92.576,-354.150,52.630,-394.930
657,36869.520000,251.010,-13.526,34.729,488.618,-257.623,92.722,-263.150,156.630,-218.930
658,36869.560000,231.049,-13.526,35.721,484.722,-258.624,92.688,-262.150,236.630,-249.930
659,36869.599000,237.037,11.523,35.721,492.470,-260.273,97.573,-286.150,174.630,-260.930
660,36869.641000,240.031,21.542,41.674,494.515,-252.760,94.835,-283.150,152.630,-209.930
661,36869.685000,242.027,18.536,34.729,496.486,-250.815,95.876,-228.150,125.630,-147.930
662,36869.700000,232.047,22.544,25.798,490.693,-248.953,97.885,-248.150,187.630,-53.930
663,36869.740000,217.076,13.526,22.822,493.544,-252.774,94.833,-411.150,37.630,8.070
664,36869.780000,223.064,3.507,45.643,489.546,-260.473,91.661,-409.150,10.630,182.070
665,36869.820000,237.037,2.505,22.822,485.561,-267.226,88.516,-275.150,-16.370,329.070
666,36869.861000,224.062,15.530,30.760,477.691,-274.061,84.378,-16.150,-115.370,386.070
667,36869.901000,297.918,-50.599,109.147,477.616,-278.107,74.429,-190.150,-659.370,250.070
668,36869.941000,381.754,-109.714,10.915,481.559,-273.429,70.631,160.850,-218.370,-453.930
669,36869.961000,226.058,30.560,60.527,480.496,-280.009,72.414,55.850,51.630,357.070
670,36870.1000,244.023,9.519,35.721,471.662,-286.779,71.227,-121.150,198.630,452.070
671,36870.41000,176.156,-57.613,74.419,467.704,-293.190,80.878,-112.150,539.630,144.070
672,36870.81000,216.078,-84.665,63.504,466.721,-294.123,81.834,-13.150,-139.370,-191.930
673,36870.122000,275.961,-53.605,48.620,469.686,-289.564,74.097,-8.150,-273.370,-204.930
674,36870.164000,256.998,-9.519,43.659,465.746,-293.428,72.999,-57.150,89.630,79.070
675,36870.204000,229.053,-36.571,47.628,466.735,-292.416,74.996,-81.150,-48.370,44.070
676,36870.244000,255.002,-43.585,46.636,467.575,-300.992,71.808,-110.150,-77.370,-19.930
677,36870.260000,244.023,-53.605,49.612,464.752,-295.280,74.913,-38.150,97.630,-4.930
678,36870.300000,235.041,-64.626,48.620,466.666,-297.144,74.865,46.850,43.630,76.070
679,36870.343000,252.008,-60.618,44.651,467.658,-296.079,78.830,137.850,58.630,103.070
680,36870.382000,243.025,-43.585,40.682,459.819,-301.758,82.594,150.850,58.630,67.070
681,36870.424000,236.039,-45.589,33.736,464.769,-295.831,89.652,326.850,99.630,19.070
682,36870.464000,249.014,-51.601,31.752,459.849,-301.363,97.359,397.850,125.630,10.070
683,36870.500000,236.039,-48.595,36.713,462.905,-292.548,107.445,420.850,140.630,-50.930
684,36870.544000,221.068,-40.579,30.760,464.856,-293.150,119.235,507.850,19.630,-127.930
685,36870.564000,234.043,-34.568,32.744,466.908,-285.557,119.450,421.850,-125.370,-98.930
686,36870.609000,249.014,-28.556,32.744,470.731,-289.338,117.384,384.850,-189.370,-98.930
687,36870.645000,246.020,-15.530,37.705,474.789,-277.803,122.630,243.850,-150.370,-205.930
688,36870.690000,241.029,3.507,83.349,481.571,-277.104,109.873,-196.150,-678.370,-174.930
689,36870.720000,336.842,2.505,46.636,484.368,-281.635,80.244,-519.150,-667.370,379.070
690,36870.760000,262.986,-39.577,53.581,484.273,-287.467,74.180,-197.150,-185.370,-69.930
691,36870.801000,233.045,-35.569,35.721,481.556,-274.243,75.527,175.850,-39.370,-271.930
692,36870.841000,207.096,19.538,37.705,486.307,-281.634,79.264,144.850,-10.370,-91.930
693,36870.861000,277.957,38.575,41.674,486.423,-273.228,75.563,-3.150,-389.370,87.070
694,36870.905000,288.936,29.558,20.837,485.318,-281.884,70.402,-45.150,54.630,-49.930
695,36870.948000,263.984,7.515,21.829,486.387,-275.225,71.573,-140.150,43.630,-214.930
696,36870.984000,245.021,11.523,20.837,492.282,-270.388,72.701,-125.150,262.630,-255.930
697,36871.24000,234.043,8.517,24.806,495.298,-263.622,76.829,-215.150,172.630,-174.930
698,36871.64000,243.025,5.511,34.729,496.204,-268.284,78.668,-264.150,196.630,-70.930
699,36871.102000,241.029,1.503,29.767,491.390,-265.542,77.753,-170.150,176.630,-54.930
700,36871.141000,235.041,9.519,33.736,492.406,-262.639,79.802,-130.150,180.630,-19.930
701,36871.178000,244.023,25.550,27.783,490.453,-263.585,80.756,-166.150,88.630,18.070
702,36871.204000,243.025,16.532,20.837,494.277,-267.366,78.690,-338.150,13.630,-19.930
703,36871.245000,247.018,7.515,25.798,487.468,-267.646,71.786,-362.150,72.630,26.070
704,36871.291000,223.064,19.538,37.705,488.413,-269.497,72.719,-414.150,57.630,138.070
705,36871.320000,214.082,-0.501,22.822,483.345,-283.094,61.513,-483.150,-215.370,166.070
706,36871.363000,226.058,17.534,27.783,482.348,-283.450,48.715,-533.150,-277.370,207.070
707,36871.409000,288.936,18.536,122.047,479.280,-292.424,32.722,-494.150,-331.370,310.070
708,36871.451000,364.788,-152.798,37.705,480.304,-287.892,24.981,-620.150,68.630,-260.930
709,36871.466000,177.154,-43.585,62.512,480.320,-287.682,32.856,-266.150,73.630,-110.930
710,36871.506000,262.986,10.521,18.853,477.364,-289.825,24.922,-179.150,-210.370,101.070
711,36871.548000,265.980,-31.562,44.651,475.383,-291.902,18.959,-365.150,67.630,127.070
712,36871.582000,261.988,-57.613,51.597,472.579,-284.404,18.180,-198.150,84.630,-12.930
713,36871.622000,242.027,-71.640,52.589,476.395,-289.051,19.040,-130.150,25.630,-78.930
714,36871.669000,245.021,-55.609,54.574,478.266,-293.778,17.929,-111.150,-29.370,91.070
715,36871.704000,245.021,-61.620,63.504,469.482,-296.817,14.878,-60.150,21.630,155.070
716,36871.742000,238.035,-58.614,69.457,470.461,-295.937,11.954,-5.150,-7.370,79.070
717,36871.764000,228.055,-54.607,70.450,472.369,-298.641,15.816,72.850,33.630,6.070
718,36871.802000,211.088,-49.597,71.442,472.440,-293.887,16.932,187.850,-47.370,-43.930
719,36871.842000,209.092,-55.609,76.403,479.205,-295.708,15.909,261.850,-145.370,-140.930
720,36871.882000,203.103,-41.581,82.357,477.350,-290.009,18.032,242.850,-299.370,-166.930
721,36871.923000,236.039,-24.548,63.504,483.250,-283.570,8.385,252.850,-479.370,-103.930
722,36871.967000,276.959,-3.507,54.574,481.358,-279.894,5.533,488.850,-556.370,-5.930
723,36872.2000,367.782,2.505,-26.791,482.173,-289.574,-3.587,528.850,-609.370,389.070
724,36872.50000,334.846,-26.552,-42.667,479.301,-288.327,9.229,695.850,301.630,32.070
725,36872.65000,268.975,-27.554,-10.915,486.121,-287.889,22.040,610.850,111.630,-330.930
726,36872.105000,246.020,22.544,-12.899,485.212,-284.041,25.096,588.850,105.630,-220.930
727,36872.145000,229.053,17.534,-7.938,491.172,-276.051,38.115,475.850,98.630,-75.930
728,36872.185000,230.051,0.501,1.984,490.310,-270.049,51.068,400.850,165.630,-97.930
729,36872.231000,236.039,3.507,9.922,490.304,-270.889,54.979,366.850,72.630,-125.930
730,36872.261000,245.021,20.540,19.845,494.183,-271.648,59.882,383.850,78.630,-44.930
731,36872.301000,244.023,16.532,27.783,493.276,-267.774,63.923,203.850,-0.370,46.070
732,36872.345000,234.043,7.515,51.597,491.354,-266.777,66.898,221.850,-9.370,164.070
733,36872.365000,231.049,12.524,52.589,489.342,-272.320,72.642,263.850,33.630,182.070
734,36872.405000,223.064,25.550,60.527,483.452,-277.105,73.483,-12.150,106.630,223.070
735,36872.443000,210.090,36.571,81.364,485.328,-281.753,75.324,-156.150,156.630,290.070
736,36872.489000,212.086,-13.526,104.186,474.488,-293.225,75.970,-199.150,146.630,368.070
737,36872.522000,229.053,-61.620,100.217,472.500,-296.930,79.798,177.850,195.630,324.070
738,36872.565000,291.930,-75.648,84.341,464.692,-301.426,92.447,334.850,204.630,204.070
739,36872.605000,341.832,-69.636,1.984,464.895,-288.817,104.602,465.850,601.630,-261.930
740,36872.645000,292.928,-14.528,-24.806,462.005,-287.807,108.559,21.850,-145.370,52.070
741,36872.665000,352.811,-1.503,-24.806,466.783,-291.784,98.621,-260.150,-309.370,198.070
742,36872.705000,249.014,18.536,-5.953,455.866,-307.329,88.334,-702.150,-66.370,339.070
743,36872.744000,236.039,-38.575,0.992,460.706,-306.657,75.574,-608.150,-29.370,6.070
744,36872.784000,233.045,-88.673,10.915,463.616,-306.642,74.595,-334.150,260.630,-147.930
745,36872.826000,205.099,-80.658,20.837,462.615,-309.361,79.436,-87.150,200.630,51.070
746,36872.865000,228.055,-42.583,19.845,458.671,-313.277,76.370,-132.150,12.630,227.070
747,36872.905000,228.055,-12.524,19.845,454.853,-308.657,74.525,-147.150,42.630,125.070
748,36872.946000,241.029,-27.554,25.798,453.823,-312.506,72.449,-222.150,-6.370,-33.930
749,36872.966000,248.016,-66.630,38.698,459.645,-312.449,71.476,-154.150,-29.370,-152.930
750,36873.2000,235.041,-82.661,37.705,461.677,-305.882,68.712,27.850,20.630,-166.930
751,36873.42000,206.097,-73.644,45.643,461.790,-297.502,64.027,-16.150,-215.370,-86.930
752,36873.82000,212.086,-54.607,56.558,464.730,-294.809,57.221,126.850,-364.370,-119.930
753,36873.122000,249.014,-37.573,44.651,469.547,-296.736,53.241,82.850,-286.370,-82.930
754,36873.164000,261.988,-43.585,38.698,465.743,-291.170,51.423,76.850,97.630,-99.930
755,36873.204000,267.977,-36.571,60.527,471.679,-283.496,52.630,-102.150,57.630,-249.930
756,36873.244000,256.998,-38.575,72.434,478.572,-276.754,53.812,-168.150,129.630,-375.930
757,36873.264000,271.969,-48.595,64.496,478.743,-265.328,57.081,-101.150,157.630,-90.930
758,36873.302000,327.860,-4.509,31.752,474.692,-277.544,61.653,-120.150,329.630,226.070
759,36873.349000,292.928,-17.534,7.938,476.785,-267.876,68.811,-23.150,288.630,-187.930
760,36873.384000,256.998,-42.583,-16.868,479.772,-263.789,78.765,143.850,592.630,-28.930
761,36873.424000,195.119,-55.609,23.814,477.896,-260.664,90.652,394.850,534.630,-200.930
762,36873.465000,191.127,-34.568,22.822,487.758,-250.833,99.795,531.850,-41.370,-289.930
763,36873.505000,222.066,13.526,13.891,489.717,-249.807,101.794,520.850,-291.370,-98.930
764,36873.525000,282.947,53.605,-4.961,492.808,-237.473,102.142,446.850,-30.370,-9.930
765,36873.565000,261.988,42.583,7.938,493.725,-241.215,103.023,87.850,117.630,-142.930
766,36873.606000,257.996,19.538,20.837,496.806,-229.774,105.314,-66.150,53.630,-173.930
767,36873.646000,246.020,3.507,34.729,499.724,-229.654,108.273,49.850,197.630,-166.930
768,36873.685000,242.027,-4.509,41.674,499.921,-217.123,117.474,157.850,116.630,-149.930
769,36873.746000,237.037,4.509,53.581,498.918,-219.869,121.331,320.850,114.630,3.070
770,36873.764000,221.068,21.542,46.636,501.808,-221.640,124.237,293.850,69.630,151.070
771,36873.805000,239.033,18.536,40.682,498.800,-228.301,124.047,290.850,-121.370,170.070
772,36873.826000,240.031,46.591,38.698,496.920,-224.467,127.101,172.850,125.630,278.070
773,36873.866000,198.113,41.581,61.519,488.960,-238.603,132.596,25.850,176.630,408.070
774,36873.911000,267.977,-52.603,56.558,486.093,-235.755,134.638,159.850,112.630,396.070
775,36873.946000,269.973,-71.640,56.558,479.252,-240.290,145.320,174.850,530.630,173.070
776,36873.986000,255.002,-60.618,37.705,472.496,-239.124,157.144,228.850,371.630,-36.930
777,36874.26000,278.955,-4.509,16.868,475.353,-242.866,157.045,97.850,-23.370,-125.930
778,36874.67000,310.893,3.507,29.767,474.492,-235.314,157.254,14.850,-136.370,-94.930
779,36874.106000,276.959,-5.511,57.550,480.343,-232.579,150.454,-423.150,-129.370,-127.930
780,36874.127000,245.021,-30.560,66.481,482.215,-235.757,136.598,-564.150,-376.370,-141.930
781,36874.164000,210.090,-31.562,80.372,487.022,-237.817,127.697,-429.150,-278.370,41.070
782,36874.205000,207.096,-0.501,57.550,485.022,-240.918,118.755,32.850,-198.370,65.070
783,36874.245000,256.000,33.566,25.798,488.912,-239.996,115.836,-102.150,-337.370,-78.930
784,36874.285000,276.959,29.558,22.822,489.835,-242.137,105.942,-332.150,-139.370,-242.930
785,36874.325000,256.000,-0.501,43.659,497.722,-232.781,98.347,-318.150,-76.370,-341.930
786,36874.366000,254.004,-14.528,37.705,501.699,-226.133,97.555,-191.150,-72.370,-352.930
787,36874.412000,255.002,0.501,25.798,504.666,-222.309,97.666,-45.150,58.630,-244.930
788,36874.434000,248.016,7.515,31.752,500.816,-220.394,100.664,-82.150,124.630,-177.930
789,36874.469000,253.006,20.540,26.791,502.833,-215.560,103.752,-44.150,223.630,-131.930
790,36874.507000,231.049,26.552,22.822,501.776,-222.061,108.488,-30.150,190.630,-41.930
791,36874.547000,216.078,28.556,7.938,503.753,-220.037,112.482,-140.150,103.630,16.070
792,36874.587000,219.072,31.562,21.829,499.752,-227.762,108.326,-332.150,-8.370,222.070
793,36874.626000,235.041,-5.511,40.682,495.755,-235.435,106.138,-368.150,-45.370,386.070
794,36874.667000,246.020,5.511,30.760,488.683,-253.709,97.749,-176.150,-147.370,277.070
795,36874.712000,239.033,12.524,46.636,486.759,-251.977,92.876,-82.150,-280.370,263.070
796,36874.727000,342.830,-77.652,82.357,481.702,-265.442,86.591,-111.150,-368.370,278.070
797,36874.774000,295.922,-58.614,53.581,482.816,-255.893,89.810,383.850,73.630,-245.930
798,36874.805000,231.049,50.599,60.527,482.684,-265.271,92.500,204.850,-65.370,177.070
799,36874.846000,233.045,13.526,57.550,473.774,-277.635,94.108,-115.150,112.630,446.070
800,36874.886000,216.078,-22.544,59.535,473.707,-282.337,94.961,-175.150,270.630,295.070
801,36874.929000,205.099,-76.650,68.465,466.926,-282.249,101.837,-25.150,128.630,15.070
802,36874.970000,250.012,-70.638,54.574,469.821,-283.206,99.848,5.850,-108.370,-89.930
803,36875.5000,256.000,-17.534,42.667,467.852,-285.125,99.791,3.850,27.630,167.070
804,36875.25000,233.045,-36.571,40.682,466.753,-293.702,97.584,-25.150,-66.370,135.070
805,36875.65000,256.000,-36.571,38.698,460.941,-292.865,96.613,-80.150,-72.370,96.070
806,36875.106000,238.035,-37.573,39.690,460.967,-291.000,95.682,-94.150,17.630,92.070
807,36875.147000,244.023,-49.597,44.651,453.052,-301.486,96.360,-60.150,-1.370,104.070
808,36875.187000,256.998,-56.611,44.651,458.888,-300.484,95.414,-62.150,-5.370,93.070
809,36875.227000,243.025,-51.601,41.674,459.753,-307.982,97.175,24.850,131.630,-34.930
810,36875.274000,228.055,-46.591,31.752,460.830,-301.218,102.283,125.850,146.630,-86.930
811,36875.310000,220.070,-49.597,33.736,459.841,-302.991,107.150,191.850,123.630,-82.930
812,36875.325000,211.088,-48.595,24.806,463.803,-298.076,112.211,334.850,-46.370,-114.930
813,36875.365000,217.076,-44.587,30.760,463.784,-299.862,116.096,399.850,-144.370,-144.930
814,36875.405000,244.023,-30.560,24.806,468.810,-287.579,113.495,110.850,-313.370,-189.930
815,36875.445000,248.016,-13.526,38.698,469.840,-282.181,102.827,-103.150,-388.370,-270.930
816,36875.485000,288.936,7.515,93.271,477.686,-274.901,88.289,-300.150,-571.370,-289.930
817,36875.529000,376.764,-40.579,57.550,477.466,-287.721,68.260,-320.150,-586.370,251.070
818,36875.569000,251.010,-89.675,64.496,480.428,-284.737,72.282,251.850,161.630,-145.930
819,36875.605000,201.107,-25.550,30.760,486.384,-276.800,83.333,418.850,42.630,-323.930
820,36875.629000,189.131,54.607,48.620,489.411,-268.354,79.638,62.850,-191.370,24.070
821,36875.669000,278.955,42.583,30.760,487.340,-276.209,69.580,-57.150,-489.370,270.070
822,36875.707000,286.940,-1.503,16.868,484.463,-273.493,66.700,70.850,7.630,-204.930
823,36875.747000,249.014,9.519,25.798,491.266,-273.291,70.651,50.850,21.630,-318.930
824,36875.787000,236.039,5.511,23.814,495.245,-266.617,70.844,121.850,115.630,-206.930
825,36875.827000,233.045,3.507,20.837,498.232,-261.768,73.935,75.850,-22.370,-121.930
826,36875.867000,256.998,14.528,14.884,500.226,-257.985,73.060,8.850,34.630,-20.930
827,36875.887000,254.004,21.542,13.891,497.271,-261.651,78.854,-3.150,228.630,73.070
828,36875.927000,227.057,35.569,22.822,492.428,-261.588,83.766,17.850,162.630,67.070
829,36875.967000,241.029,38.575,9.922,494.245,-270.071,83.533,-286.150,104.630,143.070
830,36876.9000,240.031,18.536,24.806,486.432,-272.335,73.621,-565.150,-13.370,189.070
831,36876.49000,253.006,-4.509,35.721,483.473,-275.292,70.583,-519.150,-11.370,182.070
832,36876.89000,226.058,-11.523,37.705,475.509,-288.720,67.245,-365.150,-0.370,144.070
833,36876.125000,217.076,4.509,28.775,478.470,-284.214,57.539,-377.150,-47.370,100.070
834,36876.171000,271.969,17.534,90.295,470.516,-295.988,45.395,-395.150,-441.370,319.070
835,36876.186000,365.786,-73.644,58.543,477.286,-296.207,33.597,-552.150,-114.370,-219.930
836,36876.226000,218.074,-30.560,46.636,474.372,-296.275,32.607,-531.150,273.630,-123.930
837,36876.266000,250.012,-30.560,35.721,473.395,-296.368,29.652,-522.150,171.630,22.070
838,36876.316000,256.000,-52.603,40.682,473.415,-294.582,25.767,-446.150,289.630,-293.930
839,36876.346000,262.986,-80.658,39.690,475.478,-286.070,25.024,-181.150,91.630,-7.930
840,36876.389000,241.029,-73.644,47.628,475.386,-292.637,26.808,-120.150,74.630,141.070
841,36876.430000,242.027,-36.571,40.682,470.467,-296.619,21.771,-163.150,-25.370,205.070
842,36876.469000,227.057,-20.540,32.744,462.598,-304.216,24.497,-159.150,153.630,208.070
843,36876.489000,231.049,-51.601,51.597,460.684,-302.352,24.546,-139.150,66.630,149.070
844,36876.529000,256.000,-75.648,56.558,461.504,-312.740,24.258,32.850,58.630,70.070
845,36876.569000,237.037,-65.628,57.550,462.596,-304.242,23.513,117.850,18.630,-10.930
846,36876.609000,225.060,-44.587,58.543,464.437,-311.648,28.228,165.850,-58.370,-42.930
847,36876.649000,241.029,-42.583,62.512,465.545,-302.178,28.493,164.850,-78.370,-23.930
848,36876.687000,222.066,-56.611,67.473,469.346,-307.797,28.343,170.850,-86.370,-116.930
849,36876.727000,204.101,-54.607,73.426,469.365,-306.772,31.323,225.850,-145.370,-165.930
850,36876.767000,206.097,-55.609,76.403,473.311,-302.068,28.509,361.850,-342.370,-154.930
851,36876.787000,198.113,-61.620,67.473,474.425,-291.757,24.864,417.850,-426.370,-139.930
852,36876.827000,225.060,-38.575,69.457,474.357,-294.936,11.988,112.850,-646.370,95.070
853,36876.867000,338.838,-6.513,48.620,470.439,-296.227,1.126,-176.150,-728.370,319.070
854,36876.907000,366.784,-4.509,8.930,473.344,-295.503,-8.685,34.850,-100.370,-57.930
855,36876.947000,326.862,-37.573,-40.682,475.368,-290.563,-1.659,168.850,287.630,-259.930
856,36876.987000,236.039,-67.632,-15.876,482.327,-281.430,18.279,499.850,603.630,-317.930
857,36877.27000,213.084,10.521,21.829,483.296,-282.965,31.025,692.850,198.630,-232.930
858,36877.67000,253.006,30.560,11.907,492.178,-274.041,42.108,645.850,-26.370,-164.930
859,36877.87000,235.041,9.519,5.953,493.234,-269.088,50.116,576.850,45.630,-149.930
860,36877.126000,234.043,28.556,0.000,494.246,-266.999,57.061,500.850,27.630,-53.930
861,36877.166000,253.006,42.583,-4.961,493.336,-263.151,60.117,313.850,-29.370,-29.930
862,36877.206000,238.035,18.536,1.984,494.376,-258.409,60.251,-64.150,-4.370,-78.930
863,36877.246000,232.047,8.517,13.891,499.158,-263.095,59.145,-86.150,29.630,-49.930
864,36877.286000,241.029,5.511,23.814,498.264,-258.275,63.212,66.850,76.630,77.070
865,36877.331000,255.002,4.509,23.814,493.329,-264.018,63.044,69.850,57.630,21.070
866,36877.367000,247.018,5.511,30.760,502.133,-259.166,63.194,54.850,87.630,-51.930
867,36877.387000,237.037,7.515,44.651,496.288,-261.061,66.082,172.850,-22.370,31.070
868,36877.429000,236.039,6.513,42.667,494.304,-264.713,71.879,247.850,-35.370,121.070
869,36877.471000,241.029,32.564,56.558,491.352,-267.565,72.778,106.850,63.630,264.070
870,36877.506000,224.062,21.542,64.496,485.425,-275.133,75.508,35.850,113.630,336.070
871,36877.551000,208.094,-0.501,86.326,479.512,-281.730,79.249,-29.150,183.630,485.070
872,36877.592000,233.045,-6.513,81.364,469.741,-286.543,81.066,113.850,51.630,479.070
873,36877.630000,308.897,-41.581,62.512,466.670,-297.853,83.697,276.850,-19.370,244.070
874,36877.669000,297.918,-32.564,16.868,466.788,-290.182,87.845,-76.150,295.630,21.070
875,36877.690000,274.963,4.509,-6.946,464.887,-288.161,93.800,25.850,216.630,-12.930
876,36877.730000,327.860,-7.515,-25.798,464.857,-290.078,92.763,-292.150,-72.370,-11.930
877,36877.770000,312.889,-45.589,-23.814,462.835,-294.231,79.857,-670.150,104.630,-31.930
878,36877.810000,230.051,-28.556,-0.992,461.761,-300.181,69.854,-703.150,-14.370,19.070
879,36877.850000,237.037,-66.630,0.992,462.797,-295.492,68.019,-399.150,152.630,70.070
880,36877.890000,222.066,-90.677,8.930,455.925,-300.422,63.936,-159.150,166.630,25.070
881,36877.930000,226.058,-65.628,15.876,456.906,-300.276,68.859,-32.150,106.630,84.070
882,36877.967000,234.043,-27.554,15.876,455.882,-304.046,69.737,-21.150,-9.370,110.070
883,36877.989000,241.029,-20.540,19.845,455.876,-304.125,66.783,-75.150,0.630,22.070
884,36878.29000,237.037,-36.571,22.822,457.772,-306.987,64.740,-119.150,23.630,-90.930
885,36878.69000,256.000,-56.611,24.806,460.820,-297.516,64.025,-126.150,-37.370,-68.930
886,36878.109000,256.000,-74.646,50.605,463.578,-307.903,62.757,-107.150,27.630,-89.930
887,36878.154000,232.047,-72.642,51.597,462.798,-294.704,62.139,145.850,87.630,-181.930
888,36878.194000,211.088,-64.626,43.659,461.867,-292.669,68.096,172.850,-69.370,-156.930
889,36878.229000,217.076,-43.585,40.682,469.752,-284.101,66.380,322.850,-208.370,-110.930
890,36878.249000,249.014,-24.548,30.760,465.806,-288.044,62.329,159.850,-202.370,-20.930
891,36878.289000,232.047,-39.577,34.729,469.856,-276.615,63.638,202.850,-140.370,-107.930
892,36878.329000,245.021,-37.573,35.721,475.623,-280.341,62.560,75.850,-224.370,-268.930
893,36878.369000,264.982,-24.548,49.612,476.798,-265.408,55.109,-61.150,-181.370,-313.930
894,36878.409000,261.988,-9.519,69.457,484.588,-263.433,54.193,-205.150,88.630,-237.930
895,36878.449000,302.908,9.519,59.535,487.557,-258.822,48.425,-553.150,96.630,17.070
896,36878.491000,268.975,-32.564,51.597,485.606,-258.981,43.499,-645.150,252.630,30.070
897,36878.531000,297.918,-63.624,2.977,483.587,-263.842,39.426,-419.150,90.630,67.070
898,36878.551000,238.035,-79.656,-11.907,484.496,-269.238,49.113,322.850,478.630,251.070
899,36878.591000,202.105,-38.575,-14.884,483.789,-252.782,64.324,904.850,217.630,-200.930
900,36878.631000,231.049,51.601,7.938,495.488,-249.648,69.349,565.850,-177.370,-231.930
901,36878.671000,254.004,81.659,7.938,489.757,-243.164,67.553,319.850,-285.370,-108.930
902,36878.711000,264.982,64.626,1.984,494.661,-239.365,65.699,241.850,-27.370,-197.930
903,36878.751000,270.971,5.511,-5.953,498.742,-225.992,69.029,-7.150,-11.370,-331.930
904,36878.791000,261.988,-2.505,6.946,505.611,-220.328,65.264,-54.150,87.630,-323.930
905,36878.860000,251.010,-1.503,23.814,503.672,-220.329,66.244,81.850,152.630,-237.930
906,36878.867000,252.008,7.515,30.760,512.587,-208.673,73.468,197.850,119.630,-108.930
907,36878.889000,255.002,22.544,31.752,509.636,-212.286,81.232,268.850,177.630,-68.930
908,36878.929000,243.025,35.569,38.698,510.678,-208.279,89.214,61.850,266.630,-15.930
909,36878.970000,230.051,23.546,36.713,511.629,-210.052,93.101,38.850,246.630,91.070
910,36879.10000,223.064,20.540,29.767,506.858,-205.208,100.113,0.850,337.630,143.070
911,36879.50000,237.037,20.540,34.729,503.764,-218.356,104.660,15.850,252.630,182.070
912,36879.90000,220.070,17.534,42.667,492.914,-231.483,114.112,-171.150,354.630,480.070
913,36879.130000,202.105,24.548,69.457,484.994,-242.809,118.702,-317.150,336.630,507.070
914,36879.150000,267.977,-29.558,57.550,487.893,-243.714,118.682,-102.150,158.630,173.070
915,36879.190000,265.980,-59.616,48.620,483.016,-245.621,120.588,-129.150,180.630,-116.930
916,36879.230000,273.965,-6.513,43.659,488.991,-235.136,120.889,-0.150,7.630,-78.930
917,36879.270000,273.965,-15.530,37.705,487.893,-243.714,118.682,-253.150,-96.370,1.070
918,36879.310000,277.957,-22.544,77.395,485.043,-238.344,108.990,-310.150,-313.370,-88.930
919,36879.350000,255.002,-6.513,56.558,488.904,-239.340,105.035,32.850,-72.370,-155.930
920,36879.390000,213.084,-2.505,55.566,491.861,-236.409,107.088,116.850,-70.370,-2.930
921,36879.436000,232.047,-2.505,45.643,492.751,-241.282,101.053,64.850,-193.370,88.070
922,36879.451000,264.982,5.511,42.667,492.768,-239.522,96.184,50.850,-213.370,-63.930
923,36879.491000,261.988,11.523,42.667,496.745,-232.874,95.392,22.850,-52.370,-177.930
924,36879.531000,249.014,-0.501,35.721,490.892,-234.874,94.342,82.850,-34.370,-240.930
925,36879.571000,253.006,0.501,22.822,497.863,-223.272,100.579,158.850,17.630,-180.930
926,36879.611000,252.008,4.509,23.814,494.875,-228.908,103.368,158.850,71.630,-114.930
927,36879.651000,250.012,14.528,24.806,497.822,-226.871,107.364,138.850,198.630,-36.930
928,36879.691000,232.047,25.550,34.729,493.950,-226.794,112.277,74.850,204.630,11.070
929,36879.739000,235.041,25.550,21.829,495.029,-220.003,118.370,-32.150,114.630,25.070
930,36879.754000,238.035,27.554,17.860,488.136,-226.745,117.187,-155.150,127.630,66.070
931,36879.789000,225.060,28.556,20.837,491.977,-229.527,117.116,-371.150,58.630,184.070
932,36879.829000,234.043,14.528,33.736,484.047,-240.984,116.784,-248.150,-96.370,269.070
933,36879.871000,232.047,-9.519,14.884,485.902,-245.922,107.797,-279.150,-197.370,242.070
934,36879.911000,240.031,-3.507,78.388,479.769,-266.887,104.253,-145.150,-242.370,229.070
935,36879.951000,381.754,-79.656,63.504,481.786,-259.742,87.734,-118.150,-584.370,-77.930
936,36879.991000,219.072,-12.524,84.341,478.980,-253.032,92.834,343.850,76.630,-442.930
937,36880.31000,287.938,19.538,55.566,481.784,-259.769,86.749,-99.150,-350.370,346.070
938,36880.51000,237.037,-32.564,52.589,472.883,-271.240,86.415,-135.150,117.630,471.070
939,36880.96000,207.096,-59.616,60.527,468.863,-281.513,93.008,-11.150,45.630,228.070
940,36880.142000,221.068,-82.661,52.589,467.873,-282.551,90.027,54.850,-182.370,158.070
941,36880.171000,259.992,-45.589,49.612,467.867,-282.630,87.074,106.850,-102.370,186.070
942,36880.211000,245.021,-33.566,57.550,465.757,-294.819,91.649,96.850,11.630,168.070
943,36880.251000,236.039,-35.569,54.574,463.839,-293.008,89.729,54.850,-89.370,91.070
944,36880.291000,246.020,-29.558,45.643,462.878,-292.129,87.785,-60.150,36.630,42.070
945,36880.331000,230.051,-47.593,48.620,459.000,-292.131,89.745,-78.150,107.630,35.070
946,36880.351000,246.020,-58.614,47.628,455.980,-299.711,90.513,-18.150,-25.370,84.070
947,36880.391000,244.023,-54.607,44.651,452.133,-297.769,94.495,27.850,4.630,95.070
948,36880.431000,238.035,-53.605,41.674,453.966,-305.281,95.273,32.850,13.630,87.070
949,36880.471000,249.014,-48.595,34.729,455.903,-305.306,93.308,64.850,60.630,35.070
950,36880.512000,232.047,-45.589,26.791,452.046,-304.257,99.232,176.850,175.630,-29.930
951,36880.552000,221.068,-46.591,20.837,455.955,-303.099,105.173,186.850,161.630,-26.930
952,36880.592000,229.053,-44.587,24.806,457.945,-300.129,109.193,140.850,95.630,-41.930
953,36880.632000,218.074,-65.628,44.651,454.142,-295.324,114.239,215.850,-121.370,-208.930
954,36880.652000,242.027,-56.611,43.659,461.924,-293.454,109.386,311.850,-309.370,-339.930
955,36880.692000,252.008,-10.521,59.535,470.858,-279.252,105.861,126.850,-437.370,-184.930
956,36880.731000,309.895,8.517,58.543,472.716,-282.614,85.115,-205.150,-715.370,83.070
957,36880.772000,309.895,-54.607,47.628,471.614,-291.244,80.939,-82.150,-217.370,154.070
958,36880.810000,251.010,-68.634,35.721,477.526,-284.647,77.198,199.850,-39.370,-349.930
959,36880.851000,240.031,-19.538,52.589,483.436,-278.838,79.337,87.850,48.630,-369.930
960,36880.891000,203.103,11.523,61.519,485.480,-272.112,82.478,108.850,-80.370,-206.930
961,36880.911000,212.086,43.585,48.620,490.366,-269.312,78.630,193.850,-244.370,-94.930
962,36880.954000,277.957,33.566,21.829,490.238,-277.114,69.560,26.850,-435.370,141.070
963,36880.992000,319.875,-0.501,0.000,493.085,-280.987,64.539,-73.150,-225.370,-44.930
964,36881.32000,267.977,3.507,18.853,493.276,-268.536,70.787,-131.150,182.630,-300.930
965,36881.72000,244.023,22.544,29.767,496.194,-267.654,66.882,-209.150,52.630,-203.930
966,36881.109000,240.031,12.524,25.798,500.214,-258.143,67.153,-144.150,112.630,-141.930
967,36881.151000,249.014,1.503,19.845,503.998,-264.733,65.993,-209.150,101.630,-144.930
968,36881.199000,244.023,11.523,22.822,501.245,-254.267,70.214,-194.150,131.630,-145.930
969,36881.214000,235.041,20.540,21.829,503.189,-253.452,64.338,-160.150,22.630,-117.930
970,36881.254000,253.006,18.536,16.868,504.200,-250.602,64.419,-192.150,28.630,-25.930
971,36881.306000,256.000,13.526,10.915,506.008,-259.978,66.129,-164.150,120.630,52.070
972,36881.331000,230.051,17.534,15.876,503.159,-256.131,70.165,-171.150,194.630,121.070
973,36881.372000,230.051,28.556,17.860,500.110,-265.629,69.896,-236.150,129.630,184.070
974,36881.425000,223.064,19.538,18.853,493.264,-268.693,64.881,-319.150,-59.370,237.070
975,36881.454000,239.033,1.503,17.860,489.302,-273.608,59.820,-317.150,-128.370,311.070
976,36881.494000,255.002,-11.523,20.837,483.242,-289.031,51.512,-342.150,-167.370,340.070
977,36881.514000,246.020,-17.534,49.612,480.273,-292.882,50.416,-60.150,-119.370,337.070
978,36881.554000,320.873,-84.665,37.705,474.353,-298.822,43.355,-64.150,-452.370,8.070
979,36881.594000,263.984,-6.513,23.814,480.304,-289.415,38.709,7.850,-33.370,-238.930
980,36881.634000,240.031,60.618,37.705,479.296,-291.452,33.733,-281.150,-173.370,209.070
981,36881.674000,263.984,-3.507,29.767,475.337,-296.340,29.656,-497.150,74.630,177.070
982,36881.714000,237.037,-82.661,48.620,474.405,-293.543,28.748,-350.150,237.630,-238.930
983,36881.760000,245.021,-89.675,36.713,479.290,-290.769,23.916,-86.150,-19.370,-240.930
984,36881.794000,256.000,-38.575,36.713,475.370,-293.609,25.797,45.850,6.630,95.070
985,36881.815000,255.002,-38.575,41.674,471.548,-289.802,28.848,55.850,63.630,136.070
986,36881.852000,256.998,-27.554,33.736,473.401,-296.289,32.605,78.850,35.630,87.070
987,36881.892000,238.035,-29.558,42.667,469.517,-296.370,31.612,42.850,112.630,29.070
988,36881.932000,231.049,-53.605,46.636,465.562,-301.967,36.368,20.850,50.630,79.070
989,36881.972000,241.029,-61.620,52.589,468.407,-306.628,37.227,64.850,-33.370,126.070
990,36882.12000,249.014,-51.601,47.628,464.565,-303.846,37.298,191.850,-6.370,92.070
991,36882.54000,240.031,-37.573,42.667,467.525,-300.889,40.336,164.850,-20.370,61.070
992,36882.95000,236.039,-24.548,42.667,464.560,-304.686,41.209,137.850,-55.370,45.070
993,36882.115000,244.023,-28.556,41.674,463.642,-300.944,40.328,97.850,-98.370,33.070
994,36882.154000,244.023,-43.585,43.659,465.519,-305.592,42.169,57.850,-123.370,-42.930
995,36882.192000,255.002,-38.575,38.698,466.564,-300.009,38.391,29.850,-148.370,-46.930
996,36882.235000,246.020,-25.550,39.690,467.538,-299.182,33.498,-9.150,-96.370,-53.930
997,36882.271000,242.027,-30.560,44.651,472.389,-299.139,32.524,-7.150,-69.370,-79.930
998,36882.311000,256.998,-37.573,39.690,473.305,-302.908,32.420,-36.150,-77.370,-81.930
999,36882.351000,243.025,-36.571,39.690,474.439,-291.573,31.754,17.850,-37.370,-113.930
1000,36882.391000,236.039,-39.577,34.729,477.303,-294.448,28.728,48.850,-46.370,-121.930
1001,36882.412000,239.033,-42.583,32.744,479.274,-292.503,29.769,35.850,-60.370,-129.930
1002,36882.452000,244.023,-48.595,37.705,482.249,-287.812,26.954,89.850,-45.370,-196.930
1003,36882.494000,242.027,-38.575,50.605,485.359,-274.453,30.281,109.850,17.630,-274.930
1004,36882.534000,266.979,-10.521,39.690,491.156,-276.262,30.241,28.850,-55.370,-149.930
1005,36882.574000,317.879,17.534,38.698,486.336,-273.599,26.372,-210.150,121.630,193.070
1006,36882.614000,294.924,8.517,27.783,491.162,-276.183,33.194,-204.150,399.630,74.070
1007,36882.654000,239.033,-30.560,21.829,489.246,-275.107,39.122,-64.150,298.630,-132.930
1008,36882.704000,223.064,-17.534,24.806,493.180,-272.083,44.131,-20.150,244.630,-114.930
1009,36882.712000,248.016,8.517,17.860,495.169,-269.140,47.167,242.850,83.630,-38.930
1010,36882.752000,272.967,-0.501,-0.992,493.245,-268.169,49.158,146.850,-68.370,-71.930
1011,36882.792000,242.027,-1.503,0.000,494.279,-264.268,53.203,186.850,24.630,-194.930
1012,36882.834000,238.035,17.534,-5.953,499.240,-256.660,52.439,161.850,-176.370,-236.930
1013,36882.872000,252.008,28.556,-6.946,501.140,-258.708,45.500,88.850,-219.370,-235.930
1014,36882.912000,251.010,24.548,-8.930,506.044,-254.909,43.647,42.850,-41.370,-135.930
1015,36882.954000,246.020,18.536,-6.946,507.050,-252.138,40.775,-97.150,-60.370,-63.930
1016,36882.992000,254.004,14.528,8.930,508.115,-245.531,39.977,-125.150,-127.370,-24.930
1017,36883.14000,260.990,0.501,16.868,508.052,-249.419,35.934,42.850,-84.370,-50.930
1018,36883.54000,255.002,-2.505,13.891,514.013,-239.880,36.209,128.850,4.630,-70.930
1019,36883.94000,253.006,22.544,18.853,511.035,-244.623,37.056,132.850,-37.370,-72.930
1020,36883.134000,256.000,23.546,3.969,515.025,-237.029,36.290,56.850,-39.370,-75.930
1021,36883.175000,252.008,18.536,16.868,512.986,-243.703,35.118,55.850,-75.370,-47.930
1022,36883.215000,256.000,8.517,14.884,515.078,-233.273,35.411,88.850,-19.370,-25.930
1023,36883.255000,251.010,12.524,10.915,513.017,-241.759,37.139,108.850,26.630,42.070
1024,36883.295000,266.979,22.544,7.938,512.171,-234.023,44.238,99.850,146.630,91.070
1025,36883.315000,243.025,25.550,19.845,511.099,-242.258,54.827,270.850,340.630,79.070
1026,36883.355000,227.057,12.524,23.814,511.156,-239.210,62.780,345.850,216.630,141.070
1027,36883.395000,226.058,20.540,26.791,506.138,-251.388,69.319,379.850,67.630,192.070
1028,36883.435000,242.027,47.593,24.806,502.263,-251.338,73.248,275.850,-24.370,228.070
1029,36883.475000,285.942,-4.509,26.791,499.318,-254.111,77.100,200.850,68.630,109.070
1030,36883.515000,274.963,-42.583,25.798,499.403,-249.172,85.107,380.850,216.630,-20.930
1031,36883.557000,251.010,-9.519,25.798,498.340,-255.752,86.889,240.850,71.630,6.070
1032,36883.592000,240.031,3.507,26.791,498.382,-253.677,93.832,90.850,35.630,89.070
1033,36883.612000,219.072,-6.513,38.698,494.533,-251.762,96.830,186.850,128.630,187.070
1034,36883.655000,242.027,-16.532,30.760,490.475,-264.057,98.448,64.850,-115.370,268.070
