Sample, Time, ACCX, ACCY, ACCZ, MAGX, MAGY, MAGZ, GYRX, GYRY, GYRZ
0,37408.551000,234.043,-30.560,40.682,448.561,-274.605,79.396,32.850,-75.370,-20.930
1,37408.567000,240.031,-24.548,33.736,451.458,-275.536,78.391,136.850,-111.370,-53.930
2,37408.607000,252.008,-23.546,30.760,450.526,-272.739,77.484,138.850,-106.370,-59.930
3,37408.647000,257.996,-14.528,24.806,452.515,-269.795,80.520,53.850,-85.370,-11.930
4,37408.687000,255.002,-11.523,17.860,452.513,-269.822,79.535,85.850,-7.370,22.070
5,37408.727000,252.008,-16.532,23.814,453.554,-265.053,80.653,96.850,34.630,-11.930
6,37408.767000,253.006,-22.544,27.783,451.562,-268.811,82.513,38.850,31.630,-22.930
7,37408.807000,252.008,-12.524,29.767,451.711,-259.197,88.682,17.850,49.630,-33.930
8,37408.847000,244.023,-10.521,27.783,456.472,-264.933,83.612,-20.150,48.630,-33.930
9,37408.867000,253.006,-13.526,31.752,452.564,-266.853,84.536,-77.150,-18.370,-15.930
10,37408.907000,254.004,-20.540,26.791,455.543,-262.110,83.689,-18.150,32.630,-39.930
11,37408.947000,249.014,-18.536,37.705,461.310,-265.836,82.612,-35.150,25.630,-64.930
12,37408.982000,249.014,-11.523,38.698,453.678,-256.543,80.890,8.850,-10.370,-39.930
13,37409.22000,251.010,-15.530,34.729,460.449,-258.285,82.820,72.850,-20.370,-67.930
14,37409.68000,252.008,-13.526,27.783,459.526,-255.383,85.850,46.850,-33.370,-57.930
15,37409.102000,250.012,-10.521,34.729,458.673,-246.965,83.132,71.850,-16.370,-75.930
16,37409.148000,255.002,-12.524,27.783,460.628,-245.992,83.163,81.850,-1.370,-107.930
17,37409.162000,250.012,-6.513,27.783,462.471,-252.610,81.998,85.850,17.630,-115.930
18,37409.202000,250.012,-4.509,32.744,467.426,-245.843,85.145,106.850,4.630,-132.930
19,37409.247000,240.031,1.503,29.767,468.423,-243.964,84.216,84.850,-38.370,-139.930
20,37409.287000,254.004,-2.505,28.775,472.423,-235.478,81.508,-20.150,-166.370,-127.930
21,37409.326000,255.002,-5.511,33.736,468.397,-245.068,78.283,31.850,-97.370,-104.930
22,37409.363000,242.027,-4.509,35.721,471.381,-240.246,80.390,60.850,-77.370,-26.930
23,37409.403000,255.002,9.519,34.729,472.354,-239.444,74.512,36.850,-118.370,5.070
24,37409.444000,258.994,16.532,28.775,475.374,-231.864,73.744,55.850,-100.370,-41.930
25,37409.464000,259.992,16.532,20.837,474.444,-229.041,73.821,-3.150,-81.370,-139.930
26,37409.503000,252.008,17.534,26.791,480.319,-225.229,71.970,-57.150,-43.370,-123.930
27,37409.543000,253.006,12.524,28.775,479.280,-229.971,71.836,-38.150,6.630,-109.930
28,37409.585000,249.014,14.528,24.806,482.208,-228.958,72.853,22.850,41.630,-92.930
29,37409.626000,251.010,15.530,24.806,482.280,-224.177,74.953,44.850,36.630,-51.930
30,37409.666000,259.992,17.534,19.845,482.349,-219.449,75.085,-6.150,121.630,-17.930
31,37409.712000,258.994,31.562,25.798,480.292,-227.882,78.781,-87.150,185.630,-17.930
32,37409.747000,248.016,28.556,20.837,479.477,-217.441,81.038,-155.150,226.630,-40.930
33,37409.767000,242.027,19.538,18.853,481.344,-222.982,84.821,-228.150,160.630,-45.930
34,37409.807000,237.037,19.538,16.868,479.377,-224.874,85.749,-239.150,139.630,14.070
35,37409.847000,236.039,22.544,3.969,475.453,-227.766,85.662,-340.150,86.630,81.070
36,37409.894000,231.049,17.534,23.814,473.446,-231.708,80.631,-234.150,80.630,138.070
37,37409.923000,241.029,14.528,22.822,470.468,-236.451,81.477,-127.150,28.630,234.070
38,37409.963000,274.963,-26.552,54.574,466.532,-240.262,82.348,124.850,21.630,246.070
39,37410.8000,302.908,-64.626,40.682,469.383,-244.844,86.160,254.850,87.630,4.070
40,37410.48000,220.070,-10.521,33.736,467.429,-246.578,92.994,306.850,275.630,-58.930
41,37410.68000,208.094,39.577,34.729,466.456,-247.379,98.872,100.850,71.630,131.070
42,37410.108000,234.043,33.566,35.721,459.613,-251.179,101.705,189.850,25.630,171.070
43,37410.148000,255.002,4.509,65.488,460.682,-244.520,102.876,60.850,-55.370,69.070
44,37410.188000,261.988,-21.542,63.504,455.714,-252.206,100.686,-77.150,-92.370,-30.930
45,37410.228000,241.029,-20.540,60.527,459.625,-250.260,100.747,-184.150,-17.370,16.070
46,37410.268000,245.021,-10.521,38.698,455.634,-257.092,94.649,-235.150,-109.370,59.070
47,37410.308000,253.006,-13.526,37.705,457.583,-256.198,91.726,-202.150,-131.370,12.070
48,37410.323000,251.010,-28.556,38.698,462.477,-252.531,84.951,-188.150,-70.370,-16.930
49,37410.367000,245.021,-30.560,30.760,463.349,-259.163,83.784,-67.150,-43.370,-14.930
50,37410.406000,248.016,-27.554,35.721,463.389,-256.353,82.879,-77.150,-165.370,68.070
51,37410.448000,259.992,-29.558,38.698,460.354,-264.117,76.756,-29.150,-187.370,94.070
52,37410.488000,255.002,-28.556,35.721,456.468,-264.224,74.780,90.850,-106.370,68.070
53,37410.523000,247.018,-26.552,29.767,456.578,-256.659,74.990,152.850,-88.370,61.070
54,37410.563000,245.021,-26.552,25.798,455.456,-267.075,74.699,194.850,-56.370,70.070
55,37410.603000,237.037,-29.558,24.806,458.525,-256.553,77.947,185.850,-32.370,14.070
56,37410.628000,256.998,-19.538,19.845,459.431,-260.453,72.922,42.850,-170.370,-5.930
57,37410.668000,300.912,11.523,32.744,458.458,-261.255,78.800,117.850,66.630,29.070
58,37410.718000,283.945,3.507,53.581,456.492,-263.147,79.728,-44.150,272.630,248.070
59,37410.748000,217.076,-32.564,51.597,450.550,-272.423,89.296,38.850,463.630,178.070
60,37410.788000,190.129,-49.597,49.612,450.553,-273.158,97.144,150.850,209.630,40.070
61,37410.833000,223.064,-36.571,49.612,448.637,-271.320,96.208,123.850,-57.370,-95.930
62,37410.868000,263.984,5.511,50.605,454.632,-259.811,99.489,117.850,-56.370,-139.930
63,37410.909000,297.918,20.540,46.636,451.633,-265.579,97.357,100.850,4.630,-45.930
64,37410.929000,249.014,5.511,50.605,451.689,-262.558,104.326,-62.150,298.630,110.070
65,37410.969000,232.047,-23.546,55.566,446.710,-271.925,109.959,65.850,150.630,4.070
66,37411.13000,238.035,-23.546,47.628,450.693,-265.198,112.120,71.850,11.630,-5.930
67,37411.48000,243.025,-4.509,37.705,448.677,-270.032,109.031,-5.150,-32.370,45.070
68,37411.89000,244.023,-1.503,38.698,453.654,-261.453,109.278,39.850,-74.370,30.070
69,37411.129000,252.008,-1.503,23.814,450.710,-263.438,107.251,30.850,-73.370,-37.930
70,37411.164000,251.010,3.507,31.752,454.577,-264.355,106.248,-53.150,-43.370,24.070
71,37411.204000,259.992,-3.507,43.659,449.696,-266.315,106.186,-1.150,18.630,36.070
72,37411.227000,251.010,-5.511,42.667,447.759,-266.290,108.150,-35.150,33.630,22.070
73,37411.267000,242.027,-11.523,45.643,448.627,-272.975,105.015,-102.150,18.630,66.070
74,37411.319000,247.018,-26.552,52.589,446.727,-270.165,105.090,-39.150,-38.370,68.070
75,37411.346000,244.023,-21.542,41.674,449.523,-277.768,101.932,-26.150,-18.370,57.070
76,37411.385000,250.012,-11.523,46.636,445.737,-271.204,102.108,-68.150,-7.370,61.070
77,37411.426000,243.025,-7.515,42.667,445.661,-276.798,104.904,-101.150,-5.370,10.070
78,37411.466000,237.037,-9.519,42.667,443.750,-274.121,100.057,-204.150,-62.370,-18.930
79,37411.506000,247.018,-14.528,41.674,448.637,-271.320,96.208,-229.150,-83.370,-40.930
80,37411.526000,253.006,-18.536,36.713,443.746,-273.412,91.224,-246.150,-16.370,-36.930
81,37411.566000,248.016,-28.556,33.736,446.603,-276.392,84.261,-240.150,-25.370,0.070
82,37411.606000,262.986,-42.583,39.690,444.597,-281.095,86.094,-108.150,-62.370,18.070
83,37411.653000,262.986,-27.554,31.752,444.622,-279.230,85.162,-85.150,21.630,84.070
84,37411.689000,246.020,-21.542,36.713,441.675,-281.268,81.166,-102.150,-1.370,91.070
85,37411.729000,245.021,-34.568,34.729,441.665,-282.161,83.108,-22.150,-40.370,88.070
86,37411.768000,250.012,-44.587,31.752,438.680,-286.983,81.002,131.850,-28.370,86.070
87,37411.809000,237.037,-38.575,31.752,444.510,-286.821,83.967,90.850,-21.370,74.070
88,37411.829000,238.035,-27.554,43.659,440.641,-285.931,83.985,155.850,-114.370,16.070
89,37411.864000,253.006,-28.556,36.713,442.618,-283.907,87.979,196.850,-67.370,-15.930
90,37411.906000,254.004,-30.560,36.713,441.602,-286.810,85.930,219.850,-44.370,-37.930
91,37411.946000,262.986,-18.536,31.752,439.771,-279.272,86.136,80.850,-46.370,17.070
92,37411.997000,249.014,-16.532,31.752,441.632,-284.892,86.967,97.850,6.630,46.070
93,37412.28000,240.031,-25.550,44.651,442.589,-285.824,86.942,102.850,-116.370,11.070
94,37412.68000,239.033,-26.552,36.713,443.612,-282.054,86.065,70.850,-138.370,-9.930
95,37412.116000,246.020,-28.556,34.729,444.573,-282.172,81.146,44.850,-179.370,-30.930
96,37412.124000,251.010,-19.538,21.829,443.577,-284.051,82.075,-31.150,-102.370,-48.930
97,37412.171000,258.994,-8.517,25.798,447.420,-286.045,76.125,-120.150,-114.370,-22.930
98,37412.211000,261.988,-24.548,27.783,448.408,-285.033,78.122,-89.150,19.630,-51.930
99,37412.251000,242.027,-24.548,29.767,448.510,-277.573,74.395,-147.150,106.630,-65.930
100,37412.293000,250.012,-15.530,30.760,445.635,-274.830,72.499,-160.150,-4.370,-60.930
101,37412.329000,256.000,-14.528,21.829,447.547,-276.720,71.466,-171.150,-20.370,-87.930
102,37412.369000,251.010,-18.536,22.822,449.492,-275.879,66.575,-190.150,36.630,-92.930
103,37412.409000,250.012,-20.540,22.822,450.510,-272.949,69.609,-170.150,66.630,-91.930
104,37412.429000,253.006,-24.548,26.791,451.492,-272.016,68.653,-133.150,87.630,-71.930
105,37412.469000,255.002,-31.562,35.721,452.449,-272.948,68.629,-114.150,103.630,-50.930
106,37412.509000,248.016,-25.550,33.736,452.487,-270.164,66.739,-78.150,114.630,-31.930
107,37412.556000,251.010,-13.526,34.729,452.479,-271.031,69.666,-52.150,63.630,-1.930
108,37412.586000,258.994,-14.528,36.713,454.406,-271.949,69.643,-86.150,102.630,-23.930
109,37412.625000,242.027,-22.544,38.698,449.532,-273.830,72.534,-56.150,101.630,-61.930
110,37412.667000,244.023,-20.540,35.721,450.595,-267.249,70.751,6.850,37.630,-17.930
111,37412.707000,258.994,-21.542,33.736,457.191,-281.232,74.308,36.850,65.630,7.070
112,37412.727000,248.016,-20.540,36.713,452.544,-267.116,74.693,53.850,74.630,7.070
113,37412.769000,245.021,-17.534,40.682,455.352,-274.561,77.441,151.850,19.630,-2.930
114,37412.809000,248.016,-9.519,40.682,457.386,-268.728,82.525,144.850,34.630,10.070
115,37412.847000,250.012,-10.521,40.682,456.329,-274.468,80.396,82.850,13.630,8.070
116,37412.887000,255.002,-14.528,42.667,455.488,-265.893,83.584,115.850,1.630,-3.930
117,37412.927000,249.014,-12.524,36.713,452.511,-270.609,85.415,130.850,13.630,-0.930
118,37412.969000,245.021,-7.515,32.744,455.510,-264.842,87.548,73.850,-7.370,5.070
119,37413.9000,256.000,-5.511,30.760,453.552,-265.841,86.533,35.850,19.630,2.070
120,37413.29000,253.006,-2.505,30.760,450.627,-266.828,86.501,-82.150,37.630,-15.930
121,37413.67000,249.014,-2.505,34.729,453.482,-270.596,85.417,-131.150,9.630,-42.930
122,37413.106000,245.021,-10.521,39.690,449.636,-267.866,83.519,-162.150,10.630,-68.930
123,37413.147000,246.020,-11.523,35.721,454.533,-264.934,84.593,-206.150,13.630,-45.930
124,37413.187000,256.000,-14.528,35.721,454.493,-266.984,78.634,-252.150,18.630,-29.930
125,37413.234000,253.006,-16.532,42.667,455.515,-263.240,76.773,-273.150,90.630,-42.930
126,37413.278000,244.023,-19.538,51.597,455.421,-269.833,77.573,-218.150,75.630,-26.930
127,37413.309000,242.027,-17.534,46.636,457.425,-265.156,74.755,-183.150,48.630,12.070
128,37413.329000,247.018,-21.542,47.628,454.440,-269.978,72.649,-140.150,11.630,-5.930
129,37413.376000,250.012,-22.544,48.620,458.405,-264.250,72.815,-79.150,-4.370,-6.930
130,37413.410000,246.020,-21.542,46.636,458.211,-277.515,71.462,1.850,-30.370,-10.930
131,37413.457000,249.014,-21.542,46.636,457.444,-263.370,70.871,70.850,-50.370,3.070
132,37413.497000,248.016,-15.530,40.682,453.520,-266.262,70.784,135.850,-34.370,30.070
133,37413.532000,244.023,-15.530,38.698,456.468,-264.224,74.780,159.850,-47.370,39.070
134,37413.572000,252.008,-12.524,36.713,455.413,-269.938,73.635,178.850,-43.370,41.070
135,37413.607000,255.002,-14.528,38.698,460.370,-263.145,77.767,156.850,-25.370,42.070
136,37413.627000,250.012,-12.524,41.674,459.278,-271.643,78.512,158.850,31.630,29.070
137,37413.667000,244.023,-10.521,43.659,456.344,-273.497,81.407,145.850,32.630,40.070
138,37413.707000,246.020,-10.521,39.690,458.301,-272.497,82.421,118.850,-20.370,43.070
139,37413.749000,247.018,-12.524,42.667,453.544,-265.946,82.596,72.850,-43.370,29.070
140,37413.792000,256.000,-8.517,37.705,451.580,-267.813,84.508,27.850,22.630,-4.930
141,37413.831000,249.014,-9.519,39.690,453.537,-266.813,85.522,-25.150,28.630,-8.930
142,37413.872000,245.021,-10.521,40.682,453.452,-272.513,84.380,-48.150,-61.370,-4.930
143,37413.913000,255.002,-15.530,44.651,453.511,-267.917,79.590,-50.150,-12.370,-14.930
144,37413.927000,246.020,-25.550,38.698,458.370,-267.769,82.553,11.850,2.630,-30.930
145,37413.967000,245.021,-22.544,42.667,458.370,-267.769,82.553,8.850,-38.370,12.070
146,37414.7000,255.002,-17.534,46.636,454.513,-265.959,81.613,46.850,-19.370,18.070
147,37414.48000,247.018,-10.521,38.698,453.531,-266.892,82.569,21.850,8.630,39.070
148,37414.88000,249.014,-12.524,39.690,451.582,-267.786,85.492,10.850,-22.370,28.070
149,37414.132000,251.010,-22.544,38.698,452.487,-271.687,80.467,13.850,1.630,13.070
150,37414.171000,249.014,-15.530,41.674,453.529,-266.918,81.585,51.850,10.630,24.070
151,37414.212000,250.012,-13.526,40.682,448.544,-276.364,84.265,39.850,18.630,31.070
152,37414.229000,249.014,-16.532,44.651,451.532,-270.728,81.476,57.850,19.630,14.070
153,37414.282000,251.010,-17.534,44.651,454.450,-270.608,84.435,73.850,11.630,3.070
154,37414.310000,246.020,-8.517,39.690,457.396,-268.597,87.446,13.850,12.630,1.070
155,37414.352000,254.004,-7.515,41.674,454.374,-276.203,87.230,-22.150,0.630,-1.930
156,37414.388000,254.004,-10.521,37.705,454.456,-270.529,87.388,-53.150,52.630,10.070
157,37414.428000,250.012,-17.534,42.667,449.527,-276.193,90.173,-55.150,52.630,2.070
158,37414.468000,241.029,-12.524,44.651,449.521,-276.272,87.220,-116.150,35.630,11.070
159,37414.507000,251.010,-16.532,42.667,450.515,-274.419,85.306,-83.150,-9.370,17.070
160,37414.527000,251.010,-13.526,39.690,452.513,-270.583,86.399,-88.150,12.630,13.070
161,37414.568000,248.016,-11.523,38.698,450.511,-274.472,83.337,-97.150,5.630,20.070
162,37414.608000,253.006,-17.534,42.667,451.487,-274.379,86.292,-35.150,-9.370,19.070
163,37414.648000,248.016,-19.538,37.705,449.462,-280.107,85.146,-20.150,28.630,8.070
164,37414.690000,249.014,-17.534,43.659,450.522,-273.553,82.379,57.850,16.630,29.070
165,37414.731000,248.016,-21.542,43.659,449.420,-282.944,85.067,69.850,26.630,31.070
166,37414.771000,250.012,-13.526,46.636,443.669,-278.245,87.155,78.850,8.630,39.070
167,37414.812000,252.008,-15.530,41.674,445.646,-276.221,91.149,78.850,13.630,44.070
168,37414.832000,243.025,-21.542,39.690,446.640,-274.369,89.235,90.850,1.630,32.070
169,37414.872000,248.016,-29.558,40.682,447.597,-275.301,89.211,193.850,-83.370,27.070
170,37414.913000,245.021,-19.538,38.698,441.665,-282.922,89.972,140.850,-73.370,101.070
171,37414.948000,227.057,-18.536,41.674,443.681,-278.088,93.061,132.850,-91.370,60.070
172,37414.989000,231.049,-22.544,40.682,441.667,-282.896,90.957,240.850,-141.370,-66.930
173,37415.33000,255.002,-6.513,28.775,450.531,-274.209,93.180,152.850,-191.370,-96.930
174,37415.73000,257.996,-10.521,26.791,448.564,-275.340,87.244,113.850,-196.370,-35.930
175,37415.88000,262.986,-25.550,15.876,451.546,-270.544,88.366,112.850,-142.370,-41.930
176,37415.128000,262.986,-33.566,25.798,446.713,-269.588,91.335,211.850,-17.370,-26.930
177,37415.168000,264.982,-43.585,35.721,447.552,-278.952,94.027,237.850,-59.370,131.070
178,37415.209000,267.977,-20.540,42.667,439.828,-276.225,94.090,280.850,8.630,171.070
179,37415.252000,252.008,-3.507,35.721,443.754,-274.068,102.025,176.850,162.630,70.070
180,37415.292000,243.025,-16.532,31.752,443.716,-277.640,109.795,81.850,96.630,50.070
181,37415.332000,240.031,-30.560,34.729,442.798,-273.898,108.914,-61.150,119.630,44.070
182,37415.393000,236.039,-32.564,41.674,442.660,-283.354,108.651,-91.150,58.630,65.070
183,37415.399000,239.033,-42.583,32.744,435.907,-280.613,108.715,18.850,21.630,14.070
184,37415.434000,249.014,-29.558,22.822,440.813,-276.788,107.846,-25.150,-8.370,1.070
185,37415.474000,251.010,-7.515,18.853,438.776,-283.435,107.658,-74.150,23.630,49.070
186,37415.508000,256.000,-13.526,25.798,440.772,-279.625,107.767,-122.150,155.630,-4.930
187,37415.552000,257.996,-34.568,30.760,438.878,-276.737,110.795,-28.150,204.630,-86.930
188,37415.592000,258.994,-34.568,27.783,440.818,-277.497,116.679,84.850,237.630,-124.930
189,37415.632000,243.025,-11.523,21.829,439.877,-276.354,124.578,132.850,149.630,-123.930
190,37415.672000,236.039,-18.536,24.806,440.964,-268.697,127.744,199.850,145.630,-81.930
191,37415.692000,260.990,-19.538,31.752,440.001,-269.366,138.543,278.850,261.630,-154.930
192,37415.731000,248.016,-0.501,25.798,444.016,-260.695,142.726,216.850,348.630,-180.930
193,37415.779000,211.088,-13.526,26.791,442.099,-260.407,154.534,261.850,128.630,-189.930
194,37415.808000,253.006,-18.536,23.814,446.111,-251.762,157.732,162.850,44.630,-193.930
195,37415.849000,265.980,1.503,30.760,446.964,-260.180,160.450,112.850,119.630,-146.930
196,37415.889000,296.920,-6.513,52.589,443.248,-248.861,161.742,233.850,-1.370,55.070
197,37415.944000,280.951,-35.569,81.364,443.141,-257.161,169.380,135.850,179.630,190.070
198,37415.972000,259.992,-29.558,71.442,437.354,-255.221,174.342,319.850,143.630,336.070
199,37415.992000,264.982,-37.573,67.473,436.274,-263.561,180.994,227.850,229.630,268.070
200,37416.32000,251.010,-28.556,81.364,429.564,-258.719,188.986,85.850,222.630,106.070
201,37416.69000,203.103,10.521,93.271,427.558,-263.422,190.819,155.850,41.630,77.070
202,37416.109000,177.154,24.548,80.372,428.515,-264.354,190.795,95.850,-89.370,126.070
203,37416.152000,212.086,25.550,73.426,427.444,-270.278,181.776,-268.150,-264.370,228.070
204,37416.192000,294.924,-3.507,91.287,427.267,-281.784,175.554,-229.150,-205.370,143.070
205,37416.232000,246.020,-31.562,101.209,423.488,-274.353,172.803,-168.150,-9.370,-108.930
206,37416.272000,227.057,-18.536,109.147,431.191,-278.892,175.641,109.850,-6.370,-77.930
207,37416.292000,217.076,-13.526,80.372,428.379,-272.261,177.788,172.850,-2.370,0.070
208,37416.332000,220.070,-9.519,90.295,427.397,-273.194,178.744,139.850,-174.370,54.070
209,37416.373000,230.051,-1.503,91.287,430.281,-275.044,178.697,235.850,-200.370,138.070
210,37416.412000,229.053,-1.503,86.326,432.122,-281.689,176.548,269.850,-138.370,109.070
211,37416.458000,247.018,-1.503,84.341,433.101,-280.808,173.623,46.850,-186.370,116.070
212,37416.493000,228.055,-9.519,95.256,427.208,-285.619,173.480,-16.150,-102.370,76.070
213,37416.533000,211.088,-20.540,90.295,433.163,-276.159,170.802,20.850,-33.370,-59.930
214,37416.573000,201.107,-28.556,107.163,433.138,-278.024,171.734,102.850,-250.370,-80.930
215,37416.590000,266.979,-2.505,106.171,429.361,-270.566,169.968,144.850,-268.370,174.070
216,37416.636000,260.990,-9.519,105.178,432.110,-281.085,163.778,-57.150,-84.370,134.070
217,37416.674000,221.068,-22.544,105.178,432.161,-277.355,161.915,-147.150,18.630,-101.930
218,37416.715000,237.037,19.538,72.434,436.138,-270.707,161.123,-284.150,50.630,-119.930
219,37416.749000,240.031,-2.505,51.597,436.112,-271.811,155.190,-405.150,-49.370,-174.930
220,37416.789000,291.930,-20.540,26.791,440.823,-280.490,146.104,-456.150,-231.370,120.070
221,37416.829000,264.982,-44.587,29.767,436.960,-277.997,135.347,-451.150,19.630,91.070
222,37416.869000,275.961,-43.585,19.845,441.654,-288.436,131.130,-358.150,72.630,-58.930
223,37416.889000,246.020,-20.540,22.822,434.990,-279.155,128.427,-202.150,62.630,-65.930
224,37416.937000,228.055,-13.526,18.853,437.896,-279.193,125.480,-214.150,14.630,21.070
225,37416.971000,220.070,-16.532,23.814,438.776,-284.958,121.386,-261.150,-94.370,25.070
226,37417.10000,241.029,-17.534,30.760,438.753,-286.796,123.302,-205.150,-31.370,2.070
227,37417.51000,272.967,-33.566,25.798,438.733,-287.821,120.323,-161.150,135.630,-46.930
228,37417.90000,253.006,-37.573,29.767,440.751,-282.199,117.532,-207.150,146.630,-56.930
229,37417.132000,248.016,-35.569,33.736,436.749,-290.712,119.256,-183.150,45.630,-1.930
230,37417.175000,240.031,-27.554,35.721,435.827,-287.022,116.406,-212.150,104.630,49.070
231,37417.192000,251.010,-32.564,42.667,434.821,-289.032,112.414,-176.150,76.630,-1.930
232,37417.233000,254.004,-27.554,44.651,437.794,-285.130,115.478,-176.150,122.630,-45.930
233,37417.274000,222.066,-26.552,44.651,438.721,-287.979,114.417,-94.150,39.630,-127.930
234,37417.314000,241.029,-28.556,53.581,437.744,-288.072,111.462,-127.150,22.630,-138.930
235,37417.349000,235.041,-26.552,58.543,439.574,-295.636,110.271,-105.150,43.630,-105.930
236,37417.394000,265.980,-32.564,65.488,441.678,-284.287,109.607,-141.150,31.630,-154.930
237,37417.433000,275.961,-22.544,83.349,444.633,-281.382,110.676,-455.150,263.630,-192.930
238,37417.475000,227.057,-12.524,99.225,449.610,-272.803,110.923,-240.150,252.630,-288.930
239,37417.495000,227.057,5.511,105.178,455.513,-267.861,115.988,6.850,312.630,-550.930
240,37417.537000,186.136,-21.542,81.364,456.712,-252.612,120.349,143.850,96.630,-418.930
241,37417.570000,254.004,-52.603,88.310,460.683,-246.804,123.468,200.850,116.630,-59.930
242,37417.610000,274.963,7.515,44.651,455.871,-244.797,130.401,217.850,129.630,47.070
243,37417.650000,273.965,42.583,32.744,458.823,-242.706,136.366,8.850,79.630,-81.930
244,37417.690000,249.014,3.507,27.783,456.817,-247.410,138.199,-131.150,317.630,-33.930
245,37417.730000,255.002,-27.554,10.915,455.817,-249.341,137.160,157.850,-98.370,118.070
246,37417.775000,267.977,-9.519,4.961,450.008,-248.451,138.158,191.850,-167.370,160.070
247,37417.795000,267.977,31.562,21.829,458.795,-244.598,136.313,-38.150,-92.370,36.070
248,37417.835000,248.016,29.558,21.829,459.721,-247.474,134.267,-55.150,-1.370,-101.930
249,37417.875000,237.037,7.515,28.775,457.878,-240.855,135.432,-1.150,8.630,-170.930
250,37417.920000,241.029,6.513,19.845,457.834,-243.719,134.369,-106.150,-117.370,-105.930
251,37417.954000,255.002,21.542,25.798,458.803,-242.970,126.522,-187.150,-70.370,2.070
252,37417.994000,248.016,2.505,31.752,462.585,-249.587,124.377,-148.150,-2.370,77.070
253,37418.35000,256.998,-1.503,24.806,458.704,-249.616,125.354,-112.150,1.630,79.070
254,37418.77000,240.031,13.526,20.837,457.657,-254.463,121.283,-173.150,-16.370,119.070
255,37418.90000,231.049,4.509,17.860,456.753,-249.775,120.428,-192.150,21.630,94.070
256,37418.130000,217.076,10.521,8.930,454.670,-259.311,118.192,-171.150,-29.370,35.070
257,37418.170000,255.002,23.546,26.791,455.650,-257.643,109.388,-241.150,-167.370,84.070
258,37418.228000,333.848,-0.501,86.326,456.505,-265.273,106.226,-292.150,-97.370,204.070
259,37418.255000,317.879,-77.652,68.465,454.587,-263.462,104.306,-197.150,-20.370,-247.930
260,37418.295000,232.047,5.511,39.690,458.387,-269.081,104.156,165.850,-28.370,-118.930
261,37418.335000,250.012,17.534,40.682,454.528,-267.297,102.232,-95.150,22.630,223.070
262,37418.356000,233.045,10.521,78.388,451.577,-270.149,103.131,-290.150,158.630,157.070
263,37418.397000,201.107,-46.591,105.178,446.552,-281.645,99.852,-199.150,118.630,-16.930
264,37418.432000,202.105,-75.648,107.163,449.631,-270.229,101.158,72.850,101.630,-212.930
265,37418.472000,229.053,-36.571,95.256,451.530,-273.826,106.963,190.850,17.630,-144.930
266,37418.512000,272.967,3.507,94.264,453.587,-266.155,110.131,128.850,87.630,100.070
267,37418.552000,239.033,-0.501,78.388,447.630,-275.641,111.824,31.850,123.630,141.070
268,37418.592000,244.023,-13.526,83.349,448.604,-275.575,113.795,-61.150,120.630,98.070
269,37418.632000,226.058,-26.552,82.357,446.547,-284.008,117.491,-33.150,126.630,142.070
270,37418.652000,212.086,-41.581,80.372,441.669,-285.941,118.413,32.850,-8.370,106.070
271,37418.692000,214.082,-26.552,84.341,439.802,-280.400,114.630,51.850,-87.370,64.070
272,37418.740000,204.101,-13.526,87.318,444.683,-278.440,114.692,78.850,-138.370,-110.930
273,37418.775000,235.041,-12.524,79.380,445.577,-284.021,117.489,262.850,-220.370,-211.930
274,37418.815000,269.973,-35.569,84.341,446.746,-270.690,120.813,227.850,11.630,-1.930
275,37418.855000,228.055,-48.595,100.217,447.634,-276.350,120.657,21.850,-31.370,15.070
276,37418.895000,214.082,-3.507,101.209,448.685,-269.927,112.969,3.850,-113.370,-81.930
277,37418.937000,225.060,3.507,94.264,457.374,-272.719,109.955,11.850,-189.370,-150.930
278,37418.962000,236.039,-26.552,94.264,457.507,-263.316,108.249,3.850,-174.370,-187.930
279,37418.997000,226.058,-31.562,86.326,460.448,-261.357,109.292,32.850,-227.370,-117.930
280,37419.34000,232.047,-9.519,91.287,457.548,-259.717,101.464,-11.150,-273.370,-38.930
281,37419.73000,233.045,-7.515,98.233,464.366,-257.021,92.698,-74.150,-303.370,-62.930
282,37419.113000,231.049,-8.517,116.093,466.373,-251.531,84.985,15.850,-350.370,-157.930
283,37419.153000,247.018,-10.521,93.271,468.252,-255.391,80.947,33.850,-262.370,-180.930
284,37419.193000,269.973,-9.519,63.504,470.328,-245.933,80.230,39.850,-63.370,-88.930
285,37419.233000,287.938,-14.528,59.535,471.230,-250.648,80.100,84.850,66.630,225.070
286,37419.253000,296.920,-43.585,18.853,467.327,-253.276,89.856,443.850,217.630,161.070
287,37419.293000,249.014,-13.526,-9.922,468.427,-245.434,99.913,529.850,76.630,-36.930
288,37419.335000,250.012,13.526,24.806,464.415,-254.840,103.579,350.850,67.630,87.070
289,37419.375000,242.027,12.524,26.791,466.483,-247.037,111.668,288.850,123.630,22.070
290,37419.415000,229.053,25.550,19.845,466.420,-251.686,114.489,171.850,30.630,-62.930
291,37419.455000,249.014,11.523,23.814,469.462,-243.055,117.685,59.850,-91.370,-71.930
292,37419.495000,256.998,1.503,29.767,467.473,-245.999,114.649,113.850,16.630,-62.930
293,37419.537000,264.982,12.524,25.798,471.470,-238.326,116.837,7.850,-26.370,-2.930
294,37419.557000,250.012,22.544,43.659,468.475,-244.041,116.673,-77.150,134.630,2.070
295,37419.592000,235.041,10.521,50.605,470.519,-237.315,119.814,38.850,185.630,-62.930
296,37419.632000,256.000,-3.507,57.550,468.533,-240.994,124.626,173.850,122.630,34.070
297,37419.677000,257.996,2.505,51.597,468.590,-237.946,132.580,193.850,147.630,141.070
298,37419.712000,245.021,17.534,56.558,466.594,-241.756,132.471,68.850,154.630,88.070
299,37419.753000,247.018,10.521,63.504,461.806,-237.911,137.488,17.850,123.630,-12.930
300,37419.793000,236.039,-2.505,74.419,462.745,-240.602,142.333,94.850,148.630,6.070
301,37419.837000,227.057,-2.505,65.488,461.808,-238.646,145.336,81.850,151.630,71.070
302,37419.855000,235.041,-2.505,66.481,456.990,-236.718,149.316,50.850,130.630,61.070
303,37419.898000,237.037,-7.515,76.403,457.902,-241.301,154.108,106.850,141.630,68.070
304,37419.932000,249.014,-4.509,78.388,454.994,-241.289,156.071,88.850,138.630,150.070
305,37419.978000,231.049,19.538,69.457,449.084,-247.860,160.796,-45.150,259.630,202.070
306,37420.17000,187.135,22.544,88.310,446.178,-247.822,163.743,-323.150,291.630,323.070
307,37420.57000,195.119,-28.556,83.349,438.110,-268.736,163.148,-303.150,72.630,447.070
308,37420.98000,233.045,-44.587,98.233,434.176,-271.759,158.139,-282.150,-17.370,427.070
309,37420.139000,267.977,-56.611,90.295,429.186,-281.284,157.866,-158.150,103.630,138.070
310,37420.153000,296.920,-50.599,93.271,428.400,-268.926,161.159,105.850,239.630,-167.930
311,37420.193000,273.965,-23.546,53.581,428.441,-266.850,168.102,411.850,146.630,-320.930
312,37420.235000,258.994,-13.526,41.674,433.545,-250.495,176.435,575.850,89.630,-159.930
313,37420.275000,242.027,-2.505,38.698,425.666,-259.746,187.967,414.850,247.630,63.070
314,37420.317000,242.027,-1.503,35.721,426.802,-249.146,195.149,368.850,113.630,53.070
315,37420.362000,245.021,14.528,27.783,430.661,-250.929,197.073,217.850,-112.370,54.070
316,37420.394000,250.012,-19.538,47.628,426.861,-245.310,197.223,285.850,-239.370,42.070
317,37420.434000,249.014,-40.579,43.659,431.703,-246.161,198.191,362.850,-158.370,15.070
318,37420.454000,243.025,-19.538,35.721,435.668,-240.432,198.357,351.850,-180.370,85.070
319,37420.497000,256.000,-13.526,36.713,430.822,-240.396,202.285,337.850,-119.370,149.070
320,37420.537000,244.023,12.524,37.705,426.846,-247.044,203.077,180.850,-114.370,106.070
321,37420.577000,238.035,13.526,36.713,430.842,-238.610,198.400,38.850,-124.370,-20.930
322,37420.617000,239.033,-6.513,41.674,432.795,-237.663,197.446,-4.150,-138.370,-89.930
323,37420.657000,235.041,-25.550,42.667,434.652,-243.336,196.308,140.850,-108.370,-149.930
324,37420.697000,232.047,-14.528,24.806,435.772,-232.946,195.615,95.850,-57.370,-38.930
325,37420.737000,220.070,9.519,19.845,433.730,-239.646,193.458,-66.150,-60.370,114.070
326,37420.757000,266.979,-6.513,32.744,433.724,-239.725,190.505,-88.150,-67.370,115.070
327,37420.797000,305.903,-6.513,53.581,437.542,-244.345,192.350,-86.150,-4.370,44.070
328,37420.837000,320.873,16.532,77.395,435.433,-254.985,184.182,-425.150,-214.370,350.070
329,37420.874000,298.916,-42.583,67.473,430.507,-259.074,175.207,-365.150,-20.370,188.070
330,37420.922000,296.920,-80.658,65.488,432.460,-258.888,181.117,-93.150,169.630,-159.930
331,37420.968000,228.055,-39.577,62.512,434.461,-255.025,183.195,52.850,128.630,-215.930
332,37420.998000,198.113,18.536,93.271,435.386,-257.901,181.150,73.850,-48.370,-137.930
333,37421.15000,208.094,28.556,88.310,437.390,-253.986,185.196,94.850,-20.370,64.070
334,37421.54000,196.117,21.542,104.186,432.402,-263.485,185.907,-36.150,109.630,169.070
335,37421.97000,187.135,2.505,91.287,432.411,-262.592,183.965,-104.150,39.630,192.070
336,37421.139000,279.953,-11.523,113.116,431.307,-272.009,185.668,-39.150,-0.370,63.070
337,37421.188000,249.014,-40.579,124.031,432.412,-263.353,190.829,-71.150,158.630,-38.930
338,37421.218000,203.103,-22.544,112.124,431.341,-270.800,195.538,397.850,123.630,-77.930
339,37421.258000,208.094,-0.501,79.380,431.530,-258.375,200.802,290.850,-3.370,10.070
340,37421.298000,218.074,10.521,79.380,426.631,-261.334,198.744,143.850,-111.370,99.070
341,37421.322000,209.092,7.515,86.326,429.571,-259.401,198.803,151.850,-160.370,93.070
342,37421.355000,234.043,3.507,91.287,427.490,-268.911,197.552,54.850,-103.370,62.070
343,37421.398000,234.043,-18.536,87.318,431.492,-260.398,195.828,-131.150,-114.370,52.070
344,37421.438000,228.055,-16.532,96.248,431.280,-273.900,185.616,-150.150,-204.370,38.070
345,37421.477000,241.029,13.526,101.209,434.274,-268.185,185.780,-163.150,-154.370,62.070
346,37421.518000,251.010,10.521,98.233,432.248,-273.152,177.769,-299.150,-58.370,22.070
347,37421.559000,226.058,-21.542,124.031,434.240,-269.394,175.910,-90.150,-135.370,-53.930
348,37421.594000,239.033,-21.542,113.116,432.271,-271.313,175.853,191.850,-90.370,-24.930
349,37421.614000,226.058,-27.554,87.318,432.252,-272.338,172.874,38.850,-137.370,-43.930
350,37421.660000,229.053,-24.548,113.116,439.162,-263.836,169.188,71.850,-311.370,-89.930
351,37421.724000,238.035,-13.526,102.202,440.109,-264.899,164.242,23.850,-96.370,-46.930
352,37421.740000,246.020,-3.507,72.434,442.119,-260.144,164.377,-108.150,13.630,-66.930
353,37421.774000,217.076,12.524,53.581,440.022,-270.626,162.115,-330.150,-33.370,-37.930
354,37421.815000,274.963,10.521,50.605,442.981,-266.146,151.425,-479.150,-199.370,173.070
355,37421.860000,318.877,-11.523,42.667,443.723,-280.606,140.204,-730.150,-49.370,46.070
356,37421.933000,263.984,-19.538,20.837,444.785,-273.265,131.558,-628.150,65.630,-129.930
357,37421.940000,255.002,-24.548,8.930,445.724,-274.433,122.674,-546.150,36.630,-117.930
358,37421.972000,234.043,-40.579,32.744,439.769,-283.132,118.488,-276.150,-86.370,-9.930
359,37421.999000,233.045,-47.593,24.806,442.681,-283.091,118.494,-120.150,-34.370,91.070
360,37422.44000,218.074,-13.526,24.806,441.759,-279.401,115.644,-245.150,20.630,146.070
361,37422.79000,234.043,6.513,34.729,439.640,-290.934,109.418,-298.150,29.630,109.070
362,37422.125000,275.961,-35.569,46.636,436.774,-288.086,111.460,-288.150,97.630,59.070
363,37422.154000,268.975,-44.587,41.674,437.650,-293.904,105.398,-298.150,138.630,-18.930
364,37422.194000,237.037,-32.564,35.721,438.669,-290.186,102.552,-229.150,59.630,-17.930
365,37422.214000,249.014,-42.583,36.713,435.608,-299.842,96.377,-282.150,-51.370,56.070
366,37422.254000,249.014,-57.613,44.651,431.759,-297.927,99.374,-215.150,120.630,86.070
367,37422.294000,236.039,-40.579,56.558,433.698,-297.925,98.394,-182.150,163.630,31.070
368,37422.334000,221.068,-30.560,59.535,427.786,-304.522,102.135,-98.150,183.630,-28.930
369,37422.379000,223.064,-24.548,52.589,431.790,-295.983,101.396,-90.150,43.630,10.070
370,37422.417000,242.027,-30.560,50.605,431.729,-299.844,98.337,-56.150,76.630,-38.930
371,37422.459000,264.982,-11.523,62.512,435.596,-300.761,97.335,-210.150,143.630,-145.930
372,37422.499000,236.039,-18.536,59.535,438.604,-294.100,97.525,-186.150,74.630,-269.930
373,37422.519000,244.023,-34.568,68.465,444.591,-282.697,96.869,-105.150,-52.370,-275.930
374,37422.559000,239.033,-39.577,75.411,447.495,-282.761,92.937,-116.150,39.630,-291.930
375,37422.599000,227.057,-30.560,77.395,446.632,-275.236,92.162,-323.150,36.630,-216.930
376,37422.640000,206.097,-19.538,87.318,454.445,-271.448,88.346,-235.150,-66.370,-307.930
377,37422.675000,225.060,-2.505,79.380,460.477,-256.394,82.873,-0.150,-109.370,-545.930
378,37422.715000,257.996,-30.560,92.279,465.340,-255.432,80.941,-2.150,-218.370,-378.930
379,37422.755000,249.014,-34.568,75.411,467.322,-252.568,81.024,105.850,-18.370,-112.930
380,37422.790000,254.004,15.530,40.682,469.303,-250.491,86.986,255.850,148.630,77.070
381,37422.818000,258.994,23.546,26.791,463.587,-243.035,86.201,39.850,-182.370,83.070
382,37422.863000,263.984,3.507,7.938,463.565,-244.086,82.237,101.850,-200.370,137.070
383,37422.898000,264.982,-31.562,-14.884,464.540,-244.019,84.208,344.850,-158.370,96.070
384,37422.938000,284.943,4.509,-14.884,466.459,-245.043,80.248,215.850,-287.370,3.070
385,37422.977000,288.936,46.591,0.000,462.593,-244.126,81.251,72.850,10.630,17.070
386,37423.17000,243.025,26.552,14.884,468.379,-246.828,83.152,75.850,127.630,-95.930
387,37423.59000,237.037,-2.505,15.876,469.405,-243.031,83.260,8.850,-35.370,-152.930
388,37423.80000,236.039,7.515,22.822,469.519,-235.414,85.439,-21.150,25.630,-111.930
389,37423.119000,252.008,13.526,18.853,468.519,-237.345,84.400,-178.150,-55.370,-5.930
390,37423.160000,248.016,3.507,11.907,465.522,-243.086,83.252,-114.150,-0.370,86.070
391,37423.195000,237.037,-1.503,13.891,462.461,-252.742,77.076,-72.150,-94.370,108.070
392,37423.235000,244.023,2.505,-0.992,468.269,-253.631,76.078,-80.150,-19.370,208.070
393,37423.275000,239.033,7.515,-0.992,462.390,-257.496,75.960,-57.150,127.630,221.070
394,37423.315000,227.057,7.515,-0.992,459.502,-256.460,80.902,-0.150,76.630,100.070
395,37423.360000,257.996,10.521,2.977,457.462,-262.372,72.866,-85.150,-215.370,115.070
396,37423.382000,330.854,2.505,37.705,453.591,-261.508,71.899,-91.150,-17.370,198.070
397,37423.415000,330.854,-32.564,42.667,458.401,-264.302,70.846,-82.150,112.630,-64.930
398,37423.457000,275.961,-14.528,35.721,456.499,-262.281,76.801,55.850,140.630,-29.930
399,37423.503000,240.031,10.521,21.829,454.419,-272.552,82.413,-9.150,187.630,103.070
400,37423.547000,232.047,-5.511,49.612,454.525,-265.801,87.519,-20.150,155.630,-10.930
401,37423.575000,217.076,-15.530,80.372,456.337,-274.363,84.333,-116.150,107.630,35.070
402,37423.615000,235.041,-60.618,87.318,451.560,-269.598,88.392,25.850,161.630,-14.930
403,37423.655000,226.058,-47.593,84.341,453.370,-278.948,91.086,120.850,149.630,-8.930
404,37423.683000,217.076,-25.550,83.349,448.627,-272.213,98.151,119.850,53.630,13.070
405,37423.717000,224.062,-19.538,90.295,453.437,-275.008,97.098,174.850,23.630,-148.930
406,37423.759000,254.004,-20.540,88.310,448.621,-273.054,102.062,191.850,95.630,-204.930
407,37423.803000,262.986,-7.515,78.388,450.651,-267.273,105.177,27.850,119.630,81.070
408,37423.837000,227.057,-18.536,81.364,440.823,-275.895,105.904,-54.150,90.630,195.070
409,37423.879000,219.072,-25.550,76.403,447.508,-283.364,105.708,-115.150,-28.370,131.070
410,37423.920000,232.047,-16.532,74.419,447.521,-282.418,105.734,-79.150,-54.370,54.070
411,37423.960000,222.066,-17.534,77.395,450.445,-281.458,104.782,-49.150,-90.370,-13.930
412,37423.985000,223.064,-31.562,77.395,450.445,-280.697,97.918,7.850,-164.370,-60.930
413,37424.20000,232.047,-21.542,67.473,451.492,-275.088,95.125,3.850,-142.370,-47.930
414,37424.62000,233.045,-15.530,61.519,450.545,-273.263,93.207,76.850,-225.370,-105.930
415,37424.102000,255.002,-36.571,97.240,456.304,-277.095,88.192,95.850,-160.370,-50.930
416,37424.142000,250.012,-18.536,102.202,450.460,-278.202,85.200,-78.150,-85.370,-5.930
417,37424.182000,248.016,-3.507,95.256,455.415,-270.673,81.484,-254.150,-32.370,-88.930
418,37424.220000,238.035,-3.507,84.341,456.425,-267.849,80.580,-264.150,-71.370,-156.930
419,37424.262000,227.057,-43.585,78.388,460.274,-269.764,77.583,-170.150,-117.370,-229.930
420,37424.282000,218.074,-23.546,84.341,469.058,-265.176,67.889,-169.150,-277.370,-217.930
421,37424.327000,239.033,9.519,103.194,472.157,-251.213,58.447,-158.150,-366.370,-250.930
422,37424.358000,254.004,-23.546,110.140,475.972,-255.099,52.443,86.850,-264.370,-102.930
423,37424.398000,251.010,-65.628,90.295,469.333,-244.740,54.687,414.850,-82.370,-5.930
424,37424.447000,276.959,-31.562,64.496,472.171,-251.029,65.337,730.850,110.630,-3.930
425,37424.483000,332.850,8.517,-0.992,471.346,-242.242,76.400,347.850,112.630,102.070
426,37424.517000,218.074,6.513,13.891,465.505,-245.607,94.985,658.850,623.630,54.070
427,37424.557000,219.072,-0.501,-10.915,470.302,-250.109,100.769,444.850,101.630,50.070
428,37424.577000,281.949,25.550,16.868,466.591,-239.498,110.894,275.850,106.630,84.070
429,37424.617000,261.988,14.528,20.837,465.579,-243.110,117.677,188.850,358.630,-82.930
430,37424.657000,205.099,20.540,28.775,468.574,-238.157,124.705,133.850,235.630,-41.930
431,37424.697000,255.002,10.521,20.837,461.671,-245.792,125.465,-94.150,70.630,119.070
432,37424.738000,262.986,7.515,43.659,462.699,-242.730,133.421,-176.150,538.630,129.070
433,37424.778000,250.012,7.515,61.519,455.766,-253.071,139.023,-131.150,370.630,98.070
434,37424.822000,246.020,-9.519,78.388,450.977,-249.225,144.040,-53.150,292.630,173.070
435,37424.842000,246.020,2.505,73.426,450.925,-253.743,151.783,118.850,178.630,22.070
436,37424.877000,238.035,14.528,71.442,448.995,-252.851,150.821,27.850,44.630,-105.930
437,37424.918000,222.066,13.526,80.372,454.888,-248.040,150.965,-0.150,-2.370,-117.930
438,37424.963000,234.043,-7.515,72.434,454.951,-244.153,155.008,-32.150,29.630,-99.930
439,37425.5000,237.037,-8.517,76.403,455.941,-242.353,151.125,-146.150,73.630,-94.930
440,37425.42000,254.004,3.507,72.434,452.133,-237.601,154.202,-56.150,151.630,-46.930
441,37425.80000,239.033,-2.505,82.357,455.890,-246.083,152.988,-0.150,127.630,9.070
442,37425.120000,229.053,-12.524,93.271,454.059,-239.306,160.059,85.850,79.630,47.070
443,37425.140000,229.053,-14.528,84.341,452.037,-244.981,160.881,177.850,46.630,95.070
444,37425.180000,207.096,-12.524,97.240,446.259,-242.174,162.917,319.850,24.630,183.070
445,37425.225000,196.117,-25.550,93.271,443.357,-242.084,167.833,381.850,-36.370,274.070
446,37425.267000,216.078,-15.530,70.450,440.414,-244.831,172.669,450.850,-221.370,446.070
447,37425.303000,239.033,11.523,77.395,440.296,-252.501,168.521,241.850,-332.370,602.070
448,37425.338000,290.932,47.593,57.550,431.518,-255.462,168.424,-75.150,-75.370,372.070
449,37425.378000,267.977,-29.558,89.302,431.438,-260.348,162.386,-509.150,100.630,-86.930
450,37425.418000,275.961,-67.632,92.279,433.346,-263.052,166.249,17.850,103.630,-202.930
451,37425.438000,262.986,-15.530,37.705,439.384,-248.679,170.593,178.850,304.630,-198.930
452,37425.480000,222.066,34.568,17.860,433.537,-251.362,179.361,89.850,138.630,-120.930
453,37425.520000,211.088,14.528,19.845,435.572,-244.741,178.565,-27.150,-49.370,-10.930
454,37425.559000,276.959,-33.566,47.628,433.517,-252.387,176.382,41.850,-6.370,-29.930
455,37425.599000,240.031,-36.571,40.682,439.465,-243.793,176.631,155.850,-230.370,-32.930
456,37425.642000,237.037,-15.530,30.760,440.376,-247.615,174.559,279.850,-193.370,54.070
457,37425.682000,253.006,-18.536,29.767,442.412,-240.994,173.763,365.850,-165.370,106.070
458,37425.722000,253.006,-5.511,24.806,440.382,-247.536,177.512,328.850,-42.370,99.070
459,37425.742000,238.035,12.524,18.853,438.528,-241.837,179.635,183.850,-43.370,45.070
460,37425.782000,234.043,8.517,23.814,437.541,-242.823,178.622,197.850,-75.370,-41.930
461,37425.819000,232.047,7.515,17.860,443.446,-237.093,177.808,145.850,-121.370,-66.930
462,37425.859000,243.025,-12.524,17.860,439.561,-237.174,176.815,99.850,-213.370,-70.930
463,37425.899000,268.975,-10.521,20.837,441.584,-230.711,170.113,-5.150,-266.370,-26.930
464,37425.939000,277.957,-9.519,28.775,445.424,-233.519,169.058,24.850,-125.370,36.070
465,37425.982000,285.942,-7.515,36.713,442.467,-236.450,167.004,-18.150,-131.370,93.070
466,37426.22000,317.879,-1.503,59.535,447.243,-241.215,162.945,-255.150,-156.370,304.070
467,37426.42000,320.873,-39.577,79.380,445.131,-252.669,159.672,-46.150,43.630,113.070
468,37426.79000,268.975,-63.624,84.341,444.251,-247.665,170.630,464.850,155.630,-234.930
469,37426.123000,216.078,-10.521,70.450,441.447,-240.929,176.714,399.850,44.630,-111.930
470,37426.164000,176.156,20.540,66.481,446.312,-239.941,175.766,270.850,-154.370,-1.930
471,37426.198000,197.115,47.593,86.326,445.232,-247.520,175.553,-83.150,-183.370,177.070
472,37426.242000,264.982,25.550,90.295,443.231,-250.621,166.611,-230.150,-160.370,265.070
473,37426.279000,285.942,-34.568,90.295,445.072,-257.266,164.462,-155.150,49.630,-102.930
474,37426.319000,248.016,-18.536,90.295,449.020,-253.296,169.497,33.850,167.630,-264.930
475,37426.339000,202.105,-3.507,80.372,449.090,-248.542,170.613,95.850,119.630,-142.930
476,37426.379000,214.082,1.503,94.264,446.232,-245.588,176.592,164.850,67.630,-2.930
477,37426.434000,225.060,4.509,90.295,448.063,-253.126,176.386,97.850,16.630,126.070
478,37426.462000,218.074,6.513,84.341,448.177,-245.508,178.565,53.850,19.630,106.070
479,37426.502000,236.039,-2.505,94.264,445.163,-253.009,182.286,49.850,-7.370,104.070
480,37426.543000,223.064,-1.503,92.279,444.204,-252.104,181.326,5.850,6.630,143.070
481,37426.589000,222.066,-7.515,76.403,444.063,-261.613,179.094,-24.150,-115.370,109.070
482,37426.624000,251.010,5.511,91.287,439.268,-257.085,174.294,-18.150,-123.370,153.070
483,37426.644000,232.047,8.517,97.240,436.280,-262.721,177.083,-94.150,-48.370,161.070
484,37426.690000,231.049,-0.501,101.209,437.235,-263.679,176.074,-53.150,-78.370,230.070
485,37426.719000,240.031,-9.519,90.295,435.203,-269.486,171.975,23.850,-11.370,217.070
486,37426.759000,222.066,-38.575,89.302,429.332,-272.484,168.931,-45.150,-66.370,197.070
487,37426.802000,230.051,-55.609,91.287,431.243,-274.374,167.898,125.850,-229.370,109.070
488,37426.840000,221.068,-45.589,108.155,431.198,-277.264,165.850,335.850,-150.370,76.070
489,37426.885000,225.060,-24.548,118.078,433.218,-272.376,170.907,371.850,-202.370,134.070
490,37426.919000,278.955,37.573,100.217,430.202,-279.142,166.780,-29.150,-148.370,185.070
491,37426.939000,254.004,46.591,74.419,431.222,-275.425,163.934,-356.150,249.630,-90.930
492,37426.984000,229.053,-13.526,52.589,427.364,-273.615,162.994,-377.150,85.630,-62.930
493,37427.24000,297.918,-39.577,29.767,430.168,-280.351,156.910,-501.150,95.630,-18.930
494,37427.64000,256.000,-52.603,29.767,428.134,-286.184,151.826,-402.150,73.630,-101.930
495,37427.104000,236.039,-25.550,8.930,433.001,-284.409,144.998,-329.150,-71.370,11.070
496,37427.139000,225.060,-3.507,20.837,428.006,-293.225,135.892,-397.150,-112.370,80.070
497,37427.179000,256.998,-0.501,19.845,431.022,-285.698,133.156,-484.150,-99.370,66.070
498,37427.199000,258.994,-17.534,22.822,427.897,-299.241,122.938,-761.150,-33.370,-63.930
499,37427.239000,264.982,-36.571,33.736,433.785,-292.960,107.385,-703.150,32.630,-177.930
500,37427.280000,253.006,-62.622,36.713,434.716,-294.996,101.428,-516.150,75.630,-258.930
501,37427.323000,235.041,-61.620,38.698,434.800,-288.534,95.706,-338.150,102.630,-211.930
502,37427.364000,219.072,-58.614,36.713,436.667,-293.314,92.626,-248.150,-1.370,-33.930
503,37427.404000,244.023,-48.595,37.705,433.792,-290.571,90.730,-270.150,-48.370,95.070
504,37427.444000,255.002,-28.556,40.682,434.654,-297.335,84.642,-308.150,16.630,31.070
505,37427.484000,243.025,-21.542,39.690,438.519,-298.278,82.655,-282.150,44.630,-80.930
506,37427.503000,256.000,-44.587,58.543,434.766,-289.743,85.837,-71.150,47.630,-91.930
507,37427.543000,251.010,-53.605,62.512,439.514,-297.187,87.605,53.850,176.630,-59.930
508,37427.583000,241.029,-43.585,64.496,437.704,-288.598,91.775,136.850,234.630,-97.930
509,37427.628000,240.031,-20.540,72.434,435.830,-284.685,97.782,34.850,281.630,-111.930
510,37427.663000,230.051,-25.550,87.318,436.887,-278.945,99.911,-105.150,354.630,-182.930
511,37427.708000,205.099,-8.517,89.302,438.849,-278.654,109.758,-184.150,285.630,-280.930
512,37427.743000,198.113,13.526,62.512,444.829,-267.330,106.149,-171.150,-64.370,-460.930
513,37427.783000,252.008,-33.566,93.271,454.726,-253.218,98.689,-17.150,-186.370,-706.930
514,37427.804000,281.949,-52.603,94.264,458.713,-246.438,102.819,25.850,66.630,-315.930
515,37427.844000,209.092,2.505,64.496,457.672,-251.968,108.565,258.850,125.630,-74.930
516,37427.884000,321.871,51.601,36.713,453.774,-252.995,107.546,-104.150,19.630,464.070
517,37427.924000,277.957,-24.548,-26.791,449.694,-266.342,105.201,-285.150,53.630,150.070
518,37427.964000,228.055,-72.642,-24.806,449.956,-248.375,105.701,76.850,-104.370,-377.930
519,37428.5000,293.926,21.542,-7.938,456.752,-248.252,106.700,169.850,-109.370,-199.930
520,37428.45000,272.967,49.597,-6.946,456.866,-240.634,108.879,28.850,52.630,42.070
521,37428.85000,248.016,4.509,18.853,455.793,-247.346,105.740,-154.150,14.630,-30.930
522,37428.105000,240.031,0.501,26.791,452.885,-246.574,100.838,-149.150,-89.370,85.070
523,37428.145000,236.039,-3.507,20.837,458.638,-251.246,99.734,-205.150,-134.370,46.070
524,37428.180000,238.035,-7.515,17.860,457.707,-248.449,98.827,-122.150,16.630,-59.930
525,37428.220000,217.076,9.519,20.837,458.634,-251.298,97.766,-22.150,-63.370,-60.930
526,37428.260000,236.039,11.523,15.876,455.765,-247.715,91.959,-25.150,-240.370,-7.930
527,37428.300000,266.979,12.524,5.953,457.718,-246.768,91.005,9.850,14.630,140.070
528,37428.340000,245.021,0.501,8.930,453.712,-255.334,90.760,-118.150,-56.370,127.070
529,37428.380000,279.953,1.503,98.233,454.694,-254.401,89.804,56.850,-91.370,-2.930
530,37428.407000,386.745,-59.616,84.341,452.806,-250.672,88.921,95.850,44.630,-386.930
531,37428.440000,278.955,-9.519,68.465,458.711,-245.703,94.971,179.850,104.630,-192.930
532,37428.482000,244.023,16.532,56.558,456.581,-258.917,96.567,17.850,133.630,331.070
533,37428.522000,192.125,2.505,70.450,454.673,-256.974,99.568,-60.150,146.630,207.070
534,37428.562000,156.195,-34.568,89.302,453.500,-271.120,101.140,-49.150,41.630,47.070
535,37428.602000,221.068,-24.548,97.240,455.577,-261.663,100.423,-37.150,49.630,-94.930
536,37428.657000,253.006,19.538,78.388,456.553,-260.808,96.514,3.850,-71.370,-299.930
537,37428.684000,257.996,4.509,77.395,460.491,-256.971,96.627,-46.150,-198.370,61.070
538,37428.704000,254.004,-17.534,69.457,457.482,-262.870,89.573,-207.150,-93.370,195.070
539,37428.744000,239.033,-29.558,80.372,457.476,-262.949,86.620,-268.150,5.630,84.070
540,37428.784000,235.041,-36.571,76.403,453.546,-265.920,83.580,-247.150,-32.370,-6.930
541,37428.824000,227.057,-28.556,75.411,453.483,-269.808,79.537,-163.150,-143.370,-52.930
542,37428.864000,223.064,-27.554,76.403,456.370,-270.870,73.611,38.850,-258.370,-17.930
543,37428.904000,229.053,-30.560,73.426,458.372,-266.220,69.809,85.850,-284.370,26.070
544,37428.940000,242.027,-29.558,55.566,462.171,-271.077,62.795,53.850,-269.370,26.070
545,37428.980000,237.037,-27.554,63.504,458.367,-265.511,60.976,191.850,-258.370,-78.930
546,37429.0,244.023,-51.601,82.357,464.285,-258.836,60.188,247.850,-162.370,-124.930
547,37429.42000,240.031,-15.530,86.326,464.317,-256.892,62.210,137.850,-164.370,-74.930
548,37429.82000,256.000,24.548,86.326,463.332,-257.090,55.317,54.850,-183.370,-40.930
549,37429.122000,260.990,11.523,82.357,463.269,-260.978,51.275,-207.150,-199.370,114.070
550,37429.165000,250.012,-7.515,83.349,463.300,-258.272,46.432,-89.150,-81.370,-91.930
551,37429.205000,239.033,-35.569,85.333,467.191,-257.351,43.513,-119.150,-127.370,-287.930
552,37429.245000,276.959,-27.554,97.240,470.242,-247.827,44.767,47.850,-64.370,-231.930
553,37429.285000,285.942,-49.597,84.341,476.117,-244.776,49.780,709.850,378.630,-193.930
554,37429.312000,236.039,-43.585,12.899,474.285,-239.549,69.594,426.850,460.630,40.070
555,37429.345000,227.057,-8.517,-12.899,477.211,-239.323,76.491,370.850,80.630,37.070
556,37429.390000,236.039,53.605,0.000,472.374,-239.181,84.355,307.850,7.630,-83.930
557,37429.425000,273.965,69.636,8.930,475.359,-234.359,86.462,283.850,86.630,-69.930
558,37429.472000,255.002,9.519,12.899,473.455,-232.364,91.432,196.850,120.630,-15.930
559,37429.507000,265.980,-13.526,32.744,477.405,-228.368,97.452,362.850,-6.370,-160.930
560,37429.547000,242.027,18.536,46.636,477.554,-218.754,103.621,355.850,107.630,-152.930
561,37429.587000,232.047,34.568,49.612,478.527,-219.475,111.471,279.850,168.630,-3.930
562,37429.607000,230.051,34.568,47.628,474.692,-216.614,114.495,75.850,195.630,28.070
563,37429.645000,234.043,34.568,51.597,480.547,-214.588,116.529,-63.150,213.630,-15.930
564,37429.685000,230.051,40.579,46.636,476.634,-217.348,121.363,-189.150,196.630,-12.930
565,37429.725000,248.016,21.542,50.605,477.581,-219.173,123.281,-99.150,182.630,53.070
566,37429.767000,251.010,-3.507,57.550,467.794,-224.958,124.088,-108.150,171.630,228.070
567,37429.805000,256.998,-9.519,66.481,468.792,-223.053,124.142,-43.150,74.630,220.070
568,37429.843000,258.994,-4.509,49.612,458.972,-231.569,128.807,-78.150,183.630,94.070
569,37429.883000,242.027,13.526,75.411,459.923,-233.342,132.694,-102.150,211.630,42.070
570,37429.903000,241.029,10.521,66.481,455.078,-233.305,136.621,-78.150,229.630,4.070
571,37429.949000,231.049,18.536,83.349,462.900,-229.386,137.727,-261.150,174.630,-23.930
572,37429.983000,212.086,1.503,80.372,457.935,-237.808,143.386,-170.150,163.630,21.070
573,37430.22000,200.109,-10.521,104.186,453.115,-235.145,139.517,-168.150,151.630,133.070
574,37430.67000,195.119,-16.532,115.101,451.127,-238.850,143.345,290.850,31.630,345.070
575,37430.107000,201.107,-52.603,62.512,447.122,-247.389,144.085,357.850,-158.370,581.070
576,37430.147000,261.988,-7.515,81.364,439.192,-259.608,150.617,357.850,-178.370,470.070
577,37430.187000,284.943,17.534,68.465,438.318,-253.002,150.799,188.850,-80.370,166.070
578,37430.205000,268.975,-37.573,81.364,434.414,-255.631,160.555,438.850,231.630,-94.930
579,37430.243000,241.029,-28.556,46.636,431.572,-252.467,174.409,409.850,382.630,63.070
580,37430.285000,284.943,0.501,41.674,432.702,-241.946,178.638,443.850,105.630,123.070
581,37430.325000,303.906,-3.507,24.806,427.890,-239.939,185.571,313.850,120.630,-60.930
582,37430.364000,263.984,-6.513,22.822,429.890,-236.076,187.649,196.850,42.630,-82.930
583,37430.412000,229.053,-19.538,31.752,428.916,-236.904,192.543,232.850,44.630,86.070
584,37430.447000,208.094,-22.544,37.705,425.987,-238.705,197.406,216.850,4.630,210.070
585,37430.467000,223.064,-3.507,33.736,425.896,-244.484,193.310,220.850,-112.370,207.070
586,37430.508000,235.041,4.509,31.752,424.977,-241.529,198.309,205.850,-73.370,117.070
587,37430.548000,255.002,3.507,31.752,423.029,-241.636,195.352,133.850,-67.370,-6.930
588,37430.590000,257.996,-15.530,34.729,426.998,-235.854,197.487,99.850,-61.370,-138.930
589,37430.625000,247.018,-4.509,32.744,426.961,-238.638,199.376,12.850,-18.370,-154.930
590,37430.672000,231.049,0.501,28.775,431.873,-233.973,194.596,32.850,-76.370,-67.930
591,37430.707000,251.010,-18.536,24.806,430.832,-239.503,200.342,39.850,-69.370,-36.930
592,37430.747000,248.016,-23.546,20.837,433.803,-234.865,195.558,103.850,-108.370,-58.930
593,37430.767000,263.984,-17.534,26.791,433.846,-232.002,196.622,253.850,-122.370,17.070
594,37430.807000,284.943,3.507,69.457,432.826,-234.958,192.603,-62.150,-260.370,147.070
595,37430.843000,324.866,40.579,84.341,434.578,-246.594,180.479,-335.150,-345.370,346.070
596,37430.887000,262.986,-36.571,80.372,432.558,-251.481,175.422,-191.150,-54.370,213.070
597,37430.934000,209.092,-74.646,70.450,432.448,-259.046,175.211,-185.150,-3.370,99.070
598,37430.967000,191.127,-62.622,80.372,428.601,-256.343,172.329,92.850,-174.370,-4.930
599,37431.4000,199.111,22.544,111.132,432.347,-264.957,166.194,-191.150,-330.370,79.070
600,37431.47000,314.885,97.691,87.318,430.367,-267.033,160.231,-279.150,-52.370,369.070
601,37431.67000,270.971,-35.569,97.240,432.278,-268.924,159.199,-358.150,118.630,-213.930
602,37431.108000,223.064,-42.583,101.209,431.321,-267.992,159.223,-256.150,139.630,-241.930
603,37431.148000,209.092,-13.526,86.326,434.288,-264.168,159.334,-14.150,33.630,-209.930
604,37431.210000,217.076,-11.523,79.380,437.157,-266.990,158.277,-45.150,-14.370,-100.930
605,37431.227000,201.107,-31.562,89.302,438.153,-265.111,157.347,74.850,-35.370,46.070
606,37431.267000,219.072,-22.544,84.341,434.259,-266.086,158.297,191.850,-109.370,72.070
607,37431.308000,237.037,7.515,68.465,439.145,-263.285,154.449,29.850,-208.370,42.070
608,37431.343000,227.057,-1.503,73.426,437.131,-268.094,152.344,-124.150,-152.370,38.070
609,37431.368000,242.027,-15.530,78.388,437.037,-273.925,146.280,-164.150,-196.370,113.070
610,37431.414000,270.971,-8.517,102.202,439.966,-272.124,141.417,-305.150,-99.370,-27.930
611,37431.448000,240.031,-4.509,119.070,440.966,-269.432,135.592,-411.150,84.630,-100.930
612,37431.499000,215.080,-37.573,120.062,442.809,-276.050,134.428,-25.150,-41.370,-73.930
613,37431.528000,204.101,7.515,85.333,444.858,-268.484,133.658,12.850,-124.370,50.070
614,37431.570000,230.051,25.550,81.364,438.908,-276.342,125.561,-203.150,-351.370,197.070
615,37431.604000,260.990,-20.540,96.248,436.994,-273.717,118.745,-252.150,-395.370,284.070
616,37431.644000,258.994,-53.605,103.194,436.787,-287.140,111.486,-92.150,-18.370,130.070
617,37431.667000,308.897,-47.593,73.426,435.880,-283.266,115.527,68.850,132.630,-174.930
618,37431.707000,301.910,-20.540,10.915,438.908,-276.342,125.561,-77.150,401.630,-367.930
619,37431.748000,220.070,14.528,4.961,442.917,-267.750,126.790,-34.150,165.630,-119.930
620,37431.789000,216.078,-13.526,14.884,440.857,-275.448,122.638,-145.150,-186.370,54.070
621,37431.829000,238.035,-32.564,9.922,438.919,-273.900,110.874,-269.150,-262.370,136.070
622,37431.869000,253.006,-20.540,12.899,442.631,-285.271,107.614,-237.150,41.630,70.070
623,37431.909000,256.000,-6.513,24.806,433.956,-280.772,103.790,-292.150,232.630,-36.930
624,37431.949000,256.000,-17.534,42.667,435.968,-275.990,104.910,-94.150,6.630,-33.930
625,37431.969000,270.971,-30.560,29.767,434.991,-276.844,108.819,-40.150,55.630,-41.930
626,37432.9000,250.012,-40.579,39.690,439.878,-274.805,111.834,-11.150,103.630,-65.930
627,37432.45000,240.031,-39.577,47.628,436.852,-282.464,109.649,-58.150,85.630,43.070
628,37432.85000,234.043,-33.566,52.589,434.936,-280.627,108.713,-194.150,114.630,168.070
629,37432.125000,242.027,-41.581,57.550,432.889,-288.167,110.467,-135.150,147.630,69.070
630,37432.168000,246.020,-34.568,55.566,434.905,-282.571,106.692,-259.150,162.630,-1.930
631,37432.208000,240.031,-34.568,72.434,433.848,-289.072,111.427,-110.150,124.630,-25.930
632,37432.248000,234.043,-27.554,62.512,432.034,-280.537,113.629,-133.150,172.630,-39.930
633,37432.268000,241.029,-17.534,74.419,431.991,-283.400,112.566,-210.150,159.630,-95.930
634,37432.309000,232.047,-17.534,71.442,433.987,-279.590,112.675,-233.150,164.630,-193.930
635,37432.349000,230.051,-16.532,85.333,433.027,-278.711,110.731,-371.150,64.630,-305.930
636,37432.384000,217.076,-6.513,87.318,441.874,-270.234,105.080,-404.150,31.630,-382.930
637,37432.424000,220.070,-4.509,77.395,446.739,-268.485,97.268,-370.150,-129.370,-473.930
638,37432.479000,249.014,-38.575,91.287,454.767,-249.620,91.904,-128.150,-166.370,-522.930
639,37432.508000,235.041,-56.611,85.333,461.589,-247.632,91.971,170.850,-92.370,-339.930
640,37432.528000,221.068,1.503,63.504,462.701,-238.110,94.205,193.850,105.630,-18.930
641,37432.569000,229.053,47.593,37.705,458.742,-243.760,96.992,85.850,-76.370,163.070
642,37432.609000,299.914,6.513,9.922,453.783,-250.579,91.876,-84.150,-312.370,336.070
643,37432.649000,318.877,-27.554,-40.682,447.919,-252.711,85.905,-45.150,-166.370,349.070
644,37432.689000,278.955,-22.544,-8.930,449.829,-254.627,83.888,168.850,-173.370,-232.930
645,37432.735000,274.963,41.581,-2.977,456.690,-249.829,83.049,111.850,109.630,-196.930
646,37432.764000,248.016,39.577,12.899,450.988,-242.189,89.154,72.850,201.630,-119.930
647,37432.810000,229.053,5.511,23.814,460.736,-239.214,89.253,-21.150,-98.370,-103.930
648,37432.832000,236.039,0.501,20.837,458.808,-237.535,82.411,18.850,-186.370,-79.930
649,37432.865000,248.016,12.524,9.922,459.679,-244.193,80.260,-75.150,-159.370,9.070
650,37432.905000,264.982,8.517,-11.907,457.845,-236.682,79.482,-221.150,68.630,59.070
651,37432.945000,243.025,4.509,6.946,460.647,-244.206,79.278,-130.150,191.630,6.070
652,37432.985000,240.031,8.517,11.907,459.728,-240.490,77.412,-49.150,-62.370,-16.930
653,37433.25000,254.004,8.517,2.977,454.817,-244.367,76.313,66.850,-28.370,133.070
654,37433.65000,268.975,34.568,-3.969,453.752,-250.974,77.111,1.850,-22.370,221.070
655,37433.105000,326.862,11.523,37.705,454.707,-251.932,76.102,-9.150,95.630,105.070
656,37433.125000,313.887,-9.519,46.636,450.807,-253.747,80.963,-87.150,206.630,-47.930
657,37433.172000,245.021,1.503,19.845,456.639,-253.559,84.913,-56.150,210.630,-92.930
658,37433.205000,241.029,19.538,9.922,457.496,-261.163,82.735,-149.150,66.630,-5.930
659,37433.248000,229.053,22.544,74.419,457.529,-259.193,85.741,-301.150,56.630,127.070
660,37433.288000,251.010,-63.624,100.217,452.580,-265.881,85.547,-253.150,266.630,-15.930
661,37433.327000,226.058,-80.658,120.062,451.584,-267.760,86.476,-38.150,318.630,-164.930
662,37433.367000,185.138,-61.620,115.101,455.616,-258.091,92.654,125.850,188.630,-92.930
663,37433.422000,184.140,-31.562,99.225,451.772,-255.335,91.740,191.850,-35.370,-21.930
664,37433.429000,255.002,19.538,94.264,453.596,-263.739,94.460,180.850,-76.370,63.070
665,37433.468000,259.992,13.526,98.233,448.717,-265.673,95.382,-57.150,40.630,113.070
666,37433.509000,225.060,-33.566,89.302,453.624,-261.848,94.513,-129.150,41.630,95.070
667,37433.549000,216.078,-29.558,84.341,451.486,-275.167,92.172,-155.150,-86.370,63.070
668,37433.594000,229.053,-15.530,85.333,454.537,-264.882,86.561,-107.150,-142.370,-63.930
669,37433.644000,227.057,-19.538,76.403,454.490,-267.798,83.529,-54.150,-174.370,-67.930
670,37433.665000,215.080,-20.540,79.380,455.535,-262.215,79.752,9.850,-246.370,-65.930
671,37433.705000,212.086,-8.517,80.372,454.613,-258.526,76.902,97.850,-294.370,-134.930
672,37433.725000,250.012,-38.575,74.419,461.439,-255.724,72.074,329.850,-268.370,-95.930
673,37433.773000,253.006,-51.601,92.279,459.303,-269.017,70.717,271.850,-233.370,20.070
674,37433.807000,270.971,-7.515,91.287,459.491,-255.831,69.117,100.850,-202.370,7.070
675,37433.849000,246.020,17.534,94.264,460.391,-260.571,68.003,-9.150,-152.370,-41.930
676,37433.889000,224.062,-25.550,102.202,464.390,-252.111,64.310,172.850,-165.370,-166.930
677,37433.929000,230.051,-49.597,92.279,468.329,-248.247,65.408,451.850,-120.370,-175.930
678,37433.967000,253.006,-19.538,65.488,466.471,-243.362,72.426,583.850,27.630,154.070
679,37434.7000,283.945,4.509,26.791,462.477,-251.770,78.087,435.850,21.630,274.070
680,37434.27000,272.967,1.503,-12.899,463.473,-249.891,77.157,256.850,-94.370,-69.930
681,37434.72000,233.045,18.536,17.860,465.585,-239.198,87.294,297.850,239.630,-158.930
682,37434.105000,233.045,24.548,23.814,467.629,-232.472,90.436,198.850,39.630,-149.930
683,37434.145000,271.969,29.558,13.891,468.515,-238.920,96.159,28.850,91.630,18.070
684,37434.185000,254.004,12.524,20.837,466.664,-232.407,93.387,-170.150,285.630,2.070
685,37434.227000,244.023,10.521,37.705,463.664,-238.963,97.134,-215.150,209.630,-50.930
686,37434.265000,240.031,-2.505,37.705,462.851,-229.257,107.238,-4.150,362.630,-82.930
687,37434.312000,232.047,-0.501,50.605,469.581,-233.836,109.090,-1.150,158.630,-91.930
688,37434.332000,257.996,35.569,46.636,466.742,-229.096,111.184,-9.150,98.630,-21.930
689,37434.372000,248.016,24.548,51.597,462.814,-232.802,115.992,35.850,91.630,15.070
690,37434.412000,250.012,8.517,62.512,462.903,-227.050,119.103,100.850,91.630,91.070
691,37434.452000,254.004,8.517,54.574,462.842,-231.672,122.909,82.850,118.630,146.070
692,37434.497000,238.035,11.523,65.488,451.542,-474.836,115.143,-7.150,181.630,143.070
693,37434.532000,235.041,14.528,71.442,456.007,-235.367,129.680,-115.150,164.630,104.070
694,37434.570000,233.045,2.505,74.419,454.924,-242.972,128.483,-175.150,151.630,64.070
695,37434.588000,219.072,-1.503,71.442,451.059,-242.029,130.470,-209.150,205.630,60.070
696,37434.632000,216.078,-3.507,101.209,449.989,-249.476,135.179,-249.150,278.630,140.070
697,37434.669000,213.084,-26.552,95.256,444.092,-255.101,139.931,-99.150,380.630,278.070
698,37434.712000,177.154,-54.607,87.318,434.319,-260.701,147.627,84.850,287.630,248.070
699,37434.764000,193.123,-26.552,79.380,434.300,-262.487,151.512,378.850,-177.370,451.070
700,37434.792000,276.959,-25.550,80.372,423.631,-262.533,155.427,432.850,-128.370,446.070
701,37434.832000,332.850,-17.534,65.488,423.649,-262.296,164.286,735.850,356.630,32.070
702,37434.872000,266.979,-25.550,13.891,426.817,-246.651,182.432,811.850,64.630,-484.930
703,37434.892000,331.852,27.554,2.977,434.784,-232.409,180.874,426.850,-489.370,-93.930
704,37434.932000,256.998,41.581,21.829,434.619,-242.995,173.694,-148.150,-179.370,264.070
705,37434.972000,252.008,-25.550,42.667,428.746,-246.020,169.666,-197.150,-95.370,237.070
706,37435.12000,245.021,-38.575,44.651,429.620,-252.626,169.483,-135.150,-16.370,155.070
707,37435.47000,215.080,-34.568,48.620,427.704,-250.788,168.548,-5.150,84.630,53.070
708,37435.92000,214.082,-13.526,40.682,429.558,-257.275,172.305,88.850,79.630,80.070
709,37435.132000,213.084,-9.519,39.690,424.647,-261.153,171.205,160.850,-57.370,105.070
710,37435.172000,249.014,-4.509,28.775,424.763,-253.509,174.369,208.850,-51.370,38.070
711,37435.192000,245.021,22.544,26.791,421.883,-251.606,176.384,-44.150,10.630,-88.930
712,37435.230000,248.016,1.503,38.698,425.771,-250.711,172.481,-96.150,1.630,-183.930
713,37435.270000,295.922,-50.599,42.667,426.879,-241.240,172.746,136.850,-14.370,-398.930
714,37435.315000,277.957,-17.534,30.760,435.688,-236.336,174.865,-0.150,160.630,-253.930
715,37435.350000,266.979,-22.544,48.620,433.739,-237.230,177.787,81.850,-180.370,-26.930
716,37435.392000,282.947,-14.528,60.527,436.657,-236.348,173.882,138.850,-124.370,82.070
717,37435.430000,265.980,-7.515,73.426,436.547,-243.914,173.672,83.850,-218.370,260.070
718,37435.468000,254.004,0.501,67.473,439.431,-245.002,166.761,-182.150,-325.370,228.070
719,37435.488000,242.027,1.503,64.496,436.188,-266.216,152.395,-299.150,-348.370,107.070
720,37435.528000,207.096,-9.519,78.388,439.263,-254.092,144.869,-187.150,-281.370,-82.930
721,37435.568000,181.146,3.507,97.240,444.010,-260.774,139.773,-148.150,-258.370,-130.930
722,37435.610000,241.029,14.528,96.248,448.988,-251.407,134.140,-149.150,-312.370,107.070
723,37435.650000,337.840,-18.536,81.364,444.876,-266.724,128.789,-72.150,-190.370,310.070
724,37435.688000,235.041,-33.566,87.318,448.800,-263.832,128.876,-129.150,150.630,-51.930
725,37435.728000,197.115,-1.503,95.256,441.913,-270.495,130.646,55.850,117.630,-18.930
726,37435.768000,219.072,-0.501,78.388,442.031,-262.825,134.794,73.850,109.630,88.070
727,37435.788000,212.086,-14.528,87.318,440.050,-265.663,135.696,-59.150,6.630,75.070
728,37435.833000,216.078,-17.534,94.264,441.891,-272.307,133.547,40.850,-122.370,54.070
729,37435.872000,238.035,-10.521,88.310,439.923,-274.226,133.490,155.850,-127.370,67.070
730,37435.912000,244.023,1.503,84.341,440.030,-266.688,132.716,53.850,-56.370,58.070
731,37435.949000,224.062,3.507,75.411,440.867,-275.316,127.560,-147.150,-149.370,38.070
732,37435.989000,230.051,-16.532,81.364,438.987,-270.721,123.750,-101.150,-265.370,15.070
733,37436.29000,233.045,-21.542,106.171,439.936,-271.758,119.788,79.850,-218.370,-13.930
734,37436.69000,262.986,-22.544,108.155,439.020,-267.989,119.891,299.850,-113.370,103.070
735,37436.89000,246.020,-27.554,88.310,441.832,-275.381,124.609,374.850,-62.370,141.070
736,37436.128000,228.055,-22.544,81.364,438.901,-277.209,128.487,379.850,-165.370,164.070
737,37436.174000,247.018,-3.507,88.310,438.008,-271.601,126.675,151.850,-288.370,84.070
738,37436.208000,279.953,28.556,69.457,435.986,-276.515,120.633,-83.150,-32.370,-10.930
739,37436.248000,257.996,6.513,34.729,437.965,-273.703,118.747,-249.150,246.630,12.070
740,37436.288000,256.998,-36.571,24.806,433.043,-278.500,118.605,-371.150,204.630,79.070
741,37436.333000,251.010,-50.599,19.845,434.874,-286.038,118.399,-215.150,40.630,29.070
742,37436.372000,235.041,-38.575,10.915,432.027,-281.403,116.556,-166.150,-92.370,-64.930
743,37436.393000,238.035,-26.552,12.899,437.921,-275.805,110.820,-64.150,-222.370,14.070
744,37436.433000,254.004,-11.523,15.876,433.950,-281.613,107.701,-38.150,-122.370,146.070
745,37436.470000,241.029,-14.528,22.822,432.932,-284.542,104.667,-225.150,-2.370,116.070
746,37436.512000,249.014,-18.536,30.760,432.869,-288.430,100.624,-280.150,-66.370,-17.930
747,37436.552000,272.967,-28.556,26.791,433.855,-286.683,94.773,-347.150,45.630,-46.930
748,37436.592000,242.027,-48.595,39.690,432.896,-285.777,93.813,-242.150,109.630,-99.930
749,37436.633000,242.027,-49.597,36.713,430.982,-283.914,93.861,-132.150,113.630,-39.930
750,37436.673000,249.014,-37.573,30.760,431.916,-286.684,95.753,-220.150,82.630,41.070
751,37436.693000,262.986,-25.550,35.721,431.927,-285.004,87.931,-298.150,150.630,-39.930
752,37436.733000,254.004,-34.568,55.566,433.776,-291.543,89.719,-292.150,244.630,-87.930
753,37436.773000,242.027,-47.593,41.674,429.033,-284.808,96.784,-213.150,312.630,-76.930
754,37436.812000,230.051,-28.556,66.481,431.943,-284.793,95.806,-239.150,307.630,-153.930
755,37436.852000,220.070,-18.536,47.628,433.955,-280.011,96.926,-339.150,330.630,-199.930
756,37436.892000,217.076,-17.534,79.380,441.803,-274.227,97.100,-294.150,164.630,-327.930
757,37436.933000,222.066,-5.511,88.310,445.693,-273.306,94.181,-496.150,101.630,-452.930
758,37436.973000,199.111,10.521,83.349,447.825,-259.304,86.705,-104.150,-262.370,-688.930
759,37436.993000,235.041,-11.523,84.341,452.900,-243.318,81.257,-129.150,-235.370,-466.930
760,37437.33000,313.887,-17.534,33.736,455.745,-247.217,75.251,-412.150,-22.370,528.070
761,37437.73000,271.969,9.519,-8.930,442.912,-262.447,77.757,-231.150,272.630,701.070
762,37437.113000,268.975,-21.542,-16.868,442.822,-268.987,80.526,-16.150,264.630,156.070
763,37437.153000,271.969,-22.544,8.930,443.742,-272.703,82.391,31.850,87.630,-225.930
764,37437.193000,251.010,21.542,22.822,446.919,-255.404,91.730,200.850,114.630,-186.930
765,37437.233000,254.004,16.532,14.884,444.854,-263.942,91.489,-13.150,60.630,-72.930
766,37437.253000,230.051,-9.519,15.876,448.872,-254.457,90.776,-25.150,80.630,-139.930
767,37437.293000,240.031,-8.517,12.899,449.841,-254.470,89.794,-76.150,7.630,-155.930
768,37437.333000,253.006,-0.501,1.984,448.943,-249.702,91.892,-20.150,49.630,-68.930
769,37437.373000,255.002,0.501,-1.984,447.835,-259.173,91.627,-34.150,-51.370,30.070
770,37437.413000,264.982,-5.511,10.915,443.052,-254.487,92.733,26.850,154.630,118.070
771,37437.453000,254.004,-2.505,1.984,443.919,-261.959,95.477,22.850,127.630,80.070
772,37437.509000,256.998,-11.523,23.814,445.886,-260.067,94.550,-78.150,0.630,59.070
773,37437.539000,258.994,26.552,65.488,441.899,-267.608,97.284,134.850,23.630,192.070
774,37437.554000,341.832,-40.579,95.256,445.813,-265.609,99.313,57.850,-154.370,58.070
775,37437.598000,268.975,-44.587,68.465,441.885,-268.553,97.258,388.850,-25.370,30.070
776,37437.634000,248.016,24.548,70.450,435.009,-275.085,103.950,299.850,-16.370,415.070
777,37437.674000,200.109,25.550,84.341,436.887,-279.706,106.775,-5.150,-71.370,364.070
778,37437.714000,157.193,-32.564,108.155,432.014,-280.800,103.786,-71.150,42.630,31.070
779,37437.750000,185.138,-72.642,111.132,436.842,-282.596,104.727,145.850,25.630,-175.930
780,37437.789000,270.971,-67.632,92.279,435.046,-273.062,108.924,320.850,-54.370,-8.930
781,37437.829000,224.062,-11.523,84.341,437.919,-275.831,109.835,166.850,-33.370,102.070
782,37437.855000,226.058,-8.517,85.333,434.938,-280.601,109.698,71.850,-59.370,114.070
783,37437.889000,254.004,-18.536,74.419,436.878,-280.599,108.717,-78.150,-88.370,99.070
784,37437.929000,229.053,-4.509,72.434,431.865,-291.175,104.480,-200.150,-84.370,-3.930
785,37437.969000,234.043,-12.524,75.411,437.812,-281.821,97.865,-295.150,-137.370,-53.930
786,37438.9000,237.037,-30.560,79.380,435.812,-284.922,88.923,-293.150,-133.370,-118.930
787,37438.49000,224.062,-34.568,80.372,436.827,-281.258,84.109,-186.150,-146.370,-190.930
788,37438.95000,229.053,-25.550,69.457,439.688,-284.185,79.114,-133.150,-154.370,-204.930
789,37438.130000,228.055,-26.552,75.411,447.642,-270.889,77.530,12.850,-163.370,-245.930
790,37438.150000,244.023,-42.583,81.364,448.565,-273.791,74.500,144.850,-181.370,-160.930
791,37438.193000,251.010,-39.577,83.349,451.502,-271.885,73.575,83.850,-180.370,-136.930
792,37438.230000,258.994,-13.526,87.318,454.442,-269.191,66.769,-83.150,-127.370,-152.930
793,37438.278000,259.992,4.509,95.256,457.424,-263.634,61.027,-270.150,-26.370,-64.930
794,37438.315000,229.053,-16.532,92.279,461.303,-263.631,59.066,-206.150,-5.370,-88.930
795,37438.355000,214.082,-25.550,78.388,459.481,-255.201,57.331,-211.150,-144.370,-150.930
796,37438.390000,234.043,-20.540,94.264,461.381,-257.249,50.392,-122.150,-168.370,-225.930
797,37438.435000,276.959,-26.552,94.264,459.457,-255.517,45.519,110.850,-44.370,-193.930
798,37438.455000,314.885,-31.562,48.620,465.362,-250.548,51.568,301.850,34.630,-30.930
799,37438.495000,309.895,-12.524,30.760,461.475,-251.417,56.456,163.850,175.630,142.070
800,37438.535000,226.058,-24.548,10.915,468.451,-240.524,71.525,353.850,420.630,-224.930
801,37438.577000,185.138,4.509,24.806,462.669,-239.292,85.320,514.850,319.630,-137.930
802,37438.619000,236.039,37.573,7.938,470.543,-232.405,91.426,331.850,-10.370,99.070
803,37438.654000,265.980,25.550,-2.977,460.772,-237.218,93.243,265.850,59.630,156.070
804,37438.694000,266.979,12.524,43.659,466.555,-240.734,100.040,376.850,102.630,-25.930
805,37438.734000,243.025,25.550,29.767,467.669,-231.946,110.123,358.850,102.630,-79.930
806,37438.755000,239.033,29.558,36.713,463.857,-227.246,111.230,261.850,112.630,-24.930
807,37438.795000,252.008,21.542,40.682,467.791,-224.223,116.239,155.850,96.630,-6.930
808,37438.835000,232.047,26.552,60.527,461.966,-225.093,122.107,242.850,187.630,8.070
809,37438.878000,236.039,31.562,43.659,462.043,-220.260,126.176,219.850,129.630,2.070
810,37438.914000,237.037,14.528,52.589,461.027,-223.924,130.990,130.850,105.630,74.070
811,37438.954000,241.029,15.530,53.581,459.948,-231.477,131.762,73.850,-6.370,122.070
812,37438.994000,250.012,5.511,54.574,460.974,-227.680,131.869,3.850,24.630,119.070
813,37439.39000,243.025,11.523,51.597,459.013,-229.494,135.750,-47.150,87.630,97.070
814,37439.52000,246.020,12.524,70.450,458.074,-227.564,137.769,-45.150,140.630,20.070
815,37439.92000,261.988,4.509,70.450,453.097,-236.143,137.522,-5.150,219.630,115.070
816,37439.132000,250.012,-6.513,88.310,446.279,-238.839,146.288,-23.150,335.630,180.070
817,37439.172000,224.062,1.503,89.302,443.175,-252.881,152.778,28.850,224.630,451.070
818,37439.212000,230.051,-3.507,90.295,431.478,-256.749,155.601,24.850,77.630,562.070
819,37439.252000,210.090,18.536,86.326,429.441,-263.396,155.413,-167.150,185.630,344.070
820,37439.292000,197.115,18.536,73.426,425.562,-263.399,157.374,-280.150,133.630,147.070
821,37439.332000,210.090,-19.538,88.310,424.448,-272.948,154.155,-339.150,42.630,62.070
822,37439.359000,250.012,-43.585,80.372,422.623,-265.331,157.315,-74.150,247.630,-0.930
823,37439.394000,382.752,-61.620,34.729,420.748,-261.418,163.322,297.850,394.630,-452.930
824,37439.443000,278.955,-4.509,-9.922,423.897,-246.036,171.624,-57.150,90.630,-418.930
825,37439.470000,253.006,69.636,-16.868,427.663,-252.864,161.605,-121.150,-487.370,67.070
826,37439.517000,234.043,-40.579,41.674,422.765,-256.584,166.411,-155.150,202.630,376.070
827,37439.557000,229.053,-72.642,46.636,414.801,-270.011,163.073,-75.150,111.630,356.070
828,37439.597000,232.047,-30.560,38.698,417.780,-265.268,162.227,36.850,-157.370,52.070
829,37439.622000,219.072,-14.528,29.767,420.652,-268.038,163.138,290.850,-178.370,-209.930
830,37439.665000,253.006,-10.521,27.783,425.726,-252.839,163.569,392.850,-173.370,-107.930
831,37439.694000,268.975,10.521,21.829,426.718,-251.774,167.535,196.850,-32.370,-8.930
832,37439.734000,239.033,4.509,24.806,423.722,-257.515,166.387,151.850,-43.370,4.070
833,37439.775000,260.990,-35.569,30.760,428.699,-248.936,166.634,198.850,-63.370,-32.930
834,37439.818000,266.979,-13.526,72.434,424.729,-254.717,164.499,8.850,-130.370,31.070
835,37439.853000,326.862,11.523,89.302,425.631,-258.671,157.505,28.850,-359.370,226.070
836,37439.893000,320.873,-37.573,77.395,423.690,-258.698,157.501,12.850,-172.370,194.070
837,37439.913000,256.000,-45.589,77.395,424.525,-268.114,158.224,18.850,116.630,-72.930
838,37439.952000,175.158,-14.528,87.318,427.458,-266.261,155.330,16.850,-14.370,-35.930
839,37439.997000,156.195,19.538,92.279,431.370,-264.288,156.375,-2.150,-191.370,139.070
840,37440.37000,181.146,44.587,84.341,424.408,-274.997,148.197,-174.150,-225.370,237.070
841,37440.85000,301.910,-12.524,87.318,431.179,-275.978,143.263,-182.150,-249.370,77.070
842,37440.115000,266.979,-67.632,105.178,431.142,-278.001,138.288,-65.150,-67.370,-137.930
843,37440.157000,207.096,-24.548,110.140,433.193,-271.170,145.367,229.850,96.630,-126.930
844,37440.193000,191.127,-1.503,87.318,431.185,-275.899,146.216,247.850,11.630,-20.930
845,37440.212000,224.062,1.503,89.302,428.307,-273.970,149.215,172.850,-136.370,101.070
846,37440.253000,218.074,-0.501,87.318,429.209,-278.684,149.086,138.850,-152.370,170.070
847,37440.297000,228.055,-4.509,84.341,429.315,-271.172,147.328,147.850,-221.370,131.070
848,37440.337000,248.016,-14.528,76.403,432.120,-277.882,142.228,33.850,-261.370,56.070
849,37440.373000,229.053,-19.538,80.372,435.079,-274.163,138.402,-56.150,-193.370,-44.930
850,37440.422000,249.014,-3.507,96.248,436.060,-273.257,136.461,-20.150,-150.370,-12.930
851,37440.458000,246.020,3.507,99.225,433.126,-274.349,132.492,-87.150,-27.370,81.070
852,37440.495000,223.064,-10.521,97.240,431.114,-279.131,131.372,-51.150,-13.370,126.070
853,37440.515000,213.084,-33.566,98.233,426.274,-278.254,131.388,144.850,-86.370,119.070
854,37440.553000,237.037,-46.591,94.264,431.126,-278.212,130.414,372.850,-242.370,82.070
855,37440.593000,263.984,-47.593,94.264,428.275,-274.391,133.466,467.850,-219.370,11.070
856,37440.637000,256.000,-15.530,97.240,432.165,-274.231,137.411,261.850,-194.370,-11.930
857,37440.678000,251.010,30.560,70.450,431.226,-271.539,132.567,38.850,-73.370,32.070
858,37440.712000,251.010,22.544,57.550,433.030,-280.968,132.307,-209.150,32.630,81.070
859,37440.758000,277.957,-12.524,31.752,430.057,-284.871,129.243,-360.150,136.630,110.070
860,37440.792000,237.037,-41.581,34.729,430.102,-281.981,131.291,-251.150,253.630,10.070
861,37440.818000,253.006,-41.581,19.845,426.164,-285.819,131.177,-154.150,65.630,21.070
862,37440.858000,239.033,-35.569,22.822,426.223,-281.222,126.387,-154.150,-98.370,81.070
863,37440.898000,251.010,-6.513,26.791,422.222,-288.948,122.231,-78.150,-244.370,52.070
864,37440.944000,256.000,4.509,17.860,426.120,-287.159,116.386,-250.150,-58.370,12.070
865,37440.973000,245.021,-9.519,25.798,424.106,-291.968,114.281,-346.150,48.630,-52.930
866,37441.13000,246.020,-35.569,37.705,428.016,-290.022,114.342,-327.150,125.630,-105.930
867,37441.58000,256.998,-55.609,42.667,430.848,-294.866,108.310,-316.150,204.630,-137.930
868,37441.97000,237.037,-52.603,44.651,429.889,-293.961,107.350,-194.150,75.630,-34.930
869,37441.117000,234.043,-44.587,48.620,425.994,-294.935,108.300,-100.150,60.630,18.070
870,37441.157000,255.002,-37.573,51.597,427.936,-294.908,108.304,-182.150,18.630,-34.930
871,37441.197000,253.006,-34.568,54.574,428.939,-292.162,104.448,-114.150,58.630,-61.930
872,37441.237000,243.025,-27.554,53.581,426.193,-281.617,111.622,-64.150,112.630,-35.930
873,37441.277000,245.021,-30.560,54.574,428.075,-285.425,109.552,-51.150,123.630,-139.930
874,37441.317000,241.029,-31.562,66.481,430.168,-274.996,109.846,-30.150,193.630,-233.930
875,37441.353000,238.035,-17.534,76.403,432.178,-271.001,116.845,-138.150,234.630,-233.930
876,37441.393000,243.025,-10.521,97.240,436.106,-268.057,118.901,-239.150,298.630,-282.930
877,37441.424000,210.090,11.523,90.295,441.020,-263.365,115.105,-449.150,212.630,-412.930
878,37441.453000,220.070,22.544,97.240,445.044,-253.040,110.481,-392.150,13.630,-568.930
879,37441.493000,233.045,-40.579,102.202,450.993,-243.659,104.851,-501.150,-14.370,-445.930
880,37441.542000,248.016,-44.587,69.457,455.778,-248.318,104.729,-303.150,-143.370,-124.930
881,37441.574000,320.873,20.540,18.853,455.826,-243.853,95.017,-123.150,-242.370,383.070
882,37441.614000,231.049,-0.501,4.961,443.005,-258.164,96.565,-32.150,200.630,398.070
883,37441.657000,202.105,-64.626,-1.984,442.103,-253.450,96.695,293.850,-51.370,9.070
884,37441.697000,279.953,-1.503,2.977,445.939,-257.072,100.535,334.850,-199.370,21.070
885,37441.717000,308.897,55.609,-15.876,446.000,-252.449,96.729,124.850,-164.370,51.070
886,37441.757000,254.004,17.534,-18.853,446.872,-259.081,95.562,178.850,-118.370,-108.930
887,37441.797000,256.998,7.515,1.984,446.964,-252.514,93.778,88.850,-171.370,-17.930
888,37441.837000,257.996,21.542,3.969,445.076,-248.785,92.895,-65.150,-21.370,21.070
889,37441.883000,244.023,15.530,17.860,448.990,-246.787,94.924,-91.150,96.630,-2.930
890,37441.918000,235.041,-0.501,22.822,445.923,-257.282,92.660,-105.150,-91.370,83.070
891,37441.958000,225.060,9.519,6.946,445.970,-253.605,88.828,-86.150,-173.370,146.070
892,37441.998000,237.037,17.534,1.984,446.732,-267.041,80.587,-97.150,-276.370,202.070
893,37442.18000,274.963,20.540,-17.860,439.023,-262.581,74.796,-185.150,-179.370,181.070
894,37442.58000,266.979,-2.505,-31.752,441.853,-267.452,67.780,-314.150,-105.370,101.070
895,37442.98000,260.990,-1.503,16.868,441.792,-271.313,64.722,-127.150,-60.370,-35.930
896,37442.138000,334.846,-44.587,52.589,443.701,-273.230,62.704,-93.150,-6.370,-72.930
897,37442.184000,323.867,-79.656,78.388,450.698,-259.763,68.009,272.850,287.630,-366.930
898,37442.214000,224.062,-5.511,64.496,452.672,-258.553,76.898,217.850,239.630,-275.930
899,37442.254000,212.086,14.528,82.357,451.719,-257.569,78.891,86.850,185.630,80.070
900,37442.294000,208.094,-4.509,84.341,451.686,-260.300,82.750,47.850,129.630,97.070
901,37442.315000,197.115,-51.601,92.279,452.684,-258.395,82.804,164.850,20.630,-165.930
902,37442.355000,233.045,-40.579,88.310,453.737,-253.469,89.828,206.850,-17.370,-333.930
903,37442.398000,268.975,33.566,71.442,454.692,-254.427,88.820,157.850,-57.370,-68.930
904,37442.439000,247.018,14.528,73.426,454.690,-254.453,87.835,1.850,8.630,151.070
905,37442.479000,246.020,-23.546,71.442,449.780,-258.331,86.736,-174.150,33.630,84.070
906,37442.519000,231.049,-15.530,73.426,452.715,-256.451,84.826,-175.150,40.630,3.070
907,37442.554000,220.070,-2.505,62.512,455.497,-265.000,81.642,-175.150,-75.370,34.070
908,37442.595000,222.066,-11.523,64.496,453.662,-257.515,79.880,-121.150,-191.370,34.070
909,37442.615000,234.043,-30.560,60.527,455.479,-265.237,72.783,-62.150,-206.370,-34.930
910,37442.655000,246.020,-21.542,64.496,457.505,-258.748,67.065,-38.150,-245.370,-85.930
911,37442.695000,249.014,-20.540,73.426,455.569,-257.935,63.150,12.850,-178.370,-91.930
912,37442.737000,251.010,-25.550,63.504,458.595,-250.276,65.335,165.850,-165.370,-132.930
913,37442.779000,258.994,-25.550,68.465,457.548,-255.123,61.264,151.850,-49.370,-37.930
914,37442.819000,230.051,-12.524,88.310,458.605,-249.383,63.393,63.850,-3.370,10.070
915,37442.859000,236.039,0.501,87.318,463.366,-255.881,65.187,-127.150,-42.370,-16.930
916,37442.879000,257.996,2.505,84.341,462.450,-251.351,58.426,-167.150,-73.370,26.070
917,37442.919000,230.051,-18.536,78.388,467.244,-255.117,56.362,-153.150,-88.370,-95.930
918,37442.954000,243.025,-20.540,81.364,465.430,-245.059,44.836,-192.150,-332.370,-129.930
919,37442.997000,271.969,-29.558,95.256,468.256,-251.505,49.579,63.850,-75.370,-106.930
920,37443.35000,251.010,-33.566,65.488,465.509,-240.199,49.889,173.850,133.630,-127.930
921,37443.75000,285.942,-15.530,29.767,466.409,-245.701,55.639,221.850,193.630,-40.930
922,37443.115000,241.029,9.519,0.992,462.523,-247.331,67.391,231.850,386.630,201.070
923,37443.155000,221.068,20.540,3.969,461.547,-248.947,78.164,211.850,280.630,154.070
924,37443.175000,248.016,27.554,0.000,464.514,-245.123,78.275,94.850,-22.370,77.070
925,37443.215000,272.967,10.521,10.915,464.516,-245.097,79.260,131.850,126.630,23.070
926,37443.260000,238.035,-6.513,24.806,459.742,-240.305,84.303,162.850,68.630,-45.930
927,37443.294000,239.033,9.519,27.783,462.715,-236.403,87.367,167.850,-6.370,-51.930
928,37443.340000,251.010,22.544,29.767,464.591,-241.051,89.208,130.850,32.630,-54.930
929,37443.374000,253.006,18.536,39.690,463.707,-235.338,91.333,145.850,68.630,17.070
930,37443.420000,234.043,12.524,60.527,459.786,-238.965,99.094,199.850,132.630,60.070
931,37443.460000,243.025,10.521,53.581,462.790,-233.118,104.180,206.850,73.630,72.070
932,37443.479000,245.021,20.540,59.535,455.925,-238.730,109.914,136.850,132.630,112.070
933,37443.518000,245.021,9.519,64.496,458.839,-238.663,110.904,79.850,60.630,127.070
934,37443.555000,246.020,-0.501,68.465,454.825,-248.095,113.586,121.850,82.630,148.070
935,37443.599000,247.018,3.507,61.519,452.970,-242.396,115.709,50.850,135.630,201.070
936,37443.639000,244.023,7.515,54.574,448.858,-259.236,124.086,-71.150,270.630,179.070
937,37443.682000,220.070,12.524,74.419,446.045,-252.631,125.249,-112.150,321.630,116.070
938,37443.719000,213.084,-25.550,84.341,440.085,-262.905,132.822,92.850,264.630,235.070
939,37443.759000,204.101,-32.564,95.256,430.434,-260.021,139.771,100.850,63.630,634.070
940,37443.779000,259.992,-29.558,85.333,422.467,-274.263,141.329,264.850,57.630,418.070
941,37443.820000,293.926,-50.599,58.543,419.677,-266.581,147.439,169.850,290.630,-2.930
942,37443.860000,217.076,-3.507,27.783,419.656,-269.155,157.204,278.850,221.630,-133.930
943,37443.899000,233.045,24.548,5.953,421.743,-259.566,161.408,244.850,51.630,-74.930
944,37443.940000,323.867,4.509,26.791,419.813,-258.674,160.446,-83.150,-90.370,-44.930
945,37443.994000,315.883,-52.603,21.829,423.694,-258.645,159.470,-136.150,69.630,-89.930
946,37444.19000,227.057,-7.515,17.860,424.639,-260.497,160.404,-91.150,33.630,-83.930
947,37444.57000,226.058,-27.554,30.760,425.664,-256.700,160.511,47.850,-25.370,161.070
948,37444.92000,226.058,-44.587,37.705,420.691,-265.227,162.233,78.850,51.630,176.070
949,37444.127000,235.041,-34.568,35.721,420.660,-267.171,160.211,222.850,-86.370,84.070
950,37444.155000,249.014,-5.511,20.837,419.778,-261.432,163.320,247.850,-50.370,11.070
951,37444.195000,248.016,-0.501,21.829,415.915,-260.462,166.292,186.850,-3.370,-25.930
952,37444.253000,251.010,-10.521,30.760,418.802,-262.286,167.229,77.850,15.630,-125.930
953,37444.280000,242.027,-13.526,25.798,422.796,-254.640,168.432,-72.150,33.630,-200.930
954,37444.315000,245.021,-17.534,35.721,430.591,-251.851,162.621,-91.150,-183.370,-155.930
955,37444.360000,278.955,-5.511,40.682,430.555,-253.847,158.631,-143.150,-253.370,-22.930
956,37444.387000,305.903,-1.503,54.574,428.550,-257.001,147.721,-402.150,-249.370,164.070
957,37444.415000,301.910,-48.595,66.481,429.399,-264.711,141.606,-233.150,-191.370,158.070
958,37444.455000,256.000,-61.620,67.473,432.305,-264.748,138.659,-19.150,-9.370,-88.930
959,37444.500000,217.076,-23.546,85.333,426.455,-266.696,139.579,49.850,4.630,-80.930
960,37444.540000,204.101,-5.511,85.333,433.291,-263.763,139.672,100.850,-21.370,-40.930
961,37444.575000,196.117,7.515,84.341,432.285,-266.534,142.544,89.850,-72.370,11.070
962,37444.620000,222.066,9.519,87.318,433.242,-266.705,135.655,24.850,-173.370,172.070
963,37444.659000,295.922,-31.562,87.318,433.077,-278.052,135.339,20.850,-127.370,90.070
964,37444.675000,273.965,-36.571,82.357,438.138,-263.773,136.729,-55.150,99.630,-152.930
965,37444.717000,213.084,-0.501,78.388,437.091,-269.381,139.522,41.850,120.630,-167.930
966,37444.757000,207.096,-1.503,79.380,442.019,-264.505,142.616,115.850,7.630,-124.930
967,37444.798000,200.109,-11.523,78.388,440.055,-266.372,144.528,199.850,1.630,-27.930
968,37444.837000,228.055,-12.524,77.395,441.135,-258.793,144.741,221.850,-100.370,24.070
969,37444.879000,247.018,-10.521,74.419,440.092,-263.587,142.639,174.850,-132.370,63.070
970,37444.919000,234.043,-2.505,72.434,440.178,-257.861,144.765,226.850,-168.370,50.070
971,37444.958000,254.004,7.515,65.488,439.107,-264.547,142.610,186.850,-115.370,45.070
972,37444.980000,228.055,5.511,64.496,442.051,-262.562,144.638,65.850,-158.370,61.070
973,37445.22000,248.016,-7.515,72.434,444.939,-263.598,139.696,104.850,-238.370,17.070
974,37445.59000,275.961,-1.503,53.581,446.023,-255.205,135.013,-81.150,-160.370,-125.930
975,37445.97000,232.047,13.526,57.550,448.890,-258.053,132.971,-4.150,-35.370,-119.930
976,37445.142000,266.979,-8.517,65.488,447.029,-252.433,132.141,62.850,-126.370,-79.930
977,37445.182000,260.990,-7.515,58.543,448.971,-252.406,132.145,58.850,2.630,-118.930
978,37445.223000,239.033,4.509,57.550,451.898,-251.392,133.162,42.850,15.630,-110.930
979,37445.237000,248.016,3.507,63.504,455.815,-249.367,136.175,70.850,-22.370,-151.930
980,37445.284000,249.014,4.509,54.574,450.122,-240.072,133.474,55.850,-45.370,-207.930
981,37445.324000,236.039,14.528,54.574,455.936,-240.883,135.428,7.850,-52.370,-196.930
982,37445.358000,241.029,15.530,47.628,455.932,-240.935,133.459,-3.150,-67.370,-134.930
983,37445.398000,247.018,6.513,40.682,462.815,-234.325,129.720,-30.150,-61.370,-78.930
984,37445.438000,241.029,12.524,38.698,460.819,-238.135,129.611,-60.150,-34.370,-24.930
985,37445.478000,236.039,26.552,31.752,459.917,-233.421,129.741,-113.150,-49.370,50.070
986,37445.518000,232.047,18.536,27.783,459.769,-243.009,124.556,-111.150,-108.370,176.070
987,37445.544000,217.076,20.540,20.837,455.810,-247.897,120.479,-68.150,-85.370,315.070
988,37445.578000,192.125,33.566,56.558,446.856,-262.363,114.160,-98.150,-300.370,598.070
989,37445.618000,330.854,-71.640,16.868,445.802,-267.289,107.135,-210.150,-404.370,536.070
990,37445.658000,342.830,-64.626,35.721,441.854,-271.259,102.100,-205.150,-219.370,-99.930
991,37445.698000,264.982,-4.509,53.581,445.823,-265.477,104.235,-12.150,397.630,-193.930
992,37445.738000,197.115,16.532,42.667,443.808,-271.073,108.010,-130.150,269.630,-86.930
993,37445.778000,196.117,9.519,42.667,447.779,-264.504,104.265,-309.150,-136.370,56.070
994,37445.820000,233.045,-21.542,45.643,444.701,-275.132,97.079,-288.150,-201.370,146.070
995,37445.838000,281.949,-46.591,35.721,443.732,-274.358,91.198,-177.150,-154.370,219.070
996,37445.878000,286.940,-33.566,49.612,444.622,-279.230,85.162,-129.150,-133.370,55.070
997,37445.918000,255.002,-2.505,43.659,441.681,-281.189,84.119,-255.150,-34.370,40.070
998,37445.958000,237.037,7.515,34.729,438.678,-287.009,80.018,-287.150,2.630,163.070
999,37445.998000,254.004,-15.530,37.705,433.842,-285.318,75.138,-313.150,-54.370,165.070
1000,37446.38000,256.000,-46.591,43.659,430.749,-297.679,73.806,-208.150,27.630,102.070
1001,37446.78000,245.021,-46.591,41.674,433.699,-294.854,71.922,-68.150,41.630,60.070
1002,37446.118000,235.041,-34.568,27.783,436.640,-292.895,72.965,-35.150,61.630,66.070
1003,37446.138000,246.020,-27.554,25.798,429.834,-293.910,73.909,-15.150,0.630,60.070
1004,37446.180000,256.000,-22.544,19.845,433.673,-296.719,72.854,-27.150,-30.370,0.070
1005,37446.227000,244.023,-10.521,27.783,428.820,-296.787,72.844,-69.150,-25.370,-28.930
1006,37446.262000,253.006,-27.554,26.791,433.620,-299.713,66.869,-50.150,-51.370,-45.930
1007,37446.302000,247.018,-35.569,32.744,432.706,-295.918,67.956,-129.150,2.630,-38.930
1008,37446.355000,246.020,-29.558,29.767,432.751,-292.267,63.140,-141.150,-83.370,-42.930
1009,37446.395000,244.023,-26.552,30.760,432.782,-289.562,58.297,-122.150,-166.370,-65.930
1010,37446.423000,249.014,-25.550,19.845,434.663,-293.396,55.243,-153.150,-227.370,-70.930
1011,37446.449000,251.010,-31.562,16.868,433.621,-297.403,47.261,-232.150,-239.370,-72.930
1012,37446.478000,248.016,-35.569,18.853,438.576,-289.113,36.680,-214.150,-208.370,-107.930
1013,37446.518000,247.018,-40.579,19.845,441.491,-288.258,31.791,-93.150,-166.370,-155.930
1014,37446.573000,258.994,-47.593,13.891,448.378,-281.595,30.020,12.850,-106.370,-172.930
1015,37446.608000,259.992,-43.585,12.899,445.492,-279.771,29.083,40.850,-34.370,-151.930
1016,37446.643000,259.992,-24.548,12.899,448.457,-275.974,28.210,-36.150,-29.370,-132.930
1017,37446.684000,277.957,0.501,20.837,445.442,-282.713,25.066,-198.150,-37.370,-27.930
1018,37446.718000,279.953,-9.519,24.806,446.464,-278.970,23.205,-316.150,87.630,136.070
1019,37446.738000,254.004,-34.568,19.845,443.444,-286.550,23.973,-206.150,243.630,112.070
1020,37446.778000,240.031,-38.575,14.884,441.548,-283.688,26.016,-171.150,252.630,78.070
1021,37446.825000,214.082,-32.564,21.829,441.401,-294.037,27.695,-45.150,148.630,17.070
1022,37446.874000,238.035,-23.546,20.837,442.442,-289.269,28.813,-55.150,26.630,15.070
1023,37446.902000,269.973,-15.530,21.829,441.576,-282.558,32.933,48.850,231.630,77.070
