Sample, Time, ACCX, ACCY, ACCZ, MAGX, MAGY, MAGZ, GYRX, GYRY, GYRZ
0,37497.520000,239.033,-31.562,17.860,454.475,-270.292,96.247,240.850,76.630,-33.930
1,37497.547000,240.031,-16.532,32.744,453.571,-265.604,95.392,126.850,138.630,-153.930
2,37497.568000,249.014,-12.524,42.667,454.587,-262.701,97.442,-22.150,117.630,-210.930
3,37497.608000,273.965,7.515,54.574,455.616,-258.852,99.518,113.850,118.630,-188.930
4,37497.647000,266.979,7.515,55.566,456.576,-260.519,107.342,28.850,239.630,-14.930
5,37497.686000,244.023,-11.523,49.612,451.656,-266.051,115.049,18.850,378.630,113.070
6,37497.755000,235.041,-31.562,53.581,452.711,-261.098,123.057,171.850,309.630,-29.930
7,37497.772000,223.064,-36.571,57.550,455.580,-264.682,128.864,172.850,242.630,-237.930
8,37497.812000,240.031,-2.505,69.457,455.742,-254.148,134.075,-124.150,278.630,-174.930
9,37497.854000,222.066,19.538,72.434,459.703,-248.472,132.272,-189.150,-5.370,-202.930
10,37497.875000,238.035,17.534,77.395,460.678,-248.405,134.243,-53.150,28.630,-188.930
11,37497.921000,265.980,-15.530,52.589,460.656,-249.456,130.279,-129.150,21.630,149.070
12,37497.955000,235.041,-21.542,49.612,459.617,-254.960,137.010,28.850,327.630,80.070
13,37497.987000,229.053,-8.517,46.636,456.681,-256.839,138.920,104.850,100.630,-25.930
14,37498.27000,248.016,-0.501,38.698,456.765,-250.378,133.198,113.850,-423.370,82.070
15,37498.67000,295.922,12.524,80.372,459.733,-247.316,140.174,64.850,198.630,-90.930
16,37498.109000,282.947,38.575,52.589,456.770,-251.087,142.031,-366.150,552.630,39.070
17,37498.129000,288.936,21.542,67.473,449.027,-250.907,152.843,-85.150,451.630,148.070
18,37498.169000,269.973,2.505,80.372,444.121,-256.255,167.440,-207.150,747.630,-48.930
19,37498.209000,174.160,-39.577,28.775,451.097,-244.600,175.644,423.850,201.630,-648.930
20,37498.247000,224.062,30.560,92.279,453.148,-237.008,175.859,-467.150,-63.370,88.070
21,37498.296000,119.267,44.587,0.992,454.947,-244.205,153.039,-242.150,-1075.370,205.070
22,37498.334000,210.090,22.544,92.279,458.779,-245.570,135.302,-83.150,-651.370,96.070
23,37498.374000,335.844,-23.546,68.465,463.457,-254.696,109.483,-63.150,-978.370,366.070
24,37498.409000,378.760,-36.571,0.000,461.490,-255.827,103.546,50.850,-199.370,109.070
25,37498.429000,214.082,-0.501,67.473,453.776,-254.491,122.259,91.850,657.630,-55.930
26,37498.469000,239.033,-4.509,56.558,452.768,-256.528,117.283,-205.150,-382.370,105.070
27,37498.519000,242.027,-4.509,66.481,450.790,-259.340,119.168,-79.150,175.630,52.070
28,37498.554000,244.023,-10.521,60.527,454.648,-260.362,114.228,-336.150,-3.370,67.070
29,37498.594000,226.058,-21.542,47.628,452.595,-267.981,113.029,-229.150,-13.370,-69.930
30,37498.641000,240.031,-32.564,39.690,453.679,-259.588,108.347,-192.150,-219.370,-79.930
31,37498.669000,264.982,-48.595,26.791,457.483,-264.393,103.301,-28.150,-150.370,11.070
32,37498.707000,263.984,-58.614,27.783,456.506,-264.486,100.346,56.850,-127.370,166.070
33,37498.727000,247.018,-41.581,37.705,452.528,-271.160,100.154,164.850,-114.370,215.070
34,37498.767000,243.025,-22.544,33.736,452.602,-266.353,103.239,322.850,-96.370,218.070
35,37498.807000,262.986,-11.523,23.814,451.569,-271.016,106.058,343.850,-61.370,85.070
36,37498.856000,254.004,-14.528,20.837,454.528,-268.059,109.096,306.850,-34.370,-19.930
37,37498.889000,232.047,-24.548,18.853,451.581,-270.858,111.964,166.850,-9.370,-112.930
38,37498.929000,231.049,-7.515,28.775,456.599,-259.442,112.290,-19.150,-97.370,-160.930
39,37498.971000,267.977,21.542,44.651,459.424,-264.365,103.305,-256.150,-193.370,-166.930
40,37499.17000,301.910,-14.528,76.403,461.440,-258.769,99.530,-74.150,-62.370,-107.930
41,37499.35000,275.961,-37.573,55.566,461.490,-255.827,103.546,14.850,106.630,-34.930
42,37499.78000,219.072,-31.562,55.566,461.539,-252.885,107.563,101.850,60.630,-127.930
43,37499.111000,215.080,-6.513,37.705,466.431,-250.006,106.667,-6.150,-168.370,-57.930
44,37499.151000,257.996,6.513,41.674,467.384,-250.990,104.674,69.850,-159.370,-24.930
45,37499.191000,261.988,1.503,27.783,470.276,-251.974,101.701,-21.150,27.630,-88.930
46,37499.237000,246.020,-0.501,42.667,468.357,-250.950,105.661,-13.150,24.630,-59.930
47,37499.271000,230.051,-4.509,35.721,469.398,-245.421,99.915,-47.150,-184.370,-62.930
48,37499.310000,241.029,-14.528,36.713,473.251,-246.522,92.022,52.850,-226.370,-36.930
49,37499.330000,241.029,-5.511,21.829,473.227,-247.599,87.074,11.850,-222.370,32.070
50,37499.374000,249.014,-2.505,25.798,468.218,-258.122,84.805,-111.150,-339.370,111.070
51,37499.414000,256.000,-6.513,34.729,473.191,-248.834,76.219,2.850,-294.370,49.070
52,37499.454000,262.986,2.505,34.729,475.047,-253.746,68.217,111.850,-286.370,-12.930
53,37499.499000,264.982,4.509,28.775,479.011,-248.043,67.399,96.850,-253.370,-48.930
54,37499.534000,261.988,7.515,17.860,478.055,-246.324,61.543,64.850,-215.370,-88.930
55,37499.575000,258.994,19.538,22.822,480.987,-244.496,57.665,-120.150,-256.370,-120.930
56,37499.594000,257.996,20.540,13.891,480.014,-243.775,49.814,-164.150,-224.370,-143.930
57,37499.634000,256.998,6.513,8.930,482.043,-237.233,46.065,-59.150,-68.370,-133.930
58,37499.669000,248.016,2.505,14.884,485.853,-241.959,43.973,-26.150,-76.370,-41.930
59,37499.710000,254.004,2.505,17.860,490.771,-237.215,42.146,-12.150,-7.370,54.070
60,37499.755000,261.988,11.523,13.891,485.819,-243.930,40.967,-93.150,83.630,62.070
61,37499.795000,250.012,9.519,11.907,486.881,-238.137,45.065,-99.150,108.630,50.070
62,37499.835000,252.008,-1.503,23.814,484.837,-244.863,41.923,29.850,31.630,15.070
63,37499.875000,256.000,3.507,11.907,481.923,-245.691,47.797,119.850,-13.370,13.070
64,37499.900000,246.020,15.530,14.884,483.874,-244.771,45.859,-105.150,73.630,27.070
65,37499.935000,248.016,14.528,20.837,480.919,-247.675,44.789,-112.150,-5.370,18.070
66,37499.976000,257.996,9.519,10.915,481.945,-243.879,44.896,-179.150,73.630,-23.930
67,37500.9000,260.990,-5.511,8.930,485.855,-241.933,44.957,43.850,59.630,-96.930
68,37500.55000,250.012,-6.513,13.891,483.975,-238.099,48.012,146.850,104.630,-105.930
69,37500.89000,251.010,6.513,20.837,483.959,-239.832,53.865,183.850,113.630,57.070
70,37500.135000,254.004,6.513,12.899,485.815,-246.293,58.606,265.850,274.630,74.070
71,37500.175000,252.008,-1.503,12.899,480.138,-237.548,70.643,114.850,188.630,29.070
72,37500.195000,256.998,-3.507,20.837,481.097,-238.454,71.603,272.850,99.630,-11.930
73,37500.235000,253.006,-3.507,10.915,475.258,-240.270,77.445,267.850,93.630,19.070
74,37500.276000,256.000,-4.509,23.814,477.220,-239.979,87.292,246.850,266.630,90.070
75,37500.319000,252.008,-6.513,32.744,474.341,-238.811,97.156,224.850,261.630,59.070
76,37500.357000,254.004,-3.507,41.674,477.232,-240.582,100.062,186.850,264.630,39.070
77,37500.390000,248.016,1.503,39.690,476.252,-242.251,108.867,135.850,243.630,35.070
78,37500.430000,241.029,10.521,42.667,474.356,-240.150,117.774,164.850,243.630,44.070
79,37500.470000,240.031,0.501,34.729,471.388,-244.761,123.543,211.850,141.630,72.070
80,37500.490000,248.016,0.501,40.682,469.539,-238.983,128.619,149.850,115.630,120.070
81,37500.530000,248.016,-3.507,41.674,464.428,-256.966,130.077,163.850,62.630,104.070
82,37500.570000,254.004,-1.503,46.636,464.572,-247.431,133.293,166.850,-8.370,29.070
83,37500.616000,257.996,6.513,30.760,464.672,-240.759,135.446,35.850,-47.370,5.070
84,37500.650000,252.008,7.515,26.791,466.594,-241.756,132.471,-31.150,34.630,9.070
85,37500.690000,240.031,-0.501,31.752,465.564,-245.605,130.395,-97.150,17.630,12.070
86,37500.736000,247.018,-4.509,36.713,468.447,-247.481,129.364,-117.150,-63.370,24.070
87,37500.770000,254.004,-5.511,39.690,466.446,-251.344,127.286,-124.150,-58.370,33.070
88,37500.790000,253.006,-0.501,36.713,466.531,-245.644,128.428,-119.150,-36.370,26.070
89,37500.830000,255.002,2.505,40.682,464.485,-252.396,124.302,-116.150,-9.370,18.070
90,37500.870000,256.000,-4.509,35.721,462.518,-254.289,125.230,-75.150,48.630,0.070
91,37500.910000,245.021,-3.507,34.729,463.505,-253.303,126.243,-111.150,8.630,6.070
92,37500.959000,249.014,-3.507,35.721,464.428,-256.205,123.213,-132.150,0.630,3.070
93,37500.994000,253.006,-3.507,39.690,463.544,-249.731,118.473,-109.150,7.630,0.070
94,37501.35000,248.016,0.501,37.705,459.646,-251.519,124.319,-94.150,24.630,-21.930
95,37501.75000,256.998,0.501,43.659,461.487,-258.164,122.170,-166.150,-13.370,8.070
96,37501.95000,248.016,-2.505,35.721,463.512,-251.675,116.452,-137.150,50.630,6.070
97,37501.135000,242.027,-3.507,38.698,462.433,-259.227,117.224,-193.150,-3.370,3.070
98,37501.177000,251.010,-6.513,44.651,461.484,-257.429,114.321,-202.150,-71.370,3.070
99,37501.224000,256.000,-10.521,39.690,463.443,-255.642,109.456,-150.150,-21.370,-12.930
100,37501.250000,244.023,-7.515,34.729,457.633,-254.779,109.471,-180.150,-11.370,-4.930
101,37501.290000,246.020,-5.511,42.667,459.509,-258.665,104.448,-115.150,-37.370,10.070
102,37501.330000,254.004,-8.517,34.729,462.380,-261.461,104.375,-83.150,-22.370,14.070
103,37501.350000,244.023,-11.523,31.752,458.534,-258.732,102.477,-84.150,18.630,17.070
104,37501.390000,251.010,-2.505,42.667,461.358,-264.443,99.372,-129.150,-68.370,33.070
105,37501.432000,252.008,-12.524,33.736,458.526,-258.837,98.540,-107.150,4.630,10.070
106,37501.476000,239.033,-15.530,41.674,459.381,-266.467,95.378,-119.150,-25.370,-16.930
107,37501.516000,255.002,-5.511,42.667,460.393,-263.617,95.459,-88.150,-55.370,3.070
108,37501.550000,255.002,-3.507,37.705,457.469,-264.577,96.411,-104.150,36.630,58.070
109,37501.604000,250.012,-22.544,38.698,459.377,-266.520,93.409,-48.150,58.630,48.070
110,37501.631000,241.029,-21.542,41.674,455.416,-272.196,95.212,12.850,35.630,-4.930
111,37501.651000,244.023,-5.511,41.674,455.524,-264.657,94.438,-69.150,-32.370,19.070
112,37501.691000,258.994,-17.534,44.651,453.514,-269.413,94.302,-56.150,-51.370,22.070
113,37501.731000,256.998,-22.544,41.674,459.426,-263.578,97.426,18.850,40.630,-23.930
114,37501.771000,240.031,-11.523,33.736,458.347,-270.369,91.333,-62.150,-39.370,-23.930
115,37501.811000,247.018,-11.523,39.690,455.549,-262.792,93.506,-74.150,-115.370,-29.930
116,37501.851000,247.018,-26.552,34.729,460.335,-266.664,87.505,-73.150,-125.370,-40.930
117,37501.891000,255.002,-17.534,24.806,456.513,-262.096,83.691,-129.150,-88.370,-20.930
118,37501.931000,255.002,-11.523,25.798,461.213,-272.456,82.427,-154.150,-71.370,-24.930
119,37501.951000,256.998,-18.536,27.783,460.255,-271.550,81.467,-90.150,26.630,-54.930
120,37501.991000,252.008,-25.550,29.767,457.476,-262.188,79.756,-98.150,55.630,-36.930
121,37502.32000,254.004,-21.542,39.690,457.398,-267.809,81.567,-33.150,50.630,9.070
122,37502.72000,258.994,-20.540,36.713,459.382,-264.918,82.634,8.850,39.630,26.070
123,37502.113000,251.010,-17.534,38.698,455.543,-262.110,83.689,49.850,65.630,7.070
124,37502.152000,250.012,-16.532,31.752,456.468,-264.986,81.644,-44.150,29.630,15.070
125,37502.191000,256.998,-15.530,35.721,457.390,-268.676,84.493,-3.150,57.630,33.070
126,37502.232000,243.025,-22.544,16.868,458.331,-270.579,83.458,74.850,83.630,-32.930
127,37502.252000,247.018,-11.523,32.744,463.271,-264.784,85.595,-51.150,18.630,-8.930
128,37502.292000,255.002,-8.517,35.721,457.472,-263.002,84.651,-114.150,19.630,59.070
129,37502.335000,247.018,-4.509,51.597,456.386,-270.660,81.486,-199.150,-10.370,89.070
130,37502.376000,238.035,-21.542,42.667,458.370,-267.769,82.553,-108.150,-25.370,-5.930
131,37502.416000,231.049,-10.521,34.729,458.333,-269.792,77.579,-165.150,-87.370,-93.930
132,37502.456000,256.000,-2.505,42.667,465.204,-264.101,74.798,-156.150,-95.370,-92.930
133,37502.497000,255.002,-24.548,46.636,466.163,-265.006,75.758,-14.150,10.630,-126.930
134,37502.550000,258.994,-7.515,42.667,469.165,-258.425,72.995,-112.150,-6.370,-21.930
135,37502.559000,245.021,-4.509,46.636,463.215,-267.044,71.762,-58.150,47.630,23.070
136,37502.592000,245.021,-5.511,36.713,467.133,-264.231,68.896,-110.150,-32.370,-2.930
137,37502.640000,250.012,2.505,34.729,465.174,-265.257,66.897,-81.150,-43.370,-48.930
138,37502.673000,260.990,-2.505,33.736,466.241,-258.624,67.083,-129.150,-19.370,-69.930
139,37502.712000,251.010,-14.528,35.721,470.023,-265.241,64.938,-60.150,30.630,-61.930
140,37502.751000,247.018,-15.530,32.744,470.131,-257.702,64.164,-61.150,21.630,-19.930
141,37502.792000,252.008,-10.521,33.736,471.062,-260.499,65.072,73.850,-4.370,-11.930
142,37502.812000,248.016,-3.507,28.775,469.184,-256.639,69.110,97.850,12.630,-21.930
143,37502.859000,252.008,-3.507,35.721,471.008,-264.282,64.966,139.850,-39.370,17.070
144,37502.894000,247.018,-11.523,31.752,471.126,-256.611,69.114,175.850,-1.370,6.070
145,37502.935000,251.010,-12.524,37.705,474.028,-257.463,71.063,167.850,-26.370,17.070
146,37502.975000,256.000,-7.515,36.713,470.206,-253.656,74.113,367.850,-5.370,-0.930
147,37503.15000,253.006,-2.505,22.822,470.207,-254.418,80.977,329.850,9.630,23.070
148,37503.55000,250.012,-0.501,32.744,464.336,-258.177,84.797,325.850,57.630,24.070
149,37503.95000,250.012,1.503,27.783,472.070,-260.773,89.656,260.850,39.630,12.070
150,37503.115000,249.014,2.505,28.775,467.195,-262.654,92.546,183.850,18.630,4.070
151,37503.155000,248.016,-1.503,31.752,467.313,-254.222,89.830,130.850,0.630,3.070
152,37503.191000,248.016,-0.501,31.752,473.088,-257.843,92.690,78.850,-27.370,9.070
153,37503.231000,250.012,-3.507,31.752,471.217,-253.116,93.802,-5.150,-46.370,21.070
154,37503.271000,246.020,-2.505,30.760,470.195,-256.098,88.799,-100.150,-40.370,39.070
155,37503.311000,257.996,-2.505,45.643,472.182,-253.181,90.851,-28.150,-62.370,27.070
156,37503.351000,255.002,-13.526,43.659,469.183,-258.949,88.718,87.850,57.630,-30.930
157,37503.399000,246.020,-7.515,33.736,471.254,-250.332,91.912,74.850,34.630,-25.930
158,37503.419000,241.029,-4.509,35.721,470.235,-254.049,94.758,14.850,30.630,-46.930
159,37503.452000,250.012,-3.507,44.651,474.202,-248.294,95.908,-32.150,22.630,-101.930
160,37503.492000,253.006,-1.503,45.643,473.164,-252.248,89.895,-136.150,-61.370,-108.930
161,37503.532000,249.014,5.511,37.705,477.190,-241.897,86.255,-297.150,-107.370,-92.930
162,37503.572000,238.035,0.501,36.713,476.093,-249.686,78.168,-369.150,-143.370,-148.930
163,37503.620000,221.068,-19.538,46.636,483.952,-242.222,70.520,-393.150,-213.370,-135.930
164,37503.652000,213.084,-35.569,40.682,484.816,-248.198,58.552,-316.150,-325.370,13.070
165,37503.699000,252.008,12.524,29.767,485.814,-244.770,44.878,-277.150,-578.370,116.070
166,37503.719000,324.866,36.571,-16.868,485.723,-249.026,27.055,-455.150,-506.370,33.070
167,37503.759000,299.914,39.577,-15.876,482.910,-241.634,22.338,-306.150,-119.370,-223.930
168,37503.799000,283.945,26.552,-4.961,488.773,-237.980,14.580,-470.150,-87.370,-418.930
169,37503.839000,256.000,25.550,10.915,490.889,-225.712,12.958,-408.150,174.630,-323.930
170,37503.884000,233.045,28.556,16.868,495.711,-227.587,10.947,-363.150,113.630,-156.930
171,37503.919000,238.035,9.519,11.907,494.819,-221.979,9.134,-508.150,55.630,-68.930
172,37503.959000,236.039,13.526,15.876,499.686,-220.204,2.306,-482.150,117.630,-48.930
173,37503.992000,242.027,23.546,16.868,502.576,-221.213,-1.652,-493.150,-47.370,-79.930
174,37504.14000,254.004,24.548,1.984,502.626,-216.722,-10.379,-597.150,-37.370,-69.930
175,37504.59000,230.051,14.528,0.000,499.710,-216.055,-19.218,-514.150,-50.370,-16.930
176,37504.99000,239.033,-8.517,4.961,498.765,-214.203,-20.152,-501.150,-97.370,33.070
177,37504.139000,245.021,-11.523,5.953,495.711,-222.992,-29.254,-400.150,-97.370,89.070
178,37504.177000,230.051,-11.523,11.907,490.797,-226.923,-32.322,-220.150,12.630,299.070
179,37504.215000,212.086,-17.534,16.868,488.631,-242.133,-34.716,-121.150,-67.370,527.070
180,37504.252000,236.039,-19.538,25.798,481.770,-246.170,-40.741,-104.150,-266.370,667.070
181,37504.272000,331.852,-54.607,69.457,478.645,-260.474,-44.095,68.850,-149.370,408.070
182,37504.312000,325.864,-62.622,42.667,478.730,-255.536,-36.089,155.850,16.630,-127.930
183,37504.359000,243.025,6.513,25.798,484.500,-259.997,-29.318,475.850,206.630,-405.930
184,37504.399000,249.014,11.523,10.915,481.772,-247.666,-26.029,350.850,-89.370,-282.930
185,37504.437000,275.961,-17.534,-3.969,483.769,-243.856,-25.920,409.850,-4.370,-167.930
186,37504.479000,260.990,-1.503,20.837,490.745,-232.963,-10.851,513.850,383.630,-288.930
187,37504.519000,245.021,-1.503,6.946,491.745,-231.793,-2.948,527.850,140.630,-287.930
188,37504.564000,251.010,0.501,15.876,495.800,-221.834,14.058,685.850,278.630,-223.930
189,37504.579000,231.049,-2.505,20.837,503.563,-222.512,19.953,718.850,216.630,-192.930
190,37504.619000,231.049,6.513,14.884,500.817,-212.728,33.991,742.850,66.630,-164.930
191,37504.659000,256.998,48.595,12.899,507.600,-214.312,41.828,496.850,67.630,-73.930
192,37504.699000,235.041,46.591,11.907,503.791,-210.348,50.784,446.850,200.630,-109.930
193,37504.735000,214.082,42.583,11.907,503.848,-207.300,58.738,376.850,264.630,-65.930
194,37504.775000,196.117,60.618,-0.992,502.970,-201.509,63.815,121.850,231.630,123.070
195,37504.819000,233.045,73.644,-6.946,500.854,-213.777,65.438,-287.150,121.630,504.070
196,37504.859000,248.016,49.597,2.977,488.055,-226.275,64.085,-398.150,70.630,669.070
197,37504.879000,345.825,-15.530,83.349,484.964,-237.848,56.873,-697.150,-51.370,363.070
198,37504.919000,358.799,-82.661,112.124,488.744,-244.492,53.743,-5.150,138.630,-467.930
199,37504.959000,227.057,-5.511,82.357,498.810,-220.503,62.296,662.850,130.630,-739.930
200,37505.0,217.076,45.589,0.000,499.920,-211.006,63.546,125.850,-313.370,-234.930
201,37505.40000,223.064,70.638,-41.674,501.899,-207.433,54.796,-357.150,-283.370,-48.930
202,37505.80000,251.010,52.603,38.698,503.838,-208.193,60.680,-201.150,303.630,-215.930
203,37505.119000,243.025,-0.501,11.907,504.828,-206.394,56.797,-378.150,44.630,-178.930
204,37505.160000,252.008,-4.509,32.744,502.858,-208.339,55.756,-267.150,153.630,-80.930
205,37505.180000,255.002,1.503,24.806,503.887,-204.490,57.832,-127.150,197.630,115.070
206,37505.221000,241.029,29.558,34.729,500.875,-211.965,62.537,-156.150,236.630,103.070
207,37505.254000,238.035,42.583,21.829,503.764,-213.762,64.459,-394.150,164.630,160.070
208,37505.294000,224.062,33.566,7.938,497.745,-226.348,56.230,-649.150,17.630,249.070
209,37505.335000,235.041,-13.526,15.876,494.811,-227.440,52.261,-659.150,44.630,262.070
210,37505.387000,232.047,-19.538,3.969,488.930,-231.332,51.159,-522.150,202.630,374.070
211,37505.419000,241.029,-2.505,15.876,486.681,-252.242,47.623,-502.150,-4.370,466.070
212,37505.460000,317.879,-47.593,36.713,479.786,-259.011,45.456,-375.150,215.630,377.070
213,37505.480000,248.016,-71.640,38.698,477.803,-261.875,45.373,-251.150,219.630,84.070
214,37505.515000,275.961,-53.605,85.333,477.768,-264.633,48.247,152.850,-53.370,31.070
215,37505.557000,269.973,-35.569,38.698,476.902,-257.922,52.366,291.850,139.630,-127.930
216,37505.595000,226.058,3.507,51.597,480.793,-258.523,63.176,471.850,173.630,-221.930
217,37505.634000,242.027,34.568,61.519,482.685,-262.199,66.028,224.850,22.630,206.070
218,37505.674000,313.887,15.530,99.225,477.798,-264.999,69.876,21.850,200.630,336.070
219,37505.722000,299.914,26.552,87.318,470.979,-267.722,77.658,-354.150,441.630,130.070
220,37505.755000,185.138,33.566,76.403,473.904,-266.735,77.690,-389.150,297.630,-40.930
221,37505.775000,160.187,-0.501,75.411,473.883,-268.547,80.590,-78.150,80.630,-72.930
222,37505.822000,282.947,-64.626,71.442,471.912,-270.492,79.549,249.850,-5.370,266.070
223,37505.855000,227.057,-67.632,87.318,469.897,-276.850,90.189,438.850,-81.370,232.070
224,37505.895000,242.027,-34.568,89.302,464.998,-279.808,88.131,379.850,-131.370,290.070
225,37505.935000,253.006,-27.554,73.426,460.996,-288.321,89.855,322.850,-151.370,348.070
226,37505.975000,219.072,-7.515,66.481,460.927,-293.049,89.723,241.850,-159.370,287.070
227,37506.15000,231.049,3.507,64.496,451.075,-302.748,85.502,129.850,-222.370,322.070
228,37506.55000,246.020,-30.560,69.457,457.903,-300.682,88.522,196.850,-121.370,239.070
229,37506.75000,205.099,-33.566,60.527,454.885,-308.235,90.274,276.850,-2.370,75.070
230,37506.115000,191.127,-33.566,45.643,453.978,-304.361,94.315,376.850,-205.370,174.070
231,37506.155000,233.045,-68.634,60.527,448.050,-311.930,97.045,641.850,-264.370,198.070
232,37506.195000,259.992,-87.671,82.357,451.158,-298.597,99.388,654.850,-557.370,-92.930
233,37506.235000,298.916,16.532,80.372,457.956,-297.687,94.507,489.850,-587.370,-114.930
234,37506.275000,309.895,41.581,94.264,455.032,-297.886,88.595,-104.150,-208.370,256.070
235,37506.321000,225.060,-37.573,39.690,453.038,-300.908,82.606,-18.150,-93.370,-85.930
236,37506.361000,230.051,-75.648,57.550,456.107,-291.148,92.719,450.850,126.630,-202.930
237,37506.381000,264.982,-95.687,59.535,463.816,-295.608,98.509,567.850,79.630,-47.930
238,37506.421000,248.016,-38.575,36.713,460.965,-292.549,108.426,572.850,4.630,141.070
239,37506.461000,249.014,2.505,19.845,457.987,-298.053,116.136,654.850,-48.370,175.070
240,37506.501000,224.062,-7.515,8.930,459.119,-288.267,128.214,608.850,87.630,74.070
241,37506.546000,223.064,-19.538,-3.969,460.149,-285.180,137.154,681.850,-35.370,-177.930
242,37506.581000,254.004,8.517,11.907,460.352,-271.809,142.444,621.850,-48.370,-381.930
243,37506.625000,233.045,53.605,24.806,471.220,-259.207,148.715,523.850,-93.370,-520.930
244,37506.661000,231.049,52.603,17.860,477.296,-242.050,151.169,451.850,-300.370,-415.930
245,37506.681000,239.033,4.509,8.930,485.076,-240.207,145.332,220.850,-309.370,-257.930
246,37506.722000,329.856,-5.511,95.256,484.218,-232.629,146.525,4.850,153.630,-302.930
247,37506.755000,331.852,82.661,112.124,485.267,-227.756,151.580,-254.150,386.630,-134.930
248,37506.801000,232.047,74.646,67.473,484.174,-235.493,145.462,-721.150,223.630,141.070
249,37506.841000,198.113,4.509,59.535,481.060,-249.666,147.029,-668.150,239.630,220.070
250,37506.881000,257.996,-49.597,34.729,472.230,-255.621,140.947,-649.150,88.630,480.070
251,37506.921000,248.016,-37.573,31.752,465.120,-276.679,134.448,-597.150,168.630,404.070
252,37506.941000,231.049,3.507,33.736,460.143,-284.497,127.337,-630.150,-23.370,228.070
253,37506.981000,215.080,-1.503,36.713,461.105,-283.828,116.537,-669.150,64.630,-24.930
254,37507.21000,209.092,-29.558,45.643,460.099,-285.838,112.545,-591.150,-104.370,-233.930
255,37507.61000,225.060,-53.605,43.659,466.958,-279.544,96.994,-668.150,-310.370,-375.930
256,37507.101000,217.076,-49.597,47.628,475.663,-279.815,82.247,-138.150,-412.370,-477.930
257,37507.141000,218.074,-75.648,24.806,483.595,-267.569,76.699,183.850,-324.370,-446.930
258,37507.181000,262.986,-70.638,59.535,490.539,-256.336,69.155,300.850,-408.370,-297.930
259,37507.215000,351.813,9.519,36.713,488.623,-254.499,68.219,286.850,-219.370,97.070
260,37507.235000,321.871,3.507,51.597,486.698,-254.316,76.090,324.850,242.630,219.070
261,37507.282000,272.967,3.507,49.612,484.696,-259.727,86.755,-71.150,346.630,317.070
262,37507.322000,270.971,-14.528,52.589,474.799,-273.839,94.215,-220.150,494.630,318.070
263,37507.357000,227.057,-21.542,48.620,471.880,-274.747,97.136,-249.150,509.630,208.070
264,37507.397000,211.088,-35.569,36.713,468.817,-285.951,103.704,-203.150,413.630,167.070
265,37507.441000,207.096,-49.597,50.605,466.949,-281.959,112.665,-107.150,310.630,100.070
266,37507.481000,210.090,-51.601,41.674,469.753,-289.457,113.444,151.850,145.630,55.070
267,37507.521000,214.082,-28.556,38.698,463.094,-280.884,119.573,317.850,-28.370,22.070
268,37507.541000,203.103,-22.544,38.698,470.965,-274.023,124.695,499.850,-144.370,-284.930
269,37507.581000,227.057,-6.513,41.674,472.030,-267.416,123.897,257.850,-250.370,-537.930
270,37507.627000,269.973,50.599,70.450,485.870,-248.627,112.640,3.850,-511.370,-552.930
271,37507.662000,299.914,56.611,62.512,494.527,-251.841,93.877,-572.150,-513.370,-72.930
272,37507.702000,264.982,-1.503,49.612,493.528,-252.223,80.094,-952.150,-366.370,250.070
273,37507.742000,201.107,-78.654,48.620,491.556,-252.645,65.325,-603.150,-408.370,-28.930
274,37507.776000,250.012,-50.599,42.667,494.379,-256.834,48.491,-246.150,-394.370,-83.930
275,37507.816000,309.895,56.611,19.845,498.332,-251.263,42.751,-182.150,-71.370,-146.930
276,37507.836000,289.934,76.650,2.977,504.160,-250.367,37.868,-229.150,30.630,-263.930
277,37507.876000,255.002,23.546,18.853,512.964,-245.515,38.018,-243.150,82.630,-398.930
278,37507.917000,231.049,12.524,25.798,516.096,-230.343,38.445,-142.150,133.630,-227.930
279,37507.957000,224.062,34.568,18.853,515.069,-234.166,37.354,-323.150,-27.370,-109.930
280,37508.4000,224.062,40.579,-1.984,514.088,-233.550,25.566,-508.150,-281.370,28.070
281,37508.40000,210.090,42.583,17.860,511.113,-237.479,21.517,-465.150,14.630,130.070
282,37508.79000,200.109,17.534,0.000,513.032,-237.741,10.693,-719.150,-271.370,238.070
283,37508.126000,254.004,-17.534,20.837,505.069,-249.620,-5.388,-663.150,-185.370,296.070
284,37508.146000,355.805,-81.659,61.519,502.169,-248.742,-6.352,-270.150,30.630,166.070
285,37508.180000,281.949,-34.568,42.667,505.979,-253.468,-8.445,-184.150,118.630,-110.930
286,37508.216000,234.043,37.573,19.845,507.036,-247.728,-6.316,-343.150,148.630,-3.930
287,37508.266000,270.971,36.571,30.760,508.949,-248.830,-13.229,-516.150,30.630,-106.930
288,37508.299000,264.982,-7.515,41.674,510.026,-240.543,-21.849,-404.150,111.630,-159.930
289,37508.340000,230.051,-32.564,37.705,509.963,-245.192,-19.027,-357.150,111.630,-111.930
290,37508.379000,222.066,-8.517,23.814,508.043,-243.407,-21.932,-239.150,27.630,24.070
291,37508.419000,223.064,3.507,17.860,508.010,-245.377,-24.938,-245.150,-38.370,132.070
292,37508.439000,222.066,-1.503,14.884,502.103,-251.133,-25.108,-187.150,8.630,297.070
293,37508.479000,208.094,-3.507,24.806,499.038,-261.603,-26.388,-264.150,34.630,531.070
294,37508.522000,215.080,-18.536,18.853,492.100,-271.235,-29.618,-334.150,18.630,720.070
295,37508.562000,228.055,-30.560,62.512,480.120,-293.360,-38.122,-251.150,-155.370,594.070
296,37508.602000,286.940,-110.716,60.527,477.268,-288.778,-41.934,87.850,-230.370,143.070
297,37508.637000,333.848,-75.648,53.581,479.127,-295.186,-35.224,556.850,-54.370,-10.930
298,37508.684000,319.875,-57.613,29.767,480.140,-293.096,-28.279,638.850,-28.370,-71.930
299,37508.717000,254.004,-24.548,37.705,484.164,-284.294,-19.175,608.850,53.630,-255.930
300,37508.737000,240.031,15.530,18.853,485.163,-283.150,-12.256,542.850,5.630,-457.930
301,37508.780000,267.977,22.544,16.868,497.111,-262.969,-5.773,430.850,62.630,-505.930
302,37508.824000,260.990,-3.507,24.806,502.973,-261.625,6.078,220.850,220.630,-515.930
303,37508.864000,256.000,-26.552,54.574,511.039,-241.499,12.553,368.850,355.630,-562.930
304,37508.897000,244.023,-24.548,47.628,517.996,-232.392,31.506,554.850,385.630,-504.930
305,37508.939000,210.090,-25.550,42.667,524.096,-214.919,45.773,773.850,329.630,-372.930
306,37508.979000,200.109,-5.511,36.713,522.212,-212.660,60.587,709.850,247.630,-217.930
307,37509.19000,237.037,41.581,17.860,526.199,-205.881,64.716,553.850,32.630,-120.930
308,37509.39000,233.045,60.618,21.829,524.280,-204.857,68.676,514.850,74.630,-37.930
309,37509.79000,246.020,46.591,22.822,525.321,-200.850,76.658,284.850,56.630,41.070
310,37509.117000,233.045,42.583,20.837,519.378,-210.152,85.242,108.850,314.630,58.070
311,37509.157000,176.156,62.622,26.791,522.345,-206.328,85.353,-323.150,140.630,105.070
312,37509.199000,225.060,79.656,43.659,518.342,-214.080,80.213,-346.150,-152.370,283.070
313,37509.239000,323.867,24.548,89.302,516.255,-222.908,69.144,-414.150,-240.370,368.070
314,37509.279000,362.791,-133.761,91.287,518.210,-222.696,76.039,320.850,236.630,-306.930
315,37509.327000,240.031,-4.509,63.504,522.292,-210.085,86.232,204.850,413.630,-431.930
316,37509.344000,254.004,40.579,35.721,524.233,-210.057,86.236,51.850,3.630,-230.930
317,37509.384000,265.980,30.560,65.488,522.449,-199.604,89.475,38.850,150.630,-216.930
318,37509.424000,211.088,-16.532,81.364,526.373,-197.473,96.426,153.850,36.630,-154.930
319,37509.464000,161.185,-26.552,51.597,525.448,-193.836,91.608,313.850,-204.370,154.070
320,37509.504000,250.012,46.591,25.798,521.514,-197.621,93.463,-146.150,-88.370,387.070
321,37509.544000,282.947,123.742,16.868,516.512,-208.065,94.148,-345.150,263.630,230.070
322,37509.582000,253.006,66.630,64.496,514.527,-210.956,93.080,-264.150,174.630,-64.930
323,37509.621000,242.027,-15.530,50.605,517.517,-205.294,91.276,-365.150,-49.370,-116.930
324,37509.641000,236.039,-2.505,47.628,522.326,-208.114,89.238,-292.150,114.630,-119.930
325,37509.680000,224.062,20.540,49.612,518.423,-209.955,93.115,-132.150,190.630,21.070
326,37509.720000,230.051,2.505,52.589,519.371,-211.780,95.033,-14.150,151.630,216.070
327,37509.760000,256.998,23.546,71.442,516.294,-223.169,94.711,-69.150,10.630,331.070
328,37509.800000,255.002,26.552,72.434,509.401,-229.911,93.528,-156.150,73.630,294.070
329,37509.840000,249.014,-1.503,82.357,507.464,-229.886,95.493,42.850,44.630,126.070
330,37509.880000,236.039,-4.509,75.411,506.499,-229.821,98.444,97.850,54.630,104.070
331,37509.900000,223.064,-3.507,74.419,502.514,-237.335,102.162,138.850,-33.370,29.070
332,37509.940000,238.035,1.503,79.380,507.350,-238.265,100.177,187.850,-112.370,61.070
333,37509.980000,249.014,19.538,77.395,507.352,-238.239,101.162,295.850,-76.370,119.070
334,37510.22000,260.990,6.513,63.504,502.571,-233.527,103.252,240.850,-27.370,168.070
335,37510.64000,241.029,4.509,72.434,502.465,-241.039,105.010,204.850,10.630,81.070
336,37510.104000,237.037,8.517,73.426,502.574,-234.262,111.100,143.850,8.630,8.070
337,37510.150000,223.064,20.540,72.434,501.481,-242.760,111.846,165.850,17.630,66.070
338,37510.179000,227.057,16.532,74.419,498.693,-234.290,112.077,120.850,17.630,81.070
339,37510.199000,234.043,12.524,53.581,498.542,-244.692,111.787,36.850,37.630,126.070
340,37510.245000,223.064,25.550,43.659,496.591,-245.613,113.726,-156.150,76.630,235.070
341,37510.279000,231.049,21.542,52.589,487.676,-258.030,113.365,-165.150,74.630,254.070
342,37510.320000,261.988,19.538,54.574,483.855,-254.223,116.415,-130.150,224.630,408.070
343,37510.364000,286.940,-21.542,117.085,482.731,-265.427,122.004,277.850,92.630,331.070
344,37510.410000,315.883,-96.689,57.550,478.835,-267.189,128.833,185.850,65.630,126.070
345,37510.445000,225.060,9.519,63.504,473.750,-282.545,122.496,-168.150,-57.370,342.070
346,37510.485000,190.129,52.603,34.729,465.939,-285.545,120.432,-269.150,200.630,281.070
347,37510.499000,163.181,-24.548,48.620,461.001,-291.314,119.280,-96.150,17.630,146.070
348,37510.556000,264.982,-73.644,60.527,459.911,-299.024,114.145,110.850,-396.370,128.070
349,37510.579000,277.957,-75.648,56.558,459.944,-296.293,110.287,82.850,-223.370,153.070
350,37510.620000,254.004,-28.556,54.574,458.910,-300.194,106.242,59.850,-303.370,249.070
351,37510.660000,233.045,-15.530,46.636,459.863,-301.179,104.249,90.850,-178.370,261.070
352,37510.700000,232.047,-17.534,43.659,452.915,-311.703,102.961,160.850,-178.370,142.070
353,37510.740000,238.035,-36.571,47.628,454.907,-307.946,101.102,257.850,-269.370,120.070
354,37510.780000,227.057,-50.599,48.620,453.876,-311.821,98.042,293.850,-341.370,192.070
355,37510.800000,217.076,-58.614,30.760,451.986,-308.880,103.038,500.850,-393.370,208.070
356,37510.842000,219.072,-73.644,22.822,450.988,-310.785,102.984,677.850,-420.370,42.070
357,37510.882000,323.867,-30.560,68.465,455.986,-300.393,100.330,424.850,-528.370,-155.930
358,37510.922000,316.881,35.569,110.140,452.017,-306.175,98.195,285.850,-297.370,167.070
359,37510.961000,250.012,-19.538,46.636,452.013,-306.227,96.227,115.850,-51.370,308.070
360,37511.1000,223.064,-84.665,34.729,451.860,-317.417,101.817,234.850,92.630,58.070
361,37511.41000,236.039,-112.720,47.628,451.006,-310.548,111.843,490.850,146.630,37.070
362,37511.81000,268.975,-54.607,46.636,450.059,-310.246,123.653,649.850,107.630,30.070
363,37511.104000,235.041,10.521,29.767,450.186,-303.232,138.602,602.850,113.630,32.070
364,37511.144000,211.088,3.507,28.775,447.274,-304.034,145.460,635.850,45.630,74.070
365,37511.185000,258.994,-35.569,50.605,444.382,-303.812,155.298,659.850,33.630,31.070
366,37511.226000,256.000,-75.648,55.566,445.471,-296.889,166.312,697.850,60.630,-64.930
367,37511.265000,278.955,-65.628,37.705,448.700,-276.621,180.651,891.850,86.630,-162.930
368,37511.306000,228.055,-36.571,39.690,451.727,-270.485,196.565,936.850,93.630,-108.930
369,37511.345000,223.064,-4.509,35.721,446.909,-269.319,207.409,925.850,29.630,36.070
370,37511.382000,212.086,-4.509,30.760,448.085,-256.669,220.550,800.850,12.630,29.070
371,37511.405000,241.029,10.521,41.674,447.241,-248.908,228.633,678.850,-67.370,80.070
372,37511.445000,256.998,-11.523,53.581,448.300,-243.141,231.746,627.850,10.630,55.070
373,37511.486000,255.002,8.517,54.574,447.340,-243.784,243.530,395.850,67.630,-51.930
374,37511.520000,253.006,45.589,66.481,449.401,-236.060,248.666,117.850,70.630,-45.930
375,37511.560000,247.018,-6.513,80.372,449.385,-237.032,247.655,93.850,204.630,-36.930
376,37511.605000,253.006,-22.544,81.364,445.631,-229.285,256.717,107.850,152.630,-127.930
377,37511.641000,247.018,-6.513,60.527,445.633,-229.259,257.701,128.850,91.630,-100.930
378,37511.685000,248.016,13.526,53.581,441.811,-225.452,260.752,-3.150,84.630,-27.930
379,37511.704000,236.039,-14.528,63.504,442.688,-232.032,261.554,-44.150,7.630,-29.930
380,37511.745000,261.988,-37.573,59.535,445.703,-224.504,258.817,43.850,-68.370,-74.930
381,37511.785000,245.021,-7.515,56.558,449.559,-226.341,258.773,13.850,-86.370,-33.930
382,37511.825000,231.049,-5.511,62.512,446.641,-226.461,255.814,40.850,-69.370,128.070
383,37511.866000,243.025,-28.556,67.473,444.658,-229.325,255.731,42.850,-27.370,128.070
384,37511.900000,235.041,-14.528,61.519,444.603,-233.108,255.625,44.850,-31.370,61.070
385,37511.940000,230.051,-2.505,53.581,445.578,-233.041,257.596,61.850,-68.370,-3.930
386,37511.989000,243.025,-0.501,60.527,449.596,-223.556,256.883,3.850,-69.370,10.070
387,37512.1000,252.008,-2.505,63.504,447.509,-233.146,252.678,-22.150,-84.370,0.070
388,37512.50000,252.008,-7.515,63.504,449.487,-230.334,250.793,-25.150,-79.370,-56.930
389,37512.84000,249.014,-3.507,58.543,449.454,-232.304,247.787,-61.150,-89.370,-51.930
390,37512.124000,246.020,-3.507,60.527,448.583,-225.646,249.938,-91.150,-18.370,-50.930
391,37512.164000,244.023,-11.523,64.496,452.352,-233.208,247.767,-79.150,-12.370,-33.930
392,37512.207000,251.010,-14.528,61.519,454.397,-225.695,245.028,-64.150,10.630,-32.930
393,37512.240000,248.016,-16.532,56.558,457.227,-231.327,244.877,-91.150,0.630,-42.930
394,37512.290000,242.027,-5.511,55.566,448.493,-231.425,245.843,-143.150,4.630,-14.930
395,37512.301000,233.045,7.515,60.527,450.469,-228.639,242.973,-211.150,48.630,-5.930
396,37512.341000,252.008,-15.530,61.519,448.510,-229.665,240.974,-208.150,55.630,-66.930
397,37512.381000,249.014,-20.540,54.574,450.436,-230.610,239.967,-167.150,31.630,-99.930
398,37512.421000,245.021,-1.503,46.636,452.355,-231.633,236.007,-226.150,12.630,-81.930
399,37512.462000,244.023,-15.530,60.527,458.215,-228.793,233.145,-180.150,13.630,-69.930
400,37512.502000,250.012,-26.552,64.496,455.267,-231.592,236.013,11.850,16.630,-83.930
401,37512.542000,247.018,-23.546,56.558,461.154,-226.860,233.204,116.850,-26.370,-71.930
402,37512.581000,246.020,-15.530,53.581,455.395,-223.028,238.219,176.850,-49.370,23.070
403,37512.601000,243.025,-25.550,57.550,452.497,-222.124,238.239,289.850,-76.370,67.070
404,37512.641000,253.006,-27.554,59.535,458.146,-234.282,239.878,371.850,-88.370,95.070
405,37512.681000,250.012,-16.532,57.550,460.325,-218.126,242.298,469.850,-55.370,88.070
406,37512.726000,248.016,-10.521,54.574,456.461,-217.944,251.149,505.850,-20.370,128.070
407,37512.767000,247.018,-7.515,51.597,456.443,-219.704,256.018,511.850,-12.370,148.070
408,37512.806000,242.027,0.501,52.589,451.651,-215.911,259.066,510.850,-31.370,116.070
409,37512.846000,241.029,4.509,56.558,456.652,-206.254,264.262,471.850,-3.370,98.070
410,37512.866000,248.016,-1.503,53.581,450.840,-206.179,270.156,375.850,-17.370,120.070
411,37512.906000,250.012,3.507,45.643,458.653,-203.153,273.204,268.850,-48.370,120.070
412,37512.942000,248.016,7.515,50.605,450.846,-206.100,273.109,160.850,-26.370,100.070
413,37512.982000,245.021,0.501,59.535,449.005,-199.455,275.258,92.850,5.630,24.070
414,37513.22000,234.043,7.515,57.550,452.897,-198.507,273.323,118.850,-22.370,-103.930
415,37513.62000,233.045,0.501,42.667,450.044,-194.714,275.391,73.850,-83.370,-170.930
416,37513.114000,238.035,-14.528,43.659,458.749,-196.534,273.388,34.850,-135.370,-218.930
417,37513.147000,220.070,-11.523,31.752,460.890,-182.401,270.834,166.850,-210.370,-335.930
418,37513.161000,234.043,-25.550,54.574,473.550,-178.624,264.075,124.850,-370.370,-402.930
419,37513.201000,331.852,36.571,106.171,480.578,-161.690,257.672,-178.150,-132.370,-221.930
420,37513.241000,303.906,160.814,76.403,474.599,-172.227,255.402,-765.150,213.630,171.070
421,37513.289000,204.101,81.659,27.783,466.600,-188.413,254.938,-1250.150,484.630,185.070
422,37513.329000,257.996,4.509,24.806,462.241,-219.964,243.234,-1457.150,201.630,250.070
423,37513.367000,244.023,-37.573,26.791,454.184,-238.436,227.952,-1563.150,202.630,238.070
424,37513.406000,225.060,-36.571,21.829,451.922,-258.743,211.646,-1366.150,45.630,86.070
425,37513.441000,220.070,-43.585,24.806,452.798,-263.799,198.720,-1062.150,-145.370,4.070
426,37513.461000,226.058,-65.628,19.845,453.825,-259.215,192.947,-677.150,-81.370,-207.930
427,37513.501000,227.057,-70.638,24.806,461.433,-268.825,182.857,-217.150,-74.370,-302.930
428,37513.541000,240.031,-33.566,40.682,469.396,-254.636,179.331,-0.150,-250.370,-360.930
429,37513.587000,271.969,-17.534,53.581,470.382,-252.889,173.479,74.850,-211.370,-204.930
430,37513.626000,302.908,-2.505,50.605,474.288,-250.995,171.571,-210.150,-51.370,49.070
431,37513.667000,297.918,8.517,60.527,470.307,-256.934,163.530,-631.150,117.630,109.070
432,37513.707000,264.982,-8.517,59.535,467.320,-261.783,160.440,-636.150,201.630,99.070
433,37513.747000,231.049,-55.609,51.597,461.396,-268.537,158.275,-630.150,270.630,102.070
434,37513.769000,217.076,-56.611,65.488,460.325,-275.223,156.120,-451.150,299.630,98.070
435,37513.804000,244.023,-34.568,71.442,457.274,-284.747,154.866,-269.150,146.630,77.070
436,37513.844000,245.021,-24.548,73.426,458.303,-280.898,156.942,-182.150,94.630,50.070
437,37513.889000,212.086,-40.579,62.512,459.138,-289.553,150.801,-254.150,-21.370,-14.930
438,37513.922000,206.097,-44.587,49.612,465.025,-284.822,147.992,-280.150,-214.370,-100.930
439,37513.962000,236.039,-62.622,57.550,463.026,-287.896,140.034,10.850,-179.370,76.070
440,37514.2000,252.008,-78.654,62.512,466.029,-282.076,144.135,359.850,-15.370,-44.930
441,37514.49000,180.148,-11.523,91.287,470.049,-272.565,144.407,193.850,-85.370,-527.930
442,37514.69000,270.971,28.556,107.163,476.932,-265.954,140.668,-46.150,-283.370,-512.930
443,37514.120000,324.866,129.753,55.566,476.898,-267.925,137.662,-119.150,42.630,195.070
444,37514.149000,266.979,-8.517,21.829,477.992,-259.400,137.901,-198.150,-5.370,-287.930
445,37514.184000,283.945,-81.659,-0.992,488.697,-255.835,124.248,-388.150,-226.370,-532.930
446,37514.224000,220.070,-7.515,47.628,489.783,-248.177,127.413,-142.150,187.630,-266.930
447,37514.264000,217.076,27.554,65.488,495.674,-243.393,126.573,-268.150,138.630,-185.930
448,37514.304000,231.049,29.558,48.620,497.645,-241.448,127.614,-293.150,123.630,-168.930
449,37514.354000,234.043,20.540,45.643,498.560,-245.217,127.510,-175.150,33.630,-145.930
450,37514.369000,233.045,-11.523,39.690,501.641,-233.014,122.937,-230.150,-115.370,-178.930
451,37514.410000,227.057,-3.507,49.612,501.647,-232.173,119.026,-275.150,-90.370,-229.930
452,37514.442000,261.988,12.524,63.504,502.641,-229.560,110.248,-354.150,-167.370,-145.930
453,37514.482000,251.010,7.515,55.566,503.589,-229.836,99.422,-424.150,-136.370,-100.930
454,37514.522000,204.101,12.524,47.628,510.409,-227.113,91.640,-400.150,-121.370,-37.930
455,37514.566000,217.076,32.564,11.907,510.381,-228.243,84.724,-467.150,-210.370,5.070
456,37514.619000,318.877,49.597,12.899,512.196,-235.230,69.778,-773.150,-221.370,-141.930
457,37514.636000,302.908,10.521,8.930,515.139,-231.722,58.077,-816.150,-53.370,-255.930
458,37514.664000,222.066,-9.519,13.891,516.185,-225.352,48.420,-683.150,-105.370,-113.930
459,37514.704000,213.084,2.505,17.860,517.128,-225.707,34.641,-568.150,-229.370,37.070
460,37514.744000,207.096,6.513,9.922,513.156,-230.753,24.658,-480.150,-237.370,176.070
461,37514.784000,205.099,17.534,-7.938,510.106,-238.728,10.661,-839.150,-376.370,404.070
462,37514.822000,233.045,59.616,13.891,499.137,-257.241,-4.627,-868.150,-280.370,666.070
463,37514.862000,277.957,-45.589,22.822,494.122,-266.321,-23.576,-739.150,-350.370,467.070
464,37514.909000,360.795,-100.697,70.450,493.074,-270.407,-34.511,-646.150,-320.370,3.070
465,37514.922000,342.830,-90.677,64.496,498.071,-260.041,-38.149,-180.150,64.630,-421.930
466,37514.965000,262.986,-73.644,28.775,505.964,-252.129,-29.063,557.850,258.630,-535.930
467,37515.10000,230.051,-33.566,20.837,511.040,-238.427,-13.919,712.850,209.630,-280.930
468,37515.42000,223.064,17.534,22.822,512.942,-241.971,-6.146,801.850,210.630,-176.930
469,37515.94000,237.037,54.607,12.899,515.969,-235.835,9.768,630.850,53.630,-218.930
470,37515.131000,226.058,24.548,8.930,519.051,-225.155,18.922,504.850,77.630,-257.930
471,37515.169000,191.127,-9.519,11.907,523.079,-215.538,23.131,274.850,186.630,-172.930
472,37515.209000,176.156,4.509,8.930,522.986,-222.105,24.915,203.850,-6.370,-73.930
473,37515.229000,214.082,47.593,17.860,522.900,-227.832,22.789,-184.150,-155.370,279.070
474,37515.269000,286.940,89.675,50.605,519.866,-235.596,16.666,-487.150,133.630,463.070
475,37515.309000,348.819,12.524,62.512,511.036,-242.313,17.448,-416.150,33.630,22.070
476,37515.349000,329.856,-74.646,70.450,518.025,-228.951,18.815,-20.150,228.630,-501.930
477,37515.390000,271.969,-18.536,54.574,518.229,-215.554,25.090,296.850,263.630,-525.930
478,37515.431000,266.979,-2.505,38.698,525.075,-212.490,30.104,307.850,120.630,-123.930
479,37515.464000,243.025,30.560,32.744,525.197,-204.767,36.221,244.850,177.630,-122.930
480,37515.505000,201.107,58.614,39.690,525.192,-206.368,46.996,43.850,279.630,-71.930
481,37515.525000,171.166,27.554,24.806,528.096,-207.194,49.929,9.850,268.630,37.070
482,37515.565000,179.150,13.526,28.775,526.102,-211.739,57.668,-21.150,120.630,137.070
483,37515.605000,239.033,1.503,29.767,521.229,-212.832,54.679,-111.150,-61.370,143.070
484,37515.645000,245.021,17.534,38.698,521.157,-217.613,52.578,-5.150,111.630,191.070
485,37515.686000,238.035,37.573,48.620,514.189,-229.923,55.175,-66.150,-53.370,545.070
486,37515.729000,309.895,-1.503,52.589,509.132,-244.150,55.754,-8.150,-40.370,644.070
487,37515.766000,311.891,-104.704,79.380,501.284,-249.934,55.580,202.850,30.630,334.070
488,37515.804000,261.988,-79.656,69.457,500.294,-252.495,66.327,517.850,122.630,106.070
489,37515.824000,224.062,28.556,44.651,498.389,-251.287,77.177,625.850,111.630,3.070
490,37515.864000,209.092,65.628,46.636,499.344,-253.007,83.033,496.850,93.630,167.070
491,37515.907000,222.066,36.571,41.674,496.316,-261.454,86.727,148.850,-176.370,222.070
492,37515.945000,269.973,-9.519,50.605,491.406,-265.331,85.627,110.850,-81.370,203.070
493,37515.984000,256.000,-31.562,55.566,492.513,-256.649,91.772,351.850,110.630,130.070
494,37516.32000,240.031,-25.550,46.636,491.448,-263.256,92.570,328.850,-123.370,223.070
495,37516.65000,261.988,-20.540,56.558,489.273,-279.359,92.119,339.850,-445.370,353.070
496,37516.107000,256.000,-26.552,74.419,483.521,-273.899,87.343,438.850,-306.370,221.070
497,37516.126000,205.099,-19.538,28.775,485.570,-268.643,106.181,846.850,235.630,-421.930
498,37516.166000,98.308,-46.591,62.512,494.628,-248.214,123.486,1115.850,170.630,-730.930
499,37516.206000,469.583,-32.564,60.527,495.699,-241.528,125.641,904.850,-572.370,199.070
500,37516.246000,301.910,-58.614,45.643,488.967,-239.285,142.413,835.850,358.630,249.070
501,37516.285000,222.066,18.536,16.868,485.933,-248.572,150.019,673.850,-21.370,385.070
502,37516.334000,211.088,-12.524,4.961,479.167,-248.300,163.785,786.850,-0.370,451.070
503,37516.366000,171.166,-32.564,16.868,480.031,-255.799,165.546,558.850,-99.370,257.070
504,37516.406000,171.166,-10.521,23.814,481.242,-239.630,168.948,865.850,-324.370,-182.930
505,37516.426000,246.020,55.609,14.884,495.020,-227.013,174.240,934.850,-558.370,-618.930
506,37516.475000,313.887,51.601,16.868,501.146,-205.365,167.968,868.850,-405.370,-377.930
507,37516.510000,317.879,29.558,56.558,498.270,-203.410,171.952,187.850,18.630,205.070
508,37516.550000,359.797,77.652,84.341,490.377,-212.844,176.594,-371.150,255.630,408.070
509,37516.590000,319.875,61.620,71.442,485.219,-233.743,175.020,-721.150,341.630,422.070
510,37516.631000,214.082,24.548,40.682,474.444,-240.540,173.829,-894.150,335.630,287.070
511,37516.671000,211.088,-25.550,39.690,468.301,-261.638,165.363,-904.150,244.630,307.070
512,37516.691000,231.049,-58.614,35.721,465.236,-272.107,164.083,-704.150,248.630,328.070
513,37516.731000,210.090,-35.569,25.798,465.137,-277.991,156.051,-664.150,98.630,197.070
514,37516.771000,193.123,-24.548,19.845,462.158,-281.973,150.033,-331.150,-87.370,60.070
515,37516.811000,181.146,-59.616,27.783,466.950,-285.005,140.121,-188.150,-213.370,-158.930
516,37516.851000,205.099,-70.638,58.543,466.121,-274.748,135.487,102.850,-441.370,-334.930
517,37516.896000,389.739,-22.544,34.729,474.974,-266.193,132.789,474.850,-346.370,-271.930
518,37516.931000,312.889,70.638,48.620,470.026,-272.093,126.715,-268.150,57.630,383.070
519,37516.980000,286.940,40.579,33.736,462.076,-284.575,123.403,-655.150,102.630,434.070
520,37516.986000,308.897,-53.605,52.589,457.036,-297.043,119.114,-677.150,411.630,181.070
521,37517.26000,238.035,-75.648,42.667,458.007,-297.029,119.116,-614.150,408.630,110.070
522,37517.66000,190.129,-63.624,42.667,451.045,-308.499,117.801,-453.150,183.630,112.070
523,37517.106000,210.090,-40.579,46.636,453.876,-313.344,111.770,-531.150,43.630,280.070
524,37517.145000,192.125,-43.585,48.620,448.885,-322.108,104.632,-493.150,147.630,91.070
525,37517.185000,202.105,-80.658,50.605,446.928,-323.107,103.618,-29.150,-24.370,-135.930
526,37517.225000,253.006,-101.699,38.698,449.972,-314.450,107.798,255.850,-26.370,-177.930
527,37517.277000,236.039,-60.618,45.643,455.942,-305.567,118.875,576.850,-57.370,-419.930
528,37517.285000,272.967,-19.538,48.620,462.903,-294.097,120.189,564.850,-113.370,-397.930
529,37517.325000,302.908,47.593,47.628,466.786,-294.042,120.197,130.850,-69.370,-4.930
530,37517.365000,312.889,62.622,59.535,462.929,-292.232,119.257,-252.150,193.630,167.070
531,37517.405000,283.945,26.552,46.636,460.911,-297.854,122.048,-501.150,370.630,14.070
532,37517.451000,220.070,-54.607,43.659,466.851,-290.128,125.224,-353.150,347.630,-406.930
533,37517.485000,208.094,-97.691,39.690,470.785,-286.343,123.369,-70.150,157.630,-446.930
534,37517.531000,211.088,-64.626,36.713,472.824,-279.670,124.542,87.850,29.630,-249.930
535,37517.571000,245.021,-43.585,47.628,477.864,-267.202,128.831,155.850,83.630,-107.930
536,37517.585000,251.010,-7.515,53.581,475.872,-270.960,130.691,72.850,78.630,-119.930
537,37517.626000,243.025,28.556,43.659,482.889,-255.707,132.110,-133.150,-11.370,-323.930
538,37517.674000,223.064,4.509,46.636,486.763,-255.757,128.181,-255.150,-112.370,-408.930
539,37517.714000,203.103,-48.595,55.566,490.730,-248.479,115.603,-514.150,-343.370,-278.930
540,37517.746000,190.129,-74.646,95.256,498.368,-253.861,86.942,-837.150,-805.370,-123.930
541,37517.787000,264.982,-33.566,52.589,498.282,-256.516,58.343,-729.150,-880.370,311.070
542,37517.827000,370.776,11.523,28.775,497.175,-265.198,52.198,-65.150,-226.370,477.070
543,37517.867000,415.688,29.558,0.992,496.201,-265.265,50.227,-90.150,-50.370,-193.930
544,37517.887000,283.945,50.599,-10.915,502.182,-254.701,53.482,-267.150,318.630,-546.930
545,37517.927000,183.142,34.568,35.721,507.202,-242.497,47.928,-212.150,-129.370,-385.930
546,37517.971000,171.166,40.579,0.000,508.060,-248.552,33.007,-573.150,-222.370,55.070
547,37518.12000,190.129,40.579,-17.860,501.153,-255.478,24.934,-630.150,-322.370,292.070
548,37518.52000,206.097,24.548,-5.953,498.150,-259.776,7.104,-812.150,-319.370,413.070
549,37518.86000,336.842,-30.560,47.628,491.985,-281.163,-12.189,-837.150,-300.370,442.070
550,37518.126000,401.715,-108.712,81.364,493.069,-272.008,-23.736,-578.150,-55.370,55.070
551,37518.167000,286.940,-106.708,44.651,493.185,-264.364,-20.573,-123.150,363.630,-606.930
552,37518.187000,223.064,-108.712,32.744,508.977,-247.700,-6.312,561.850,328.630,-841.930
553,37518.244000,154.199,-36.571,22.822,516.963,-233.983,7.854,1040.850,260.630,-850.930
554,37518.266000,213.084,59.616,21.829,526.924,-217.506,18.165,707.850,-92.370,-225.930
555,37518.307000,257.996,78.654,16.868,520.015,-225.982,22.835,617.850,48.630,111.070
556,37518.347000,279.953,36.571,20.837,524.030,-218.072,33.882,463.850,230.630,-171.930
557,37518.390000,183.142,9.519,20.837,526.037,-214.130,38.913,139.850,92.630,-298.930
558,37518.432000,159.189,67.632,-6.946,526.125,-208.377,42.024,-61.150,52.630,45.070
559,37518.452000,235.041,70.638,26.791,517.114,-226.652,34.615,-207.150,-262.370,503.070
560,37518.492000,378.760,31.562,86.326,516.945,-237.291,25.466,-365.150,-166.370,546.070
561,37518.532000,365.786,-92.681,71.442,518.077,-227.505,37.544,24.850,597.630,-819.930
562,37518.566000,238.035,0.501,63.504,530.120,-201.492,50.091,114.850,369.630,-688.930
563,37518.606000,252.008,33.566,33.736,528.116,-206.169,52.908,179.850,140.630,54.070
564,37518.657000,268.975,11.523,25.798,526.232,-202.388,53.994,-170.150,117.630,28.070
565,37518.692000,212.086,26.552,42.667,528.142,-204.304,51.977,-422.150,80.630,-262.930
566,37518.730000,191.127,41.581,39.690,531.187,-195.621,57.141,-283.150,237.630,-107.930
567,37518.752000,203.103,37.573,36.713,530.107,-203.961,63.793,-164.150,381.630,99.070
568,37518.789000,214.082,23.546,31.752,525.276,-202.979,67.746,-196.150,353.630,250.070
569,37518.829000,213.084,20.540,38.698,524.227,-208.613,69.555,-253.150,58.630,280.070
570,37518.869000,254.004,-5.511,50.605,517.271,-219.243,64.330,-232.150,-127.370,286.070
571,37518.907000,270.971,-25.550,56.558,515.164,-230.618,64.010,66.850,6.630,283.070
572,37518.946000,288.936,-77.652,31.752,509.278,-235.350,66.819,308.850,-80.370,216.070
573,37518.986000,291.930,-21.542,34.729,508.398,-229.585,70.912,453.850,-6.370,119.070
574,37519.26000,221.068,35.569,39.690,510.347,-229.452,74.854,233.850,92.630,55.070
575,37519.54000,205.099,11.523,31.752,506.349,-237.912,78.546,231.850,-64.370,17.070
576,37519.94000,265.980,0.501,65.488,506.415,-233.210,77.693,90.850,-25.370,-18.930
577,37519.134000,273.965,-19.538,76.403,511.385,-225.498,80.867,162.850,27.630,-181.930
578,37519.174000,230.051,-23.546,49.612,515.208,-228.516,71.937,-108.150,-531.370,-187.930
579,37519.214000,225.060,0.501,42.667,519.182,-220.372,56.433,-175.150,-515.370,-81.930
580,37519.247000,229.053,30.560,48.620,517.229,-220.557,50.523,-98.150,-133.370,-37.930
581,37519.287000,269.973,36.571,30.760,518.226,-217.891,43.713,-39.150,-131.370,-79.930
582,37519.327000,263.984,53.605,18.853,520.001,-229.238,42.417,-137.150,14.630,37.070
583,37519.347000,242.027,37.573,44.651,519.062,-227.307,44.436,-183.150,3.630,117.070
584,37519.387000,269.973,20.540,35.721,515.106,-232.143,42.328,-221.150,-41.370,154.070
585,37519.427000,247.018,17.534,25.798,514.191,-228.374,42.431,-258.150,157.630,108.070
586,37519.467000,228.055,10.521,44.651,514.045,-238.697,45.095,-249.150,218.630,33.070
587,37519.521000,240.031,-3.507,44.651,516.926,-240.600,43.079,-195.150,75.630,137.070
588,37519.549000,238.035,-19.538,49.612,510.082,-244.400,45.913,7.850,85.630,212.070
589,37519.589000,230.051,-11.523,56.558,507.149,-246.253,48.807,82.850,54.630,228.070
590,37519.629000,250.012,-18.536,53.581,506.131,-249.944,52.637,269.850,11.630,255.070
591,37519.649000,256.000,-16.532,53.581,500.276,-252.732,57.468,499.850,-70.370,311.070
592,37519.689000,256.000,-15.530,40.682,494.368,-259.276,63.178,612.850,-185.370,274.070
593,37519.729000,225.060,-20.540,74.419,498.282,-257.277,65.207,728.850,-394.370,157.070
594,37519.767000,275.961,-26.552,72.434,494.339,-261.955,69.005,1001.850,-409.370,-59.930
595,37519.807000,239.033,-21.542,32.744,494.528,-249.530,74.269,764.850,136.630,-155.930
596,37519.847000,165.177,-41.581,31.752,498.445,-249.028,91.011,943.850,63.630,-246.930
597,37519.887000,373.770,-53.605,19.845,498.494,-246.085,95.027,970.850,-378.370,178.070
598,37519.927000,262.986,-35.569,16.868,493.630,-248.596,109.703,885.850,89.630,343.070
599,37519.947000,243.025,-2.505,-1.984,492.649,-249.503,111.643,724.850,-227.370,389.070
600,37519.987000,249.014,-16.532,17.860,487.749,-254.010,122.330,783.850,-34.370,407.070
601,37520.36000,252.008,-27.554,19.845,480.979,-253.791,134.128,714.850,114.630,295.070
602,37520.69000,224.062,-31.562,21.829,479.938,-260.081,146.738,788.850,35.630,103.070
603,37520.107000,230.051,-18.536,16.868,482.011,-251.438,150.916,861.850,-86.370,-20.930
604,37520.149000,228.055,19.538,4.961,485.055,-243.542,161.960,690.850,-119.370,-93.930
605,37520.189000,205.099,24.548,2.977,485.224,-232.142,164.245,606.850,-224.370,-252.930
606,37520.229000,242.027,40.579,25.798,490.201,-223.562,164.492,395.850,-329.370,-134.930
607,37520.249000,355.805,33.566,48.620,491.223,-219.819,162.631,182.850,-137.370,-26.930
608,37520.305000,325.864,44.587,60.527,493.068,-226.411,162.451,-340.150,361.630,160.070
609,37520.334000,269.973,10.521,49.612,484.099,-243.372,168.849,-553.150,435.630,289.070
610,37520.374000,257.996,-18.536,52.589,473.353,-248.251,168.695,-609.150,446.630,203.070
611,37520.415000,214.082,-33.566,50.605,472.267,-256.670,172.394,-553.150,401.630,218.070
612,37520.454000,198.113,-28.556,47.628,464.415,-262.506,170.251,-411.150,207.630,284.070
613,37520.495000,199.111,-13.526,32.744,456.459,-275.829,170.850,-256.150,29.630,320.070
614,37520.535000,204.101,-30.560,21.829,459.363,-275.893,166.919,-97.150,-50.370,219.070
615,37520.555000,194.121,-47.593,18.853,457.290,-284.537,162.741,35.850,-194.370,-51.930
616,37520.595000,248.016,-52.603,32.744,463.263,-274.078,162.058,121.850,-320.370,-222.930
617,37520.635000,288.936,-60.618,42.667,468.147,-271.304,157.225,309.850,-231.370,-257.930
618,37520.675000,294.924,-14.528,37.705,468.167,-269.518,153.341,-98.150,-279.370,164.070
619,37520.709000,319.875,8.517,39.690,463.084,-284.849,147.988,-421.150,-32.370,401.070
620,37520.764000,292.928,-39.577,49.612,457.116,-294.467,144.759,-535.150,258.630,185.070
621,37520.807000,256.998,-59.616,58.543,454.287,-288.834,144.911,-445.150,346.630,146.070
622,37520.817000,210.090,-73.644,56.558,449.386,-292.580,148.733,-213.150,378.630,174.070
623,37520.855000,169.170,-53.605,53.581,447.347,-300.015,154.425,-80.150,234.630,163.070
624,37520.895000,183.142,-36.571,47.628,439.533,-303.828,157.256,-43.150,156.630,148.070
625,37520.935000,186.136,-40.579,44.651,444.333,-307.516,158.145,12.850,64.630,69.070
626,37520.975000,284.943,-89.675,58.543,441.396,-309.422,159.071,94.850,-60.370,41.070
627,37521.15000,347.821,-92.681,47.628,446.310,-305.492,162.139,-154.150,195.630,-313.930
628,37521.55000,248.016,-39.577,72.434,449.356,-296.047,160.440,108.850,73.630,-256.930
629,37521.95000,244.023,-45.589,43.659,448.416,-294.117,162.459,91.850,126.630,-91.930
630,37521.115000,227.057,-43.585,43.659,447.513,-290.190,168.469,163.850,195.630,-135.930
631,37521.155000,235.041,-5.511,52.589,454.367,-286.258,170.557,74.850,14.630,-168.930
632,37521.195000,269.973,26.552,49.612,451.482,-284.408,170.603,-132.150,52.630,-312.930
633,37521.235000,260.990,35.569,50.605,463.259,-274.892,166.953,-248.150,-29.370,-421.930
634,37521.275000,246.020,21.542,35.721,471.022,-274.047,159.121,-450.150,-4.370,-526.930
635,37521.315000,220.070,-16.532,65.488,481.886,-259.975,149.695,-714.150,-205.370,-633.930
636,37521.356000,249.014,-70.638,100.217,489.742,-251.775,134.198,-690.150,-293.370,-693.930
637,37521.389000,246.020,-54.607,69.457,499.520,-243.812,108.862,-788.150,-535.370,-268.930
638,37521.416000,184.140,-9.519,32.744,493.503,-256.372,101.618,-510.150,-198.370,272.070
639,37521.449000,256.998,58.614,12.899,490.475,-262.534,84.720,-729.150,-234.370,511.070
640,37521.489000,384.749,27.554,-17.860,496.336,-258.906,75.978,-778.150,212.630,-772.930
641,37521.535000,182.144,16.532,52.589,506.364,-236.179,72.693,-413.150,-47.370,-749.930
642,37521.576000,158.191,2.505,-0.992,512.201,-234.389,65.867,-334.150,-281.370,-198.930
643,37521.609000,202.105,-6.513,1.984,515.036,-238.420,54.940,-471.150,-326.370,189.070
644,37521.652000,215.080,-0.501,14.884,510.048,-245.609,36.043,-220.150,-455.370,235.070
645,37521.695000,223.064,-3.507,6.946,506.038,-253.466,26.965,-77.150,-546.370,324.070
646,37521.711000,314.885,-16.532,22.822,501.976,-264.291,12.887,-159.150,-524.370,352.070
647,37521.756000,359.797,-68.634,48.620,503.113,-252.142,7.325,4.850,72.630,-203.930
648,37521.804000,323.867,-30.560,58.543,508.010,-249.972,15.263,181.850,231.630,-403.930
649,37521.830000,316.881,-30.560,27.783,511.079,-240.211,25.375,422.850,128.630,-403.930
650,37521.876000,285.942,-36.571,17.860,517.067,-230.330,38.447,574.850,363.630,-287.930
651,37521.915000,225.060,-7.515,16.868,515.250,-222.608,45.544,423.850,318.630,-209.930
652,37521.955000,228.055,24.548,20.837,519.163,-222.158,60.317,426.850,394.630,-302.930
653,37521.995000,182.144,40.579,29.767,523.246,-209.520,71.495,265.850,211.630,-307.930
654,37522.15000,165.177,33.566,18.853,527.223,-203.633,77.568,160.850,-10.370,-207.930
655,37522.55000,177.154,34.568,21.829,523.386,-200.038,72.743,56.850,-74.370,-95.930
656,37522.96000,214.082,20.540,27.783,528.290,-197.000,77.754,196.850,105.630,1.070
657,37522.135000,271.969,58.614,10.915,519.379,-208.603,72.498,-344.150,-144.370,437.070
658,37522.176000,379.758,24.548,79.380,521.218,-215.274,69.365,-256.150,97.630,329.070
659,37522.210000,353.809,-60.618,70.450,526.203,-206.589,73.549,104.850,106.630,-546.930
660,37522.250000,273.965,-15.530,37.705,527.314,-197.093,74.799,349.850,82.630,-483.930
661,37522.290000,241.029,32.564,28.775,528.397,-190.249,82.860,444.850,203.630,-47.930
662,37522.310000,254.004,45.589,21.829,527.352,-196.593,93.501,219.850,348.630,111.070
663,37522.350000,223.064,40.579,46.636,522.562,-193.535,104.398,78.850,226.630,7.070
664,37522.390000,174.160,38.575,48.620,526.331,-201.859,109.091,-14.150,285.630,136.070
665,37522.436000,191.127,44.587,33.736,520.391,-210.347,112.779,-204.150,314.630,327.070
666,37522.470000,228.055,21.542,40.682,515.536,-211.203,118.649,-189.150,214.630,310.070
667,37522.516000,256.998,9.519,41.674,510.544,-220.755,117.391,-90.150,105.630,251.070
668,37522.554000,268.975,-3.507,55.566,508.618,-219.810,118.398,-28.150,8.630,212.070
669,37522.574000,272.967,-0.501,55.566,510.365,-233.048,117.049,-110.150,10.630,79.070
670,37522.612000,252.008,-28.556,63.504,506.606,-224.592,117.278,-90.150,-12.370,-11.930
671,37522.656000,245.021,-12.524,57.550,509.398,-233.009,119.016,216.850,46.630,-145.930
672,37522.692000,233.045,23.546,49.612,512.601,-213.083,120.559,214.850,-10.370,-88.930
673,37522.732000,228.055,15.530,51.597,515.340,-224.495,116.312,-40.150,-134.370,-34.930
674,37522.772000,238.035,-4.509,53.581,517.475,-210.441,110.805,-69.150,-119.370,-275.930
675,37522.816000,256.998,-11.523,70.450,519.454,-208.390,115.783,68.850,33.630,-274.930
676,37522.856000,247.018,24.548,46.636,522.380,-207.404,115.815,-20.150,29.630,91.070
677,37522.876000,237.037,29.558,32.744,515.595,-206.607,113.859,-125.150,-58.370,140.070
678,37522.916000,272.967,54.607,29.767,519.462,-206.762,105.992,-380.150,-216.370,-3.930
679,37522.956000,278.955,69.636,50.605,522.269,-212.685,95.012,-423.150,-102.370,-271.930
680,37522.996000,238.035,55.609,30.760,525.302,-203.398,87.407,-601.150,-112.370,-234.930
681,37523.36000,234.043,27.554,34.729,525.303,-201.849,74.663,-863.150,-203.370,-58.930
682,37523.75000,235.041,39.577,24.806,528.129,-206.772,65.678,-1023.150,-155.370,21.070
683,37523.114000,234.043,21.542,19.845,524.100,-214.866,47.742,-1008.150,-146.370,95.070
684,37523.156000,256.998,-4.509,36.713,523.044,-219.819,39.733,-828.150,-46.370,173.070
685,37523.176000,258.994,-13.526,40.682,523.892,-226.767,26.754,-767.150,69.630,164.070
686,37523.214000,253.006,-15.530,41.674,516.025,-233.575,23.601,-598.150,116.630,126.070
687,37523.252000,247.018,-16.532,48.620,516.070,-230.686,25.649,-325.150,182.630,167.070
688,37523.309000,246.020,-12.524,50.605,508.185,-239.254,27.364,-255.150,169.630,229.070
689,37523.340000,238.035,-16.532,57.550,510.058,-243.954,27.237,-32.150,139.630,294.070
690,37523.372000,237.037,-36.571,57.550,502.138,-255.280,31.826,298.850,99.630,214.070
691,37523.421000,246.020,-35.569,59.535,502.173,-254.045,42.681,548.850,59.630,200.070
692,37523.456000,255.002,-23.546,54.574,495.216,-266.224,50.199,721.850,-51.370,319.070
693,37523.475000,246.020,-36.571,68.465,496.246,-263.136,59.139,1000.850,-208.370,443.070
694,37523.520000,257.996,-67.632,94.264,489.262,-277.968,73.469,1553.850,-228.370,395.070
695,37523.552000,261.988,-8.517,51.597,483.529,-273.033,84.416,1300.850,-195.370,419.070
696,37523.594000,236.039,39.577,36.713,483.484,-277.445,96.097,826.850,15.630,-103.930
697,37523.635000,160.187,-36.571,51.597,488.690,-255.153,114.430,1031.850,145.630,-522.930
698,37523.675000,251.010,-45.589,62.512,489.832,-244.474,124.565,1248.850,-291.370,62.070
699,37523.712000,326.862,-71.640,15.876,488.817,-248.138,129.380,927.850,41.630,424.070
700,37523.751000,246.020,-39.577,24.806,483.836,-258.293,140.892,805.850,-80.370,300.070
701,37523.771000,232.047,-6.513,26.791,481.980,-253.382,148.895,705.850,-67.370,400.070
702,37523.811000,235.041,-5.511,31.752,476.936,-267.424,156.365,550.850,-172.370,389.070
703,37523.851000,245.021,-13.526,53.581,472.203,-259.035,154.623,474.850,-114.370,197.070
704,37523.897000,261.988,-40.579,38.698,477.017,-262.538,162.402,540.850,-16.370,66.070
705,37523.937000,260.990,-23.546,34.729,474.218,-255.750,170.455,505.850,74.630,45.070
706,37523.971000,219.072,-26.552,47.628,476.181,-255.432,181.287,542.850,110.630,5.070
707,37524.12000,226.058,-13.526,33.736,470.408,-252.546,186.276,564.850,16.630,60.070
708,37524.59000,208.094,-19.538,33.736,474.401,-245.688,193.358,576.850,-175.370,-186.930
709,37524.71000,179.150,-14.528,-2.977,481.432,-229.489,194.804,875.850,-403.370,-425.930
710,37524.117000,206.097,-0.501,13.891,492.368,-210.636,187.478,909.850,-605.370,-455.930
711,37524.154000,306.901,54.607,39.690,500.261,-201.201,182.836,336.850,-532.370,-134.930
712,37524.197000,373.770,128.751,42.667,497.274,-206.050,179.745,-219.150,-70.370,504.070
713,37524.237000,302.908,76.650,19.845,488.125,-234.543,178.937,-979.150,380.630,522.070
714,37524.277000,270.971,-3.507,31.752,478.281,-243.375,171.790,-1137.150,405.630,261.070
715,37524.317000,250.012,-50.599,35.721,475.078,-262.540,163.383,-1063.150,277.630,188.070
716,37524.337000,212.086,-52.603,55.566,475.035,-265.403,162.319,-717.150,242.630,176.070
717,37524.374000,183.142,-19.538,28.775,469.075,-274.154,156.164,-499.150,59.630,153.070
718,37524.417000,171.166,-9.519,20.837,470.012,-275.349,146.296,-376.150,-252.370,51.070
719,37524.457000,189.131,-36.571,18.853,469.856,-284.281,130.310,-412.150,-443.370,-106.930
720,37524.497000,220.070,-81.659,25.798,479.701,-272.377,110.985,-222.150,-566.370,-322.930
721,37524.537000,312.889,-98.693,75.411,486.558,-267.631,108.178,270.850,-443.370,-413.930
722,37524.577000,334.846,-40.579,47.628,488.682,-255.258,110.493,500.850,-68.370,-56.930
723,37524.617000,367.782,81.659,46.636,481.630,-273.269,111.947,-174.150,95.630,692.070
724,37524.644000,342.830,17.534,14.884,473.789,-278.973,114.726,-566.150,402.630,178.070
725,37524.677000,293.926,-55.609,33.736,473.726,-283.623,117.548,-483.150,507.630,-87.930
726,37524.717000,236.039,-76.650,21.829,471.840,-280.629,124.513,-213.150,591.630,2.070
727,37524.757000,192.125,-69.636,34.729,467.862,-288.826,138.049,-23.150,541.630,-60.930
728,37524.797000,163.181,-44.587,30.760,466.982,-283.061,142.142,-92.150,383.630,-97.930
729,37524.836000,177.154,-32.564,29.767,471.934,-277.108,150.185,149.850,200.630,-231.930
730,37524.879000,222.066,-19.538,41.674,468.102,-274.194,155.178,174.850,-19.370,-326.930
731,37524.919000,233.045,1.503,44.651,478.995,-258.965,153.652,134.850,-12.370,-208.930
732,37524.939000,247.018,-9.519,42.667,480.003,-256.167,151.765,-0.150,-52.370,-119.930
733,37524.979000,289.934,-2.505,48.620,486.839,-252.473,144.994,-151.150,-247.370,-294.930
734,37525.19000,307.899,41.581,68.465,486.825,-252.657,138.103,-548.150,-93.370,-240.930
735,37525.59000,296.920,65.628,35.721,487.752,-254.745,130.178,-478.150,40.630,-162.930
736,37525.99000,245.021,-35.569,21.829,489.756,-250.069,127.361,-511.150,185.630,-340.930
737,37525.139000,217.076,-79.656,32.744,492.801,-240.624,125.661,-411.150,135.630,-362.930
738,37525.179000,237.037,-24.548,53.581,498.637,-239.622,124.715,-221.150,49.630,-94.930
739,37525.212000,247.018,2.505,46.636,500.501,-244.428,120.650,-326.150,-15.370,-15.930
740,37525.232000,224.062,6.513,49.612,499.432,-250.326,112.616,-537.150,-12.370,-111.930
741,37525.272000,223.064,-19.538,62.512,508.348,-236.360,100.232,-654.150,-253.370,-270.930
742,37525.312000,272.967,-39.577,51.597,510.241,-237.726,83.476,-555.150,-535.370,-367.930
743,37525.352000,260.990,18.536,43.659,511.310,-230.305,77.783,-224.150,-49.370,-84.930
744,37525.392000,284.943,42.583,4.961,511.192,-237.975,73.635,-302.150,-100.370,30.070
745,37525.432000,284.943,41.581,0.000,514.190,-230.685,62.039,-392.150,-21.370,-102.930
746,37525.474000,253.006,59.616,39.690,514.137,-234.441,62.918,-341.150,75.630,-179.930
747,37525.514000,249.014,54.607,24.806,517.157,-226.861,62.150,-487.150,93.630,-247.930
748,37525.541000,201.107,33.566,28.775,522.943,-228.040,50.324,-596.150,-115.370,-186.930
749,37525.574000,169.170,18.536,29.767,520.022,-227.425,39.517,-348.150,-277.370,-71.930
750,37525.615000,170.168,7.515,-1.984,521.861,-232.573,22.655,-598.150,-451.370,338.070
751,37525.654000,262.986,-56.611,8.930,515.052,-232.854,15.751,-597.150,-253.370,347.070
752,37525.694000,430.659,-140.775,75.411,516.920,-236.846,6.790,-123.150,-201.370,-501.930
753,37525.734000,307.899,-39.577,34.729,518.227,-215.581,24.105,806.850,402.630,-504.930
754,37525.781000,279.953,26.552,-7.938,525.044,-215.195,34.947,593.850,119.630,-248.930
755,37525.814000,252.008,37.573,23.814,526.118,-209.244,44.951,759.850,418.630,-128.930
756,37525.834000,216.078,27.554,24.806,529.158,-202.162,60.890,623.850,262.630,-71.930
757,37525.874000,202.105,26.552,27.783,531.226,-195.120,75.844,472.850,150.630,-180.930
758,37525.916000,192.125,20.540,29.767,532.226,-193.189,76.883,337.850,101.630,-125.930
759,37525.959000,181.146,40.579,28.775,530.330,-191.088,85.791,120.850,118.630,43.070
760,37525.999000,193.123,50.599,31.752,531.262,-193.885,86.698,114.850,22.630,211.070
761,37526.39000,213.084,65.628,30.760,524.266,-207.326,82.378,-111.150,-125.370,374.070
762,37526.79000,338.838,-17.534,78.388,524.191,-211.371,72.429,-122.150,-357.370,294.070
763,37526.99000,368.780,27.554,83.349,523.217,-211.438,70.459,-185.150,27.630,-165.930
764,37526.155000,314.885,26.552,69.457,524.376,-198.999,75.724,176.850,270.630,-480.930
765,37526.177000,286.940,13.526,32.744,530.183,-200.676,80.606,280.850,186.630,-21.930
766,37526.217000,256.000,36.571,24.806,530.250,-197.497,93.481,70.850,267.630,148.070
767,37526.257000,225.060,38.575,46.636,526.281,-204.040,98.210,-177.150,263.630,-41.930
768,37526.297000,179.150,36.571,32.744,527.242,-204.919,100.155,-152.150,271.630,-50.930
769,37526.337000,165.177,34.568,34.729,524.368,-202.938,105.123,-17.150,225.630,95.070
770,37526.380000,201.107,27.554,46.636,522.313,-211.344,109.804,-220.150,149.630,390.070
771,37526.400000,240.031,67.632,44.651,513.343,-227.544,109.338,-355.150,149.630,611.070
772,37526.440000,237.037,25.550,52.589,504.330,-246.606,107.809,-314.150,170.630,582.070
773,37526.480000,236.039,-92.681,68.465,496.504,-250.578,104.735,-161.150,-19.370,161.070
774,37526.520000,290.932,-90.677,105.178,500.461,-245.716,107.827,86.850,-43.370,184.070
775,37526.560000,291.930,-25.550,85.333,496.385,-259.797,113.331,384.850,137.630,283.070
776,37526.600000,212.086,30.560,36.713,494.622,-248.293,120.533,440.850,210.630,-22.930
777,37526.640000,197.115,65.628,27.783,499.440,-250.982,123.417,62.850,-153.370,103.070
778,37526.676000,250.012,16.532,45.643,492.606,-253.127,117.444,-22.150,-192.370,195.070
779,37526.696000,266.979,-24.548,73.426,493.449,-261.677,115.241,17.850,-30.370,43.070
780,37526.736000,236.039,-54.607,62.512,489.582,-260.760,116.243,168.850,-33.370,181.070
781,37526.776000,231.049,-66.630,79.380,483.821,-256.955,120.274,532.850,-42.370,373.070
782,37526.814000,257.996,-31.562,51.597,477.784,-272.088,122.794,248.850,-236.370,473.070
783,37526.860000,270.971,20.540,66.481,479.723,-272.849,128.677,247.850,242.630,71.070
784,37526.901000,184.140,-45.589,71.442,473.089,-263.960,146.618,764.850,325.630,-384.930
785,37526.941000,255.002,-123.742,60.527,480.116,-249.337,159.824,1123.850,-104.370,-219.930
786,37526.981000,324.866,-40.579,37.705,480.057,-253.934,164.614,957.850,-131.370,356.070
787,37527.1000,250.012,9.519,15.876,475.183,-256.576,174.368,663.850,14.630,324.070
788,37527.41000,218.074,-17.534,29.767,479.011,-261.826,187.999,735.850,-3.370,291.070
789,37527.80000,203.103,-41.581,18.853,471.354,-255.159,194.073,884.850,-179.370,187.070
790,37527.120000,184.140,-41.581,22.822,472.516,-242.694,200.324,1065.850,-278.370,-123.930
791,37527.161000,174.160,18.536,18.853,482.533,-221.647,204.860,1168.850,-435.370,-434.930
792,37527.202000,224.062,83.663,41.674,485.604,-210.337,202.229,810.850,-533.370,-304.930
793,37527.240000,303.906,119.734,30.760,495.552,-193.258,199.770,642.850,-422.370,48.070
794,37527.281000,412.694,75.648,74.419,489.590,-202.796,199.495,-297.150,145.630,158.070
795,37527.309000,300.912,49.597,71.442,487.603,-205.713,197.443,-692.150,88.630,321.070
796,37527.344000,264.982,20.540,32.744,483.349,-230.539,189.860,-880.150,160.630,407.070
797,37527.376000,248.016,-32.564,49.612,476.386,-242.036,187.562,-962.150,273.630,340.070
798,37527.432000,195.119,-56.611,59.535,472.216,-261.161,181.121,-761.150,284.630,252.070
799,37527.462000,191.127,-37.573,56.558,465.474,-257.501,180.228,-459.150,88.630,163.070
800,37527.495000,180.148,-27.554,35.721,465.325,-267.116,174.059,-202.150,-66.370,141.070
801,37527.535000,191.127,-42.583,16.868,466.232,-270.228,163.154,-136.150,-374.370,72.070
802,37527.575000,256.998,-46.591,41.674,472.012,-271.486,148.374,-286.150,-537.370,-280.930
803,37527.595000,211.088,-43.585,50.605,482.976,-251.503,147.965,480.850,-349.370,-753.930
804,37527.635000,378.760,40.579,19.845,489.833,-245.996,138.294,54.850,-470.370,160.070
805,37527.675000,406.706,27.554,26.791,482.860,-258.386,137.937,-211.150,-34.370,526.070
806,37527.715000,312.889,-27.554,48.620,480.806,-266.005,136.738,-413.150,249.630,12.070
807,37527.762000,277.957,-38.575,38.698,473.984,-267.992,136.672,-484.150,308.630,32.070
808,37527.796000,236.039,-37.573,46.636,475.882,-270.828,135.612,-335.150,357.630,127.070
809,37527.837000,189.131,-39.577,44.651,468.999,-277.438,139.351,-239.150,296.630,117.070
810,37527.885000,186.136,-31.562,42.667,471.917,-277.318,142.310,-191.150,187.630,79.070
811,37527.897000,197.115,-16.532,35.721,464.123,-279.346,141.257,-206.150,36.630,-60.930
812,37527.937000,206.097,-25.550,29.767,474.831,-276.489,136.437,-71.150,-213.370,-200.930
813,37527.977000,229.053,-37.573,19.845,474.813,-276.726,127.578,42.850,-461.370,-273.930
814,37528.21000,295.922,-30.560,20.837,485.706,-260.736,119.188,44.850,-450.370,-369.930
815,37528.61000,335.844,11.523,51.597,489.607,-258.134,108.447,-248.150,-226.370,-348.930
816,37528.101000,303.906,52.603,16.868,495.459,-255.399,101.648,-453.150,39.630,61.070
817,37528.135000,278.955,44.587,36.713,491.448,-264.017,99.434,-803.150,176.630,156.070
818,37528.181000,227.057,-31.562,22.822,490.456,-265.082,95.469,-303.150,271.630,-294.930
819,37528.201000,181.146,-73.644,51.597,498.354,-255.568,93.779,1.850,-200.370,-438.930
820,37528.242000,252.008,-34.568,37.705,500.405,-247.214,87.130,-137.150,-180.370,-192.930
821,37528.284000,278.955,22.544,34.729,500.301,-254.700,89.872,-13.150,216.630,30.070
822,37528.316000,229.053,10.521,19.845,500.286,-255.672,88.862,-257.150,19.630,-102.930
823,37528.356000,242.027,-10.521,30.760,503.293,-247.489,75.324,-508.150,-328.370,-292.930
824,37528.396000,298.916,-15.530,47.628,506.230,-244.821,67.534,-359.150,-57.370,-270.930
825,37528.437000,257.996,1.503,17.860,512.219,-233.391,67.862,-137.150,200.630,-238.930
826,37528.476000,256.998,42.583,-0.992,516.080,-235.148,70.771,-358.150,73.630,-199.930
827,37528.502000,274.963,35.569,13.891,519.112,-226.649,69.045,-462.150,131.630,-268.930
828,37528.550000,217.076,30.560,40.682,518.302,-215.368,67.390,-414.150,169.630,-376.930
829,37528.576000,199.111,37.573,28.775,524.159,-212.554,63.544,-554.150,-96.370,-239.930
830,37528.616000,214.082,26.552,16.868,521.208,-213.883,50.715,-610.150,-224.370,-99.930
831,37528.656000,216.078,14.528,17.860,525.054,-215.063,39.869,-522.150,-158.370,54.070
832,37528.696000,186.136,8.517,11.907,517.109,-225.944,25.782,-595.150,-450.370,267.070
833,37528.742000,228.055,-17.534,-15.876,515.014,-234.116,3.912,-681.150,-434.370,495.070
834,37528.762000,301.910,-29.558,49.612,508.054,-244.798,-3.282,-522.150,-245.370,416.070
835,37528.802000,390.737,-85.667,45.643,511.044,-238.374,-11.951,-319.150,-217.370,-82.930
836,37528.844000,332.850,-59.616,26.791,513.033,-236.192,-2.051,161.850,469.630,-390.930
837,37528.876000,283.945,-15.530,14.884,521.042,-220.636,10.199,273.850,376.630,-435.930
838,37528.916000,223.064,-5.511,23.814,520.141,-217.444,24.057,616.850,336.630,-344.930
839,37528.962000,182.144,3.507,28.775,525.107,-211.307,38.990,676.850,364.630,-213.930
840,37528.996000,183.142,24.548,30.760,527.167,-204.371,50.006,486.850,194.630,-177.930
841,37529.36000,189.131,40.579,23.814,527.273,-197.619,55.112,225.850,-18.370,-84.930
842,37529.56000,177.154,52.603,-0.992,530.101,-203.278,53.976,224.850,-163.370,-25.930
843,37529.105000,225.060,25.550,9.922,533.130,-194.805,51.266,175.850,-124.370,200.070
844,37529.137000,217.076,78.654,33.736,529.896,-216.675,47.701,-446.150,-108.370,525.070
845,37529.177000,363.789,53.605,69.457,523.007,-221.842,34.759,-381.150,-223.370,445.070
846,37529.217000,399.719,-90.677,79.380,522.992,-222.026,27.868,-315.150,-60.370,-353.930
847,37529.257000,287.938,11.523,59.535,525.182,-205.739,35.210,279.850,215.630,-570.930
848,37529.304000,281.949,55.609,30.760,527.141,-206.235,50.938,362.850,414.630,-98.930
849,37529.336000,254.004,31.562,16.868,525.330,-198.435,60.988,91.850,437.630,-119.930
850,37529.356000,216.078,9.519,38.698,529.233,-198.116,70.839,-25.150,343.630,-169.930
851,37529.397000,166.175,23.546,33.736,527.318,-197.040,76.768,47.850,380.630,-11.930
852,37529.437000,170.168,29.558,19.845,528.283,-197.867,80.681,-91.150,287.630,202.070
853,37529.477000,192.125,26.552,34.729,520.237,-217.730,84.049,-182.150,178.630,404.070
854,37529.517000,260.990,28.556,43.659,514.438,-216.709,89.969,-80.150,166.630,428.070
855,37529.557000,272.967,17.534,44.651,508.434,-229.111,88.631,-49.150,58.630,481.070
856,37529.597000,251.010,-47.593,70.450,503.492,-235.694,92.374,111.850,-41.370,372.070
857,37529.644000,277.957,-64.626,80.372,500.472,-243.274,93.141,175.850,-0.370,273.070
858,37529.664000,261.988,-19.538,49.612,501.418,-245.125,94.075,107.850,33.630,-39.930
859,37529.697000,205.099,36.571,54.574,500.589,-236.391,103.169,308.850,161.630,-73.930
860,37529.737000,203.103,46.591,35.721,505.403,-239.133,104.084,197.850,-173.370,83.070
861,37529.779000,272.967,10.521,31.752,501.410,-245.991,97.002,16.850,-286.370,122.070
862,37529.819000,273.965,-19.538,55.566,499.526,-242.210,98.087,168.850,-71.370,102.070
863,37529.859000,241.029,-33.566,69.457,494.531,-252.549,102.709,455.850,99.630,171.070
864,37529.899000,237.037,-3.507,49.612,496.508,-250.525,106.703,274.850,-141.370,302.070
865,37529.939000,254.004,11.523,51.597,490.576,-257.385,100.601,210.850,-290.370,316.070
866,37529.959000,251.010,14.528,77.395,488.591,-260.276,99.534,-25.150,-16.370,230.070
867,37529.999000,202.105,-16.532,55.566,486.627,-262.903,108.310,268.850,385.630,-112.930
868,37530.41000,202.105,-100.697,51.597,489.708,-252.223,117.464,614.850,-0.370,-301.930
869,37530.84000,318.877,-83.663,36.713,493.597,-252.089,120.426,755.850,-297.370,119.070
870,37530.125000,295.922,-14.528,21.829,488.650,-259.512,128.080,721.850,-179.370,430.070
871,37530.157000,247.018,-4.509,15.876,484.722,-263.218,132.888,768.850,94.630,357.070
872,37530.204000,207.096,-47.593,27.783,480.060,-252.358,152.854,1039.850,76.630,143.070
873,37530.244000,198.113,-49.597,18.853,484.024,-247.417,158.900,932.850,-163.370,58.070
874,37530.263000,185.138,-16.532,17.860,486.146,-235.832,167.095,1280.850,-336.370,-290.930
875,37530.304000,231.049,33.566,-2.977,497.189,-210.989,171.739,1277.850,-503.370,-669.930
876,37530.344000,314.885,117.730,9.922,506.174,-193.817,173.215,1084.850,-516.370,-547.930
877,37530.383000,345.825,130.755,7.938,506.314,-184.335,174.463,476.850,-20.370,83.070
878,37530.420000,373.770,72.642,94.264,505.298,-187.999,179.277,-297.150,137.630,366.070
879,37530.463000,295.922,46.591,43.659,499.250,-203.264,176.875,-547.150,255.630,389.070
880,37530.497000,226.058,-12.524,25.798,491.293,-216.613,176.491,-642.150,296.630,372.070
881,37530.517000,201.107,-74.646,55.566,484.270,-232.706,178.982,-422.150,220.630,400.070
882,37530.557000,187.135,-79.656,44.651,485.044,-245.984,176.647,63.850,-75.370,231.070
883,37530.597000,163.181,-47.593,5.953,484.294,-230.868,177.066,243.850,-253.370,98.070
884,37530.644000,152.203,-21.542,26.791,485.207,-234.663,175.978,822.850,-249.370,-57.930
885,37530.677000,262.986,22.544,23.814,493.153,-221.472,170.457,366.850,-451.370,-262.930
886,37530.717000,363.789,102.701,26.791,494.120,-221.511,168.490,-104.150,-343.370,-429.930
887,37530.765000,319.875,34.568,17.860,492.191,-219.070,154.784,-630.150,-239.370,321.070
888,37530.812000,329.856,-5.511,-5.953,490.863,-242.147,140.370,-1192.150,-90.370,360.070
889,37530.819000,325.864,-26.552,2.977,491.746,-247.099,131.381,-1116.150,352.630,29.070
890,37530.859000,266.979,-28.556,34.729,488.742,-252.946,126.295,-1165.150,321.630,88.070
891,37530.899000,223.064,-23.546,40.682,481.770,-264.547,120.059,-1148.150,368.630,243.070
892,37530.940000,191.127,-60.618,41.674,480.648,-274.202,112.903,-863.150,344.630,73.070
893,37530.980000,155.197,-83.663,29.767,478.582,-281.979,105.798,-771.150,32.630,-110.930
894,37531.46000,204.101,-62.622,50.605,482.432,-281.583,83.193,-726.150,-287.370,-82.930
895,37531.75000,271.969,-51.601,56.558,483.487,-275.108,77.473,-190.150,-319.370,-48.930
896,37531.103000,256.998,-63.624,23.814,487.355,-276.786,83.335,482.850,79.630,-211.930
897,37531.124000,240.031,-46.591,5.953,490.402,-268.077,89.484,250.850,111.630,-280.930
898,37531.163000,256.998,-29.558,38.698,500.311,-254.569,94.794,259.850,0.630,-395.930
899,37531.204000,302.908,31.562,84.341,509.124,-248.850,92.017,-100.150,-71.370,-559.930
900,37531.244000,327.860,107.710,78.388,507.259,-243.283,89.218,-173.150,-36.370,-47.930
901,37531.284000,257.996,79.656,37.705,504.270,-248.157,85.143,-184.150,140.630,359.070
902,37531.321000,224.062,-92.681,3.969,504.209,-252.019,82.085,-145.150,-46.370,-19.930
903,37531.362000,236.039,-68.634,8.930,507.253,-242.600,79.401,-236.150,-225.370,-353.930
904,37531.402000,247.018,36.571,40.682,516.130,-232.206,74.787,-193.150,50.630,-351.930
905,37531.422000,260.990,68.634,53.581,515.163,-232.167,76.754,-142.150,296.630,-190.930
906,37531.461000,215.080,6.513,12.899,521.073,-226.358,78.892,-129.150,122.630,-267.930
907,37531.502000,253.006,-14.528,-0.992,522.128,-219.883,73.173,-81.150,-196.370,-309.930
908,37531.545000,316.881,13.526,0.000,529.027,-212.301,70.444,-96.150,-25.370,-273.930
909,37531.585000,246.020,24.548,38.698,530.013,-211.315,71.457,-104.150,41.630,-281.930
910,37531.622000,200.109,19.538,20.837,529.212,-199.929,73.740,140.850,134.630,-192.930
911,37531.661000,197.115,43.585,16.868,532.002,-208.372,74.493,29.850,-104.370,142.070
912,37531.701000,207.096,45.589,18.853,532.065,-203.723,71.672,-107.150,-212.370,196.070
913,37531.721000,231.049,57.613,27.783,527.971,-217.253,62.436,-251.150,-317.370,336.070
914,37531.761000,210.090,21.542,2.977,524.951,-223.311,49.475,-467.150,-426.370,455.070
915,37531.801000,223.064,18.536,20.837,519.837,-239.036,29.357,-429.150,-527.370,357.070
916,37531.840000,392.733,-44.587,24.806,515.921,-240.300,19.479,-331.150,-263.370,144.070
917,37531.880000,358.799,-43.585,42.667,516.834,-244.095,18.392,-129.150,282.630,-225.930
918,37531.920000,302.908,-12.524,4.961,523.847,-229.656,24.707,-352.150,397.630,-418.930
919,37531.959000,248.016,-34.568,27.783,528.823,-222.626,37.698,191.850,398.630,-507.930
920,37531.998000,192.125,-13.526,20.837,536.783,-210.774,52.795,504.850,339.630,-402.930
921,37532.18000,184.140,12.524,28.775,536.929,-201.212,56.995,440.850,147.630,-204.930
922,37532.59000,185.138,17.534,11.907,531.194,-196.303,66.958,242.850,162.630,-109.930
923,37532.106000,131.244,66.630,4.961,536.971,-199.898,70.803,144.850,81.630,36.070
924,37532.140000,164.179,62.622,9.922,535.043,-198.218,63.961,178.850,-305.370,146.070
925,37532.180000,278.955,52.603,4.961,533.050,-201.214,58.956,-225.150,-170.370,362.070
926,37532.220000,375.766,39.577,24.806,530.877,-216.530,52.625,-92.150,-201.370,244.070
927,37532.268000,380.756,-61.620,24.806,536.799,-209.040,46.941,7.850,-64.370,-348.930
928,37532.281000,277.957,14.528,58.543,534.015,-201.279,56.005,301.850,156.630,-274.930
929,37532.332000,294.924,43.585,22.822,533.115,-197.300,63.983,221.850,391.630,-18.930
930,37532.360000,255.002,37.573,46.636,534.916,-208.304,75.483,144.850,393.630,-82.930
931,37532.400000,206.097,38.575,50.605,533.182,-195.670,89.602,141.850,404.630,-30.930
932,37532.440000,188.133,22.544,36.713,530.180,-203.013,99.229,0.850,447.630,64.070
933,37532.480000,200.109,27.554,36.713,528.327,-198.049,109.200,-154.150,425.630,133.070
934,37532.520000,217.076,30.560,51.597,526.294,-204.643,110.981,-124.150,295.630,160.070
935,37532.566000,253.006,36.571,56.558,521.368,-210.254,115.734,-123.150,153.630,315.070
936,37532.586000,249.014,16.532,45.643,513.405,-224.443,119.261,-60.150,79.630,445.070
937,37532.626000,255.002,-43.585,70.450,510.436,-228.294,118.165,79.850,-58.370,345.070
938,37532.666000,310.893,-75.648,39.690,508.341,-238.749,116.887,120.850,53.630,150.070
939,37532.706000,245.021,-0.501,57.550,510.294,-238.564,122.797,202.850,142.630,-35.930
940,37532.746000,225.060,51.601,40.682,511.312,-235.634,125.831,140.850,50.630,-16.930
941,37532.786000,225.060,26.552,44.651,509.383,-234.742,124.869,11.850,-64.370,127.070
942,37532.826000,238.035,7.515,49.612,503.537,-236.637,127.757,105.850,-9.370,102.070
943,37532.872000,239.033,-7.515,52.589,503.467,-241.392,126.641,291.850,-101.370,161.070
944,37532.880000,253.006,-32.564,56.558,502.514,-240.407,128.634,353.850,-88.370,248.070
945,37532.920000,256.000,-17.534,63.504,497.661,-241.237,135.488,417.850,-34.370,204.070
946,37532.960000,246.020,2.505,52.589,498.541,-247.764,138.259,476.850,-117.370,183.070
947,37533.0,247.018,8.517,37.705,495.661,-245.861,140.274,632.850,-260.370,239.070
948,37533.40000,254.004,2.505,26.791,500.546,-243.849,142.306,683.850,-321.370,350.070
949,37533.80000,248.016,-29.558,119.070,494.651,-249.447,148.042,765.850,-263.370,370.070
950,37533.120000,249.014,5.511,65.488,492.693,-251.234,152.907,284.850,35.630,194.070
951,37533.160000,176.156,-34.568,49.612,489.857,-246.442,156.970,549.850,254.630,-707.930
952,37533.187000,272.967,-63.624,60.527,503.946,-212.915,166.779,894.850,-127.370,-815.930
953,37533.226000,336.842,-13.526,-25.798,500.091,-211.840,173.687,684.850,104.630,415.070
954,37533.260000,246.020,-9.519,22.822,497.140,-215.454,181.451,423.850,68.630,301.070
955,37533.300000,197.115,-28.556,20.837,497.080,-220.076,185.256,626.850,46.630,360.070
956,37533.340000,201.107,-3.507,-18.853,494.139,-222.797,191.077,595.850,-350.370,471.070
957,37533.387000,184.140,14.528,-3.969,494.997,-229.613,183.020,366.850,-537.370,298.070
958,37533.427000,191.127,14.528,0.000,501.787,-228.808,174.202,482.850,-618.370,-243.930
959,37533.467000,335.844,74.646,48.620,509.787,-211.073,161.922,392.850,-651.370,-594.930
960,37533.481000,449.622,149.793,24.806,510.874,-202.654,158.223,-477.150,124.630,302.070
961,37533.521000,285.942,34.568,33.736,501.820,-224.554,156.615,-850.150,327.630,340.070
962,37533.561000,288.936,-30.560,37.705,497.823,-231.465,147.564,-891.150,68.630,248.070
963,37533.604000,315.883,-26.552,46.636,495.734,-241.080,142.375,-795.150,213.630,99.070
964,37533.647000,240.031,-35.569,62.512,490.841,-243.960,143.270,-684.150,408.630,140.070
965,37533.687000,185.138,-25.550,51.597,489.582,-263.832,142.715,-527.150,335.630,171.070
966,37533.727000,153.201,-29.558,37.705,484.770,-261.825,149.648,-124.150,255.630,19.070
967,37533.767000,150.207,-25.550,19.845,489.674,-257.265,140.931,-96.150,-122.370,-141.930
968,37533.787000,219.072,-13.526,23.814,494.611,-249.973,128.355,-233.150,-490.370,-432.930
969,37533.827000,315.883,-38.575,25.798,504.561,-232.106,120.016,65.850,-641.370,-830.930
970,37533.867000,345.825,-8.517,81.364,517.584,-203.663,116.895,451.850,-175.370,-799.930
971,37533.907000,330.854,84.665,25.798,513.566,-213.148,117.608,-20.150,104.630,557.070
972,37533.949000,294.924,53.605,3.969,500.605,-236.942,117.908,-402.150,105.630,913.070
973,37533.981000,255.002,-11.523,25.798,497.510,-248.567,108.727,-879.150,102.630,293.070
974,37534.21000,260.990,-41.581,22.822,494.502,-255.228,108.536,-478.150,323.630,8.070
975,37534.61000,200.109,-64.626,17.860,496.489,-253.072,117.452,103.850,418.630,-42.930
976,37534.81000,188.133,-41.581,19.845,493.581,-253.822,126.279,100.850,9.630,-31.930
977,37534.132000,221.068,-5.511,-4.961,499.489,-247.278,120.569,-58.150,-71.370,-213.930
978,37534.167000,266.979,23.546,28.775,498.456,-251.180,116.525,-58.150,-130.370,-128.930
979,37534.206000,292.928,-18.536,14.884,498.554,-244.534,117.693,62.850,105.630,136.070
980,37534.247000,239.033,-43.585,18.853,496.499,-252.941,122.374,-134.150,155.630,61.070
981,37534.287000,257.996,-7.515,51.597,499.479,-247.410,115.648,-126.150,-15.370,-136.930
982,37534.327000,309.895,53.605,70.450,499.450,-249.328,114.611,-578.150,69.630,-86.930
983,37534.373000,271.969,47.593,39.690,498.520,-246.505,114.688,-565.150,426.630,1.070
984,37534.381000,225.060,5.511,36.713,495.507,-254.005,118.408,-623.150,527.630,-197.930
985,37534.421000,171.166,-77.652,33.736,502.464,-242.588,117.754,-406.150,67.630,-339.930
986,37534.462000,217.076,-70.638,30.760,506.319,-243.663,110.845,-132.150,-195.370,-159.930
987,37534.511000,290.932,-12.524,47.628,506.384,-238.987,109.008,-70.150,-80.370,173.070
988,37534.547000,294.924,16.532,37.705,501.367,-250.377,109.667,-37.150,236.630,156.070
989,37534.587000,222.066,9.519,37.705,502.435,-244.506,116.717,1.850,257.630,-125.930
990,37534.627000,208.094,-6.513,34.729,505.329,-245.463,114.728,-63.150,-168.370,-191.930
991,37534.667000,256.000,-9.519,35.721,502.524,-237.204,107.084,-91.150,-156.370,-151.930
992,37534.687000,253.006,-4.509,32.744,508.393,-233.470,102.280,-137.150,-150.370,-103.930
993,37534.727000,242.027,-8.517,40.682,510.236,-239.327,94.251,-215.150,-368.370,-132.930
994,37534.768000,258.994,-3.507,55.566,513.120,-239.655,80.476,-161.150,-348.370,-123.930
995,37534.809000,255.002,-1.503,47.628,517.161,-228.331,77.847,47.850,-188.370,-143.930
996,37534.848000,240.031,3.507,42.667,521.054,-227.383,75.913,172.850,-120.370,-157.930
997,37534.890000,246.020,14.528,10.915,522.122,-219.962,70.220,26.850,-359.370,-134.930
998,37534.922000,270.971,9.519,3.969,526.893,-224.806,63.208,-11.150,-204.370,-110.930
999,37534.948000,267.977,12.524,19.845,523.043,-222.129,59.341,108.850,-55.370,7.070
1000,37534.989000,269.973,18.536,18.853,522.130,-218.334,60.429,59.850,-63.370,61.070
1001,37535.28000,257.996,29.558,4.961,523.996,-223.114,57.348,-64.150,-4.370,-7.930
1002,37535.69000,245.021,34.568,24.806,523.155,-214.538,60.536,-131.150,44.630,-118.930
1003,37535.109000,239.033,20.540,16.868,525.961,-222.009,62.300,-133.150,35.630,-110.930
1004,37535.142000,245.021,18.536,21.829,528.028,-213.445,63.526,-52.150,118.630,-10.930
1005,37535.182000,246.020,24.548,7.938,525.991,-220.091,63.337,-93.150,95.630,99.070
1006,37535.222000,247.018,21.542,-0.992,522.155,-217.231,66.361,-49.150,152.630,123.070
1007,37535.242000,236.039,22.544,15.876,521.063,-226.490,73.971,-5.150,176.630,169.070
1008,37535.283000,234.043,22.544,18.853,514.204,-231.262,75.794,42.850,112.630,260.070
1009,37535.323000,240.031,16.532,6.946,509.318,-234.062,79.642,173.850,79.630,356.070
1010,37535.362000,248.016,14.528,19.845,505.302,-244.282,88.203,174.850,105.630,335.070
1011,37535.402000,268.975,-25.550,55.566,500.453,-245.060,97.026,569.850,128.630,283.070
1012,37535.452000,346.823,-64.626,41.674,499.506,-243.996,101.972,322.850,-151.370,-126.930
1013,37535.485000,250.012,13.526,23.814,499.504,-244.784,107.852,313.850,266.630,-229.930
1014,37535.525000,203.103,58.614,21.829,500.542,-240.830,113.865,-44.150,99.630,198.070
1015,37535.548000,227.057,40.579,33.736,493.526,-256.844,119.310,10.850,107.630,151.070
1016,37535.588000,256.998,12.524,38.698,495.546,-251.195,117.503,6.850,-121.370,-55.930
1017,37535.625000,247.018,7.515,43.659,497.495,-250.301,114.580,-88.150,-178.370,-29.930
1018,37535.665000,242.027,-1.503,55.566,497.579,-243.839,108.858,-152.150,-193.370,11.070
1019,37535.706000,235.041,-15.530,55.566,494.527,-252.602,100.741,-228.150,-225.370,-14.930
1020,37535.748000,224.062,-30.560,39.690,498.502,-245.219,92.100,-95.150,-321.370,-146.930
1021,37535.788000,244.023,-22.544,45.643,497.594,-240.583,89.277,-55.150,-377.370,-256.930
1022,37535.828000,267.977,-29.558,21.829,501.576,-233.095,84.574,166.850,-236.370,-261.930
1023,37535.848000,280.951,-53.605,28.775,506.445,-232.054,85.595,533.850,-85.370,-191.930
1024,37535.888000,303.906,-53.605,39.690,505.567,-226.262,90.672,60.850,-14.370,172.070
1025,37535.928000,268.975,-54.607,28.775,500.606,-234.631,98.300,404.850,376.630,346.070
1026,37535.968000,253.006,-43.585,28.775,490.875,-238.156,112.940,449.850,307.630,319.070
1027,37536.9000,239.033,-29.558,13.891,487.895,-244.449,126.530,477.850,252.630,316.070
1028,37536.49000,202.105,-8.517,15.876,485.977,-243.399,131.474,421.850,-11.370,153.070
1029,37536.88000,242.027,40.579,20.837,482.965,-250.112,129.315,313.850,-312.370,-3.930
