Sample, Time, ACCX, ACCY, ACCZ, MAGX, MAGY, MAGZ, GYRX, GYRY, GYRZ
0,37167.283000,238.311,-20.078,82.944,432.623,-288.564,103.666,3.220,122.400,143.940
1,37167.302000,238.311,-20.078,84.992,426.886,-293.181,105.548,15.220,46.400,125.940
2,37167.340000,239.294,-23.090,80.896,427.782,-296.833,105.472,15.220,28.400,126.940
3,37167.382000,236.345,-23.090,79.872,423.997,-296.883,105.465,14.220,35.400,131.940
4,37167.427000,242.242,-29.114,87.040,424.949,-296.812,108.452,5.220,70.400,128.940
5,37167.463000,239.294,-29.114,89.088,426.789,-300.471,107.382,-9.780,29.400,115.940
6,37167.503000,237.328,-29.114,82.944,423.058,-296.817,109.444,76.220,27.400,124.940
7,37167.522000,236.345,-26.102,81.920,421.997,-305.094,108.272,123.220,0.400,127.940
8,37167.562000,239.294,-24.094,76.800,417.336,-300.478,113.336,132.220,5.400,80.940
9,37167.603000,240.276,-20.078,68.608,419.213,-301.409,111.330,117.220,-10.600,17.940
10,37167.642000,248.138,-21.082,62.464,419.257,-298.582,115.369,96.220,-13.600,32.940
11,37167.680000,246.173,-39.153,64.512,418.227,-304.969,117.220,104.220,-16.600,17.940
12,37167.721000,249.121,-23.090,61.440,421.087,-303.138,115.274,180.220,-34.600,39.940
13,37167.768000,250.104,-20.078,61.440,421.171,-297.543,120.367,203.220,-19.600,63.940
14,37167.782000,243.225,-21.082,71.680,420.226,-297.536,121.360,184.220,-47.600,10.940
15,37167.822000,239.294,-19.075,64.512,423.095,-295.608,124.389,108.220,-48.600,-79.060
16,37167.863000,231.432,-34.133,67.584,423.990,-299.280,123.318,7.220,8.400,-130.060
17,37167.903000,233.397,-35.137,67.584,425.061,-290.106,123.515,-3.780,10.400,-110.060
18,37167.943000,230.449,-37.145,75.776,425.961,-293.719,125.428,-71.780,24.400,-98.060
19,37167.983000,237.328,-35.137,74.752,428.895,-286.411,122.604,-57.780,69.400,-71.060
20,37168.2000,249.121,-27.106,88.064,435.515,-286.362,120.626,-17.780,60.400,-72.060
21,37168.42000,260.914,-13.051,77.824,433.683,-282.606,126.671,-29.780,100.400,-102.060
22,37168.83000,235.363,-1.004,84.992,436.539,-281.594,129.681,35.220,6.400,-164.060
23,37168.128000,232.415,5.020,89.088,440.362,-278.795,129.746,14.220,94.400,-114.060
24,37168.163000,235.363,12.047,74.752,440.354,-279.653,132.711,88.220,69.400,-105.060
25,37168.203000,233.397,9.035,75.776,441.377,-274.124,133.825,-40.780,122.400,-123.060
26,37168.223000,242.242,3.012,83.968,445.254,-267.622,135.959,-78.780,132.400,-122.060
27,37168.263000,240.276,5.020,73.728,446.111,-274.042,134.829,-28.780,115.400,-59.060
28,37168.306000,237.328,3.012,73.728,446.130,-273.048,138.828,-27.780,168.400,-22.060
29,37168.345000,239.294,0.000,78.848,444.324,-267.439,145.908,25.220,247.400,33.940
30,37168.385000,234.380,6.024,81.920,440.463,-273.766,152.730,43.220,321.400,45.940
31,37168.425000,234.380,4.016,81.920,446.206,-269.071,154.827,65.220,272.400,26.940
32,37168.464000,248.138,0.000,82.944,442.432,-269.764,168.732,155.220,281.400,71.940
33,37168.485000,227.501,7.027,81.920,438.691,-266.987,172.764,136.220,282.400,68.940
34,37168.524000,238.311,7.027,96.256,434.912,-267.739,183.683,85.220,428.400,54.940
35,37168.561000,228.484,10.039,101.376,429.169,-273.193,189.527,44.220,383.400,27.940
36,37168.605000,231.432,2.008,113.664,428.255,-272.056,201.485,65.220,478.400,61.940
37,37168.645000,227.501,1.004,112.640,426.382,-271.846,213.423,190.220,352.400,-3.060
38,37168.685000,227.501,17.067,110.592,419.821,-268.113,221.449,190.220,369.400,-30.060
39,37168.704000,224.553,23.090,118.784,416.101,-264.323,230.476,154.220,339.400,-6.060
40,37168.745000,224.553,23.090,114.688,415.092,-269.696,237.323,66.220,282.400,-5.060
41,37168.783000,216.691,29.114,121.856,414.175,-267.818,240.345,45.220,235.400,-3.060
42,37168.823000,213.743,25.098,125.952,406.738,-258.659,245.503,19.220,174.400,16.940
43,37168.863000,211.777,21.082,126.976,408.534,-265.924,247.340,23.220,143.400,35.940
44,37168.903000,204.898,23.090,129.024,403.836,-264.056,252.346,17.220,128.400,70.940
45,37168.923000,203.916,19.075,134.144,400.020,-266.777,256.261,38.220,63.400,75.940
46,37168.963000,201.950,14.055,135.168,397.157,-268.627,257.212,12.220,25.400,64.940
47,37169.3000,235.363,11.043,145.408,399.023,-270.454,256.181,-22.780,43.400,45.940
48,37169.43000,230.449,3.012,137.216,394.328,-267.787,255.236,64.220,-66.600,50.940
49,37169.83000,219.639,-2.008,134.144,394.254,-273.265,256.114,77.220,-58.600,56.940
50,37169.123000,217.674,2.008,132.096,392.428,-268.670,258.199,114.220,-40.600,67.940
51,37169.171000,203.916,3.012,128.000,390.487,-271.560,252.166,7.220,-35.600,75.940
52,37169.185000,207.846,2.008,131.072,393.271,-276.025,256.054,-42.780,-16.600,60.940
53,37169.224000,210.795,1.004,133.120,392.237,-282.451,255.916,-106.780,-36.600,81.940
54,37169.273000,214.726,-5.020,135.168,386.626,-277.127,251.048,-113.780,-32.600,36.940
55,37169.308000,216.691,-10.039,132.096,383.771,-278.119,249.033,-103.780,-45.600,13.940
56,37169.347000,213.743,-10.039,132.096,390.315,-283.587,245.942,-162.780,-62.600,-27.060
57,37169.382000,209.812,-12.047,126.976,390.340,-281.755,245.981,-214.780,-48.600,-34.060
58,37169.417000,213.743,-19.075,136.192,388.371,-286.517,237.920,-192.780,-27.600,-9.060
59,37169.447000,216.691,-25.098,136.192,387.355,-291.967,240.786,-131.780,-31.600,0.940
60,37169.483000,210.795,-23.090,140.288,387.211,-302.123,236.592,-111.780,-19.600,-22.060
61,37169.523000,209.812,-31.122,138.240,389.229,-292.157,229.844,-109.780,-2.600,25.940
62,37169.565000,210.795,-27.106,138.240,386.372,-293.949,233.780,-81.780,18.400,-12.060
63,37169.614000,211.777,-31.122,137.216,387.301,-294.911,230.777,-80.780,46.400,0.940
64,37169.622000,215.708,-30.118,139.264,386.397,-292.117,233.819,-44.780,64.400,24.940
65,37169.662000,213.743,-28.110,135.168,386.358,-294.885,232.766,-18.780,19.400,0.940
66,37169.706000,210.795,-31.122,135.168,385.374,-297.645,232.706,-59.780,10.400,6.940
67,37169.742000,206.864,-36.141,133.120,380.691,-294.063,231.780,7.220,-12.600,37.940
68,37169.782000,203.916,-34.133,128.000,379.695,-297.740,231.701,79.220,-10.600,87.940
69,37169.826000,220.622,-28.110,136.192,377.795,-298.623,234.663,105.220,32.400,88.940
70,37169.866000,208.829,-17.067,125.952,381.571,-299.450,236.640,116.220,-67.600,32.940
71,37169.886000,219.639,-13.051,135.168,379.542,-309.533,237.417,145.220,-9.600,100.940
72,37169.926000,212.760,-2.008,123.904,375.857,-302.254,237.567,113.220,-70.600,77.940
73,37169.962000,208.829,-16.063,117.760,379.731,-295.771,238.705,3.220,-94.600,29.940
74,37170.6000,214.726,-22.086,118.784,378.693,-302.255,235.582,-38.780,-55.600,-4.060
75,37170.46000,212.760,-14.055,129.024,381.594,-297.637,235.684,18.220,-30.600,-19.060
76,37170.86000,223.570,-16.063,138.240,379.737,-294.933,234.744,68.220,-17.600,51.940
77,37170.106000,218.656,-12.047,133.120,383.513,-295.760,236.722,74.220,-25.600,13.940
78,37170.144000,224.553,-6.024,131.072,382.608,-292.985,238.768,-5.780,-16.600,-23.060
79,37170.191000,222.587,-5.020,124.928,384.511,-292.064,237.796,-34.780,-44.600,-42.060
80,37170.224000,224.553,-6.024,128.000,384.420,-298.516,235.670,-34.780,-60.600,-60.060
81,37170.266000,220.622,-10.039,124.928,391.141,-291.138,233.847,-13.780,-88.600,-86.060
82,37170.302000,217.674,-4.016,122.880,392.058,-293.016,230.825,16.220,-48.600,-88.060
83,37170.322000,215.708,-6.024,126.976,391.111,-293.029,230.823,43.220,-58.600,-59.060
84,37170.362000,219.639,-7.027,122.880,396.887,-285.644,229.994,60.220,-60.600,-53.060
85,37170.402000,219.639,-5.020,124.928,396.825,-290.225,229.897,12.220,-41.600,-76.060
86,37170.443000,214.726,-3.012,124.928,395.015,-283.896,227.045,6.220,-39.600,-54.060
87,37170.485000,218.656,-1.004,125.952,396.911,-283.832,229.038,-4.780,-36.600,-52.060
88,37170.532000,218.656,0.000,122.880,398.803,-283.806,229.041,12.220,-43.600,-23.060
89,37170.566000,221.605,-1.004,122.880,399.753,-283.755,231.033,15.220,-45.600,-19.060
90,37170.586000,220.622,0.000,126.976,400.630,-288.401,226.957,-7.780,-51.600,-13.060
91,37170.626000,219.639,-1.004,121.856,397.804,-287.523,226.972,11.220,-93.600,7.940
92,37170.666000,218.656,-2.008,121.856,401.668,-281.157,222.140,23.220,-67.600,30.940
93,37170.704000,219.639,-3.012,123.904,402.618,-281.106,224.131,5.220,-49.600,18.940
94,37170.744000,219.639,0.000,120.832,400.622,-288.499,221.982,-11.780,-74.600,19.940
95,37170.786000,220.622,-2.008,117.760,396.937,-281.220,222.131,-1.780,-92.600,33.940
96,37170.808000,220.622,-2.008,115.712,402.572,-283.952,219.098,-2.780,-92.600,42.940
97,37170.848000,222.587,-2.008,117.760,396.905,-283.130,218.112,-6.780,-78.600,48.940
98,37170.888000,224.553,-4.016,113.664,397.784,-287.757,215.031,-0.780,-55.600,39.940
99,37170.928000,225.536,-4.016,114.688,397.807,-285.944,214.075,11.220,-31.600,49.940
100,37170.967000,226.518,-2.008,117.760,396.787,-291.434,214.951,3.220,-39.600,25.940
101,37171.16000,224.553,-2.008,109.568,401.552,-288.681,212.033,-27.780,-21.600,8.940
102,37171.23000,224.553,-3.012,109.568,397.702,-293.332,210.934,-10.780,-22.600,9.940
103,37171.65000,226.518,-2.008,107.520,397.718,-292.376,212.943,-62.780,-14.600,-5.060
104,37171.104000,230.449,-4.016,111.616,399.671,-287.790,212.049,-78.780,4.400,-7.060
105,37171.145000,229.466,-3.012,115.712,399.641,-289.681,209.025,-107.780,-2.600,-30.060
106,37171.185000,226.518,-6.024,106.496,393.964,-289.756,209.015,-151.780,-16.600,-32.060
107,37171.224000,222.587,-14.055,110.592,397.719,-291.597,205.997,-202.780,7.400,-32.060
108,37171.265000,221.605,-22.086,112.640,399.616,-290.753,201.045,-208.780,-4.600,-28.060
109,37171.284000,219.639,-28.110,119.808,400.418,-300.896,196.852,-222.780,31.400,10.940
110,37171.325000,219.639,-33.129,116.736,400.444,-299.045,197.886,-172.780,74.400,36.940
111,37171.366000,218.656,-35.137,118.784,396.606,-302.798,195.811,-146.780,88.400,49.940
112,37171.406000,219.639,-33.129,119.808,393.797,-300.945,198.830,-132.780,101.400,12.940
113,37171.446000,222.587,-34.133,116.736,394.726,-301.907,195.827,-111.780,101.400,-7.060
114,37171.486000,229.466,-34.133,124.928,392.749,-308.306,197.677,-75.780,72.400,-26.060
115,37171.504000,224.553,-33.129,119.808,394.727,-301.888,196.822,-8.780,39.400,-29.060
116,37171.546000,222.587,-34.133,123.904,394.717,-302.784,197.798,9.220,47.400,-23.060
117,37171.587000,212.760,-27.106,120.832,391.893,-301.867,199.802,112.220,-19.600,-39.060
118,37171.633000,209.812,-25.098,119.808,395.727,-298.171,198.892,151.220,-39.600,-8.060
119,37171.671000,225.536,-24.094,119.808,395.746,-297.177,202.892,216.220,-46.600,27.940
120,37171.707000,235.363,-22.086,117.760,392.866,-300.782,207.784,243.220,-56.600,12.940
121,37171.727000,218.656,-6.024,112.640,395.794,-294.312,208.921,265.220,-82.600,-27.060
122,37171.767000,220.622,-1.004,113.664,397.736,-290.622,209.002,194.220,-49.600,-40.060
123,37171.807000,217.674,-2.008,112.640,400.543,-293.275,211.934,169.220,-82.600,-33.060
124,37171.846000,215.708,-4.016,109.568,402.419,-294.205,209.927,85.220,-74.600,-72.060
125,37171.896000,224.553,-2.008,113.664,404.405,-287.708,213.052,87.220,-40.600,-67.060
126,37171.927000,231.432,-5.020,118.784,402.625,-279.488,213.225,77.220,5.400,-31.060
127,37171.977000,229.466,-2.008,113.664,402.615,-280.365,215.195,94.220,3.400,-9.060
128,37171.986000,230.449,-2.008,115.712,403.558,-280.392,213.207,58.220,-1.600,-2.060
129,37172.29000,228.484,-2.008,114.688,408.306,-279.374,215.225,26.220,15.400,-17.060
130,37172.71000,225.536,0.000,117.760,407.436,-273.870,216.335,20.220,23.400,-24.060
131,37172.104000,222.587,1.004,112.640,406.329,-285.773,217.075,14.220,12.400,-20.060
132,37172.144000,223.570,-3.012,114.688,404.500,-281.198,218.164,-0.780,16.400,-16.060
133,37172.190000,221.605,-2.008,115.712,403.518,-283.939,219.099,-0.780,30.400,-12.060
134,37172.210000,226.518,-2.008,115.712,408.278,-282.005,221.137,18.220,31.400,11.940
135,37172.249000,224.553,-2.008,116.736,407.418,-275.624,220.277,47.220,29.400,14.940
136,37172.288000,224.553,-1.004,116.736,408.294,-281.050,223.146,64.220,50.400,12.940
137,37172.328000,225.536,0.000,117.760,405.574,-272.764,227.297,58.220,38.400,6.940
138,37172.365000,223.570,-1.004,119.808,405.535,-275.532,226.244,49.220,55.400,16.940
139,37172.404000,224.553,-1.004,121.856,405.563,-273.661,228.273,30.220,49.400,17.940
140,37172.424000,221.605,-2.008,115.712,400.755,-279.240,227.152,33.220,40.400,31.940
141,37172.467000,223.570,-4.016,117.760,398.907,-276.438,231.188,9.220,49.400,31.940
142,37172.506000,220.622,-4.016,116.736,399.750,-283.794,229.043,2.220,36.400,25.940
143,37172.548000,219.639,-6.024,118.784,400.701,-283.723,232.030,-11.780,31.400,7.940
144,37172.588000,218.656,-7.027,118.784,396.104,-273.747,230.246,-11.780,22.400,-3.060
145,37172.627000,218.656,-6.024,118.784,399.808,-280.032,234.096,-21.780,23.400,-19.060
146,37172.667000,220.622,-7.027,120.832,400.803,-276.374,233.181,-56.780,33.400,-40.060
147,37172.687000,217.674,-6.024,119.808,398.930,-274.626,230.232,-49.780,7.400,-53.060
148,37172.727000,222.587,-10.039,122.880,400.748,-280.097,230.118,-79.780,60.400,-47.060
149,37172.767000,227.501,-12.047,124.928,402.631,-280.950,232.092,-44.780,22.400,-43.060
150,37172.807000,220.622,-8.031,120.832,402.692,-276.388,231.194,-39.780,11.400,-50.060
151,37172.846000,219.639,-6.024,118.784,403.526,-284.621,231.020,-45.780,22.400,-66.060
152,37172.886000,219.639,-9.035,120.832,405.593,-271.770,231.297,-25.780,29.400,-45.060
153,37172.917000,220.622,-7.027,120.832,409.293,-278.114,232.162,-0.780,44.400,-43.060
154,37172.944000,220.622,-7.027,124.928,407.404,-278.100,234.149,2.220,69.400,-44.060
155,37172.985000,221.605,-9.035,124.928,404.679,-269.872,235.314,21.220,79.400,-34.060
156,37173.24000,219.639,-4.016,125.952,404.668,-270.769,236.290,6.220,94.400,-38.060
157,37173.68000,217.674,-3.012,125.952,401.825,-271.625,241.241,-0.780,102.400,-44.060
158,37173.108000,213.743,-3.012,126.976,407.519,-270.595,243.260,-4.780,95.400,-56.060
159,37173.138000,212.760,-3.012,132.096,402.823,-267.928,242.316,-8.780,91.400,-75.060
160,37173.166000,215.708,-3.012,130.048,404.699,-269.638,247.255,-6.780,104.400,-83.060
161,37173.211000,214.726,1.004,136.192,408.482,-269.608,246.267,-8.780,93.400,-103.060
162,37173.251000,214.726,3.012,135.168,410.407,-267.672,250.289,-3.780,67.400,-111.060
163,37173.286000,211.777,7.027,138.240,412.337,-264.899,250.351,-18.780,56.400,-124.060
164,37173.327000,208.829,8.031,137.216,407.629,-263.149,249.387,-24.780,16.400,-132.060
165,37173.368000,210.795,11.043,136.192,411.528,-254.834,250.564,-26.780,21.400,-137.060
166,37173.388000,210.795,12.047,138.240,412.423,-258.506,249.493,-37.780,16.400,-131.060
167,37173.428000,212.760,13.051,140.288,417.288,-248.405,247.726,-13.780,3.400,-125.060
168,37173.468000,211.777,13.051,134.144,417.258,-251.075,251.647,6.220,-16.600,-124.060
169,37173.508000,207.846,14.055,132.096,422.022,-248.323,248.729,5.220,-4.600,-119.060
170,37173.547000,211.777,17.067,134.144,420.182,-244.644,250.794,-8.780,18.400,-117.060
171,37173.588000,210.795,13.051,135.168,420.204,-242.851,248.843,-15.780,0.400,-112.060
172,37173.608000,213.743,9.035,137.216,423.120,-237.297,249.960,-7.780,31.400,-74.060
173,37173.653000,219.639,10.039,143.360,424.965,-240.897,251.875,-3.780,34.400,-65.060
174,37173.687000,209.812,13.051,138.240,420.243,-240.083,249.896,17.220,21.400,-63.060
175,37173.727000,212.760,14.055,136.192,426.001,-234.453,253.009,45.220,24.400,-52.060
176,37173.773000,210.795,14.055,133.120,428.893,-230.711,255.082,86.220,13.400,-49.060
177,37173.807000,217.674,20.078,139.264,426.053,-230.768,254.082,121.220,41.400,-43.060
178,37173.827000,216.691,21.082,138.240,428.029,-225.149,259.178,149.220,32.400,-29.060
179,37173.868000,209.812,25.098,133.120,427.046,-228.670,267.058,171.220,0.400,-33.060
180,37173.914000,204.898,29.114,134.144,426.078,-229.696,262.062,122.220,33.400,-52.060
181,37173.948000,208.829,36.141,142.336,429.047,-220.439,265.247,129.220,48.400,-76.060
182,37173.987000,202.933,35.137,142.336,431.916,-218.510,268.276,103.220,50.400,-88.060
183,37174.28000,212.760,36.141,140.288,428.211,-213.005,271.372,74.220,48.400,-93.060
184,37174.70000,210.795,40.157,139.264,431.091,-210.180,273.426,11.220,48.400,-119.060
185,37174.89000,209.812,41.161,139.264,430.155,-209.296,272.448,-101.780,19.400,-159.060
186,37174.128000,202.933,38.149,131.072,433.038,-205.672,268.551,-178.780,6.400,-173.060
187,37174.170000,197.036,37.145,132.096,437.744,-207.442,268.520,-258.780,3.400,-188.060
188,37174.208000,218.656,38.149,145.408,437.722,-208.475,262.531,-331.780,42.400,-192.060
189,37174.246000,214.726,27.106,134.144,441.584,-202.909,263.649,-327.780,-12.600,-163.060
190,37174.287000,218.656,15.059,136.192,439.631,-206.715,257.598,-286.780,56.400,-119.060
191,37174.318000,219.639,14.055,131.072,438.608,-212.244,256.484,-124.780,62.400,-59.060
192,37174.346000,213.743,8.031,131.072,437.740,-206.721,258.589,-45.780,96.400,-14.060
193,37174.386000,199.985,15.059,133.120,440.525,-211.167,263.472,74.220,24.400,-2.060
194,37174.429000,185.244,35.137,147.456,434.950,-203.873,265.608,59.220,96.400,-86.060
195,37174.472000,193.106,44.173,175.104,436.868,-202.016,265.651,29.220,99.400,-132.060
196,37174.510000,180.330,36.141,182.272,441.648,-198.309,264.742,13.220,40.400,-121.060
197,37174.538000,181.313,42.165,179.200,434.065,-199.325,264.709,-1.780,-13.600,-154.060
198,37174.574000,171.486,37.145,175.104,439.814,-193.792,262.846,36.220,-82.600,-53.060
199,37174.611000,198.019,38.149,181.248,440.723,-196.528,262.789,78.220,-93.600,32.940
200,37174.658000,199.985,38.149,168.960,444.480,-198.349,260.767,169.220,-246.600,102.940
201,37174.692000,199.985,41.161,148.480,443.613,-192.046,255.927,184.220,-360.600,132.940
202,37174.729000,199.002,35.137,149.504,450.135,-198.547,246.846,139.220,-380.600,128.940
203,37174.769000,194.088,37.145,147.456,452.000,-199.614,237.874,172.220,-412.600,163.940
204,37174.789000,197.036,39.153,140.288,454.802,-201.546,230.875,221.220,-441.600,192.940
205,37174.829000,203.916,47.184,138.240,452.905,-200.850,220.941,225.220,-396.600,230.940
206,37174.869000,203.916,42.165,132.096,454.821,-199.012,219.988,216.220,-391.600,258.940
207,37174.908000,200.967,40.157,126.976,457.538,-207.337,213.847,199.220,-315.600,281.940
208,37174.948000,198.019,38.149,114.688,451.781,-212.947,211.730,178.220,-276.600,331.940
209,37174.991000,197.036,36.141,114.688,452.694,-214.865,206.717,85.220,-144.600,412.940
210,37175.8000,177.382,37.145,112.640,444.917,-229.701,202.411,64.220,-209.600,426.940
211,37175.49000,203.916,33.129,103.424,442.025,-233.442,200.338,-44.780,-86.600,377.940
212,37175.93000,258.948,26.102,111.616,436.220,-242.698,199.138,-147.780,13.400,300.940
213,37175.132000,275.655,1.004,102.400,434.260,-247.362,196.052,-126.780,3.400,307.940
214,37175.167000,285.482,-31.122,116.736,424.774,-249.300,196.991,-184.780,112.400,369.940
215,37175.207000,282.534,-32.125,108.544,417.061,-259.536,193.778,-114.780,126.400,334.940
216,37175.227000,293.344,-25.098,111.616,412.261,-265.017,197.633,-56.780,142.400,325.940
217,37175.267000,264.845,-33.129,98.304,406.510,-270.569,198.501,-95.780,77.400,327.940
218,37175.307000,232.415,-31.122,79.872,405.503,-275.143,199.397,-76.780,-1.600,295.940
219,37175.347000,209.812,-14.055,64.512,397.820,-282.709,192.262,-84.780,-8.600,182.940
220,37175.396000,212.760,-27.106,68.608,400.646,-284.367,199.193,-115.780,14.400,154.940
221,37175.431000,218.656,-34.133,65.536,396.848,-284.573,191.226,-129.780,-86.600,119.940
222,37175.473000,239.294,-41.161,65.536,391.043,-293.829,190.026,-130.780,35.400,149.940
223,37175.487000,231.432,-49.192,74.752,389.058,-300.325,186.901,-113.780,-25.600,154.940
224,37175.527000,239.294,-50.196,70.656,388.076,-303.067,187.836,-26.780,29.400,161.940
225,37175.567000,237.328,-42.165,68.608,384.402,-295.651,194.950,41.220,51.400,109.940
226,37175.608000,234.380,-40.157,69.632,384.269,-304.910,189.780,80.220,16.400,64.940
227,37175.648000,241.259,-41.161,66.560,386.215,-301.182,191.851,66.220,20.400,-2.060
228,37175.688000,242.242,-40.157,68.608,384.374,-297.522,192.921,32.220,17.400,-52.060
229,37175.708000,246.173,-38.149,72.704,388.173,-296.537,193.942,-2.780,33.400,-89.060
230,37175.747000,236.345,-34.133,68.608,386.241,-299.330,192.886,10.220,-74.600,-170.060
231,37175.819000,232.415,-29.114,59.392,393.878,-294.610,194.987,-24.780,-34.600,-234.060
232,37175.871000,235.363,-32.125,70.656,398.692,-288.193,192.146,-62.780,-13.600,-273.060
233,37175.888000,234.380,-39.153,73.728,402.485,-287.286,189.187,-26.780,-84.600,-273.060
234,37175.908000,234.380,-35.137,79.872,406.354,-280.862,187.341,-63.780,-83.600,-282.060
235,37175.953000,281.551,-32.125,106.496,410.128,-281.708,188.323,18.220,7.400,-185.060
236,37175.973000,271.724,-19.075,117.760,415.919,-273.388,188.508,91.220,-72.600,-213.060
237,37176.11000,260.914,-21.082,131.072,415.865,-277.092,186.440,41.220,-14.600,-120.060
238,37176.49000,244.207,-18.071,126.976,421.661,-268.713,189.611,84.220,55.400,-32.060
239,37176.89000,201.950,-13.051,113.664,420.744,-266.835,192.634,203.220,-20.600,24.940
240,37176.129000,183.278,-6.024,102.400,424.511,-268.539,196.581,288.220,-9.600,25.940
241,37176.169000,205.881,7.027,119.808,421.636,-272.085,204.459,382.220,121.400,10.940
242,37176.189000,205.881,20.078,115.712,419.805,-268.308,211.499,433.220,1.400,-63.060
243,37176.229000,219.639,30.118,119.808,421.861,-257.134,219.697,368.220,102.400,-93.060
244,37176.269000,225.536,36.141,128.000,423.810,-253.366,223.758,313.220,142.400,-126.060
245,37176.309000,221.605,36.141,119.808,423.845,-251.417,229.768,294.220,45.400,-120.060
246,37176.349000,214.726,34.133,120.832,423.972,-242.236,230.958,199.220,64.400,-71.060
247,37176.389000,209.812,31.122,117.760,422.973,-246.712,236.829,161.220,94.400,-18.060
248,37176.409000,208.829,36.141,124.928,420.156,-245.716,242.814,177.220,106.400,37.940
249,37176.459000,208.829,36.141,128.000,421.175,-241.006,248.884,147.220,107.400,47.940
250,37176.492000,210.795,45.176,128.000,417.354,-243.785,249.813,125.220,99.400,55.940
251,37176.532000,210.795,45.176,132.096,416.452,-240.971,253.850,63.220,104.400,57.940
252,37176.568000,204.898,46.180,128.000,414.524,-243.725,254.784,-30.780,58.400,38.940
253,37176.608000,201.950,41.161,131.072,407.849,-247.477,254.694,-102.780,73.400,49.940
254,37176.654000,209.812,34.133,125.952,412.542,-250.182,253.649,-170.780,-4.600,136.940
255,37176.674000,220.622,24.094,135.168,406.739,-259.419,253.444,-218.780,-2.600,149.940
256,37176.714000,251.086,20.078,136.192,399.096,-264.216,247.362,-232.780,-64.600,217.940
257,37176.758000,238.311,1.004,125.952,398.096,-267.932,245.292,-223.780,-132.600,256.940
258,37176.792000,217.674,-9.035,114.688,397.936,-279.043,239.088,-267.780,-129.600,270.940
259,37176.834000,219.639,-15.059,119.808,391.152,-290.241,232.872,-268.780,-120.600,271.940
260,37176.868000,199.002,-19.075,116.736,390.132,-294.971,225.807,-270.780,-164.600,263.940
261,37176.889000,205.881,-33.129,118.784,382.337,-310.782,218.497,-276.780,-100.600,320.940
262,37176.937000,220.622,-43.169,119.808,380.275,-322.795,214.259,-261.780,-70.600,273.940
263,37176.968000,232.415,-54.212,121.856,373.619,-324.793,210.228,-237.780,-62.600,277.940
264,37177.8000,221.605,-64.251,112.640,370.692,-330.483,202.146,-233.780,-59.600,268.940
265,37177.52000,222.587,-64.251,109.568,369.753,-329.638,199.179,-253.780,-34.600,223.940
266,37177.96000,217.674,-61.239,106.496,367.638,-345.354,192.873,-169.780,-86.600,176.940
267,37177.112000,213.743,-60.235,101.376,361.943,-346.404,189.858,-72.780,-61.600,95.940
268,37177.151000,205.881,-55.216,103.424,360.982,-347.352,188.842,-4.780,-64.600,56.940
269,37177.189000,238.311,-57.224,110.592,357.297,-340.073,188.992,49.220,17.400,60.940
270,37177.252000,224.553,-46.180,99.328,357.288,-340.950,190.962,126.220,-69.600,52.940
271,37177.269000,233.397,-38.149,93.184,359.200,-339.931,194.965,104.220,26.400,5.940
272,37177.309000,251.086,-35.137,101.376,355.257,-351.832,197.690,26.220,99.400,23.940
273,37177.357000,242.242,-28.110,95.232,354.371,-347.284,196.791,-42.780,89.400,37.940
274,37177.371000,224.553,-33.129,83.968,353.477,-343.612,197.862,-127.780,71.400,73.940
275,37177.411000,213.743,-41.161,83.968,348.587,-354.766,192.645,-198.780,81.400,110.940
276,37177.451000,208.829,-55.216,94.208,344.828,-352.964,193.672,-238.780,151.400,171.940
277,37177.489000,217.674,-63.247,101.376,338.051,-364.084,191.436,-165.780,207.400,297.940
278,37177.536000,205.881,-68.267,111.616,335.176,-366.851,192.368,-159.780,194.400,275.940
279,37177.577000,204.898,-70.275,118.784,322.867,-367.871,195.312,-116.780,260.400,257.940
280,37177.591000,203.916,-77.302,136.192,316.176,-373.357,200.158,-65.780,298.400,177.940
281,37177.629000,196.054,-81.318,144.384,311.413,-376.090,204.071,-55.780,322.400,97.940
282,37177.669000,192.123,-75.294,146.432,304.769,-377.951,207.006,30.220,312.400,20.940
283,37177.709000,192.123,-77.302,147.456,307.666,-374.152,212.064,35.220,307.400,-32.060
284,37177.749000,185.244,-76.298,158.720,306.643,-380.460,217.896,70.220,275.400,-60.060
285,37177.793000,178.365,-76.298,162.816,304.905,-369.433,221.112,86.220,213.400,-57.060
286,37177.813000,184.261,-77.302,165.888,305.849,-370.220,227.065,92.220,179.400,-117.060
287,37177.853000,170.503,-68.267,169.984,310.648,-365.518,230.156,72.220,100.400,-175.060
288,37177.896000,181.313,-74.290,176.128,309.777,-360.033,230.271,3.220,66.400,-200.060
289,37177.936000,189.175,-97.380,178.176,317.347,-359.933,230.285,6.220,33.400,-176.060
290,37177.969000,192.123,-86.337,182.272,320.300,-351.631,231.460,102.220,-9.600,-208.060
291,37178.16000,198.019,-72.282,173.056,329.846,-345.152,228.628,45.220,-71.600,-246.060
292,37178.56000,185.244,-63.247,171.008,337.468,-341.368,229.715,36.220,-137.600,-340.060
293,37178.76000,193.106,-51.200,161.792,341.376,-332.176,228.922,-10.780,-168.600,-458.060
294,37178.111000,201.950,-34.133,149.504,356.636,-322.893,225.163,-5.780,-210.600,-502.060
295,37178.151000,205.881,-25.098,141.312,367.953,-324.731,217.184,-25.780,-240.600,-512.060
296,37178.191000,209.812,-19.075,136.192,381.488,-302.725,209.715,-67.780,-235.600,-507.060
297,37178.231000,234.380,-19.075,125.952,392.961,-293.511,204.955,-20.780,-216.600,-492.060
298,37178.271000,236.345,-1.004,108.544,401.676,-278.760,204.287,40.220,-239.600,-468.060
299,37178.296000,234.380,13.051,97.280,408.401,-270.564,197.509,32.220,-244.600,-467.060
300,37178.329000,245.190,22.086,84.992,417.916,-265.975,191.653,2.220,-263.600,-442.060
301,37178.382000,250.104,24.094,76.800,423.795,-250.463,185.029,24.220,-316.600,-443.060
302,37178.412000,242.242,24.094,71.680,434.319,-241.281,179.273,41.220,-321.600,-365.060
303,37178.458000,256.983,24.094,72.704,439.123,-235.761,177.408,50.220,-271.600,-301.060
304,37178.498000,247.155,26.102,66.560,445.760,-233.978,170.493,46.220,-302.600,-229.060
305,37178.539000,244.207,25.098,59.392,452.462,-227.594,164.671,35.220,-265.600,-146.060
306,37178.552000,244.207,31.122,48.128,458.144,-226.701,159.725,39.220,-266.600,-124.060
307,37178.598000,240.276,33.129,36.864,462.055,-216.710,152.981,77.220,-264.600,-104.060
308,37178.631000,240.276,35.137,33.792,463.871,-222.201,151.872,53.220,-193.600,-94.060
309,37178.673000,248.138,37.145,39.936,463.855,-223.156,149.863,-20.780,-93.600,-85.060
310,37178.716000,242.242,45.176,46.080,464.025,-210.389,147.151,-26.780,-112.600,-73.060
311,37178.756000,243.225,41.161,47.104,466.834,-212.242,144.132,-47.780,-45.600,-18.060
312,37178.774000,235.363,45.176,47.104,463.918,-217.796,143.015,-20.780,-74.600,4.940
313,37178.814000,235.363,40.157,48.128,462.980,-216.951,140.047,-16.780,-66.600,38.940
314,37178.854000,235.363,45.176,51.200,463.910,-217.894,138.039,-77.780,-29.600,34.940
315,37178.894000,234.380,46.180,67.584,462.912,-221.590,136.964,-58.780,-84.600,94.940
316,37178.934000,268.775,36.141,70.656,462.894,-223.344,140.906,-21.780,31.400,178.940
317,37178.971000,258.948,23.090,78.848,457.072,-233.575,136.701,-106.780,-55.600,239.940
318,37178.998000,254.035,12.047,82.944,453.215,-239.083,138.567,-2.780,-47.600,376.940
319,37179.32000,249.121,7.027,94.208,447.432,-246.545,135.416,-48.780,-61.600,416.940
320,37179.72000,255.017,-1.004,99.328,441.620,-256.659,137.181,8.220,-12.600,401.940
321,37179.111000,248.138,-5.020,102.400,435.778,-268.663,135.923,51.220,-53.600,318.940
322,37179.153000,225.536,-11.043,98.304,432.791,-279.675,136.678,120.220,-28.600,207.940
323,37179.193000,225.536,-14.055,96.256,429.070,-275.124,137.764,64.220,52.400,108.940
324,37179.213000,226.518,-25.098,103.424,428.047,-280.653,136.651,-22.780,51.400,57.940
325,37179.253000,210.795,-31.122,103.424,429.039,-277.795,141.686,-115.780,20.400,-2.060
326,37179.298000,206.864,-39.153,93.184,424.229,-283.393,139.570,-150.780,66.400,49.940
327,37179.346000,232.415,-45.176,105.472,424.090,-293.490,138.361,-136.780,129.400,51.940
328,37179.373000,233.397,-47.184,103.424,423.979,-301.716,139.180,-119.780,111.400,100.940
329,37179.413000,235.363,-45.176,103.424,418.395,-295.300,143.287,-97.780,130.400,93.940
330,37179.453000,231.432,-47.184,102.400,418.318,-300.816,142.175,-90.780,110.400,53.940
331,37179.472000,226.518,-46.180,99.328,418.318,-300.816,142.175,-128.780,145.400,12.940
332,37179.512000,224.553,-40.157,103.424,415.520,-298.066,144.219,-114.780,126.400,-57.060
333,37179.552000,219.639,-41.161,93.184,420.255,-297.965,146.217,-71.780,112.400,-78.060
334,37179.592000,228.484,-41.161,98.304,415.555,-296.117,150.228,-82.780,106.400,-133.060
335,37179.631000,219.639,-42.165,94.208,421.219,-296.978,149.223,-39.780,103.400,-143.060
336,37179.678000,216.691,-48.188,97.280,420.351,-291.454,151.329,2.220,112.400,-139.060
337,37179.697000,210.795,-47.184,94.208,422.247,-291.390,153.322,73.220,90.400,-131.060
338,37179.737000,222.587,-52.204,105.472,426.155,-282.978,159.475,167.220,153.400,-76.060
339,37179.773000,220.622,-49.192,109.568,425.143,-288.370,165.326,242.220,147.400,-64.060
340,37179.813000,249.121,-39.153,126.976,425.227,-282.776,170.419,299.220,121.400,-39.060
341,37179.853000,243.225,-7.027,121.856,427.290,-270.743,175.651,312.220,34.400,-148.060
342,37179.897000,217.674,9.035,108.544,431.087,-270.557,182.623,326.220,23.400,-209.060
343,37179.917000,225.536,24.094,116.736,436.959,-256.662,186.906,350.220,113.400,-290.060
344,37179.957000,220.622,31.122,119.808,438.954,-250.048,196.002,340.220,100.400,-274.060
345,37179.997000,226.518,33.129,117.760,442.843,-242.630,198.155,278.220,37.400,-227.060
346,37180.43000,234.380,33.129,116.736,441.928,-240.732,202.172,165.220,111.400,-210.060
347,37180.79000,224.553,25.098,113.664,442.994,-232.396,206.330,100.220,111.400,-213.060
348,37180.113000,213.743,31.122,113.664,445.864,-230.449,210.354,-25.780,113.400,-215.060
349,37180.156000,202.933,35.137,108.544,444.990,-225.003,208.479,-61.780,100.400,-204.060
350,37180.172000,209.812,32.125,112.640,450.728,-221.147,214.538,-108.780,121.400,-201.060
351,37180.212000,209.812,25.098,117.760,453.613,-217.484,212.631,-100.780,113.400,-162.060
352,37180.252000,216.691,33.129,118.784,450.728,-221.147,214.538,-112.780,119.400,-110.060
353,37180.292000,223.570,28.110,128.000,450.717,-222.043,215.513,-132.780,110.400,-104.060
354,37180.333000,225.536,21.082,123.904,452.656,-218.393,213.604,-110.780,39.400,-52.060
355,37180.381000,225.536,30.118,147.456,455.575,-212.800,216.712,-111.780,124.400,-100.060
356,37180.394000,208.829,25.098,148.480,456.512,-213.664,218.684,-27.780,74.400,-64.060
357,37180.438000,201.950,26.102,147.456,451.723,-218.249,221.563,55.220,86.400,-55.060
358,37180.474000,200.967,34.133,148.480,456.594,-208.090,222.781,52.220,76.400,-54.060
359,37180.513000,199.985,37.145,147.456,454.689,-209.031,222.758,83.220,17.400,-35.060
360,37180.552000,200.967,43.169,145.408,456.590,-208.129,220.791,32.220,11.400,-75.060
361,37180.596000,199.985,42.165,148.480,457.631,-201.625,224.910,8.220,-13.600,-59.060
362,37180.614000,197.036,37.145,140.288,458.486,-208.065,222.785,-10.780,-90.600,-18.060
363,37180.656000,196.054,37.145,139.264,458.576,-200.853,216.970,-7.780,-106.600,5.940
364,37180.696000,204.898,40.157,140.288,458.478,-208.162,217.809,12.220,-94.600,68.940
365,37180.736000,211.777,40.157,141.312,455.620,-209.194,213.805,25.220,-127.600,90.940
366,37180.779000,204.898,43.169,132.096,452.839,-204.709,210.912,25.220,-166.600,96.940
367,37180.818000,206.864,43.169,130.048,457.556,-205.582,209.906,22.220,-112.600,104.940
368,37180.852000,197.036,34.133,134.144,452.744,-211.200,206.795,6.220,-124.600,173.940
369,37180.872000,184.261,32.125,126.976,451.761,-213.182,199.789,-0.780,-153.600,209.940
370,37180.918000,198.019,33.129,126.976,449.817,-216.891,198.713,-24.780,-116.600,201.940
371,37180.958000,218.656,37.145,133.120,442.127,-225.314,194.543,-73.780,-39.600,219.940
372,37180.999000,235.363,22.086,135.168,444.054,-222.580,192.615,-87.780,-45.600,300.940
373,37181.33000,239.294,11.043,115.712,440.091,-235.495,190.345,-70.780,-104.600,309.940
374,37181.73000,252.069,1.004,114.688,435.295,-240.157,189.244,-63.780,-70.600,320.940
375,37181.93000,257.965,-3.012,118.784,430.551,-241.136,189.216,-10.780,-48.600,364.940
376,37181.139000,270.741,-15.059,115.712,426.551,-256.780,187.883,67.220,-42.600,370.940
377,37181.176000,247.155,-17.067,102.400,418.998,-255.905,190.874,95.220,-75.600,350.940
378,37181.216000,233.397,-15.059,84.992,412.291,-261.587,185.770,29.220,-61.600,312.940
379,37181.254000,231.432,-13.051,81.920,410.281,-269.916,182.606,24.220,-80.600,326.940
380,37181.296000,236.345,-15.059,74.752,407.395,-273.579,184.513,7.220,-118.600,315.940
381,37181.316000,240.276,-23.090,78.848,405.469,-275.533,179.495,-117.780,-100.600,261.940
382,37181.356000,244.207,-33.129,78.848,406.246,-287.509,175.263,-142.780,-114.600,290.940
383,37181.404000,244.207,-34.133,75.776,401.485,-289.462,172.231,-94.780,-129.600,263.940
384,37181.436000,232.415,-37.145,61.440,394.731,-298.769,169.039,-69.780,-178.600,221.940
385,37181.476000,230.449,-36.141,56.320,393.694,-305.234,166.910,-3.780,-128.600,158.940
386,37181.516000,239.294,-40.157,67.584,392.847,-297.917,167.065,-27.780,-51.600,142.940
387,37181.561000,237.328,-46.180,68.608,388.039,-303.496,165.944,-53.780,-58.600,154.940
388,37181.576000,233.397,-47.184,70.656,388.007,-305.407,161.925,-75.780,-35.600,167.940
389,37181.617000,228.484,-46.180,67.584,386.027,-311.844,161.785,-49.780,-25.600,164.940
390,37181.658000,227.501,-52.204,67.584,385.028,-315.561,159.715,-28.780,-14.600,128.940
391,37181.694000,232.415,-53.208,66.560,381.192,-319.275,159.631,-7.780,17.400,52.940
392,37181.737000,240.276,-57.224,73.728,381.255,-314.694,159.728,32.220,51.400,41.940
393,37181.774000,242.242,-54.212,74.752,380.239,-320.145,162.595,21.220,48.400,25.940
394,37181.794000,242.242,-52.204,75.776,380.344,-312.758,165.736,48.220,62.400,-4.060
395,37181.834000,240.276,-52.204,70.656,381.213,-318.261,164.625,49.220,60.400,-51.060
396,37181.874000,233.397,-50.196,68.608,379.347,-316.435,165.656,68.220,40.400,-62.060
397,37181.914000,239.294,-39.153,71.680,380.379,-310.808,171.745,73.220,33.400,-134.060
398,37181.959000,238.311,-47.184,77.824,384.185,-308.965,169.801,35.220,32.400,-146.060
399,37181.996000,247.155,-47.184,83.968,386.092,-308.004,170.819,40.220,41.400,-134.060
400,37182.21000,252.069,-45.176,86.016,387.985,-307.979,170.822,32.220,65.400,-146.060
401,37182.61000,257.965,-39.153,91.136,391.766,-308.748,175.784,53.220,26.400,-153.060
402,37182.94000,243.225,-40.157,96.256,389.925,-305.089,176.854,8.220,58.400,-151.060
403,37182.137000,231.432,-42.165,101.376,397.595,-297.660,177.024,34.220,77.400,-108.060
404,37182.186000,223.570,-35.137,103.424,399.459,-300.286,181.944,104.220,57.400,-83.060
405,37182.221000,226.518,-25.098,109.568,401.430,-294.725,184.054,168.220,63.400,-85.060
406,37182.256000,213.743,-23.090,104.448,404.295,-292.835,185.093,214.220,-88.600,-112.060
407,37182.276000,206.864,-5.020,107.520,407.168,-290.868,190.113,201.220,-62.600,-133.060
408,37182.316000,221.605,0.000,114.688,408.189,-285.359,190.231,247.220,-23.600,-138.060
409,37182.356000,229.466,3.012,115.712,412.048,-280.591,197.301,255.220,-47.600,-141.060
410,37182.399000,236.345,8.031,111.616,414.952,-275.954,198.399,227.220,1.400,-128.060
411,37182.434000,232.415,24.094,119.808,412.168,-272.268,201.457,208.220,33.400,-171.060
412,37182.481000,227.501,20.078,114.688,415.032,-270.398,201.501,178.220,39.400,-127.060
413,37182.499000,219.639,18.071,112.640,418.818,-271.108,209.449,174.220,49.400,-115.060
414,37182.534000,213.743,23.090,111.616,420.803,-264.612,212.574,186.220,62.400,-85.060
415,37182.581000,214.726,28.110,111.616,422.665,-267.257,216.499,131.220,81.400,-15.060
416,37182.628000,209.812,30.118,123.904,419.854,-265.423,218.523,50.220,105.400,-24.060
417,37182.659000,206.864,33.129,125.952,413.272,-262.704,221.555,-12.780,121.400,-7.060
418,37182.696000,208.829,35.137,131.072,415.152,-263.595,221.539,-85.780,147.400,-37.060
419,37182.716000,208.829,35.137,135.168,410.432,-263.521,228.496,-169.780,141.400,-62.060
420,37182.757000,214.726,33.129,141.312,413.265,-263.562,224.521,-268.780,87.400,-32.060
421,37182.797000,221.605,31.122,141.312,411.242,-272.806,221.337,-333.780,52.400,5.940
422,37182.836000,226.518,21.082,139.264,408.311,-279.315,218.210,-398.780,-3.600,13.940
423,37182.876000,231.432,1.004,123.904,406.392,-280.413,210.227,-452.780,-60.600,91.940
424,37182.916000,216.691,-14.055,118.784,405.258,-293.407,201.991,-495.780,-125.600,148.940
425,37182.956000,198.019,-27.106,108.544,401.426,-295.543,189.010,-481.780,-127.600,160.940
426,37182.982000,215.708,-39.153,107.520,397.440,-309.491,180.750,-317.780,-169.600,236.940
427,37183.16000,245.190,-50.196,113.664,397.370,-314.150,176.672,-275.780,-93.600,285.940
428,37183.56000,232.415,-56.220,112.640,391.620,-318.923,170.594,-245.780,-112.600,298.940
429,37183.97000,233.397,-56.220,115.712,386.768,-327.328,165.435,-252.780,-57.600,315.940
430,37183.136000,213.743,-55.216,96.256,378.118,-336.700,160.250,-171.780,-106.600,323.940
431,37183.176000,207.846,-58.227,94.208,377.091,-342.267,157.146,-60.780,-44.600,313.940
432,37183.198000,203.916,-59.231,93.184,376.117,-344.151,155.115,17.220,-57.600,304.940
433,37183.241000,206.864,-64.251,91.136,364.728,-346.991,158.022,194.220,-45.600,170.940
434,37183.274000,247.155,-50.196,110.592,366.611,-348.623,166.941,247.220,60.400,137.940
435,37183.318000,245.190,-50.196,103.424,359.917,-354.148,169.798,310.220,15.400,160.940
436,37183.358000,243.225,-40.157,105.472,356.231,-347.649,176.893,161.220,147.400,170.940
437,37183.398000,234.380,-35.137,100.352,352.411,-350.408,178.818,72.220,142.400,116.940
438,37183.418000,224.553,-41.161,95.232,346.599,-360.522,180.584,-150.780,210.400,185.940
439,37183.457000,211.777,-51.200,93.184,340.956,-357.887,178.642,-172.780,245.400,215.940
440,37183.499000,209.812,-65.255,105.472,332.347,-365.231,183.446,-189.780,328.400,258.940
441,37183.536000,213.743,-70.275,124.928,318.979,-374.509,186.213,-181.780,503.400,368.940
442,37183.589000,202.933,-94.369,128.000,310.460,-375.421,192.149,-21.780,612.400,459.940
443,37183.617000,191.140,-89.349,134.144,299.973,-381.854,197.964,-292.780,706.400,362.940
444,37183.664000,189.175,-81.318,128.000,277.138,-392.836,213.611,-55.780,965.400,403.940
445,37183.678000,186.226,-72.282,129.024,262.952,-393.685,226.502,194.220,897.400,335.940
446,37183.717000,164.607,-93.365,156.672,244.913,-400.004,243.250,79.220,927.400,292.940
447,37183.758000,152.814,-80.314,166.912,233.524,-403.624,253.102,124.220,915.400,246.940
448,37183.798000,143.969,-98.384,186.368,220.385,-397.132,266.151,148.220,801.400,183.940
449,37183.838000,141.021,-99.388,186.368,206.193,-398.060,275.062,205.220,728.400,62.940
450,37183.877000,122.349,-91.357,195.584,201.547,-393.268,289.082,244.220,578.400,-66.060
451,37183.898000,129.228,-101.396,204.800,199.655,-394.053,297.020,142.220,483.400,-130.060
452,37183.937000,124.315,-93.365,217.088,198.746,-392.097,304.023,245.220,325.400,-252.060
453,37183.977000,126.280,-99.388,218.112,198.918,-380.070,310.247,162.220,221.400,-277.060
454,37184.17000,139.056,-105.412,232.448,204.724,-370.795,312.442,180.220,166.400,-267.060
455,37184.57000,136.107,-96.376,226.304,207.625,-366.956,319.490,255.220,57.400,-317.060
456,37184.97000,120.384,-81.318,216.064,221.002,-357.581,321.699,218.220,-40.600,-408.060
457,37184.117000,112.522,-65.255,224.256,230.534,-352.797,325.793,130.220,-132.600,-537.060
458,37184.157000,114.488,-58.227,219.136,243.947,-340.693,327.065,132.220,-247.600,-567.060
459,37184.202000,125.298,-55.216,207.872,260.091,-335.958,324.206,110.220,-329.600,-559.060
460,37184.237000,190.157,-49.192,224.256,276.169,-335.863,318.264,50.220,-258.600,-506.060
461,37184.277000,214.726,-36.141,232.448,290.667,-313.649,320.748,175.220,-242.600,-511.060
462,37184.317000,159.693,-2.008,183.296,305.868,-308.128,311.936,46.220,-412.600,-455.060
463,37184.357000,183.278,0.000,174.080,317.332,-299.772,310.141,-21.780,-410.600,-411.060
464,37184.377000,199.985,1.004,149.504,327.918,-286.029,303.487,-98.780,-455.600,-332.060
465,37184.418000,208.829,1.004,136.192,342.092,-286.075,291.571,1.220,-454.600,-285.060
466,37184.458000,218.656,5.020,137.216,350.715,-277.796,287.782,30.220,-377.600,-254.060
467,37184.497000,220.622,8.031,136.192,360.271,-270.420,283.974,105.220,-307.600,-191.060
468,37184.536000,215.708,8.031,130.048,365.020,-268.623,279.046,111.220,-234.600,-129.060
469,37184.582000,209.812,10.039,130.048,367.907,-264.940,278.134,123.220,-235.600,-77.060
470,37184.599000,205.881,10.039,129.024,373.571,-265.801,277.130,122.220,-224.600,-107.060
471,37184.638000,209.812,17.067,131.072,378.345,-262.152,273.236,188.220,-304.600,-163.060
472,37184.686000,220.622,21.082,128.000,389.851,-251.008,273.490,224.220,-355.600,-209.060
473,37184.726000,217.674,24.094,114.688,394.687,-242.798,268.699,260.220,-427.600,-268.060
474,37184.759000,222.587,32.125,114.688,403.253,-238.261,260.851,256.220,-430.600,-249.060
475,37184.803000,224.553,29.114,114.688,409.103,-224.620,252.198,286.220,-432.600,-227.060
476,37184.817000,216.691,40.157,107.520,417.693,-219.030,251.335,238.220,-443.600,-180.060
477,37184.857000,219.639,37.145,100.352,421.506,-216.348,245.430,188.220,-409.600,-103.060
478,37184.899000,220.622,37.145,102.400,429.031,-219.094,240.410,143.220,-332.600,9.940
479,37184.943000,218.656,42.165,103.424,432.847,-216.374,236.495,124.220,-323.600,47.940
480,37184.977000,224.553,45.176,102.400,431.831,-221.045,232.415,56.220,-308.600,70.940
481,37185.22000,226.518,49.192,106.496,434.707,-217.499,224.538,-17.780,-286.600,64.940
482,37185.58000,248.138,43.169,107.520,435.507,-227.662,219.350,-78.780,-221.600,63.940
483,37185.78000,263.862,35.137,114.688,436.460,-226.811,215.391,-154.780,-184.600,96.940
484,37185.117000,240.276,21.082,107.520,434.418,-237.050,208.207,-84.780,-252.600,150.940
485,37185.159000,236.345,15.059,120.832,437.163,-243.504,204.095,-112.780,-176.600,197.940
486,37185.198000,228.484,20.078,114.688,433.433,-239.051,200.206,-74.780,-216.600,148.940
487,37185.239000,227.501,13.051,112.640,435.180,-249.201,195.019,-53.780,-184.600,96.940
488,37185.279000,223.570,11.043,124.928,432.333,-249.337,190.039,-105.780,-111.600,57.940
489,37185.299000,227.501,0.000,125.952,430.392,-253.007,190.953,-149.780,-95.600,36.940
490,37185.339000,207.846,-6.024,119.808,429.410,-254.968,184.942,-204.780,-122.600,-29.060
491,37185.378000,209.812,-18.071,114.688,428.345,-263.304,180.784,-261.780,-97.600,32.940
492,37185.418000,210.795,-21.082,110.592,431.096,-268.920,172.712,-301.780,-80.600,35.940
493,37185.458000,216.691,-35.137,112.640,429.045,-280.036,167.499,-337.780,-46.600,66.940
494,37185.498000,224.553,-46.180,115.712,424.297,-281.053,165.481,-356.780,-11.600,76.940
495,37185.538000,227.501,-48.188,120.832,425.282,-277.513,158.595,-320.780,-3.600,93.940
496,37185.562000,223.570,-50.196,114.688,422.302,-287.667,156.385,-223.780,19.400,104.940
497,37185.597000,213.743,-39.153,106.496,422.344,-284.100,151.488,-148.780,-0.600,34.940
498,37185.643000,209.812,-36.141,103.424,424.157,-290.390,156.330,-84.780,31.400,20.940
499,37185.681000,223.570,-35.137,113.664,424.145,-291.307,156.311,-0.780,51.400,-46.060
500,37185.719000,222.587,-35.137,112.640,421.384,-285.808,158.413,28.220,59.400,-58.060
501,37185.758000,218.656,-43.169,118.784,422.345,-284.860,159.429,27.220,108.400,-34.060
502,37185.779000,215.708,-48.188,130.048,420.312,-295.762,165.162,72.220,185.400,-5.060
503,37185.821000,205.881,-54.212,112.640,422.369,-283.807,166.414,256.220,86.400,-14.060
504,37185.858000,203.916,-61.239,113.664,425.171,-287.278,174.301,285.220,158.400,-22.060
505,37185.899000,230.449,-42.165,120.832,420.520,-282.545,185.336,447.220,124.400,-51.060
506,37185.941000,247.155,-23.090,119.808,422.550,-273.222,192.500,552.220,31.400,-85.060
507,37185.979000,233.397,2.008,119.808,428.328,-266.578,200.607,534.220,-12.600,-181.060
508,37185.999000,214.726,25.098,123.904,430.447,-250.823,208.903,470.220,20.400,-235.060
509,37186.41000,214.726,39.153,125.952,436.242,-242.444,212.074,405.220,1.400,-255.060
510,37186.91000,219.639,39.153,123.904,440.073,-239.548,217.114,295.220,26.400,-259.060
511,37186.118000,221.605,40.157,124.928,444.974,-227.498,221.356,220.220,6.400,-242.060
512,37186.158000,219.639,43.169,120.832,445.992,-222.028,219.485,64.220,18.400,-248.060
513,37186.209000,211.777,38.149,122.880,449.830,-218.274,221.560,17.220,21.400,-244.060
514,37186.241000,204.898,39.153,112.640,452.727,-213.714,218.677,-30.780,-18.600,-210.060
515,37186.259000,212.760,37.145,104.448,453.786,-205.457,218.855,-2.780,-47.600,-151.060
516,37186.304000,218.656,40.157,106.496,455.622,-209.174,214.800,-15.780,-41.600,-113.060
517,37186.346000,224.553,43.169,115.712,455.702,-203.619,217.902,-41.780,-10.600,-59.060
518,37186.379000,226.518,44.173,126.976,457.607,-202.678,217.925,3.220,22.400,-89.060
519,37186.419000,220.622,35.137,131.072,460.510,-198.040,219.022,-14.780,11.400,-62.060
520,37186.461000,213.743,40.157,139.264,456.596,-207.291,216.830,22.220,43.400,-75.060
521,37186.483000,204.898,44.173,138.240,462.354,-201.660,219.943,41.220,8.400,-56.060
522,37186.524000,206.864,47.184,138.240,457.735,-193.478,220.110,15.220,-1.600,-48.060
523,37186.558000,206.864,48.188,140.288,457.669,-198.097,218.022,-7.780,-34.600,-33.060
524,37186.602000,202.933,46.180,139.264,456.682,-200.897,215.972,-32.780,-26.600,-12.060
525,37186.638000,205.881,38.149,143.360,459.612,-194.408,218.104,-46.780,-66.600,27.940
526,37186.684000,199.002,34.133,137.216,461.487,-195.357,215.102,-60.780,-102.600,32.940
527,37186.699000,201.950,31.122,137.216,458.556,-201.866,211.976,-81.780,-84.600,33.940
528,37186.738000,187.209,31.122,129.024,464.293,-197.250,210.093,-108.780,-122.600,-0.060
529,37186.784000,194.088,31.122,119.808,459.464,-203.842,203.978,-82.780,-78.600,-0.060
530,37186.822000,205.881,37.145,133.120,465.160,-202.013,200.047,-17.780,-140.600,-22.060
531,37186.867000,214.726,56.220,133.120,467.097,-198.382,197.143,17.220,-92.600,-59.060
532,37186.909000,198.019,60.235,115.712,467.082,-199.337,195.133,25.220,-198.600,-92.060
533,37186.942000,222.587,63.247,111.616,466.263,-189.389,189.376,-62.780,-99.600,-75.060
534,37186.962000,258.948,61.239,136.192,468.075,-195.699,193.223,-166.780,35.400,-17.060
535,37187.7000,248.138,39.153,121.856,463.315,-196.854,184.240,-199.780,-135.600,83.940
536,37187.42000,233.397,18.071,111.616,462.293,-202.382,183.126,-145.780,-27.600,132.940
537,37187.89000,234.380,24.094,100.352,461.390,-198.808,179.222,-82.780,-21.600,118.940
538,37187.122000,249.121,22.086,94.208,457.547,-203.380,182.103,-51.780,-26.600,180.940
539,37187.162000,252.069,6.024,95.232,450.818,-210.856,178.950,-96.780,-16.600,243.940
540,37187.182000,256.983,18.071,88.064,448.872,-214.584,176.878,-32.780,-34.600,195.940
541,37187.222000,265.827,15.059,89.088,445.010,-220.150,175.760,-71.780,-39.600,263.940
542,37187.259000,248.138,1.004,83.968,445.003,-220.229,171.779,-120.780,-66.600,270.940
543,37187.301000,242.242,-2.008,77.824,441.997,-232.234,168.535,-123.780,-40.600,243.940
544,37187.342000,228.484,-13.051,73.728,438.172,-235.052,167.475,-86.780,-42.600,265.940
545,37187.382000,213.743,-4.016,63.488,438.061,-243.278,168.295,-73.780,-108.600,211.940
546,37187.402000,221.605,-6.024,50.176,436.160,-243.401,163.316,-7.780,-123.600,208.940
547,37187.442000,230.449,-4.016,48.128,432.334,-246.238,161.261,37.220,-103.600,155.940
548,37187.493000,249.121,-12.047,68.608,429.472,-248.088,162.212,-1.780,-34.600,194.940
549,37187.521000,256.000,-24.094,77.824,427.537,-250.920,159.165,-25.780,-82.600,202.940
550,37187.561000,251.086,-19.075,71.680,418.859,-262.923,159.891,11.220,-3.600,208.940
551,37187.601000,250.104,-19.075,65.536,424.589,-259.164,160.974,50.220,24.400,198.940
552,37187.641000,244.207,-13.051,63.488,421.637,-267.447,160.793,36.220,2.400,95.940
553,37187.661000,243.225,-10.039,60.416,421.652,-266.511,161.808,10.220,-26.600,1.940
554,37187.701000,238.311,-10.039,62.464,421.647,-266.569,158.823,-53.780,-13.600,-68.060
555,37187.741000,234.380,-17.067,59.392,422.659,-261.937,160.912,-67.780,-8.600,-109.060
556,37187.781000,237.328,-19.075,59.392,425.571,-256.422,160.039,-43.780,-22.600,-111.060
557,37187.827000,245.190,-26.102,64.512,429.251,-263.760,156.905,-73.780,16.400,-77.060
558,37187.859000,242.242,-19.075,73.728,429.350,-256.451,156.066,-10.780,-54.600,-113.060
559,37187.886000,246.173,-19.075,83.968,433.136,-256.381,157.067,62.220,-25.600,-87.060
560,37187.923000,251.086,-17.067,90.112,430.290,-257.276,160.028,103.220,30.400,-94.060
561,37187.963000,276.637,-13.051,98.304,435.057,-254.485,159.100,156.220,11.400,-127.060
562,37188.12000,262.879,-4.016,98.304,439.880,-247.970,161.235,164.220,-28.600,-184.060
563,37188.39000,247.155,3.012,103.424,444.551,-252.469,162.141,116.220,46.400,-153.060
564,37188.87000,234.380,0.000,107.520,446.630,-239.481,169.383,165.220,66.400,-63.060
565,37188.119000,208.829,2.008,98.304,443.705,-245.912,170.236,272.220,58.400,8.940
566,37188.141000,203.916,10.039,100.352,440.910,-243.123,174.270,348.220,84.400,26.940
567,37188.181000,208.829,20.078,109.568,439.058,-241.140,183.261,427.220,102.400,33.940
568,37188.222000,219.639,29.114,110.592,440.964,-240.959,191.225,498.220,83.400,8.940
569,37188.268000,221.605,43.169,107.520,441.118,-230.687,201.390,428.220,101.400,-57.060
570,37188.306000,220.622,39.153,107.520,440.221,-227.814,208.412,357.220,127.400,-29.060
571,37188.346000,232.415,46.180,115.712,443.093,-225.847,213.432,334.220,152.400,-36.060
572,37188.359000,232.415,44.173,118.784,441.192,-227.509,223.340,291.220,143.400,-18.060
573,37188.402000,216.691,49.192,107.520,439.442,-217.398,226.536,235.220,87.400,-4.060
574,37188.442000,222.587,50.196,109.568,436.615,-217.299,233.497,196.220,121.400,31.940
575,37188.487000,212.760,47.184,118.784,435.684,-216.356,235.505,135.220,112.400,56.940
576,37188.526000,204.898,52.204,125.952,437.530,-219.957,237.420,65.220,117.400,62.940
577,37188.559000,204.898,54.212,125.952,429.879,-226.391,241.250,31.220,116.400,52.940
578,37188.581000,204.898,55.216,131.072,428.989,-222.661,245.307,-128.780,65.400,3.940
579,37188.626000,203.916,56.220,124.928,426.976,-231.029,240.153,-251.780,-20.600,-14.060
580,37188.664000,208.829,55.216,126.976,427.828,-237.508,236.038,-373.780,-38.600,-23.060
581,37188.702000,237.328,45.176,125.952,429.796,-231.206,229.212,-466.780,-162.600,-3.060
582,37188.741000,234.380,28.110,119.808,429.669,-239.627,220.081,-497.780,-194.600,5.940
583,37188.783000,214.726,-3.012,121.856,428.593,-248.080,209.953,-595.780,-235.600,115.940
584,37188.802000,210.795,-13.051,123.904,431.254,-259.368,192.808,-514.780,-299.600,162.940
585,37188.843000,218.656,-22.086,107.520,424.465,-270.625,183.607,-444.780,-243.600,282.940
586,37188.883000,239.294,-27.106,111.616,424.346,-278.168,172.505,-368.780,-198.600,339.940
587,37188.924000,228.484,-32.125,100.352,418.585,-283.838,167.403,-312.780,-213.600,343.940
588,37188.963000,238.311,-32.125,96.256,411.735,-299.656,159.099,-289.780,-141.600,348.940
589,37189.6000,232.415,-41.161,95.232,408.861,-301.643,153.084,-223.780,-115.600,396.940
590,37189.41000,229.466,-44.173,89.088,402.032,-316.447,149.775,-102.780,-106.600,448.940
591,37189.61000,216.691,-47.184,74.752,392.530,-319.340,148.705,-28.780,-50.600,419.940
592,37189.103000,230.449,-45.176,77.824,391.493,-325.804,146.577,5.220,19.400,382.940
593,37189.167000,240.276,-35.137,82.944,382.818,-337.768,149.293,97.220,-75.600,398.940
594,37189.194000,249.121,-32.125,78.848,373.332,-339.706,150.232,42.220,39.400,304.940
595,37189.222000,245.190,-29.114,92.160,369.523,-341.568,151.182,-75.780,118.400,238.940
596,37189.269000,228.484,-37.145,93.184,362.812,-348.069,151.033,-173.780,85.400,190.940
597,37189.283000,220.622,-41.161,89.088,364.617,-354.457,150.900,-180.780,91.400,193.940
598,37189.327000,207.846,-59.231,92.160,356.081,-355.563,146.885,-216.780,132.400,197.940
599,37189.368000,220.622,-82.322,109.568,351.287,-360.207,146.780,-279.780,283.400,271.940
600,37189.404000,213.743,-80.314,115.712,338.888,-367.659,148.592,-146.780,229.400,293.940
601,37189.444000,204.898,-79.310,113.664,334.926,-380.555,147.317,-109.780,203.400,253.940
602,37189.484000,214.726,-83.325,126.976,332.064,-382.405,148.268,-123.780,268.400,185.940
603,37189.513000,210.795,-79.310,125.952,328.287,-382.357,153.237,-60.780,184.400,135.940
604,37189.541000,201.950,-78.306,118.784,325.348,-389.724,153.075,-8.780,114.400,104.940
605,37189.584000,206.864,-84.329,117.760,318.843,-381.488,157.220,19.220,92.400,71.940
606,37189.632000,199.002,-86.337,118.784,319.743,-385.101,159.133,27.220,35.400,83.940
607,37189.662000,200.967,-80.314,115.712,321.635,-385.076,159.137,48.220,23.400,68.940
608,37189.701000,207.846,-92.361,116.736,315.998,-382.364,161.175,33.220,27.400,59.940
609,37189.741000,208.829,-87.341,118.784,318.785,-386.010,160.107,61.220,15.400,23.940
610,37189.761000,207.846,-93.365,121.856,314.968,-388.750,163.027,22.220,96.400,-25.060
611,37189.801000,205.881,-90.353,131.072,320.749,-381.307,165.183,44.220,94.400,-45.060
612,37189.847000,193.106,-92.361,126.976,318.897,-378.545,167.229,55.220,106.400,-100.060
613,37189.881000,196.054,-100.392,139.264,321.741,-378.448,170.219,13.220,152.400,-134.060
614,37189.924000,191.140,-106.416,126.976,326.492,-377.392,174.227,110.220,88.400,-150.060
615,37189.962000,196.054,-102.400,124.928,330.321,-374.515,178.272,122.220,73.400,-180.060
616,37189.996000,199.002,-86.337,128.000,337.010,-369.828,179.377,116.220,80.400,-285.060
617,37190.22000,195.071,-61.239,151.552,342.857,-357.765,183.621,114.220,77.400,-391.060
618,37190.66000,230.449,-47.184,140.288,349.582,-350.329,184.783,41.220,186.400,-444.060
619,37190.107000,252.069,-45.176,145.408,357.361,-335.473,190.084,-19.780,199.400,-466.060
620,37190.147000,222.587,-29.114,134.144,365.986,-327.174,187.290,-73.780,32.400,-455.060
621,37190.187000,212.760,-27.106,117.760,370.781,-322.511,188.391,-46.780,-36.600,-400.060
622,37190.207000,217.674,-20.078,100.352,384.180,-311.342,188.648,-54.780,-60.600,-422.060
623,37190.244000,226.518,-9.035,107.520,388.052,-304.120,180.851,-47.780,-113.600,-411.060
624,37190.284000,236.345,-8.031,95.232,392.791,-303.199,177.893,15.220,-133.600,-354.060
625,37190.324000,249.121,-3.012,93.184,407.182,-288.393,176.240,25.220,-149.600,-362.060
626,37190.364000,254.035,0.000,89.088,410.016,-288.414,173.260,1.220,-188.600,-371.060
627,37190.404000,245.190,0.000,89.088,416.858,-271.914,169.643,-3.780,-178.600,-366.060
628,37190.444000,239.294,6.024,80.896,424.476,-268.189,167.744,-28.780,-134.600,-308.060
629,37190.464000,236.345,3.012,75.776,430.211,-263.591,164.867,38.220,-142.600,-288.060
630,37190.503000,228.484,14.055,71.680,436.023,-253.478,163.101,101.220,-157.600,-321.060
631,37190.543000,229.466,18.071,65.536,445.608,-244.231,161.323,126.220,-153.600,-286.060
632,37190.583000,234.380,26.102,66.560,447.522,-242.412,159.375,127.220,-139.600,-247.060
633,37190.622000,242.242,32.125,62.464,447.620,-235.103,158.536,104.220,-88.600,-229.060
634,37190.663000,243.225,35.137,68.608,452.400,-231.395,157.628,28.220,-53.600,-144.060
635,37190.693000,237.328,36.141,74.752,450.468,-234.188,156.571,18.220,-95.600,-74.060
636,37190.722000,241.259,37.145,79.872,458.059,-232.315,153.638,-31.780,-84.600,-90.060
637,37190.762000,227.501,29.114,84.992,456.054,-240.585,153.459,-17.780,-76.600,9.940
638,37190.803000,237.328,35.137,84.992,454.188,-238.758,154.490,-27.780,-59.600,33.940
639,37190.848000,267.793,33.129,100.352,453.322,-232.436,150.644,-48.780,40.400,67.940
640,37190.883000,267.793,26.102,103.424,453.187,-242.494,151.425,-59.780,40.400,172.940
641,37190.903000,243.225,7.027,102.400,444.646,-244.419,152.366,12.220,1.400,337.940
642,37190.942000,241.259,4.016,104.448,440.693,-257.217,156.066,85.220,31.400,312.940
643,37190.986000,222.587,9.035,102.400,437.801,-260.958,153.993,170.220,-1.600,242.940
644,37191.29000,221.605,14.055,100.352,434.050,-259.058,159.996,228.220,-24.600,140.940
645,37191.64000,239.294,10.039,110.592,433.100,-259.889,164.950,227.220,13.400,93.940
646,37191.104000,235.363,2.008,113.664,425.458,-265.447,166.809,160.220,16.400,137.940
647,37191.144000,220.622,-9.035,106.496,425.400,-269.969,169.697,67.220,62.400,176.940
648,37191.169000,203.916,-23.090,105.472,421.592,-271.832,170.646,8.220,72.400,165.940
649,37191.203000,214.726,-35.137,107.520,415.790,-281.049,171.436,-54.780,144.400,170.940
650,37191.243000,216.691,-44.173,116.736,414.838,-281.899,175.395,-25.780,128.400,152.940
651,37191.292000,224.553,-48.188,117.760,411.915,-288.311,177.244,-53.780,176.400,168.940
652,37191.326000,227.501,-49.192,121.856,406.263,-287.314,185.214,-67.780,198.400,124.940
653,37191.372000,225.536,-47.184,126.976,401.377,-298.428,181.986,-38.780,196.400,103.940
654,37191.386000,222.587,-38.149,113.664,404.190,-301.003,188.898,34.220,162.400,66.940
655,37191.424000,223.570,-36.141,119.808,399.465,-300.987,192.870,12.220,179.400,-12.060
656,37191.464000,216.691,-30.118,118.784,399.532,-296.348,195.953,109.220,118.400,-37.060
657,37191.504000,218.656,-35.137,118.784,396.727,-294.455,200.962,129.220,106.400,-73.060
658,37191.544000,214.726,-35.137,120.832,399.624,-290.656,206.020,121.220,96.400,-93.060
659,37191.584000,209.812,-37.145,123.904,397.790,-286.919,211.070,140.220,99.400,-89.060
660,37191.604000,203.916,-38.149,125.952,398.778,-284.099,214.116,142.220,114.400,-96.060
661,37191.643000,203.916,-42.165,143.360,401.660,-281.255,217.164,170.220,162.400,-95.060
662,37191.688000,207.846,-42.165,138.240,399.695,-287.517,225.980,272.220,125.400,-46.060
663,37191.726000,228.484,-30.118,141.312,402.758,-271.769,233.282,314.220,113.400,-22.060
664,37191.768000,215.708,-31.122,143.360,402.788,-269.878,236.306,346.220,83.400,-36.060
665,37191.804000,234.380,2.008,146.432,399.050,-267.062,242.328,415.220,57.400,-72.060
666,37191.844000,214.726,10.039,140.288,403.005,-255.785,254.510,465.220,-46.600,-88.060
667,37191.864000,203.916,21.082,128.000,411.510,-256.588,254.505,414.220,-89.600,-120.060
668,37191.903000,204.898,29.114,133.120,412.670,-240.982,255.834,317.220,-77.600,-158.060
669,37191.947000,214.726,31.122,131.072,409.772,-245.561,257.721,271.220,-57.600,-147.060
670,37191.988000,218.656,36.141,133.120,415.639,-231.725,259.019,202.220,-15.600,-186.060
671,37192.23000,223.570,41.161,134.144,418.560,-226.112,263.122,87.220,-8.600,-182.060
672,37192.63000,214.726,41.161,129.024,421.438,-223.307,264.180,51.220,-9.600,-200.060
673,37192.84000,202.933,44.173,120.832,424.313,-220.540,263.249,-34.780,-12.600,-213.060
674,37192.124000,188.192,41.161,114.688,427.134,-221.478,260.249,-48.780,-39.600,-204.060
675,37192.168000,199.002,36.141,117.760,429.152,-212.291,260.447,-90.780,-15.600,-170.060
676,37192.203000,199.002,34.133,126.976,430.046,-215.963,259.376,-56.780,-22.600,-131.060
677,37192.247000,216.691,42.165,135.168,432.983,-208.616,258.542,-137.780,113.400,-84.060
678,37192.284000,242.242,33.129,150.528,431.033,-213.163,261.426,-106.780,92.400,-42.060
679,37192.306000,222.587,28.110,147.456,432.917,-214.015,263.400,-59.780,82.400,18.940
680,37192.343000,204.898,28.110,143.360,431.062,-211.292,263.456,-26.780,66.400,13.940
681,37192.384000,196.054,37.145,151.552,431.922,-217.672,264.316,30.220,82.400,-10.060
682,37192.426000,188.192,35.137,152.576,427.233,-214.928,267.351,85.220,28.400,19.940
683,37192.467000,187.209,38.149,151.552,429.113,-215.819,267.335,102.220,8.400,34.940
684,37192.507000,196.054,39.153,160.768,429.126,-214.903,267.354,68.220,-0.600,40.940
685,37192.546000,201.950,42.165,161.792,428.294,-206.651,268.523,84.220,-43.600,51.940
686,37192.572000,195.071,41.161,150.528,430.164,-207.659,262.537,50.220,-122.600,53.940
687,37192.606000,203.916,42.165,144.384,428.210,-212.245,263.431,23.220,-120.600,77.940
688,37192.647000,203.916,40.157,141.312,430.110,-211.363,260.469,7.220,-130.600,95.940
689,37192.689000,203.916,46.180,133.120,428.163,-215.111,257.402,-36.780,-144.600,108.940
690,37192.726000,207.846,42.165,138.240,426.226,-217.962,253.360,-32.780,-166.600,107.940
691,37192.766000,199.985,36.141,138.240,427.105,-222.589,250.279,-51.780,-144.600,154.940
692,37192.792000,195.071,42.165,134.144,429.002,-221.745,245.326,-74.780,-123.600,134.940
693,37192.826000,190.157,30.118,129.024,422.330,-224.698,239.286,-101.780,-140.600,156.940
694,37192.864000,191.140,29.114,123.904,427.903,-232.011,236.155,-106.780,-128.600,151.940
695,37192.914000,203.916,32.125,129.024,423.115,-235.816,232.088,-110.780,-83.600,135.940
696,37192.944000,237.328,28.110,114.688,417.505,-230.472,228.215,-135.780,-144.600,131.940
697,37192.984000,255.017,20.078,114.688,419.327,-235.126,223.145,-208.780,-56.600,114.940
698,37193.9000,256.000,-5.020,115.712,417.265,-247.138,218.908,-209.780,-44.600,157.940
699,37193.46000,252.069,-12.047,108.544,411.627,-243.666,213.006,-173.780,-27.600,174.940
700,37193.87000,247.155,-7.027,104.448,412.474,-250.982,212.851,-126.780,1.400,149.940
701,37193.146000,242.242,-14.055,104.448,407.619,-260.187,213.643,-155.780,2.400,142.940
702,37193.171000,243.225,-26.102,99.328,405.796,-254.774,210.772,-140.780,-21.600,179.940
703,37193.212000,246.173,-21.082,95.232,404.732,-263.090,207.609,-174.780,-13.600,131.940
704,37193.248000,235.363,-23.090,90.112,399.919,-268.727,203.503,-183.780,-34.600,146.940
705,37193.267000,235.363,-18.071,84.992,401.762,-272.367,203.429,-138.780,-24.600,143.940
706,37193.307000,234.380,-25.098,81.920,396.977,-276.133,201.352,-135.780,-11.600,157.940
707,37193.347000,236.345,-31.122,76.800,397.030,-272.429,203.420,-107.780,43.400,142.940
708,37193.387000,232.415,-30.118,80.896,392.245,-276.195,201.344,-183.780,53.400,88.940
709,37193.428000,235.363,-36.141,77.824,389.285,-284.576,196.188,-161.780,52.400,105.940
710,37193.468000,233.397,-36.141,79.872,387.368,-286.433,196.146,-49.780,-8.600,102.940
711,37193.497000,241.259,-36.141,79.872,389.264,-286.369,198.139,-30.780,27.400,87.940
712,37193.526000,239.294,-37.145,82.944,385.418,-290.980,199.030,9.220,43.400,62.940
713,37193.571000,234.380,-37.145,81.920,383.502,-292.818,199.983,76.220,29.400,14.940
714,37193.611000,231.432,-32.125,82.944,385.333,-297.354,200.883,50.220,50.400,-25.060
715,37193.646000,231.432,-35.137,87.040,391.175,-285.350,202.142,73.220,45.400,-50.060
716,37193.686000,231.432,-33.129,86.016,389.288,-285.316,205.124,81.220,15.400,-68.060
717,37193.706000,231.432,-44.173,93.184,386.426,-287.166,206.075,43.220,12.400,-52.060
718,37193.751000,230.449,-38.149,93.184,389.329,-282.529,207.173,127.220,-51.600,-79.060
719,37193.787000,232.415,-41.161,96.256,391.220,-282.523,206.181,162.220,-25.600,-65.060
720,37193.826000,242.242,-34.133,106.496,393.269,-271.426,210.399,195.220,-50.600,-113.060
721,37193.897000,244.207,-24.094,109.568,393.274,-271.368,213.384,160.220,-53.600,-176.060
722,37193.912000,246.173,-18.071,115.712,400.907,-266.687,213.495,83.220,-44.600,-209.060
723,37193.946000,242.242,-16.063,120.832,400.980,-261.210,212.617,53.220,-43.600,-204.060
724,37193.968000,235.363,-14.055,120.832,406.689,-258.465,208.705,96.220,-39.600,-164.060
725,37194.12000,223.570,-3.012,123.904,411.405,-260.117,214.645,168.220,-0.600,-132.060
726,37194.52000,217.674,0.000,124.928,412.380,-258.233,216.675,253.220,-4.600,-114.060
727,37194.85000,200.967,13.051,116.736,415.381,-247.066,223.880,342.220,-52.600,-90.060
728,37194.157000,199.985,27.106,113.664,417.263,-247.937,224.859,360.220,-9.600,-43.060
729,37194.172000,216.691,36.141,119.808,419.240,-242.298,230.950,361.220,48.400,-17.060
730,37194.186000,221.605,32.125,125.952,420.234,-239.420,236.980,359.220,55.400,3.940
731,37194.232000,225.536,44.173,126.976,416.507,-235.708,242.027,316.220,54.400,-9.060
732,37194.266000,229.466,43.169,126.976,420.374,-230.083,246.131,249.220,67.400,19.940
733,37194.311000,213.743,40.157,121.856,420.273,-238.192,252.921,213.220,45.400,25.940
734,37194.352000,210.795,35.137,117.760,419.393,-233.585,255.007,153.220,45.400,46.940
735,37194.387000,213.743,37.145,116.736,417.530,-231.719,258.028,152.220,24.400,61.940
736,37194.419000,212.760,40.157,121.856,417.552,-229.926,256.076,133.220,20.400,69.940
737,37194.447000,207.846,42.165,121.856,414.682,-232.634,259.993,96.220,17.400,58.940
738,37194.486000,202.933,43.169,123.904,414.724,-229.827,263.037,48.220,19.400,25.940
739,37194.527000,205.881,46.180,126.976,408.932,-238.166,261.856,-49.780,25.400,-2.060
740,37194.572000,211.777,47.184,129.024,411.773,-238.109,262.856,-125.780,-13.600,-3.060
741,37194.613000,210.795,47.184,123.904,409.890,-237.257,260.882,-184.780,-49.600,1.940
742,37194.649000,236.345,49.192,130.048,411.702,-242.788,257.783,-293.780,-37.600,23.940
743,37194.669000,244.207,30.118,129.024,406.841,-251.291,247.649,-355.780,-90.600,80.940
744,37194.706000,236.345,24.094,131.072,412.436,-256.810,242.566,-327.780,-109.600,128.940
745,37194.746000,224.553,7.027,119.808,402.927,-259.781,237.516,-312.780,-97.600,189.940
746,37194.787000,216.691,-3.012,112.640,400.021,-264.458,234.428,-294.780,-135.600,203.940
747,37194.828000,203.916,-6.024,108.544,401.795,-271.976,223.330,-325.780,-139.600,173.940
748,37194.867000,218.656,-20.078,113.664,394.102,-280.439,217.171,-342.780,-111.600,187.940
749,37194.887000,220.622,-40.157,117.760,396.845,-286.912,212.064,-313.780,-87.600,219.940
750,37194.927000,232.415,-45.176,120.832,387.214,-299.005,208.808,-228.780,-19.600,314.940
751,37194.968000,228.484,-50.196,120.832,382.346,-308.365,201.639,-146.780,-8.600,343.940
752,37195.14000,218.656,-53.208,117.760,380.349,-316.538,206.435,-93.780,0.400,318.940
753,37195.46000,212.760,-54.212,112.640,373.619,-324.033,202.287,-37.780,-22.600,294.940
754,37195.88000,211.777,-51.200,112.640,371.785,-319.516,200.392,-10.780,-26.600,220.940
755,37195.108000,207.846,-51.200,108.544,365.950,-331.442,203.113,47.220,-59.600,114.940
756,37195.148000,217.674,-49.192,113.664,365.116,-323.210,203.287,38.220,-20.600,91.940
757,37195.188000,208.829,-53.208,114.688,362.177,-330.576,203.126,95.220,-70.600,49.940
758,37195.236000,227.501,-45.176,104.448,366.960,-326.830,204.207,151.220,0.400,29.940
759,37195.269000,247.155,-32.125,106.496,366.058,-324.016,208.244,140.220,5.400,-42.060
760,37195.312000,255.017,-23.090,107.520,368.947,-320.314,208.328,26.220,64.400,-77.060
761,37195.351000,238.311,-19.075,99.328,366.104,-321.170,213.278,-0.780,23.400,-105.060
762,37195.369000,231.432,-11.043,98.304,369.782,-328.527,209.149,-97.780,62.400,-134.060
763,37195.409000,211.777,-14.055,94.208,372.791,-315.722,206.442,-211.780,46.400,-95.060
764,37195.462000,200.967,-37.145,98.304,369.857,-322.270,201.325,-222.780,97.400,-53.060
765,37195.497000,207.846,-45.176,125.952,368.951,-319.495,203.372,-220.780,136.400,-25.060
766,37195.532000,209.812,-51.200,138.240,370.750,-326.721,207.199,-176.780,130.400,40.940
767,37195.567000,213.743,-52.204,144.384,364.090,-328.777,200.183,-134.780,137.400,35.940
768,37195.587000,215.708,-55.216,152.576,363.200,-325.047,204.240,-136.780,164.400,-1.060
769,37195.634000,208.829,-50.196,150.528,361.282,-326.905,204.197,-124.780,156.400,-13.060
770,37195.667000,202.933,-47.184,150.528,360.293,-330.504,208.098,-109.780,147.400,-57.060
771,37195.708000,200.967,-45.176,143.360,364.198,-321.351,205.315,-16.780,98.400,-128.060
772,37195.749000,202.933,-44.173,143.360,365.176,-319.428,209.335,16.220,70.400,-152.060
773,37195.791000,201.950,-41.161,141.312,367.122,-315.699,211.407,28.220,26.400,-155.060
774,37195.811000,207.846,-37.145,144.384,369.945,-316.617,209.402,-8.780,13.400,-175.060
775,37195.849000,202.933,-35.137,146.432,372.822,-313.052,202.520,-75.780,-21.600,-190.060
776,37195.893000,192.123,-39.153,145.408,379.601,-301.912,205.751,-72.780,-73.600,-197.060
777,37195.933000,187.209,-40.157,135.168,388.124,-300.961,201.805,-112.780,-131.600,-233.060
778,37195.978000,205.881,-45.176,133.120,390.964,-300.144,194.864,-157.780,-106.600,-250.060
779,37196.11000,232.415,-41.161,140.288,396.740,-292.760,194.036,-118.780,-78.600,-231.060
780,37196.34000,239.294,-29.114,136.192,400.558,-290.020,191.116,-81.780,-64.600,-251.060
781,37196.73000,245.190,-18.071,145.408,406.265,-287.294,186.209,-104.780,0.400,-284.060
782,37196.109000,236.345,-5.020,131.072,411.084,-280.819,186.354,-133.780,-40.600,-312.060
783,37196.153000,236.345,-4.016,122.880,417.864,-268.899,182.639,-138.780,-50.600,-346.060
784,37196.193000,219.639,11.043,104.448,420.737,-266.153,180.712,-75.780,-126.600,-349.060
785,37196.231000,233.397,11.043,99.328,431.352,-250.519,177.082,-87.780,-123.600,-324.060
786,37196.293000,245.190,17.067,89.088,436.099,-248.741,171.159,-91.780,-193.600,-337.060
787,37196.303000,253.052,21.082,87.040,438.053,-243.376,163.319,-38.780,-219.600,-278.060
788,37196.333000,252.069,24.094,79.872,445.753,-233.296,158.572,-23.780,-253.600,-246.060
789,37196.371000,247.155,29.114,70.656,449.555,-231.511,153.642,-20.780,-258.600,-220.060
790,37196.409000,237.328,30.118,60.416,455.349,-222.372,148.872,36.220,-245.600,-156.060
791,37196.449000,238.311,35.137,55.296,461.044,-220.562,143.946,56.220,-221.600,-126.060
792,37196.497000,242.242,38.149,50.176,462.080,-213.338,138.134,55.220,-207.600,-90.060
793,37196.517000,239.294,37.145,49.152,462.064,-214.293,136.124,56.220,-177.600,-46.060
794,37196.566000,248.138,39.153,46.080,463.991,-211.559,134.196,30.220,-128.600,-8.060
795,37196.589000,247.155,37.145,41.984,464.937,-211.546,134.197,15.220,-115.600,6.940
796,37196.628000,249.121,33.129,46.080,463.923,-216.198,131.113,6.220,-45.600,52.940
797,37196.674000,241.259,36.141,41.984,462.029,-216.243,130.115,34.220,-63.600,83.940
798,37196.713000,239.294,32.125,37.888,461.931,-223.552,130.953,44.220,-38.600,99.940
799,37196.751000,241.259,31.122,40.960,461.028,-219.978,127.050,31.220,-1.600,101.940
800,37196.771000,242.242,34.133,45.056,455.268,-226.408,129.888,78.220,-24.600,122.940
801,37196.811000,245.190,31.122,52.224,458.044,-230.951,129.796,60.220,2.400,149.940
802,37196.849000,253.052,30.118,70.656,455.213,-230.891,134.766,79.220,8.400,163.940
803,37196.894000,258.948,18.071,73.728,453.237,-237.290,136.616,85.220,-5.600,164.940
804,37196.933000,249.121,9.035,82.944,453.222,-238.225,135.601,70.220,14.400,202.940
805,37196.974000,258.948,4.016,89.088,447.426,-247.383,139.377,87.220,71.400,260.940
806,37197.2000,246.173,1.004,104.448,437.918,-251.114,142.267,67.220,114.400,232.940
807,37197.28000,235.363,3.012,103.424,437.846,-256.572,144.140,81.220,95.400,187.940
808,37197.69000,224.553,2.008,105.472,437.789,-261.094,147.028,42.220,77.400,115.940
809,37197.111000,230.449,-14.055,112.640,434.853,-268.422,148.857,-30.780,106.400,96.940
810,37197.151000,219.639,-16.063,114.688,431.086,-267.497,151.855,-52.780,98.400,27.940
811,37197.192000,213.743,-19.075,107.520,430.103,-270.239,152.789,-85.780,76.400,14.940
812,37197.212000,215.708,-29.114,107.520,427.277,-269.360,152.804,-122.780,118.400,10.940
813,37197.252000,221.605,-32.125,113.664,429.151,-271.089,156.748,-125.780,121.400,12.940
814,37197.292000,231.432,-39.153,108.544,427.157,-278.463,155.594,-95.780,95.400,57.940
815,37197.328000,231.432,-36.141,115.712,424.346,-276.629,157.618,-129.780,135.400,65.940
816,37197.368000,228.484,-30.118,115.712,422.390,-281.254,156.522,-129.780,132.400,53.940
817,37197.408000,226.518,-32.125,111.616,418.586,-283.058,160.457,-74.780,111.400,33.940
818,37197.432000,225.536,-33.129,105.472,416.728,-280.374,158.522,-51.780,113.400,15.940
819,37197.468000,222.587,-33.129,108.544,417.626,-284.006,159.440,-6.780,106.400,-7.060
820,37197.508000,219.639,-34.133,109.568,415.779,-281.185,164.471,43.220,121.400,-5.060
821,37197.549000,214.726,-35.137,117.760,417.703,-279.250,168.493,101.220,153.400,-30.060
822,37197.592000,205.881,-43.169,115.712,416.728,-281.913,173.409,160.220,155.400,24.940
823,37197.632000,210.795,-45.176,121.856,416.648,-288.229,178.247,218.220,188.400,28.940
824,37197.677000,215.708,-38.149,118.784,417.676,-283.421,189.292,327.220,157.400,42.940
825,37197.696000,213.743,-48.188,119.808,413.054,-276.037,195.410,445.220,126.400,45.940
826,37197.731000,239.294,-36.141,126.976,412.163,-273.087,206.413,472.220,137.400,38.940
827,37197.774000,228.484,-17.067,118.784,413.139,-271.963,216.384,620.220,-56.600,40.940
828,37197.811000,218.656,12.047,129.024,413.243,-265.355,226.472,635.220,-22.600,13.940
829,37197.856000,216.691,27.106,139.264,415.291,-254.278,229.694,651.220,-45.600,-40.060
830,37197.894000,212.760,29.114,142.336,417.283,-247.703,236.800,576.220,-79.600,-116.060
831,37197.914000,218.656,40.157,142.336,421.187,-239.330,240.962,495.220,-40.600,-182.060
832,37197.949000,226.518,44.173,147.456,427.023,-228.164,246.182,352.220,16.400,-185.060
833,37197.992000,221.605,53.208,140.288,423.277,-225.446,247.229,235.220,1.400,-214.060
834,37198.34000,207.846,52.204,121.856,432.793,-221.617,249.313,118.220,-30.600,-245.060
835,37198.71000,204.898,47.184,114.688,436.755,-208.722,250.588,40.220,-44.600,-180.060
836,37198.117000,204.898,44.173,123.904,439.539,-212.407,247.530,51.220,-130.600,-126.060
837,37198.149000,204.898,48.188,112.640,444.357,-205.951,246.680,-17.780,-123.600,-76.060
838,37198.169000,213.743,48.188,114.688,445.275,-207.810,244.652,-37.780,-106.600,-75.060
839,37198.218000,208.829,50.196,120.832,442.372,-211.668,236.609,-149.780,-90.600,-90.060
840,37198.251000,212.760,48.188,126.976,446.265,-203.432,233.806,-225.780,-54.600,-67.060
841,37198.294000,210.795,47.184,129.024,447.158,-207.123,231.740,-204.780,-36.600,-23.060
842,37198.338000,218.656,49.192,129.024,442.397,-209.076,228.707,-235.780,-17.600,37.940
843,37198.374000,211.777,43.169,130.048,446.114,-213.665,225.631,-227.780,-17.600,71.940
844,37198.398000,202.933,34.133,130.048,444.245,-211.878,224.672,-187.780,-22.600,90.940
845,37198.436000,199.002,24.094,132.096,439.354,-223.051,218.459,-99.780,-37.600,139.940
846,37198.475000,202.933,29.114,137.216,437.438,-224.889,219.411,-60.780,-19.600,166.940
847,37198.521000,192.123,38.149,130.048,437.420,-225.863,216.407,-43.780,-92.600,120.940
848,37198.553000,194.088,40.157,121.856,434.599,-224.147,212.461,-116.780,-166.600,78.940
849,37198.593000,242.242,37.145,119.808,437.430,-224.207,207.490,-191.780,-62.600,45.940
850,37198.613000,245.190,28.110,122.880,433.576,-228.915,203.406,-177.780,-194.600,19.940
851,37198.651000,246.173,24.094,119.808,434.487,-230.852,197.398,-191.780,-126.600,82.940
852,37198.701000,236.345,4.016,121.856,433.506,-232.814,191.387,-200.780,-93.600,164.940
853,37198.732000,227.501,-4.016,96.256,432.381,-245.692,189.122,-153.780,-117.600,171.940
854,37198.772000,229.466,-8.031,91.136,428.639,-242.155,185.213,-146.780,-113.600,137.940
855,37198.812000,257.965,-3.012,86.016,429.605,-240.369,182.269,-119.780,-22.600,110.940
856,37198.858000,252.069,-10.039,83.968,428.518,-250.498,180.062,-128.780,-122.600,67.940
857,37198.876000,247.155,-15.059,71.680,426.655,-247.872,175.142,-149.780,-82.600,82.940
858,37198.909000,256.000,-24.094,79.872,423.702,-256.174,173.967,-205.780,-47.600,107.940
859,37198.957000,249.121,-16.063,69.632,420.865,-255.413,168.011,-196.780,-69.600,101.940
860,37198.991000,250.104,-16.063,65.536,423.724,-253.601,165.070,-170.780,-101.600,76.940
861,37199.43000,248.138,-15.059,58.368,422.645,-262.873,159.898,-216.780,-124.600,24.940
862,37199.71000,252.069,-8.031,60.416,425.450,-264.765,154.888,-217.780,-99.600,14.940
863,37199.91000,240.276,-13.051,56.320,422.650,-261.275,147.996,-205.780,-106.600,-25.060
864,37199.131000,242.242,-15.059,54.272,425.480,-261.335,143.026,-224.780,-59.600,-59.060
865,37199.172000,241.259,-19.075,56.320,422.627,-262.308,142.006,-244.780,-45.600,-76.060
866,37199.213000,241.259,-12.047,51.200,426.442,-259.607,137.096,-239.780,-68.600,-94.060
867,37199.279000,243.225,-14.055,53.248,428.304,-261.473,134.075,-183.780,-45.600,-76.060
868,37199.296000,247.155,-19.075,56.320,430.249,-256.984,128.206,-148.780,-42.600,-72.060
869,37199.322000,241.259,-21.082,50.176,428.280,-262.526,127.090,-136.780,-50.600,-66.060
870,37199.353000,244.207,-18.071,51.200,428.271,-263.403,129.061,-111.780,-13.600,-78.060
871,37199.402000,248.138,-21.082,55.296,425.555,-254.299,128.256,-61.780,63.400,-53.060
872,37199.436000,242.242,-16.063,60.416,430.233,-257.940,126.196,-65.780,86.400,-74.060
873,37199.474000,240.276,-20.078,62.464,427.346,-261.622,127.108,-17.780,99.400,-66.060
874,37199.536000,239.294,-19.075,60.416,432.099,-260.546,132.111,38.220,92.400,-77.060
875,37199.558000,243.225,-17.067,63.488,429.375,-252.299,134.272,70.220,142.400,-101.060
876,37199.579000,239.294,-19.075,73.728,429.345,-254.970,138.194,122.220,157.400,-70.060
877,37199.619000,238.311,-23.090,88.064,433.238,-247.493,143.332,45.220,156.400,-85.060
878,37199.662000,256.000,-27.106,96.256,432.264,-250.137,149.242,127.220,192.400,-77.060
879,37199.692000,264.845,-21.082,97.280,434.251,-243.621,153.362,134.220,133.400,-92.060
880,37199.733000,260.914,-10.039,99.328,439.886,-247.132,157.274,104.220,154.400,-137.060
881,37199.773000,247.155,-4.016,108.544,438.959,-246.150,161.272,75.220,151.400,-173.060
882,37199.793000,233.397,0.000,114.688,443.847,-235.016,165.495,71.220,165.400,-155.060
883,37199.833000,222.587,-1.004,114.688,441.029,-234.040,170.485,104.220,157.400,-151.060
884,37199.874000,207.846,5.020,108.544,448.699,-226.611,170.654,108.220,122.400,-169.060
885,37199.911000,215.708,13.051,115.712,446.798,-228.273,180.562,187.220,190.400,-146.060
886,37199.954000,207.846,18.071,123.904,451.522,-229.068,183.536,259.220,141.400,-124.060
887,37200.3000,211.777,39.153,118.784,447.924,-216.156,190.768,203.220,111.400,-128.060
888,37200.11000,206.864,45.176,125.952,450.787,-215.065,197.758,198.220,143.400,-96.060
889,37200.56000,209.812,51.200,128.000,449.888,-212.212,203.786,272.220,137.400,-55.060
890,37200.91000,220.622,49.192,138.240,449.020,-206.689,205.891,275.220,179.400,-1.060
891,37200.136000,217.674,46.180,136.192,450.937,-205.611,212.879,268.220,159.400,25.940
892,37200.171000,211.777,44.173,134.144,445.236,-208.259,221.766,310.220,153.400,44.940
893,37200.214000,209.812,50.196,128.000,446.279,-201.736,226.880,325.220,131.400,59.940
894,37200.254000,209.812,58.227,122.880,442.464,-204.437,231.790,275.220,114.400,97.940
895,37200.274000,201.950,52.204,125.952,440.578,-204.384,235.767,213.220,73.400,114.940
896,37200.314000,202.933,52.204,134.144,436.719,-210.691,243.584,169.220,69.400,103.940
897,37200.353000,202.933,50.196,139.264,438.627,-209.711,245.597,172.220,57.400,83.940
898,37200.397000,196.054,55.216,143.360,434.980,-199.683,245.805,206.220,-5.600,31.940
899,37200.437000,201.950,62.243,143.360,435.892,-202.380,247.738,179.220,-52.600,140.940
900,37200.477000,212.760,63.247,138.240,429.153,-210.732,246.556,-36.780,-45.600,194.940
901,37200.497000,215.708,59.231,146.432,429.100,-214.436,244.488,-64.780,-133.600,248.940
902,37200.537000,230.449,51.200,131.072,429.043,-218.178,240.429,-54.780,-204.600,262.940
903,37200.574000,233.397,43.169,131.072,424.121,-232.022,238.138,-42.780,-238.600,334.940
904,37200.614000,220.622,26.102,117.760,423.130,-234.861,234.098,-34.780,-288.600,341.940
905,37200.654000,217.674,20.078,105.472,421.978,-248.830,222.858,-79.780,-336.600,356.940
906,37200.693000,215.708,6.024,104.448,420.979,-251.767,213.842,-221.780,-330.600,345.940
907,37200.712000,229.466,-15.059,104.448,415.172,-260.282,203.706,-227.780,-297.600,383.940
908,37200.754000,237.328,-37.145,97.280,412.982,-281.495,197.283,-234.780,-258.600,485.940
909,37200.794000,238.311,-48.188,100.352,403.509,-281.737,191.296,-206.780,-185.600,539.940
910,37200.833000,239.294,-50.196,98.304,397.612,-297.465,186.974,-167.780,-142.600,509.940
911,37200.874000,230.449,-46.180,92.160,393.711,-305.799,184.802,-56.780,-167.600,482.940
912,37200.914000,224.553,-46.180,82.944,384.120,-315.124,182.600,25.220,-200.600,497.940
913,37200.954000,225.536,-53.208,79.872,374.557,-321.799,175.481,37.220,-137.600,409.940
914,37200.974000,227.501,-43.169,82.944,372.526,-331.921,174.268,-18.780,-133.600,316.940
915,37201.19000,239.294,-46.180,78.848,371.588,-331.056,172.296,-44.780,-127.600,264.940
916,37201.53000,245.190,-52.204,89.088,365.806,-338.519,169.145,-124.780,-116.600,188.940
917,37201.94000,246.173,-51.200,88.064,365.733,-343.216,163.077,-201.780,-45.600,144.940
918,37201.134000,225.536,-59.231,90.112,360.088,-340.602,160.140,-221.780,-88.600,123.940
919,37201.174000,215.708,-64.251,94.208,363.661,-355.346,152.869,-298.780,-10.600,82.940
920,37201.194000,218.656,-67.263,103.424,362.771,-350.856,148.985,-339.780,34.400,65.940
921,37201.233000,214.726,-67.263,111.616,357.060,-352.861,143.960,-393.780,59.400,35.940
922,37201.276000,214.726,-69.271,106.496,358.905,-355.702,137.935,-387.780,63.400,0.940
923,37201.316000,224.553,-78.306,105.472,356.975,-357.696,130.927,-419.780,139.400,-61.060
924,37201.361000,216.691,-73.286,103.424,360.729,-359.556,126.915,-379.780,102.400,-101.060
925,37201.398000,217.674,-70.275,95.232,359.817,-356.859,124.981,-337.780,84.400,-109.060
926,37201.417000,206.864,-66.259,94.208,364.378,-368.804,119.761,-257.780,62.400,-133.060
927,37201.454000,210.795,-68.267,97.280,365.505,-355.127,116.075,-217.780,96.400,-152.060
928,37201.493000,201.950,-64.251,94.208,369.321,-352.407,112.160,-175.780,53.400,-180.060
929,37201.539000,186.226,-44.173,80.896,376.961,-346.869,109.305,-256.780,13.400,-274.060
930,37201.581000,216.691,-59.231,101.376,381.634,-350.568,104.260,-395.780,119.400,-246.060
931,37201.614000,251.086,-122.478,121.856,378.839,-347.019,100.353,-305.780,94.400,-70.060
932,37201.653000,253.052,-97.380,104.448,384.658,-336.828,102.568,-126.780,166.400,-238.060
933,37201.673000,260.914,-91.357,120.832,391.385,-329.372,104.726,-145.780,223.400,-283.060
934,37201.713000,245.190,-71.278,114.688,396.234,-321.006,107.895,1.220,140.400,-351.060
935,37201.753000,223.570,-43.169,99.328,403.921,-312.622,110.074,122.220,159.400,-397.060
936,37201.797000,240.276,-38.149,94.208,410.703,-301.443,115.295,84.220,223.400,-437.060
937,37201.846000,228.484,-14.055,100.352,416.413,-299.458,119.324,5.220,182.400,-523.060
938,37201.873000,227.501,1.004,91.136,425.172,-281.880,122.695,-22.780,228.400,-450.060
939,37201.893000,256.983,-1.004,97.280,429.076,-273.507,126.858,-97.780,272.400,-391.060
940,37201.933000,254.035,5.020,89.088,435.871,-261.412,132.098,-93.780,316.400,-420.060
941,37201.984000,242.242,10.039,89.088,438.719,-261.277,137.079,-34.780,334.400,-383.060
942,37202.19000,237.328,12.047,77.824,439.795,-252.045,140.261,35.220,188.400,-353.060
943,37202.54000,225.536,20.078,76.800,441.792,-244.632,143.405,6.220,184.400,-319.060
944,37202.93000,234.380,20.078,79.872,445.711,-235.323,148.582,55.220,169.400,-272.060
945,37202.114000,235.363,36.141,82.944,448.710,-224.175,154.792,92.220,182.400,-227.060
946,37202.153000,237.328,33.129,86.016,453.520,-218.577,156.907,61.220,190.400,-169.060
947,37202.194000,235.363,31.122,82.944,448.825,-216.670,163.904,74.220,161.400,-137.060
948,37202.233000,230.449,35.137,81.920,448.803,-218.463,165.855,-4.780,213.400,-100.060
949,37202.273000,229.466,30.118,89.088,447.965,-211.049,170.984,-34.780,219.400,-76.060
950,37202.314000,224.553,31.122,94.208,446.963,-215.564,174.865,-24.780,208.400,-55.060
951,37202.362000,228.484,31.122,101.376,446.959,-216.383,179.821,2.220,214.400,-23.060
952,37202.376000,227.501,33.129,105.472,446.967,-216.285,184.796,20.220,200.400,-30.060
953,37202.416000,224.553,35.137,96.256,446.117,-209.787,189.907,13.220,196.400,-21.060
954,37202.453000,217.674,42.165,104.448,447.034,-212.426,194.825,1.220,174.400,-4.060
955,37202.496000,223.570,37.145,105.472,441.294,-217.081,194.717,-14.780,163.400,26.940
956,37202.534000,217.674,37.145,114.688,437.531,-216.098,200.701,-26.780,165.400,87.940
957,37202.577000,214.726,35.137,126.976,436.627,-213.304,203.743,-59.780,135.400,128.940
958,37202.601000,218.656,25.098,133.120,434.597,-223.406,203.525,-73.780,129.400,180.940
959,37202.634000,216.691,24.094,135.168,428.833,-229.874,204.373,-62.780,99.400,228.940
960,37202.673000,211.777,22.086,138.240,424.966,-236.279,207.215,31.220,59.400,277.940
961,37202.714000,233.397,18.071,142.336,416.295,-248.204,211.922,68.220,58.400,316.940
962,37202.753000,224.553,3.012,142.336,414.314,-254.642,211.782,93.220,18.400,316.940
963,37202.793000,222.587,-2.008,149.504,413.321,-258.280,213.692,74.220,55.400,301.940
964,37202.813000,215.708,-10.039,151.552,403.760,-265.714,214.514,24.220,49.400,243.940
965,37202.853000,211.777,-8.031,150.528,400.823,-273.061,215.348,-30.780,38.400,188.940
966,37202.897000,199.985,-23.090,150.528,397.996,-272.182,215.363,-86.780,29.400,125.940
967,37202.937000,200.967,-22.086,151.552,393.222,-275.052,212.311,-183.780,23.400,103.940
968,37202.976000,190.157,-38.149,150.528,392.224,-278.749,211.236,-209.780,18.400,65.940
969,37203.16000,196.054,-46.180,151.552,387.400,-285.282,208.106,-188.780,41.400,104.940
970,37203.56000,199.002,-51.200,151.552,385.353,-296.360,204.883,-142.780,35.400,140.940
971,37203.83000,201.950,-56.220,150.528,380.634,-295.506,204.894,-84.780,31.400,180.940
972,37203.117000,201.950,-55.216,148.480,380.478,-307.338,208.621,-36.780,36.400,154.940
973,37203.162000,197.036,-51.200,148.480,377.605,-309.305,203.601,5.220,0.400,125.940
974,37203.202000,199.985,-50.196,145.408,377.680,-303.808,203.719,-5.780,-14.600,58.940
975,37203.236000,199.985,-50.196,145.408,376.662,-309.279,205.590,-13.780,-47.600,29.940
976,37203.276000,200.967,-49.192,144.384,377.668,-304.724,203.699,8.220,-53.600,16.940
977,37203.296000,203.916,-50.196,143.360,375.670,-312.137,200.554,6.220,-28.600,-5.060
978,37203.334000,202.933,-51.200,146.432,375.684,-311.201,201.569,6.220,-45.600,2.940
979,37203.379000,202.933,-55.216,142.336,375.724,-308.433,202.623,75.220,-34.600,9.940
980,37203.419000,195.071,-55.216,139.264,375.773,-305.548,209.647,114.220,-42.600,-29.060
981,37203.461000,195.071,-52.204,136.192,376.672,-308.401,203.619,159.220,-42.600,-37.060
982,37203.494000,199.002,-48.188,129.024,383.429,-299.055,208.801,216.220,-100.600,-64.060
983,37203.521000,198.019,-44.173,129.024,387.282,-294.366,211.891,236.220,-111.600,-105.060
984,37203.556000,211.777,-40.157,138.240,390.055,-298.948,209.808,244.220,-92.600,-105.060
985,37203.596000,248.138,-36.141,157.696,390.213,-287.857,215.018,249.220,-44.600,-52.060
986,37203.636000,210.795,-13.051,143.360,395.882,-288.659,216.998,252.220,-100.600,-128.060
987,37203.676000,202.933,-12.047,136.192,396.867,-285.878,218.053,218.220,-53.600,-148.060
988,37203.716000,199.002,-1.004,145.408,400.786,-276.570,223.231,209.220,-56.600,-227.060
989,37203.736000,201.950,-1.004,142.336,407.499,-270.050,224.374,171.220,-65.600,-244.060
990,37203.776000,204.898,7.027,140.288,410.372,-267.303,222.447,59.220,-46.600,-282.060
991,37203.816000,205.881,4.016,155.648,414.306,-256.279,221.693,40.220,-55.600,-246.060
992,37203.858000,207.846,2.008,146.432,420.943,-255.275,221.724,70.220,-23.600,-237.060
993,37203.898000,203.916,1.004,142.336,423.848,-250.618,223.817,48.220,-49.600,-250.060
994,37203.938000,203.916,10.039,143.360,428.729,-239.562,224.060,74.220,-28.600,-242.060
995,37203.977000,206.864,20.078,143.360,432.503,-240.408,225.042,73.220,-16.600,-217.060
996,37204.3000,207.846,13.051,144.384,435.417,-234.874,225.164,88.220,4.400,-189.060
997,37204.41000,206.864,23.090,141.312,434.560,-228.454,226.294,92.220,23.400,-158.060
998,37204.82000,203.916,26.102,138.240,439.387,-221.121,223.473,30.220,-12.600,-131.060
999,37204.116000,208.829,27.106,141.312,437.551,-217.403,227.528,23.220,5.400,-98.060
1000,37204.154000,208.829,35.137,129.024,441.344,-216.496,224.569,40.220,-49.600,-64.060
1001,37204.194000,215.708,29.114,138.240,439.444,-217.378,227.531,80.220,1.400,-16.060
1002,37204.214000,219.639,37.145,139.264,440.420,-215.475,230.557,143.220,-47.600,12.940
1003,37204.261000,207.846,29.114,135.168,441.389,-213.650,229.603,155.220,-25.600,46.940
1004,37204.301000,207.846,35.137,132.096,442.225,-221.863,230.424,148.220,-42.600,18.940
1005,37204.338000,207.846,40.157,133.120,443.264,-215.379,233.547,118.220,-28.600,14.940
1006,37204.383000,215.708,44.173,136.192,445.146,-216.251,234.526,79.220,-38.600,4.940
1007,37204.416000,216.691,37.145,136.192,445.239,-209.000,230.702,13.220,-55.600,-18.060
1008,37204.458000,222.587,36.141,135.168,446.112,-214.464,231.582,44.220,-39.600,1.940
1009,37204.478000,213.743,33.129,131.072,445.251,-208.083,230.722,94.220,-90.600,23.940
1010,37204.518000,209.812,33.129,125.952,446.185,-208.987,230.704,115.220,-86.600,24.940
1011,37204.558000,208.829,42.165,122.880,449.981,-208.040,229.735,113.220,-89.600,16.940
1012,37204.598000,209.812,45.176,119.808,447.130,-208.994,229.710,59.220,-113.600,22.940
1013,37204.644000,208.829,45.176,128.000,451.875,-207.236,222.792,-33.780,-155.600,14.940
1014,37204.681000,207.846,41.161,125.952,449.968,-208.197,221.775,-32.780,-220.600,28.940
1015,37204.701000,206.864,42.165,119.808,450.817,-214.714,215.669,-18.780,-256.600,48.940
1016,37204.741000,210.795,40.157,124.928,455.560,-212.976,207.756,-62.780,-259.600,45.940
