Sample, Time, ACCX, ACCY, ACCZ, MAGX, MAGY, MAGZ, GYRX, GYRY, GYRZ
0,37408.526000,228.484,-33.129,107.520,382.234,-311.992,156.803,-138.780,56.400,2.940
1,37408.563000,227.501,-35.137,104.448,383.064,-320.264,154.639,-119.780,8.400,11.940
2,37408.603000,224.553,-37.145,100.352,384.018,-319.394,151.675,-109.780,-36.600,21.940
3,37408.643000,223.570,-39.153,102.400,380.206,-321.296,150.634,-114.780,-29.600,12.940
4,37408.683000,223.570,-42.165,102.400,383.106,-316.697,149.742,-119.780,0.400,-16.060
5,37408.703000,221.605,-41.161,101.376,382.190,-314.039,145.819,-98.780,11.400,-41.060
6,37408.743000,228.484,-43.169,102.400,383.090,-317.652,147.732,-90.780,20.400,-62.060
7,37408.783000,227.501,-43.169,99.328,391.603,-317.578,145.757,-46.780,-9.600,-94.060
8,37408.823000,227.501,-39.153,97.280,385.997,-312.196,143.874,-43.780,13.400,-107.060
9,37408.863000,225.536,-43.169,100.352,386.002,-312.137,146.859,-10.780,-7.600,-160.060
10,37408.903000,231.432,-40.157,96.256,394.589,-306.586,144.006,-0.780,-8.600,-142.060
11,37408.943000,230.449,-36.141,99.328,396.443,-309.329,142.956,-16.780,40.400,-166.060
12,37408.963000,232.415,-30.118,96.256,401.306,-300.027,147.140,3.220,28.400,-207.060
13,37409.6000,232.415,-30.118,97.280,403.259,-295.441,146.246,-5.780,37.400,-207.060
14,37409.44000,231.432,-27.106,100.352,406.076,-297.197,148.202,12.220,39.400,-182.060
15,37409.86000,231.432,-26.102,98.304,408.064,-289.902,145.376,9.220,42.400,-159.060
16,37409.126000,230.449,-22.086,103.424,410.978,-284.367,145.498,20.220,47.400,-166.060
17,37409.166000,230.449,-20.078,103.424,413.834,-283.355,148.508,40.220,52.400,-144.060
18,37409.186000,226.518,-15.059,104.448,416.553,-292.420,151.303,52.220,64.400,-140.060
19,37409.223000,229.466,-14.055,109.568,421.477,-278.557,154.589,76.220,90.400,-119.060
20,37409.263000,225.536,-8.031,109.568,416.688,-283.142,157.468,119.220,75.400,-92.060
21,37409.302000,224.553,-5.020,115.712,423.469,-271.983,161.694,134.220,79.400,-83.060
22,37409.347000,222.587,0.000,109.568,424.422,-271.892,165.676,175.220,66.400,-43.060
23,37409.386000,229.466,4.016,117.760,418.740,-272.786,170.622,161.220,132.400,-27.060
24,37409.413000,230.449,11.043,117.760,422.641,-264.451,172.794,181.220,166.400,-22.060
25,37409.448000,223.570,12.047,129.024,420.710,-268.004,179.678,202.220,312.400,38.940
26,37409.487000,221.605,11.043,120.832,415.042,-268.742,192.584,170.220,302.400,37.940
27,37409.527000,221.605,14.055,115.712,414.171,-264.018,200.641,118.220,354.400,15.940
28,37409.562000,213.743,4.016,119.808,411.294,-267.583,207.523,74.220,271.400,8.940
29,37409.602000,223.570,13.051,114.688,407.499,-268.510,209.487,19.220,340.400,6.940
30,37409.642000,214.726,15.059,125.952,405.684,-263.779,218.537,25.220,309.400,20.940
31,37409.662000,219.639,17.067,124.928,401.775,-273.750,226.276,-75.780,288.400,10.940
32,37409.702000,211.777,13.051,130.048,400.011,-264.575,228.458,-158.780,315.400,17.940
33,37409.743000,206.864,10.039,138.240,396.025,-280.062,235.085,-131.780,247.400,6.940
34,37409.783000,203.916,15.059,137.216,395.150,-274.617,233.210,-111.780,214.400,-14.060
35,37409.823000,199.002,3.012,148.480,389.563,-268.240,235.327,-108.780,212.400,2.940
36,37409.864000,192.123,9.035,153.600,388.557,-272.794,237.218,-86.780,111.400,-35.060
37,37409.891000,195.071,13.051,153.600,387.595,-273.762,235.206,-138.780,70.400,-97.060
38,37409.927000,204.898,11.043,156.672,388.526,-274.705,233.198,-224.780,51.400,-78.060
39,37409.967000,232.415,7.027,165.888,383.789,-274.826,230.205,-237.780,59.400,-24.060
40,37410.4000,205.881,-9.035,151.552,383.598,-288.607,227.922,-171.780,-25.600,48.940
41,37410.44000,190.157,-23.090,144.384,386.521,-282.195,226.074,-109.780,-28.600,117.940
42,37410.84000,195.071,-26.102,151.552,378.787,-294.225,224.812,-120.780,-16.600,151.940
43,37410.104000,200.967,-25.098,142.336,374.074,-292.533,220.862,-71.780,-98.600,133.940
44,37410.144000,203.916,-29.114,147.456,372.042,-302.655,219.649,-116.780,-61.600,85.940
45,37410.184000,203.916,-31.122,151.552,376.832,-298.051,217.765,-115.780,-59.600,45.940
46,37410.224000,204.898,-39.153,154.624,372.080,-299.127,212.762,-133.780,-65.600,5.940
47,37410.264000,200.967,-51.200,150.528,372.047,-301.057,207.747,-119.780,-75.600,41.940
48,37410.312000,199.985,-44.173,154.624,371.025,-306.566,207.629,-87.780,-95.600,-4.060
49,37410.356000,201.950,-48.188,151.552,373.809,-310.252,204.570,-77.780,-167.600,-5.060
50,37410.363000,204.898,-52.204,148.480,378.670,-300.209,199.818,-82.780,-198.600,-40.060
51,37410.417000,208.829,-48.188,143.360,381.369,-309.509,190.672,-53.780,-249.600,-108.060
52,37410.444000,206.864,-50.196,136.192,385.215,-304.898,189.782,-2.780,-276.600,-116.060
53,37410.484000,210.795,-44.173,134.144,389.976,-302.184,184.873,77.220,-312.600,-111.060
54,37410.527000,207.846,-37.145,128.000,391.923,-297.676,179.999,144.220,-374.600,-110.060
55,37410.567000,202.933,-31.122,116.736,394.817,-293.136,176.121,172.220,-385.600,-87.060
56,37410.587000,205.881,-25.098,118.784,400.537,-289.494,171.234,173.220,-367.600,-42.060
57,37410.624000,238.311,-23.090,123.904,402.360,-294.128,167.160,137.220,-311.600,48.940
58,37410.664000,232.415,-23.090,114.688,405.243,-290.504,163.262,144.220,-310.600,65.940
59,37410.703000,228.484,-19.075,107.520,402.436,-287.852,160.331,114.220,-310.600,82.940
60,37410.744000,216.691,-14.055,91.136,405.111,-299.743,159.087,94.220,-253.600,25.940
61,37410.784000,213.743,-6.024,90.112,407.190,-285.216,151.442,27.220,-227.600,-42.060
62,37410.804000,220.622,-8.031,89.088,411.814,-292.580,146.319,32.220,-225.600,-61.060
63,37410.851000,234.380,-13.051,101.376,411.914,-285.251,146.475,3.220,-150.600,-55.060
64,37410.886000,247.155,-19.075,109.568,411.866,-288.117,140.446,7.220,-90.600,-32.060
65,37410.926000,241.259,-13.051,111.616,416.678,-282.499,143.557,66.220,-32.600,-30.060
66,37410.966000,238.311,-7.027,106.496,411.894,-286.245,142.475,78.220,-14.600,-15.060
67,37411.3000,230.449,-8.031,106.496,412.883,-283.426,145.521,88.220,-12.600,-36.060
68,37411.44000,229.466,-3.012,105.472,413.769,-287.975,146.420,114.220,-0.600,-53.060
69,37411.72000,227.501,-1.004,102.400,413.906,-277.897,146.635,115.220,-15.600,-38.060
70,37411.106000,222.587,-1.004,100.352,416.734,-278.756,147.615,164.220,-9.600,17.940
71,37411.148000,228.484,1.004,103.424,416.689,-282.362,150.522,166.220,-2.600,17.940
72,37411.188000,232.415,-2.008,102.400,412.962,-278.650,155.569,136.220,11.400,91.940
73,37411.223000,234.380,6.024,101.376,412.896,-283.270,153.481,142.220,15.400,58.940
74,37411.263000,235.363,0.000,101.376,411.980,-281.392,156.504,90.220,26.400,72.940
75,37411.283000,231.432,0.000,94.208,410.005,-287.771,159.349,85.220,16.400,60.940
76,37411.329000,228.484,-1.004,99.328,409.175,-279.499,161.513,29.220,11.400,43.940
77,37411.369000,228.484,-3.012,96.256,406.223,-287.782,161.332,7.220,29.400,37.940
78,37411.409000,228.484,-8.031,97.280,409.150,-281.332,161.474,-39.780,40.400,19.940
79,37411.449000,227.501,-14.055,97.280,407.132,-290.518,161.276,-79.780,69.400,24.940
80,37411.489000,226.518,-15.059,105.472,405.261,-288.750,159.321,-130.780,112.400,12.940
81,37411.529000,227.501,-16.063,108.544,404.359,-285.936,163.358,-171.780,119.400,21.940
82,37411.549000,223.570,-27.106,106.496,402.361,-293.348,160.214,-222.780,128.400,6.940
83,37411.589000,237.328,-30.118,110.592,403.293,-294.271,159.201,-249.780,186.400,36.940
84,37411.629000,230.449,-32.125,113.664,396.685,-293.404,161.199,-275.780,217.400,19.940
85,37411.664000,228.484,-35.137,107.520,393.844,-293.461,160.199,-240.780,179.400,49.940
86,37411.706000,224.553,-35.137,123.904,391.894,-298.008,163.083,-183.780,157.400,-24.060
87,37411.746000,216.691,-33.129,116.736,394.744,-297.074,162.112,-61.780,95.400,-11.060
88,37411.772000,213.743,-34.133,115.712,391.857,-300.756,163.024,38.220,95.400,13.940
89,37411.806000,209.812,-30.118,116.736,392.808,-300.685,166.011,70.220,70.400,22.940
90,37411.853000,218.656,-22.086,113.664,389.065,-297.928,169.048,147.220,52.400,73.940
91,37411.889000,224.553,-29.114,110.592,389.947,-303.296,174.903,124.220,111.400,138.940
92,37411.929000,224.553,-31.122,128.000,381.422,-304.266,177.854,51.220,221.400,157.940
93,37411.969000,216.691,-35.137,126.976,379.488,-307.858,182.748,129.220,165.400,180.940
94,37412.2000,220.622,-29.114,121.856,371.042,-303.292,187.806,132.220,177.400,168.940
95,37412.24000,214.726,-30.118,128.000,369.104,-306.923,190.709,130.220,131.400,142.940
96,37412.64000,214.726,-32.125,126.976,367.209,-307.747,196.657,169.220,47.400,46.940
97,37412.105000,209.812,-22.086,132.096,369.118,-306.767,198.670,125.220,104.400,6.940
98,37412.147000,214.726,-23.090,128.000,372.956,-303.013,200.745,79.220,26.400,-23.060
99,37412.187000,214.726,-32.125,133.120,368.162,-307.656,200.639,16.220,45.400,-49.060
100,37412.227000,213.743,-22.086,129.024,371.094,-301.147,203.765,-50.780,3.400,-70.060
101,37412.247000,219.639,-22.086,124.928,371.065,-303.019,201.736,-93.780,-0.600,-76.060
102,37412.289000,214.726,-30.118,134.144,375.831,-300.247,199.813,-94.780,-55.600,-86.060
103,37412.326000,211.777,-19.075,124.928,372.962,-302.175,196.784,-43.780,-104.600,-105.060
104,37412.366000,213.743,-22.086,126.976,380.549,-300.340,191.861,-43.780,-112.600,-104.060
105,37412.405000,212.760,-20.078,124.928,383.462,-294.826,190.988,-42.780,-127.600,-131.060
106,37412.445000,215.708,-19.075,128.000,383.407,-298.549,187.925,-26.780,-153.600,-123.060
107,37412.465000,220.622,-13.051,119.808,393.919,-290.283,182.148,28.220,-211.600,-102.060
108,37412.505000,226.518,-16.063,118.784,392.958,-291.231,181.132,2.220,-174.600,-71.060
109,37412.547000,233.397,-15.059,111.616,395.842,-287.588,178.230,34.220,-157.600,-35.060
110,37412.589000,229.466,-20.078,112.640,396.693,-294.086,173.120,-2.780,-127.600,-28.060
111,37412.629000,226.518,-14.055,114.688,396.685,-294.943,176.085,-9.780,-117.600,-27.060
112,37412.671000,226.518,-17.067,114.688,398.683,-286.751,172.284,37.220,-97.600,-17.060
113,37412.691000,220.622,-13.051,117.760,399.551,-292.275,170.179,25.220,-57.600,-13.060
114,37412.731000,225.536,-12.047,112.640,402.480,-285.805,171.315,29.220,-41.600,13.940
115,37412.766000,221.605,-16.063,114.688,404.288,-292.153,173.172,21.220,-16.600,11.940
116,37412.805000,228.484,-25.098,114.688,401.533,-285.817,171.314,13.220,-10.600,37.940
117,37412.857000,230.449,-30.118,117.760,396.791,-286.776,172.281,83.220,-34.600,9.940
118,37412.890000,224.553,-31.122,115.712,399.606,-288.551,173.242,181.220,-51.600,-44.060
119,37412.930000,227.501,-6.024,99.328,400.592,-285.771,174.297,5.220,-44.600,-88.060
120,37412.952000,227.501,-8.031,102.400,403.508,-279.438,168.468,-164.780,-66.600,-197.060
121,37412.986000,226.518,-10.039,106.496,408.281,-276.588,170.525,-138.780,-66.600,-198.060
122,37413.26000,221.605,-12.047,110.592,410.112,-280.364,163.485,-121.780,-86.600,-183.060
123,37413.71000,226.518,-11.043,107.520,415.892,-272.161,157.701,-75.780,-58.600,-157.060
124,37413.109000,223.570,-10.039,107.520,419.627,-275.775,157.629,-44.780,-61.600,-137.060
125,37413.151000,226.518,-2.008,112.640,421.602,-269.396,154.784,-7.780,-47.600,-137.060
126,37413.171000,225.536,1.004,112.640,423.472,-271.184,155.743,-20.780,-66.600,-114.060
127,37413.211000,225.536,6.024,105.472,427.289,-268.444,152.823,-16.780,-70.600,-94.060
128,37413.246000,228.484,5.020,106.496,429.257,-262.922,152.944,-122.780,-56.600,-92.060
129,37413.291000,229.466,0.000,109.568,432.084,-263.021,145.984,-142.780,-53.600,-67.060
130,37413.326000,232.415,-2.008,110.592,425.373,-269.522,145.835,-127.780,-55.600,-46.060
131,37413.366000,225.536,-4.016,111.616,427.326,-264.935,144.941,-63.780,-19.600,-25.060
132,37413.387000,227.501,-2.008,110.592,430.199,-262.189,143.015,2.220,12.400,-1.060
133,37413.427000,226.518,-2.008,111.616,429.174,-268.516,147.852,59.220,22.400,31.940
134,37413.468000,224.553,-2.008,108.544,432.063,-264.814,147.935,55.220,7.400,27.940
135,37413.508000,226.518,-3.012,111.616,429.175,-268.497,148.847,41.220,37.400,30.940
136,37413.548000,225.536,-4.016,114.688,428.262,-266.580,153.859,43.220,22.400,55.940
137,37413.588000,225.536,-10.039,113.664,421.626,-267.583,153.828,71.220,63.400,84.940
138,37413.636000,225.536,-2.008,115.712,420.679,-267.596,153.826,94.220,44.400,76.940
139,37413.649000,227.501,-3.012,108.544,423.511,-268.416,156.797,81.220,0.400,73.940
140,37413.690000,227.501,-4.016,105.472,424.465,-267.546,153.833,39.220,11.400,45.940
141,37413.746000,226.518,-7.027,113.664,421.511,-276.627,159.603,5.220,29.400,36.940
142,37413.774000,225.536,-9.035,112.640,415.878,-273.096,156.686,38.220,9.400,61.940
143,37413.808000,228.484,-12.047,109.568,418.636,-279.394,160.535,35.220,2.400,35.940
144,37413.848000,226.518,-12.047,107.520,414.837,-280.379,159.513,35.220,22.400,24.940
145,37413.868000,228.484,-8.031,109.568,415.905,-271.245,157.720,34.220,26.400,19.940
146,37413.909000,226.518,-8.031,110.592,420.541,-278.453,160.558,6.220,24.400,10.940
147,37413.951000,226.518,-7.027,110.592,419.623,-276.594,162.585,-9.780,27.400,21.940
148,37413.990000,229.466,-10.039,112.640,416.827,-273.824,165.624,-16.780,30.400,36.940
149,37414.31000,224.553,-14.055,110.592,413.961,-275.714,164.585,13.220,39.400,49.940
150,37414.72000,224.553,-6.024,113.664,414.890,-276.676,161.582,19.220,50.400,35.940
151,37414.92000,225.536,-5.020,118.784,413.952,-276.591,166.555,63.220,46.400,54.940
152,37414.128000,223.570,-4.016,114.688,414.923,-274.746,166.596,43.220,21.400,32.940
153,37414.174000,226.518,-7.027,113.664,410.093,-282.118,167.427,36.220,9.400,34.940
154,37414.208000,224.553,-5.020,110.592,412.914,-283.835,171.373,4.220,13.400,29.940
155,37414.252000,226.518,-10.039,113.664,412.957,-280.248,167.471,-8.780,7.400,20.940
156,37414.299000,226.518,-11.043,110.592,412.937,-282.022,170.417,-4.780,-4.600,15.940
157,37414.327000,226.518,-7.027,111.616,412.009,-280.280,166.474,8.220,-2.600,9.940
158,37414.348000,225.536,-10.039,112.640,411.991,-282.035,170.415,-0.780,2.400,10.940
159,37414.392000,227.501,-11.043,109.568,408.187,-283.079,166.409,-13.780,-0.600,15.940
160,37414.432000,226.518,-5.020,109.568,411.088,-278.461,166.511,1.220,-19.600,5.940
161,37414.472000,227.501,-8.031,106.496,411.052,-281.189,167.448,-9.780,0.400,38.940
162,37414.510000,226.518,-4.016,110.592,412.011,-280.261,167.469,-24.780,12.400,-3.060
163,37414.563000,224.553,-4.016,112.640,411.015,-283.938,167.389,-16.780,13.400,20.940
164,37414.572000,224.553,-2.008,110.592,409.090,-286.653,170.312,-23.780,28.400,25.940
165,37414.612000,222.587,-4.016,113.664,407.219,-284.884,168.358,-18.780,22.400,33.940
166,37414.652000,224.553,-4.016,113.664,410.054,-284.886,166.373,-31.780,29.400,41.940
167,37414.687000,223.570,-5.020,113.664,406.181,-291.349,166.230,-27.780,-5.600,58.940
168,37414.727000,227.501,-9.035,117.760,401.491,-288.624,168.270,-3.780,7.400,98.940
169,37414.774000,226.518,-14.055,118.784,404.267,-293.167,168.177,16.220,-5.600,106.940
170,37414.808000,222.587,-12.047,115.712,399.534,-293.249,167.174,62.220,-27.600,121.940
171,37414.828000,224.553,-13.051,114.688,394.838,-290.583,166.229,80.220,-31.600,135.940
172,37414.875000,227.501,-13.051,118.784,390.049,-295.167,169.108,88.220,-35.600,123.940
173,37414.909000,216.691,-18.071,114.688,392.824,-299.730,168.021,89.220,-61.600,142.940
174,37414.952000,212.760,-14.055,111.616,392.756,-305.149,171.884,69.220,-73.600,99.940
175,37415.8000,218.656,-22.086,108.544,389.912,-305.245,168.894,9.220,-79.600,103.940
176,37415.29000,222.587,-30.118,109.568,387.119,-301.657,166.977,10.220,-84.600,104.940
177,37415.49000,229.466,-34.133,111.616,382.249,-311.816,165.759,-24.780,-69.600,101.940
178,37415.92000,227.501,-34.133,117.760,389.793,-313.568,164.738,-28.780,-52.600,80.940
179,37415.132000,239.294,-35.137,117.760,383.245,-308.139,165.838,-36.780,13.400,107.940
180,37415.172000,236.345,-33.129,112.640,386.974,-311.832,161.787,26.220,-27.600,89.940
181,37415.213000,233.397,-29.114,103.424,382.261,-310.900,165.778,36.220,-48.600,85.940
182,37415.248000,232.415,-28.110,98.304,380.283,-317.319,166.633,22.220,-53.600,84.940
183,37415.268000,224.553,-36.141,94.208,379.333,-317.370,164.642,17.220,-63.600,93.940
184,37415.308000,222.587,-35.137,91.136,377.376,-321.995,163.546,25.220,-77.600,99.940
185,37415.348000,224.553,-37.145,88.064,373.594,-322.006,165.529,42.220,-51.600,126.940
186,37415.389000,226.518,-34.133,88.064,373.613,-320.252,161.588,23.220,-22.600,75.940
187,37415.430000,226.518,-38.149,88.064,368.756,-329.476,161.384,-10.780,7.400,78.940
188,37415.470000,223.570,-41.161,88.064,371.647,-325.754,162.462,-15.780,53.400,78.940
189,37415.513000,231.432,-39.153,88.064,366.894,-327.610,164.405,-9.780,83.400,65.940
190,37415.534000,236.345,-43.169,86.016,365.012,-326.739,163.426,22.220,95.400,95.940
191,37415.568000,235.363,-45.176,88.064,363.081,-330.292,170.310,55.220,128.400,88.940
192,37415.608000,231.432,-46.180,83.968,364.021,-331.117,174.273,101.220,115.400,89.940
193,37415.648000,225.536,-45.176,80.896,360.263,-329.315,175.300,119.220,125.400,33.940
194,37415.688000,232.415,-45.176,84.992,358.377,-329.262,179.277,127.220,180.400,26.940
195,37415.735000,226.518,-48.188,82.944,355.512,-331.912,186.179,249.220,146.400,17.940
196,37415.749000,228.484,-35.137,77.824,356.595,-322.601,193.341,282.220,116.400,-84.060
197,37415.792000,229.466,-32.125,88.064,356.572,-325.174,202.238,263.220,168.400,-142.060
198,37415.839000,241.259,-20.078,109.568,357.668,-314.947,209.420,271.220,175.400,-208.060
199,37415.873000,259.931,-20.078,116.736,362.390,-315.762,211.399,190.220,141.400,-216.060
200,37415.913000,250.104,-18.071,136.192,364.355,-311.039,217.470,147.220,81.400,-211.060
201,37415.948000,252.069,-9.035,140.288,363.530,-302.709,222.619,84.220,56.400,-174.060
202,37415.968000,230.449,-13.051,154.624,363.519,-303.605,223.595,-12.780,94.400,-178.060
203,37416.8000,219.639,-18.071,152.576,366.411,-299.864,225.668,-24.780,20.400,-130.060
204,37416.53000,193.106,-20.078,143.360,365.428,-302.625,225.608,23.220,-28.600,-60.060
205,37416.93000,167.555,-21.082,147.456,370.181,-300.770,223.665,22.220,-14.600,-33.060
206,37416.134000,193.106,-17.067,163.840,367.284,-305.329,226.547,28.220,68.400,11.940
207,37416.168000,205.881,-14.055,172.032,367.366,-299.754,230.645,109.220,48.400,27.940
208,37416.208000,200.967,-11.043,163.840,367.255,-307.980,231.464,112.220,-9.600,7.940
209,37416.228000,202.933,-13.051,172.032,366.361,-304.308,232.536,90.220,-11.600,-6.060
210,37416.268000,198.019,-6.024,162.816,371.181,-297.813,233.676,83.220,-64.600,-48.060
211,37416.308000,182.296,-19.075,161.792,368.219,-306.993,234.471,22.220,-67.600,-67.060
212,37416.361000,195.071,-15.059,168.960,372.983,-304.240,231.552,32.220,-98.600,-72.060
213,37416.389000,193.106,-7.027,155.648,370.266,-295.156,229.752,90.220,-144.600,-65.060
214,37416.440000,198.019,-2.008,153.600,375.945,-295.061,230.757,119.220,-170.600,-76.060
215,37416.448000,200.967,0.000,157.696,375.058,-290.532,228.863,152.220,-211.600,-89.060
216,37416.489000,192.123,6.024,143.360,382.634,-289.594,224.916,157.220,-257.600,-92.060
217,37416.529000,193.106,4.016,135.168,385.465,-289.654,219.946,92.220,-223.600,-55.060
218,37416.569000,221.605,2.008,147.456,391.234,-283.127,222.082,46.220,-123.600,34.940
219,37416.623000,219.639,6.024,144.384,389.335,-283.230,218.099,36.220,-104.600,61.940
220,37416.650000,220.622,19.075,112.640,387.349,-289.727,214.974,-39.780,-110.600,49.940
221,37416.670000,222.587,15.059,103.424,388.341,-286.108,212.068,-229.780,-42.600,18.940
222,37416.712000,228.484,2.008,110.592,388.206,-295.387,205.903,-381.780,-61.600,-25.060
223,37416.753000,233.397,-12.047,101.376,385.403,-291.916,198.015,-424.780,-9.600,64.940
224,37416.793000,235.363,-24.094,113.664,387.197,-298.440,190.917,-384.780,-39.600,109.940
225,37416.833000,243.225,-20.078,111.616,385.238,-303.085,188.826,-402.780,8.400,176.940
226,37416.873000,236.345,-44.173,113.664,380.415,-308.839,178.750,-410.780,26.400,254.940
227,37416.913000,225.536,-49.192,106.496,377.395,-321.781,174.491,-395.780,39.400,229.940
228,37416.933000,214.726,-46.180,105.472,375.414,-327.459,166.410,-341.780,-11.600,205.940
229,37416.974000,212.760,-46.180,104.448,366.839,-331.333,161.342,-254.780,-32.600,199.940
230,37417.14000,222.587,-48.188,99.328,368.683,-334.953,162.262,-94.780,-88.600,168.940
231,37417.54000,229.466,-48.188,102.400,369.492,-344.239,155.103,-65.780,-101.600,121.940
232,37417.94000,232.415,-49.192,96.256,370.550,-336.001,154.286,-61.780,-132.600,71.940
233,37417.172000,225.536,-48.188,94.208,372.337,-343.363,151.148,-16.780,-148.600,56.940
234,37417.180000,228.484,-41.161,90.112,370.504,-338.847,149.252,44.220,-153.600,16.940
235,37417.195000,232.415,-43.169,90.112,369.567,-337.982,147.280,76.220,-132.600,20.940
236,37417.237000,225.536,-45.176,84.992,373.388,-335.203,146.350,65.220,-99.600,-10.060
237,37417.270000,217.674,-43.169,80.896,378.133,-334.205,147.373,52.220,-75.600,-38.060
238,37417.318000,231.432,-51.200,86.016,375.255,-337.010,146.314,43.220,12.400,-21.060
239,37417.376000,227.501,-52.204,88.064,376.175,-338.850,145.282,98.220,38.400,-72.060
240,37417.383000,222.587,-50.196,90.112,375.290,-335.061,152.323,63.220,132.400,-120.060
241,37417.422000,233.397,-43.169,103.424,378.293,-323.094,153.577,114.220,146.400,-148.060
242,37417.451000,201.950,-40.157,82.944,383.033,-322.934,158.561,122.220,69.400,-218.060
243,37417.492000,229.466,-38.149,102.400,388.846,-313.581,164.736,109.220,257.400,-262.060
244,37417.533000,228.484,-30.118,99.328,392.643,-313.394,171.708,175.220,143.400,-295.060
245,37417.574000,240.276,-24.094,115.712,391.755,-309.644,176.760,200.220,268.400,-241.060
246,37417.614000,243.225,-7.027,135.168,391.086,-290.243,186.124,148.220,290.400,-306.060
247,37417.634000,220.622,3.012,115.712,393.993,-285.566,189.211,92.220,259.400,-263.060
248,37417.674000,246.173,-4.016,122.880,394.977,-283.565,197.213,-22.780,304.400,-187.060
249,37417.714000,237.328,9.035,117.760,401.678,-277.961,198.336,-83.780,236.400,-242.060
250,37417.754000,235.363,10.039,110.592,399.728,-282.508,201.221,-47.780,188.400,-175.060
251,37417.792000,232.415,10.039,104.448,403.562,-279.573,208.251,36.220,139.400,-140.060
252,37417.832000,231.432,11.043,101.376,401.823,-268.566,210.472,70.220,84.400,-152.060
253,37417.852000,218.656,17.067,96.256,405.593,-269.471,208.469,73.220,50.400,-102.060
254,37417.892000,224.553,10.039,97.280,406.622,-263.864,213.563,24.220,19.400,-29.060
255,37417.932000,229.466,13.051,98.304,404.617,-272.134,213.384,-6.780,48.400,-21.060
256,37417.971000,235.363,24.094,99.328,407.483,-270.245,214.423,-71.780,44.400,-83.060
257,37418.18000,229.466,24.094,102.400,406.599,-265.677,214.519,-88.780,14.400,-79.060
258,37418.59000,226.518,25.098,100.352,409.445,-264.781,211.559,-110.780,-20.600,-109.060
259,37418.94000,213.743,33.129,95.232,407.524,-266.678,209.526,-145.780,-36.600,-88.060
260,37418.114000,205.881,25.098,91.136,408.469,-266.685,208.533,-139.780,-105.600,-31.060
261,37418.153000,229.466,17.067,107.520,411.285,-267.681,202.548,-217.780,-51.600,37.940
262,37418.194000,274.672,12.047,125.952,407.351,-277.945,195.361,-249.780,-34.600,68.940
263,37418.232000,276.637,-10.039,139.264,405.377,-283.544,191.261,-200.780,-75.600,154.940
264,37418.272000,242.242,-16.063,128.000,404.336,-290.048,187.142,-164.780,-113.600,185.940
265,37418.312000,239.294,-14.055,144.384,404.260,-295.564,186.030,-179.780,-70.600,166.940
266,37418.332000,199.985,-14.055,129.024,399.565,-292.118,178.139,-104.780,-199.600,81.940
267,37418.392000,198.019,-17.067,131.072,400.406,-299.493,175.000,-67.780,-196.600,25.940
268,37418.415000,192.123,-26.102,124.928,399.380,-305.061,171.896,-80.780,-203.600,28.940
269,37418.455000,206.864,-46.180,128.000,398.464,-302.404,167.972,-120.780,-131.600,103.940
270,37418.495000,212.760,-52.204,139.264,398.392,-307.101,161.904,-164.780,-72.600,106.940
271,37418.534000,219.639,-49.192,136.192,394.562,-309.978,157.859,-113.780,-89.600,132.940
272,37418.555000,213.743,-40.157,139.264,395.509,-309.965,157.861,-105.780,-3.600,101.940
273,37418.602000,207.846,-29.114,139.264,390.711,-314.647,155.765,-36.780,16.400,60.940
274,37418.635000,202.933,-30.118,133.120,388.710,-322.879,157.576,11.220,-7.600,62.940
275,37418.675000,191.140,-37.145,146.432,386.719,-330.213,158.411,-28.780,-8.600,48.940
276,37418.715000,191.140,-42.165,143.360,390.563,-325.622,156.525,-67.780,-3.600,93.940
277,37418.752000,198.019,-52.204,134.144,387.746,-323.866,154.569,-77.780,64.400,180.940
278,37418.792000,209.812,-58.227,150.528,382.903,-332.154,155.380,47.220,-90.600,157.940
279,37418.812000,197.036,-44.173,130.048,380.070,-331.353,151.415,65.220,-165.600,120.940
280,37418.852000,208.829,-53.208,142.336,383.854,-331.323,150.426,68.220,-136.600,97.940
281,37418.892000,201.950,-53.208,143.360,380.058,-332.270,151.395,63.220,-184.600,43.940
282,37418.933000,203.916,-60.235,142.336,379.080,-334.192,147.374,48.220,-137.600,105.940
283,37418.973000,205.881,-51.200,138.240,379.094,-333.257,148.389,106.220,-194.600,87.940
284,37419.13000,199.985,-61.239,128.000,382.782,-339.737,142.289,61.220,-152.600,64.940
285,37419.38000,212.760,-64.251,126.976,381.935,-332.420,142.443,99.220,-121.600,36.940
286,37419.77000,223.570,-60.235,110.592,383.780,-336.040,143.363,204.220,-132.600,11.940
287,37419.117000,217.674,-45.176,97.280,386.683,-331.403,144.461,259.220,-117.600,-25.060
288,37419.157000,221.605,-42.165,88.064,389.668,-321.190,149.656,312.220,-84.600,-34.060
289,37419.197000,256.000,-47.184,95.232,389.599,-326.609,153.519,327.220,-4.600,-7.060
290,37419.237000,261.896,-26.102,103.424,392.559,-318.228,158.675,323.220,-4.600,-89.060
291,37419.257000,257.965,-3.012,104.448,394.533,-312.629,162.776,292.220,31.400,-153.060
292,37419.297000,238.311,0.000,100.352,395.531,-308.932,163.850,219.220,30.400,-175.060
293,37419.332000,229.466,3.012,95.232,399.444,-300.461,172.988,152.220,28.400,-218.060
294,37419.372000,219.639,0.000,88.064,405.181,-295.845,171.106,116.220,-0.600,-178.060
295,37419.412000,217.674,-2.008,92.160,402.345,-295.843,173.091,87.220,35.400,-152.060
296,37419.452000,224.553,-8.031,97.280,404.309,-291.140,178.167,100.220,32.400,-14.060
297,37419.499000,237.328,-10.039,105.472,409.025,-292.032,176.166,67.220,54.400,33.940
298,37419.513000,234.380,-5.020,111.616,404.295,-292.075,177.152,27.220,38.400,-1.060
299,37419.553000,224.553,-5.020,92.160,408.141,-287.464,176.262,53.220,-73.600,-11.060
300,37419.595000,223.570,-2.008,88.064,406.186,-292.070,176.161,-6.780,-64.600,-62.060
301,37419.635000,231.432,-2.008,95.232,411.030,-283.762,176.345,-43.780,-48.600,-88.060
302,37419.680000,231.432,-3.012,100.352,410.986,-286.589,172.306,4.220,-104.600,-75.060
303,37419.723000,233.397,4.016,95.232,412.911,-283.874,169.383,46.220,-110.600,-64.060
304,37419.737000,229.466,4.016,100.352,410.941,-289.415,168.267,14.220,-53.600,-37.060
305,37419.777000,226.518,2.008,94.208,418.582,-283.877,165.412,31.220,-72.600,-10.060
306,37419.817000,225.536,2.008,93.184,411.038,-282.125,166.433,17.220,-46.600,-0.060
307,37419.852000,214.726,0.000,97.280,416.682,-284.759,168.375,-15.780,5.400,12.940
308,37419.894000,229.466,0.000,105.472,416.643,-287.527,167.321,-59.780,67.400,43.940
309,37419.935000,224.553,-7.027,105.472,411.893,-289.344,171.254,-56.780,84.400,138.940
310,37419.955000,201.950,-9.035,95.232,412.875,-286.603,170.319,-41.780,35.400,176.940
311,37419.993000,218.656,-10.039,96.256,408.960,-295.873,167.132,-124.780,136.400,169.940
312,37420.33000,210.795,-6.024,98.304,406.086,-298.619,169.059,-91.780,106.400,168.940
313,37420.73000,217.674,-12.047,96.256,398.468,-302.364,169.962,1.220,130.400,176.940
314,37420.114000,251.086,-12.047,124.928,395.719,-296.730,179.030,10.220,178.400,161.940
315,37420.157000,253.052,-26.102,120.832,388.097,-300.514,177.944,-11.780,100.400,226.940
316,37420.198000,255.017,-58.227,118.784,383.218,-311.531,179.691,-47.780,130.400,326.940
317,37420.218000,233.397,-49.192,93.184,377.492,-315.251,180.598,8.220,49.400,308.940
318,37420.252000,238.311,-36.141,91.136,371.766,-318.971,181.505,21.220,44.400,224.940
319,37420.292000,231.432,-39.153,95.232,372.730,-317.984,184.511,99.220,-7.600,174.940
320,37420.333000,236.345,-36.141,102.400,367.063,-317.162,183.526,124.220,-18.600,76.940
321,37420.373000,246.173,-28.110,91.136,366.048,-322.593,187.387,131.220,-30.600,44.940
322,37420.418000,227.501,-33.129,78.848,368.873,-323.491,186.378,100.220,-52.600,12.940
323,37420.438000,232.415,-35.137,77.824,368.862,-324.388,187.353,44.220,-5.600,3.940
324,37420.478000,228.484,-35.137,78.848,368.091,-311.575,187.625,46.220,-8.600,2.940
325,37420.513000,227.501,-31.122,77.824,367.917,-324.381,188.347,22.220,29.400,-2.060
326,37420.559000,231.432,-32.125,74.752,365.225,-313.464,186.586,60.220,10.400,12.940
327,37420.593000,232.415,-34.133,71.680,368.046,-315.181,190.532,35.220,35.400,5.940
328,37420.633000,224.553,-38.149,67.584,366.976,-324.335,191.330,51.220,21.400,15.940
329,37420.653000,213.743,-41.161,72.704,365.099,-323.405,193.337,50.220,47.400,2.940
330,37420.693000,218.656,-35.137,70.656,366.181,-313.334,192.558,130.220,11.400,-60.060
331,37420.733000,238.311,-29.114,77.824,364.274,-315.074,198.486,141.220,0.400,-178.060
332,37420.773000,257.965,-22.086,89.088,372.013,-302.987,202.733,135.220,-80.600,-195.060
333,37420.813000,303.171,-29.114,121.856,374.849,-302.988,200.748,102.220,-31.600,-178.060
334,37420.858000,287.447,-19.075,115.712,377.638,-306.615,200.675,138.220,-147.600,-162.060
335,37420.898000,266.810,-11.043,132.096,382.491,-297.430,198.888,-3.780,-17.600,-200.060
336,37420.927000,228.484,-20.078,114.688,385.273,-301.915,201.781,23.220,-110.600,-109.060
337,37420.963000,215.708,-31.122,101.376,383.438,-297.418,198.890,5.220,-135.600,-48.060
338,37420.994000,210.795,-23.090,116.736,386.286,-296.503,196.924,53.220,-91.600,-73.060
339,37421.33000,184.261,-18.071,107.520,389.098,-298.318,195.895,62.220,-167.600,-76.060
340,37421.79000,193.106,-8.031,107.520,391.921,-299.235,193.891,40.220,-111.600,-105.060
341,37421.113000,224.553,-10.039,146.432,394.780,-297.424,190.949,-10.780,-31.600,-102.060
342,37421.135000,214.726,-15.059,136.192,391.932,-298.339,192.915,45.220,-119.600,-35.060
343,37421.175000,212.760,-17.067,136.192,393.821,-298.353,190.928,54.220,-3.600,23.940
344,37421.214000,215.708,-19.075,144.384,390.987,-298.332,193.908,50.220,19.400,55.940
345,37421.254000,199.002,-17.067,140.288,388.979,-307.401,199.680,72.220,35.400,88.940
346,37421.294000,196.054,-14.055,139.264,389.117,-297.323,199.895,98.220,53.400,102.940
347,37421.333000,204.898,-10.039,141.312,388.051,-306.439,202.683,115.220,102.400,99.940
348,37421.373000,207.846,-7.027,144.384,386.249,-300.012,204.807,86.220,109.400,34.940
349,37421.394000,212.760,-6.024,143.360,382.424,-303.609,210.692,84.220,53.400,15.940
350,37421.434000,210.795,-6.024,132.096,381.495,-302.647,213.695,20.220,53.400,30.940
351,37421.473000,218.656,-7.027,134.144,382.434,-302.712,209.717,-47.780,43.400,25.940
352,37421.514000,214.726,-17.067,136.192,377.698,-302.834,206.723,-116.780,5.400,14.940
353,37421.554000,223.570,-7.027,139.264,381.319,-314.713,205.481,-141.780,24.400,15.940
354,37421.598000,215.708,-9.035,140.288,378.569,-308.318,206.608,-115.780,31.400,35.940
355,37421.618000,210.795,-5.020,134.144,378.619,-304.653,206.686,-119.780,40.400,44.940
356,37421.665000,216.691,-8.031,124.928,379.461,-312.028,203.546,-178.780,80.400,38.940
357,37421.700000,217.674,-14.055,108.544,376.656,-309.357,201.610,-252.780,60.400,42.940
358,37421.737000,215.708,-14.055,106.496,372.773,-315.937,195.496,-338.780,28.400,-19.060
359,37421.778000,225.536,-22.086,103.424,375.555,-319.642,191.443,-430.780,25.400,-50.060
360,37421.819000,257.965,-31.122,115.712,374.646,-316.146,183.559,-442.780,38.400,-47.060
361,37421.839000,262.879,-30.118,119.808,377.414,-320.787,178.491,-394.780,59.400,15.940
362,37421.875000,240.276,-46.180,108.544,373.531,-327.367,172.377,-402.780,55.400,114.940
363,37421.914000,227.501,-60.235,120.832,369.662,-333.011,167.278,-460.780,157.400,171.940
364,37421.959000,219.639,-69.271,112.640,367.742,-334.907,165.246,-315.780,101.400,191.940
365,37421.995000,199.002,-53.208,111.616,364.755,-345.139,159.056,-260.780,76.400,74.940
366,37422.35000,196.054,-43.169,102.400,367.626,-342.412,156.134,-182.780,-8.600,-15.060
367,37422.55000,201.950,-41.161,100.352,368.493,-347.955,153.034,-207.780,-23.600,-161.060
368,37422.95000,238.311,-42.165,118.784,373.389,-335.184,147.345,-181.780,-49.600,-203.060
369,37422.138000,232.415,-49.192,105.472,374.361,-333.339,147.385,-101.780,-110.600,-131.060
370,37422.178000,229.466,-54.212,98.304,377.079,-341.644,142.240,-75.780,-112.600,-45.060
371,37422.218000,227.501,-43.169,102.400,377.220,-330.748,137.498,-34.780,-103.600,-70.060
372,37422.258000,217.674,-41.161,94.208,380.952,-334.402,135.437,25.220,-144.600,-52.060
373,37422.298000,219.639,-47.184,96.256,381.022,-328.963,132.569,25.220,-119.600,-63.060
374,37422.318000,215.708,-41.161,94.208,381.069,-325.338,130.657,29.220,-121.600,-103.060
375,37422.358000,221.605,-48.188,94.208,383.899,-326.177,132.632,32.220,-114.600,-102.060
376,37422.413000,215.708,-45.176,95.232,387.656,-327.999,130.610,40.220,-104.600,-107.060
377,37422.437000,243.225,-47.184,100.352,391.547,-319.782,126.812,69.220,-49.600,-44.060
378,37422.475000,227.501,-47.184,96.256,392.436,-324.291,129.701,81.220,-80.600,-43.060
379,37422.515000,228.484,-45.176,100.352,394.378,-320.602,129.783,77.220,-23.600,-51.060
380,37422.535000,224.553,-42.165,100.352,392.501,-319.672,131.789,108.220,4.400,-94.060
381,37422.575000,214.726,-35.137,101.376,401.052,-316.850,129.872,132.220,-19.600,-155.060
382,37422.623000,199.985,-33.129,92.160,405.942,-305.696,135.090,124.220,-3.600,-204.060
383,37422.658000,239.294,-41.161,111.616,405.944,-305.676,136.085,91.220,144.400,-201.060
384,37422.699000,220.622,-22.086,89.088,413.664,-295.362,143.279,152.220,50.400,-306.060
385,37422.738000,236.345,-21.082,91.136,414.731,-287.007,148.431,144.220,177.400,-224.060
386,37422.759000,243.225,-10.039,106.496,417.662,-280.498,151.558,181.220,106.400,-245.060
387,37422.794000,238.311,2.008,99.328,418.654,-277.640,156.594,139.220,187.400,-222.060
388,37422.834000,266.810,2.008,115.712,421.667,-265.556,163.818,41.220,249.400,-180.060
389,37422.874000,232.415,18.071,98.304,420.699,-267.361,165.767,77.220,124.400,-221.060
390,37422.914000,254.035,20.078,100.352,426.368,-268.164,167.748,12.220,181.400,-177.060
391,37422.960000,240.276,17.067,96.256,429.326,-259.803,171.908,4.220,99.400,-169.060
392,37423.0,234.380,15.059,92.160,431.264,-256.172,169.005,66.220,25.400,-108.060
393,37423.28000,227.501,18.071,76.800,430.387,-251.526,173.081,77.220,6.400,-36.060
394,37423.63000,222.587,22.086,75.776,429.358,-257.892,175.928,70.220,8.400,16.940
395,37423.97000,239.294,20.078,77.824,429.453,-250.622,173.099,35.220,-3.600,41.940
396,37423.137000,242.242,28.110,86.016,424.764,-247.878,176.134,-22.780,46.400,-8.060
397,37423.184000,229.466,28.110,83.968,430.404,-250.551,176.086,-13.780,-27.600,-38.060
398,37423.219000,223.570,24.094,81.920,429.406,-254.247,175.011,-58.780,-16.600,-23.060
399,37423.239000,219.639,29.114,88.064,430.376,-252.422,174.056,-88.780,-36.600,-48.060
400,37423.279000,215.708,29.114,78.848,427.509,-254.331,172.022,-64.780,-95.600,-1.060
401,37423.319000,239.294,17.067,81.920,428.309,-264.494,166.834,-137.780,-55.600,100.940
402,37423.357000,278.603,20.078,109.568,428.379,-259.055,163.966,-175.780,-37.600,117.940
403,37423.399000,291.378,2.008,118.784,420.604,-273.872,160.655,-161.780,-65.600,203.940
404,37423.439000,271.724,-2.008,115.712,414.916,-274.064,154.675,-57.780,-172.600,274.940
405,37423.460000,245.190,-8.031,111.616,417.706,-277.672,155.597,-28.780,-150.600,267.940
406,37423.519000,229.466,-14.055,108.544,414.725,-287.845,152.392,24.220,-202.600,215.940
407,37423.537000,209.812,-19.075,106.496,407.963,-298.010,152.166,25.220,-202.600,162.940
408,37423.579000,222.587,-26.102,108.544,408.937,-295.366,146.256,56.220,-210.600,125.940
409,37423.619000,216.691,-24.094,115.712,411.716,-299.110,140.212,32.220,-234.600,51.940
410,37423.659000,210.795,-27.106,110.592,409.720,-306.504,138.063,22.220,-238.600,28.940
411,37423.700000,211.777,-29.114,114.688,412.641,-300.112,135.219,-67.780,-172.600,0.940
412,37423.720000,221.605,-35.137,114.688,410.639,-307.583,129.089,-139.780,-116.600,42.940
413,37423.755000,228.484,-52.204,120.832,409.661,-309.506,125.068,-173.780,-99.600,101.940
414,37423.799000,220.622,-45.176,116.736,406.770,-313.227,123.990,-127.780,-72.600,106.940
415,37423.842000,221.605,-39.153,108.544,407.635,-318.790,119.894,-79.780,-94.600,105.940
416,37423.875000,216.691,-35.137,107.520,401.018,-318.019,116.917,-69.780,-66.600,56.940
417,37423.917000,214.726,-39.153,110.592,406.598,-325.254,117.766,-46.780,-33.600,16.940
418,37423.937000,211.777,-44.173,109.568,402.947,-315.266,115.984,-31.780,-1.600,43.940
419,37423.977000,210.795,-50.196,113.664,402.883,-319.866,114.891,-39.780,19.400,85.940
420,37424.24000,199.002,-56.220,118.784,399.992,-323.587,113.813,-23.780,9.400,91.940
421,37424.58000,231.432,-61.239,132.096,398.065,-326.322,115.741,-63.780,156.400,120.940
422,37424.98000,207.846,-49.192,124.928,398.120,-322.599,118.805,38.220,78.400,30.940
423,37424.138000,235.363,-45.176,117.760,394.252,-329.003,121.647,76.220,111.400,18.940
424,37424.178000,215.708,-45.176,120.832,397.196,-321.578,124.793,50.220,42.400,-66.060
425,37424.198000,216.691,-45.176,134.144,399.016,-327.030,125.674,33.220,95.400,-66.060
426,37424.238000,205.881,-43.169,119.808,398.126,-323.300,129.731,52.220,29.400,-48.060
427,37424.278000,214.726,-59.231,115.712,399.146,-317.810,128.855,11.220,104.400,-41.060
428,37424.318000,220.622,-59.231,118.784,399.085,-322.371,129.752,34.220,128.400,-18.060
429,37424.362000,237.328,-51.200,108.544,400.179,-312.164,135.939,125.220,89.400,0.940
430,37424.409000,233.397,-39.153,94.208,401.151,-311.080,143.920,343.220,108.400,25.940
431,37424.417000,266.810,-34.133,101.376,402.145,-308.202,149.951,379.220,218.400,51.940
432,37424.458000,252.069,-8.031,104.448,398.401,-306.224,159.934,441.220,175.400,-7.060
433,37424.500000,216.691,18.071,99.328,403.233,-299.593,168.039,493.220,34.400,-154.060
434,37424.540000,228.484,17.067,105.472,402.400,-292.120,176.154,402.220,122.400,-171.060
435,37424.580000,237.328,14.055,114.688,407.263,-283.598,187.284,261.220,58.400,-241.060
436,37424.620000,206.864,15.059,99.328,409.222,-278.173,182.429,259.220,-74.600,-155.060
437,37424.640000,208.829,14.055,91.136,413.899,-282.594,187.315,123.220,-24.600,-96.060
438,37424.680000,224.553,1.004,111.616,414.953,-274.395,184.507,-65.780,-59.600,-18.060
439,37424.720000,227.501,2.008,95.232,416.752,-280.861,180.393,-82.780,-93.600,40.940
440,37424.762000,242.242,-1.004,97.280,412.894,-285.608,174.319,-144.780,-79.600,69.940
441,37424.800000,240.276,-2.008,99.328,411.988,-282.834,176.366,-80.780,-131.600,31.940
442,37424.838000,240.276,2.008,101.376,412.989,-278.338,171.490,-103.780,-70.600,39.940
443,37424.880000,229.466,-5.020,97.280,409.127,-283.904,170.371,-91.780,-18.600,96.940
444,37424.905000,223.570,-12.047,100.352,412.909,-283.893,168.388,-105.780,11.400,103.940
445,37424.942000,219.639,-9.035,103.424,409.940,-293.151,165.202,-71.780,5.400,95.940
446,37424.982000,214.726,-15.059,105.472,406.146,-294.078,167.166,-15.780,-51.600,126.940
447,37425.18000,233.397,-14.055,113.664,407.164,-288.608,165.295,-81.780,27.400,21.940
448,37425.57000,224.553,-11.043,113.664,408.019,-295.047,163.170,-47.780,-47.600,4.940
449,37425.97000,227.501,-14.055,108.544,408.066,-291.422,161.258,-57.780,-13.600,-10.060
450,37425.117000,218.656,-17.067,114.688,410.855,-295.049,161.185,-24.780,9.400,-1.060
451,37425.157000,211.777,-16.063,108.544,408.032,-294.131,163.189,13.220,17.400,69.940
452,37425.197000,208.829,-16.063,111.616,402.443,-287.773,164.311,6.220,60.400,83.940
453,37425.237000,211.777,-15.059,113.664,401.443,-291.490,162.241,7.220,91.400,107.940
454,37425.285000,201.950,-16.063,111.616,398.608,-291.488,164.226,15.220,118.400,103.940
455,37425.322000,234.380,-12.047,109.568,398.594,-293.184,171.153,51.220,182.400,131.940
456,37425.342000,261.896,-13.051,105.472,389.960,-301.600,167.977,19.220,194.400,138.940
457,37425.382000,256.983,-22.086,98.304,386.181,-302.351,178.896,-35.780,231.400,174.940
458,37425.422000,254.035,-37.145,103.424,381.481,-300.504,182.907,-91.780,349.400,262.940
459,37425.469000,235.363,-41.161,97.280,372.769,-315.216,185.565,-45.780,348.400,363.940
460,37425.497000,231.432,-50.196,91.136,365.212,-315.159,193.512,13.220,377.400,339.940
461,37425.543000,235.363,-37.145,97.280,358.517,-321.465,203.314,23.220,326.400,199.940
462,37425.563000,235.363,-30.118,94.208,354.674,-326.037,206.195,74.220,443.400,133.940
463,37425.609000,223.570,-38.149,90.112,350.020,-321.343,215.240,84.220,375.400,128.940
464,37425.638000,216.691,-38.149,101.376,343.334,-326.771,223.072,21.220,346.400,89.940
465,37425.678000,214.726,-44.173,100.352,335.822,-323.109,228.112,22.220,322.400,79.940
466,37425.718000,210.795,-48.188,106.496,333.914,-324.849,234.040,87.220,267.400,88.940
467,37425.758000,208.829,-46.180,110.592,331.084,-324.789,239.010,117.220,226.400,53.940
468,37425.803000,204.898,-42.165,111.616,326.362,-324.735,244.972,174.220,158.400,20.940
469,37425.823000,209.812,-42.165,108.544,328.233,-326.503,246.926,243.220,91.400,3.940
470,37425.863000,226.518,-31.122,129.024,326.420,-321.752,256.971,212.220,71.400,-102.060
471,37425.903000,230.449,-39.153,123.904,325.566,-315.293,260.091,266.220,-14.600,-87.060
472,37425.949000,234.380,-21.082,133.120,332.292,-307.857,261.254,217.220,-46.600,-185.060
473,37425.978000,265.827,-20.078,150.528,336.019,-312.329,264.148,62.220,-18.600,-187.060
474,37426.18000,264.845,-19.075,168.960,334.233,-304.187,260.341,-21.780,1.400,-207.060
475,37426.38000,238.311,-22.086,160.768,339.917,-304.034,264.331,-3.780,-25.600,-111.060
476,37426.84000,206.864,-31.122,150.528,335.186,-304.096,264.322,4.220,11.400,-27.060
477,37426.119000,186.226,-29.114,145.408,335.209,-302.284,263.366,74.220,-65.600,-31.060
478,37426.160000,157.727,-35.137,145.408,338.070,-300.453,261.420,130.220,-78.600,-11.060
479,37426.210000,170.503,-16.063,167.936,340.740,-313.163,265.132,253.220,-19.600,-13.060
480,37426.238000,196.054,-6.024,175.104,340.961,-297.491,270.439,266.220,-46.600,13.940
481,37426.289000,188.192,-15.059,168.960,339.945,-302.942,273.306,191.220,-82.600,-46.060
482,37426.303000,190.157,-30.118,173.056,344.719,-300.073,276.358,146.220,-77.600,-37.060
483,37426.343000,175.417,-29.114,165.888,343.742,-301.976,273.332,160.220,-168.600,-48.060
484,37426.383000,177.382,-21.082,171.008,349.558,-291.824,273.557,172.220,-165.600,-86.060
485,37426.418000,176.399,-12.047,165.888,354.380,-285.309,275.692,223.220,-232.600,-101.060
486,37426.458000,179.347,0.000,169.984,357.205,-286.207,274.682,225.220,-218.600,-140.060
487,37426.498000,183.278,7.027,165.888,362.030,-278.894,270.866,207.220,-254.600,-148.060
488,37426.518000,190.157,8.031,158.720,366.788,-276.979,271.909,205.220,-281.600,-95.060
489,37426.559000,189.175,6.024,162.816,373.496,-270.518,270.067,106.220,-221.600,-76.060
490,37426.600000,192.123,2.008,164.864,372.483,-275.170,266.983,82.220,-272.600,-33.060
491,37426.640000,198.019,-1.004,154.624,381.079,-268.742,262.159,2.220,-248.600,-26.060
492,37426.680000,199.002,-1.004,151.552,382.947,-269.770,255.177,12.220,-276.600,-75.060
493,37426.723000,203.916,6.024,155.648,385.820,-267.023,253.251,-4.780,-269.600,-122.060
494,37426.743000,204.898,17.067,152.576,395.332,-262.473,245.405,11.220,-290.600,-153.060
495,37426.783000,207.846,22.086,151.552,400.964,-265.244,240.381,-20.780,-289.600,-173.060
496,37426.818000,204.898,19.075,145.408,401.083,-256.161,236.596,-16.780,-256.600,-131.060
497,37426.863000,221.605,21.082,135.168,408.682,-253.410,231.692,-66.780,-196.600,-115.060
498,37426.903000,237.328,14.055,120.832,408.660,-254.443,225.702,-103.780,-140.600,-110.060
499,37426.943000,213.743,18.071,109.568,410.503,-257.303,218.682,-229.780,-156.600,-139.060
500,37426.980000,252.069,27.106,111.616,415.339,-249.093,213.890,-328.780,-85.600,-135.060
501,37427.0,264.845,23.090,123.904,414.319,-253.823,206.826,-399.780,-94.600,-66.060
502,37427.40000,230.449,-2.008,101.376,418.053,-256.677,198.814,-431.780,-140.600,34.940
503,37427.80000,231.432,-25.098,109.568,417.061,-259.536,193.778,-445.780,-51.600,90.940
504,37427.123000,210.795,-25.098,91.136,414.080,-268.930,183.627,-243.780,-144.600,102.940
505,37427.162000,228.484,-14.055,99.328,414.981,-271.763,178.595,-200.780,-108.600,71.940
506,37427.203000,234.380,-5.020,92.160,417.877,-267.204,175.713,-116.780,-151.600,-2.060
507,37427.223000,248.138,-2.008,95.232,417.867,-267.321,169.742,-109.780,-183.600,-111.060
508,37427.270000,242.242,-1.004,89.088,421.644,-267.368,164.774,-177.780,-210.600,-139.060
509,37427.299000,227.501,-1.004,76.800,429.271,-261.986,153.958,-232.780,-272.600,-195.060
510,37427.339000,227.501,-2.008,73.728,430.172,-264.820,148.926,-286.780,-215.600,-173.060
511,37427.380000,234.380,-4.016,80.896,433.989,-261.320,138.065,-260.780,-189.600,-141.060
512,37427.420000,239.294,0.000,81.920,436.855,-258.651,132.159,-214.780,-140.600,-159.060
513,37427.440000,236.345,-2.008,80.896,439.689,-258.672,129.178,-164.780,-124.600,-139.060
514,37427.480000,235.363,-2.008,83.968,443.558,-252.248,127.332,-143.780,-31.600,-107.060
515,37427.519000,242.242,-4.016,80.896,445.430,-253.237,122.340,-94.780,9.400,-60.060
516,37427.559000,236.345,-4.016,81.920,445.443,-252.321,122.360,-58.780,34.400,-74.060
517,37427.599000,232.415,-4.016,81.920,442.726,-243.996,128.501,17.220,94.400,-44.060
518,37427.639000,229.466,-2.008,87.040,444.542,-249.487,127.392,65.220,127.400,-32.060
519,37427.679000,228.484,3.012,86.016,442.685,-247.563,133.398,146.220,76.400,-71.060
520,37427.699000,209.812,5.020,80.896,444.677,-240.209,133.557,94.220,74.400,-93.060
521,37427.739000,217.674,9.035,93.184,446.569,-240.963,140.507,4.220,172.400,-139.060
522,37427.787000,240.276,1.004,94.208,445.724,-233.627,141.656,96.220,25.400,-55.060
523,37427.820000,230.449,11.043,63.488,444.826,-229.995,140.737,110.220,46.400,-20.060
524,37427.860000,309.067,16.063,118.784,442.870,-235.380,147.582,22.220,424.400,22.940
525,37427.900000,234.380,50.196,83.968,443.968,-225.134,155.759,117.220,103.400,-119.060
526,37427.920000,262.879,59.231,86.016,441.082,-228.797,157.666,46.220,174.400,-103.060
527,37427.968000,242.242,34.133,78.848,442.074,-225.939,162.702,-120.780,195.400,-41.060
528,37428.2000,243.225,13.051,86.016,441.473,6.807,172.627,-181.780,229.400,76.940
529,37428.42000,242.242,12.047,77.824,439.174,-230.537,163.594,-171.780,136.400,129.940
530,37428.82000,238.311,20.078,79.872,436.281,-235.058,168.467,-92.780,136.400,155.940
531,37428.122000,234.380,26.102,69.632,432.480,-236.063,166.451,-3.780,53.400,159.940
532,37428.142000,231.432,34.133,61.440,430.557,-238.758,170.369,55.220,-9.600,92.940
533,37428.184000,220.622,34.133,62.464,431.491,-239.662,170.351,-42.780,65.400,63.940
534,37428.224000,226.518,31.122,64.512,428.611,-242.487,168.297,-134.780,23.400,111.940
535,37428.264000,224.553,16.063,71.680,426.568,-253.505,168.060,-247.780,85.400,124.940
536,37428.304000,238.311,23.090,86.016,420.876,-254.516,167.035,-290.780,112.400,149.940
537,37428.344000,256.000,34.133,83.968,420.743,-263.775,161.865,-227.780,-53.600,190.940
538,37428.384000,303.171,31.122,94.208,416.901,-267.568,157.800,-321.780,16.400,260.940
539,37428.403000,282.534,-12.047,120.832,412.971,-277.773,153.598,-275.780,-128.600,255.940
540,37428.452000,265.827,-26.102,138.240,410.049,-283.405,148.501,-241.780,-59.600,322.940
541,37428.485000,214.726,-33.129,136.192,405.097,-299.139,143.186,-182.780,-109.600,354.940
542,37428.525000,181.313,-45.176,121.856,401.233,-304.725,141.072,-197.780,-117.600,305.940
543,37428.565000,186.226,-52.204,126.976,394.463,-314.988,135.870,-203.780,16.400,215.940
544,37428.605000,184.261,-57.224,134.144,393.415,-322.349,134.717,-246.780,180.400,256.940
545,37428.635000,207.846,-79.310,128.000,383.888,-327.074,133.608,-246.780,112.400,287.940
546,37428.660000,212.760,-74.290,138.240,379.105,-330.821,132.527,-200.780,125.400,155.940
547,37428.700000,210.795,-62.243,132.096,377.082,-340.065,129.343,-75.780,48.400,154.940
548,37428.740000,204.898,-52.204,133.120,376.164,-338.207,131.370,-47.780,31.400,4.940
549,37428.780000,204.898,-53.208,133.120,378.103,-334.556,129.462,-50.780,-10.600,-73.060
550,37428.820000,203.916,-59.231,136.192,378.089,-335.492,128.447,-96.780,-14.600,-121.060
551,37428.840000,199.002,-59.231,138.240,380.019,-332.718,128.509,-83.780,-38.600,-126.060
552,37428.880000,200.967,-66.259,136.192,378.031,-339.254,123.394,-64.780,-20.600,-94.060
553,37428.925000,198.019,-60.235,140.288,384.708,-335.463,125.474,-50.780,-6.600,-92.060
554,37428.964000,210.795,-62.243,136.192,382.936,-326.385,122.680,-89.780,6.400,-76.060
555,37429.4000,185.244,-57.224,120.832,387.561,-333.730,118.552,20.220,-115.600,-121.060
556,37429.45000,207.846,-56.220,110.592,389.552,-326.395,117.717,15.220,-35.600,-65.060
557,37429.85000,225.536,-67.263,131.072,390.512,-325.447,118.733,110.220,-68.600,-15.060
558,37429.105000,216.691,-64.251,125.952,387.728,-321.761,121.791,171.220,-37.600,19.940
559,37429.142000,216.691,-61.239,115.712,387.667,-326.323,122.689,244.220,-33.600,48.940
560,37429.182000,228.484,-61.239,114.688,388.697,-320.716,127.783,278.220,33.400,54.940
561,37429.222000,237.328,-47.184,99.328,388.696,-321.495,134.728,397.220,8.400,44.940
562,37429.262000,240.276,-47.184,99.328,390.677,-315.817,142.809,427.220,52.400,67.940
563,37429.308000,247.155,-30.118,120.832,389.721,-317.486,151.724,412.220,73.400,-10.060
564,37429.329000,214.726,3.012,113.664,395.534,-308.133,157.900,363.220,-6.600,-167.060
565,37429.362000,216.691,-1.004,113.664,397.419,-308.966,160.869,236.220,58.400,-193.060
566,37429.402000,226.518,-7.027,126.976,402.330,-296.019,164.135,107.220,128.400,-236.060
567,37429.442000,229.466,-3.012,126.976,402.387,-292.276,168.194,71.220,163.400,-186.060
568,37429.483000,232.415,-2.008,131.072,404.311,-290.341,172.216,86.220,118.400,-111.060
569,37429.523000,211.777,-6.024,118.784,405.296,-288.340,180.217,115.220,27.400,-54.060
570,37429.543000,219.639,-9.035,117.760,406.250,-287.470,177.253,75.220,61.400,-18.060
571,37429.583000,210.795,6.024,113.664,409.167,-281.896,179.366,155.220,-33.600,-50.060
572,37429.623000,203.916,6.024,109.568,406.267,-286.495,180.258,153.220,-86.600,-50.060
573,37429.663000,215.708,7.027,115.712,413.015,-277.266,179.470,85.220,-77.600,-88.060
574,37429.702000,223.570,6.024,119.808,410.193,-276.329,182.469,28.220,-54.600,-103.060
575,37429.743000,228.484,8.031,117.760,411.119,-277.330,177.476,-8.780,-85.600,-37.060
576,37429.783000,234.380,13.051,119.808,412.983,-279.176,175.451,-68.780,-26.600,-19.060
577,37429.802000,229.466,5.020,115.712,413.083,-271.847,175.607,-105.780,-54.600,17.940
578,37429.847000,223.570,2.008,105.472,407.284,-280.265,170.446,-141.780,4.400,60.940
579,37429.887000,225.536,-5.020,104.448,413.011,-276.545,169.539,-179.780,58.400,110.940
580,37429.927000,215.708,-12.047,106.496,402.553,-280.327,170.437,-154.780,135.400,201.940
581,37429.967000,225.536,-22.086,113.664,398.644,-289.519,171.231,-170.780,231.400,288.940
582,37430.7000,210.795,-28.110,122.880,391.984,-292.335,172.156,-66.780,162.400,352.940
583,37430.27000,212.760,-15.059,115.712,383.306,-305.118,179.828,-13.780,384.400,375.940
584,37430.63000,199.002,-23.090,103.424,373.858,-305.067,188.767,96.220,404.400,383.940
585,37430.103000,191.140,-21.082,129.024,369.075,-309.574,195.626,24.220,419.400,295.940
586,37430.143000,231.432,-21.082,155.648,361.392,-318.698,202.383,-23.780,441.400,278.940
587,37430.183000,231.432,-34.133,155.648,349.128,-316.873,210.361,-19.780,335.400,253.940
588,37430.227000,212.760,-46.180,121.856,340.552,-321.527,212.238,14.220,186.400,312.940
589,37430.247000,227.501,-49.192,135.168,332.888,-328.878,216.049,9.220,125.400,279.940
590,37430.282000,253.052,-62.243,146.432,332.776,-337.123,215.873,71.220,84.400,349.940
591,37430.322000,238.311,-63.247,133.120,322.346,-339.034,218.801,165.220,-5.600,377.940
592,37430.368000,214.726,-60.235,132.096,316.611,-343.631,221.679,86.220,-19.600,364.940
593,37430.402000,209.812,-58.227,118.784,311.883,-343.655,223.661,160.220,-119.600,288.940
594,37430.443000,200.967,-56.220,104.448,311.795,-350.068,223.524,158.220,-142.600,197.940
595,37430.484000,191.140,-61.239,98.304,311.784,-350.964,224.500,190.220,-203.600,131.940
596,37430.504000,211.777,-54.212,104.448,309.058,-342.757,224.670,212.220,-113.600,10.940
597,37430.544000,217.674,-57.224,101.376,309.931,-348.221,225.550,242.220,-165.600,32.940
598,37430.587000,220.622,-60.235,100.352,310.068,-338.144,225.764,181.220,-170.600,19.940
599,37430.622000,221.605,-63.247,101.376,312.921,-337.171,226.784,155.220,-193.600,-33.060
600,37430.662000,219.639,-57.224,96.256,318.512,-343.509,226.657,163.220,-233.600,-72.060
601,37430.703000,224.553,-49.192,99.328,318.637,-334.347,226.853,233.220,-246.600,-165.060
602,37430.723000,226.518,-39.153,102.400,328.132,-331.532,223.943,194.220,-280.600,-233.060
603,37430.763000,242.242,-50.196,119.808,327.245,-327.003,222.048,92.220,-259.600,-229.060
604,37430.803000,297.274,-47.184,131.072,338.698,-319.563,220.234,137.220,-199.600,-108.060
605,37430.853000,271.724,-43.169,128.000,343.419,-319.618,214.272,161.220,-304.600,-201.060
606,37430.883000,249.121,-26.102,136.192,347.206,-319.548,215.274,-32.780,-240.600,-233.060
607,37430.925000,200.967,-22.086,128.000,353.949,-310.378,211.501,2.220,-413.600,-224.060
608,37430.963000,167.555,-25.098,125.952,359.624,-309.562,202.575,-48.780,-361.600,-192.060
609,37430.983000,252.069,-37.145,145.408,359.605,-310.556,198.575,-22.780,-162.600,-84.060
610,37431.23000,208.829,-20.078,130.048,364.345,-309.617,196.613,86.220,-274.600,-155.060
611,37431.63000,228.484,-27.106,139.264,368.179,-305.922,195.702,-28.780,-140.600,-94.060
612,37431.104000,213.743,-26.102,131.072,371.895,-310.530,191.631,18.220,-257.600,-72.060
613,37431.144000,205.881,-26.102,128.000,376.579,-313.333,185.611,-52.780,-130.600,-71.060
614,37431.194000,199.002,-27.106,138.240,375.567,-317.966,183.521,-75.780,-76.600,-73.060
615,37431.203000,202.933,-24.094,139.264,378.545,-307.831,184.736,-33.780,-27.600,-53.060
616,37431.243000,204.898,-17.067,136.192,380.449,-306.909,183.764,-22.780,-2.600,-49.060
617,37431.283000,202.933,-15.059,134.144,385.105,-312.344,183.655,-69.780,-17.600,-74.060
618,37431.324000,199.985,-14.055,135.168,380.456,-306.052,180.798,-90.780,-16.600,-80.060
619,37431.364000,219.639,-10.039,134.144,380.451,-306.110,177.813,-111.780,26.400,-55.060
620,37431.405000,203.916,-20.078,125.952,381.433,-303.369,176.878,-81.780,-127.600,5.940
621,37431.427000,229.466,-13.051,119.808,382.324,-307.080,173.817,-191.780,-44.600,-31.060
622,37431.467000,208.829,-28.110,120.832,383.270,-306.307,165.877,-229.780,-90.600,10.940
623,37431.504000,211.777,-34.133,129.024,383.162,-313.734,160.746,-350.780,41.400,47.940
624,37431.544000,229.466,-39.153,139.264,383.166,-312.915,155.790,-339.780,109.400,53.940
625,37431.588000,209.812,-21.082,111.616,383.087,-318.451,153.683,-203.780,-30.600,-15.060
626,37431.628000,216.691,-5.020,104.448,383.095,-317.593,150.717,-303.780,74.400,-169.060
627,37431.670000,275.655,-16.063,120.832,386.954,-312.066,149.846,-425.780,203.400,-169.060
628,37431.684000,249.121,-47.184,103.424,383.057,-319.582,142.718,-393.780,111.400,-38.060
629,37431.724000,225.536,-58.227,90.112,381.095,-324.266,138.637,-413.780,113.400,43.940
630,37431.764000,235.363,-61.239,110.592,377.361,-320.632,139.703,-352.780,177.400,141.940
631,37431.805000,208.829,-49.192,97.280,375.407,-324.458,132.656,-152.780,46.400,114.940
632,37431.845000,198.019,-39.153,91.136,374.414,-328.096,134.567,-101.780,-12.600,66.940
633,37431.885000,232.415,-33.129,97.280,379.183,-325.285,134.634,22.220,-49.600,-5.060
634,37431.905000,239.294,-45.176,105.472,372.531,-327.244,132.593,-19.780,-86.600,-35.060
635,37431.945000,239.294,-45.176,111.616,376.378,-322.613,132.697,-10.780,-81.600,1.940
636,37431.985000,235.363,-45.176,103.424,380.073,-329.015,130.577,-6.780,-142.600,23.940
637,37432.34000,219.639,-44.173,91.136,378.184,-328.221,125.618,-9.780,-195.600,6.940
638,37432.69000,229.466,-34.133,88.064,382.063,-320.920,121.801,28.220,-162.600,-62.060
639,37432.109000,222.587,-30.118,86.016,384.811,-327.335,119.679,55.220,-180.600,-108.060
640,37432.137000,232.415,-35.137,89.088,384.943,-317.316,116.908,5.220,-144.600,-99.060
641,37432.164000,229.466,-36.141,87.040,389.670,-317.312,113.932,-25.780,-169.600,-88.060
642,37432.204000,223.570,-47.184,81.920,392.491,-318.249,110.932,-112.780,-121.600,-48.060
643,37432.244000,225.536,-51.200,84.992,391.553,-317.404,107.965,-163.780,-13.600,4.940
644,37432.284000,227.501,-50.196,86.016,393.479,-314.670,106.036,-142.780,-13.600,8.940
645,37432.325000,211.777,-60.235,86.016,390.537,-322.075,103.885,-69.780,-13.600,31.940
646,37432.367000,225.536,-47.184,89.088,396.326,-313.775,103.076,-69.780,94.400,-76.060
647,37432.388000,220.622,-60.235,81.920,394.427,-314.638,107.033,-14.780,53.400,-51.060
648,37432.434000,217.674,-51.200,93.184,398.198,-315.523,106.025,-14.780,134.400,-152.060
649,37432.474000,235.363,-44.173,93.184,398.282,-309.929,111.118,-0.780,199.400,-180.060
650,37432.504000,239.294,-31.122,89.088,402.185,-301.575,114.285,76.220,197.400,-200.060
651,37432.545000,215.708,-19.075,89.088,405.123,-294.988,121.392,102.220,244.400,-247.060
652,37432.585000,287.447,-8.031,98.304,406.104,-293.026,127.403,69.220,479.400,-230.060
653,37432.605000,248.138,3.012,110.592,406.243,-284.469,143.500,78.220,593.400,-238.060
654,37432.645000,242.242,23.090,109.568,402.519,-281.497,157.482,109.220,635.400,-100.060
655,37432.685000,252.069,12.047,96.256,401.648,-276.773,165.539,162.220,460.400,-29.060
656,37432.725000,224.553,0.000,83.968,393.106,-280.257,180.371,13.220,581.400,-7.060
657,37432.768000,226.518,1.004,74.752,391.149,-285.662,186.221,61.220,451.400,92.940
658,37432.807000,224.553,3.012,100.352,389.270,-285.531,194.178,-85.780,522.400,33.940
659,37432.828000,223.570,-2.008,97.280,384.528,-287.250,203.086,60.220,304.400,75.940
660,37432.869000,220.622,-2.008,99.328,378.924,-282.608,210.139,39.220,313.400,41.940
661,37432.909000,216.691,5.020,115.712,377.930,-286.265,211.055,-34.780,247.400,0.940
662,37432.949000,214.726,3.012,108.544,374.154,-286.198,217.018,-61.780,172.400,11.940
663,37432.989000,219.639,-6.024,119.808,370.355,-287.184,215.997,-100.780,170.400,52.940
664,37433.29000,226.518,-9.035,126.976,367.510,-288.059,219.953,-83.780,120.400,94.940
665,37433.69000,239.294,-6.024,134.144,366.475,-294.504,218.820,-47.780,91.400,89.940
666,37433.89000,256.983,-9.035,145.408,364.584,-294.510,219.811,-64.780,141.400,89.940
667,37433.129000,253.052,-9.035,155.648,360.641,-306.411,222.536,3.220,99.400,64.940
668,37433.168000,215.708,-19.075,150.528,361.587,-306.398,222.538,19.220,53.400,42.940
669,37433.210000,191.140,-23.090,157.696,362.600,-301.766,224.627,13.220,8.400,-14.060
670,37433.244000,207.846,-25.098,181.248,362.564,-304.495,225.564,-1.780,71.400,-17.060
671,37433.284000,174.434,-27.106,178.176,360.728,-300.777,229.619,81.220,7.400,-100.060
672,37433.310000,165.589,-23.090,180.224,359.712,-305.449,225.539,-54.780,-27.600,-138.060
673,37433.350000,151.831,-34.133,173.056,365.387,-305.413,223.559,-139.780,-35.600,-167.060
674,37433.389000,161.658,-49.192,187.392,365.357,-307.303,220.535,-218.780,38.400,-136.060
675,37433.425000,167.555,-51.200,196.608,367.321,-301.821,218.665,-215.780,81.400,-131.060
676,37433.472000,169.520,-46.180,194.560,370.107,-305.487,216.602,-206.780,85.400,-124.060
677,37433.505000,173.451,-43.169,182.272,367.207,-310.085,217.494,-162.780,43.400,-114.060
678,37433.525000,165.589,-46.180,178.176,365.368,-305.627,212.613,-142.780,24.400,-136.060
679,37433.565000,170.503,-49.192,181.248,368.193,-306.526,211.604,-133.780,26.400,-155.060
680,37433.613000,157.727,-53.208,187.392,375.871,-298.239,208.808,-88.780,-30.600,-145.060
681,37433.648000,151.831,-59.231,195.584,378.682,-300.073,206.783,-15.780,-43.600,-137.060
682,37433.689000,169.520,-55.216,191.488,377.826,-293.633,208.909,93.220,-133.600,-103.060
683,37433.729000,164.607,-50.196,186.368,380.694,-291.724,210.943,281.220,-208.600,-187.060
684,37433.769000,169.520,-41.161,166.912,384.524,-288.068,208.042,411.220,-304.600,-149.060
685,37433.797000,204.898,-34.133,187.392,389.459,-273.309,210.353,534.220,-282.600,-144.060
686,37433.825000,185.244,-20.078,159.744,398.099,-264.054,209.568,640.220,-384.600,-152.060
687,37433.865000,191.140,-13.051,143.360,401.091,-252.984,211.797,646.220,-345.600,-48.060
688,37433.905000,214.726,3.012,123.904,404.871,-253.772,215.765,666.220,-348.600,28.940
689,37433.945000,230.449,8.031,119.808,407.814,-246.347,218.911,621.220,-280.600,82.940
690,37433.990000,227.501,18.071,123.904,408.786,-244.502,218.952,501.220,-221.600,34.940
691,37434.10000,228.484,37.145,133.120,414.606,-234.291,222.162,385.220,-168.600,6.940
692,37434.50000,219.639,36.141,121.856,413.594,-238.924,220.072,382.220,-213.600,29.940
693,37434.88000,218.656,27.106,119.808,417.456,-233.357,221.191,173.220,-101.600,-24.060
694,37434.129000,226.518,30.118,135.168,421.335,-226.816,225.314,95.220,-60.600,-70.060
695,37434.169000,215.708,30.118,119.808,418.477,-227.848,221.310,114.220,-65.600,-22.060
696,37434.209000,211.777,40.157,121.856,417.645,-219.596,222.479,-41.780,-58.600,-104.060
697,37434.230000,204.898,30.118,124.928,424.250,-220.502,218.491,-132.780,-138.600,-104.060
698,37434.269000,214.726,23.090,115.712,423.319,-218.800,212.558,-107.780,-196.600,-11.060
699,37434.308000,223.570,15.059,128.000,424.171,-225.278,208.443,-132.780,-200.600,-22.060
700,37434.348000,223.570,24.094,125.952,432.671,-225.361,198.507,-109.780,-229.600,3.940
701,37434.388000,228.484,21.082,122.880,429.780,-229.083,197.429,-86.780,-231.600,48.940
702,37434.434000,226.518,20.078,112.640,432.670,-224.601,190.566,-67.780,-236.600,24.940
703,37434.468000,223.570,25.098,109.568,438.276,-229.224,184.508,-36.780,-237.600,-2.060
704,37434.493000,219.639,33.129,101.376,433.548,-228.468,179.544,10.220,-231.600,2.940
705,37434.528000,220.622,34.133,102.400,436.396,-227.553,177.578,-38.780,-192.600,6.940
706,37434.567000,205.881,30.118,95.232,437.395,-223.077,171.707,-69.780,-244.600,39.940
707,37434.608000,206.864,22.086,89.088,439.290,-222.253,165.760,-130.780,-191.600,92.940
708,37434.648000,204.898,23.090,91.136,442.032,-228.745,159.658,-172.780,-146.600,114.940
709,37434.688000,201.950,17.067,94.208,438.201,-231.641,154.617,-182.780,-230.600,146.940
710,37434.708000,208.829,18.071,90.112,433.307,-242.834,147.410,-222.780,-108.600,159.940
711,37434.748000,231.432,17.067,95.232,434.311,-238.300,144.524,-272.780,-49.600,120.940
712,37434.788000,269.758,7.027,101.376,428.516,-246.678,141.353,-300.780,-2.600,130.940
713,37434.828000,290.395,-11.043,76.800,428.482,-248.608,136.339,-236.780,-110.600,183.940
714,37434.868000,302.188,-30.118,89.088,425.574,-253.304,132.256,-140.780,50.400,310.940
715,37434.908000,282.534,-36.141,88.064,422.615,-262.445,135.041,-44.780,15.400,361.940
716,37434.928000,267.793,-25.098,77.824,414.018,-268.892,138.869,109.220,-0.600,398.940
717,37434.968000,233.397,-18.071,66.560,410.966,-284.504,138.533,148.220,6.400,258.940
718,37435.8000,214.726,-15.059,57.344,407.200,-283.560,142.526,132.220,14.400,179.940
719,37435.52000,210.795,-18.071,52.224,409.118,-281.702,142.568,90.220,13.400,84.940
720,37435.88000,213.743,-20.078,53.248,409.154,-278.973,141.632,6.220,8.400,33.940
721,37435.128000,223.570,-13.051,45.056,405.379,-278.906,147.595,80.220,4.400,-25.060
722,37435.168000,222.587,-25.098,53.248,408.280,-274.288,147.698,123.220,75.400,-45.060
723,37435.188000,248.138,-16.063,65.536,407.292,-277.868,152.593,193.220,121.400,-93.060
724,37435.227000,257.965,-3.012,74.752,406.352,-277.802,156.572,234.220,97.400,-135.060
725,37435.267000,259.931,-6.024,73.728,410.277,-267.655,157.788,186.220,-7.600,-95.060
726,37435.312000,267.793,-5.020,82.944,408.327,-272.202,160.673,148.220,16.400,-129.060
727,37435.354000,268.775,-5.020,81.920,412.292,-259.268,163.938,106.220,-67.600,-143.060
728,37435.388000,275.655,-1.004,101.376,417.863,-266.600,159.811,46.220,-85.600,-152.060
729,37435.408000,271.724,-2.008,112.640,418.894,-260.214,157.959,-18.780,-147.600,-123.060
730,37435.450000,242.242,-2.008,112.640,418.899,-259.375,153.999,-2.780,-177.600,-97.060
731,37435.492000,205.881,3.012,106.496,419.891,-255.757,151.093,-41.780,-188.600,-107.060
732,37435.532000,183.278,-18.071,102.400,423.482,-269.527,146.827,-50.780,-214.600,8.940
733,37435.572000,193.106,-5.020,92.160,427.387,-260.374,144.044,66.220,-110.600,55.940
734,37435.607000,248.138,0.000,120.832,424.457,-266.864,141.912,71.220,20.400,68.940
735,37435.627000,235.363,1.004,122.880,420.732,-263.132,147.954,84.220,-75.600,57.940
736,37435.672000,224.553,10.039,101.376,420.649,-268.726,142.861,69.220,-78.600,-39.060
737,37435.712000,217.674,11.043,105.472,425.434,-264.960,144.938,17.220,-64.600,-65.060
738,37435.752000,204.898,4.016,111.616,426.411,-262.278,141.018,41.220,-131.600,-27.060
739,37435.793000,200.967,3.012,110.592,426.357,-265.981,138.950,33.220,-84.600,-24.060
740,37435.829000,213.743,7.027,120.832,430.196,-262.228,141.024,34.220,2.400,-5.060
741,37435.867000,217.674,7.027,134.144,425.507,-259.483,144.060,1.220,57.400,28.940
742,37435.888000,218.656,3.012,135.168,427.337,-264.039,143.966,-24.780,81.400,52.940
743,37435.933000,212.760,11.043,121.856,420.702,-265.023,144.929,-48.780,92.400,64.940
744,37435.973000,201.950,-1.004,116.736,419.668,-271.448,144.791,-93.780,43.400,122.940
745,37436.13000,215.708,6.024,121.856,421.450,-279.649,145.614,-141.780,139.400,152.940
746,37436.53000,239.294,-10.039,141.312,413.864,-280.704,143.591,-190.780,98.400,204.940
747,37436.109000,218.656,-16.063,128.000,412.833,-287.091,145.443,-116.780,84.400,190.940
748,37436.117000,226.518,-11.043,126.976,408.982,-291.760,143.348,-134.780,122.400,184.940
749,37436.152000,226.518,-6.024,103.424,404.313,-287.242,143.438,-69.780,31.400,123.940
750,37436.192000,240.276,-7.027,97.280,404.288,-289.074,143.399,-140.780,26.400,80.940
751,37436.232000,239.294,-13.051,97.280,402.340,-292.823,140.332,-229.780,-37.600,68.940
752,37436.272000,243.225,-24.094,101.376,400.389,-296.610,135.275,-272.780,-26.600,89.940
753,37436.322000,240.276,-22.086,92.160,399.394,-299.507,128.250,-267.780,-88.600,117.940
754,37436.349000,229.466,-40.157,82.944,398.303,-309.675,124.053,-294.780,-106.600,198.940
755,37436.375000,235.363,-51.200,79.872,391.632,-312.628,118.013,-307.780,-59.600,255.940
756,37436.409000,224.553,-46.180,87.040,389.729,-312.770,112.039,-256.780,-73.600,277.940
757,37436.453000,225.536,-50.196,78.848,386.735,-323.860,108.815,-205.780,-103.600,265.940
758,37436.488000,232.415,-40.157,77.824,382.929,-324.924,103.813,-168.780,-76.600,160.940
759,37436.528000,248.138,-45.176,80.896,382.871,-328.686,98.760,-119.780,-27.600,80.940
760,37436.568000,226.518,-47.184,78.848,379.034,-332.420,97.680,-127.780,-134.600,80.940
761,37436.588000,234.380,-51.200,76.800,381.930,-327.860,94.798,-132.780,-64.600,94.940
762,37436.629000,231.432,-51.200,79.872,380.901,-333.467,89.703,-88.780,-90.600,111.940
763,37436.669000,227.501,-55.216,75.776,376.210,-330.742,91.744,-20.780,-119.600,120.940
764,37436.709000,239.294,-61.239,76.800,376.128,-336.317,87.646,-52.780,-39.600,84.940
765,37436.749000,234.380,-61.239,78.848,373.313,-334.542,86.685,-54.780,-58.600,60.940
766,37436.788000,219.639,-63.247,69.632,371.342,-340.103,84.575,-65.780,-25.600,27.940
767,37436.808000,221.605,-65.255,70.656,373.284,-336.413,84.656,-83.780,53.400,-13.060
768,37436.848000,204.898,-63.247,73.728,373.231,-340.117,82.588,-113.780,56.400,-71.060
769,37436.888000,205.881,-64.251,74.752,376.197,-330.898,83.783,-87.780,143.400,-83.060
770,37436.929000,202.933,-61.239,74.752,379.987,-330.790,86.775,-68.780,132.400,-182.060
771,37436.969000,256.000,-66.259,80.896,382.828,-330.733,87.775,-113.780,400.400,-183.060
772,37437.9000,274.672,-55.216,105.472,387.729,-319.442,99.958,-48.780,515.400,-211.060
773,37437.49000,261.896,-20.078,99.328,388.665,-321.087,108.877,36.220,586.400,-262.060
774,37437.69000,251.086,0.000,106.496,388.889,-306.155,123.120,109.220,650.400,-328.060
775,37437.109000,246.173,14.055,71.680,394.727,-295.729,137.275,272.220,552.400,-464.060
776,37437.149000,238.311,16.063,84.992,397.626,-291.910,143.328,33.220,540.400,-345.060
777,37437.189000,244.207,-3.012,82.944,394.813,-290.876,151.303,-31.780,378.400,-168.060
778,37437.229000,218.656,3.012,93.184,395.745,-292.578,157.236,130.220,54.400,-67.060
779,37437.269000,226.518,3.012,72.704,393.851,-293.383,164.179,42.220,168.400,1.940
780,37437.289000,228.484,4.016,91.136,393.909,-289.621,169.232,39.220,208.400,52.940
781,37437.329000,239.294,4.016,105.472,387.262,-291.521,170.177,22.220,188.400,67.940
782,37437.369000,234.380,3.012,108.544,389.128,-293.348,169.146,68.220,140.400,91.940
783,37437.409000,235.363,17.067,110.592,386.358,-288.726,173.219,-0.780,44.400,65.940
784,37437.449000,228.484,11.043,98.304,387.256,-292.359,174.137,-38.780,-38.600,87.940
785,37437.494000,234.380,-5.020,126.976,377.704,-298.916,172.989,-129.780,46.400,176.940
786,37437.513000,266.810,-9.035,135.168,372.919,-302.683,170.912,-49.780,8.400,181.940
787,37437.550000,269.758,-57.224,144.384,369.992,-309.133,170.771,-39.780,36.400,304.940
788,37437.603000,262.879,-64.251,162.816,357.556,-319.334,172.525,87.220,101.400,403.940
789,37437.630000,222.587,-46.180,150.528,357.502,-323.817,177.402,189.220,-55.600,335.940
790,37437.670000,162.641,-45.176,125.952,353.515,-338.545,176.088,101.220,-91.600,197.940
791,37437.727000,169.520,-53.208,135.168,351.633,-337.673,175.109,-80.780,-62.600,124.940
792,37437.754000,176.399,-60.235,136.192,347.904,-333.220,171.220,-53.780,-34.600,81.940
793,37437.774000,188.192,-68.267,133.120,348.729,-342.330,173.017,-4.780,11.400,138.940
794,37437.813000,188.192,-70.275,146.432,342.170,-337.798,175.093,15.220,78.400,111.940
795,37437.852000,198.019,-65.255,164.864,342.993,-346.927,175.894,3.220,106.400,18.940
796,37437.893000,189.175,-57.224,163.840,335.459,-344.298,174.945,16.220,96.400,-60.060
797,37437.933000,184.261,-55.216,165.888,342.139,-340.468,179.014,-46.780,61.400,-108.060
798,37437.979000,184.261,-63.247,168.960,346.905,-337.697,177.091,-129.780,19.400,-174.060
799,37437.994000,181.313,-67.263,161.792,347.818,-339.614,172.079,-136.780,-26.600,-190.060
800,37438.33000,178.365,-67.263,156.672,353.571,-334.042,172.206,-150.780,-61.600,-185.060
801,37438.73000,179.347,-75.294,160.768,353.524,-336.908,166.177,-83.780,-117.600,-195.060
802,37438.120000,189.175,-63.247,144.384,360.180,-334.130,163.262,-33.780,-106.600,-235.060
803,37438.154000,187.209,-51.200,149.504,366.962,-322.191,160.542,34.220,-153.600,-325.060
804,37438.189000,204.898,-42.165,150.528,375.493,-321.143,161.572,73.220,-136.600,-329.060
805,37438.214000,210.795,-41.161,150.528,383.238,-308.217,161.858,110.220,-122.600,-316.060
806,37438.254000,212.760,-35.137,145.408,385.117,-309.128,160.847,78.220,-128.600,-320.060
807,37438.289000,203.916,-35.137,130.048,389.049,-298.124,159.098,86.220,-100.600,-290.060
808,37438.332000,198.019,-37.145,128.000,392.916,-291.719,156.256,62.220,-82.600,-267.060
809,37438.372000,209.812,-36.141,121.856,398.698,-284.276,158.412,141.220,-59.600,-201.060
810,37438.412000,235.363,-20.078,120.832,401.577,-281.451,160.466,124.220,-10.600,-173.060
811,37438.452000,265.827,-26.102,158.720,406.380,-276.710,165.547,56.220,103.400,-136.060
812,37438.472000,244.207,-17.067,148.480,405.548,-268.458,166.716,238.220,6.400,-193.060
813,37438.512000,237.328,3.012,124.928,412.179,-267.513,163.762,211.220,-24.600,-215.060
814,37438.552000,189.175,11.043,100.352,415.125,-260.068,167.903,151.220,-182.600,-347.060
815,37438.594000,215.708,25.098,121.856,423.724,-253.601,165.070,21.220,-77.600,-376.060
816,37438.630000,215.708,25.098,117.760,432.455,-237.895,166.412,60.220,-185.600,-392.060
817,37438.672000,216.691,23.090,114.688,435.387,-230.607,162.592,46.220,-156.600,-263.060
818,37438.690000,225.536,25.098,116.736,438.168,-234.331,157.544,77.220,-155.600,-192.060
819,37438.738000,223.570,20.078,115.712,438.215,-230.706,155.632,145.220,-178.600,-136.060
820,37438.772000,218.656,22.086,110.592,445.932,-219.651,153.889,174.220,-205.600,-131.060
821,37438.812000,213.743,29.114,102.400,445.029,-216.077,149.986,207.220,-208.600,-113.060
822,37438.874000,222.587,37.145,103.424,448.850,-213.298,149.056,176.220,-165.600,-90.060
823,37438.890000,219.639,40.157,105.472,452.649,-212.313,150.077,164.220,-184.600,-62.060
824,37438.910000,224.553,42.165,103.424,454.587,-208.682,147.173,150.220,-180.600,-45.060
825,37438.950000,221.605,43.169,104.448,457.438,-207.728,147.198,117.220,-156.600,-36.060
826,37438.990000,218.656,45.176,95.232,455.580,-205.044,145.263,63.220,-132.600,5.940
827,37439.30000,226.518,38.149,97.280,452.690,-207.986,137.239,-14.780,-104.600,103.940
828,37439.70000,233.397,35.137,98.304,454.563,-209.734,140.188,-79.780,-46.600,156.940
829,37439.113000,227.501,24.094,90.112,454.524,-212.502,139.135,-102.780,-69.600,212.940
830,37439.154000,241.259,25.098,93.184,445.006,-216.350,136.055,-136.780,-4.600,291.940
831,37439.175000,233.397,10.039,101.376,445.834,-224.642,132.896,-147.780,3.400,324.940
832,37439.215000,204.898,8.031,78.848,438.159,-232.129,129.741,-66.780,-86.600,309.940
833,37439.255000,213.743,17.067,74.752,436.170,-239.444,131.572,-73.780,-1.600,282.940
834,37439.295000,208.829,3.012,79.872,436.143,-241.296,130.538,-122.780,-42.600,247.940
835,37439.335000,222.587,2.008,80.896,430.312,-252.404,128.303,-117.780,28.400,164.940
836,37439.377000,311.033,7.027,70.656,427.504,-249.771,124.377,-148.780,68.400,146.940
837,37439.390000,348.376,-5.020,109.568,423.589,-259.801,129.131,-174.780,234.400,220.940
838,37439.439000,257.965,-30.118,70.656,418.829,-261.735,127.093,-130.780,126.400,289.940
839,37439.474000,267.793,-19.075,80.896,413.157,-261.751,130.068,-46.780,197.400,239.940
840,37439.513000,230.449,6.024,74.752,409.330,-265.368,134.959,35.220,160.400,119.940
841,37439.553000,212.760,0.000,57.344,405.517,-268.049,140.864,76.220,115.400,108.940
842,37439.593000,229.466,-7.027,58.368,406.402,-272.598,141.763,-37.780,150.400,63.940
843,37439.633000,224.553,-19.075,56.320,403.574,-271.739,140.783,-62.780,135.400,49.940
844,37439.660000,238.311,-33.129,74.752,400.633,-279.905,146.572,-21.780,151.400,154.940
845,37439.690000,239.294,-32.125,81.920,397.846,-276.258,147.640,79.220,149.400,152.940
846,37439.730000,237.328,-22.086,78.848,393.965,-283.579,150.463,229.220,89.400,67.940
847,37439.772000,247.155,-4.016,92.160,395.900,-281.526,160.456,216.220,125.400,-33.060
848,37439.814000,285.482,1.004,107.520,396.938,-275.042,163.579,257.220,50.400,-104.060
849,37439.857000,312.998,-5.020,135.168,397.893,-274.932,168.556,177.220,40.400,-85.060
850,37439.877000,282.534,-12.047,145.408,399.837,-271.223,169.633,133.220,-17.600,-92.060
851,37439.917000,231.432,-23.090,136.192,400.693,-277.662,167.507,140.220,-99.600,-37.060
852,37439.957000,178.365,-15.059,121.856,404.592,-269.348,168.685,181.220,-174.600,-48.060
853,37439.993000,183.278,-6.024,135.168,403.644,-269.380,167.688,272.220,-156.600,-12.060
854,37440.33000,209.812,-1.004,151.552,408.417,-266.530,169.745,304.220,-131.600,-38.060
855,37440.90000,214.726,-5.020,150.528,406.554,-264.664,172.766,324.220,-154.600,-33.060
856,37440.99000,209.812,-2.008,141.312,410.377,-261.866,172.831,197.220,-114.600,-19.060
857,37440.134000,212.760,-3.012,135.168,409.348,-268.232,175.678,185.220,-145.600,-4.060
858,37440.174000,197.036,-1.004,120.832,413.189,-263.680,171.802,162.220,-169.600,-7.060
859,37440.215000,200.967,-4.016,128.000,412.268,-261.860,171.839,145.220,-128.600,39.940
860,37440.257000,205.881,1.004,126.976,412.202,-266.480,169.752,169.220,-128.600,49.940
861,37440.293000,209.812,-2.008,135.168,412.259,-262.737,173.810,206.220,-120.600,49.940
862,37440.333000,215.708,3.012,139.264,414.099,-266.396,172.740,286.220,-124.600,17.940
863,37440.352000,204.898,12.047,124.928,415.083,-263.635,172.800,314.220,-172.600,23.940
864,37440.393000,222.587,17.067,120.832,413.242,-259.976,173.870,201.220,-88.600,46.940
865,37440.439000,213.743,15.059,110.592,413.230,-260.892,173.851,152.220,-121.600,78.940
866,37440.477000,217.674,10.039,109.568,409.475,-259.052,176.868,83.220,-86.600,106.940
867,37440.512000,214.726,15.059,112.640,411.336,-260.937,172.852,45.220,-104.600,104.940
868,37440.557000,236.345,22.086,120.832,408.411,-267.368,173.706,14.220,-20.600,103.940
869,37440.577000,234.380,11.043,120.832,407.511,-263.755,171.792,8.220,33.400,148.940
870,37440.612000,245.190,15.059,103.424,406.545,-265.541,174.737,-1.780,45.400,176.940
871,37440.655000,241.259,13.051,99.328,400.778,-272.049,173.595,-110.780,57.400,179.940
872,37440.695000,234.380,5.020,99.328,398.858,-273.925,172.557,-239.780,18.400,140.940
873,37440.735000,233.397,2.008,99.328,398.693,-285.095,163.368,-319.780,0.400,150.940
874,37440.774000,230.449,-16.063,93.184,396.726,-290.616,163.247,-346.780,-43.600,182.940
875,37440.795000,234.380,-26.102,98.304,391.013,-292.641,157.228,-375.780,8.400,251.940
876,37440.837000,233.397,-49.192,101.376,384.259,-301.948,154.036,-311.780,18.400,354.940
877,37440.874000,228.484,-52.204,97.280,376.558,-311.268,150.842,-217.780,38.400,349.940
878,37440.914000,223.570,-52.204,97.280,373.688,-313.216,146.818,-171.780,23.400,278.940
879,37440.955000,220.622,-47.184,91.136,372.686,-316.951,143.753,-131.780,-5.600,205.940
880,37440.997000,224.553,-45.176,84.992,368.789,-325.247,143.571,-163.780,-18.600,93.940
881,37441.37000,234.380,-52.204,86.016,367.798,-328.086,139.530,-108.780,-48.600,89.940
882,37441.54000,230.449,-49.192,80.896,368.730,-329.009,138.518,-100.780,-88.600,47.940
883,37441.93000,229.466,-50.196,75.776,370.665,-325.417,133.624,-68.780,-78.600,33.940
884,37441.133000,237.328,-49.192,86.016,368.800,-323.571,135.649,-70.780,-14.600,-9.060
885,37441.173000,232.415,-46.180,86.016,370.563,-332.765,132.473,3.220,-57.600,-20.060
886,37441.213000,228.484,-53.208,82.944,372.529,-327.263,131.598,-16.780,4.400,-4.060
887,37441.253000,231.432,-51.200,86.016,371.668,-320.882,130.738,-49.780,66.400,-27.060
888,37441.273000,220.622,-55.216,84.992,372.627,-319.954,130.759,-60.780,96.400,-30.060
889,37441.313000,215.708,-54.212,83.968,373.564,-320.818,132.731,-63.780,131.400,-54.060
890,37441.355000,212.760,-55.216,90.112,372.650,-318.920,136.749,-80.780,219.400,-88.060
891,37441.397000,214.726,-53.208,89.088,370.732,-320.778,136.706,-37.780,255.400,-103.060
892,37441.439000,230.449,-54.212,91.136,374.590,-316.030,142.781,-71.780,378.400,-109.060
893,37441.477000,213.743,-54.212,113.664,372.661,-319.563,150.660,13.220,302.400,-147.060
894,37441.518000,256.000,-35.137,96.256,376.617,-308.266,163.837,150.220,440.400,-135.060
895,37441.538000,270.741,-33.129,152.576,371.039,-301.791,170.929,-78.780,755.400,-192.060
896,37441.578000,200.967,-8.031,99.328,374.792,-305.191,181.803,170.220,500.400,-226.060
897,37441.625000,226.518,3.012,105.472,368.347,-293.174,191.995,-8.780,622.400,-164.060
898,37441.653000,224.553,6.024,117.760,371.214,-292.045,200.975,-119.780,454.400,-258.060
899,37441.693000,232.415,-1.004,115.712,365.593,-288.377,205.024,-202.780,397.400,-209.060
900,37441.733000,239.294,-9.035,116.736,371.234,-291.810,212.916,-178.780,387.400,-128.060
901,37441.753000,224.553,-9.035,121.856,368.456,-287.287,212.014,-96.780,297.400,-52.060
902,37441.793000,226.518,-1.004,115.712,365.578,-290.852,218.896,9.220,262.400,-9.060
903,37441.833000,209.812,7.027,107.520,365.657,-285.316,221.003,44.220,243.400,-10.060
904,37441.873000,217.674,6.024,109.568,362.715,-293.482,226.793,-55.780,201.400,-18.060
905,37441.914000,214.726,6.024,119.808,358.921,-294.409,228.757,-6.780,119.400,-29.060
906,37441.954000,204.898,-3.012,114.688,362.797,-287.907,230.890,-11.780,102.400,13.940
907,37441.974000,207.846,6.024,126.976,359.851,-295.352,226.749,-25.780,73.400,-12.060
908,37442.14000,218.656,1.004,140.288,358.949,-292.538,230.786,-30.780,45.400,32.940
909,37442.54000,225.536,17.067,141.312,358.926,-294.350,231.742,-57.780,-11.600,-31.060
910,37442.94000,230.449,13.051,147.456,359.914,-290.771,226.846,-172.780,-2.600,-73.060
911,37442.134000,283.516,3.012,176.128,356.102,-292.673,225.806,-186.780,33.400,9.940
912,37442.174000,242.242,-15.059,155.648,356.034,-297.312,222.723,-170.780,2.400,8.940
913,37442.218000,203.916,-25.098,156.672,354.037,-304.725,219.578,-232.780,24.400,16.940
914,37442.238000,181.313,-40.157,160.768,354.989,-303.874,215.619,-208.780,-13.600,46.940
915,37442.278000,160.676,-45.176,153.600,352.941,-314.951,212.397,-133.780,-36.600,45.940
916,37442.319000,155.762,-43.169,158.720,351.005,-317.803,208.354,-110.780,-37.600,13.940
917,37442.359000,177.382,-60.235,172.032,346.337,-313.265,209.439,-128.780,3.400,22.940
918,37442.394000,180.330,-66.259,169.984,348.134,-319.751,204.330,-89.780,9.400,78.940
919,37442.443000,187.209,-63.247,171.008,348.161,-317.899,205.364,-39.780,-0.600,76.940
920,37442.462000,179.347,-49.192,164.864,346.102,-329.873,203.117,6.220,-5.600,47.940
921,37442.495000,176.399,-52.204,161.792,344.252,-327.091,206.158,14.220,-6.600,13.940
922,37442.538000,178.365,-51.200,163.840,341.422,-326.251,204.182,40.220,-2.600,-54.060
923,37442.583000,169.520,-49.192,164.864,346.224,-320.750,201.322,-42.780,-5.600,-72.060
924,37442.619000,164.607,-55.216,176.128,345.308,-318.872,204.345,-21.780,-7.600,-99.060
925,37442.659000,180.330,-63.247,183.296,349.982,-322.552,200.295,-18.780,-29.600,-79.060
926,37442.692000,166.572,-65.255,171.008,347.159,-321.634,202.299,100.220,-143.600,-138.060
927,37442.717000,200.967,-61.239,191.488,355.724,-317.877,201.397,122.220,-150.600,-165.060
928,37442.760000,178.365,-60.235,177.152,365.373,-304.029,200.712,263.220,-324.600,-260.060
929,37442.795000,185.244,-44.173,153.600,370.137,-301.277,197.793,282.220,-350.600,-268.060
930,37442.835000,199.985,-33.129,160.768,376.867,-293.022,194.001,262.220,-350.600,-290.060
931,37442.875000,197.036,-28.110,153.600,386.431,-285.568,194.173,252.220,-327.600,-286.060
932,37442.923000,202.933,-23.090,147.456,393.136,-279.906,198.282,250.220,-273.600,-260.060
933,37442.938000,212.760,-22.086,139.264,398.011,-268.928,194.545,262.220,-257.600,-208.060
934,37442.993000,213.743,-16.063,134.144,406.559,-266.145,190.638,275.220,-233.600,-198.060
935,37443.14000,226.518,-3.012,125.952,408.639,-252.378,190.934,265.220,-221.600,-158.060
936,37443.59000,226.518,0.000,131.072,411.536,-247.818,188.051,165.220,-162.600,-233.060
937,37443.99000,218.656,15.059,128.000,421.013,-246.758,189.083,129.220,-163.600,-303.060
938,37443.139000,210.795,39.153,128.000,423.951,-238.631,181.303,29.220,-198.600,-376.060
939,37443.159000,230.449,49.192,139.264,435.516,-222.946,179.665,-84.780,-178.600,-417.060
940,37443.199000,214.726,30.118,126.976,444.098,-217.454,173.826,-123.780,-244.600,-345.060
941,37443.248000,215.708,29.114,125.952,446.044,-212.946,168.952,-93.780,-203.600,-259.060
942,37443.278000,215.708,27.106,120.832,448.016,-206.605,164.117,-31.780,-212.600,-194.060
943,37443.318000,217.674,21.082,110.592,448.928,-208.542,158.109,27.220,-228.600,-79.060
944,37443.358000,218.656,33.129,116.736,451.838,-203.047,156.241,80.220,-241.600,-76.060
945,37443.398000,218.656,35.137,104.448,453.771,-199.474,150.352,118.220,-267.600,-38.060
946,37443.424000,220.622,41.161,101.376,458.536,-196.702,148.429,120.220,-227.600,-45.060
947,37443.457000,221.605,43.169,101.376,455.689,-196.838,143.448,119.220,-227.600,-49.060
948,37443.500000,224.553,46.180,94.208,456.654,-195.071,139.509,98.220,-183.600,-44.060
949,37443.534000,231.432,47.184,98.304,458.506,-197.833,137.464,60.220,-150.600,-45.060
950,37443.575000,224.553,42.165,96.256,463.320,-191.416,134.623,75.220,-146.600,-0.060
951,37443.617000,215.708,43.169,91.136,459.560,-189.634,134.656,113.220,-93.600,63.940
952,37443.634000,206.864,44.173,80.896,462.209,-203.358,133.373,82.220,-98.600,99.940
953,37443.678000,211.777,47.184,82.944,457.569,-196.969,135.491,-16.780,-17.600,132.940
954,37443.715000,203.916,30.118,83.968,457.435,-206.228,130.321,-48.780,-71.600,152.940
955,37443.755000,245.190,38.149,78.848,453.727,-200.761,131.426,-62.780,7.400,186.940
956,37443.797000,256.983,27.106,92.160,450.797,-207.251,129.295,-138.780,1.400,169.940
957,37443.837000,239.294,11.043,75.776,450.724,-212.728,130.173,-177.780,-29.600,191.940
958,37443.857000,247.155,-4.016,67.584,446.871,-217.417,127.083,-147.780,14.400,275.940
959,37443.903000,253.052,-6.024,63.488,447.735,-223.759,129.933,-28.780,96.400,293.940
960,37443.937000,300.223,7.027,79.872,437.243,-230.251,132.764,89.220,116.400,340.940
961,37443.980000,259.931,-9.035,78.848,434.296,-238.475,135.568,111.220,30.400,347.940
962,37444.15000,249.121,-1.004,71.680,427.675,-238.524,137.547,57.220,42.400,250.940
963,37444.60000,224.553,8.031,55.296,425.600,-252.232,140.236,57.220,6.400,139.940
964,37444.95000,229.466,6.024,45.056,426.642,-244.949,137.408,38.220,59.400,107.940
965,37444.117000,233.397,0.000,51.200,425.577,-254.045,141.192,-65.780,181.400,128.940
966,37444.159000,236.345,-6.024,65.536,418.053,-250.519,139.266,-98.780,113.400,118.940
967,37444.200000,240.276,-8.031,71.680,417.915,-261.376,145.998,-42.780,148.400,91.940
968,37444.240000,239.294,-3.012,70.656,417.976,-256.815,145.100,5.220,95.400,34.940
969,37444.277000,240.276,-2.008,74.752,414.244,-253.162,147.162,24.220,104.400,-36.060
970,37444.319000,250.104,-7.027,91.136,418.071,-250.305,150.212,43.220,116.400,-27.060
971,37444.337000,258.948,-10.039,95.232,413.272,-255.786,154.067,86.220,65.400,-37.060
972,37444.377000,291.378,4.016,113.664,413.347,-250.289,154.184,30.220,20.400,-82.060
973,37444.419000,257.965,4.016,128.000,415.216,-252.077,155.143,-30.780,-29.600,-145.060
974,37444.459000,240.276,-1.004,117.760,417.116,-251.194,152.181,-18.780,-128.600,-131.060
975,37444.497000,209.812,0.000,103.424,421.867,-249.358,149.243,7.220,-163.600,-115.060
976,37444.544000,197.036,-9.035,108.544,425.594,-253.070,144.196,16.220,-239.600,-49.060
977,37444.559000,198.019,-4.016,112.640,426.587,-249.432,142.286,103.220,-206.600,-33.060
978,37444.599000,225.536,12.047,132.096,428.436,-252.234,138.251,165.220,-174.600,-36.060
979,37444.637000,237.328,17.067,132.096,434.192,-246.623,140.368,163.220,-170.600,-46.060
980,37444.679000,227.501,4.016,111.616,429.466,-245.847,136.399,119.220,-235.600,-26.060
981,37444.727000,215.708,5.020,99.328,434.213,-244.070,130.476,96.220,-228.600,-62.060
982,37444.762000,207.846,-2.008,94.208,434.145,-248.709,127.393,62.220,-245.600,25.940
983,37444.803000,212.760,-2.008,88.064,435.956,-254.259,123.299,73.220,-189.600,72.940
984,37444.818000,225.536,-1.004,96.256,438.892,-246.931,121.470,102.220,-183.600,84.940
985,37444.860000,231.432,0.000,94.208,434.978,-256.182,119.278,90.220,-129.600,57.940
986,37444.895000,232.415,-1.004,90.112,436.948,-250.640,120.394,94.220,-120.600,17.940
987,37444.948000,240.276,3.012,86.016,436.918,-252.531,117.369,147.220,-72.600,43.940
988,37444.976000,236.345,5.020,69.632,435.945,-254.395,116.334,159.220,-124.600,20.940
989,37445.18000,255.017,11.043,82.944,435.985,-251.608,118.382,169.220,-55.600,47.940
990,37445.38000,233.397,-1.004,79.872,435.915,-257.046,121.250,165.220,-83.600,103.940
991,37445.77000,242.242,-1.004,79.872,438.701,-260.712,119.187,195.220,-77.600,129.940
992,37445.123000,250.104,0.000,86.016,434.949,-258.832,124.195,233.220,-55.600,207.940
993,37445.158000,243.225,-1.004,83.968,431.161,-258.921,122.198,266.220,-58.600,202.940
994,37445.204000,241.259,2.008,79.872,424.482,-263.492,127.064,264.220,-49.600,178.940
995,37445.240000,240.276,7.027,79.872,426.344,-266.137,130.989,323.220,9.400,187.940
996,37445.260000,240.276,12.047,82.944,421.537,-272.476,137.810,362.220,0.400,217.940
997,37445.304000,234.380,11.043,75.776,421.590,-268.773,139.878,275.220,-24.600,222.940
998,37445.342000,235.363,11.043,76.800,412.016,-277.123,140.680,160.220,36.400,176.940
999,37445.382000,236.345,10.039,80.896,412.009,-277.981,143.646,100.220,76.400,176.940
1000,37445.422000,235.363,9.035,78.848,413.884,-279.690,148.586,67.220,68.400,166.940
1001,37445.462000,228.484,12.047,75.776,406.255,-284.332,150.465,25.220,75.400,143.940
1002,37445.502000,231.432,14.055,74.752,403.428,-283.453,150.479,-26.780,80.400,120.940
1003,37445.522000,212.760,8.031,65.536,403.377,-287.138,149.406,-163.780,-8.600,66.940
1004,37445.557000,204.898,-1.004,70.656,404.251,-292.583,151.281,-223.780,-6.600,78.940
1005,37445.602000,307.102,-5.020,123.904,396.685,-291.864,146.312,-364.780,346.400,128.940
1006,37445.640000,266.810,-10.039,98.304,391.811,-302.063,143.104,-309.780,55.400,98.940
1007,37445.682000,248.138,-16.063,89.088,390.810,-305.798,140.039,-254.780,18.400,151.940
1008,37445.722000,237.328,-15.059,83.968,386.989,-307.798,134.023,-326.780,4.400,107.940
1009,37445.742000,217.674,-24.094,75.776,388.857,-309.605,133.987,-289.780,-3.600,116.940
1010,37445.782000,219.639,-27.106,79.872,384.954,-317.959,130.820,-236.780,-19.600,106.940
1011,37445.817000,243.225,-25.098,80.896,386.896,-313.509,122.960,-271.780,39.400,48.940
1012,37445.874000,243.225,-22.086,84.992,383.009,-320.908,121.802,-290.780,14.400,-10.060
1013,37445.902000,240.276,-32.125,82.944,384.942,-317.335,115.913,-343.780,26.400,-60.060
1014,37445.942000,237.328,-32.125,81.920,385.892,-316.504,110.959,-337.780,-12.600,-95.060
1015,37445.961000,236.345,-34.133,76.800,385.750,-326.640,107.759,-340.780,11.400,-68.060
1016,37446.2000,233.397,-31.122,73.728,382.046,-319.576,96.963,-357.780,1.400,-57.060
1017,37446.47000,235.363,-40.157,78.848,383.871,-324.190,93.884,-374.780,49.400,-7.060
1018,37446.82000,228.484,-46.180,78.848,383.781,-330.642,91.757,-320.780,32.400,-13.060
1019,37446.122000,226.518,-53.208,83.968,381.008,-325.280,86.894,-287.780,22.400,19.940
1020,37446.177000,230.449,-61.239,84.992,380.021,-328.080,84.844,-214.780,77.400,28.940
1021,37446.198000,229.466,-60.235,90.112,376.178,-331.892,79.784,-198.780,119.400,-39.060
1022,37446.223000,230.449,-61.239,95.232,378.172,-324.519,80.938,-182.780,130.400,-64.060
1023,37446.258000,233.397,-61.239,87.040,382.775,-333.657,78.761,-198.780,144.400,-102.060
1024,37446.298000,232.415,-59.231,88.064,381.968,-323.572,79.969,-281.780,180.400,-212.060
1025,37446.339000,233.397,-55.216,88.064,384.852,-319.929,77.067,-263.780,217.400,-253.060
1026,37446.379000,235.363,-55.216,90.112,385.800,-319.897,78.064,-209.780,248.400,-246.060
1027,37446.419000,231.432,-56.220,87.040,388.735,-313.349,83.181,-16.780,257.400,-274.060
1028,37446.445000,224.553,-43.169,82.944,396.449,-303.093,87.389,-65.780,256.400,-347.060
1029,37446.482000,221.605,-34.133,89.088,399.357,-298.397,91.472,-150.780,244.400,-341.060
1030,37446.522000,229.466,-29.114,91.136,400.332,-296.513,93.503,-67.780,191.400,-341.060
1031,37446.568000,235.363,-22.086,93.184,408.029,-287.232,94.706,-40.780,124.400,-331.060
1032,37446.599000,236.345,-25.098,97.280,410.891,-285.382,93.755,-52.780,125.400,-282.060
1033,37446.639000,243.225,-18.071,102.400,413.926,-271.505,99.028,-7.780,98.400,-235.060
1034,37446.680000,247.155,-16.063,97.280,417.622,-277.887,97.903,93.220,33.400,-143.060
1035,37446.702000,242.242,-2.008,101.376,418.588,-276.881,101.905,101.220,79.400,-123.060
1036,37446.742000,228.484,-1.004,102.400,418.625,-274.132,101.963,72.220,78.400,-98.060
1037,37446.782000,216.691,-2.008,96.256,426.332,-264.734,109.137,50.220,34.400,-150.060
1038,37446.822000,216.691,4.016,96.256,427.350,-259.264,107.266,-59.780,15.400,-151.060
1039,37446.863000,218.656,2.008,99.328,428.208,-265.684,106.136,-134.780,56.400,-148.060
1040,37446.898000,227.501,2.008,103.424,431.093,-262.021,104.229,-132.780,36.400,-121.060
1041,37446.918000,236.345,6.024,112.640,432.164,-252.847,104.425,-109.780,24.400,-113.060
