Sample, Time, ACCX, ACCY, ACCZ, MAGX, MAGY, MAGZ, GYRX, GYRY, GYRZ
0,44665.783000,263.907,68.904,-12.949,343.735,389.161,-51.824,-40.040,-328.490,-91.020
1,44665.827000,247.104,46.774,-29.883,346.694,395.014,-51.688,-119.040,-217.490,-61.020
2,44665.872000,230.301,19.615,-32.872,343.740,390.088,-53.765,-89.040,-30.490,-21.020
3,44665.906000,226.347,16.597,-18.926,344.766,395.060,-48.749,-53.040,70.510,1.980
4,44665.948000,244.139,22.633,-4.981,345.702,391.251,-45.890,-70.040,154.510,60.980
5,44665.984000,258.965,59.851,10.957,348.623,392.336,-41.937,26.960,194.510,65.980
6,44666.33000,251.058,37.721,6.973,349.623,395.301,-39.908,37.960,151.510,86.980
7,44666.47000,246.116,14.585,10.957,350.569,393.347,-40.930,74.960,122.510,73.980
8,44666.88000,265.884,49.792,23.907,354.387,387.603,-39.088,167.960,118.510,48.980
9,44666.123000,250.069,43.756,36.856,351.537,394.241,-44.830,122.960,-42.490,36.980
10,44666.163000,242.162,39.733,18.926,350.492,386.444,-45.986,190.960,-181.490,32.980
11,44666.208000,248.093,35.709,4.981,351.498,392.106,-53.704,102.960,-238.490,52.980
12,44666.247000,248.093,43.756,-0.996,356.277,387.191,-58.706,129.960,-147.490,84.980
13,44666.287000,255.012,57.839,-20.918,358.163,382.334,-59.791,-102.040,-47.490,114.980
14,44666.327000,256.000,20.621,-4.981,358.179,383.369,-56.826,-118.040,39.510,128.980
15,44666.347000,253.035,24.644,14.942,363.044,385.444,-52.847,-115.040,36.510,95.980
16,44666.387000,249.081,38.727,16.934,361.079,383.376,-57.800,-56.040,-9.490,73.980
17,44666.428000,253.035,19.615,9.961,363.910,375.680,-56.004,-64.040,-104.490,65.980
18,44666.464000,253.035,25.650,14.942,359.104,379.452,-58.872,-24.040,-138.490,53.980
19,44666.504000,249.081,30.680,1.992,361.962,375.532,-61.895,53.960,-166.490,55.980
20,44666.544000,253.035,30.680,0.996,360.079,382.180,-67.635,234.960,-149.490,62.980
21,44666.584000,255.012,15.591,-3.984,366.728,371.372,-76.687,195.960,-162.490,30.980
22,44666.627000,253.035,21.627,-10.957,362.823,368.357,-79.704,129.960,-182.490,-3.020
23,44666.668000,254.023,26.656,-16.934,363.793,369.273,-82.624,98.960,-167.490,-26.020
24,44666.688000,253.035,20.621,-17.930,363.788,369.230,-84.586,-27.040,-133.490,-42.020
25,44666.723000,252.046,27.662,-16.934,359.889,367.142,-89.544,23.960,-87.490,-45.020
26,44666.771000,259.954,29.674,-18.926,362.881,376.836,-91.284,-47.040,-62.490,-55.020
27,44666.803000,255.012,21.627,-16.934,358.057,377.803,-89.311,-62.040,-30.490,-89.020
28,44666.847000,251.058,30.680,-15.938,355.162,377.839,-86.375,-5.040,27.510,-112.020
29,44666.889000,250.069,40.739,-15.938,355.209,383.578,-90.170,-34.040,45.510,-88.020
30,44666.928000,253.035,33.697,-17.930,354.201,377.895,-83.433,-18.040,86.510,-76.020
31,44666.968000,251.058,30.680,-8.965,354.236,379.987,-76.522,-59.040,79.510,-98.020
32,44667.4000,244.139,37.721,-3.984,353.344,387.745,-76.352,-115.040,7.510,-115.020
33,44667.24000,246.116,36.715,3.984,350.385,381.891,-76.488,-83.040,-84.490,-111.020
34,44667.64000,245.127,32.692,3.984,344.635,388.523,-81.256,-32.040,-195.490,-100.020
35,44667.106000,249.081,34.703,-10.957,348.519,390.459,-83.167,86.960,-276.490,-105.020
36,44667.144000,249.081,43.756,-20.918,345.587,388.382,-88.122,71.960,-306.490,-107.020
37,44667.186000,247.104,42.750,-16.934,345.620,393.106,-93.901,54.960,-319.490,-111.020
38,44667.226000,249.081,38.727,-12.949,343.639,390.002,-101.820,117.960,-327.490,-110.020
39,44667.268000,251.058,55.827,-24.903,336.819,386.830,-110.730,111.960,-369.490,-104.020
40,44667.308000,251.058,44.762,-30.879,336.883,395.373,-119.366,161.960,-378.490,-101.020
41,44667.327000,252.046,60.857,-51.798,333.883,387.362,-129.357,141.960,-320.490,-87.020
42,44667.369000,247.104,49.792,-51.798,332.945,392.035,-137.101,56.960,-257.490,-60.020
43,44667.404000,250.069,57.839,-48.809,327.090,386.218,-134.300,9.960,-146.490,-29.020
44,44667.444000,247.104,58.845,-60.763,328.009,382.236,-139.290,2.960,-62.490,-17.020
45,44667.486000,243.151,47.780,-53.790,327.091,387.102,-138.203,-62.040,10.510,7.980
46,44667.524000,231.290,44.762,-61.759,330.047,392.050,-135.145,-94.040,101.510,34.980
47,44667.566000,225.359,34.703,-65.743,331.009,390.247,-129.299,-70.040,179.510,57.980
48,44667.611000,229.313,19.615,-44.825,333.878,386.435,-127.416,-162.040,232.510,110.980
49,44667.649000,280.710,83.992,-45.821,333.905,387.578,-119.546,35.960,384.510,79.980
50,44667.669000,261.931,57.839,-38.848,332.895,381.873,-113.791,-168.040,460.510,98.980
51,44667.714000,234.255,32.692,-32.872,334.876,384.092,-101.969,-174.040,479.510,89.980
52,44667.744000,226.347,25.650,-33.868,341.680,385.345,-92.120,-177.040,485.510,87.980
53,44667.784000,219.429,30.680,-19.922,344.566,380.821,-78.485,-223.040,436.510,104.980
54,44667.828000,256.988,32.692,-2.988,346.498,379.049,-71.656,60.960,446.510,102.980
55,44667.866000,271.815,64.880,6.973,346.625,390.829,-65.510,26.960,441.510,66.980
56,44667.909000,245.127,27.662,22.911,349.564,392.971,-57.611,-79.040,300.510,37.980
57,44667.944000,244.139,37.721,16.934,347.579,387.192,-54.802,-35.040,195.510,46.980
58,44667.966000,254.023,38.727,11.953,349.577,393.101,-51.724,12.960,143.510,55.980
59,44668.12000,252.046,36.715,7.969,350.478,385.430,-47.970,23.960,147.510,58.980
60,44668.44000,255.012,40.739,1.992,352.481,391.381,-42.931,-56.040,140.510,31.980
61,44668.84000,250.069,35.709,7.969,355.404,393.373,-41.900,-110.040,155.510,9.980
62,44668.124000,250.069,38.727,16.934,354.415,389.631,-35.120,-90.040,130.510,8.980
63,44668.164000,249.081,32.692,20.918,352.440,385.707,-36.192,-58.040,78.510,5.980
64,44668.204000,252.046,30.680,22.911,349.559,387.642,-35.174,-17.040,30.510,6.980
65,44668.252000,248.093,34.703,18.926,349.563,387.685,-33.212,-8.040,-27.490,-1.020
66,44668.288000,249.081,34.703,16.934,352.452,386.700,-35.189,12.960,-49.490,-5.020
67,44668.309000,250.069,36.715,11.953,349.608,392.518,-34.085,11.960,-60.490,-0.020
68,44668.351000,252.046,36.715,10.957,351.515,390.509,-38.049,-2.040,-21.490,-1.020
69,44668.392000,252.046,36.715,14.942,353.379,382.804,-36.254,-11.040,-17.490,-3.020
70,44668.431000,251.058,35.709,15.938,350.555,390.564,-35.107,-4.040,-20.490,-4.020
71,44668.471000,250.069,34.703,15.938,350.567,392.441,-38.008,12.960,-40.490,-2.020
72,44668.508000,251.058,36.715,14.942,351.520,391.437,-39.989,21.960,-71.490,-8.020
73,44668.549000,249.081,38.727,15.938,352.495,392.395,-40.947,14.960,-92.490,-13.020
74,44668.588000,251.058,36.715,11.953,351.485,388.459,-42.998,29.960,-105.490,-13.020
75,44668.611000,251.058,38.727,8.965,349.598,394.179,-46.797,8.960,-110.490,-13.020
76,44668.653000,253.035,40.739,3.984,347.656,393.211,-45.842,6.960,-85.490,-12.020
77,44668.686000,254.023,38.727,1.992,348.614,393.134,-49.764,-8.040,-50.490,-11.020
78,44668.726000,252.046,38.727,0.996,351.510,392.213,-48.798,-8.040,-7.490,-3.020
79,44668.766000,252.046,38.727,0.996,348.556,387.288,-50.875,-33.040,47.510,-3.020
80,44668.809000,251.058,39.733,0.996,349.558,390.274,-47.865,-26.040,76.510,0.980
81,44668.849000,251.058,44.762,5.977,348.632,393.307,-41.915,-58.040,85.510,7.980
82,44668.889000,252.046,35.709,9.961,350.581,394.340,-39.927,-65.040,100.510,3.980
83,44668.929000,249.081,34.703,15.938,350.553,391.427,-39.992,-45.040,95.510,-14.020
84,44668.954000,248.093,36.715,19.922,351.574,396.356,-36.938,-20.040,55.510,-20.020
85,44668.989000,250.069,37.721,17.930,346.728,395.338,-36.971,8.960,-13.490,-19.020
86,44669.33000,249.081,36.715,15.938,346.728,395.338,-36.971,15.960,-40.490,-23.020
87,44669.68000,250.069,41.745,8.965,350.602,396.303,-38.903,5.960,-37.490,-21.020
88,44669.111000,252.046,41.745,5.977,348.611,390.459,-39.037,0.960,-14.490,-20.020
89,44669.146000,253.035,40.739,5.977,346.669,389.491,-38.081,-39.040,5.510,-28.020
90,44669.188000,252.046,41.745,14.942,346.711,393.418,-36.033,-75.040,19.510,-35.020
91,44669.237000,248.093,36.715,16.934,344.821,398.231,-36.911,-102.040,3.510,-44.020
92,44669.251000,249.081,39.733,18.926,347.758,401.237,-33.896,-55.040,-40.490,-45.020
93,44669.286000,247.104,39.733,18.926,345.807,400.183,-36.865,-10.040,-84.490,-41.020
94,44669.331000,246.116,40.739,14.942,345.779,397.270,-36.930,29.960,-130.490,-38.020
95,44669.386000,250.069,39.733,11.953,338.974,394.248,-38.973,37.960,-153.490,-34.020
96,44669.424000,250.069,44.762,7.969,343.894,403.896,-43.652,37.960,-167.490,-37.020
97,44669.449000,247.104,45.768,2.988,342.828,394.135,-45.832,44.960,-165.490,-34.020
98,44669.489000,251.058,43.756,-2.988,338.980,397.830,-52.623,48.960,-154.490,-30.020
99,44669.528000,252.046,44.762,-3.984,340.882,394.893,-54.645,45.960,-140.490,-26.020
100,44669.577000,251.058,44.762,-3.984,340.885,395.799,-57.567,37.960,-120.490,-25.020
101,44669.593000,251.058,46.774,-6.973,337.985,396.677,-60.495,30.960,-105.490,-17.020
102,44669.627000,250.069,46.774,-5.977,339.963,401.507,-62.345,16.960,-89.490,-15.020
103,44669.668000,251.058,46.774,-10.957,339.975,402.499,-61.343,13.960,-74.490,-6.020
104,44669.716000,249.081,44.762,-6.973,340.907,399.532,-64.349,6.960,-62.490,-4.020
105,44669.748000,250.069,46.774,-8.965,338.885,390.753,-65.528,17.960,-39.490,-1.020
106,44669.797000,250.069,46.774,-8.965,339.003,403.331,-67.210,7.960,-21.490,4.980
107,44669.831000,251.058,49.792,-12.949,341.868,399.476,-67.290,-3.040,-1.490,9.980
108,44669.874000,251.058,46.774,-8.965,342.821,397.587,-65.368,-12.040,11.510,8.980
109,44669.888000,250.069,47.780,-5.977,337.000,395.610,-64.444,-12.040,12.510,9.980
110,44669.928000,248.093,45.768,-5.977,339.883,393.697,-64.480,-1.040,10.510,14.980
111,44669.979000,250.069,44.762,-6.973,338.916,393.687,-64.483,-6.040,8.510,9.980
112,44670.7000,250.069,45.768,-6.973,340.874,396.576,-66.376,-10.040,7.510,10.980
113,44670.49000,250.069,43.756,-4.981,341.898,401.526,-62.341,-8.040,2.510,14.980
114,44670.89000,250.069,45.768,-4.981,339.853,390.763,-65.526,-0.040,6.510,11.980
115,44670.131000,249.081,44.762,-3.984,341.860,397.642,-62.427,-11.040,-4.490,14.980
116,44670.171000,249.081,45.768,-6.973,341.865,398.570,-64.368,-12.040,-13.490,10.980
117,44670.212000,249.081,43.756,-3.984,338.916,393.687,-64.483,-3.040,-23.490,8.980
118,44670.232000,252.046,42.750,-3.984,339.937,399.501,-65.332,6.960,-40.490,5.980
119,44670.272000,250.069,42.750,-2.988,343.769,395.655,-65.409,24.960,-56.490,-6.020
120,44670.307000,249.081,44.762,-7.969,339.876,393.632,-67.424,7.960,-77.490,-11.020
121,44670.348000,249.081,45.768,-7.969,340.894,399.402,-70.235,19.960,-80.490,-5.020
122,44670.388000,251.058,43.756,-13.946,342.833,400.349,-72.172,23.960,-63.490,-5.020
123,44670.427000,249.081,44.762,-15.938,342.838,400.392,-70.209,7.960,-41.490,-5.020
124,44670.474000,249.081,46.774,-14.942,339.893,396.437,-72.265,6.960,-15.490,-1.020
125,44670.507000,247.104,46.774,-12.949,341.798,393.522,-73.306,-2.040,-4.490,0.980
126,44670.527000,251.058,44.762,-12.949,340.880,398.388,-72.219,-1.040,-2.490,1.980
127,44670.567000,248.093,44.762,-10.957,341.854,399.347,-73.177,-7.040,-10.490,1.980
128,44670.607000,249.081,45.768,-12.949,341.840,397.448,-71.258,3.960,-12.490,5.980
129,44670.652000,250.069,46.774,-12.949,343.735,393.562,-72.320,7.960,-5.490,9.980
130,44670.693000,250.069,45.768,-12.949,340.852,396.360,-76.187,10.960,-4.490,10.980
131,44670.727000,248.093,46.774,-10.957,341.782,392.486,-76.271,13.960,-14.490,12.980
132,44670.767000,249.081,44.762,-11.953,340.837,394.462,-74.268,6.960,-14.490,16.980
133,44670.807000,249.081,44.762,-9.961,338.936,398.283,-76.148,18.960,-28.490,15.980
134,44670.854000,249.081,44.762,-12.949,343.707,391.534,-76.288,17.960,-47.490,17.980
135,44670.874000,249.081,44.762,-12.949,339.814,389.511,-78.303,28.960,-63.490,15.980
136,44670.916000,249.081,45.768,-5.977,340.840,395.368,-77.190,26.960,-114.490,19.980
137,44670.956000,250.069,49.792,-15.938,338.901,396.190,-83.060,45.960,-129.490,25.980
138,44670.988000,248.093,40.739,-12.949,342.766,396.185,-85.013,17.960,-157.490,36.980
139,44671.28000,248.093,38.727,-10.957,344.648,392.169,-91.963,45.960,-190.490,46.980
140,44671.73000,243.151,48.786,-13.946,341.640,382.324,-97.091,131.960,-268.490,58.980
141,44671.113000,253.035,42.750,-9.961,345.567,389.957,-104.758,104.960,-305.490,79.980
142,44671.153000,245.127,39.733,-31.875,341.616,383.856,-115.689,233.960,-288.490,91.980
143,44671.168000,244.139,48.786,-39.844,342.504,376.940,-121.725,160.960,-302.490,115.980
144,44671.217000,249.081,36.715,-44.825,345.389,376.796,-129.567,268.960,-238.490,150.980
145,44671.248000,249.081,41.745,-48.809,347.244,369.889,-135.601,208.960,-194.490,171.980
146,44671.289000,245.127,38.727,-48.809,346.214,364.875,-142.579,191.960,-158.490,204.980
147,44671.336000,243.151,28.668,-43.829,354.907,364.830,-148.446,89.960,-160.490,217.980
148,44671.383000,244.139,22.633,-38.848,356.791,360.836,-154.414,184.960,-183.490,222.980
149,44671.416000,247.104,25.650,-38.848,356.691,352.832,-165.379,195.960,-254.490,242.980
150,44671.449000,241.174,24.644,-43.829,362.383,343.007,-173.431,195.960,-352.490,264.980
151,44671.492000,253.035,9.556,-36.856,362.361,342.792,-183.242,231.960,-483.490,240.980
152,44671.509000,251.058,8.550,-74.708,361.345,340.560,-196.042,256.960,-477.490,192.980
153,44671.548000,251.058,10.562,-99.611,363.161,330.633,-207.046,260.960,-332.490,126.980
154,44671.593000,249.081,16.597,-102.599,361.121,321.682,-216.075,168.960,-121.490,144.980
155,44671.629000,252.046,12.574,-104.591,362.100,321.800,-211.167,-59.040,138.510,133.980
156,44671.672000,249.081,2.515,-85.665,366.986,325.838,-206.164,-89.040,283.510,117.980
157,44671.728000,245.127,0.503,-77.696,368.955,327.950,-199.248,-170.040,391.510,65.980
158,44671.761000,240.185,10.562,-79.689,372.873,331.094,-190.344,-277.040,481.510,73.980
159,44671.808000,245.127,5.532,-53.790,378.688,328.605,-173.716,-370.040,551.510,75.980
160,44671.824000,251.058,5.532,-40.840,378.705,327.008,-158.061,-417.040,528.510,56.980
161,44671.856000,248.093,-1.509,-9.961,382.762,342.925,-142.008,-498.040,423.510,67.980
162,44671.892000,243.151,2.515,-11.953,387.544,335.399,-133.339,-267.040,203.510,101.980
163,44671.933000,240.185,-14.585,1.992,387.617,343.144,-134.148,-183.040,-60.490,101.980
164,44671.968000,245.127,-2.515,-16.934,383.749,343.128,-133.176,-47.040,-287.490,56.980
165,44672.12000,246.116,7.544,-44.825,384.635,336.191,-140.193,61.960,-357.490,43.980
166,44672.52000,250.069,2.515,-50.802,383.605,332.060,-151.074,116.960,-338.490,51.980
167,44672.93000,250.069,5.532,-41.837,384.623,338.715,-157.789,-38.040,-367.490,93.980
168,44672.132000,257.977,-3.521,-70.724,382.637,334.683,-163.766,172.960,-172.490,78.980
169,44672.153000,254.023,-10.562,-70.724,382.550,325.924,-164.941,66.960,-40.490,11.980
170,44672.193000,246.116,-18.609,-57.774,380.674,332.636,-167.738,166.960,45.510,-81.020
171,44672.236000,253.035,-2.515,-48.809,381.552,323.865,-169.893,255.960,28.510,-134.020
172,44672.274000,244.139,0.503,-55.782,379.698,332.541,-171.665,313.960,29.510,-139.020
173,44672.314000,245.127,3.521,-57.774,375.741,324.628,-176.753,429.960,56.510,-139.020
174,44672.354000,252.046,14.585,-53.790,378.677,329.381,-182.525,440.960,75.510,-111.020
175,44672.394000,246.116,1.509,-47.813,378.647,327.332,-187.474,358.960,39.510,-67.020
176,44672.434000,250.069,-0.503,-39.844,377.616,321.432,-190.549,371.960,-40.490,-64.020
177,44672.457000,251.058,2.515,-38.848,374.637,315.385,-199.515,447.960,-210.490,-94.020
178,44672.503000,248.093,0.503,-36.856,375.657,322.061,-205.249,258.960,-405.490,-93.020
179,44672.531000,248.093,-6.538,-50.802,369.772,316.826,-220.087,480.960,-436.490,-167.020
180,44672.572000,243.151,24.644,-113.556,366.736,305.838,-233.086,379.960,-378.490,-150.020
181,44672.617000,247.104,7.544,-97.619,360.918,305.652,-238.987,124.960,-106.490,-88.020
182,44672.661000,243.151,22.633,-93.634,360.908,303.797,-235.105,110.960,176.510,-21.020
183,44672.692000,247.104,2.515,-66.739,360.004,309.677,-232.035,-17.040,207.510,-11.020
184,44672.742000,243.151,12.574,-47.813,362.947,313.611,-230.960,21.960,120.510,-11.020
185,44672.779000,239.197,16.597,-69.728,364.869,311.753,-228.056,-74.040,62.510,27.980
186,44672.819000,246.116,2.515,-56.778,369.685,308.952,-225.166,-72.040,46.510,33.980
187,44672.836000,242.162,20.621,-60.763,366.839,314.749,-225.043,-190.040,0.510,77.980
188,44672.879000,259.954,3.521,-28.887,369.772,316.826,-220.087,-425.040,-106.490,61.980
189,44672.917000,246.116,17.603,-58.770,367.855,317.865,-216.146,-584.040,28.510,114.980
190,44672.949000,238.208,26.656,-71.720,370.792,319.986,-209.228,-276.040,-31.490,228.980
191,44673.8000,246.116,2.515,-54.786,369.752,312.231,-208.421,-239.040,-110.490,261.980
192,44673.52000,249.081,-9.556,-69.728,369.731,311.152,-213.349,-2.040,-226.490,196.980
193,44673.74000,253.035,-18.609,-82.677,374.575,312.149,-214.297,-45.040,-58.490,107.980
194,44673.94000,235.243,51.804,-75.704,374.631,317.089,-210.265,-205.040,58.510,23.980
195,44673.153000,241.174,-11.568,-66.739,374.584,311.350,-206.470,-122.040,34.510,49.980
196,44673.187000,229.313,9.556,-56.778,373.602,310.327,-208.456,-232.040,-80.490,25.980
197,44673.214000,246.116,10.562,-58.770,375.592,316.149,-209.303,-67.040,-162.490,55.980
198,44673.249000,245.127,15.591,-61.759,370.788,319.943,-211.190,-146.040,-260.490,79.980
199,44673.289000,258.965,44.762,-76.700,374.695,323.864,-211.095,-286.040,-355.490,117.980
200,44673.337000,282.687,78.963,-47.813,367.970,327.768,-207.100,-1479.040,-646.490,223.980
201,44673.388000,359.784,126.240,41.837,362.257,336.513,-203.976,-1808.040,-1445.490,502.980
202,44673.411000,512.988,217.776,110.568,341.094,349.790,-208.629,-2633.040,-2468.490,544.980
203,44673.431000,512.988,127.246,204.202,322.597,342.341,-230.408,-1156.040,-2707.490,217.980
204,44673.473000,426.008,-79.969,-319.751,284.531,318.500,-282.992,1058.960,-2574.490,-447.020
205,44673.513000,188.788,119.198,-87.658,251.735,329.679,-289.678,-2018.040,-2754.490,-674.020
206,44673.554000,42.502,-84.998,33.868,216.314,361.972,-261.577,-2633.040,-848.490,-1653.020
207,44673.594000,76.108,-133.281,-20.918,209.861,388.745,-232.557,-1420.040,1036.510,-1668.020
208,44673.634000,92.911,-175.528,-59.767,243.767,393.908,-233.352,1550.960,3207.510,-799.020
209,44673.674000,170.008,-122.216,-121.525,294.947,381.182,-216.855,1443.960,3943.510,-427.020
210,44673.714000,224.371,-49.792,-127.502,324.059,383.191,-182.426,-670.040,3757.510,30.980
211,44673.756000,314.317,-188.605,-188.265,373.566,387.037,-117.513,-66.040,3919.510,303.980
212,44673.776000,456.649,-211.741,-235.082,406.441,373.981,-63.797,1946.960,4002.510,767.980
213,44673.816000,400.309,-209.729,-263.969,439.965,332.348,-30.327,3388.960,3646.510,1391.980
214,44673.856000,295.537,112.157,-226.117,473.552,294.835,14.021,1956.960,2951.510,1691.980
215,44673.891000,358.795,-102.098,-147.424,485.740,245.444,57.080,-1299.040,990.510,1827.980
216,44673.932000,271.815,134.287,-78.693,495.963,199.269,70.787,22.960,474.510,1927.980
217,44673.972000,276.757,127.246,-48.809,505.385,173.172,71.208,-622.040,-469.490,1706.980
218,44674.17000,285.652,54.821,1.992,509.899,144.589,49.009,390.960,-1005.490,1212.980
219,44674.51000,290.595,91.033,-11.953,514.593,136.222,19.413,2075.960,-943.490,726.980
220,44674.71000,245.127,80.974,-83.673,509.567,123.792,-14.216,1588.960,-1000.490,596.980
221,44674.112000,222.394,91.033,-34.864,508.357,105.616,-46.003,981.960,-1189.490,474.980
222,44674.152000,213.498,71.921,-15.938,501.518,104.903,-75.453,542.960,-1136.490,286.980
223,44674.192000,300.479,-52.809,-81.681,497.519,96.581,-99.182,1042.960,-969.490,-78.020
224,44674.232000,246.116,127.246,419.362,497.583,103.355,-100.012,2673.960,1080.510,-335.020
225,44674.283000,402.286,-121.210,50.802,498.526,100.495,-98.112,180.960,-9.490,163.980
226,44674.314000,322.224,-39.733,52.794,496.535,94.651,-98.246,-260.040,-207.490,63.980
227,44674.354000,282.687,41.745,36.856,496.523,94.544,-103.152,130.960,-129.490,-52.020
228,44674.396000,294.548,72.927,29.883,497.586,105.146,-106.837,-371.040,-274.490,-130.020
229,44674.412000,312.340,40.739,90.646,496.591,104.878,-118.613,-875.040,-540.490,-253.020
230,44674.452000,262.919,134.287,-38.848,497.620,111.640,-120.422,238.960,-126.490,-257.020
231,44674.491000,202.625,128.251,42.833,500.673,125.433,-112.264,-726.040,641.510,-641.020
232,44674.532000,262.919,101.092,4.981,503.804,141.750,-77.572,-1431.040,1529.510,-824.020
233,44674.571000,287.629,92.039,-58.770,505.148,169.138,-24.006,-1714.040,1588.510,-1034.020
234,44674.616000,268.849,72.927,-110.568,510.320,195.290,15.812,-2253.040,855.510,-1138.020
235,44674.652000,260.942,49.792,-120.529,503.809,216.216,43.721,-2062.040,315.510,-1139.020
236,44674.699000,258.965,-7.544,-127.502,500.160,236.783,53.977,-1395.040,-191.490,-1326.020
237,44674.721000,257.977,-2.515,-118.537,494.511,254.072,48.464,-716.040,-605.490,-1404.020
238,44674.756000,269.838,-25.650,-104.591,480.348,293.369,32.636,-636.040,-984.490,-1365.020
239,44674.796000,287.629,-66.892,-51.798,465.083,319.928,11.618,-924.040,-1317.490,-1320.020
240,44674.836000,265.884,-90.028,-29.883,446.961,350.407,-6.376,-424.040,-1012.490,-1188.020
241,44674.878000,284.664,-60.857,29.883,426.799,368.418,-16.806,-249.040,-709.490,-831.020
242,44674.917000,274.780,-9.556,19.922,419.148,379.756,-27.358,-278.040,-520.490,-407.020
243,44674.957000,258.965,19.615,12.949,413.459,391.371,-26.131,-853.040,-492.490,-216.020
244,44674.996000,233.266,27.662,-16.934,399.890,387.485,-20.362,-1101.040,-489.490,-260.020
245,44675.37000,240.185,17.603,15.938,393.177,392.381,-15.364,-573.040,-386.490,-244.020
246,44675.57000,215.475,36.715,-19.922,387.495,405.831,-19.000,17.960,-212.490,-180.020
247,44675.97000,268.849,12.574,147.424,389.387,400.154,-13.238,-241.040,405.510,131.980
248,44675.139000,330.131,54.821,18.926,389.407,400.348,-4.408,39.960,304.510,36.980
249,44675.179000,308.386,21.627,66.739,387.538,408.010,-8.164,12.960,-78.490,-22.020
250,44675.239000,270.826,20.621,6.973,387.525,407.880,-14.051,134.960,-328.490,-69.020
251,44675.256000,258.965,20.621,-3.984,391.361,406.710,-24.857,328.960,-312.490,-11.020
252,44675.296000,263.907,-29.674,35.860,392.185,393.904,-33.965,592.960,117.510,266.980
253,44675.336000,256.000,-22.633,33.868,401.827,391.042,-35.969,820.960,539.510,515.980
254,44675.356000,258.965,-2.515,16.934,420.080,376.788,-30.363,686.960,822.510,667.980
255,44675.396000,276.757,-19.615,12.949,433.449,356.748,-20.973,622.960,901.510,750.980
256,44675.435000,281.699,-20.621,-15.938,446.759,330.860,-12.694,1022.960,1068.510,938.980
257,44675.476000,280.710,-14.585,-24.903,461.121,313.720,-4.218,1128.960,1135.510,1025.980
258,44675.517000,285.652,-26.656,-24.903,473.543,294.749,10.097,1271.960,1200.510,1064.980
259,44675.557000,291.583,-17.603,-30.879,487.832,268.979,23.284,1226.960,1173.510,1102.980
260,44675.592000,281.699,1.509,-38.848,495.423,249.141,44.434,989.960,1076.510,1270.980
261,44675.633000,258.965,11.568,-54.786,500.903,212.628,58.345,823.960,948.510,1386.980
262,44675.679000,247.104,51.804,-49.805,504.549,186.754,71.508,329.960,608.510,1348.980
263,44675.697000,248.093,22.633,-35.860,507.203,159.750,77.779,126.960,128.510,1192.980
264,44675.732000,235.243,79.969,-28.887,509.009,147.967,70.656,186.960,-274.490,1056.980
265,44675.772000,238.208,78.963,1.992,511.694,129.182,53.574,247.960,-871.490,747.980
266,44675.814000,233.266,115.175,8.965,512.436,112.061,24.756,411.960,-1122.490,514.980
267,44675.859000,228.324,168.487,-18.926,508.476,110.276,-10.596,-265.040,-1377.490,-3.020
268,44675.897000,257.977,102.098,-28.887,503.713,124.145,-39.718,-732.040,-1354.490,-308.020
269,44675.939000,267.861,9.556,207.191,499.918,135.391,-56.147,2230.960,184.510,-611.020
270,44675.979000,366.703,-64.880,108.576,497.976,133.538,-51.289,2266.960,731.510,-387.020
271,44676.14000,246.116,-82.986,93.634,495.137,139.400,-48.223,-614.040,240.510,-10.020
272,44676.34000,227.336,0.503,61.759,499.015,139.524,-44.289,-491.040,-178.490,-203.020
273,44676.77000,250.069,-13.580,56.778,494.157,138.398,-49.228,274.960,-145.490,-0.020
274,44676.123000,246.116,-62.868,15.938,494.196,143.166,-53.045,21.960,-122.490,-32.020
275,44676.157000,247.104,-16.597,24.903,491.357,149.912,-53.882,-30.040,-89.490,-75.020
276,44676.197000,272.803,-11.568,42.833,492.232,140.235,-53.114,132.960,-41.490,-27.020
277,44676.233000,257.977,-31.686,59.767,492.238,142.047,-58.958,-85.040,-204.490,-40.020
278,44676.277000,248.093,-39.733,30.879,489.348,144.780,-65.768,56.960,-316.490,-29.020
279,44676.316000,256.000,-32.692,17.930,488.415,150.380,-75.452,168.960,-302.490,-36.020
280,44676.338000,258.965,-21.627,19.922,489.366,150.239,-82.318,168.960,-301.490,-49.020
281,44676.373000,250.069,-31.686,11.953,484.450,144.151,-92.270,172.960,-297.490,-40.020
282,44676.413000,251.058,-18.609,18.926,483.519,149.772,-100.973,-50.040,-344.490,-73.020
283,44676.453000,251.058,-24.644,24.903,477.670,146.652,-107.919,2.960,-418.490,-74.020
284,44676.493000,250.069,-11.568,-13.946,477.761,157.202,-113.569,136.960,-387.490,-62.020
285,44676.533000,256.988,-15.591,10.957,477.735,156.081,-120.458,-137.040,-366.490,-69.020
286,44676.574000,250.069,-40.739,-6.973,476.703,151.929,-132.321,-4.040,-354.490,-66.020
287,44676.614000,250.069,-22.633,-16.934,468.960,153.579,-142.107,53.960,-330.490,-116.020
288,44676.654000,253.035,-0.503,-9.961,468.052,161.186,-148.805,-34.040,-344.490,-122.020
289,44676.677000,255.012,-19.615,-20.918,466.134,163.972,-153.650,71.960,-328.490,-69.020
290,44676.714000,254.023,-12.574,-23.907,460.230,155.911,-164.629,2.960,-304.490,-99.020
291,44676.761000,256.000,-3.521,-36.856,461.275,164.594,-167.376,110.960,-229.490,-91.020
292,44676.801000,253.035,-20.621,-20.918,457.347,159.594,-172.398,60.960,-207.490,-73.020
293,44676.844000,255.012,-18.609,-22.911,453.555,168.229,-175.157,165.960,-156.490,-100.020
294,44676.882000,255.012,1.509,-32.872,450.623,166.151,-180.112,24.960,-189.490,-87.020
295,44676.914000,252.046,10.562,-31.875,451.598,167.110,-181.070,-176.040,-216.490,-25.020
296,44676.954000,248.093,-33.697,-35.860,447.700,165.929,-188.949,0.960,-238.490,-26.020
297,44676.977000,256.000,-1.509,-44.825,446.700,162.964,-190.979,45.960,-209.490,-70.020
298,44677.22000,252.046,-1.509,-41.837,443.775,161.835,-196.894,-19.040,-198.490,-50.020
299,44677.57000,246.116,-18.609,-45.821,445.835,175.381,-199.531,-138.040,-226.490,-49.020
300,44677.93000,249.081,-15.591,-45.821,441.010,177.211,-202.442,-0.040,-171.490,-66.020
301,44677.141000,246.116,-10.562,-54.786,437.049,169.256,-209.492,12.960,-147.490,-62.020
302,44677.181000,248.093,-0.503,-50.802,436.103,171.209,-208.470,15.960,-94.490,-46.020
303,44677.213000,250.069,-19.615,-44.825,432.241,173.006,-213.341,167.960,-69.490,-82.020
304,44677.261000,250.069,0.503,-41.837,428.432,179.721,-215.162,110.960,-137.490,-99.020
305,44677.299000,242.162,-0.503,-47.813,431.321,178.735,-217.139,159.960,-142.490,-72.020
306,44677.318000,245.127,-1.509,-53.790,428.395,177.607,-223.054,222.960,-153.490,-45.020
307,44677.357000,253.035,16.597,-53.790,424.462,171.679,-226.136,139.960,-180.490,-13.020
308,44677.401000,249.081,4.527,-59.767,423.484,172.446,-234.947,18.960,-232.490,32.980
309,44677.441000,243.151,-7.544,-63.751,420.593,173.410,-233.951,-134.040,-246.490,37.980
310,44677.482000,244.139,-7.544,-75.704,419.629,175.192,-240.778,-228.040,-191.490,56.980
311,44677.514000,255.012,34.703,-82.677,420.615,176.258,-236.830,-259.040,-32.490,78.980
312,44677.556000,243.151,-8.550,-71.720,421.568,174.369,-234.908,-321.040,59.510,136.980
313,44677.599000,254.023,-22.633,-77.696,426.431,176.423,-231.910,-155.040,206.510,99.980
314,44677.619000,246.116,-11.568,-65.743,429.337,174.725,-222.135,-165.040,286.510,71.980
315,44677.657000,252.046,2.515,-62.755,431.335,179.749,-215.155,-137.040,360.510,48.980
316,44677.699000,242.162,-8.550,-53.790,435.175,175.105,-207.405,-192.040,368.510,58.980
317,44677.734000,251.058,2.515,-41.837,440.996,175.313,-200.523,-414.040,384.510,62.980
318,44677.774000,251.058,-3.521,-32.872,443.998,182.460,-185.648,-290.040,294.510,49.980
319,44677.817000,243.151,-25.650,-30.879,447.914,186.468,-181.628,-193.040,174.510,-1.020
320,44677.862000,251.058,-3.521,-43.829,447.938,188.453,-179.623,-95.040,138.510,-39.020
321,44677.902000,251.058,-7.544,-37.852,448.883,184.730,-172.839,-182.040,149.510,2.980
322,44677.942000,241.174,4.527,-38.848,448.930,188.699,-168.828,-273.040,139.510,5.980
323,44677.962000,252.046,6.538,-19.922,451.881,192.719,-163.829,-342.040,31.510,12.980
324,44677.999000,246.116,1.509,-27.891,448.061,197.557,-162.749,-371.040,-103.490,58.980
325,44678.42000,254.023,10.562,-37.852,448.042,195.616,-162.793,-553.040,-159.490,76.980
326,44678.79000,247.104,-2.515,-49.805,449.037,197.653,-158.823,-402.040,-1.490,114.980
327,44678.128000,250.069,1.509,-50.802,449.973,193.844,-155.963,-526.040,48.510,130.980
328,44678.157000,247.104,0.503,-37.852,454.880,198.961,-146.033,-569.040,94.510,158.980
329,44678.199000,243.151,-17.603,-36.856,458.780,200.163,-137.172,-493.040,64.510,123.980
330,44678.239000,268.849,-42.750,-33.868,456.849,199.303,-131.311,-469.040,78.510,71.980
331,44678.259000,249.081,-2.515,-27.891,456.887,203.187,-131.225,-192.040,173.510,-63.020
332,44678.302000,245.127,-15.591,-7.969,457.835,200.370,-127.363,0.960,78.510,-87.020
333,44678.336000,250.069,-9.556,-1.992,453.994,204.129,-131.210,154.960,-156.490,-137.020
334,44678.384000,252.046,-9.556,-33.868,453.056,208.802,-138.953,400.960,-194.490,-127.020
335,44678.419000,249.081,-0.503,-55.782,450.154,210.542,-146.766,345.960,-112.490,-142.020
336,44678.468000,256.000,15.591,-31.875,448.179,206.619,-147.838,374.960,-36.490,-99.020
337,44678.508000,244.139,-5.532,-30.879,449.149,207.534,-150.758,556.960,-46.490,-40.020
338,44678.534000,244.139,-8.550,-24.903,446.170,201.487,-159.724,460.960,-147.490,-19.020
339,44678.579000,242.162,9.556,-28.887,445.216,205.123,-170.433,364.960,-322.490,-8.020
340,44678.602000,257.977,4.527,-44.825,443.225,201.048,-178.373,366.960,-399.490,17.980
341,44678.642000,240.185,-7.544,-44.825,442.139,191.978,-193.286,320.960,-469.490,-29.020
342,44678.681000,246.116,9.556,-52.794,433.410,192.562,-207.021,316.960,-477.490,-26.020
343,44678.722000,261.931,-1.509,-82.677,429.511,191.359,-215.882,375.960,-368.490,-67.020
344,44678.762000,248.093,-3.521,-93.634,423.690,190.267,-218.860,270.960,-128.490,-101.020
345,44678.804000,241.174,9.556,-76.700,422.706,189.222,-221.828,134.960,20.510,-77.020
346,44678.835000,250.069,2.515,-65.743,427.536,188.320,-220.857,-1.040,157.510,-8.020
347,44678.877000,244.139,-6.538,-54.786,427.519,185.515,-216.016,-71.040,124.510,-21.020
348,44678.897000,243.151,1.509,-52.794,428.543,191.350,-215.884,45.960,95.510,-9.020
349,44678.943000,242.162,-8.550,-70.724,431.436,189.522,-211.996,126.960,166.510,-7.020
350,44678.981000,248.093,14.585,-72.716,432.377,185.756,-207.174,-78.040,286.510,32.980
351,44679.28000,243.151,2.515,-73.712,435.281,184.922,-202.283,-193.040,411.510,73.980
352,44679.64000,256.988,10.562,-34.864,441.136,187.222,-188.491,-269.040,436.510,98.980
353,44679.102000,242.162,-19.615,-23.907,445.077,192.351,-177.581,-289.040,274.510,137.980
354,44679.141000,244.139,17.603,-25.899,447.942,187.611,-173.758,-137.040,181.510,150.980
355,44679.181000,250.069,14.585,-43.829,451.808,185.858,-166.924,-211.040,89.510,227.980
356,44679.216000,253.035,-6.538,-55.782,456.631,183.122,-161.090,-239.040,204.510,259.980
357,44679.254000,262.919,0.503,-72.716,462.370,173.751,-148.538,-353.040,465.510,228.980
358,44679.287000,266.873,-39.733,-26.895,463.396,177.838,-139.619,-625.040,530.510,156.980
359,44679.316000,240.185,-30.680,27.891,468.300,182.049,-126.766,-369.040,321.510,55.980
360,44679.363000,235.243,-24.644,13.946,469.257,180.203,-122.883,-167.040,42.510,77.980
361,44679.429000,256.000,-18.609,-41.837,467.285,176.300,-122.974,4.960,-23.490,77.980
362,44679.444000,258.965,-0.503,-34.864,468.247,175.382,-121.031,-169.040,31.510,59.980
363,44679.483000,253.035,-36.715,-7.969,467.273,174.423,-120.073,-71.040,12.510,58.980
364,44679.523000,253.035,-12.574,-14.942,465.314,172.420,-122.083,10.960,-28.490,51.980
365,44679.584000,253.035,-12.574,-18.926,469.266,180.289,-118.958,20.960,-36.490,50.980
366,44679.592000,252.046,-29.674,-12.949,470.189,176.350,-121.986,-96.040,-95.490,35.980
367,44679.621000,248.093,-17.603,-20.918,470.095,166.641,-122.201,11.960,-85.490,35.980
368,44679.672000,256.988,-12.574,-24.903,469.230,178.175,-126.851,-37.040,-105.490,39.980
369,44679.703000,251.058,-12.574,-24.903,470.209,179.176,-125.846,-91.040,-116.490,51.980
370,44679.743000,252.046,-23.639,-24.903,472.010,166.466,-131.027,-84.040,-108.490,68.980
371,44679.793000,250.069,-11.568,-34.864,471.111,173.274,-129.897,-112.040,-125.490,69.980
372,44679.833000,254.023,-3.521,-40.840,470.125,172.208,-133.846,-227.040,-150.490,62.980
373,44679.863000,250.069,-42.750,-29.883,468.143,168.219,-137.861,-148.040,-111.490,96.980
374,44679.886000,252.046,-17.603,-31.875,470.108,171.172,-136.811,-105.040,-86.490,79.980
375,44679.941000,256.000,-13.580,-32.872,471.055,169.218,-137.833,-86.040,-84.490,78.980
376,44679.962000,248.093,-34.703,-24.903,472.898,160.435,-140.966,-140.040,-106.490,79.980
377,44679.998000,253.035,-19.615,-34.864,470.081,169.144,-140.778,-34.040,-90.490,46.980
378,44680.37000,248.093,-28.668,-38.848,465.168,162.215,-144.865,-79.040,-90.490,49.980
379,44680.78000,248.093,-28.668,-32.872,466.133,161.318,-141.941,-13.040,-86.490,39.980
380,44680.127000,245.127,-26.656,-33.868,468.081,164.099,-148.740,52.960,-97.490,31.980
381,44680.158000,254.023,-27.662,-39.844,468.026,158.295,-147.888,49.960,-121.490,29.980
382,44680.208000,253.035,-22.633,-38.848,464.171,161.040,-153.719,83.960,-117.490,25.980
383,44680.228000,249.081,-32.692,-42.833,466.048,156.097,-158.728,157.960,-106.490,29.980
384,44680.269000,249.081,-35.709,-40.840,465.092,157.080,-157.728,133.960,-119.490,29.980
385,44680.307000,247.104,-23.639,-49.805,466.058,157.952,-162.610,67.960,-125.490,10.980
386,44680.350000,256.988,-23.639,-48.809,462.202,159.813,-164.538,5.960,-128.490,1.980
387,44680.394000,256.988,-8.550,-57.774,460.202,153.883,-168.597,-89.040,-116.490,-25.020
388,44680.428000,279.722,-3.521,-44.825,461.207,157.776,-168.508,-467.040,-140.490,-51.020
389,44680.465000,266.873,-13.580,-71.720,465.126,161.805,-163.507,-490.040,87.510,-60.020
390,44680.508000,227.336,83.992,-95.626,461.453,179.502,-151.354,-1334.040,-151.490,-238.020
391,44680.530000,237.220,22.633,-174.319,457.655,188.957,-160.959,-1177.040,-680.490,-138.020
392,44680.567000,235.243,168.487,-227.113,443.244,202.990,-178.330,-1770.040,-1735.490,-605.020
393,44680.609000,265.884,209.729,-160.374,418.411,241.040,-202.054,-1493.040,-1891.490,-812.020
394,44680.647000,314.317,140.322,-30.879,387.828,284.838,-226.643,-1805.040,-1991.490,-1293.020
395,44680.705000,320.247,73.933,97.619,344.688,326.937,-234.626,-1726.040,-1652.490,-1490.020
396,44680.738000,326.178,33.697,129.494,315.962,356.794,-232.062,-1578.040,-462.490,-1337.020
397,44680.781000,326.178,15.591,152.405,302.950,402.271,-187.931,-1980.040,680.510,-1087.020
398,44680.807000,357.807,-47.780,98.615,307.091,421.640,-147.285,-2327.040,1618.510,-829.020
399,44680.848000,375.598,-84.998,43.829,323.020,454.282,-81.804,-1744.040,2419.510,-385.020
400,44680.867000,380.541,-146.358,-49.805,342.560,460.705,-18.858,-1336.040,2529.510,82.980
401,44680.909000,344.958,-134.287,-140.451,367.722,450.465,33.924,-214.040,2426.510,799.980
402,44680.948000,343.969,-143.340,-140.451,400.547,436.050,69.958,198.960,2115.510,1130.980
403,44680.988000,344.958,-125.234,-123.518,431.359,416.459,92.143,1577.960,2251.510,1360.980
404,44681.25000,337.050,-65.886,-149.416,446.691,398.466,105.505,1565.960,2112.510,1480.980
405,44681.67000,324.201,-42.750,-173.323,467.681,362.406,133.188,1330.960,1619.510,1729.980
406,44681.100000,332.108,-18.609,-144.436,487.712,328.170,156.006,1072.960,1131.510,1866.980
407,44681.145000,333.097,3.521,-143.440,494.129,288.733,168.874,1603.960,755.510,2002.980
408,44681.169000,332.108,28.668,-141.447,507.471,269.318,162.587,2013.960,485.510,1992.980
409,44681.207000,322.224,47.780,-129.494,516.844,241.861,145.326,2211.960,266.510,1904.980
410,44681.255000,314.317,73.933,-124.514,523.203,204.517,120.975,2067.960,-64.490,1873.980
411,44681.294000,259.954,162.452,-128.498,532.642,184.741,99.962,1285.960,-548.490,1793.980
412,44681.330000,244.139,164.464,-112.560,544.691,139.298,57.791,202.960,-1580.490,1580.980
413,44681.370000,287.629,296.236,-8.965,545.201,105.867,-6.693,-451.040,-2280.490,1118.980
414,44681.413000,277.745,307.301,418.366,542.106,96.065,-53.989,1020.960,-915.490,107.980
415,44681.455000,357.807,104.110,43.829,542.195,104.846,-51.833,938.960,407.510,-303.020
416,44681.490000,235.243,146.358,15.938,543.167,105.783,-53.771,415.960,-153.490,-319.020
417,44681.508000,254.023,87.010,-9.961,546.232,121.453,-48.514,-786.040,-83.490,-337.020
418,44681.548000,218.440,132.275,24.903,546.329,128.551,-34.627,-2142.040,320.510,-689.020
419,44681.587000,267.861,83.992,-26.895,548.580,155.366,-7.549,-1802.040,589.510,-922.020
420,44681.632000,258.965,74.939,-64.747,546.901,175.411,22.312,-1664.040,547.510,-1029.020
421,44681.667000,256.000,54.821,-79.689,544.281,199.223,47.352,-1746.040,264.510,-1166.020
422,44681.709000,260.942,6.538,-84.669,540.713,225.852,68.529,-1849.040,33.510,-1202.020
423,44681.747000,254.023,-8.550,-85.665,535.145,248.319,77.842,-1674.040,-173.490,-1225.020
424,44681.789000,245.127,18.609,-82.677,529.489,262.890,81.096,-1810.040,-315.490,-1330.020
425,44681.808000,255.012,-12.574,-129.494,523.001,291.087,86.611,-1396.040,-593.490,-1240.020
426,44681.850000,277.745,-351.560,217.152,520.213,308.880,58.561,2456.960,486.510,-335.020
427,44681.887000,386.471,-257.006,88.654,503.933,327.921,49.143,1305.960,753.510,-551.020
428,44681.930000,325.189,-177.540,34.864,504.877,325.946,47.140,-146.040,-426.490,202.980
429,44681.975000,250.069,-82.986,10.957,517.347,314.483,49.853,-1862.040,-1011.490,569.980
430,44682.7000,251.058,-56.833,-13.946,522.009,295.242,55.320,-1752.040,-842.490,442.980
431,44682.54000,300.479,-188.605,39.844,524.749,279.628,50.076,1590.960,45.510,1103.980
432,44682.87000,281.699,-109.139,-31.875,533.206,257.060,34.883,3264.960,764.510,1218.980
433,44682.125000,247.104,-6.538,-68.732,539.826,243.340,25.767,3624.960,1051.510,1104.980
434,44682.145000,236.232,25.650,-67.735,546.359,217.343,32.068,1898.960,1029.510,1385.980
435,44682.184000,231.290,-3.521,-57.774,547.995,183.684,45.054,568.960,745.510,1424.980
436,44682.225000,234.255,124.228,-76.700,551.430,137.293,51.876,-410.040,288.510,1332.980
437,44682.265000,200.649,177.540,-103.595,554.071,110.158,52.260,-1656.040,-277.490,1280.980
438,44682.302000,286.641,102.098,-124.514,552.820,84.540,35.018,-1521.040,-959.490,742.980
439,44682.341000,306.409,131.269,321.743,551.880,89.190,26.293,1069.960,559.510,-398.020
440,44682.386000,328.154,40.739,73.712,548.136,100.932,32.430,1674.960,305.510,36.980
441,44682.425000,258.965,-119.198,74.708,550.015,96.011,28.402,-599.040,-186.490,-120.020
442,44682.465000,248.093,19.615,95.626,544.273,104.476,18.771,775.960,-357.490,-215.020
443,44682.478000,239.197,-47.780,4.981,545.331,115.920,9.221,547.960,-299.490,-163.020
444,44682.527000,223.382,-44.762,10.957,543.416,120.497,-2.450,291.960,-358.490,-163.020
445,44682.567000,233.266,-28.668,3.984,546.331,123.287,-9.246,419.960,-201.490,-62.020
446,44682.607000,261.931,-54.821,16.934,545.331,121.206,-15.179,305.960,-135.490,-27.020
447,44682.639000,267.861,-1.509,57.774,542.382,117.208,-19.196,379.960,-11.490,-40.020
448,44682.679000,268.849,5.532,55.782,539.525,122.897,-23.979,171.960,-190.490,-64.020
449,44682.719000,240.185,-62.868,37.852,540.505,125.668,-30.780,181.960,-418.490,-42.020
450,44682.767000,250.069,-33.697,12.949,541.463,127.339,-43.490,137.960,-437.490,-117.020
451,44682.787000,253.035,-32.692,13.946,538.535,126.189,-50.386,308.960,-328.490,-93.020
452,44682.819000,253.035,-20.621,11.953,540.471,128.862,-62.091,277.960,-285.490,-72.020
453,44682.859000,253.035,-37.721,13.946,537.518,125.705,-71.974,46.960,-260.490,-104.020
454,44682.899000,253.035,-26.656,5.977,536.659,137.303,-73.679,206.960,-230.490,-133.020
455,44682.941000,252.046,-16.597,-1.992,531.816,138.960,-84.440,116.960,-230.490,-109.020
456,44682.980000,253.035,-20.621,10.957,532.721,133.964,-91.414,85.960,-221.490,-99.020
457,44683.34000,251.058,-33.697,-8.965,526.954,138.676,-95.244,183.960,-180.490,-82.020
458,44683.61000,256.000,-8.550,-17.930,528.913,141.564,-97.137,418.960,-75.490,-77.020
459,44683.104000,254.023,3.521,-4.981,526.997,144.372,-101.001,140.960,-126.490,-49.020
460,44683.126000,249.081,-23.639,0.000,525.988,141.320,-106.955,86.960,-138.490,-12.020
461,44683.167000,251.058,-12.574,0.000,529.896,146.126,-110.763,11.960,-180.490,-33.020
462,44683.207000,252.046,-12.574,1.992,525.062,146.985,-113.696,-92.040,-227.490,-35.020
463,44683.251000,256.000,-16.597,-14.942,526.018,146.886,-118.599,-193.040,-243.490,-22.020
464,44683.287000,255.012,-26.656,-17.930,524.100,149.672,-123.445,-155.040,-207.490,-21.020
465,44683.319000,254.023,-17.603,-12.949,522.156,149.567,-127.374,-77.040,-189.490,-32.020
466,44683.359000,250.069,-11.568,-13.946,521.198,151.413,-131.258,-209.040,-233.490,-20.020
467,44683.407000,258.965,-4.527,-21.914,521.166,148.458,-133.285,-217.040,-184.490,-11.020
468,44683.421000,253.035,-22.633,-30.879,516.364,153.157,-138.094,-185.040,-145.490,-12.020
469,44683.466000,254.023,-5.532,-29.883,515.430,156.988,-139.972,-233.040,-110.490,-26.020
470,44683.501000,252.046,-23.639,-23.907,517.351,155.108,-138.048,-180.040,-90.490,-34.020
471,44683.539000,245.127,-29.674,-20.918,515.447,158.908,-140.910,-169.040,-129.490,-62.020
472,44683.579000,244.139,-19.615,-21.914,515.414,156.837,-146.840,-59.040,-137.490,-61.020
473,44683.620000,250.069,-18.609,-28.887,509.621,157.773,-145.851,137.960,-86.490,-60.020
474,44683.660000,256.988,-16.597,-31.875,514.527,165.522,-148.610,67.960,-79.490,-47.020
475,44683.699000,239.197,1.509,-25.899,510.634,163.499,-150.625,68.960,-101.490,-46.020
476,44683.741000,255.012,-29.674,-23.907,508.641,158.518,-155.643,56.960,-122.490,-51.020
477,44683.762000,256.000,3.521,-38.848,504.823,164.263,-157.485,145.960,-116.490,-145.020
478,44683.803000,257.977,10.562,-41.837,506.733,162.275,-160.467,73.960,-76.490,-56.020
479,44683.847000,248.093,-9.556,-41.837,505.833,169.083,-159.337,-146.040,-58.490,-1.020
480,44683.888000,251.058,2.515,-38.848,508.731,168.184,-157.390,-444.040,-28.490,6.980
481,44683.920000,255.012,-7.544,-41.837,505.819,167.185,-157.418,-420.040,-38.490,-16.020
482,44683.960000,245.127,-7.544,-38.848,504.924,174.036,-154.326,-380.040,-65.490,-12.020
483,44684.0,245.127,-29.674,-28.887,504.979,179.840,-155.177,-118.040,-52.490,-21.020
484,44684.40000,244.139,-41.745,-42.833,503.971,175.925,-156.247,215.960,-51.490,-7.020
485,44684.62000,251.058,26.656,-51.798,505.932,179.720,-161.062,333.960,-15.490,-32.020
486,44684.104000,265.884,19.615,-40.840,505.921,178.727,-162.065,49.960,18.510,-19.020
487,44684.144000,247.104,-13.580,-38.848,502.053,178.711,-161.093,-34.040,55.510,-36.020
488,44684.185000,249.081,-16.597,-49.805,502.013,173.921,-158.257,85.960,200.510,-64.020
489,44684.223000,260.942,38.727,-32.872,507.888,179.933,-152.227,-73.040,238.510,-57.020
490,44684.265000,243.151,-23.639,-29.883,505.971,180.086,-144.383,-260.040,196.510,12.980
491,44684.312000,253.035,-2.515,-32.872,505.017,180.206,-138.498,-269.040,165.510,-9.020
492,44684.345000,255.012,-4.527,-34.864,507.921,180.256,-137.510,-197.040,165.510,-25.020
493,44684.388000,243.151,24.644,-15.938,507.033,187.172,-131.474,-392.040,53.510,-3.020
494,44684.408000,258.965,0.503,-19.922,509.911,183.446,-125.667,-409.040,-2.490,49.980
495,44684.448000,253.035,-1.509,-35.860,509.979,189.380,-120.632,-295.040,51.510,91.980
496,44684.486000,258.965,9.556,-24.903,512.895,189.537,-114.738,-482.040,116.510,117.980
497,44684.529000,254.023,9.556,-36.856,513.888,190.669,-107.847,-556.040,271.510,115.980
498,44684.566000,252.046,-31.686,-22.911,514.824,185.975,-101.084,-598.040,294.510,46.980
499,44684.612000,248.093,-39.733,-6.973,515.872,191.162,-86.257,-426.040,222.510,-73.020
500,44684.648000,248.093,-9.556,30.879,516.905,197.083,-82.201,-631.040,22.510,-33.020
501,44684.688000,238.208,-14.585,0.996,515.876,190.320,-80.392,-269.040,-84.490,-72.020
502,44684.708000,247.104,0.503,-16.934,514.012,197.141,-78.283,-28.040,-86.490,-33.020
503,44684.740000,256.988,-6.538,-10.957,515.964,199.964,-83.119,183.960,-79.490,-17.020
504,44684.781000,249.081,-13.580,-0.996,513.034,198.793,-90.997,293.960,-153.490,-53.020
505,44684.822000,254.023,-7.544,-14.942,512.072,200.596,-96.843,419.960,-215.490,-75.020
506,44684.862000,246.116,-6.538,-23.907,510.046,193.543,-107.791,514.960,-252.490,-88.020
507,44684.901000,252.046,-0.503,-33.868,507.143,195.263,-116.585,519.960,-236.490,-70.020
508,44684.940000,250.069,23.639,-22.911,504.237,196.960,-126.360,417.960,-231.490,-17.020
509,44684.980000,246.116,2.515,-21.914,507.100,194.853,-135.226,375.960,-308.490,70.980
510,44685.32000,263.907,-33.697,-7.969,505.058,186.765,-149.140,589.960,-371.490,-3.020
511,44685.43000,255.012,-11.568,-54.786,501.164,187.375,-163.844,521.960,-443.490,-145.020
512,44685.83000,251.058,19.615,-83.673,500.115,180.418,-170.865,461.960,-192.490,-133.020
513,44685.124000,249.081,15.591,-71.720,492.369,180.278,-173.827,287.960,21.510,-81.020
514,44685.168000,241.174,16.597,-56.778,497.293,189.085,-172.640,104.960,105.510,-2.020
515,44685.208000,254.023,5.532,-37.852,501.094,181.420,-169.860,4.960,98.510,37.980
516,44685.250000,251.058,-4.527,-43.829,499.147,179.524,-166.965,106.960,95.510,67.980
517,44685.287000,256.988,10.562,-52.794,499.119,176.612,-167.029,-91.040,158.510,67.980
518,44685.327000,249.081,-4.527,-42.833,502.107,183.630,-158.041,-238.040,180.510,105.980
519,44685.367000,247.104,1.509,-44.825,504.995,180.875,-152.212,-374.040,156.510,131.980
520,44685.387000,257.977,7.544,-43.829,506.941,181.002,-147.302,-329.040,213.510,161.980
521,44685.426000,254.023,-7.544,-40.840,506.907,175.392,-137.620,-466.040,248.510,217.980
522,44685.467000,253.035,-9.556,-34.864,510.813,177.544,-129.719,-324.040,350.510,201.980
523,44685.511000,257.977,-13.580,-20.918,520.467,172.159,-114.127,-328.040,435.510,190.980
524,44685.542000,249.081,-31.686,0.000,521.427,169.450,-105.360,-254.040,405.510,147.980
525,44685.582000,246.116,-17.603,10.957,524.337,168.680,-97.525,-186.040,277.510,143.980
526,44685.622000,242.162,-13.580,6.973,522.287,156.104,-94.867,-5.040,76.510,119.980
527,44685.662000,250.069,-31.686,3.984,522.346,161.951,-93.756,-33.040,-49.490,123.980
528,44685.690000,256.000,-13.580,-9.961,528.120,159.073,-94.789,-58.040,-55.490,149.980
529,44685.752000,253.035,-6.538,-26.895,530.031,157.107,-96.789,-114.040,-103.490,131.980
530,44685.769000,252.046,-11.568,-11.953,524.138,149.154,-102.862,-449.040,-246.490,115.980
531,44685.839000,251.058,-28.668,-17.930,528.008,150.077,-106.756,-136.040,-213.490,165.980
532,44685.855000,265.884,-41.745,-11.953,527.871,136.441,-109.021,-64.040,-238.490,159.980
533,44685.889000,256.000,-26.656,-13.946,526.038,147.965,-113.672,8.960,-200.490,102.980
534,44685.934000,256.000,-25.650,-18.926,530.848,145.984,-117.629,17.960,-225.490,84.980
535,44685.970000,259.954,-15.591,-39.844,528.843,140.011,-123.649,47.960,-179.490,79.980
536,44686.7000,261.931,-13.580,-43.829,525.903,136.099,-123.742,-255.040,-107.490,60.980
537,44686.33000,251.058,-18.609,-36.856,527.883,140.951,-124.611,-327.040,-107.490,38.980
538,44686.93000,245.127,-1.509,-39.844,526.873,137.015,-126.662,-492.040,-173.490,-8.020
539,44686.109000,256.000,17.603,-44.825,528.003,153.550,-125.312,-784.040,-279.490,-76.020
540,44686.148000,259.954,-65.886,-44.825,529.903,150.592,-128.316,-421.040,-144.490,15.980
541,44686.187000,228.324,-0.503,-54.786,527.874,140.864,-128.536,-242.040,-135.490,-82.020
542,44686.232000,252.046,5.532,-45.821,524.173,158.302,-128.156,-306.040,-54.490,-85.020
543,44686.274000,236.232,19.615,-71.720,526.204,169.799,-135.742,-496.040,-363.490,-226.020
544,44686.310000,244.139,-20.621,-86.661,520.372,169.484,-147.530,2.960,-484.490,-258.020
545,44686.324000,252.046,-6.538,-94.630,512.566,166.129,-164.292,353.960,-557.490,-210.020
546,44686.365000,244.139,19.615,-122.521,508.705,169.694,-176.969,-14.040,-702.490,-195.020
547,44686.413000,242.162,51.804,-155.393,501.003,177.904,-197.397,-302.040,-1041.490,-270.020
548,44686.453000,232.278,99.081,-175.315,482.695,191.640,-226.551,-699.040,-1354.490,-447.020
549,44686.493000,260.942,81.980,-141.447,456.825,223.727,-256.294,-1079.040,-1583.490,-647.020
550,44686.532000,262.919,64.880,-97.619,424.083,244.226,-280.424,-795.040,-1482.490,-839.020
551,44686.575000,256.988,55.827,-66.739,394.328,272.606,-300.451,-447.040,-1173.490,-954.020
552,44686.610000,251.058,14.585,-54.786,380.830,279.076,-309.162,-131.040,-674.490,-986.020
553,44686.652000,244.139,25.650,-43.829,355.899,303.858,-318.471,-13.040,-472.490,-966.020
554,44686.674000,258.965,7.544,-51.798,345.453,325.005,-322.927,-326.040,-325.490,-896.020
555,44686.711000,241.174,9.556,-56.778,329.174,342.299,-323.558,-585.040,-214.490,-724.020
556,44686.754000,228.324,5.532,-82.677,328.373,356.205,-308.541,-464.040,68.510,-585.020
557,44686.794000,225.359,33.697,-63.751,327.610,376.649,-305.147,-305.040,216.510,-332.020
558,44686.832000,219.429,64.880,-52.794,332.561,385.714,-292.186,-491.040,410.510,-260.020
559,44686.870000,225.359,73.933,-73.712,342.312,390.943,-279.301,-961.040,519.510,-234.020
560,44686.910000,235.243,47.780,-90.646,355.170,413.137,-246.420,-847.040,748.510,-273.020
561,44686.952000,247.104,62.868,-78.693,370.720,414.841,-219.871,-294.040,963.510,-154.020
562,44686.974000,256.000,47.780,-58.770,386.318,420.536,-188.331,-400.040,1082.510,-14.020
563,44687.5000,266.873,30.680,-13.946,411.531,418.710,-150.072,-36.040,1496.510,128.980
564,44687.53000,273.792,31.686,-16.934,434.844,416.325,-92.217,-271.040,1882.510,225.980
565,44687.92000,326.178,-27.662,-24.903,444.517,400.562,-18.997,-121.040,2430.510,435.980
566,44687.128000,341.004,-35.709,-78.693,450.347,392.937,28.898,324.960,2641.510,605.980
567,44687.169000,347.923,-72.927,-73.712,442.596,377.781,93.269,165.960,2383.510,905.980
568,44687.220000,340.015,-106.122,-90.646,437.727,364.228,141.011,479.960,2117.510,1348.980
569,44687.250000,302.456,-64.880,-135.471,435.587,336.701,169.815,553.960,1601.510,1652.980
570,44687.293000,303.444,-49.792,-136.467,437.263,306.946,183.868,460.960,1120.510,1662.980
571,44687.310000,299.490,-6.538,-149.416,447.636,279.823,181.327,501.960,633.510,1839.980
572,44687.354000,282.687,42.750,-148.420,455.032,244.904,178.606,94.960,-168.490,1910.980
573,44687.394000,318.270,29.674,-123.518,477.918,215.530,156.427,509.960,-666.490,1799.980
574,44687.425000,293.560,74.939,-85.665,494.973,185.840,122.462,1105.960,-1008.490,1597.980
575,44687.473000,288.618,99.081,-71.720,510.035,152.054,79.575,1194.960,-1235.490,1500.980
576,44687.514000,261.931,209.729,-47.813,517.353,119.034,30.805,560.960,-1702.490,1028.980
577,44687.554000,298.502,305.289,340.669,519.221,120.175,-6.431,1991.960,-1203.490,104.980
578,44687.593000,337.050,253.988,224.125,517.355,127.858,-9.206,1889.960,473.510,-416.020
579,44687.633000,309.375,123.222,119.533,519.340,134.522,-15.918,799.960,-108.490,-234.020
580,44687.650000,263.907,72.927,-1.992,517.439,138.344,-17.799,-333.040,-153.490,-309.020
581,44687.692000,265.884,170.499,-20.918,511.718,145.256,-9.812,-65.040,434.510,-366.020
582,44687.730000,233.266,190.617,21.914,506.230,171.132,22.132,-1794.040,828.510,-824.020
583,44687.770000,290.595,94.051,-5.977,501.584,181.721,64.525,-2378.040,955.510,-856.020
584,44687.814000,261.931,107.128,-71.720,488.335,202.905,107.136,-2775.040,673.510,-1064.020
585,44687.854000,280.710,52.809,-80.685,481.698,209.419,141.590,-2734.040,154.510,-1215.020
586,44687.895000,276.757,20.621,-113.556,479.876,217.533,158.437,-2070.040,-20.490,-1350.020
587,44687.935000,256.000,-14.585,-153.401,468.494,238.089,171.618,-1198.040,-346.490,-1493.020
588,44687.953000,271.815,-17.603,-136.467,463.870,260.328,170.141,-1108.040,-789.490,-1548.020
589,44687.993000,289.606,-66.892,-101.603,465.994,282.418,158.868,-1207.040,-1163.490,-1456.020
590,44688.33000,262.919,-123.222,-103.595,468.049,298.554,141.578,-720.040,-1199.490,-1313.020
591,44688.73000,400.309,-340.495,182.288,467.262,324.046,109.781,934.960,-720.490,-679.020
592,44688.113000,318.270,-146.358,206.195,464.382,328.635,99.089,942.960,517.510,-55.020
593,44688.149000,269.838,-73.933,46.817,462.528,333.794,113.910,-491.040,369.510,170.980
594,44688.192000,310.363,-149.375,51.798,469.215,319.836,138.130,-1196.040,268.510,523.980
595,44688.234000,292.571,-130.263,49.805,475.738,291.099,152.216,-448.040,435.510,918.980
596,44688.273000,290.595,-133.281,19.922,472.695,274.761,160.673,803.960,648.510,1160.980
597,44688.295000,286.641,-114.169,-20.918,475.438,258.284,160.313,1426.960,703.510,1264.980
598,44688.345000,274.780,-70.916,-35.860,474.334,245.524,154.144,1840.960,668.510,1406.980
599,44688.380000,276.757,-39.733,-50.802,483.943,239.707,150.112,1794.960,616.510,1514.980
600,44688.412000,273.792,23.639,-66.739,490.447,214.315,139.756,1562.960,423.510,1562.980
601,44688.452000,282.687,46.774,-65.743,493.035,184.030,129.282,1094.960,138.510,1462.980
602,44688.489000,258.965,122.216,-66.739,499.542,159.544,116.004,373.960,-386.490,1499.980
603,44688.532000,241.174,184.582,-55.782,511.683,119.387,93.564,-693.040,-944.490,1178.980
604,44688.569000,240.185,174.523,-41.837,519.183,101.318,62.778,-1160.040,-1562.490,439.980
605,44688.587000,254.023,219.788,195.237,519.108,98.837,38.206,1867.960,-450.490,-98.020
606,44688.624000,305.421,7.544,67.735,519.192,106.690,42.303,1890.960,527.510,-368.020
607,44688.670000,278.734,-30.680,63.751,515.369,110.622,46.305,466.960,201.510,31.980
608,44688.707000,276.757,-84.998,79.689,515.439,116.577,52.321,-302.040,208.510,-94.020
609,44688.750000,254.023,-12.574,72.716,514.485,116.697,58.206,-88.040,76.510,-94.020
610,44688.785000,248.093,-80.974,49.805,516.376,112.768,55.181,134.960,-21.490,-40.020
611,44688.829000,242.162,-67.898,22.911,515.392,111.723,52.214,71.960,-112.490,-56.020
612,44688.865000,238.208,-71.921,17.930,518.330,115.613,51.325,-46.040,-126.490,-21.020
613,44688.909000,234.255,-64.880,14.942,516.457,123.232,45.607,165.960,-112.490,-78.020
614,44688.927000,239.197,-56.833,18.926,516.497,128.021,42.771,338.960,-62.490,-49.020
615,44688.964000,237.220,-44.762,16.934,513.614,130.819,38.904,336.960,-49.490,-76.020
616,44689.7000,243.151,-50.798,20.918,512.595,125.912,36.832,214.960,-84.490,-52.020
617,44689.52000,242.162,-49.792,13.946,516.475,127.806,32.960,239.960,-63.490,-120.020
618,44689.87000,253.035,-48.786,44.825,515.571,134.571,32.127,154.960,-70.490,-46.020
619,44689.130000,250.069,-31.686,41.837,512.690,137.390,29.242,139.960,-140.490,-119.020
620,44689.167000,247.104,-29.674,11.953,512.708,141.080,20.498,153.960,-254.490,-129.020
621,44689.207000,254.023,-32.692,11.953,513.647,139.061,16.532,100.960,-269.490,-164.020
622,44689.225000,257.977,-84.998,31.875,509.821,145.604,6.863,22.960,-175.490,-134.020
623,44689.269000,250.069,-50.798,27.891,511.827,153.346,5.077,289.960,-141.490,-170.020
624,44689.307000,255.012,-24.644,31.875,512.814,157.067,-2.683,170.960,-262.490,-193.020
625,44689.350000,256.988,-36.715,25.899,510.857,156.832,-12.499,138.960,-331.490,-187.020
626,44689.387000,247.104,-22.633,-0.996,502.141,157.545,-20.347,116.960,-385.490,-152.020
627,44689.437000,250.069,-22.633,-1.992,501.220,164.138,-29.029,44.960,-364.490,-118.020
628,44689.468000,246.116,-22.633,-19.922,498.340,168.727,-39.720,127.960,-315.490,-63.020
629,44689.505000,251.058,-32.692,-16.934,500.256,167.688,-43.662,29.960,-254.490,-65.020
630,44689.548000,258.965,-25.650,-11.953,502.142,163.716,-48.649,92.960,-199.490,-92.020
631,44689.570000,259.954,-16.597,-6.973,496.395,171.254,-56.339,-62.040,-226.490,-111.020
632,44689.610000,254.023,-24.644,-9.961,495.406,169.281,-57.366,1.960,-236.490,-123.020
633,44689.647000,252.046,-26.656,-17.930,491.620,179.729,-65.968,-13.040,-238.490,-146.020
634,44689.685000,251.058,-19.615,-23.907,493.598,184.559,-67.818,-42.040,-226.490,-174.020
635,44689.728000,256.988,-4.527,-11.953,482.013,188.200,-73.645,-122.040,-250.490,-175.020
636,44689.765000,249.081,-34.703,-17.930,484.918,190.019,-80.463,-93.040,-320.490,-185.020
637,44689.808000,246.116,-36.715,-27.891,482.085,198.577,-87.144,144.960,-270.490,-186.020
638,44689.847000,249.081,-13.580,-44.825,479.181,200.297,-95.938,71.960,-241.490,-194.020
639,44689.867000,243.151,-6.538,-39.844,478.183,197.353,-96.986,173.960,-182.490,-165.020
640,44689.908000,251.058,-13.580,-27.891,473.451,209.755,-104.566,43.960,-207.490,-158.020
641,44689.945000,251.058,-16.597,-41.837,473.406,205.806,-107.596,77.960,-221.490,-161.020
642,44689.988000,260.942,14.585,-46.817,471.410,200.804,-113.595,85.960,-144.490,-174.020
643,44690.30000,253.035,6.538,-46.817,465.762,217.209,-115.204,-72.040,-62.490,-67.020
644,44690.67000,254.023,-0.503,-45.821,465.707,211.405,-114.352,-75.040,-74.490,-13.020
645,44690.110000,256.988,4.527,-47.813,466.661,210.401,-116.334,-33.040,-39.490,5.980
646,44690.155000,256.000,6.538,-47.813,465.757,217.166,-117.166,-183.040,-33.490,21.980
647,44690.185000,242.162,-10.562,-48.809,468.650,215.338,-113.278,-289.040,-17.490,54.980
648,44690.210000,242.162,-29.674,-44.825,467.708,217.335,-110.294,-271.040,40.510,42.980
649,44690.247000,253.035,-4.527,-27.891,470.629,218.421,-106.341,-141.040,40.510,-8.020
650,44690.288000,250.069,6.538,-50.802,467.729,219.299,-109.270,36.960,78.510,0.980
651,44690.327000,244.139,0.503,-48.809,471.548,212.691,-102.544,-130.040,94.510,33.980
652,44690.369000,251.058,-6.538,-36.856,476.381,212.695,-104.495,-108.040,146.510,-13.020
653,44690.408000,238.208,-45.768,-52.794,469.646,214.744,-96.618,232.960,238.510,-23.020
654,44690.447000,248.093,27.662,-58.770,469.709,220.634,-93.545,254.960,321.510,-87.020
655,44690.490000,261.931,31.686,-14.942,473.592,220.801,-87.649,140.960,301.510,-24.020
656,44690.508000,251.058,1.509,-17.930,476.487,218.995,-82.780,58.960,229.510,5.980
657,44690.549000,250.069,22.633,-13.946,473.570,216.184,-76.965,-160.040,137.510,19.980
658,44690.599000,256.988,39.733,-18.926,477.484,219.285,-70.023,-485.040,127.510,104.980
659,44690.634000,237.220,15.591,-32.872,476.513,217.485,-63.200,-1142.040,-16.490,158.980
660,44690.669000,247.104,-35.709,-48.809,481.363,216.777,-53.399,-963.040,-28.490,216.980
661,44690.707000,262.919,10.562,-44.825,481.362,214.123,-41.690,-893.040,139.510,150.980
662,44690.747000,263.907,-34.703,-35.860,485.176,205.703,-29.120,-641.040,328.510,112.980
663,44690.792000,246.116,-75.945,29.883,484.318,214.669,-18.136,-323.040,286.510,-31.020
664,44690.828000,239.197,-19.615,34.864,487.237,215.733,-15.164,-69.040,-0.490,-116.020
665,44690.847000,246.116,3.521,-14.942,481.419,215.547,-21.065,-99.040,-198.490,-111.020
666,44690.889000,253.035,-8.550,-37.852,483.399,220.398,-21.933,28.960,-74.490,-107.020
667,44690.928000,251.058,15.591,-11.953,483.333,213.602,-22.084,-128.040,-25.490,-46.020
668,44690.967000,256.988,-13.580,-2.988,479.496,216.520,-20.066,-79.040,-67.490,-34.020
669,44691.8000,252.046,-9.556,-18.926,478.620,226.198,-20.834,87.960,-69.490,-55.020
670,44691.52000,257.977,-10.562,-24.903,479.593,228.020,-26.675,248.960,-91.490,-88.020
671,44691.88000,246.116,-21.627,-10.957,477.581,221.982,-35.640,404.960,-136.490,-94.020
672,44691.128000,243.151,-0.503,-12.949,474.708,226.635,-43.388,752.960,-250.490,-87.020
673,44691.147000,244.139,-10.562,-25.899,473.681,223.411,-57.191,882.960,-291.490,-49.020
674,44691.197000,257.977,29.674,-2.988,473.607,219.183,-72.975,617.960,-514.490,-121.020
675,44691.228000,256.000,-48.786,-29.883,467.876,231.273,-94.294,841.960,-571.490,-134.020
676,44691.267000,248.093,-4.527,-56.778,461.021,227.776,-117.922,1242.960,-487.490,-288.020
677,44691.309000,229.313,38.727,-82.677,452.258,226.268,-138.567,1048.960,-320.490,-281.020
678,44691.347000,260.942,19.615,-83.673,447.360,221.237,-144.573,833.960,-84.490,-186.020
679,44691.390000,236.232,53.815,-75.704,447.377,224.042,-149.414,448.960,78.510,-62.020
680,44691.428000,246.116,22.633,-56.778,450.298,226.012,-149.364,-181.040,59.510,132.980
681,44691.470000,242.162,-21.627,-54.786,455.135,225.174,-145.450,-1.040,120.510,126.980
682,44691.490000,259.954,0.503,-50.802,457.947,214.652,-139.794,-115.040,129.510,116.980
683,44691.528000,242.162,28.668,-56.778,457.047,220.576,-134.761,-292.040,120.510,109.980
684,44691.572000,250.069,-2.515,-57.774,462.872,220.827,-125.917,-711.040,77.510,144.980
685,44691.609000,248.093,-9.556,-56.778,466.757,220.131,-115.137,-693.040,209.510,187.980
686,44691.654000,254.023,8.550,-45.821,467.722,218.349,-108.310,-627.040,262.510,203.980
687,44691.690000,245.127,14.585,-45.821,472.524,211.902,-94.714,-1142.040,195.510,198.980
688,44691.729000,260.942,-48.786,-11.953,472.563,214.038,-85.840,-869.040,-6.490,202.980
689,44691.777000,256.000,-13.580,-32.872,472.617,218.073,-78.886,-227.040,86.510,94.980
690,44691.810000,260.942,17.603,-27.891,478.419,217.223,-75.951,-383.040,6.510,35.980
691,44691.832000,252.046,-70.916,-17.930,477.422,212.532,-68.212,-608.040,-99.490,54.980
692,44691.868000,253.035,-21.627,-41.837,476.514,219.254,-71.006,11.960,9.510,-63.020
693,44691.913000,256.988,21.627,-30.879,475.530,217.324,-70.071,-138.040,18.510,-19.020
694,44691.950000,260.942,1.509,-14.942,477.483,218.400,-66.120,-318.040,-24.490,-21.020
695,44691.993000,238.208,-15.591,-51.798,475.591,222.308,-64.076,65.960,67.510,-73.020
696,44692.29000,253.035,-6.538,-59.767,471.763,226.197,-62.036,11.960,160.510,-126.020
697,44692.73000,256.988,-29.674,-41.837,472.709,223.359,-59.155,-264.040,191.510,-116.020
698,44692.109000,252.046,16.597,-35.860,468.947,232.274,-49.159,-110.040,257.510,-139.020
699,44692.133000,247.104,16.597,-32.872,471.865,233.338,-46.187,-226.040,295.510,-109.020
700,44692.170000,251.058,-2.515,-22.911,472.949,243.272,-36.158,-177.040,311.510,-101.020
701,44692.208000,232.278,-12.574,-33.868,471.967,240.479,-30.338,-52.040,239.510,-77.020
702,44692.253000,254.023,23.639,-11.953,471.039,243.490,-25.369,31.960,261.510,-87.020
703,44692.288000,248.093,18.609,-15.938,470.066,241.669,-19.528,36.960,235.510,-58.020
704,44692.330000,239.197,-11.568,-27.891,467.161,240.734,-16.613,-12.040,193.510,-31.020
705,44692.375000,242.162,9.556,-26.895,472.016,240.954,-8.752,0.960,298.510,-45.020
706,44692.417000,263.907,23.639,-9.961,473.089,249.895,0.274,65.960,435.510,-62.020
707,44692.452000,250.069,-15.591,-27.891,467.270,247.055,6.083,82.960,542.510,-161.020
708,44692.472000,263.907,-36.715,7.969,467.312,247.465,24.725,71.960,838.510,-232.020
709,44692.518000,293.560,52.809,-38.848,461.708,263.417,46.641,-110.040,1071.510,-460.020
710,44692.549000,278.734,18.609,-69.728,453.191,276.600,76.336,495.960,1612.510,-432.020
711,44692.595000,323.212,17.603,-141.447,436.915,285.998,113.775,449.960,2228.510,-428.020
712,44692.630000,341.004,98.075,-115.549,422.575,290.149,176.600,-704.040,2571.510,-467.020
713,44692.668000,341.992,180.558,-3.984,410.939,276.573,226.288,-2338.040,2379.510,-374.020
714,44692.708000,260.942,195.646,32.872,405.765,229.277,284.067,-4922.040,-11.490,-132.020
715,44692.749000,342.981,6.538,-175.315,454.392,158.647,271.814,-5584.040,-2956.490,-564.020
716,44692.772000,367.691,99.081,-63.751,485.534,195.929,188.370,1320.960,-2740.490,-1033.020
717,44692.809000,315.305,159.434,-259.984,489.489,227.596,82.189,1242.960,-3151.490,-1218.020
718,44692.853000,279.722,112.157,-240.062,467.368,264.725,-28.829,-46.040,-4209.490,-1384.020
719,44692.889000,239.197,57.839,-172.327,435.504,286.140,-100.009,-22.040,-4546.490,-1580.020
720,44692.933000,226.347,59.851,-142.444,367.927,317.670,-180.846,275.960,-4128.490,-1523.020
721,44692.969000,245.127,42.750,-85.665,305.191,344.889,-239.214,296.960,-3569.490,-1305.020
722,44693.21000,233.266,-5.532,-28.887,252.092,363.918,-277.149,-98.040,-2826.490,-1006.020
723,44693.50000,288.618,-16.597,52.794,204.821,380.586,-292.569,2.960,-1134.490,-887.020
724,44693.92000,332.108,-73.933,143.440,173.972,392.776,-298.248,437.960,295.510,-814.020
725,44693.110000,497.174,-43.756,189.261,177.746,384.853,-307.242,1710.960,2239.510,-601.020
726,44693.154000,512.988,-135.293,146.428,193.131,376.180,-311.324,1170.960,2261.510,502.980
727,44693.190000,379.552,165.470,-35.860,224.290,388.973,-272.729,-2619.040,592.510,1335.980
728,44693.233000,292.571,-17.603,5.977,247.580,392.522,-253.969,643.960,1041.510,494.980
729,44693.270000,327.166,76.951,-103.595,262.008,383.062,-249.245,-322.040,903.510,606.980
730,44693.314000,353.853,171.505,-85.665,280.571,396.424,-223.412,-963.040,929.510,525.980
731,44693.357000,286.641,24.644,-67.735,295.092,394.019,-206.763,-187.040,639.510,426.980
732,44693.392000,229.313,46.774,-131.486,297.993,389.624,-187.242,-620.040,404.510,225.980
733,44693.429000,226.347,50.798,-112.560,306.807,398.663,-177.216,-344.040,563.510,164.980
734,44693.450000,217.452,64.880,-64.747,311.675,398.127,-159.566,-471.040,463.510,177.980
735,44693.498000,210.533,-10.562,-67.735,311.714,400.263,-150.692,-20.040,396.510,149.980
736,44693.534000,252.046,18.609,-31.875,309.781,398.497,-141.909,-271.040,179.510,-10.020
737,44693.580000,305.421,62.868,81.681,312.761,406.313,-140.749,-411.040,-394.490,-104.020
738,44693.617000,512.988,49.792,197.230,296.293,407.707,-158.405,-611.040,-1928.490,-264.020
739,44693.652000,506.069,-258.012,-207.191,269.005,397.605,-208.700,792.960,-2323.490,-663.020
740,44693.690000,281.699,-228.841,83.673,265.869,378.612,-232.664,1148.960,37.510,-410.020
741,44693.730000,202.625,-156.417,146.428,306.371,362.784,-220.182,613.960,2169.510,158.980
742,44693.753000,223.382,-144.346,-94.630,376.777,330.571,-171.715,1306.960,4061.510,1202.980
743,44693.798000,290.595,-66.892,-245.043,441.235,277.567,-95.284,1673.960,4411.510,1640.980
744,44693.829000,266.873,17.603,-271.938,468.173,244.692,-13.581,-146.040,2879.510,1256.980
745,44693.872000,255.012,-1.509,-274.926,481.467,208.082,36.629,-346.040,1707.510,1372.980
746,44693.909000,210.533,29.674,-192.249,485.191,189.996,50.945,93.960,663.510,1223.980
747,44693.952000,198.672,102.098,-197.230,494.565,160.792,42.471,707.960,-517.490,892.980
748,44693.989000,209.544,151.387,252.016,499.275,153.461,15.841,1685.960,-800.490,129.980
749,44694.32000,512.988,-38.727,68.732,497.301,150.422,10.866,1752.960,-125.490,168.980
750,44694.69000,346.934,-0.503,82.677,497.316,154.089,1.141,-345.040,-350.490,177.980
751,44694.94000,339.027,81.980,28.887,498.248,151.122,-1.865,104.960,-251.490,88.980
752,44694.134000,314.317,36.715,46.817,500.195,153.017,-4.761,-534.040,-2.490,115.980
753,44694.169000,274.780,268.071,22.911,501.202,155.163,4.115,-1077.040,69.510,-71.020
754,44694.210000,264.896,246.947,76.700,496.397,157.187,10.033,-1244.040,-127.490,-373.020
755,44694.250000,317.282,-28.668,-210.179,496.510,172.354,-6.301,-158.040,-1088.490,-561.020
756,44694.297000,262.919,142.334,-95.626,486.158,207.611,-31.037,-2362.040,-1699.490,-1145.020
757,44694.334000,214.486,35.709,12.949,459.515,256.516,-45.699,-1710.040,-1219.490,-1897.020
758,44694.372000,151.228,65.886,48.809,427.096,302.128,-31.025,-2773.040,-418.490,-2140.020
759,44694.390000,241.174,-170.499,-135.471,407.166,336.450,-5.789,-1854.040,586.510,-1941.020
760,44694.435000,360.772,-465.226,7.969,384.093,355.231,-24.053,3690.960,943.510,-432.020
761,44694.470000,319.259,46.774,64.747,376.353,362.189,-57.257,1794.960,943.510,-250.020
762,44694.512000,407.228,-266.059,55.782,390.797,347.595,-21.267,-2256.040,-463.490,906.980
763,44694.550000,312.340,-72.927,76.700,405.229,332.008,13.722,-2889.040,-712.490,849.980
764,44694.592000,172.973,-86.004,-140.451,416.666,309.338,36.779,-1928.040,-502.490,601.980
765,44694.635000,221.405,-202.688,-14.942,435.865,295.762,28.672,1838.960,283.510,1129.980
766,44694.678000,234.255,-30.680,-1.992,449.139,270.414,17.350,3492.960,1540.510,1601.980
767,44694.710000,274.780,112.157,-55.782,466.286,240.724,27.515,2671.960,1795.510,1575.980
768,44694.730000,301.467,40.739,-54.786,478.638,212.282,52.407,1058.960,1359.510,1270.980
769,44694.770000,268.849,128.251,-49.805,485.133,180.633,66.428,277.960,506.510,993.980
770,44694.812000,244.139,199.670,36.856,486.940,167.987,64.190,512.960,-11.490,590.980
771,44694.852000,252.046,122.216,54.786,492.722,170.460,41.702,731.960,-772.490,30.980
772,44694.898000,298.502,181.564,264.965,490.850,180.733,24.274,1841.960,-514.490,-461.020
773,44694.932000,271.815,-3.521,35.860,483.118,182.491,19.393,846.960,-92.490,-142.020
774,44694.970000,254.023,-36.715,32.872,488.003,189.162,11.706,-209.040,-332.490,-18.020
775,44695.18000,254.023,-50.798,46.817,485.982,181.268,6.623,-182.040,-351.490,34.980
776,44695.38000,244.139,3.521,39.844,486.960,184.902,-5.062,52.960,-331.490,-26.020
777,44695.70000,247.104,-19.615,31.875,486.024,190.481,-15.727,197.960,-424.490,-85.020
778,44695.110000,228.324,2.515,-12.949,482.129,189.321,-22.626,170.960,-386.490,-112.020
779,44695.152000,250.069,-48.786,17.930,484.039,188.218,-29.511,-7.040,-441.490,-100.020
780,44695.198000,252.046,-28.668,10.957,483.056,188.942,-40.284,6.960,-445.490,-67.020
781,44695.234000,245.127,-5.532,-12.949,478.282,197.417,-49.913,-67.040,-380.490,-96.020
782,44695.272000,244.139,-21.627,8.965,478.282,199.187,-57.719,38.960,-341.490,-174.020
783,44695.314000,290.595,10.562,21.914,478.349,206.867,-61.471,-95.040,-273.490,-226.020
784,44695.350000,304.432,54.821,29.883,477.390,206.944,-57.548,-890.040,-174.490,-206.020
785,44695.372000,271.815,-58.845,-2.988,471.683,217.502,-60.268,-532.040,-276.490,-218.020
786,44695.412000,220.417,-41.745,-8.965,467.782,214.530,-61.323,-726.040,-439.490,-167.020
787,44695.450000,246.116,-2.515,-12.949,464.022,226.985,-66.938,-60.040,-310.490,-118.020
788,44695.498000,246.116,13.580,-13.946,464.964,225.872,-73.826,-224.040,-398.490,-80.020
789,44695.532000,256.988,-17.603,-19.922,464.939,225.635,-84.618,-52.040,-405.490,-64.020
790,44695.572000,240.185,10.562,-45.821,458.170,227.360,-91.459,-78.040,-364.490,-85.020
791,44695.615000,256.988,-2.515,-40.840,458.197,231.135,-96.278,10.960,-238.490,-61.020
792,44695.657000,254.023,-33.697,-31.875,455.276,230.050,-100.231,-92.040,-229.490,-61.020
793,44695.674000,237.220,8.550,-48.809,455.307,234.753,-106.991,302.960,-235.490,-111.020
794,44695.712000,227.336,-1.509,-49.805,451.413,233.594,-113.890,358.960,-237.490,-104.020
795,44695.757000,259.954,22.633,-42.833,447.525,233.383,-121.748,279.960,-177.490,-95.020
796,44695.802000,238.208,-7.544,-49.805,444.611,233.247,-126.661,437.960,-170.490,-130.020
797,44695.833000,242.162,-5.532,-50.802,443.586,229.160,-135.579,275.960,-208.490,-170.020
798,44695.873000,276.757,56.833,-39.844,440.668,228.981,-142.454,518.960,-101.490,-120.020
799,44695.912000,239.197,-31.686,-62.755,436.757,226.786,-152.318,590.960,-61.490,-83.020
800,44695.963000,276.757,19.615,-5.977,439.633,224.808,-155.298,271.960,-122.490,-80.020
801,44696.4000,237.220,60.857,-48.809,434.799,226.551,-162.134,431.960,-144.490,-56.020
802,44696.12000,242.162,-26.656,-63.751,434.720,219.626,-168.172,76.960,-131.490,-2.020
803,44696.57000,249.081,-2.515,-68.732,434.802,228.342,-168.959,268.960,-1.490,-114.020
804,44696.100000,245.127,-10.562,-34.864,434.749,223.423,-172.010,125.960,-47.490,-78.020
805,44696.142000,247.104,6.538,-36.856,432.817,225.195,-178.839,489.960,-40.490,-133.020
806,44696.177000,248.093,11.568,-49.805,430.868,225.047,-184.731,669.960,-141.490,-157.020
807,44696.217000,243.151,4.527,-55.782,423.066,220.850,-195.628,674.960,-171.490,-128.020
808,44696.259000,249.081,23.639,-73.712,422.069,219.676,-204.482,551.960,-150.490,-87.020
809,44696.292000,249.081,38.727,-74.708,422.983,215.651,-211.434,522.960,-83.490,-2.020
810,44696.317000,247.104,29.674,-75.704,422.842,201.973,-215.660,249.960,-7.490,129.980
811,44696.355000,249.081,6.538,-72.716,421.914,204.984,-210.692,82.960,76.510,182.980
812,44696.393000,247.104,21.627,-72.716,428.642,200.217,-209.803,60.960,235.510,208.980
813,44696.437000,246.116,52.809,-87.658,437.353,199.460,-203.917,-258.040,337.510,281.980
814,44696.477000,253.035,78.963,-62.755,441.235,196.974,-186.313,-1068.040,537.510,492.980
815,44696.515000,259.954,-95.057,-39.844,452.937,200.625,-157.768,-1976.040,407.510,537.980
816,44696.555000,261.931,-92.039,-31.875,456.894,205.021,-136.087,-908.040,407.510,188.980
817,44696.593000,243.151,-14.585,-30.879,463.734,210.135,-127.133,-586.040,215.510,89.980
818,44696.637000,254.023,-30.680,-44.825,465.724,213.325,-115.290,-585.040,243.510,54.980
819,44696.653000,252.046,-37.721,-37.852,465.699,208.687,-105.587,-338.040,318.510,-34.020
820,44696.692000,259.954,9.556,-22.911,466.737,214.651,-99.568,-480.040,287.510,-79.020
821,44696.734000,245.127,0.503,-12.949,468.628,207.205,-86.000,-573.040,233.510,-36.020
822,44696.782000,244.139,-17.603,-5.977,463.940,220.922,-77.860,-414.040,124.510,-37.020
823,44696.819000,255.012,-13.580,4.981,462.985,221.905,-76.860,-275.040,-83.490,-18.020
824,44696.869000,241.174,26.656,-33.868,464.896,219.939,-78.861,-427.040,-130.490,2.980
825,44696.900000,253.035,-23.639,-29.883,466.856,221.080,-71.967,-251.040,-91.490,39.980
826,44696.962000,251.058,0.503,-42.833,463.922,218.980,-77.904,-287.040,-59.490,102.980
827,44696.977000,259.954,-10.562,-29.883,467.843,223.031,-71.921,-448.040,35.510,77.980
828,44696.994000,261.931,-11.568,-6.973,466.919,226.085,-64.991,-314.040,133.510,-31.020
829,44697.33000,250.069,-27.662,10.957,468.889,229.081,-61.978,-114.040,65.510,-66.020
830,44697.77000,246.116,-20.621,-2.988,463.044,225.120,-63.059,118.960,-143.490,-146.020
831,44697.113000,245.127,4.527,-19.922,464.966,225.894,-72.845,176.960,-209.490,-181.020
832,44697.153000,237.220,-18.609,-30.879,462.112,232.489,-80.550,539.960,-189.490,-154.020
833,44697.198000,253.035,6.538,-45.821,457.278,234.233,-87.386,438.960,-168.490,-104.020
834,44697.234000,254.023,28.668,-36.856,458.274,238.039,-91.222,388.960,-109.490,-66.020
835,44697.277000,252.046,7.544,-33.868,455.257,228.108,-100.274,289.960,-123.490,-5.020
836,44697.294000,247.104,-5.532,-38.848,450.402,227.004,-104.232,359.960,-190.490,-14.020
837,44697.334000,236.232,-11.568,-31.875,454.292,231.637,-115.889,383.960,-362.490,-57.020
838,44697.377000,266.873,18.609,-42.833,449.413,230.317,-129.658,509.960,-410.490,-74.020
839,44697.414000,249.081,-27.662,-59.767,444.483,223.215,-141.594,656.960,-344.490,-100.020
840,44697.458000,240.185,-0.503,-69.728,438.713,228.768,-151.289,632.960,-222.490,-185.020
841,44697.494000,263.907,24.644,-68.732,442.511,223.714,-162.180,589.960,-142.490,-168.020
842,44697.538000,245.127,21.627,-77.696,436.716,225.513,-166.075,466.960,-4.490,-99.020
843,44697.574000,250.069,25.650,-52.794,440.602,227.471,-167.004,33.960,116.510,-1.020
844,44697.622000,245.127,-7.544,-41.837,438.669,226.589,-162.125,43.960,105.510,45.980
845,44697.633000,251.058,15.591,-52.794,439.523,214.948,-162.381,-88.040,75.510,71.980
846,44697.679000,245.127,11.568,-55.782,444.377,216.031,-159.405,-255.040,107.510,146.980
847,44697.713000,250.069,-5.532,-52.794,441.476,215.139,-154.528,-325.040,99.510,172.980
848,44697.753000,249.081,1.509,-58.770,448.332,222.174,-146.512,-452.040,93.510,160.980
849,44697.800000,248.093,19.615,-62.755,449.264,217.437,-141.712,-445.040,100.510,187.980
850,44697.840000,248.093,8.550,-56.778,456.049,216.748,-131.906,-685.040,130.510,232.980
851,44697.873000,241.174,-2.515,-38.848,456.050,215.000,-123.119,-592.040,181.510,240.980
852,44697.920000,254.023,-18.609,-33.868,464.745,212.323,-116.295,-339.040,89.510,227.980
853,44697.940000,250.069,-18.609,-37.852,459.920,214.153,-119.207,-244.040,1.510,177.980
854,44697.980000,255.012,-23.639,-50.802,465.723,212.441,-111.387,-58.040,89.510,102.980
855,44698.15000,252.046,-16.597,-30.879,463.775,211.408,-113.376,-0.040,94.510,29.980
856,44698.55000,246.116,-3.521,-33.868,464.709,207.577,-111.498,-35.040,5.510,26.980
857,44698.95000,245.127,-12.574,-32.872,464.739,210.511,-110.452,-43.040,-39.490,55.980
858,44698.135000,247.104,-7.544,-30.879,467.597,206.591,-113.475,46.960,-82.490,71.980
859,44698.175000,254.023,-4.527,-42.833,465.632,203.638,-114.525,50.960,-88.490,91.980
860,44698.217000,250.069,-17.603,-46.817,466.607,204.597,-115.482,-40.040,-81.490,100.980
861,44698.262000,248.093,-13.580,-33.868,468.469,197.755,-118.572,-94.040,-128.490,88.980
862,44698.290000,247.104,-14.585,-40.840,463.644,199.585,-121.484,-58.040,-201.490,92.980
863,44698.324000,247.104,-1.509,-59.767,468.491,201.487,-125.354,-149.040,-233.490,94.980
864,44698.355000,252.046,0.503,-56.778,464.600,199.486,-126.387,-384.040,-268.490,99.980
865,44698.395000,248.093,-13.580,-44.825,463.600,197.406,-132.319,-464.040,-323.490,128.980
866,44698.435000,250.069,-3.521,-52.794,462.630,197.375,-133.303,-489.040,-359.490,133.980
867,44698.482000,253.035,0.503,-60.763,457.815,200.176,-136.193,-497.040,-414.490,119.980
868,44698.514000,247.104,1.509,-66.739,458.787,201.997,-142.034,-685.040,-469.490,109.980
869,44698.562000,251.058,-40.739,-72.716,459.798,207.703,-147.790,-525.040,-433.490,118.980
870,44698.599000,247.104,-15.591,-68.732,456.861,204.697,-150.804,-512.040,-451.490,105.980
871,44698.619000,246.116,-6.538,-82.677,449.084,202.507,-158.715,-637.040,-506.490,119.980
872,44698.654000,240.185,-0.503,-82.677,443.275,203.292,-164.594,-554.040,-523.490,100.980
873,44698.698000,240.185,-29.674,-75.704,441.348,205.107,-169.461,-236.040,-463.490,96.980
874,44698.742000,241.174,-24.644,-91.642,441.361,208.753,-180.167,-20.040,-450.490,91.980
875,44698.779000,241.174,2.515,-88.654,436.463,203.723,-186.173,-255.040,-557.490,80.980
876,44698.822000,226.347,-8.550,-114.553,433.489,198.603,-197.080,37.960,-425.490,20.980
877,44698.855000,221.405,-24.644,-123.518,427.720,203.293,-201.891,126.960,-282.490,74.980
878,44698.895000,226.347,-15.591,-115.549,429.647,204.110,-209.714,-139.040,-219.490,144.980
879,44698.920000,231.290,1.509,-141.447,427.688,202.106,-211.724,71.960,-97.490,85.980
880,44698.954000,242.162,-18.609,-95.626,425.730,199.218,-209.831,-65.040,-112.490,159.980
881,44699.5000,220.417,-8.550,-124.514,425.639,191.300,-216.872,16.960,-95.490,147.980
882,44699.39000,207.568,11.568,-152.405,419.789,186.410,-216.012,68.960,-8.490,78.980
883,44699.79000,225.359,53.815,-145.432,420.792,190.282,-216.905,-19.040,59.510,70.980
884,44699.119000,180.880,77.957,-242.054,424.725,196.209,-213.823,-252.040,-107.490,-115.020
885,44699.155000,174.950,71.921,-265.961,413.122,199.678,-227.500,-382.040,-689.490,-219.020
886,44699.195000,196.695,205.705,-222.132,391.146,230.270,-238.635,-1798.040,-1439.490,-477.020
887,44699.234000,207.568,129.257,-103.595,376.868,255.263,-243.013,-1783.040,-1213.490,-958.020
888,44699.254000,213.498,146.358,-42.833,348.257,296.792,-239.210,-1567.040,-661.490,-1076.020
889,44699.297000,260.942,100.086,27.891,332.345,345.779,-210.698,-2524.040,209.510,-1204.020
890,44699.337000,300.479,35.709,59.767,319.338,388.667,-151.914,-2600.040,1087.510,-1123.020
891,44699.374000,393.390,-15.591,23.907,309.996,409.370,-88.712,-2056.040,2428.510,-874.020
892,44699.415000,388.448,17.603,-4.981,309.295,421.593,-17.834,-1684.040,2911.510,-692.020
893,44699.467000,381.529,-72.927,-22.911,308.625,435.887,58.973,-1971.040,2878.510,-86.020
894,44699.503000,354.842,-210.735,-52.794,315.392,425.338,105.825,-1743.040,2577.510,467.980
895,44699.543000,319.259,-163.458,-131.486,333.738,408.452,168.251,-1550.040,1898.510,1342.980
896,44699.563000,366.703,-186.593,-134.475,364.401,368.063,215.472,-1012.040,1372.510,1861.980
897,44699.595000,368.680,-136.299,-176.311,395.063,335.592,225.603,1176.960,1317.510,2325.980
898,44699.637000,361.761,-40.739,-187.268,422.946,321.001,211.608,2698.960,1137.510,2342.980
899,44699.677000,353.853,-34.703,-192.249,452.681,297.712,198.406,2628.960,713.510,2364.980
900,44699.718000,363.737,14.585,-182.288,467.922,276.202,184.231,2571.960,87.510,2330.980
901,44699.759000,364.726,33.697,-182.288,489.728,236.937,153.986,2724.960,-153.490,2223.980
902,44699.795000,350.888,84.998,-157.385,502.004,212.163,125.022,2957.960,-171.490,2031.980
903,44699.835000,292.571,208.723,-167.346,508.449,184.440,96.962,2291.960,-307.490,1939.980
904,44699.890000,242.162,267.065,-85.665,519.683,152.774,63.921,419.960,-1145.490,1688.980
905,44699.899000,299.490,260.024,22.911,526.085,124.642,17.219,-299.040,-1796.490,1129.980
906,44699.937000,285.652,241.917,89.650,523.042,119.738,-28.007,908.960,-1693.490,-125.020
907,44699.979000,330.131,180.558,493.074,516.331,130.826,-50.330,3938.960,124.510,-784.020
908,44700.15000,386.471,147.363,-38.848,508.768,148.291,-47.016,2200.960,724.510,-621.020
909,44700.57000,256.000,290.200,-5.977,509.874,161.073,-39.866,-404.040,351.510,-623.020
910,44700.98000,265.884,106.122,65.743,515.941,181.259,-7.043,-3548.040,155.510,-706.020
911,44700.140000,275.768,92.039,48.809,512.267,191.900,37.315,-1515.040,1174.510,-731.020
912,44700.183000,275.768,97.069,-22.911,508.624,207.245,74.913,-910.040,1055.510,-881.020
913,44700.197000,252.046,108.134,-35.860,495.420,235.031,108.845,-1355.040,743.510,-1390.020
914,44700.235000,263.907,2.515,-32.872,488.818,248.039,129.713,-1650.040,396.510,-1420.020
915,44700.283000,246.116,8.550,-95.626,479.412,270.771,152.753,-1814.040,-133.490,-1349.020
916,44700.317000,256.000,-25.650,-54.786,471.817,283.532,162.827,-1879.040,-474.490,-1213.020
917,44700.356000,272.803,-59.851,-12.949,470.975,296.165,164.087,-1575.040,-937.490,-1131.020
918,44700.399000,264.896,-105.116,-46.817,467.232,313.193,145.824,-588.040,-920.490,-1157.020
919,44700.435000,393.390,-349.548,290.864,455.815,340.459,111.101,897.960,-862.490,-1019.020
920,44700.478000,287.629,-90.028,329.712,451.095,354.738,100.621,1316.960,746.510,-393.020
921,44700.515000,306.409,-191.623,-1.992,448.146,347.223,113.197,-796.040,46.510,65.980
922,44700.540000,263.907,-130.263,23.907,463.507,333.911,118.818,-1288.040,-773.490,652.980
923,44700.577000,266.873,-102.098,8.965,471.963,306.056,128.024,-1725.040,-765.490,582.980
924,44700.620000,288.618,-199.670,25.899,480.501,290.435,119.850,804.960,-82.490,1211.980
925,44700.660000,281.699,-77.957,-16.934,500.486,259.285,106.452,1935.960,212.510,1657.980
926,44700.700000,260.942,60.857,-58.770,512.734,227.196,97.920,1812.960,385.510,1846.980
927,44700.740000,248.093,95.057,-23.907,518.292,202.873,92.489,152.960,-169.490,1630.980
928,44700.777000,285.652,-2.515,-41.837,523.703,163.944,84.771,729.960,-340.490,1501.980
929,44700.819000,263.907,139.316,-5.977,525.303,132.572,69.368,138.960,-703.490,1267.980
930,44700.858000,237.220,156.417,-1.992,529.010,120.485,47.533,-250.040,-789.490,657.980
931,44700.878000,298.502,-11.568,-72.716,531.726,106.403,23.691,383.960,-766.490,279.980
932,44700.918000,229.313,248.959,106.584,526.919,112.807,8.132,2635.960,-218.490,-203.020
933,44700.958000,312.340,52.809,141.447,521.283,131.974,-0.280,1744.960,223.510,-500.020
934,44700.998000,312.340,-10.562,70.724,519.372,135.709,-6.085,1447.960,62.510,-257.020
935,44701.37000,269.838,-30.680,50.802,517.471,140.415,-11.869,239.960,-201.490,-70.020
936,44701.82000,248.093,-49.792,51.798,518.435,142.150,-21.635,-430.040,-382.490,8.980
937,44701.118000,244.139,-55.827,7.969,517.442,141.019,-28.527,-71.040,-386.490,-41.020
938,44701.169000,243.151,-34.703,-6.973,516.412,136.889,-39.408,205.960,-406.490,-113.020
939,44701.177000,248.093,-37.721,9.961,515.510,146.308,-51.949,23.960,-404.490,-150.020
940,44701.222000,252.046,-23.639,10.957,512.592,146.128,-58.824,88.960,-393.490,-215.020
941,44701.262000,252.046,-47.780,-14.942,506.852,154.616,-67.474,163.960,-333.490,-203.020
942,44701.298000,278.734,-9.556,5.977,505.956,163.214,-73.169,23.960,-251.490,-207.020
943,44701.337000,254.023,-12.574,-24.903,506.844,157.183,-83.107,101.960,-207.490,-215.020
944,44701.377000,255.012,-35.709,-17.930,499.173,164.810,-85.896,243.960,-72.490,-207.020
945,44701.417000,249.081,-27.662,6.973,497.319,174.370,-91.572,82.960,-138.490,-253.020
946,44701.457000,247.104,-14.585,-5.977,497.371,180.152,-93.405,189.960,-217.490,-214.020
947,44701.500000,258.965,-12.574,-2.988,497.379,182.871,-102.170,73.960,-252.490,-180.020
948,44701.520000,256.000,16.597,-23.907,495.476,187.555,-108.935,-108.040,-349.490,-132.020
949,44701.557000,248.093,-8.550,-37.852,494.516,189.380,-113.800,-81.040,-344.490,-66.020
950,44701.600000,258.965,-5.532,-39.844,489.670,189.246,-117.736,-187.040,-196.490,-33.020
951,44701.639000,255.012,10.562,-38.848,489.698,192.159,-117.671,-375.040,-97.490,-59.020
952,44701.682000,252.046,9.556,-39.844,487.825,198.893,-119.487,-530.040,-138.490,-76.020
953,44701.719000,263.907,8.550,-31.875,487.834,198.979,-115.562,-559.040,-170.490,-86.020
954,44701.757000,253.035,1.509,-54.786,486.902,202.832,-116.459,-429.040,-105.490,-117.020
955,44701.805000,246.116,-15.591,-51.798,482.081,203.820,-113.506,-303.040,45.510,-67.020
956,44701.817000,244.139,-48.786,-27.891,484.095,211.649,-111.366,-137.040,79.510,-45.020
957,44701.860000,252.046,-44.762,-19.922,484.091,210.721,-109.426,-16.040,52.510,-50.020
958,44701.897000,253.035,35.709,-28.887,485.034,207.861,-107.526,69.960,27.510,-79.020
959,44701.940000,254.023,13.580,-29.883,481.188,210.693,-109.432,-8.040,-75.490,-48.020
960,44701.977000,251.058,-11.568,-26.895,484.103,212.598,-112.326,-120.040,-129.490,-40.020
961,44702.18000,251.058,-6.538,-34.864,477.357,215.423,-113.258,-31.040,-135.490,-33.020
962,44702.62000,250.069,-6.538,-42.833,476.413,218.283,-115.158,49.960,-108.490,-35.020
963,44702.98000,245.127,-43.756,-30.879,477.346,216.200,-122.067,393.960,-130.490,28.980
964,44702.142000,254.023,48.786,-33.868,475.299,206.300,-130.136,377.960,-150.490,-4.020
965,44702.159000,240.185,-22.633,-42.833,472.404,208.990,-138.908,784.960,-146.490,16.980
966,44702.198000,264.896,47.780,-47.813,474.279,204.025,-144.899,302.960,-244.490,-24.020
967,44702.243000,245.127,0.503,-63.751,474.310,207.844,-147.756,118.960,-181.490,59.980
968,44702.279000,254.023,-2.515,-61.759,472.345,205.776,-152.709,1.960,-46.490,59.980
969,44702.318000,252.046,0.503,-49.805,474.216,199.020,-151.875,-62.040,5.510,73.980
970,44702.362000,258.965,-7.544,-42.833,474.246,201.954,-150.829,-86.040,34.510,68.980
971,44702.398000,244.139,2.515,-64.747,479.104,203.080,-145.890,-316.040,8.510,72.980
972,44702.444000,249.081,-16.597,-58.770,478.111,200.180,-144.976,-252.040,132.510,56.980
973,44702.482000,246.116,4.527,-49.805,478.119,199.381,-137.148,-415.040,127.510,36.980
974,44702.503000,243.151,-11.568,-31.875,482.042,203.453,-130.185,-448.040,112.510,42.980
975,44702.539000,245.127,-17.603,-38.848,480.105,202.528,-127.268,-418.040,85.510,53.980
976,44702.579000,251.058,2.515,-47.813,481.152,209.463,-121.228,-261.040,85.510,47.980
977,44702.623000,258.965,8.550,-36.856,484.967,202.813,-116.464,-472.040,112.510,66.980
978,44702.663000,251.058,-2.515,-40.840,483.017,200.011,-110.646,-380.040,53.510,76.980
979,44702.698000,246.116,0.503,-44.825,485.023,206.869,-108.528,-550.040,-20.490,66.980
980,44702.740000,251.058,-10.562,-49.805,483.117,208.015,-99.681,-613.040,-18.490,41.980
981,44702.778000,250.069,4.527,-20.918,483.183,213.926,-95.627,-756.040,36.510,-2.020
982,44702.802000,255.012,-28.668,-29.883,485.096,210.213,-88.841,-236.040,43.510,8.980
983,44702.853000,252.046,-16.597,-14.942,484.190,216.956,-90.654,-177.040,-88.490,-6.020
984,44702.878000,244.139,4.527,-38.848,483.159,210.172,-89.826,16.960,-128.490,-1.020
985,44702.922000,250.069,-24.644,-31.875,481.161,205.148,-96.807,31.960,-198.490,-4.020
986,44702.958000,253.035,-7.544,-42.833,484.158,215.770,-100.487,31.960,-215.490,-18.020
987,44703.2000,251.058,3.521,-43.829,485.062,210.774,-107.461,89.960,-205.490,-30.020
988,44703.39000,244.139,-6.538,-40.840,481.234,216.410,-114.209,56.960,-254.490,-24.020
989,44703.83000,242.162,-7.544,-44.825,480.234,214.330,-120.141,123.960,-329.490,-14.020
990,44703.119000,245.127,0.503,-52.794,477.283,211.195,-129.043,216.960,-355.490,-4.020
991,44703.143000,247.104,0.503,-59.767,474.389,214.770,-141.718,201.960,-380.490,3.980
992,44703.182000,242.162,7.544,-56.778,467.543,209.590,-153.615,147.960,-440.490,30.980
993,44703.219000,240.185,12.574,-61.759,470.343,201.593,-165.555,110.960,-525.490,57.980
994,44703.258000,253.035,2.515,-62.755,465.530,206.184,-175.270,82.960,-641.490,56.980
995,44703.300000,263.907,37.721,-54.786,463.482,198.032,-192.126,22.960,-748.490,-17.020
996,44703.344000,280.710,26.656,-42.833,451.893,204.283,-211.625,-86.040,-1044.490,-149.020
997,44703.383000,314.317,-36.715,-36.856,442.194,207.469,-239.033,45.960,-1292.490,-128.020
998,44703.419000,279.722,10.562,-78.693,427.628,206.810,-262.615,-102.040,-1296.490,-47.020
999,44703.439000,261.931,61.862,-93.634,415.072,213.052,-282.116,-361.040,-1375.490,-129.020
1000,44703.479000,242.162,65.886,-129.494,400.554,218.131,-309.492,-98.040,-1302.490,-134.020
1001,44703.519000,238.208,-19.615,-156.389,391.788,214.832,-323.313,-112.040,-1207.490,-17.020
1002,44703.560000,211.521,-12.574,-190.257,378.281,222.100,-339.851,-438.040,-1134.490,82.980
1003,44703.603000,193.730,2.515,-221.136,370.669,237.343,-349.336,-899.040,-1204.490,118.980
1004,44703.639000,141.344,31.686,-162.366,357.267,251.774,-349.044,-1477.040,-1122.490,-38.020
1005,44703.684000,143.320,19.615,-134.475,343.967,275.115,-340.708,-1316.040,-392.490,-272.020
1006,44703.729000,146.286,45.768,-82.677,349.113,302.778,-320.470,-862.040,33.510,-434.020
1007,44703.760000,148.263,48.786,-104.591,360.854,312.082,-299.645,-402.040,921.510,-560.020
1008,44703.779000,176.927,20.621,-97.619,368.773,326.202,-278.721,-309.040,1330.510,-619.020
1009,44703.823000,208.556,20.621,-128.498,386.351,335.865,-244.146,208.960,1900.510,-562.020
1010,44703.860000,225.359,24.644,-132.482,405.806,337.952,-201.891,310.960,2133.510,-477.020
1011,44703.904000,249.081,6.538,-139.455,422.383,341.132,-152.752,494.960,2216.510,-308.020
1012,44703.943000,257.977,11.568,-143.440,431.196,342.231,-106.618,617.960,2173.510,-134.020
1013,44703.982000,265.884,25.650,-132.482,437.067,341.165,-69.364,648.960,2010.510,81.980
1014,44704.23000,257.977,31.686,-116.545,438.060,337.895,-41.976,385.960,1790.510,252.980
1015,44704.60000,251.058,37.721,-112.560,438.011,325.101,-5.976,250.960,1657.510,369.980
1016,44704.103000,249.081,41.745,-112.560,438.022,319.039,27.232,204.960,1492.510,412.980
1017,44704.119000,241.174,54.821,-92.638,431.308,319.533,52.726,445.960,1416.510,385.980
1018,44704.164000,238.208,50.798,-80.685,430.332,315.036,69.296,472.960,1122.510,240.980
1019,44704.203000,237.220,58.845,-86.661,429.365,313.279,78.081,773.960,891.510,156.980
1020,44704.244000,225.359,43.756,-75.704,422.612,315.155,78.108,989.960,571.510,119.980
1021,44704.284000,246.116,48.786,-66.739,425.555,320.857,71.376,1128.960,373.510,88.980
1022,44704.320000,243.151,56.833,-52.794,420.720,324.349,55.753,1020.960,-59.490,99.980
1023,44704.367000,269.838,59.851,47.813,424.553,323.157,43.967,660.960,9.510,191.980
1024,44704.403000,264.896,116.181,30.879,430.344,322.199,41.996,-6.040,-152.490,102.980
1025,44704.424000,256.988,31.686,-35.860,430.217,310.419,35.850,97.960,-263.490,232.980
1026,44704.459000,248.093,40.739,-13.946,431.206,313.277,32.974,254.960,-71.490,231.980
1027,44704.499000,266.873,38.727,3.984,436.985,311.327,30.001,-13.040,-76.490,217.980
1028,44704.539000,252.046,28.668,11.953,439.843,306.522,30.881,-147.040,-21.490,199.980
1029,44704.582000,240.185,32.692,5.977,441.761,304.621,31.823,42.960,-14.490,253.980
1030,44704.622000,252.046,38.727,9.961,443.569,291.976,29.585,135.960,-110.490,224.980
1031,44704.664000,246.116,19.615,13.946,450.330,291.934,24.695,85.960,-224.490,201.980
1032,44704.700000,250.069,19.615,17.930,452.254,292.729,15.891,140.960,-293.490,178.980
1033,44704.740000,252.046,17.603,0.996,452.180,287.616,4.009,261.960,-337.490,162.980
1034,44704.760000,255.012,17.603,-8.965,454.088,287.376,-7.760,240.960,-328.490,165.980
1035,44704.800000,251.058,14.585,-17.930,453.984,277.581,-11.900,297.960,-286.490,167.980
1036,44704.842000,252.046,13.580,-18.926,455.826,270.545,-23.820,323.960,-276.490,167.980
1037,44704.889000,252.046,9.556,-21.914,458.743,273.357,-29.636,282.960,-240.490,168.980
1038,44704.922000,255.012,5.532,-28.887,460.620,269.298,-38.548,281.960,-198.490,146.980
1039,44704.962000,257.977,10.562,-25.899,461.478,259.448,-45.629,265.960,-160.490,108.980
1040,44705.2000,258.965,6.538,-29.883,460.481,258.273,-54.483,183.960,-147.490,59.980
1041,44705.49000,256.000,2.515,-26.895,462.427,259.285,-53.476,80.960,-135.490,17.980
1042,44705.63000,252.046,5.532,-27.891,458.582,263.001,-59.286,32.960,-130.490,-15.020
1043,44705.102000,250.069,3.521,-31.875,458.573,262.915,-63.210,78.960,-121.490,-20.020
1044,44705.150000,249.081,6.538,-33.868,461.466,262.857,-67.128,113.960,-124.490,-36.020
1045,44705.185000,253.035,7.544,-32.872,459.560,266.635,-70.971,100.960,-116.490,-49.020
1046,44705.224000,251.058,6.538,-37.852,459.499,260.767,-73.063,87.960,-107.490,-59.020
1047,44705.264000,252.046,12.574,-41.837,457.628,267.522,-73.897,99.960,-80.490,-71.020
1048,44705.302000,253.035,10.562,-40.840,453.744,266.471,-75.890,0.960,-63.490,-92.020
1049,44705.347000,256.000,6.538,-36.856,452.789,268.338,-78.793,-49.040,-56.490,-106.020
1050,44705.388000,251.058,8.550,-35.860,452.794,269.266,-80.734,-6.040,-51.490,-140.020
1051,44705.400000,252.046,9.556,-37.852,449.840,264.340,-82.810,-23.040,-60.490,-178.020
1052,44705.444000,249.081,11.568,-30.879,443.230,280.800,-81.478,-78.040,-97.490,-209.020
1053,44705.483000,249.081,13.580,-30.879,442.310,286.530,-85.276,11.960,-151.490,-239.020
1054,44705.520000,248.093,19.615,-32.872,438.427,286.363,-91.172,64.960,-192.490,-260.020
1055,44705.563000,247.104,30.680,-36.856,434.631,294.955,-95.892,9.960,-292.490,-271.020
1056,44705.602000,247.104,40.739,-45.821,427.871,297.651,-102.711,9.960,-322.490,-252.020
1057,44705.648000,240.185,34.703,-56.778,420.194,306.097,-112.347,-46.040,-339.490,-221.020
1058,44705.682000,246.116,31.686,-48.809,419.251,309.842,-118.149,-41.040,-324.490,-216.020
1059,44705.705000,244.139,40.739,-62.755,415.419,314.572,-121.975,34.960,-304.490,-213.020
1060,44705.740000,244.139,42.750,-66.739,406.723,317.227,-129.780,-3.040,-306.490,-210.020
1061,44705.782000,240.185,42.750,-63.751,405.737,316.161,-133.728,-48.040,-316.490,-218.020
1062,44705.822000,242.162,46.774,-63.751,397.049,318.902,-137.608,-12.040,-315.490,-224.020
1063,44705.868000,241.174,53.815,-79.689,390.356,329.279,-148.179,32.960,-280.490,-235.020
1064,44705.919000,238.208,51.804,-84.669,388.445,332.129,-150.081,-16.040,-231.490,-225.020
1065,44705.954000,238.208,52.809,-89.650,382.664,334.942,-151.992,0.960,-142.490,-202.020
1066,44705.987000,233.266,54.821,-90.646,380.751,337.771,-154.876,-13.040,12.510,-165.020
1067,44706.34000,233.266,63.874,-83.673,381.753,340.758,-151.865,-33.040,125.510,-117.020
1068,44706.42000,233.266,63.874,-77.696,377.904,341.799,-146.947,-88.040,153.510,-56.020
1069,44706.89000,238.208,62.868,-68.732,381.820,345.806,-142.927,-149.040,209.510,3.980
1070,44706.124000,228.324,59.851,-64.747,384.701,342.102,-136.139,-123.040,170.510,51.980
1071,44706.167000,237.220,59.851,-61.759,385.588,333.417,-134.368,-95.040,100.510,46.980
1072,44706.204000,237.220,55.827,-62.755,382.807,344.241,-126.289,-64.040,41.510,14.980
1073,44706.245000,237.220,50.798,-70.724,385.738,347.182,-126.217,-41.040,33.510,-7.020
1074,44706.284000,240.185,55.827,-64.747,382.737,337.401,-128.402,-5.040,32.510,-32.020
1075,44706.327000,237.220,59.851,-65.743,382.812,345.168,-128.229,-6.040,36.510,-47.020
1076,44706.363000,236.232,62.868,-65.743,383.796,346.213,-125.262,-4.040,25.510,-40.020
1077,44706.390000,233.266,62.868,-62.755,380.880,345.171,-127.253,-1.040,11.510,-19.020
1078,44706.422000,234.255,61.862,-65.743,382.848,349.030,-129.124,-0.040,-12.490,-10.020
1079,44706.462000,235.243,61.862,-65.743,385.705,344.226,-128.244,12.960,-28.490,-4.020
1080,44706.503000,237.220,55.827,-66.739,382.786,342.277,-127.313,-51.040,13.510,12.980
1081,44706.543000,237.220,60.857,-64.747,384.796,350.063,-127.136,-31.040,20.510,2.980
1082,44706.590000,238.208,58.845,-65.743,379.914,345.183,-126.274,-42.040,18.510,-1.020
1083,44706.623000,237.220,60.857,-64.747,384.754,345.252,-125.281,-25.040,19.510,-8.020
1084,44706.667000,239.197,59.851,-60.763,383.805,347.184,-125.240,-3.040,-1.490,-16.020
1085,44706.685000,234.255,60.857,-69.728,380.853,341.395,-122.433,-7.040,0.510,-8.020
1086,44706.723000,238.208,59.851,-62.755,380.886,345.236,-124.309,-13.040,-1.490,-8.020
1087,44706.770000,236.232,59.851,-65.743,381.835,343.303,-124.350,4.960,-6.490,-7.020
1088,44706.807000,237.220,64.880,-68.732,380.905,347.178,-124.266,-8.040,-3.490,-5.020
1089,44706.845000,239.197,60.857,-62.755,383.846,351.974,-128.076,5.960,-12.490,-5.020
1090,44706.883000,236.232,62.868,-62.755,379.933,347.125,-126.231,-1.040,-6.490,-4.020
1091,44706.927000,238.208,60.857,-64.747,382.864,350.066,-126.159,-2.040,-9.490,-3.020
1092,44706.963000,236.232,62.868,-62.755,380.924,349.119,-124.223,-0.040,-3.490,1.980
1093,44707.3000,235.243,60.857,-65.743,383.845,351.089,-124.173,-1.040,-4.490,6.980
1094,44707.23000,238.208,61.862,-61.759,384.804,351.012,-128.095,-0.040,-3.490,10.980
1095,44707.65000,235.243,60.857,-62.755,382.845,348.124,-126.202,1.960,-7.490,13.980
1096,44707.107000,235.243,61.862,-66.739,381.819,342.268,-127.315,-5.040,-4.490,18.980
1097,44707.144000,239.197,62.868,-63.751,380.835,340.338,-126.379,-0.040,-9.490,18.980
1098,44707.182000,238.208,62.868,-64.747,381.891,349.129,-124.221,-3.040,-10.490,18.980
1099,44707.227000,237.220,60.857,-63.751,382.845,348.124,-126.202,1.960,-9.490,16.980
1100,44707.267000,236.232,60.857,-63.751,383.756,342.308,-126.329,-8.040,-10.490,16.980
1101,44707.307000,236.232,60.857,-63.751,384.789,349.114,-126.176,-5.040,-8.490,18.980
1102,44707.327000,237.220,60.857,-66.739,381.802,340.348,-126.377,-4.040,-7.490,19.980
1103,44707.364000,236.232,60.857,-64.747,384.733,343.289,-126.306,1.960,-14.490,19.980
1104,44707.404000,239.197,59.851,-64.747,380.842,341.288,-127.339,2.960,-19.490,17.980
1105,44707.447000,236.232,61.862,-65.743,384.754,346.137,-129.184,14.960,-19.490,18.980
1106,44707.488000,238.208,60.857,-65.743,381.877,348.115,-126.205,19.960,-24.490,13.980
1107,44707.528000,235.243,57.839,-68.732,384.683,338.413,-127.395,18.960,-23.490,14.980
1108,44707.570000,238.208,58.845,-66.739,383.745,342.201,-131.235,3.960,-13.490,18.980
1109,44707.610000,237.220,58.845,-64.747,381.861,347.079,-129.170,-2.040,-13.490,20.980
1110,44707.650000,236.232,55.827,-66.739,386.701,347.148,-128.177,-9.040,-8.490,16.980
1111,44707.664000,238.208,58.845,-67.735,385.717,346.103,-131.144,-6.040,-8.490,11.980
1112,44707.703000,237.220,58.845,-65.743,383.706,337.432,-127.418,-3.040,-10.490,7.980
1113,44707.748000,240.185,59.851,-64.747,385.653,339.328,-130.314,-0.040,-14.490,3.980
1114,44707.784000,237.220,56.833,-66.739,385.731,347.117,-129.161,2.960,-17.490,0.980
1115,44707.824000,237.220,58.845,-70.724,385.734,348.023,-132.082,1.960,-19.490,-2.020
1116,44707.863000,236.232,57.839,-67.735,385.717,346.103,-131.144,3.960,-18.490,-3.020
1117,44707.908000,238.208,58.845,-68.732,384.686,339.319,-130.317,3.960,-15.490,-1.020
1118,44707.944000,237.220,59.851,-68.732,381.786,340.197,-133.245,-0.040,-12.490,-0.020
1119,44707.963000,237.220,57.839,-66.739,383.794,347.961,-134.049,-0.040,-12.490,-0.020
1120,44708.10000,236.232,58.845,-68.732,387.652,346.122,-131.140,1.960,-13.490,-2.020
1121,44708.44000,237.220,57.839,-67.735,383.740,342.157,-133.197,3.960,-13.490,-1.020
1122,44708.85000,237.220,57.839,-68.732,386.680,346.069,-133.104,-0.040,-10.490,-3.020
1123,44708.127000,238.208,60.857,-70.724,381.744,336.270,-135.294,-0.040,-6.490,-0.020
1124,44708.170000,237.220,58.845,-66.739,378.931,345.023,-133.144,-1.040,-5.490,0.980
1125,44708.203000,237.220,59.851,-70.724,382.758,340.249,-131.281,-3.040,0.510,0.980
1126,44708.247000,236.232,56.833,-65.743,385.689,343.190,-131.209,-5.040,0.510,0.980
1127,44708.284000,237.220,58.845,-67.735,380.840,342.151,-132.223,-27.040,14.510,4.980
1128,44708.304000,236.232,58.845,-66.739,383.716,339.288,-131.300,-34.040,23.510,9.980
1129,44708.344000,237.220,59.851,-66.739,384.695,340.290,-130.295,-33.040,26.510,6.980
1130,44708.388000,236.232,61.862,-66.739,383.735,341.230,-131.257,-6.040,2.510,0.980
1131,44708.428000,237.220,58.845,-68.732,380.901,348.019,-130.131,4.960,-11.490,-2.020
1132,44708.465000,236.232,61.862,-66.739,384.670,338.283,-133.282,5.960,-10.490,0.980
1133,44708.505000,237.220,59.851,-65.743,382.758,340.249,-131.281,10.960,-17.490,0.980
1134,44708.545000,236.232,59.851,-68.732,383.777,345.156,-129.208,15.960,-20.490,0.980
1135,44708.588000,236.232,58.845,-66.739,383.740,342.157,-133.197,18.960,-26.490,2.980
1136,44708.628000,236.232,58.845,-67.735,384.719,343.159,-132.193,4.960,-18.490,8.980
1137,44708.645000,237.220,58.845,-69.728,382.791,344.090,-133.157,1.960,-14.490,9.980
1138,44708.685000,236.232,58.845,-68.732,380.847,343.100,-133.183,7.960,-16.490,7.980
1139,44708.724000,235.243,60.857,-70.724,381.756,337.263,-134.291,8.960,-20.490,8.980
1140,44708.768000,237.220,59.851,-68.732,382.780,343.982,-138.062,-0.040,-16.490,11.980
1141,44708.804000,236.232,56.833,-67.735,389.578,346.054,-135.060,1.960,-14.490,12.980
1142,44708.859000,235.243,58.845,-69.728,384.680,340.139,-137.163,-2.040,-11.490,13.980
1143,44708.888000,238.208,59.851,-69.728,384.642,336.255,-137.249,-3.040,-9.490,12.980
1144,44708.928000,236.232,57.839,-69.728,381.775,339.204,-134.248,-6.040,-9.490,12.980
1145,44708.949000,235.243,58.845,-71.720,384.722,344.065,-135.114,-9.040,-9.490,9.980
1146,44708.988000,237.220,59.851,-71.720,385.694,345.003,-137.053,-7.040,-9.490,10.980
1147,44709.28000,237.220,58.845,-70.724,385.623,337.279,-135.263,-5.040,-5.490,9.980
1148,44709.69000,236.232,57.839,-71.720,385.652,340.191,-135.198,-9.040,-6.490,6.980
1149,44709.119000,236.232,57.839,-70.724,385.633,339.134,-139.145,-3.040,-7.490,4.980
1150,44709.154000,236.232,58.845,-69.728,382.803,345.082,-132.154,-2.040,-12.490,4.980
1151,44709.184000,235.243,57.839,-68.732,385.692,344.096,-134.131,-3.040,-13.490,3.980
1152,44709.228000,236.232,58.845,-71.720,383.762,345.005,-136.076,-6.040,-10.490,3.980
1153,44709.267000,238.208,58.845,-68.732,384.633,335.284,-137.271,-3.040,-4.490,2.980
1154,44709.285000,236.232,57.839,-69.728,381.815,343.994,-137.083,-5.040,-2.490,0.980
1155,44709.325000,235.243,58.845,-69.728,379.798,335.259,-136.301,-2.040,-0.490,1.980
1156,44709.365000,237.220,57.839,-69.728,385.682,343.126,-134.153,-2.040,1.510,1.980
1157,44709.404000,237.220,57.839,-69.728,382.780,343.982,-138.062,-4.040,1.510,0.980
1158,44709.452000,237.220,56.833,-71.720,383.665,335.275,-137.273,-6.040,3.510,-0.020
1159,44709.487000,235.243,56.833,-71.720,381.749,337.198,-137.234,-7.040,7.510,-2.020
1160,44709.532000,236.232,58.845,-71.720,385.675,343.061,-137.096,-7.040,6.510,-1.020
1161,44709.564000,237.220,58.845,-69.728,380.833,342.086,-135.167,-3.040,5.510,-1.020
1162,44709.587000,235.243,57.839,-71.720,381.803,342.117,-134.183,-5.040,3.510,-2.020
1163,44709.627000,236.232,58.845,-68.732,380.822,341.094,-136.169,-5.040,4.510,-3.020
1164,44709.674000,236.232,59.851,-70.724,381.798,342.074,-136.145,-6.040,5.510,-2.020
1165,44709.704000,236.232,56.833,-69.728,379.795,334.353,-133.379,-4.040,6.510,-2.020
1166,44709.744000,236.232,58.845,-71.720,380.859,344.092,-132.180,-13.040,12.510,1.980
1167,44709.789000,236.232,58.845,-69.728,382.777,342.191,-131.237,-17.040,17.510,4.980
1168,44709.827000,237.220,57.839,-68.732,385.701,345.067,-134.109,-19.040,23.510,7.980
1169,44709.873000,234.255,58.845,-66.739,384.731,344.152,-131.190,-4.040,3.510,2.980
1170,44709.908000,237.220,58.845,-67.735,380.809,339.216,-133.269,2.960,-3.490,0.980
1171,44709.930000,237.220,57.839,-67.735,386.690,347.040,-133.083,-0.040,-9.490,0.980
1172,44709.965000,237.220,57.839,-71.720,385.710,346.038,-134.088,2.960,-8.490,0.980
1173,44710.8000,235.243,58.845,-70.724,385.642,339.220,-135.220,2.960,-7.490,3.980
1174,44710.48000,238.208,57.839,-66.739,383.670,335.318,-135.311,-1.040,-9.490,4.980
1175,44710.88000,237.220,57.839,-71.720,385.684,343.147,-133.171,-2.040,-10.490,7.980
1176,44710.133000,235.243,59.851,-67.735,382.791,344.090,-133.157,-1.040,-9.490,6.980
1177,44710.165000,238.208,59.851,-67.735,382.791,344.090,-133.157,-3.040,-9.490,7.980
1178,44710.208000,235.243,57.839,-69.728,381.791,341.124,-135.186,-3.040,-9.490,6.980
1179,44710.227000,235.243,57.839,-68.732,383.719,340.194,-134.222,-3.040,-9.490,5.980
1180,44710.265000,236.232,57.839,-69.728,386.614,339.273,-133.255,-1.040,-7.490,4.980
1181,44710.305000,236.232,58.845,-70.724,384.699,342.081,-137.120,-0.040,-7.490,2.980
1182,44710.345000,237.220,58.845,-70.724,379.880,343.091,-133.185,0.960,-2.490,-1.020
1183,44710.387000,236.232,57.839,-68.732,385.616,336.329,-134.304,-2.040,-2.490,-3.020
1184,44710.427000,236.232,56.833,-70.724,385.614,336.308,-135.285,0.960,-2.490,-2.020
1185,44710.467000,234.255,57.839,-69.728,384.639,335.349,-134.327,0.960,-1.490,-2.020
1186,44710.509000,238.208,58.845,-69.728,381.767,338.255,-133.288,-0.040,-0.490,1.980
1187,44710.547000,236.232,58.845,-68.732,385.697,345.024,-136.072,1.960,2.510,5.980
1188,44710.565000,238.208,57.839,-67.735,383.688,337.260,-135.268,-4.040,2.510,9.980
1189,44710.609000,235.243,57.839,-68.732,383.740,343.042,-137.101,-2.040,1.510,12.980
1190,44710.653000,235.243,58.845,-69.728,383.686,337.238,-136.249,-7.040,-1.490,14.980
1191,44710.688000,239.197,57.839,-67.735,382.700,335.287,-136.294,-2.040,-0.490,12.980
1192,44710.730000,234.255,56.833,-73.712,382.775,343.054,-136.122,-2.040,9.510,11.980
1193,44710.767000,238.208,59.851,-68.732,386.637,341.258,-131.250,-22.040,18.510,12.980
1194,44710.808000,235.243,56.833,-68.732,381.777,339.226,-133.267,-27.040,13.510,15.980
1195,44710.845000,238.208,56.833,-68.732,386.673,345.120,-132.145,-14.040,4.510,9.980
1196,44710.889000,237.220,55.827,-66.739,382.735,338.264,-133.286,-6.040,-1.490,2.980
1197,44710.910000,237.220,56.833,-68.732,382.723,337.272,-134.289,0.960,-4.490,-5.020
1198,44710.947000,234.255,58.845,-67.735,385.692,344.096,-134.131,2.960,-4.490,-7.020
1199,44710.987000,238.208,58.845,-69.728,384.712,343.095,-135.136,-4.040,1.510,-4.020
1200,44711.25000,235.243,57.839,-67.735,382.751,340.185,-134.224,-10.040,1.510,1.980
1201,44711.68000,236.232,58.845,-68.732,383.771,345.092,-132.152,-15.040,2.510,4.980
1202,44711.110000,236.232,58.845,-70.724,386.612,339.251,-134.237,-14.040,-2.490,3.980
1203,44711.150000,238.208,58.845,-68.732,385.675,342.176,-133.193,-8.040,-5.490,-0.020
1204,44711.192000,237.220,58.845,-69.728,384.717,343.138,-133.174,-3.040,-6.490,-3.020
1205,44711.219000,237.220,56.833,-66.739,384.691,340.247,-132.257,-2.040,-7.490,-5.020
1206,44711.250000,237.220,56.833,-70.724,384.726,344.109,-133.152,-0.040,-2.490,-5.020
1207,44711.288000,238.208,57.839,-69.728,387.617,343.144,-134.148,-0.040,-0.490,-3.020
1208,44711.327000,236.232,58.845,-71.720,385.677,342.198,-132.212,-3.040,2.510,-0.020
1209,44711.370000,236.232,59.851,-66.739,384.668,338.262,-134.263,-0.040,0.510,-0.020
1210,44711.408000,237.220,57.839,-65.743,384.675,339.211,-135.222,4.960,-6.490,-0.020
1211,44711.449000,235.243,58.845,-70.724,380.791,337.275,-133.312,4.960,-8.490,1.980
1212,44711.489000,237.220,57.839,-67.735,383.754,344.056,-135.117,-0.040,-5.490,2.980
1213,44711.530000,236.232,58.845,-69.728,384.712,343.095,-135.136,-1.040,-3.490,3.980
1214,44711.550000,237.220,59.851,-68.732,383.705,338.295,-132.303,-5.040,-1.490,9.980
1215,44711.590000,237.220,58.845,-70.724,378.893,341.139,-133.230,-5.040,-1.490,13.980
1216,44711.627000,236.232,56.833,-68.732,383.691,337.281,-134.286,-7.040,-2.490,12.980
1217,44711.670000,237.220,57.839,-70.724,383.731,341.186,-133.219,-2.040,-2.490,11.980
1218,44711.712000,235.243,56.833,-72.716,381.817,343.131,-132.199,-3.040,-2.490,12.980
1219,44711.749000,233.266,58.845,-68.732,384.724,344.087,-134.133,-1.040,-2.490,13.980
1220,44711.794000,237.220,57.839,-68.732,384.651,336.342,-133.325,-0.040,-3.490,14.980
1221,44711.831000,236.232,56.833,-72.716,382.749,340.163,-135.205,-2.040,-1.490,13.980
1222,44711.847000,234.255,57.839,-69.728,383.691,337.281,-134.286,-3.040,4.510,12.980
1223,44711.887000,238.208,57.839,-67.735,387.634,345.065,-135.086,-5.040,7.510,12.980
1224,44711.930000,238.208,57.839,-67.735,387.619,343.166,-133.167,-5.040,8.510,13.980
1225,44711.969000,237.220,57.839,-66.739,388.537,338.299,-134.254,-8.040,9.510,15.980
1226,44712.7000,236.232,56.833,-67.735,385.654,340.213,-134.217,-11.040,6.510,14.980
1227,44712.50000,236.232,55.827,-68.732,387.624,343.209,-131.205,-12.040,3.510,13.980
1228,44712.90000,238.208,55.827,-67.735,389.530,340.315,-131.265,-7.040,0.510,9.980
1229,44712.132000,237.220,55.827,-69.728,387.593,340.275,-132.250,-3.040,-0.490,7.980
1230,44712.168000,237.220,55.827,-68.732,389.491,337.295,-136.235,1.960,-10.490,4.980
1231,44712.190000,237.220,55.827,-69.728,386.569,334.440,-132.382,2.960,-15.490,2.980
1232,44712.229000,237.220,53.815,-67.735,387.605,342.152,-135.151,1.960,-17.490,5.980
1233,44712.267000,238.208,55.827,-68.732,391.461,340.291,-133.223,-0.040,-15.490,3.980
1234,44712.312000,238.208,57.839,-71.720,388.533,338.256,-136.216,-4.040,-12.490,5.980
1235,44712.352000,237.220,55.827,-70.724,386.602,338.281,-134.258,-5.040,-10.490,7.980
1236,44712.387000,237.220,56.833,-69.728,389.528,340.294,-132.246,-9.040,-9.490,8.980
1237,44712.429000,238.208,56.833,-66.739,384.684,340.182,-135.201,-8.040,-7.490,8.980
1238,44712.472000,238.208,56.833,-71.720,390.510,342.202,-134.163,-7.040,-6.490,7.980
1239,44712.488000,236.232,55.827,-67.735,390.489,340.238,-135.187,-5.040,-4.490,5.980
1240,44712.532000,238.208,56.833,-70.724,387.542,335.377,-134.321,-3.040,-5.490,1.980
1241,44712.573000,235.243,55.827,-68.732,387.593,340.275,-132.250,-0.040,-7.490,0.980
1242,44712.612000,238.208,56.833,-69.728,384.635,335.306,-136.290,-1.040,-8.490,-1.020
1243,44712.649000,235.243,55.827,-71.720,387.620,344.051,-137.070,-2.040,-9.490,-0.020
1244,44712.692000,237.220,56.833,-69.728,390.489,340.238,-135.187,-4.040,-9.490,0.980
1245,44712.728000,237.220,56.833,-70.724,387.523,333.436,-134.364,-4.040,-7.490,0.980
1246,44712.772000,238.208,55.827,-73.712,386.591,337.288,-135.261,-4.040,-6.490,-1.020
1247,44712.810000,235.243,55.827,-69.728,386.590,336.404,-131.358,-4.040,-6.490,-0.020
1248,44712.830000,236.232,57.839,-69.728,385.652,340.191,-135.198,-5.040,-2.490,0.980
1249,44712.872000,236.232,54.821,-68.732,386.626,341.150,-136.156,-5.040,-2.490,-0.020
1250,44712.908000,237.220,56.833,-69.728,390.494,341.166,-137.128,-2.040,-3.490,-0.020
1251,44712.949000,236.232,55.827,-70.724,384.625,334.335,-136.311,-2.040,-4.490,-2.020
1252,44712.997000,236.232,56.833,-70.724,387.549,336.327,-135.280,-4.040,-4.490,-1.020
1253,44713.29000,236.232,55.827,-72.716,386.607,339.208,-136.199,-4.040,-1.490,-2.020
1254,44713.69000,237.220,55.827,-70.724,388.493,334.351,-137.283,-5.040,-2.490,-2.020
1255,44713.113000,238.208,55.827,-68.732,385.638,339.177,-137.182,-6.040,-3.490,-1.020
1256,44713.152000,236.232,56.833,-70.724,385.638,339.177,-137.182,-3.040,-4.490,-0.020
1257,44713.168000,236.232,57.839,-71.720,386.628,341.172,-135.175,-3.040,-4.490,-1.020
1258,44713.208000,236.232,55.827,-69.728,385.619,337.236,-137.225,-5.040,-4.490,0.980
1259,44713.249000,236.232,57.839,-68.732,390.489,340.238,-135.187,-3.040,-2.490,2.980
1260,44713.290000,238.208,57.839,-72.716,383.714,340.151,-136.184,-2.040,-1.490,1.980
1261,44713.333000,237.220,56.833,-69.728,386.645,343.092,-136.113,-4.040,-0.490,2.980
1262,44713.369000,236.232,57.839,-73.712,385.642,339.220,-135.220,-5.040,-1.490,2.980
1263,44713.408000,234.255,56.833,-70.724,385.694,344.118,-133.150,-5.040,-0.490,3.980
1264,44713.449000,237.220,55.827,-70.724,384.689,341.110,-137.141,-4.040,-0.490,5.980
1265,44713.468000,236.232,57.839,-70.724,387.558,337.298,-135.259,-6.040,-1.490,3.980
1266,44713.509000,237.220,55.827,-71.720,383.679,336.289,-135.289,-4.040,-1.490,4.980
1267,44713.554000,238.208,55.827,-72.716,387.608,342.174,-134.170,-4.040,-1.490,3.980
1268,44713.588000,237.220,55.827,-70.724,388.552,340.198,-136.173,-5.040,-0.490,2.980
1269,44713.628000,237.220,55.827,-70.724,385.659,341.141,-136.158,-0.040,1.510,1.980
1270,44713.670000,237.220,54.821,-70.724,385.583,333.374,-136.331,-1.040,-1.490,1.980
1271,44713.714000,237.220,56.833,-69.728,383.679,336.289,-135.289,-2.040,-1.490,3.980
1272,44713.750000,237.220,56.833,-69.728,385.609,336.265,-137.247,-3.040,-1.490,4.980
1273,44713.794000,236.232,55.827,-71.720,385.642,339.220,-135.220,-5.040,0.510,4.980
1274,44713.813000,236.232,56.833,-69.728,388.502,335.322,-137.262,-5.040,-0.490,4.980
1275,44713.850000,237.220,56.833,-69.728,386.619,340.201,-135.196,-5.040,-0.490,3.980
1276,44713.893000,236.232,56.833,-67.735,384.611,333.321,-138.295,-4.040,-1.490,3.980
1277,44713.934000,237.220,56.833,-70.724,384.705,342.145,-134.176,-4.040,-0.490,3.980
1278,44713.974000,237.220,56.833,-68.732,386.671,345.983,-137.029,-3.040,-0.490,3.980
1279,44714.9000,236.232,56.833,-69.728,388.573,342.161,-135.149,-4.040,-2.490,4.980
1280,44714.53000,238.208,58.845,-70.724,386.546,333.340,-138.291,-2.040,-2.490,5.980
1281,44714.92000,234.255,55.827,-69.728,386.638,342.143,-135.153,-3.040,-0.490,4.980
1282,44714.110000,235.243,57.839,-71.720,386.633,342.099,-137.115,-3.040,0.510,7.980
1283,44714.149000,238.208,54.821,-68.732,384.682,340.160,-136.182,-6.040,0.510,7.980
1284,44714.193000,237.220,56.833,-69.728,385.680,343.104,-135.134,-6.040,1.510,9.980
1285,44714.238000,236.232,54.821,-72.716,388.516,336.336,-135.278,-7.040,3.510,7.980
1286,44714.278000,237.220,55.827,-69.728,387.499,331.451,-136.369,-9.040,2.510,7.980
1287,44714.312000,237.220,55.827,-71.720,385.668,341.227,-132.233,-8.040,4.510,6.980
1288,44714.353000,237.220,55.827,-68.732,387.547,336.305,-136.261,-9.040,5.510,4.980
1289,44714.393000,238.208,55.827,-69.728,386.621,340.222,-134.215,-7.040,1.510,2.980
1290,44714.432000,238.208,56.833,-69.728,385.656,340.234,-133.236,-4.040,-2.490,2.980
1291,44714.458000,237.220,55.827,-69.728,387.542,335.377,-134.321,-2.040,-8.490,-2.020
