Sample, Time, ACCX, ACCY, ACCZ, MAGX, MAGY, MAGZ, GYRX, GYRY, GYRZ
0,43983.385000,255.012,17.603,0.000,512.712,241.954,18.814,-41.040,38.510,-10.020
1,43983.421000,250.069,16.597,0.996,515.604,240.127,22.702,-18.040,37.510,-9.020
2,43983.449000,252.046,15.591,0.996,516.619,244.990,22.812,-16.040,30.510,-7.020
3,43983.480000,254.023,20.621,0.996,513.733,246.882,21.868,-1.040,28.510,-5.020
4,43983.520000,252.046,16.597,0.000,516.569,239.230,25.626,-6.040,16.510,-5.020
5,43983.565000,254.023,16.597,0.000,510.771,239.238,28.556,-4.040,0.510,-8.020
6,43983.600000,249.081,19.615,0.996,517.532,239.196,23.666,10.960,-27.490,-3.020
7,43983.640000,254.023,19.615,0.000,511.772,243.972,22.779,25.960,-32.490,6.980
8,43983.680000,254.023,18.609,-2.988,515.677,246.987,25.797,6.960,-17.490,12.980
9,43983.720000,254.023,19.615,-1.992,513.717,244.962,22.806,6.960,-6.490,19.980
10,43983.763000,252.046,18.609,-1.992,517.530,240.059,18.782,2.960,3.510,26.980
11,43983.783000,255.012,17.603,0.000,515.635,243.061,23.748,10.960,1.510,30.980
12,43983.823000,253.035,15.591,0.000,514.675,244.001,22.786,5.960,3.510,30.980
13,43983.863000,252.046,15.591,-0.996,517.594,245.949,21.855,8.960,2.510,30.980
14,43983.903000,254.023,14.585,-1.992,516.612,244.041,23.772,8.960,-1.490,28.980
15,43983.943000,254.023,15.591,-0.996,513.670,240.108,22.698,17.960,-9.490,21.980
16,43983.985000,253.035,14.585,0.996,515.581,238.142,20.697,14.960,-17.490,16.980
17,43984.25000,253.035,15.591,-1.992,519.508,244.005,20.835,11.960,-15.490,12.980
18,43984.65000,253.035,14.585,-4.981,517.568,243.943,18.868,10.960,-13.490,11.980
19,43984.85000,254.023,13.580,-1.992,519.484,242.020,18.830,8.960,-13.490,10.980
20,43984.125000,253.035,16.597,-4.981,518.538,243.974,19.852,10.960,-13.490,11.980
21,43984.165000,254.023,15.591,-4.981,514.555,232.286,19.584,6.960,-11.490,11.980
22,43984.205000,253.035,15.591,-2.988,515.610,241.939,16.858,3.960,-1.490,12.980
23,43984.245000,253.035,14.585,-1.992,517.467,233.285,19.612,-3.040,6.510,13.980
24,43984.284000,254.023,15.591,-1.992,517.512,238.117,18.739,-2.040,7.510,16.980
25,43984.325000,253.035,13.580,-4.981,516.502,234.181,16.688,-4.040,5.510,16.980
26,43984.368000,254.023,14.585,-0.996,516.568,240.977,16.839,-9.040,-1.490,11.980
27,43984.411000,251.058,13.580,0.000,514.562,233.235,18.624,-8.040,-5.490,10.980
28,43984.420000,254.023,13.580,-3.984,517.512,238.117,18.739,-3.040,-7.490,9.980
29,43984.460000,254.023,12.574,-1.992,515.617,242.004,19.802,-4.040,-2.490,8.980
30,43984.500000,254.023,14.585,-0.996,520.414,238.146,18.746,-1.040,-2.490,7.980
31,43984.540000,253.035,12.574,-2.988,516.589,242.056,21.766,-7.040,0.510,4.980
32,43984.581000,255.012,15.591,2.988,520.411,237.240,21.668,-2.040,-1.490,2.980
33,43984.621000,253.035,12.574,-3.984,520.442,241.058,18.810,-1.040,-3.490,1.980
34,43984.662000,256.000,13.580,-3.984,517.471,233.328,21.575,-5.040,-6.490,0.980
35,43984.701000,253.035,14.585,-2.988,518.425,232.323,19.593,-4.040,-4.490,1.980
36,43984.721000,254.023,14.585,-3.984,515.600,240.083,20.740,-3.040,-2.490,-0.020
37,43984.763000,255.012,14.585,-2.988,517.530,240.059,18.782,-1.040,-2.490,0.980
38,43984.804000,253.035,13.580,-1.992,514.595,237.075,16.748,-3.040,-2.490,0.980
39,43984.844000,253.035,13.580,-1.992,519.423,235.267,20.641,-1.040,-6.490,0.980
40,43984.884000,254.023,14.585,-2.988,517.559,242.972,18.847,1.960,-9.490,1.980
41,43984.925000,253.035,13.580,-2.988,516.511,234.268,20.613,-0.040,-6.490,2.980
42,43984.966000,255.012,14.585,-1.992,516.563,240.934,14.877,-5.040,-3.490,2.980
43,43985.13000,253.035,14.585,-1.992,520.423,239.117,18.767,-5.040,-4.490,4.980
44,43985.45000,254.023,14.585,-1.992,516.540,238.065,16.774,-3.040,-5.490,6.980
45,43985.71000,253.035,15.591,-3.984,517.479,235.162,16.712,-8.040,-1.490,7.980
46,43985.105000,254.023,14.585,-0.996,517.526,240.016,16.820,-8.040,-0.490,6.980
47,43985.145000,254.023,15.591,-4.981,519.423,236.151,16.738,-4.040,2.510,8.980
48,43985.185000,253.035,14.585,-1.992,520.381,234.305,20.622,-7.040,7.510,9.980
49,43985.224000,254.023,12.574,-0.996,519.461,240.035,16.824,-11.040,8.510,8.980
50,43985.269000,253.035,12.574,-1.992,519.444,237.230,21.665,-8.040,5.510,8.980
51,43985.303000,254.023,12.574,-0.996,516.553,238.194,22.661,-9.040,5.510,8.980
52,43985.344000,254.023,12.574,-1.992,518.448,234.308,21.598,-7.040,3.510,7.980
53,43985.384000,253.035,12.574,0.000,518.512,241.083,20.768,-10.040,2.510,5.980
54,43985.404000,252.046,12.574,-2.988,512.693,239.127,22.674,-5.040,-3.490,5.980
55,43985.444000,254.023,12.574,-1.992,519.420,235.245,19.660,-4.040,-6.490,5.980
56,43985.483000,253.035,13.580,-1.992,513.566,230.313,18.557,-7.040,-4.490,4.980
57,43985.521000,253.035,13.580,-0.996,518.495,239.162,21.706,-3.040,-2.490,7.980
58,43985.561000,254.023,14.585,0.000,522.360,239.157,19.753,-3.040,-8.490,8.980
59,43985.601000,251.058,10.562,-1.992,519.380,231.340,18.592,-3.040,-12.490,5.980
60,43985.646000,252.046,15.591,-1.992,517.528,240.038,17.801,-2.040,-15.490,2.980
61,43985.683000,252.046,14.585,-2.988,518.420,232.280,17.631,-3.040,-11.490,4.980
62,43985.705000,254.023,13.580,-4.981,516.542,238.086,17.756,-3.040,-2.490,6.980
63,43985.750000,252.046,13.580,-0.996,519.482,241.998,17.849,-5.040,4.510,9.980
64,43985.783000,252.046,13.580,-2.988,519.432,237.122,16.760,-3.040,4.510,9.980
65,43985.823000,253.035,11.568,-1.992,516.546,238.130,19.718,-3.040,1.510,7.980
66,43985.863000,253.035,12.574,-1.992,514.637,241.002,18.797,-2.040,-4.490,7.980
67,43985.901000,253.035,13.580,-1.992,518.441,234.243,18.655,0.960,-11.490,7.980
68,43985.947000,252.046,12.574,-0.996,519.468,240.100,19.768,-0.040,-11.490,5.980
69,43985.981000,253.035,12.574,-2.988,521.315,231.359,18.597,0.960,-9.490,5.980
70,43986.21000,253.035,12.574,-2.988,518.434,233.294,19.615,1.960,-10.490,5.980
71,43986.41000,255.012,11.568,-2.988,517.474,234.234,18.653,1.960,-12.490,4.980
72,43986.81000,254.023,12.574,-2.988,517.523,239.110,19.742,-2.040,-13.490,4.980
73,43986.121000,252.046,13.580,-2.988,517.507,238.074,16.777,0.960,-13.490,4.980
74,43986.168000,253.035,14.585,-1.992,524.296,240.060,15.854,-1.040,-15.490,3.980
75,43986.214000,253.035,11.568,-5.977,522.335,237.151,16.766,-5.040,-18.490,2.980
76,43986.250000,254.023,11.568,-0.996,519.383,232.246,15.671,-0.040,-31.490,-4.020
77,43986.283000,252.046,13.580,-4.981,515.565,237.991,13.829,-0.040,-40.490,-11.020
78,43986.323000,254.023,16.597,-7.969,521.295,230.280,13.670,1.960,-35.490,-10.020
79,43986.375000,255.012,13.580,-5.977,521.393,239.148,19.751,-4.040,-17.490,-0.020
80,43986.383000,255.012,13.580,-4.981,516.531,237.979,12.850,3.960,-4.490,3.980
81,43986.428000,254.023,12.574,-4.981,521.323,233.193,13.734,3.960,2.510,9.980
82,43986.468000,255.012,12.574,-4.981,513.583,233.118,13.716,-7.040,9.510,10.980
83,43986.508000,254.023,14.585,-4.981,518.470,238.925,10.914,-6.040,5.510,9.980
84,43986.548000,253.035,11.568,-2.988,517.472,235.097,13.769,-5.040,3.510,11.980
85,43986.584000,255.012,11.568,-3.984,520.365,234.154,13.754,-7.040,2.510,8.980
86,43986.627000,253.035,11.568,-0.996,522.330,237.107,14.804,-2.040,-4.490,6.980
87,43986.668000,255.012,12.574,-6.973,514.518,230.171,11.692,-1.040,-10.490,4.980
88,43986.688000,252.046,13.580,-6.973,517.486,236.111,15.752,-3.040,-8.490,3.980
89,43986.725000,251.058,12.574,-2.988,517.444,232.184,13.704,-5.040,-10.490,3.980
90,43986.771000,254.023,13.580,-2.988,521.313,232.222,13.713,-2.040,-10.490,2.980
91,43986.803000,252.046,13.580,-3.984,515.518,233.136,13.721,-2.040,-5.490,2.980
92,43986.858000,255.012,12.574,-3.984,513.557,230.227,14.633,-5.040,-4.490,3.980
93,43986.886000,253.035,13.580,-5.977,516.531,237.979,12.850,-1.040,-9.490,1.980
94,43986.931000,253.035,11.568,-4.981,519.443,239.862,8.975,-4.040,-7.490,3.980
95,43986.967000,253.035,12.574,-4.981,521.349,236.084,12.818,-2.040,0.510,4.980
96,43987.6000,254.023,14.585,-4.981,515.547,236.049,13.786,-6.040,4.510,5.980
97,43987.26000,253.035,12.574,-2.988,518.463,237.091,15.776,-6.040,-1.490,5.980
98,43987.64000,253.035,12.574,-5.977,516.469,231.226,14.661,-4.040,1.510,4.980
99,43987.104000,254.023,14.585,-4.981,521.304,231.251,13.691,-8.040,6.510,4.980
100,43987.144000,254.023,12.574,-3.984,516.531,237.979,12.850,-3.040,4.510,4.980
101,43987.186000,253.035,13.580,-4.981,520.353,233.162,12.751,-2.040,5.510,5.980
102,43987.234000,255.012,11.568,-4.981,518.451,236.099,14.774,-5.040,4.510,1.980
103,43987.268000,253.035,11.568,-0.996,520.386,236.118,14.778,-7.040,-2.490,-0.020
104,43987.308000,254.023,12.574,-4.981,520.431,240.951,13.905,-1.040,-10.490,-2.020
105,43987.328000,254.023,13.580,-3.984,516.495,234.117,13.745,-2.040,-9.490,-1.020
106,43987.363000,254.023,12.574,-5.977,521.403,241.003,15.869,-4.040,-8.490,-0.020
107,43987.413000,252.046,12.574,-3.984,519.379,232.203,13.708,-4.040,-8.490,-2.020
108,43987.447000,253.035,12.574,-3.984,517.507,238.959,12.874,-4.040,-1.490,0.980
109,43987.493000,253.035,13.580,-3.984,522.354,239.092,16.809,-6.040,0.510,1.980
110,43987.528000,254.023,14.585,-5.977,523.243,231.313,15.658,-4.040,1.510,1.980
111,43987.568000,254.023,11.568,-5.977,517.491,237.039,13.812,-5.040,-0.490,0.980
112,43987.609000,253.035,13.580,-4.981,523.317,239.059,14.849,-6.040,-0.490,-0.020
113,43987.649000,253.035,10.562,-4.981,521.391,240.011,14.867,-4.040,-5.490,0.980
114,43987.669000,253.035,12.574,-5.977,517.514,239.024,15.817,-7.040,-4.490,-1.020
115,43987.709000,254.023,12.574,-3.984,516.514,236.058,13.788,-3.040,-6.490,-1.020
116,43987.750000,253.035,13.580,-1.992,518.430,234.136,13.749,-5.040,-5.490,-2.020
117,43987.784000,253.035,13.580,-4.981,517.507,238.959,12.874,-9.040,-7.490,-5.020
118,43987.824000,254.023,13.580,-5.977,519.393,234.102,11.789,0.960,-14.490,-5.020
119,43987.864000,253.035,13.580,-6.973,513.574,232.147,13.695,-1.040,-12.490,-5.020
120,43987.910000,253.035,12.574,-4.981,514.563,235.004,10.818,-6.040,-13.490,-7.020
121,43987.946000,256.000,15.591,-4.981,517.489,237.017,12.831,-3.040,-12.490,-4.020
122,43987.990000,255.012,15.591,-7.969,518.465,237.997,12.854,-5.040,-6.490,-1.020
123,43988.9000,255.012,13.580,-3.984,520.429,240.929,12.924,-5.040,-1.490,0.980
124,43988.49000,253.035,13.580,-3.984,517.515,239.908,11.914,-6.040,1.510,1.980
125,43988.95000,254.023,14.585,-3.984,517.460,234.105,12.766,-6.040,0.510,1.980
126,43988.129000,254.023,14.585,-3.984,515.551,236.092,15.748,-2.040,-3.490,1.980
127,43988.164000,253.035,14.585,-6.973,518.498,240.953,14.881,-3.040,-1.490,1.980
128,43988.220000,254.023,12.574,-4.981,518.517,242.895,14.924,-3.040,-2.490,2.980
129,43988.245000,254.023,14.585,-5.977,519.468,241.869,11.962,-6.040,-3.490,0.980
130,43988.286000,253.035,14.585,-4.981,519.419,236.108,14.776,-7.040,-4.490,1.980
131,43988.306000,254.023,14.585,-4.981,518.426,234.092,11.787,-8.040,-1.490,0.980
132,43988.345000,253.035,13.580,-5.977,516.533,238.000,13.831,-7.040,-4.490,-1.020
133,43988.385000,252.046,13.580,-2.988,518.499,241.838,10.978,-3.040,-10.490,-1.020
134,43988.428000,253.035,13.580,-5.977,515.582,239.911,12.891,-6.040,-13.490,-2.020
135,43988.468000,251.058,14.585,-4.981,518.513,242.852,12.962,-11.040,-15.490,-3.020
136,43988.505000,254.023,14.585,-5.977,520.358,234.090,10.810,-5.040,-15.490,-4.020
137,43988.550000,252.046,13.580,-6.973,517.496,237.966,11.871,-9.040,-13.490,-4.020
138,43988.584000,252.046,15.591,-5.977,520.452,243.798,11.026,-6.040,-10.490,-2.020
139,43988.624000,254.023,14.585,-4.981,518.496,241.816,9.997,-8.040,-5.490,-1.020
140,43988.653000,253.035,13.580,-2.988,518.451,236.099,14.774,-7.040,-6.490,-0.020
141,43988.686000,253.035,14.585,-5.977,516.554,240.848,10.952,-3.040,-7.490,-0.020
142,43988.728000,254.023,15.591,-7.969,514.577,236.903,8.899,-8.040,-4.490,0.980
143,43988.765000,253.035,14.585,-5.977,515.589,240.860,11.931,-4.040,-2.490,2.980
144,43988.805000,253.035,14.585,-5.977,519.471,241.890,12.943,-1.040,-3.490,3.980
145,43988.845000,253.035,15.591,-5.977,513.626,237.929,11.862,-8.040,-3.490,3.980
146,43988.891000,252.046,13.580,-5.977,517.439,232.141,11.742,-7.040,-7.490,1.980
147,43988.925000,254.023,14.585,-7.969,516.564,241.819,10.974,-4.040,-7.490,3.980
148,43988.945000,253.035,14.585,-6.973,514.570,235.953,9.859,-9.040,-1.490,2.980
149,43988.998000,254.023,15.591,-4.981,517.548,243.749,10.038,-9.040,1.510,3.980
150,43989.25000,253.035,13.580,-5.977,517.534,241.850,11.957,-5.040,0.510,3.980
151,43989.65000,252.046,14.585,-4.981,517.489,237.017,12.831,-8.040,-1.490,1.980
152,43989.110000,253.035,15.591,-3.984,515.580,239.889,11.910,-11.040,-4.490,-1.020
153,43989.145000,253.035,14.585,-4.981,519.410,236.022,10.851,-5.040,-6.490,-2.020
154,43989.185000,254.023,15.591,-3.984,520.374,235.125,13.775,-5.040,-8.490,-3.020
155,43989.225000,253.035,13.580,-5.977,517.529,240.922,13.898,-5.040,-6.490,-4.020
156,43989.265000,252.046,16.597,-6.973,517.526,240.901,12.917,-6.040,-6.490,-3.020
157,43989.290000,253.035,16.597,-7.969,516.507,235.994,10.844,-5.040,-6.490,-2.020
158,43989.330000,254.023,16.597,-5.977,516.587,243.804,12.979,-6.040,-7.490,-3.020
159,43989.376000,254.023,15.591,-5.977,515.592,241.766,9.009,-5.040,-4.490,-1.020
160,43989.411000,254.023,15.591,-3.984,515.612,242.845,13.937,-7.040,0.510,1.980
161,43989.456000,254.023,16.597,-4.981,516.576,242.811,11.977,-6.040,2.510,1.980
162,43989.495000,253.035,15.591,-3.984,517.491,237.039,13.812,-4.040,-0.490,3.980
163,43989.530000,254.023,14.585,-5.977,519.426,237.058,13.816,-4.040,-3.490,2.980
164,43989.570000,251.058,16.597,-6.973,520.438,241.900,12.945,-7.040,-2.490,1.980
165,43989.596000,254.023,15.591,-3.984,520.445,242.849,11.986,-8.040,-0.490,1.980
166,43989.631000,253.035,15.591,-4.981,519.454,239.970,13.881,-6.040,-0.490,5.980
167,43989.665000,254.023,14.585,-5.977,516.571,241.884,13.917,-6.040,3.510,3.980
168,43989.711000,254.023,15.591,-4.981,517.465,234.148,14.728,-7.040,3.510,2.980
169,43989.746000,254.023,14.585,-5.977,516.540,239.834,8.968,-6.040,0.510,4.980
170,43989.786000,253.035,15.591,-7.969,517.540,241.915,14.901,-6.040,0.510,3.980
171,43989.826000,254.023,14.585,-8.965,514.624,240.872,12.910,-5.040,-2.490,4.980
172,43989.866000,251.058,16.597,-6.973,514.648,243.742,11.012,-5.040,-3.490,3.980
173,43989.906000,254.023,15.591,-4.981,518.513,242.852,12.962,-6.040,-1.490,3.980
174,43989.934000,253.035,13.580,-4.981,518.388,230.209,11.701,-6.040,-2.490,2.980
175,43989.966000,253.035,15.591,-4.981,513.617,236.958,11.840,-3.040,-6.490,2.980
176,43990.6000,252.046,18.609,-5.977,515.610,242.824,12.955,-3.040,-5.490,3.980
177,43990.46000,254.023,16.597,-6.973,517.500,238.010,13.833,-5.040,-2.490,8.980
178,43990.86000,252.046,13.580,-5.977,515.551,236.977,11.845,-5.040,0.510,7.980
179,43990.134000,256.000,18.609,-2.988,519.461,240.919,12.921,-14.040,-4.490,5.980
180,43990.166000,253.035,10.562,-5.977,517.520,240.836,9.973,-1.040,1.510,0.980
181,43990.206000,246.116,25.650,-4.981,516.585,243.782,11.998,-30.040,-7.490,-5.020
182,43990.246000,256.988,5.532,4.981,513.687,243.797,13.954,-47.040,-23.490,-26.020
183,43990.266000,250.069,0.503,-1.992,514.638,242.771,10.991,-22.040,-102.490,-87.020
184,43990.306000,258.965,-0.503,-7.969,512.741,246.636,11.073,-264.040,-102.490,-45.020
185,43990.346000,249.081,27.662,5.977,517.596,249.487,6.243,-170.040,-213.490,-183.020
186,43990.386000,257.977,7.544,1.992,512.794,254.187,1.434,-65.040,-448.490,-267.020
187,43990.426000,254.023,22.633,-6.973,507.952,256.729,-13.230,-279.040,-574.490,-360.020
188,43990.466000,252.046,27.662,-52.794,505.097,263.324,-20.935,-192.040,-643.490,-316.020
189,43990.528000,215.475,58.845,-65.743,505.162,271.868,-29.571,-69.040,-312.490,-115.020
190,43990.551000,246.116,20.621,-53.790,506.106,269.892,-31.574,224.960,54.510,80.980
191,43990.571000,266.873,12.574,-24.903,503.185,267.922,-31.624,50.960,136.510,130.980
192,43990.613000,257.977,47.780,-5.977,507.043,266.967,-32.618,152.960,-35.490,29.980
193,43990.646000,249.081,43.756,-38.848,507.008,263.990,-35.626,78.960,-67.490,54.980
194,43990.686000,251.058,32.692,-37.852,507.994,265.941,-35.581,117.960,-29.490,74.980
195,43990.726000,252.046,23.639,-30.879,509.878,261.947,-41.549,179.960,-5.490,85.980
196,43990.780000,254.023,9.556,-31.875,507.941,261.907,-42.535,169.960,-23.490,27.980
197,43990.810000,251.058,19.615,-33.868,510.775,255.117,-43.660,-36.040,-36.490,12.980
198,43990.850000,250.069,17.603,-34.864,505.961,257.940,-45.569,-11.040,-59.490,-28.020
199,43990.890000,247.104,18.609,-40.840,508.921,264.678,-49.336,54.960,-47.490,-69.020
200,43990.918000,250.069,47.780,-40.840,506.068,269.525,-48.254,45.960,-40.490,-55.020
201,43990.946000,249.081,34.703,-39.844,506.974,263.667,-50.343,41.960,32.510,10.980
202,43990.986000,245.127,29.674,-38.848,503.081,260.759,-48.455,12.960,50.510,30.980
203,43991.31000,253.035,27.662,-27.891,506.934,258.877,-47.508,59.960,11.510,25.980
204,43991.71000,247.104,33.697,-31.875,506.990,264.702,-47.378,2.960,-29.490,18.980
205,43991.115000,252.046,19.615,-33.868,506.997,265.651,-48.338,30.960,-59.490,0.980
206,43991.147000,250.069,22.633,-37.852,507.941,263.676,-50.341,-56.040,-54.490,-14.020
207,43991.187000,249.081,26.656,-45.821,505.974,260.701,-52.372,4.960,-20.490,-47.020
208,43991.227000,252.046,29.674,-39.844,505.971,259.795,-49.450,-14.040,26.510,-38.020
209,43991.248000,242.162,42.750,-33.868,504.072,263.638,-50.350,-14.040,24.510,-32.020
210,43991.288000,250.069,24.644,-40.840,502.186,268.495,-49.265,14.960,12.510,-32.020
211,43991.329000,244.139,30.680,-4.981,504.102,266.572,-49.304,-10.040,-11.490,-59.020
212,43991.377000,250.069,36.715,-14.942,502.187,269.380,-53.168,157.960,-186.490,-146.020
213,43991.418000,263.907,11.568,-28.887,497.305,266.269,-60.112,176.960,-216.490,-261.020
214,43991.451000,256.988,45.768,-85.665,497.489,284.759,-57.740,-152.040,83.510,-263.020
215,43991.496000,284.664,75.945,-83.673,491.763,290.743,-47.813,-421.040,369.510,-262.020
216,43991.537000,272.803,63.874,-119.533,494.798,295.561,-6.512,-1486.040,1373.510,-53.020
217,43991.565000,227.336,-116.181,-183.284,489.053,293.433,31.675,-730.040,1071.510,-299.020
218,43991.609000,195.707,-63.874,-492.078,477.481,296.318,35.637,-1619.040,-1409.490,-140.020
219,43991.743000,220.417,-3.521,-492.078,461.074,307.981,-0.423,-2655.040,-3276.490,-398.020
220,43991.845000,377.575,-25.650,-273.930,428.289,328.955,-47.098,-2810.040,-4535.490,-1066.020
221,43991.940000,322.224,-78.963,-148.420,385.742,342.823,-103.759,-717.040,-4336.490,-1184.020
222,43991.948000,244.139,-81.980,85.665,359.563,347.294,-153.728,1459.960,-3535.490,-474.020
223,43991.957000,270.826,14.585,314.770,349.460,313.155,-201.579,947.960,-1328.490,1112.980
224,43991.957000,440.834,-80.974,131.486,373.227,274.146,-221.027,2350.960,555.510,1640.980
225,43991.957000,437.869,203.694,127.502,399.076,241.866,-200.115,-1170.040,1030.510,1548.980
226,43991.973000,390.425,151.387,96.623,423.279,235.219,-160.004,-2288.040,843.510,1220.980
227,43991.973000,214.486,143.340,-406.412,428.000,220.940,-149.524,-367.040,-48.490,557.980
228,43992.81000,75.120,126.240,-119.533,426.069,220.965,-147.566,838.960,375.510,-344.020
229,43992.98000,231.290,-36.715,-184.280,429.921,219.945,-151.503,919.960,574.510,-29.020
230,43992.119000,229.313,79.969,-120.529,430.875,216.309,-140.795,183.960,593.510,3.980
231,43992.134000,165.066,7.544,-145.432,437.710,220.495,-129.900,791.960,761.510,14.980
232,43992.156000,259.954,19.615,-104.591,445.368,209.222,-116.405,20.960,698.510,221.980
233,43992.171000,284.664,44.762,-86.661,444.441,210.486,-102.650,-240.040,575.510,103.980
234,43992.250000,267.861,6.538,-101.603,443.529,213.648,-90.813,-264.040,317.510,-121.020
235,43992.288000,226.347,30.680,-102.599,445.557,221.606,-82.787,-347.040,208.510,-223.020
236,43992.316000,194.718,2.515,-133.479,443.683,227.455,-80.700,-1.040,223.510,-255.020
237,43992.330000,196.695,6.538,-119.533,442.718,226.583,-75.818,-131.040,236.510,-208.020
238,43992.359000,240.185,16.597,-91.642,440.874,234.482,-68.782,-169.040,164.510,-248.020
239,43992.385000,238.208,24.644,-108.576,438.007,237.431,-65.781,-23.040,60.510,-336.020
240,43992.443000,227.336,33.697,-117.541,433.329,253.004,-61.522,-112.040,105.510,-290.020
241,43992.459000,216.463,36.715,-125.510,432.368,252.175,-54.678,-117.040,212.510,-246.020
242,43992.504000,233.266,45.768,-107.580,432.476,262.897,-52.478,-106.040,291.510,-165.020
243,43992.548000,237.220,52.809,-89.650,431.468,257.214,-45.742,-24.040,266.510,-120.020
244,43992.578000,236.232,51.804,-101.603,431.505,260.213,-41.753,6.960,245.510,-78.020
245,43992.619000,230.301,35.709,-97.619,433.539,269.099,-35.667,-103.040,283.510,-52.020
246,43992.660000,241.174,31.686,-90.646,429.656,265.415,-24.970,-265.040,306.510,-74.020
247,43992.681000,239.197,32.692,-99.611,424.893,270.481,-13.100,-436.040,256.510,-198.020
248,43992.721000,216.463,-0.503,-73.712,423.051,278.401,-5.082,-271.040,151.510,-259.020
249,43992.764000,276.757,57.839,-58.770,421.112,278.339,-7.049,-34.040,-21.490,-393.020
250,43992.804000,225.359,31.686,-30.879,419.319,293.768,-10.633,151.960,-205.490,-542.020
251,43992.844000,204.602,133.281,-129.494,410.684,303.176,-20.249,738.960,36.510,-362.020
252,43992.883000,241.174,80.974,-69.728,407.784,303.169,-19.275,27.960,182.510,-21.020
253,43992.923000,271.815,90.028,-36.856,402.982,306.100,-16.278,-159.040,-51.490,-53.020
254,43992.961000,275.768,87.010,-32.872,405.873,306.020,-21.177,-148.040,-343.490,-171.020
255,43993.1000,274.780,70.916,-33.868,402.986,309.660,-30.909,-216.040,-632.490,-322.020
256,43993.21000,268.849,80.974,-63.751,398.239,321.932,-44.376,278.960,-690.490,-550.020
257,43993.63000,251.058,140.322,-17.930,389.483,320.488,-62.078,296.960,-682.490,-533.020
258,43993.100000,216.463,165.470,48.809,380.894,332.981,-63.780,-693.040,-328.490,-385.020
259,43993.145000,165.066,141.328,98.615,374.288,348.600,-56.583,-71.040,400.510,-556.020
260,43993.221000,135.413,136.299,55.782,372.470,357.621,-42.657,433.960,1642.510,-469.020
261,43993.238000,185.822,152.393,33.868,372.537,358.268,-13.223,597.960,2536.510,-491.020
262,43993.260000,288.618,76.951,-43.829,365.932,370.370,10.568,613.960,2705.510,-257.020
263,43993.351000,249.081,30.680,-285.883,369.849,371.745,27.278,1207.960,2058.510,-16.020
264,43993.360000,144.309,-38.727,-286.879,367.957,380.939,4.923,2568.960,330.510,-384.020
265,43993.389000,135.413,-148.369,-275.922,365.038,386.909,-31.235,721.960,-507.490,-59.020
266,43993.419000,351.876,29.674,-41.837,373.545,372.754,-60.952,631.960,-949.490,665.980
267,43993.440000,387.459,71.921,-8.965,376.289,360.701,-80.827,52.960,-941.490,416.980
268,43993.511000,282.687,38.727,-97.619,385.869,353.719,-93.710,-43.040,-790.490,578.980
269,43993.543000,118.610,71.921,-191.253,390.660,350.681,-101.613,-181.040,-643.490,324.980
270,43993.559000,200.649,53.815,-120.529,391.531,341.844,-106.710,186.960,-116.490,499.980
271,43993.599000,353.853,74.939,-35.860,397.222,333.767,-123.549,752.960,-308.490,197.980
272,43993.639000,205.591,73.933,-115.549,400.855,312.166,-136.769,546.960,-132.490,370.980
273,43993.678000,240.185,26.656,-110.568,407.514,301.466,-140.915,510.960,105.510,538.980
274,43993.704000,233.266,59.851,-93.634,418.114,297.643,-142.939,562.960,211.510,534.980
275,43993.739000,251.058,78.963,-74.708,424.799,288.950,-144.099,354.960,201.510,446.980
276,43993.779000,236.232,36.715,-84.669,429.551,280.259,-144.281,315.960,183.510,383.980
277,43993.819000,239.197,-12.574,-77.696,435.257,269.679,-142.543,189.960,204.510,302.980
278,43993.860000,239.197,30.680,-64.747,437.055,256.063,-144.803,394.960,93.510,100.980
279,43993.901000,236.232,56.833,-61.759,439.024,260.806,-150.577,496.960,7.510,100.980
280,43993.941000,229.313,19.615,-93.634,442.760,248.115,-155.754,352.960,-81.490,206.980
281,43993.981000,242.162,7.544,-89.650,442.741,247.058,-159.701,227.960,-44.490,186.980
282,43994.1000,226.347,34.703,-94.630,439.802,244.031,-163.697,352.960,-11.490,127.980
283,43994.41000,236.232,30.680,-96.623,445.474,230.495,-163.985,381.960,117.510,203.980
284,43994.83000,235.243,-12.574,-97.619,448.311,224.612,-168.032,239.960,143.510,279.980
285,43994.123000,248.093,-41.745,-92.638,455.071,221.916,-161.213,133.960,231.510,260.980
286,43994.163000,238.208,36.715,-95.626,456.958,216.196,-157.414,276.960,327.510,141.980
287,43994.202000,253.035,27.662,-44.825,462.670,204.797,-148.829,231.960,316.510,255.980
288,43994.255000,249.081,31.686,-47.813,464.602,203.909,-145.902,-211.040,212.510,364.980
289,43994.319000,246.116,-40.739,-35.860,465.522,199.065,-146.008,-75.040,-12.490,155.980
290,43994.340000,234.255,-8.550,-70.724,468.398,195.317,-141.182,-214.040,2.510,122.980
291,43994.365000,239.197,-13.580,-66.739,469.326,191.422,-142.247,-344.040,-198.490,198.980
292,43994.391000,235.243,-39.733,-101.603,470.312,194.257,-146.104,-42.040,-146.490,93.980
293,43994.421000,249.081,-3.521,-68.732,469.310,191.271,-149.115,160.960,-0.490,-7.020
294,43994.461000,237.220,-17.603,-91.642,468.392,196.137,-148.028,160.960,51.510,42.980
295,43994.520000,246.116,1.509,-74.708,472.228,192.334,-146.143,-108.040,113.510,122.980
296,43994.549000,250.069,-8.550,-58.770,473.179,190.424,-145.203,-160.040,6.510,132.980
297,43994.602000,238.208,-18.609,-93.634,477.051,190.483,-144.213,20.960,93.510,95.980
298,43994.624000,243.151,-10.562,-69.728,475.064,183.798,-138.481,30.960,122.510,117.980
299,43994.643000,249.081,-14.585,-53.790,477.957,182.855,-138.496,-83.040,90.510,139.980
300,43994.684000,242.162,-25.650,-80.685,477.982,184.861,-135.510,-119.040,55.510,146.980
301,43994.735000,244.139,-13.580,-68.732,481.786,177.218,-131.749,-41.040,136.510,159.980
302,43994.763000,251.058,-9.556,-62.755,480.787,173.390,-128.894,-189.040,127.510,189.980
303,43994.802000,262.919,-40.739,-41.837,489.442,167.693,-127.041,-211.040,24.510,148.980
304,43994.843000,289.606,-94.051,-18.926,486.614,172.778,-115.166,-1302.040,-185.490,-7.020
305,43994.884000,291.583,-95.057,-46.817,484.814,187.257,-117.790,-1298.040,-536.490,-183.020
306,43994.924000,186.811,-152.393,-108.576,481.019,194.987,-117.627,-1774.040,-511.490,166.980
307,43994.944000,169.019,-197.658,-101.603,492.526,181.788,-105.147,-1374.040,1.510,744.980
308,43994.990000,217.452,-116.181,-34.864,499.039,152.081,-91.082,1922.960,947.510,1286.980
309,43995.25000,260.942,-0.503,-85.665,507.482,123.212,-83.860,1518.960,856.510,1161.980
310,43995.61000,218.440,86.004,-58.770,514.155,109.125,-65.526,-847.040,407.510,548.980
311,43995.106000,204.602,107.128,-20.918,518.970,105.440,-58.733,-418.040,182.510,123.980
312,43995.148000,234.255,-10.562,-154.397,515.157,111.227,-58.613,645.960,-8.490,-176.020
313,43995.180000,347.923,-22.633,1.992,513.167,108.037,-70.456,292.960,-305.490,-313.020
314,43995.222000,291.583,53.815,-24.903,506.634,134.918,-80.660,-942.040,-641.490,-807.020
315,43995.264000,206.579,-13.580,-119.533,502.829,143.424,-89.305,91.960,-344.490,-640.020
316,43995.284000,147.274,-70.916,-142.444,500.030,154.075,-89.075,-769.040,-132.490,-192.020
317,43995.330000,274.780,-39.733,-52.794,493.298,157.029,-84.120,-678.040,-12.490,-94.020
318,43995.369000,275.768,12.574,-63.751,495.294,163.801,-85.927,-234.040,-4.490,-241.020
319,43995.403000,249.081,-10.562,-101.603,496.395,175.655,-76.835,-324.040,227.510,-187.020
320,43995.444000,248.093,-28.668,-90.646,493.557,179.769,-64.982,-403.040,377.510,-172.020
321,43995.484000,247.104,-23.639,-65.743,495.566,184.017,-49.193,-232.040,551.510,-171.020
322,43995.524000,238.208,-21.627,-57.774,491.741,185.295,-33.482,-190.040,591.510,-204.020
323,43995.571000,241.174,-9.556,-33.868,496.627,188.449,-24.576,-118.040,532.510,-271.020
324,43995.611000,254.023,12.574,-26.895,488.034,197.382,-11.647,-309.040,354.510,-298.020
325,43995.625000,246.116,-17.603,-3.984,487.170,206.283,-3.606,-372.040,124.510,-385.020
326,43995.663000,245.127,4.527,-53.790,481.480,217.898,-2.380,-268.040,12.510,-442.020
327,43995.702000,265.884,24.644,-31.875,476.800,232.565,4.801,-279.040,71.510,-485.020
328,43995.742000,271.815,39.733,-91.642,471.060,236.651,16.647,-207.040,396.510,-570.020
329,43995.785000,260.942,31.686,-96.623,462.580,255.465,37.641,-416.040,859.510,-554.020
330,43995.822000,275.768,39.733,-85.665,454.004,262.802,66.225,-898.040,1421.510,-481.020
331,43995.864000,248.093,-82.986,-137.463,443.491,266.582,110.416,-884.040,1408.510,-408.020
332,43995.911000,222.394,-15.591,-348.638,432.976,277.373,120.440,212.960,-490.490,-599.020
333,43995.926000,261.931,83.992,-463.191,430.960,275.693,89.018,-1842.040,-2711.490,-481.020
334,43995.963000,333.097,-51.804,-307.798,418.393,286.229,44.115,-2079.040,-4258.490,-1253.020
335,43996.5000,229.313,-13.580,-161.370,402.959,305.884,-26.089,-563.040,-4187.490,-1137.020
336,43996.41000,200.649,9.556,-68.732,391.433,325.059,-75.702,629.960,-3631.490,-670.020
337,43996.104000,222.394,-27.662,-11.953,370.879,314.656,-142.661,1048.960,-2520.490,294.980
338,43996.144000,255.012,-40.739,10.957,362.767,285.477,-186.475,1365.960,-1464.490,876.980
339,43996.187000,311.351,-4.527,27.891,369.163,251.994,-211.721,1481.960,-170.490,1390.980
340,43996.296000,368.680,95.057,42.833,387.296,225.140,-205.414,352.960,530.510,1582.980
341,43996.314000,373.622,98.075,80.685,407.550,213.299,-179.157,-1419.040,689.510,1360.980
342,43996.334000,267.861,145.352,-24.903,423.844,190.871,-147.258,-951.040,1013.510,1212.980
343,43996.343000,206.579,126.240,-417.370,425.763,185.452,-129.723,175.960,1061.510,540.980
344,43996.372000,184.834,91.033,-102.599,431.419,169.112,-125.170,1405.960,554.510,117.980
345,43996.389000,287.629,9.556,-155.393,432.423,170.351,-113.372,374.960,587.510,256.980
346,43996.421000,279.722,36.715,-86.661,443.017,163.832,-105.650,297.960,440.510,303.980
347,43996.462000,205.591,-5.532,-143.440,442.931,153.325,-98.038,201.960,406.510,336.980
348,43996.502000,237.220,-56.833,-109.572,446.736,144.819,-89.392,7.960,434.510,363.980
349,43996.548000,269.838,-6.538,-67.735,450.594,142.979,-86.483,102.960,227.510,214.980
350,43996.587000,241.174,-15.591,-99.611,450.580,141.965,-88.467,25.960,-205.490,9.980
351,43996.605000,209.544,5.532,-156.389,447.701,144.807,-90.371,68.960,-237.490,6.980
352,43996.644000,195.707,1.509,-150.412,445.724,140.861,-92.424,-215.040,-81.490,200.980
353,43996.686000,202.625,-37.721,-122.521,449.509,132.161,-92.610,-280.040,-120.490,266.980
354,43996.731000,211.521,-46.774,-113.556,447.568,132.962,-99.461,-156.040,-350.490,170.980
355,43996.764000,215.475,-33.697,-135.471,446.557,130.774,-110.299,-5.040,-427.490,126.980
356,43996.810000,223.382,-32.692,-148.420,446.473,123.805,-118.299,0.960,-379.490,142.980
357,43996.849000,257.977,-11.568,-136.467,448.427,126.650,-122.154,51.960,-313.490,158.980
358,43996.886000,305.421,5.532,-101.603,448.291,113.899,-128.321,-95.040,-278.490,140.980
359,43996.921000,360.772,37.721,-58.770,446.378,117.613,-135.108,-852.040,-536.490,186.980
360,43996.966000,363.737,95.057,5.977,443.569,129.041,-143.686,-1516.040,-836.490,68.980
361,43997.32000,380.541,81.980,11.953,440.739,141.160,-164.997,-1998.040,-1262.490,-255.020
362,43997.85000,408.216,59.851,-234.086,422.445,157.658,-200.954,-340.040,-1871.490,-1016.020
363,43997.101000,327.166,197.658,-73.712,402.156,164.774,-221.433,-1380.040,-1480.490,-984.020
364,43997.189000,150.239,-17.603,67.735,398.806,215.501,-207.565,-3430.040,-97.490,-1188.020
365,43997.205000,126.517,24.644,62.755,403.174,258.171,-166.402,-1238.040,2054.510,-1055.020
366,43997.257000,128.494,-9.556,-48.809,416.050,276.135,-105.175,-457.040,3223.510,-540.020
367,43997.274000,159.135,50.798,-127.502,424.984,283.685,-30.458,770.960,4192.510,-283.020
368,43997.282000,281.699,17.603,-216.156,420.328,288.017,36.313,1179.960,4281.510,-313.020
369,43997.299000,295.537,-69.910,-291.860,411.883,306.292,76.908,1682.960,3620.510,-97.020
370,43997.326000,285.652,42.750,-207.191,406.155,312.255,85.854,2373.960,2657.510,-113.020
371,43997.366000,246.116,-94.051,-131.486,396.725,334.749,98.102,1717.960,2133.510,-282.020
372,43997.409000,226.347,-79.969,-162.366,394.953,353.026,91.639,2836.960,2159.510,-73.020
373,43997.451000,227.336,-105.116,-192.249,398.770,349.029,84.694,2282.960,1636.510,523.980
374,43997.485000,156.170,106.122,-244.047,412.301,346.399,91.528,-841.040,-12.490,611.980
375,43997.525000,443.799,-69.910,257.992,419.004,346.681,57.226,931.960,-1022.490,-80.020
376,43997.566000,282.687,2.515,-90.646,437.185,334.369,18.745,364.960,-1542.490,425.980
377,43997.586000,263.907,111.151,-182.288,440.984,331.969,-3.856,51.960,-1321.490,405.980
378,43997.622000,264.896,5.532,-67.735,446.610,319.749,-32.554,618.960,-787.490,480.980
379,43997.664000,239.197,65.886,-99.611,449.329,305.689,-55.416,922.960,-430.490,586.980
380,43997.704000,238.208,121.210,-96.623,460.794,294.735,-73.287,457.960,-304.490,472.980
381,43997.744000,252.046,11.568,-70.724,466.450,282.796,-89.230,1032.960,-125.490,401.980
382,43997.784000,247.104,42.750,-64.747,468.239,269.093,-95.415,391.960,-88.490,344.980
383,43997.824000,246.116,-7.544,-28.887,468.209,267.928,-104.267,418.960,-205.490,195.980
384,43997.865000,243.151,20.621,-45.821,468.104,258.996,-113.291,383.960,-354.490,110.980
385,43997.885000,236.232,18.609,-82.677,469.050,260.559,-130.906,417.960,-404.490,73.980
386,43997.929000,249.081,19.615,-81.681,470.937,258.356,-143.700,416.960,-341.490,59.980
387,43997.966000,236.232,39.733,-85.665,465.003,246.498,-150.840,283.960,-278.490,95.980
388,43998.6000,247.104,9.556,-83.673,466.921,247.229,-162.588,371.960,-242.490,140.980
389,43998.47000,246.116,27.662,-86.661,470.711,241.226,-172.520,300.960,-160.490,172.980
390,43998.90000,230.301,19.615,-95.626,468.687,232.426,-174.681,260.960,-143.490,234.980
391,43998.130000,232.278,0.503,-77.696,473.452,225.612,-177.764,185.960,-181.490,240.980
392,43998.164000,240.185,3.521,-92.638,474.403,225.471,-184.630,164.960,-253.490,183.980
393,43998.205000,233.266,-18.609,-106.584,473.225,205.828,-194.875,225.960,-143.490,148.980
394,43998.232000,252.046,2.515,-81.681,471.363,213.555,-195.688,-27.040,-119.490,139.980
395,43998.266000,312.340,-48.786,-49.805,469.419,213.450,-199.617,-39.040,-265.490,-3.020
396,43998.312000,391.413,-117.187,-64.747,469.540,226.049,-200.318,-1203.040,-520.490,-103.020
397,43998.346000,123.552,-80.974,-191.253,465.801,238.719,-196.122,-1891.040,-606.490,-14.020
398,43998.384000,110.703,-115.175,-168.342,467.786,240.097,-178.435,-1813.040,-176.490,688.980
399,43998.464000,161.112,-54.821,-59.767,482.968,208.339,-173.224,1906.960,580.510,1375.980
400,43998.497000,247.104,119.198,-130.490,502.854,163.036,-168.303,2429.960,1052.510,1171.980
401,43998.546000,287.629,223.811,-126.506,510.446,144.082,-151.056,-334.040,649.510,482.980
402,43998.554000,277.745,45.768,25.899,509.475,142.282,-144.234,-324.040,131.510,-154.020
403,43998.570000,255.012,-51.804,-109.572,506.495,134.465,-145.394,2005.960,253.510,-248.020
404,43998.607000,219.429,0.503,-89.650,502.727,145.970,-150.050,-83.040,-90.490,-419.020
405,43998.647000,293.560,16.597,-57.774,499.015,161.531,-146.770,-145.040,-65.490,-390.020
406,43998.686000,227.336,-28.668,-94.630,497.170,171.177,-148.521,82.960,16.510,-338.020
407,43998.731000,238.208,-8.550,-78.693,498.193,176.127,-144.487,-236.040,132.510,-202.020
408,43998.765000,267.861,-6.538,-52.794,495.342,180.112,-138.520,-230.040,143.510,-137.020
409,43998.805000,250.069,-19.615,-87.658,494.478,189.898,-134.382,-152.040,111.510,-243.020
410,43998.844000,244.139,-11.568,-85.665,496.410,188.126,-127.553,-340.040,223.510,-221.020
411,43998.864000,253.035,-1.509,-83.673,495.604,202.873,-118.401,-210.040,334.510,-212.020
412,43998.906000,232.278,-15.591,-76.700,492.738,204.075,-106.613,-160.040,442.510,-181.020
413,43998.952000,239.197,-14.585,-65.743,493.735,205.249,-97.759,85.960,414.510,-263.020
414,43998.985000,239.197,10.562,-55.782,490.029,219.990,-87.633,161.960,490.510,-334.020
415,43999.26000,244.139,-3.521,-36.856,490.144,229.893,-78.587,-58.040,408.510,-371.020
416,43999.67000,255.012,8.550,-40.840,486.368,237.795,-70.574,-53.040,321.510,-422.020
417,43999.105000,251.058,5.532,-21.914,477.731,244.549,-68.481,-57.040,251.510,-500.020
418,43999.145000,244.139,11.568,-32.872,476.954,262.209,-59.265,-121.040,72.510,-643.020
419,43999.185000,258.965,52.809,-61.759,462.531,270.849,-57.142,-216.040,45.510,-702.020
420,43999.205000,294.548,37.721,-66.739,457.919,291.449,-44.927,-787.040,370.510,-576.020
421,43999.251000,256.988,36.715,-98.615,453.253,301.843,-11.363,-1060.040,638.510,-439.020
422,43999.285000,252.046,18.609,-116.545,443.697,310.811,3.526,-264.040,460.510,-560.020
423,43999.327000,260.942,78.963,-222.132,431.239,319.749,18.408,-909.040,-65.490,-396.020
424,43999.367000,217.452,18.609,-350.630,428.379,323.648,20.450,-2168.040,-1691.490,-331.020
425,43999.415000,228.324,-50.798,-265.961,412.983,333.982,11.821,-1946.040,-2579.490,-519.020
426,43999.449000,224.371,-22.633,-196.233,396.483,334.189,-15.668,-1203.040,-2915.490,-371.020
427,43999.489000,218.440,-50.798,-162.366,386.824,342.164,-45.912,-935.040,-2854.490,-96.020
428,43999.542000,229.313,-52.809,-153.401,378.883,328.712,-80.550,-582.040,-2675.490,246.980
429,43999.573000,237.220,-53.815,-130.490,378.781,325.972,-116.896,-152.040,-2335.490,763.980
430,43999.589000,253.035,-68.904,-90.646,380.390,300.857,-156.676,578.960,-1895.490,1058.980
431,43999.696000,291.583,-58.845,-49.805,378.199,279.889,-182.644,1664.960,-1048.490,1298.980
432,43999.735000,329.143,94.051,-12.949,386.484,242.477,-210.915,756.960,-555.490,1498.980
433,43999.805000,361.761,122.216,46.817,395.904,215.473,-207.572,-1041.040,-233.490,1558.980
434,44000.0,279.722,142.334,94.630,408.385,203.233,-196.049,-587.040,128.510,1205.980
435,44000.29000,244.139,164.464,117.541,422.826,191.250,-173.730,141.960,1311.510,444.980
436,44000.29000,208.556,210.735,-352.623,428.680,192.665,-156.034,397.960,978.510,-56.020
437,44000.53000,80.062,12.574,-97.619,433.355,176.186,-157.371,1010.960,538.510,7.980
438,44000.53000,230.301,-66.892,-179.300,434.313,174.340,-153.487,1288.960,837.510,133.980
439,44000.53000,262.919,-6.538,-112.560,436.150,161.975,-142.970,1016.960,839.510,69.980
440,44000.53000,310.363,-12.574,-53.790,439.108,166.059,-135.028,828.960,516.510,5.980
441,44000.53000,280.710,-10.562,-112.560,440.038,163.070,-139.015,1188.960,320.510,-414.020
442,44000.66000,249.081,-2.515,-149.416,438.077,160.160,-138.103,1178.960,320.510,-507.020
443,44000.96000,231.290,53.815,-161.370,437.182,166.127,-131.108,639.960,509.510,-252.020
444,44000.125000,218.440,26.656,-122.521,441.116,170.307,-119.239,-35.040,562.510,56.980
445,44000.169000,210.533,-2.515,-115.549,442.970,160.746,-113.563,-133.040,454.510,175.980
446,44000.207000,240.185,-33.697,-89.650,450.801,167.855,-102.602,-273.040,245.510,234.980
447,44000.300000,220.417,-19.615,-92.638,452.669,160.193,-98.845,-468.040,58.510,330.980
448,44000.315000,222.394,-12.574,-107.580,452.626,154.498,-93.088,-645.040,10.510,286.980
449,44000.351000,224.371,0.503,-106.584,453.602,154.593,-89.161,-585.040,-60.490,277.980
450,44000.384000,225.359,-36.715,-104.591,454.511,148.756,-90.269,-515.040,-148.490,220.980
451,44000.399000,225.359,-18.609,-115.549,458.344,145.795,-94.250,-503.040,-248.490,193.980
452,44000.426000,227.336,-22.633,-104.591,459.328,147.724,-95.185,-479.040,-302.490,195.980
453,44000.466000,214.486,-32.692,-125.510,458.233,135.935,-101.333,-450.040,-364.490,202.980
454,44000.486000,206.579,-58.845,-132.482,453.385,135.780,-106.250,-195.040,-363.490,206.980
455,44000.532000,211.521,-45.768,-122.521,457.246,136.616,-114.069,-241.040,-360.490,238.980
456,44000.566000,217.452,-33.697,-138.459,457.155,128.698,-121.110,-162.040,-371.490,249.980
457,44000.607000,237.220,-29.674,-126.506,457.007,114.955,-128.279,-239.040,-310.490,249.980
458,44000.776000,307.398,15.591,-103.595,455.110,118.820,-128.198,-600.040,-392.490,185.980
459,44000.810000,330.131,77.957,-76.700,452.206,120.539,-136.992,-1284.040,-583.490,78.980
460,44000.842000,338.039,1.509,2.988,451.365,134.942,-143.538,-1160.040,-648.490,-5.020
461,44000.872000,312.340,6.538,-143.440,445.652,148.089,-160.910,-287.040,-983.490,-821.020
462,44000.872000,269.838,146.358,-279.907,431.151,155.974,-193.128,-20.040,-1581.490,-872.020
463,44000.905000,375.598,176.534,-5.977,412.304,208.147,-194.952,-3539.040,-1310.490,-990.020
464,44000.930000,272.803,-107.128,117.541,410.949,259.476,-154.589,-3103.040,363.510,-1177.020
465,44000.946000,240.185,-42.750,68.732,405.370,276.550,-125.782,-563.040,2019.510,-960.020
466,44000.961000,232.278,-106.122,-49.805,418.089,282.432,-84.437,2244.960,3508.510,-403.020
467,44000.990000,265.884,-63.874,-142.444,425.924,282.551,-38.327,2320.960,3998.510,-149.020
468,44001.19000,299.490,-12.574,-170.335,432.771,279.812,10.660,1584.960,3938.510,73.980
469,44001.60000,309.375,-19.615,-183.284,433.909,285.862,64.733,1171.960,3660.510,315.980
470,44001.100000,341.992,-76.951,-223.128,442.685,284.846,102.975,2332.960,3163.510,376.980
471,44001.140000,262.919,-15.591,-253.012,442.816,296.669,111.083,3206.960,2410.510,104.980
472,44001.180000,218.440,25.650,-166.350,443.936,310.465,120.217,2206.960,1636.510,-27.020
473,44001.220000,194.718,-41.745,-156.389,444.908,311.402,118.279,1050.960,574.510,-37.020
474,44001.260000,203.614,-6.538,-167.346,452.700,318.144,112.561,627.960,-136.490,204.980
475,44001.300000,304.432,58.845,94.630,465.142,307.285,98.617,-724.040,-955.490,353.980
476,44001.320000,325.189,-14.585,-30.879,480.489,298.245,77.855,-223.040,-938.490,449.980
477,44001.360000,266.873,109.139,-119.533,498.548,271.564,47.881,-121.040,-1351.490,788.980
478,44001.400000,229.313,-34.703,-77.696,515.826,262.500,25.161,-76.040,-891.490,896.980
479,44001.440000,285.652,-4.527,-54.786,521.394,240.917,11.945,245.960,-775.490,537.980
480,44001.480000,271.815,9.556,-63.751,526.163,238.548,-9.672,449.960,-627.490,339.980
481,44001.521000,253.035,28.668,-42.833,531.785,223.653,-27.643,342.960,-385.490,283.980
482,44001.559000,256.000,6.538,-37.852,532.688,219.520,-39.501,403.960,-302.490,301.980
483,44001.597000,249.081,-1.509,-17.930,532.548,207.611,-51.533,253.960,-332.490,294.980
484,44001.617000,257.977,-34.703,-18.926,535.412,206.388,-64.303,546.960,-420.490,183.980
485,44001.657000,244.139,13.580,-31.875,534.342,199.237,-80.155,367.960,-478.490,138.980
486,44001.697000,244.139,-11.568,-57.774,538.140,194.183,-91.046,89.960,-528.490,286.980
487,44001.736000,260.942,26.656,-51.798,538.991,185.153,-104.974,-28.040,-540.490,346.980
488,44001.782000,239.197,-56.833,-61.759,541.702,169.259,-122.973,276.960,-568.490,247.980
489,44001.822000,238.208,-42.750,-92.638,538.738,165.995,-137.762,215.960,-551.490,186.980
490,44001.859000,233.266,0.503,-78.693,541.607,165.700,-152.472,235.960,-447.490,133.980
491,44001.897000,247.104,-20.621,-78.693,540.567,160.599,-163.375,201.960,-453.490,178.980
492,44001.965000,243.151,4.527,-104.591,536.588,150.701,-170.467,191.960,-247.490,261.980
493,44001.971000,253.035,-9.556,-109.572,535.541,143.766,-176.508,216.960,-64.490,231.980
494,44001.999000,256.000,-18.609,-77.696,537.388,134.141,-173.775,176.960,139.510,291.980
495,44002.40000,280.710,-27.662,-69.728,542.194,130.370,-170.907,113.960,128.510,155.980
496,44002.80000,293.560,-41.745,-39.844,543.173,131.372,-169.902,238.960,33.510,-107.020
497,44002.121000,215.475,-30.680,-133.479,535.512,139.969,-172.669,108.960,-156.490,-392.020
498,44002.167000,231.290,-79.969,-100.607,532.580,139.661,-185.431,862.960,-216.490,-505.020
499,44002.201000,174.950,-86.004,-132.482,529.740,146.385,-187.249,-193.040,-142.490,-218.020
500,44002.251000,150.239,-148.369,-74.708,531.709,148.497,-180.333,73.960,230.510,259.980
501,44002.290000,191.753,-103.104,-65.743,540.278,131.408,-166.965,685.960,656.510,761.980
502,44002.300000,244.139,-8.550,-84.669,547.836,109.499,-151.745,762.960,623.510,618.980
503,44002.339000,257.977,10.562,-94.630,550.615,95.137,-144.213,-7.040,134.510,329.980
504,44002.380000,248.093,-12.574,6.973,544.875,102.739,-148.959,122.960,-175.490,-202.020
505,44002.427000,256.988,-81.980,31.875,549.576,89.151,-151.212,682.960,23.510,-124.020
506,44002.461000,256.000,58.845,-140.451,545.843,104.518,-156.763,18.960,-177.490,-343.020
507,44002.501000,256.000,-45.768,-38.848,545.034,121.876,-161.283,-398.040,-251.490,-514.020
508,44002.549000,247.104,-42.750,-85.665,541.189,125.592,-167.092,152.960,-124.490,-473.020
509,44002.581000,239.197,-23.639,-115.549,535.523,139.192,-163.861,-3.040,125.510,-358.020
510,44002.602000,265.884,50.798,-48.809,535.588,145.104,-159.807,-379.040,169.510,-167.020
511,44002.637000,243.151,-31.686,-84.669,537.642,155.069,-148.794,-397.040,124.510,-41.020
512,44002.677000,246.116,-13.580,-77.696,537.682,158.089,-143.823,-652.040,230.510,-102.020
513,44002.729000,244.139,-40.739,-74.708,539.736,168.054,-132.811,-496.040,290.510,-156.020
514,44002.760000,247.104,-27.662,-74.708,536.879,170.226,-121.000,-434.040,363.510,-219.020
515,44002.804000,246.116,-41.745,-53.790,537.047,184.163,-105.000,-403.040,409.510,-245.020
516,44002.839000,243.151,-44.762,-29.883,537.138,192.081,-97.960,-19.040,377.510,-329.020
517,44002.879000,246.116,-11.568,-51.798,531.471,203.028,-83.019,163.960,292.510,-396.020
518,44002.919000,249.081,14.585,-41.837,527.646,207.823,-83.901,44.960,225.510,-464.020
519,44002.939000,244.139,7.544,-33.868,524.812,213.728,-78.872,-67.040,110.510,-463.020
520,44002.986000,240.185,-12.574,-46.817,520.059,222.418,-78.690,-52.040,44.510,-566.020
521,44003.21000,246.116,16.597,-27.891,509.637,245.551,-81.140,-54.040,-75.490,-651.020
522,44003.61000,256.988,16.597,-44.825,501.135,265.919,-77.764,-93.040,-101.490,-707.020
523,44003.99000,251.058,43.756,-70.724,494.530,283.307,-78.373,-4.040,59.510,-803.020
524,44003.139000,269.838,59.851,-89.650,477.299,299.857,-68.235,-228.040,351.510,-749.020
525,44003.187000,271.815,45.768,-69.728,476.571,317.992,-37.433,-697.040,963.510,-559.020
526,44003.224000,252.046,48.786,-77.696,467.049,328.167,-11.730,-772.040,1120.510,-551.020
527,44003.244000,264.896,7.544,-121.525,457.611,345.311,21.973,-396.040,888.510,-487.020
528,44003.296000,257.977,69.910,-179.300,441.218,347.416,36.695,-1026.040,-63.490,-397.020
529,44003.324000,226.347,-11.568,-317.759,429.573,344.326,33.660,-2286.040,-1734.490,-242.020
530,44003.369000,260.942,-40.739,-244.047,413.198,356.290,11.336,-1699.040,-2771.490,-580.020
531,44003.404000,238.208,-16.597,-174.319,392.918,367.894,-25.715,-731.040,-2996.490,-519.020
532,44003.444000,224.371,-38.727,-134.475,377.346,364.205,-54.269,-489.040,-2940.490,-179.020
533,44003.484000,228.324,-32.692,-112.560,361.779,362.328,-88.666,-120.040,-2593.490,277.980
534,44003.524000,240.185,-21.627,-92.638,357.695,347.038,-120.395,146.960,-2035.490,707.980
535,44003.569000,274.780,-23.639,-76.700,355.546,329.996,-144.314,282.960,-1586.490,970.980
536,44003.590000,313.328,-9.556,-38.848,366.867,307.089,-176.180,1212.960,-978.490,1229.980
537,44003.621000,334.085,-1.509,-13.946,375.185,272.633,-202.424,1292.960,-654.490,1371.980
538,44003.669000,327.166,69.910,-17.930,384.508,239.416,-216.871,168.960,-436.490,1446.980
539,44003.739000,268.849,105.116,32.872,392.127,226.892,-216.153,-703.040,-223.490,1526.980
540,44004.61000,258.965,117.187,54.786,402.579,205.809,-208.753,-128.040,239.510,1171.980
541,44004.79000,235.243,135.293,73.712,417.949,191.699,-195.305,995.960,1248.510,455.980
542,44004.99000,62.270,318.365,-492.078,426.617,185.246,-183.662,625.960,824.510,18.980
543,44004.178000,-49.421,55.827,-149.416,429.399,173.560,-186.857,1091.960,218.510,-212.020
544,44004.179000,438.857,-122.216,-75.704,426.215,146.175,-195.317,2318.960,440.510,45.980
545,44004.179000,400.309,114.169,-28.887,424.288,148.874,-204.087,-387.040,-407.490,-2.020
546,44004.179000,239.197,37.721,-197.230,419.463,151.589,-210.902,431.960,-450.490,-200.020
547,44004.179000,192.741,-24.644,-222.132,421.426,154.520,-210.833,-615.040,117.510,189.980
548,44004.179000,200.649,9.556,-170.335,423.384,154.755,-201.017,-518.040,387.510,226.980
549,44004.179000,231.290,4.527,-139.455,430.105,147.291,-190.381,-547.040,374.510,282.980
550,44004.212000,186.811,-39.733,-161.370,434.096,156.412,-174.479,-780.040,415.510,286.980
551,44004.261000,209.544,-49.792,-127.502,441.838,153.876,-160.790,-487.040,472.510,281.980
552,44004.277000,197.683,-45.768,-130.490,446.677,152.176,-151.992,-356.040,304.510,185.980
553,44004.285000,195.707,-30.680,-132.482,448.656,155.258,-145.054,-409.040,203.510,238.980
554,44004.293000,194.718,-40.739,-125.510,448.519,140.739,-143.416,-294.040,20.510,270.980
555,44004.309000,183.846,-57.839,-151.409,449.465,138.785,-144.438,-300.040,-106.490,233.980
556,44004.351000,195.707,-48.786,-156.389,450.447,140.693,-146.355,-383.040,-262.490,330.980
557,44004.371000,228.324,-48.786,-123.518,450.374,133.832,-149.449,-208.040,-265.490,282.980
558,44004.422000,255.012,-27.662,-116.545,450.326,130.725,-158.344,114.960,-289.490,115.980
559,44004.451000,268.849,-29.674,-109.572,452.256,130.701,-160.302,122.960,-325.490,12.980
560,44004.559000,311.351,-6.538,-90.646,446.339,120.763,-168.380,-57.040,-492.490,-30.020
561,44004.739000,341.992,4.527,-71.720,442.485,125.278,-182.017,-387.040,-738.490,22.980
562,44004.754000,365.714,53.815,-27.891,432.825,130.599,-200.552,-843.040,-1174.490,30.980
563,44004.799000,406.239,-7.544,-98.615,417.453,148.204,-231.575,-1664.040,-1939.490,21.980
564,44004.799000,355.830,195.646,-373.541,385.661,169.425,-267.455,-1799.040,-2591.490,-263.020
565,44004.799000,214.486,142.334,-6.973,364.006,230.394,-265.167,-3654.040,-1288.490,-996.020
566,44004.799000,129.483,18.609,67.735,358.658,272.581,-241.687,-3522.040,63.510,-1262.020
567,44004.799000,127.506,-18.609,-6.973,359.188,317.284,-194.602,-659.040,2187.510,-1121.020
568,44004.814000,148.263,-44.762,-27.891,374.831,326.927,-160.032,1088.960,3348.510,-703.020
569,44004.857000,177.915,-53.815,-125.510,393.279,325.100,-118.846,1720.960,4227.510,-392.020
570,44004.876000,254.023,-36.715,-172.327,411.819,330.327,-65.735,1080.960,4267.510,-173.020
571,44004.917000,290.595,-43.756,-194.241,428.382,330.724,-10.774,1357.960,4058.510,-16.020
572,44004.952000,337.050,-36.715,-203.206,444.929,330.971,37.318,1752.960,3867.510,205.980
573,44004.992000,318.270,-36.715,-207.191,453.695,331.616,62.848,2211.960,3263.510,320.980
574,44005.32000,263.907,-41.745,-197.230,461.464,329.340,88.311,2288.960,2328.510,376.980
575,44005.54000,231.290,6.538,-202.210,469.172,322.943,102.895,1641.960,1536.510,549.980
576,44005.90000,173.961,-80.974,-227.113,475.945,321.261,111.698,-259.040,-15.490,453.980
577,44005.130000,212.510,35.709,-111.564,494.184,308.625,102.630,-643.040,-937.490,361.980
578,44005.170000,304.432,24.644,163.362,504.757,306.312,81.027,-19.040,-835.490,72.980
579,44005.210000,315.305,119.198,-79.689,520.047,294.964,43.542,1005.960,-1266.490,614.980
580,44005.250000,255.012,-22.633,-139.455,522.756,278.164,28.465,-343.040,-1005.490,691.980
581,44005.292000,264.896,32.692,-53.790,536.132,265.244,8.593,68.960,-668.490,552.980
582,44005.332000,254.023,30.680,-44.825,546.564,248.368,-13.334,462.960,-465.490,589.980
583,44005.352000,259.954,29.674,-52.794,553.097,225.888,-23.626,130.960,-359.490,525.980
584,44005.399000,257.977,21.627,-43.829,553.015,218.941,-30.645,22.960,-244.490,452.980
585,44005.434000,257.977,5.532,-26.895,560.664,211.099,-37.668,138.960,-209.490,449.980
586,44005.480000,242.162,-9.556,-26.895,562.505,202.294,-41.782,12.960,-269.490,394.980
587,44005.512000,248.093,-16.597,-41.837,566.293,196.269,-52.695,99.960,-455.490,225.980
588,44005.552000,247.104,-3.521,-62.755,565.212,187.241,-65.646,191.960,-473.490,187.980
589,44005.592000,247.104,5.532,-63.751,567.991,178.165,-82.513,242.960,-415.490,184.980
590,44005.632000,247.104,8.550,-59.767,566.010,175.946,-94.334,176.960,-396.490,198.980
591,44005.676000,251.058,-14.585,-61.759,567.869,170.830,-107.192,239.960,-391.490,159.980
592,44005.696000,240.185,-30.680,-59.767,568.752,163.871,-115.190,350.960,-375.490,120.980
593,44005.736000,242.162,-18.609,-73.712,566.762,160.680,-127.033,500.960,-415.490,8.980
594,44005.774000,238.208,-35.709,-82.677,561.851,156.405,-142.829,375.960,-346.490,39.980
595,44005.811000,239.197,-5.532,-80.685,559.818,148.403,-152.818,375.960,-288.490,-5.020
596,44005.857000,232.278,11.568,-90.646,561.752,150.170,-161.600,221.960,-259.490,147.980
597,44005.891000,248.093,-2.515,-80.685,560.712,143.300,-164.697,247.960,-208.490,221.980
598,44005.932000,242.162,-11.568,-96.623,564.424,128.623,-171.880,61.960,-126.490,276.980
599,44005.972000,255.012,-38.727,-86.661,563.417,124.709,-172.949,133.960,-63.490,247.980
600,44006.15000,275.768,-94.051,-64.747,564.338,120.749,-176.958,375.960,-98.490,-6.020
601,44006.35000,276.757,-87.010,-114.553,561.440,121.648,-178.905,946.960,-30.490,-177.020
602,44006.71000,245.127,-37.721,-68.732,562.379,117.860,-175.065,-340.040,147.510,-75.020
603,44006.126000,194.718,-23.639,-109.572,563.536,135.539,-165.844,-836.040,-40.490,-130.020
604,44006.152000,170.996,-72.927,-144.436,566.382,128.858,-162.064,-409.040,38.510,395.980
605,44006.192000,193.730,-97.069,-51.798,568.076,102.793,-156.755,1405.960,486.510,873.980
606,44006.234000,217.452,-5.532,-54.786,579.422,73.089,-144.641,1767.960,719.510,752.980
607,44006.271000,230.301,57.839,-89.650,577.431,63.729,-128.182,445.960,467.510,303.980
608,44006.311000,187.799,-38.727,-45.821,580.307,59.981,-123.356,-185.040,43.510,44.980
609,44006.332000,252.046,-151.387,-21.914,583.212,60.916,-126.271,260.960,10.510,48.980
610,44006.372000,264.896,-108.134,-45.821,578.297,53.080,-127.436,-165.040,-155.490,-8.020
611,44006.412000,301.467,29.674,-26.895,576.562,76.988,-142.600,96.960,-613.490,-685.020
612,44006.452000,275.768,-13.580,-79.689,568.947,93.957,-161.852,281.960,-654.490,-714.020
613,44006.495000,185.822,-47.780,-135.471,565.149,103.412,-171.457,-152.040,-523.490,-638.020
614,44006.532000,238.208,-18.609,-102.599,558.533,121.577,-180.874,-88.040,-268.490,-475.020
615,44006.574000,241.174,-18.609,-92.638,554.692,125.336,-184.722,-489.040,-112.490,-282.020
616,44006.614000,247.104,-16.597,-103.595,552.877,137.032,-181.524,-337.040,-80.490,-253.020
617,44006.654000,250.069,-8.550,-118.537,553.028,151.681,-177.276,-477.040,141.510,-195.020
618,44006.674000,245.127,-22.633,-96.623,554.105,160.666,-166.287,-383.040,297.510,-237.020
619,44006.714000,245.127,-7.544,-96.623,553.207,164.842,-152.467,-329.040,346.510,-241.020
620,44006.754000,234.255,-18.609,-94.630,551.403,176.646,-144.363,-152.040,501.510,-243.020
621,44006.795000,248.093,-7.544,-71.720,552.385,175.037,-129.687,-142.040,541.510,-245.020
622,44006.831000,240.185,-14.585,-46.817,555.449,188.938,-116.623,-177.040,463.510,-293.020
623,44006.871000,238.208,-3.521,-49.805,549.824,204.696,-103.537,-138.040,318.510,-367.020
624,44006.912000,236.232,-8.550,-41.837,546.065,215.402,-100.365,-190.040,119.510,-473.020
625,44006.954000,247.104,-1.509,-35.860,538.438,226.977,-100.124,-143.040,0.510,-551.020
626,44006.974000,242.162,2.515,-55.782,528.445,-5.135,-105.297,-118.040,-188.490,-642.020
627,44007.15000,258.965,33.697,-59.767,526.100,252.032,-102.536,-157.040,-149.490,-705.020
628,44007.55000,252.046,58.845,-83.673,516.746,284.063,-97.922,-256.040,-45.490,-764.020
629,44007.95000,256.000,58.845,-101.603,508.208,300.569,-93.651,-411.040,224.510,-778.020
630,44007.135000,278.734,60.857,-95.626,497.745,313.626,-68.867,-604.040,559.510,-737.020
631,44007.180000,258.965,32.692,-87.658,485.456,334.754,-29.197,-1092.040,1210.510,-585.020
632,44007.256000,235.243,-20.621,-192.249,474.074,350.024,8.383,-566.040,1190.510,-512.020
633,44007.272000,221.405,25.650,-336.685,471.179,348.312,20.107,-1215.040,-302.490,-50.020
634,44007.300000,221.405,-47.780,-270.942,459.589,351.026,16.220,-1894.040,-1575.490,-4.020
635,44007.315000,253.035,-18.609,-198.226,442.101,349.260,-12.295,-1500.040,-2596.490,-201.020
636,44007.355000,243.151,-5.532,-161.370,418.837,353.003,-52.469,-841.040,-2794.490,-163.020
637,44007.406000,227.336,-6.538,-116.545,395.587,357.761,-90.658,-309.040,-2629.490,190.980
638,44007.457000,233.266,-16.597,-120.529,376.059,347.044,-128.202,-79.040,-2405.490,436.980
639,44007.511000,245.127,-18.609,-97.619,369.076,332.631,-162.860,759.960,-2088.490,789.980
640,44007.526000,266.873,-17.603,-88.654,363.034,313.567,-188.793,1242.960,-1494.490,975.980
641,44007.567000,299.490,-6.538,-63.751,365.544,280.781,-224.819,1732.960,-969.490,1013.980
642,44007.596000,320.247,78.963,-17.930,368.163,255.200,-242.053,485.960,-662.490,1174.980
643,44007.640000,297.514,121.210,92.638,378.652,239.748,-243.354,-723.040,-560.490,1405.980
644,44007.679000,251.058,127.246,210.179,392.112,228.510,-230.827,-935.040,402.510,1114.980
645,44007.695000,145.297,165.470,-125.510,408.513,218.551,-205.516,-733.040,969.510,914.980
646,44007.814000,263.907,152.393,-175.315,411.296,206.865,-208.711,973.960,284.510,442.980
647,44007.881000,370.656,35.709,-83.673,414.125,199.148,-207.896,-14.040,168.510,284.980
648,44007.911000,304.432,-8.550,-117.541,412.167,198.029,-213.809,981.960,83.510,-239.020
649,44008.22000,282.687,-4.527,-158.381,411.177,196.919,-219.720,168.960,-180.490,-250.020
650,44008.22000,253.035,42.750,-166.350,403.426,195.851,-220.740,194.960,-44.490,-227.020
651,44008.72000,203.614,-16.597,-186.272,403.381,191.903,-223.770,267.960,9.510,-183.020
652,44008.80000,194.718,-14.585,-176.311,405.411,202.515,-227.453,171.960,2.510,-95.020
653,44008.123000,198.672,30.680,-172.327,405.394,200.595,-226.515,254.960,121.510,53.980
654,44008.123000,193.730,7.544,-162.366,409.237,196.857,-221.686,-9.040,95.510,196.980
655,44008.139000,160.124,-32.692,-171.331,414.046,193.991,-221.740,-308.040,90.510,256.980
656,44008.146000,185.822,2.515,-142.444,414.959,187.313,-216.983,-258.040,66.510,296.980
657,44008.162000,174.950,-47.780,-164.358,415.891,183.460,-216.086,-199.040,-53.490,209.980
658,44008.195000,180.880,34.703,-165.354,422.698,186.503,-213.062,-222.040,-157.490,228.980
659,44008.239000,164.077,11.568,-177.307,422.609,177.722,-215.218,-532.040,-208.490,457.980
660,44008.299000,206.579,-19.615,-151.409,423.609,181.572,-217.092,-651.040,-293.490,483.980
661,44008.307000,247.104,-18.609,-132.482,422.559,172.847,-216.307,-583.040,-411.490,361.980
662,44008.336000,315.305,51.804,-106.584,418.697,174.643,-221.179,-580.040,-446.490,133.980
663,44008.376000,319.259,151.387,-64.747,418.849,191.061,-224.737,-1042.040,-401.490,-66.020
664,44008.495000,312.340,3.521,-158.381,409.227,197.634,-230.495,-156.040,-709.490,-399.020
665,44008.511000,338.039,-22.633,-200.218,389.923,207.564,-255.813,407.960,-1127.490,-924.020
666,44008.540000,250.069,61.862,-193.245,371.692,226.435,-272.103,-852.040,-1096.490,-675.020
667,44008.566000,237.220,65.886,-82.677,360.315,248.803,-264.766,-2811.040,-500.490,-797.020
668,44008.591000,159.135,11.568,15.938,354.152,302.997,-224.350,-2963.040,848.510,-561.020
669,44008.602000,171.985,30.680,-3.984,373.832,325.731,-169.867,-1675.040,1908.510,-115.020
670,44008.666000,192.741,18.609,-54.786,400.013,322.167,-122.820,-97.040,2870.510,306.980
671,44008.716000,228.324,10.562,-109.572,427.081,311.665,-82.789,1348.960,3422.510,402.980
672,44008.741000,260.942,14.585,-141.447,459.025,305.115,-41.679,1941.960,3747.510,375.980
673,44008.766000,269.838,-4.527,-163.362,482.304,299.753,13.168,2055.960,3656.510,227.980
674,44008.801000,303.444,-29.674,-208.187,489.040,290.671,38.478,2847.960,3470.510,-13.020
675,44008.842000,261.931,-15.591,-245.043,491.143,300.226,74.979,3116.960,2678.510,-231.020
676,44008.888000,210.533,-59.851,-273.930,487.413,311.213,90.906,2540.960,1758.510,-258.020
677,44008.925000,169.019,-13.580,-260.981,489.364,311.383,97.778,424.960,340.510,215.980
678,44008.943000,354.842,19.615,48.809,510.571,306.455,84.965,-622.040,-983.490,385.980
679,44008.981000,317.282,3.521,-58.770,520.038,289.592,64.017,65.960,-1122.490,657.980
680,44009.23000,247.104,212.747,-163.362,531.358,266.685,32.151,498.960,-1077.490,649.980
681,44009.61000,250.069,24.644,-94.630,542.889,260.757,22.237,220.960,-537.490,799.980
682,44009.103000,263.907,22.633,-42.833,554.249,237.354,11.935,-47.040,-378.490,786.980
683,44009.147000,261.931,-1.509,-74.708,562.811,223.717,5.766,-8.040,-172.490,598.980
684,44009.196000,250.069,30.680,-34.864,567.495,209.094,0.548,141.960,-2.490,522.980
685,44009.221000,241.174,-14.585,-36.856,574.095,190.778,3.098,19.960,-48.490,509.980
686,44009.263000,249.081,-0.503,-14.942,576.880,179.997,-3.020,8.960,-153.490,398.980
687,44009.285000,241.174,-10.562,-21.914,577.770,173.103,-8.074,102.960,-302.490,331.980
688,44009.322000,246.116,-20.621,-46.817,580.608,168.989,-19.928,424.960,-369.490,196.980
689,44009.361000,248.093,-9.556,-21.914,582.448,161.931,-32.829,177.960,-473.490,234.980
690,44009.404000,244.139,6.538,-51.798,586.194,152.864,-49.694,525.960,-467.490,228.980
691,44009.442000,241.174,-49.792,-67.735,584.129,142.792,-65.612,240.960,-495.490,245.980
692,44009.500000,243.151,-47.780,-76.700,582.144,140.529,-79.396,505.960,-441.490,76.980
693,44009.535000,238.208,-2.515,-91.642,583.054,137.346,-92.213,462.960,-364.490,111.980
694,44009.568000,239.197,-17.603,-93.634,583.895,125.575,-98.357,214.960,-242.490,227.980
695,44009.581000,249.081,5.532,-99.611,589.653,121.662,-102.354,299.960,-51.490,283.980
696,44009.632000,245.127,-18.609,-82.677,587.583,108.030,-103.642,301.960,133.510,340.980
697,44009.662000,245.127,-36.715,-77.696,591.422,103.364,-96.872,248.960,224.510,349.980
698,44009.715000,251.058,-40.739,-55.782,596.169,92.861,-91.212,210.960,277.510,286.980
699,44009.745000,263.907,-44.762,-55.782,600.991,90.125,-85.378,97.960,245.510,236.980
700,44009.783000,265.884,-91.033,-30.879,597.031,79.537,-79.737,25.960,186.510,56.980
701,44009.821000,260.942,-74.939,-44.825,594.216,89.153,-82.472,266.960,-174.490,-278.020
702,44009.863000,231.290,-65.886,-98.615,588.429,91.901,-87.326,574.960,-297.490,-427.020
703,44009.907000,212.510,-134.287,-135.471,582.722,104.228,-97.852,326.960,-387.490,-54.020
704,44009.925000,154.193,-95.057,-34.864,583.546,90.538,-103.058,545.960,50.510,560.980
705,44009.978000,205.591,-38.727,0.000,589.175,69.537,-89.783,521.960,603.510,619.980
706,44010.3000,219.429,52.809,-71.720,587.173,60.069,-78.229,349.960,378.510,53.980
707,44010.40000,228.324,-65.886,-45.821,585.389,76.468,-81.791,-18.040,-227.490,-366.020
708,44010.85000,264.896,-266.059,-15.938,587.268,71.546,-85.819,494.960,-148.490,60.980
709,44010.122000,273.792,-24.644,-83.673,589.267,79.224,-90.548,61.960,-312.490,-364.020
710,44010.165000,292.571,-24.644,-13.946,579.788,103.013,-107.692,-31.040,-619.490,-839.020
711,44010.202000,223.382,-28.668,-105.588,575.060,116.343,-117.213,94.960,-392.490,-620.020
712,44010.221000,243.151,-2.515,-83.673,568.442,132.717,-119.805,-521.040,-93.490,-370.020
713,44010.265000,263.907,27.662,-80.685,571.445,142.518,-116.639,-415.040,-33.490,-209.020
714,44010.308000,241.174,-12.574,-113.556,567.587,143.473,-115.646,-321.040,219.510,-67.020
715,44010.345000,249.081,-26.656,-91.642,573.508,152.569,-101.702,-447.040,454.510,-129.020
716,44010.382000,252.046,-28.668,-80.685,572.645,159.723,-84.874,-234.040,606.510,-255.020
717,44010.425000,240.185,-31.686,-49.805,573.643,159.150,-67.232,-195.040,563.510,-291.020
718,44010.462000,232.278,-28.668,-36.856,567.077,177.789,-55.065,40.960,595.510,-387.020
719,44010.503000,248.093,-5.532,-31.875,568.224,192.728,-38.059,-123.040,464.510,-415.020
720,44010.542000,245.127,-4.527,-11.953,561.581,204.463,-30.948,-46.040,321.510,-482.020
721,44010.561000,248.093,1.509,-27.891,557.831,217.025,-31.658,34.960,134.510,-578.020
722,44010.602000,249.081,0.503,-20.918,550.179,225.709,-30.501,-22.040,44.510,-669.020
723,44010.642000,248.093,-4.527,-16.934,537.781,244.033,-30.120,-43.040,-144.490,-805.020
724,44010.685000,257.977,24.644,-45.821,528.324,267.153,-33.549,-32.040,-213.490,-863.020
725,44010.726000,260.942,65.886,-68.732,517.959,296.111,-35.871,-205.040,28.510,-888.020
726,44010.756000,266.873,73.933,-65.743,502.662,311.796,-21.825,-522.040,317.510,-872.020
727,44010.796000,265.884,13.580,-83.673,492.206,326.686,-1.904,-1105.040,763.510,-650.020
728,44010.845000,262.919,-2.515,-105.588,482.689,336.020,29.665,-620.040,712.510,-572.020
729,44010.879000,298.502,37.721,-162.366,466.361,345.806,40.635,-685.040,83.510,-476.020
730,44010.901000,237.220,-33.697,-334.693,462.546,352.456,35.871,-2241.040,-1648.490,-102.020
731,44010.941000,259.954,-73.933,-271.938,450.950,360.391,4.641,-2089.040,-2557.490,-261.020
732,44010.981000,243.151,-46.774,-193.245,427.656,362.969,-44.383,-836.040,-3099.490,-208.020
733,44011.34000,215.475,-4.527,-157.385,397.617,368.373,-94.341,-642.040,-3146.490,89.980
734,44011.65000,211.521,-27.662,-112.560,381.059,363.618,-126.843,-142.040,-2860.490,524.980
735,44011.106000,219.429,6.538,-107.580,363.468,354.710,-171.207,538.960,-2372.490,822.980
736,44011.137000,252.046,38.727,-74.708,356.351,326.684,-207.148,731.960,-1659.490,1121.980
737,44011.177000,302.456,60.857,-59.767,356.094,303.965,-225.305,427.960,-1231.490,1283.980
738,44011.205000,315.305,74.939,-43.829,364.507,276.586,-238.644,2.960,-975.490,1301.980
739,44011.256000,300.479,123.222,-47.813,363.421,265.746,-245.751,-773.040,-970.490,1316.980
740,44011.284000,272.803,104.110,-38.848,365.282,258.019,-244.938,-889.040,-815.490,1117.980
741,44011.316000,209.544,123.222,1.992,371.998,253.145,-248.955,-42.040,-257.490,622.980
742,44011.359000,197.683,123.222,1.992,379.690,247.481,-245.142,83.960,307.510,460.980
743,44011.399000,103.784,169.493,-165.354,391.246,239.158,-231.573,-0.040,816.510,6.980
744,44011.460000,128.494,46.774,-228.109,392.166,232.544,-223.872,1086.960,807.510,-206.020
745,44011.545000,169.019,-75.945,-321.743,392.946,216.675,-239.913,2125.960,274.510,51.980
746,44011.587000,250.069,-78.963,-173.323,395.741,206.865,-246.009,703.960,12.510,72.980
747,44011.615000,297.514,102.098,-99.611,391.798,199.967,-249.113,479.960,-11.490,-78.020
748,44011.644000,298.502,37.721,-159.377,390.782,195.966,-254.107,799.960,106.510,-90.020
749,44011.659000,268.849,16.597,-156.389,391.643,185.274,-255.323,-100.040,77.510,67.980
750,44011.666000,216.463,-13.580,-170.335,395.569,190.253,-251.282,-21.040,96.510,23.980
751,44011.721000,169.019,-4.527,-185.276,397.537,193.227,-249.250,-103.040,161.510,76.980
752,44011.759000,170.996,-16.597,-167.346,399.459,190.484,-242.442,-221.040,179.510,176.980
753,44011.775000,179.892,-57.839,-167.346,403.333,190.565,-240.471,-44.040,121.510,154.980
754,44011.806000,231.290,-9.556,-165.354,402.300,182.875,-236.721,-15.040,50.510,97.980
755,44011.852000,260.942,15.591,-138.459,406.160,181.942,-236.734,-162.040,40.510,75.980
756,44011.886000,334.085,41.745,-70.724,408.189,190.785,-232.611,-745.040,-220.490,77.980
757,44011.926000,327.166,50.798,-54.786,403.467,203.294,-235.285,-869.040,-436.490,-99.020
758,44011.966000,301.467,25.650,-97.619,395.835,215.689,-241.891,-556.040,-802.490,-351.020
759,44011.986000,314.317,36.715,-228.109,380.330,217.933,-265.409,-239.040,-1191.490,-659.020
760,44012.32000,186.811,51.804,-273.930,369.781,230.170,-277.909,-164.040,-1029.490,-493.020
761,44012.66000,161.112,4.527,-66.739,354.577,256.427,-268.532,-2229.040,-386.490,-522.020
762,44012.115000,85.992,-4.527,-61.759,354.091,298.898,-234.248,-2736.040,326.510,-512.020
763,44012.147000,90.934,28.668,-59.767,366.909,315.417,-194.628,-1474.040,1410.510,-221.020
764,44012.187000,88.958,2.515,-166.350,390.267,322.267,-158.142,-465.040,1855.510,163.980
765,44012.227000,122.564,63.874,-119.533,418.132,296.931,-131.187,1013.960,2285.510,365.980
766,44012.267000,185.822,121.210,-96.623,433.684,299.541,-107.560,529.960,2376.510,257.980
767,44012.287000,258.965,103.104,-109.572,457.820,286.098,-67.601,993.960,2697.510,94.980
768,44012.327000,263.907,66.892,-108.576,470.517,289.133,-23.377,1279.960,2579.510,-21.020
769,44012.370000,259.954,38.727,-119.533,483.123,285.135,9.903,1937.960,2459.510,-124.020
770,44012.410000,261.931,13.580,-150.412,484.118,281.002,42.176,2303.960,2385.510,-139.020
771,44012.454000,278.734,-12.574,-134.475,481.323,285.525,72.671,1984.960,2154.510,17.980
772,44012.495000,249.081,-6.538,-204.202,482.290,280.249,97.072,463.960,1167.510,372.980
773,44012.534000,193.730,-17.603,-165.354,487.015,266.013,109.515,-687.040,394.510,462.980
774,44012.567000,208.556,27.662,-147.424,498.506,252.664,115.127,-817.040,-551.490,407.980
775,44012.587000,264.896,11.568,107.580,505.094,235.125,108.867,-570.040,-557.490,158.980
776,44012.665000,322.224,-94.051,35.860,514.650,226.158,93.978,493.960,-650.490,528.980
777,44012.683000,261.931,62.868,-37.852,522.241,215.122,74.136,4.960,-831.490,338.980
778,44012.707000,267.861,56.833,-75.704,526.997,209.992,59.322,39.960,-525.490,428.980
779,44012.752000,252.046,27.662,-55.782,529.780,199.189,52.224,271.960,-368.490,484.980
780,44012.799000,257.977,-12.574,-43.829,540.334,192.281,42.286,269.960,-320.490,424.980
781,44012.832000,258.965,-12.574,-60.763,542.129,180.391,30.258,248.960,-271.490,230.980
782,44012.867000,253.035,12.574,-49.805,544.975,175.479,26.232,427.960,-113.490,141.980
783,44012.907000,251.058,25.650,-37.852,542.993,171.490,22.217,412.960,-96.490,254.980
784,44012.927000,247.104,-29.674,-36.856,549.731,169.463,15.322,258.960,-170.490,261.980
785,44012.974000,246.116,1.509,-35.860,551.598,164.434,6.388,323.960,-244.490,173.980
786,44013.12000,248.093,-13.580,-47.813,552.484,157.496,-0.629,403.960,-253.490,159.980
787,44013.53000,251.058,22.633,-51.798,554.321,149.533,-10.608,-9.040,-257.490,257.980
788,44013.92000,248.093,-2.515,-38.848,555.194,140.718,-14.725,-79.040,-211.490,333.980
789,44013.127000,250.069,-43.756,-59.767,558.027,134.792,-20.734,216.960,-312.490,331.980
790,44013.168000,243.151,-37.721,-43.829,559.864,126.828,-30.714,173.960,-376.490,219.980
791,44013.208000,244.139,-14.585,-73.712,563.584,113.985,-42.759,363.960,-300.490,244.980
792,44013.228000,238.208,-40.739,-81.681,560.717,118.704,-47.564,65.960,-387.490,259.980
793,44013.274000,257.977,-12.574,-53.790,565.441,109.733,-60.501,-47.040,-443.490,194.980
794,44013.307000,326.178,45.768,-29.883,564.319,95.915,-70.617,-409.040,-435.490,281.980
795,44013.347000,317.282,-44.762,-35.860,561.382,94.679,-81.438,-1073.040,-725.490,213.980
796,44013.392000,170.996,-78.963,-167.346,560.424,99.157,-98.012,575.960,-521.490,-256.020
797,44013.428000,119.598,-15.591,-169.339,556.597,104.815,-103.778,724.960,-114.490,-155.020
798,44013.469000,171.985,-42.750,-168.342,556.505,96.013,-106.916,851.960,149.510,-67.020
799,44013.516000,221.405,-41.745,-121.525,560.370,94.238,-101.063,422.960,234.510,-3.020
800,44013.548000,227.336,-72.927,-83.673,563.317,98.215,-98.027,551.960,364.510,-16.020
801,44013.569000,251.058,-34.703,-77.696,567.209,98.468,-88.206,73.960,382.510,148.980
802,44013.608000,284.664,-59.851,-61.759,569.053,87.052,-78.649,-533.040,327.510,139.980
803,44013.649000,256.000,-81.980,-75.704,564.289,93.866,-75.566,-80.040,159.510,-22.020
804,44013.701000,235.243,-75.945,-97.619,565.345,101.772,-69.504,102.960,121.510,-117.020
805,44013.759000,215.475,-148.369,-86.661,565.331,99.873,-67.585,57.960,150.510,151.980
806,44013.790000,216.463,-161.446,-110.568,561.387,91.205,-62.882,710.960,240.510,639.980
807,44013.831000,216.463,-79.969,-112.560,561.184,69.005,-57.492,107.960,34.510,845.980
808,44013.852000,201.637,36.715,-38.848,559.995,47.507,-63.855,-200.040,-119.490,713.980
809,44013.870000,194.718,24.644,-28.887,555.149,46.489,-63.888,418.960,-79.490,161.980
810,44013.912000,198.672,17.603,-26.895,558.047,46.474,-65.844,1018.960,9.510,-179.020
811,44013.951000,186.811,21.627,-51.798,557.146,54.145,-69.598,293.960,45.510,-345.020
812,44013.991000,249.081,-74.939,-32.872,552.369,59.082,-63.614,-458.040,183.510,-172.020
813,44014.31000,317.282,-60.857,-55.782,555.116,42.649,-62.012,-70.040,-54.490,279.980
814,44014.69000,317.282,-35.709,45.821,551.374,57.929,-71.487,-102.040,-396.490,-510.020
815,44014.109000,243.151,-2.515,-104.591,547.658,75.216,-77.976,649.960,-399.490,-663.020
816,44014.149000,251.058,-32.692,-82.677,542.956,90.552,-84.510,191.960,-220.490,-565.020
817,44014.168000,229.313,-42.750,-118.537,537.221,99.082,-91.198,304.960,-181.490,-555.020
818,44014.215000,254.023,-19.615,-63.751,534.472,114.609,-89.878,77.960,-71.490,-470.020
819,44014.250000,238.208,-11.568,-97.619,533.540,118.461,-90.775,-25.040,94.510,-368.020
820,44014.290000,237.220,-49.792,-86.661,529.839,135.015,-86.493,71.960,91.510,-324.020
821,44014.328000,235.243,-32.692,-74.708,530.889,142.856,-83.375,128.960,166.510,-342.020
822,44014.375000,243.151,-33.697,-84.669,529.020,149.633,-83.228,275.960,136.510,-373.020
823,44014.409000,235.243,-46.774,-69.728,526.169,153.618,-77.262,222.960,244.510,-358.020
824,44014.448000,248.093,-22.633,-61.759,522.400,163.353,-74.112,320.960,241.510,-404.020
825,44014.488000,252.046,-14.585,-52.794,517.613,169.067,-76.937,323.960,138.510,-363.020
826,44014.508000,237.220,4.527,-66.739,519.726,185.763,-68.717,178.960,162.510,-374.020
827,44014.554000,247.104,-6.538,-60.763,518.818,192.485,-71.511,264.960,144.510,-347.020
828,44014.588000,251.058,-5.532,-48.809,515.962,196.426,-67.507,122.960,183.510,-324.020
829,44014.632000,243.151,9.556,-67.735,510.263,206.186,-62.399,117.960,182.510,-296.020
830,44014.673000,247.104,-13.580,-54.786,506.491,215.015,-56.327,-151.040,234.510,-241.020
831,44014.710000,237.220,36.715,-58.770,509.475,221.991,-49.302,-160.040,284.510,-212.020
832,44014.750000,244.139,-16.597,-42.833,505.643,224.952,-45.321,-283.040,126.510,-202.020
833,44014.790000,243.151,0.503,-42.833,502.827,232.798,-40.250,-261.040,39.510,-329.020
834,44014.810000,254.023,26.656,-44.825,497.105,240.573,-37.147,-271.040,8.510,-360.020
835,44014.852000,244.139,13.580,-52.794,492.411,254.226,-31.951,-316.040,-44.490,-379.020
836,44014.892000,255.012,14.585,-48.809,488.619,261.977,-30.806,-315.040,42.510,-398.020
837,44014.938000,246.116,10.562,-37.852,483.878,270.776,-25.717,-200.040,7.510,-506.020
838,44014.973000,243.151,32.692,-64.747,476.230,280.387,-26.501,-201.040,28.510,-578.020
839,44015.13000,254.023,53.815,-48.809,466.645,288.189,-20.464,-367.040,113.510,-534.020
840,44015.52000,264.896,53.815,-63.751,458.109,303.832,-11.309,-403.040,315.510,-605.020
841,44015.95000,259.954,68.904,-56.778,450.576,319.830,13.547,-904.040,725.510,-506.020
842,44015.140000,255.012,24.644,-86.661,443.855,319.375,40.001,-927.040,777.510,-437.020
843,44015.153000,292.571,-23.639,-138.459,430.481,331.433,64.757,-248.040,719.510,-343.020
844,44015.193000,257.977,59.851,-171.331,427.607,335.202,60.912,-575.040,-51.490,-304.020
845,44015.234000,210.533,6.538,-344.654,432.457,338.011,54.119,-1565.040,-1805.490,72.980
846,44015.274000,239.197,-37.721,-263.969,424.691,342.962,17.929,-1562.040,-2686.490,-72.020
847,44015.313000,227.336,-6.538,-180.296,417.898,350.620,-28.007,-1219.040,-2998.490,1.980
848,44015.353000,198.672,-2.515,-145.432,399.455,353.376,-71.134,-1175.040,-2901.490,208.980
849,44015.392000,219.429,5.532,-115.549,386.783,350.578,-104.565,-691.040,-2566.490,520.980
850,44015.431000,225.359,12.574,-90.646,370.229,345.866,-135.105,-176.040,-2178.490,704.980
851,44015.459000,247.104,10.562,-81.681,370.048,332.684,-160.895,487.960,-1704.490,963.980
852,44015.543000,287.629,22.633,-46.817,367.754,303.690,-198.809,1277.960,-906.490,1052.980
853,44015.785000,304.432,53.815,-4.981,375.258,283.895,-219.826,1279.960,-288.490,944.980
854,44015.884000,320.247,67.898,25.899,385.648,258.692,-223.306,7.960,99.510,956.980
855,44015.982000,304.432,93.045,79.689,395.159,239.606,-212.922,-200.040,398.510,903.980
856,44016.69000,245.127,156.417,-14.942,407.787,240.225,-190.326,-542.040,952.510,635.980
857,44016.69000,269.838,122.216,-152.405,414.521,235.523,-186.494,146.960,324.510,320.980
858,44016.69000,157.158,97.069,-124.514,417.409,232.768,-180.665,295.960,420.510,190.980
859,44016.69000,252.046,-26.656,-137.463,420.207,222.116,-180.896,718.960,388.510,188.980
860,44016.69000,258.965,-6.538,-105.588,423.097,220.268,-177.988,117.960,103.510,144.980
861,44016.76000,299.490,21.627,-81.681,417.199,212.272,-186.024,650.960,-163.490,-102.020
862,44016.84000,231.290,12.574,-168.342,417.161,211.020,-198.800,827.960,-259.490,-255.020
863,44016.91000,206.579,7.544,-177.307,414.193,205.965,-206.764,432.960,-41.490,-28.020
864,44016.120000,220.417,10.562,-146.428,415.125,202.113,-205.867,252.960,56.510,117.980
865,44016.121000,215.475,-0.503,-153.401,417.997,198.322,-203.003,-78.040,85.510,211.980
866,44016.163000,200.649,-4.527,-155.393,416.982,192.574,-199.210,-192.040,129.510,230.980
867,44016.163000,200.649,-16.597,-145.432,420.900,196.603,-194.209,-491.040,57.510,330.980
868,44016.170000,197.683,-32.692,-136.467,427.644,192.872,-190.355,-520.040,-3.490,330.980
869,44016.196000,180.880,-11.568,-154.397,429.519,186.159,-187.558,-436.040,-149.490,268.980
870,44016.301000,201.637,-9.556,-142.444,429.491,183.247,-187.623,-554.040,-230.490,392.980
871,44016.402000,196.695,-27.662,-137.463,432.306,174.516,-188.791,-495.040,-240.490,397.980
872,44016.433000,191.753,-56.833,-138.459,428.500,181.252,-189.630,-275.040,-448.490,361.980
873,44016.457000,199.660,-33.697,-172.327,429.382,175.156,-202.512,-46.040,-429.490,271.980
874,44016.482000,212.510,-35.709,-165.354,427.419,173.109,-206.485,90.960,-238.490,172.980
875,44016.531000,316.293,-31.686,-120.529,427.330,165.213,-212.544,-14.040,-258.490,102.980
876,44016.531000,371.645,96.063,-50.802,422.551,173.645,-224.135,-432.040,-533.490,-38.020
877,44016.531000,333.097,90.028,-50.802,424.465,171.700,-225.155,-1091.040,-585.490,37.980
878,44016.556000,329.143,31.686,-92.638,421.728,189.105,-226.735,-1015.040,-744.490,-153.020
879,44016.581000,320.247,68.904,-214.163,408.268,202.112,-247.069,-87.040,-1174.490,-815.020
880,44016.593000,240.185,68.904,-180.296,393.749,205.422,-266.639,-686.040,-1217.490,-671.020
881,44016.630000,235.243,37.721,-5.977,379.670,246.402,-250.069,-2913.040,-211.490,-769.020
882,44016.655000,150.239,-8.550,18.926,386.824,278.313,-214.042,-2095.040,878.510,-757.020
883,44016.679000,142.332,-1.509,-39.844,403.590,300.026,-160.569,-1172.040,2339.510,-327.020
884,44016.708000,188.788,40.739,-98.615,424.898,295.185,-125.327,-84.040,3126.510,-3.020
885,44016.761000,201.637,13.580,-133.479,454.017,292.857,-67.459,984.960,3696.510,70.980
886,44016.792000,240.185,15.591,-187.268,470.458,278.885,-3.991,1526.960,3879.510,61.980
887,44016.827000,266.873,1.509,-195.237,476.460,284.356,65.770,1465.960,3630.510,37.980
888,44016.868000,287.629,-2.515,-205.198,472.718,284.664,125.589,1553.960,3247.510,-9.020
889,44016.887000,269.838,-33.697,-213.167,468.013,289.406,166.872,1999.960,2309.510,190.980
890,44016.930000,203.614,15.591,-221.136,459.349,290.615,181.591,1644.960,1429.510,433.980
891,44016.968000,173.961,-58.845,-245.043,464.096,280.112,187.252,-26.040,358.510,242.980
892,44017.11000,316.293,-13.580,55.782,475.672,279.902,172.561,-147.040,-904.490,182.980
893,44017.47000,343.969,-97.069,-40.840,496.720,260.239,151.575,-445.040,-1511.490,512.980
894,44017.96000,213.498,138.310,-121.525,510.131,252.928,122.022,-31.040,-1189.490,601.980
895,44017.127000,292.571,35.709,-74.708,525.287,224.449,99.847,-124.040,-909.490,691.980
896,44017.171000,257.977,17.603,-47.813,531.940,215.454,84.951,147.960,-624.490,630.980
897,44017.190000,257.977,-8.550,-74.708,538.539,199.770,74.811,83.960,-451.490,542.980
898,44017.226000,260.942,19.615,-46.817,546.176,190.936,66.785,223.960,-142.490,379.980
899,44017.271000,249.081,27.662,-34.864,550.952,185.114,64.705,243.960,-78.490,350.980
900,44017.322000,253.035,1.509,-23.907,552.736,170.484,60.461,326.960,-84.490,327.980
901,44017.352000,248.093,-12.574,-31.875,552.652,163.515,52.461,406.960,-132.490,249.980
902,44017.390000,254.023,6.538,-26.895,555.579,166.413,50.570,451.960,-145.490,230.980
903,44017.444000,246.116,0.503,-38.848,559.344,158.403,37.652,546.960,-168.490,224.980
904,44017.471000,251.058,2.515,-10.957,561.210,151.605,36.524,0.960,-209.490,322.980
905,44017.508000,247.104,-20.621,-36.856,565.947,142.763,29.473,-34.040,-350.490,294.980
906,44017.532000,249.081,-18.609,-43.829,566.793,132.805,17.486,187.960,-423.490,197.980
907,44017.572000,241.174,-43.756,-66.739,567.800,140.236,1.962,416.960,-459.490,114.980
908,44017.610000,241.174,-22.633,-71.720,571.577,134.104,-13.856,416.960,-400.490,75.980
909,44017.691000,251.058,-41.745,-65.743,571.443,121.375,-19.042,385.960,-277.490,147.980
910,44017.725000,246.116,0.503,-88.654,571.475,126.078,-25.803,275.960,-207.490,175.980
911,44017.764000,247.104,-39.733,-90.646,574.273,115.427,-26.033,10.960,-81.490,319.980
912,44017.790000,258.965,12.574,-58.770,575.205,111.574,-25.136,152.960,50.510,194.980
913,44017.826000,248.093,-24.644,-17.930,576.074,100.947,-23.409,-151.040,33.510,243.980
914,44017.853000,251.058,-33.697,-54.786,580.885,98.103,-22.481,203.960,166.510,278.980
915,44017.878000,257.977,-29.674,-66.739,578.876,89.455,-17.774,200.960,89.510,203.980
916,44017.931000,265.884,-87.010,-54.786,574.093,94.327,-14.734,28.960,63.510,13.980
917,44017.956000,247.104,-113.163,-54.786,574.993,88.403,-19.767,46.960,-73.490,-209.020
918,44017.992000,224.371,-115.175,-122.521,570.309,104.796,-22.355,117.960,16.510,-293.020
919,44018.28000,214.486,-201.682,-146.428,574.169,103.863,-22.367,328.960,-17.490,197.980
920,44018.72000,210.533,-135.293,-113.556,572.980,81.480,-24.828,987.960,67.510,870.980
921,44018.110000,208.556,-64.880,-62.755,570.807,56.284,-22.450,638.960,138.510,1026.980
922,44018.131000,208.556,40.739,-7.969,570.661,40.793,-20.833,524.960,188.510,647.980
923,44018.168000,225.359,58.845,14.942,566.810,41.812,-16.896,631.960,53.510,-16.020
924,44018.212000,215.475,18.609,-40.840,566.899,51.478,-18.642,567.960,33.510,-337.020
925,44018.243000,260.942,-102.098,34.864,564.927,47.575,-18.733,106.960,54.510,77.980
926,44018.305000,274.780,-47.780,-12.949,560.186,58.143,-21.450,-717.040,-198.490,-331.020
927,44018.326000,323.212,-5.532,-4.981,558.413,77.283,-32.797,250.960,-655.490,-803.020
928,44018.370000,225.359,-77.957,-108.576,552.758,95.392,-45.156,-100.040,-459.490,-652.020
929,44018.403000,238.208,-35.709,-100.607,548.085,113.640,-51.625,97.960,-164.490,-634.020
930,44018.443000,264.896,15.591,-63.751,547.207,123.297,-53.374,-13.040,-117.490,-545.020
931,44018.463000,251.058,-24.644,-86.661,542.436,130.045,-53.234,-175.040,-23.490,-377.020
932,44018.506000,250.069,-1.509,-93.634,541.567,138.903,-47.156,-209.040,257.510,-287.020
933,44018.545000,245.127,3.521,-77.696,542.689,152.720,-37.040,-239.040,397.510,-177.020
934,44018.585000,248.093,-16.597,-58.770,538.867,154.905,-24.251,-409.040,479.510,-98.020
935,44018.625000,248.093,-31.686,-47.813,540.821,152.464,-3.707,-492.040,468.510,-117.020
936,44018.665000,245.127,-42.750,-42.833,542.828,159.344,-0.608,-273.040,427.510,-191.020
937,44018.705000,244.139,-30.680,-20.918,537.133,167.378,14.268,-106.040,408.510,-287.020
938,44018.745000,246.116,-14.585,-18.926,533.373,178.084,17.440,-80.040,257.510,-391.020
939,44018.771000,252.046,-12.574,-24.903,533.523,191.849,25.591,-10.040,128.510,-490.020
940,44018.805000,244.139,-15.591,-25.899,523.986,205.390,27.833,-33.040,49.510,-583.020
941,44018.846000,251.058,-0.503,-15.938,516.329,214.915,23.125,-148.040,-80.490,-681.020
942,44018.886000,245.127,13.580,-30.879,508.853,241.139,27.614,-3.040,-122.490,-779.020
943,44018.932000,254.023,21.627,-49.805,499.287,252.652,25.888,-165.040,-66.490,-841.020
944,44018.966000,261.931,46.774,-60.763,490.772,272.891,23.377,-216.040,85.510,-857.020
945,44019.6000,264.896,46.774,-73.712,479.392,293.468,37.539,-373.040,488.510,-776.020
946,44019.46000,257.977,45.768,-68.732,466.952,302.579,60.270,-453.040,745.510,-678.020
947,44019.86000,276.757,56.833,-69.728,455.526,316.554,83.112,-271.040,995.510,-510.020
948,44019.106000,303.444,14.585,-85.665,444.094,330.465,103.010,-153.040,793.510,-245.020
949,44019.151000,219.429,84.998,-109.572,435.404,329.668,114.742,-1121.040,-74.490,-200.020
950,44019.186000,196.695,-18.609,-264.965,439.131,316.005,109.543,-1847.040,-1306.490,48.980
951,44019.228000,223.382,-37.721,-196.233,440.126,323.329,89.114,-1207.040,-2060.490,-368.020
952,44019.263000,225.359,15.591,-142.444,439.121,329.123,44.130,-568.040,-2287.490,-242.020
953,44019.305000,241.174,0.503,-131.486,433.284,334.914,1.097,-974.040,-2383.490,-43.020
954,44019.346000,245.127,-10.562,-118.537,424.555,339.899,-33.134,-1204.040,-2281.490,227.980
955,44019.391000,256.000,6.538,-95.626,415.806,341.174,-59.602,-1160.040,-2116.490,372.980
956,44019.406000,271.815,8.550,-81.681,408.944,334.959,-74.464,-700.040,-1846.490,550.980
957,44019.446000,295.537,36.715,-64.747,402.997,324.741,-95.298,-353.040,-1623.490,723.980
958,44019.493000,314.317,19.615,-28.887,404.786,314.555,-118.075,384.960,-1414.490,848.980
959,44019.562000,297.514,39.733,9.961,406.506,300.183,-154.675,1020.960,-1226.490,892.980
960,44019.715000,248.093,42.750,-31.875,410.042,271.484,-181.783,820.960,-696.490,1062.980
961,44019.848000,241.174,80.974,-33.868,415.574,246.039,-194.104,511.960,-342.490,865.980
962,44019.934000,238.208,114.169,-31.875,421.726,481.026,-188.875,-155.040,-195.490,549.980
963,44019.934000,240.185,132.275,-40.840,425.074,228.615,-196.432,169.960,166.510,496.980
964,44020.25000,191.753,169.493,-139.455,428.028,232.656,-190.452,-504.040,418.510,208.980
965,44020.33000,194.718,23.639,-192.249,433.827,230.900,-184.594,830.960,360.510,42.980
966,44020.33000,221.405,-14.585,-176.311,436.635,221.220,-184.803,1057.960,465.510,39.980
967,44020.34000,285.652,-6.538,-131.486,440.396,208.766,-179.188,35.960,454.510,304.980
968,44020.83000,273.792,45.768,-104.591,448.186,211.085,-165.391,-579.040,406.510,455.980
969,44020.90000,252.046,4.527,-110.568,446.171,202.371,-163.627,45.960,215.510,196.980
970,44020.91000,198.672,1.509,-159.377,452.968,204.444,-160.625,-24.040,164.510,192.980
971,44020.135000,205.591,-5.532,-142.444,454.886,201.658,-155.779,-189.040,140.510,216.980
972,44020.136000,221.405,-1.509,-129.494,458.678,193.022,-153.021,-92.040,99.510,194.980
973,44020.136000,208.556,-5.532,-145.432,454.737,185.261,-151.240,-79.040,28.510,163.980
974,44020.241000,201.637,-13.580,-150.412,460.575,189.158,-153.103,92.960,66.510,132.980
975,44020.250000,209.544,2.515,-146.428,461.546,188.326,-147.235,34.960,102.510,146.980
976,44020.330000,214.486,-9.556,-138.459,462.523,188.421,-143.308,111.960,112.510,129.980
977,44020.347000,210.533,-4.527,-147.424,461.504,183.515,-145.381,178.960,116.510,85.980
978,44020.347000,217.452,-19.615,-136.467,465.307,175.872,-141.620,48.960,158.510,127.980
979,44020.353000,213.498,-15.591,-132.482,465.318,175.979,-136.714,-68.040,131.510,110.980
980,44020.371000,219.429,-19.615,-118.537,469.207,177.074,-132.759,-49.040,85.510,123.980
981,44020.434000,210.533,-15.591,-129.494,467.201,170.216,-134.877,-85.040,4.510,110.980
982,44020.616000,217.452,-20.621,-119.533,466.243,171.178,-134.857,-72.040,-85.490,90.980
983,44020.633000,221.405,1.509,-122.521,468.091,163.322,-139.931,-120.040,-274.490,74.980
984,44020.728000,230.301,-3.521,-130.490,464.225,165.075,-146.765,-138.040,-321.490,93.980
985,44020.728000,275.768,-15.591,-103.595,465.212,168.795,-154.526,-213.040,-463.490,-3.020
986,44020.728000,305.421,-33.697,-86.661,460.390,172.416,-164.262,-426.040,-746.490,-112.020
987,44020.728000,261.931,42.750,-138.459,451.657,173.841,-183.862,-406.040,-1064.490,-208.020
988,44020.729000,244.139,82.986,-130.490,438.188,184.993,-200.314,-472.040,-938.490,-344.020
989,44020.753000,239.197,16.597,-140.451,437.224,187.659,-211.044,-115.040,-702.490,-372.020
990,44020.766000,203.614,4.527,-220.140,427.619,197.036,-221.644,-90.040,-654.490,-315.020
991,44020.791000,178.903,127.246,-316.763,414.171,210.151,-237.072,-1356.040,-1193.490,-438.020
992,44020.832000,214.486,107.128,-75.704,400.902,237.311,-231.593,-2159.040,-762.490,-790.020
993,44020.876000,165.066,61.862,-42.833,383.896,275.393,-213.132,-1974.040,-126.490,-1013.020
994,44020.888000,161.112,82.986,-56.778,381.329,305.872,-193.828,-647.040,842.510,-963.020
995,44020.926000,159.135,81.980,-56.778,381.407,310.143,-176.081,-214.040,1472.510,-820.020
996,44020.961000,165.066,71.921,-71.720,387.458,328.409,-142.321,-61.040,2113.510,-613.020
997,44020.986000,194.718,69.910,-99.611,395.320,332.303,-101.030,-247.040,2488.510,-374.020
998,44021.11000,216.463,45.768,-109.572,409.026,338.389,-50.852,-155.040,2787.510,-49.020
999,44021.41000,247.104,34.703,-128.498,418.782,335.743,1.085,-80.040,2878.510,133.980
1000,44021.84000,266.873,-10.562,-164.358,431.495,339.814,48.274,747.960,2790.510,351.980
1001,44021.151000,252.046,1.509,-189.261,435.337,329.905,81.404,1076.960,2507.510,466.980
1002,44021.164000,243.151,-16.597,-194.241,443.048,322.667,101.854,221.960,1946.510,858.980
1003,44021.197000,213.498,96.063,-349.634,454.526,304.786,122.075,-118.040,233.510,600.980
1004,44021.223000,291.583,34.703,168.342,463.116,299.348,91.572,1367.960,-603.490,196.980
1005,44021.267000,325.189,14.585,-21.914,474.652,296.117,71.911,176.960,-781.490,542.980
1006,44021.304000,231.290,131.269,-163.362,485.064,278.163,45.057,412.960,-984.490,448.980
1007,44021.346000,257.977,76.951,-84.669,494.644,272.950,24.367,550.960,-650.490,484.980
1008,44021.383000,246.116,22.633,-64.747,500.349,266.772,5.610,633.960,-429.490,587.980
1009,44021.432000,244.139,0.503,-63.751,507.885,249.048,-9.478,685.960,-327.490,486.980
1010,44021.467000,250.069,30.680,-55.782,509.680,238.042,-25.409,585.960,-344.490,378.980
1011,44021.500000,252.046,19.615,-71.720,516.414,236.857,-38.170,415.960,-283.490,297.980
1012,44021.561000,247.104,7.544,-80.685,515.320,225.068,-44.318,157.960,-213.490,232.980
1013,44021.586000,246.116,10.562,-71.720,522.010,218.187,-51.321,108.960,-127.490,152.980
1014,44021.609000,245.127,25.650,-73.712,519.138,221.093,-50.282,183.960,-8.490,121.980
1015,44021.647000,244.139,19.615,-72.716,520.993,213.301,-52.412,169.960,65.510,161.980
1016,44021.684000,243.151,13.580,-66.739,523.926,216.264,-51.360,106.960,119.510,175.980
1017,44021.727000,248.093,10.562,-63.751,526.710,203.714,-49.671,118.960,102.510,149.980
