Sample, Time, ACCX, ACCY, ACCZ, MAGX, MAGY, MAGZ, GYRX, GYRY, GYRZ
0,44435.829000,250.069,17.603,20.918,508.543,224.074,-42.393,14.960,-41.490,-42.020
1,44435.876000,252.046,15.591,16.934,508.561,226.016,-42.350,32.960,-37.490,-35.020
2,44435.891000,250.069,15.591,17.930,507.669,233.773,-42.179,55.960,-33.490,-27.020
3,44435.927000,256.000,19.615,17.930,504.682,225.007,-42.380,71.960,-25.490,-20.020
4,44435.967000,254.023,20.621,14.942,511.475,227.037,-41.340,71.960,-9.490,-18.020
5,44436.11000,253.035,20.621,16.934,504.675,224.058,-41.421,70.960,3.510,-14.020
6,44436.51000,252.046,20.621,17.930,510.565,233.737,-45.116,41.960,-5.490,-17.020
7,44436.91000,252.046,23.639,17.930,507.651,231.832,-42.222,34.960,-16.490,-11.020
8,44436.133000,253.035,20.621,16.934,507.679,235.629,-46.061,23.960,-18.490,-14.020
9,44436.173000,252.046,20.621,18.926,507.658,233.665,-47.085,10.960,-19.490,-18.020
10,44436.208000,251.058,21.627,17.930,504.732,230.768,-45.194,15.960,-26.490,-9.020
11,44436.232000,254.023,22.633,17.930,508.607,231.733,-47.126,24.960,-33.490,1.980
12,44436.272000,252.046,22.633,14.942,508.583,229.748,-49.131,15.960,-35.490,1.980
13,44436.312000,253.035,21.627,14.942,506.717,236.547,-48.004,14.960,-23.490,4.980
14,44436.352000,254.023,23.639,11.953,506.698,235.490,-51.950,13.960,-3.490,7.980
15,44436.392000,251.058,20.621,15.938,506.635,228.715,-51.120,-16.040,11.510,-8.020
16,44436.433000,252.046,24.644,15.938,503.722,226.832,-47.245,-23.040,10.510,-11.020
17,44436.492000,252.046,19.615,14.942,507.635,231.681,-49.090,-26.040,1.510,0.980
18,44436.537000,253.035,20.621,14.942,505.740,235.567,-48.027,-32.040,3.510,-5.020
19,44436.545000,251.058,22.633,13.946,506.655,229.794,-46.192,-39.040,6.510,-6.020
20,44436.570000,253.035,23.639,18.926,505.728,234.574,-49.030,-13.040,7.510,1.980
21,44436.610000,250.069,21.627,16.934,503.770,231.686,-47.137,-11.040,-9.490,10.980
22,44436.655000,255.012,19.615,17.930,504.749,232.688,-46.132,-7.040,-19.490,11.980
23,44436.690000,252.046,20.621,14.942,505.704,231.705,-47.133,-3.040,-21.490,8.980
24,44436.730000,254.023,18.609,16.934,503.779,232.657,-47.115,-8.040,-14.490,-10.020
25,44436.767000,253.035,21.627,16.934,501.830,231.624,-49.104,-15.040,-20.490,-24.020
26,44436.823000,253.035,19.615,15.938,500.898,235.476,-50.001,-28.040,-33.490,-38.020
27,44436.867000,253.035,20.621,14.942,502.833,234.611,-46.093,-34.040,-45.490,-49.020
28,44436.875000,252.046,22.633,16.934,504.808,240.304,-52.828,-4.040,-43.490,-42.020
29,44436.911000,253.035,23.639,15.938,503.855,241.308,-50.846,16.960,-42.490,-43.020
30,44436.951000,252.046,23.639,15.938,500.880,234.419,-53.947,8.960,-59.490,-51.020
31,44436.991000,251.058,22.633,17.930,500.925,239.252,-54.820,13.960,-101.490,-59.020
32,44437.28000,249.081,26.656,19.922,501.937,244.979,-59.594,26.960,-162.490,-50.020
33,44437.72000,248.093,34.703,21.914,499.954,241.853,-68.494,44.960,-346.490,-4.020
34,44437.113000,256.988,33.697,27.891,502.876,245.592,-76.250,39.960,-521.490,51.980
35,44437.148000,261.931,41.745,8.965,498.925,239.492,-87.181,489.960,-323.490,148.980
36,44437.168000,270.826,42.750,-26.895,498.776,228.381,-107.041,517.960,-572.490,154.980
37,44437.210000,249.081,38.727,5.977,499.738,230.980,-121.692,323.960,-567.490,106.980
38,44437.250000,220.417,77.957,9.961,493.923,230.815,-126.611,271.960,-146.490,-241.020
39,44437.290000,231.290,55.827,14.942,495.987,243.520,-123.382,355.960,464.510,-414.020
40,44437.330000,253.035,27.662,-17.930,500.870,245.768,-111.554,423.960,662.510,-297.020
41,44437.368000,241.174,-2.515,-57.774,501.850,244.138,-97.859,447.960,657.510,-192.020
42,44437.410000,241.174,1.509,-32.872,500.947,249.155,-89.904,162.960,345.510,-145.020
43,44437.450000,256.000,-2.515,-14.942,507.755,252.198,-86.880,-243.040,63.510,113.980
44,44437.496000,244.139,52.809,-22.911,508.712,249.468,-79.094,-375.040,60.510,149.980
45,44437.512000,262.919,46.774,-25.899,510.585,241.849,-73.375,-321.040,53.510,179.980
46,44437.548000,262.919,18.609,2.988,512.458,235.115,-71.559,-82.040,89.510,183.980
47,44437.602000,252.046,24.644,13.946,512.472,236.129,-69.575,-93.040,101.510,167.980
48,44437.630000,254.023,26.656,5.977,515.348,232.382,-64.749,4.960,100.510,185.980
49,44437.670000,254.023,19.615,14.942,521.122,229.504,-65.781,-15.040,92.510,187.980
50,44437.716000,253.035,14.585,16.934,519.123,222.711,-64.956,97.960,74.510,168.980
51,44437.751000,256.000,15.591,14.942,523.939,219.910,-62.066,70.960,41.510,135.980
52,44437.791000,256.000,15.591,10.957,522.019,221.790,-63.990,76.960,21.510,96.980
53,44437.811000,255.012,11.568,13.946,525.728,205.323,-64.347,31.960,-17.490,62.980
54,44437.851000,255.012,11.568,11.953,522.950,217.937,-63.092,2.960,-38.490,28.980
55,44437.893000,254.023,12.574,7.969,524.869,216.921,-66.053,-8.040,-42.490,-5.020
56,44437.937000,253.035,15.591,4.981,526.757,212.085,-66.156,8.960,-42.490,-15.020
57,44437.972000,257.977,12.574,0.000,521.953,214.994,-64.140,10.960,11.510,-40.020
58,44438.11000,258.965,17.603,0.996,522.014,220.862,-62.049,-62.040,89.510,-77.020
59,44438.51000,258.965,19.615,5.977,523.970,222.844,-61.020,-114.040,151.510,-118.020
60,44438.91000,251.058,24.644,12.949,525.019,229.801,-53.999,-149.040,147.510,-117.020
61,44438.136000,249.081,19.615,17.930,523.097,229.911,-48.116,-156.040,115.510,-109.020
62,44438.156000,249.081,21.627,18.926,520.167,226.970,-48.188,-184.040,78.510,-115.020
63,44438.196000,250.069,25.650,20.918,519.267,232.894,-43.155,-128.040,42.510,-98.020
64,44438.233000,252.046,25.650,19.922,517.419,241.634,-41.984,-73.040,16.510,-73.020
65,44438.272000,251.058,28.668,17.930,515.475,240.645,-42.010,-56.040,-3.490,-71.020
66,44438.312000,252.046,25.650,17.930,514.486,238.672,-43.037,-59.040,-21.490,-63.020
67,44438.352000,249.081,25.650,19.922,517.431,242.627,-40.981,-75.040,-49.490,-62.020
68,44438.392000,249.081,29.674,18.926,514.498,239.664,-42.034,-21.040,-77.490,-35.020
69,44438.433000,249.081,26.656,18.926,512.648,248.383,-41.844,10.960,-101.490,-15.020
70,44438.453000,250.069,29.674,13.946,515.535,248.261,-48.706,11.960,-108.490,-15.020
71,44438.493000,252.046,29.674,6.973,514.546,246.288,-49.732,-5.040,-84.490,-17.020
72,44438.532000,253.035,28.668,11.953,515.471,242.371,-51.779,5.960,-37.490,-7.020
73,44438.572000,253.035,28.668,9.961,512.560,241.372,-51.807,5.960,-11.490,-11.020
74,44438.613000,252.046,31.686,12.949,511.594,241.384,-50.828,-2.040,1.510,-6.020
75,44438.650000,251.058,29.674,10.957,512.611,246.269,-49.737,1.960,8.510,1.980
76,44438.695000,252.046,29.674,13.946,513.590,247.271,-48.732,-2.040,9.510,7.980
77,44438.735000,250.069,28.668,15.938,511.651,247.209,-50.699,0.960,6.510,12.980
78,44438.775000,250.069,29.674,13.946,508.685,240.406,-49.875,7.960,-4.490,17.980
79,44438.790000,250.069,28.668,14.942,511.644,246.260,-49.739,3.960,-29.490,23.980
80,44438.831000,250.069,28.668,12.949,508.709,243.276,-51.773,8.960,-43.490,32.980
81,44438.870000,254.023,29.674,9.961,515.445,239.480,-50.862,2.960,-43.490,38.980
82,44438.911000,255.012,26.656,10.957,514.516,244.238,-54.681,-35.040,-37.490,23.980
83,44438.952000,252.046,27.662,11.953,512.534,238.481,-50.890,-44.040,-17.490,10.980
84,44438.992000,251.058,24.644,11.953,510.639,243.251,-53.731,-21.040,-17.490,18.980
85,44439.35000,252.046,28.668,14.942,512.591,245.190,-54.664,0.960,-32.490,24.980
86,44439.75000,251.058,24.644,14.942,513.549,244.229,-54.683,3.960,-55.490,25.980
87,44439.93000,251.058,26.656,12.949,513.487,238.361,-56.775,23.960,-69.490,33.980
88,44439.133000,252.046,26.656,9.961,519.269,236.432,-58.767,27.960,-79.490,35.980
89,44439.186000,250.069,26.656,8.965,514.437,237.313,-60.719,35.960,-83.490,38.980
90,44439.213000,251.058,25.650,8.965,518.328,241.083,-67.492,36.960,-103.490,46.980
91,44439.262000,251.058,23.639,6.973,515.412,239.156,-65.579,46.960,-114.490,51.980
92,44439.302000,251.058,24.644,3.984,517.258,231.279,-71.634,64.960,-119.490,56.980
93,44439.333000,255.012,24.644,0.000,519.273,239.992,-73.398,58.960,-107.490,49.980
94,44439.373000,255.012,22.633,-4.981,516.248,227.343,-73.685,22.960,-71.490,28.980
95,44439.413000,252.046,25.650,-3.984,515.325,232.166,-74.561,23.960,-42.490,24.980
96,44439.435000,255.012,22.633,-2.988,519.212,234.124,-75.490,19.960,-18.490,18.980
97,44439.475000,253.035,21.627,-1.992,518.244,234.115,-75.492,10.960,-6.490,9.980
98,44439.515000,252.046,21.627,0.000,520.141,230.250,-75.574,-1.040,0.510,0.980
99,44439.555000,253.035,22.633,0.000,517.258,232.163,-75.537,-3.040,-0.490,0.980
100,44439.595000,254.023,22.633,0.000,514.349,232.070,-78.487,-3.040,-4.490,1.980
101,44439.635000,251.058,20.621,0.000,515.323,232.144,-75.542,-14.040,-12.490,0.980
102,44439.675000,252.046,24.644,-2.988,517.284,235.054,-76.454,-11.040,-9.490,0.980
103,44439.715000,252.046,22.633,0.996,516.239,227.256,-77.610,-13.040,-9.490,0.980
104,44439.735000,253.035,23.639,-1.992,514.292,225.361,-74.714,-17.040,-15.490,-0.020
105,44439.773000,252.046,21.627,-0.996,512.374,227.262,-75.656,-18.040,-18.490,-1.020
106,44439.815000,254.023,24.644,0.000,518.233,234.007,-80.398,-12.040,-14.490,0.980
107,44439.855000,253.035,21.627,-1.992,515.342,234.086,-75.499,-16.040,-8.490,-2.020
108,44439.895000,254.023,24.644,-0.996,516.286,232.111,-77.502,-7.040,-3.490,-1.020
109,44439.935000,252.046,21.627,0.000,518.179,228.203,-79.546,-12.040,-6.490,-3.020
110,44439.983000,253.035,24.644,-0.996,513.388,232.126,-75.546,-6.040,-11.490,-0.020
111,44440.15000,253.035,23.639,-0.996,515.349,235.035,-76.458,-10.040,-14.490,3.980
112,44440.51000,254.023,23.639,-0.996,516.338,237.008,-75.432,-7.040,-10.490,3.980
113,44440.72000,255.012,23.639,0.000,518.264,236.941,-79.352,-18.040,-5.490,-2.020
114,44440.113000,250.069,23.639,0.000,518.265,236.078,-74.468,-16.040,-2.490,-3.020
115,44440.153000,251.058,24.644,0.000,511.437,231.071,-78.516,-9.040,-9.490,1.980
116,44440.193000,251.058,23.639,0.996,514.379,235.005,-77.442,-3.040,-24.490,6.980
117,44440.232000,252.046,21.627,-0.996,514.389,235.975,-77.420,-1.040,-34.490,7.980
118,44440.273000,253.035,22.633,-2.988,517.202,227.223,-79.570,4.960,-35.490,9.980
119,44440.313000,253.035,22.633,-2.988,515.295,230.116,-79.509,-1.040,-26.490,6.980
120,44440.353000,254.023,23.639,-4.981,517.256,233.026,-80.421,-7.040,-4.490,-0.020
121,44440.373000,253.035,22.633,-4.981,517.247,232.055,-80.443,-13.040,21.510,-6.020
122,44440.413000,252.046,22.633,-2.988,515.361,236.913,-79.358,-19.040,45.510,-15.020
123,44440.466000,254.023,24.644,-0.996,518.285,238.904,-78.327,-20.040,56.510,-18.020
124,44440.521000,252.046,24.644,-0.996,513.395,232.190,-72.603,-21.040,55.510,-17.020
125,44440.537000,254.023,24.644,2.988,516.370,239.964,-73.405,-12.040,46.510,-15.020
126,44440.573000,251.058,26.656,1.992,515.325,232.166,-74.561,-16.040,39.510,-14.020
127,44440.613000,251.058,24.644,1.992,516.347,237.095,-71.507,-16.040,27.510,-10.020
128,44440.661000,253.035,24.644,3.984,514.426,238.090,-69.528,-9.040,18.510,-6.020
129,44440.695000,252.046,23.639,0.996,515.405,239.092,-68.523,-19.040,19.510,-8.020
130,44440.722000,254.023,25.650,0.996,513.418,234.175,-70.597,-24.040,34.510,-16.020
131,44440.755000,253.035,25.650,2.988,512.500,239.042,-69.511,-54.040,33.510,-24.020
132,44440.792000,250.069,25.650,5.977,515.426,241.055,-67.498,-62.040,11.510,-27.020
133,44440.833000,249.081,27.662,5.977,512.547,243.011,-65.500,-21.040,-18.490,-3.020
134,44440.873000,252.046,28.668,4.981,512.469,235.223,-66.653,5.960,-36.490,8.980
135,44440.912000,252.046,23.639,2.988,513.402,232.255,-69.659,10.960,-38.490,12.980
136,44440.952000,253.035,26.656,1.992,510.549,237.103,-68.577,2.960,-30.490,6.980
137,44441.2000,252.046,25.650,1.992,511.578,243.865,-70.386,-4.040,-25.490,7.980
138,44441.15000,254.023,27.662,0.996,515.419,240.990,-70.442,-4.040,-11.490,5.980
139,44441.55000,253.035,25.650,1.992,512.432,232.224,-70.643,-9.040,-1.490,-0.020
140,44441.95000,252.046,28.668,2.988,513.466,239.030,-70.490,-11.040,4.510,-0.020
141,44441.135000,252.046,25.650,1.992,513.444,237.066,-71.514,-7.040,0.510,3.980
142,44441.176000,250.069,26.656,2.988,510.589,241.892,-71.413,-4.040,-9.490,3.980
143,44441.212000,253.035,27.662,4.981,513.482,240.950,-71.428,1.960,-15.490,7.980
144,44441.252000,254.023,25.650,3.984,511.549,240.952,-70.451,10.960,-18.490,15.980
145,44441.297000,253.035,26.656,1.992,511.462,232.193,-71.626,5.960,-17.490,16.980
146,44441.338000,251.058,24.644,0.000,515.341,233.202,-71.596,4.960,-14.490,15.980
147,44441.358000,253.035,27.662,-0.996,511.479,233.229,-68.661,4.960,-6.490,14.980
148,44441.393000,252.046,23.639,2.988,517.340,239.995,-72.421,1.960,1.510,14.980
149,44441.436000,252.046,24.644,2.988,513.484,240.971,-70.446,-3.040,-2.490,9.980
150,44441.477000,251.058,23.639,3.984,516.302,232.262,-70.634,0.960,-4.490,9.980
151,44441.517000,253.035,25.650,1.992,514.315,227.345,-72.708,-2.040,-7.490,9.980
152,44441.565000,253.035,22.633,0.996,511.531,239.011,-70.494,-7.040,-6.490,6.980
153,44441.596000,254.023,25.650,0.000,516.354,238.044,-72.467,-2.040,-5.490,7.980
154,44441.636000,253.035,22.633,0.996,517.328,239.003,-73.424,-4.040,-6.490,5.980
155,44441.665000,255.012,25.650,4.981,515.403,239.955,-73.407,-4.040,-8.490,5.980
156,44441.696000,253.035,26.656,1.992,514.384,234.163,-71.576,-4.040,-7.490,6.980
157,44441.736000,254.023,25.650,0.996,515.417,240.084,-67.520,-3.040,-6.490,2.980
158,44441.777000,253.035,24.644,1.992,515.401,239.933,-74.388,-2.040,-4.490,0.980
159,44441.817000,253.035,25.650,0.996,516.363,239.015,-72.445,-1.040,-0.490,0.980
160,44441.853000,252.046,24.644,2.988,512.496,238.999,-71.473,-6.040,-1.490,-1.020
161,44441.893000,253.035,25.650,0.996,512.439,233.173,-71.602,1.960,2.510,1.980
162,44441.933000,251.058,21.627,3.984,511.458,232.150,-73.588,-7.040,-0.490,-6.020
163,44441.978000,253.035,24.644,-0.996,515.415,240.947,-72.404,-7.040,-4.490,-7.020
164,44441.993000,253.035,23.639,2.988,514.431,239.017,-71.468,6.960,7.510,-4.020
165,44442.38000,252.046,23.639,0.996,513.447,237.088,-70.533,8.960,9.510,-14.020
166,44442.73000,252.046,28.668,2.988,515.396,239.005,-72.447,-4.040,-0.490,-21.020
167,44442.113000,252.046,26.656,3.984,514.400,236.083,-72.514,-15.040,-13.490,-18.020
168,44442.155000,252.046,25.650,1.992,510.591,241.914,-70.432,-4.040,-17.490,-21.020
169,44442.203000,254.023,26.656,-0.996,514.450,240.959,-71.425,-9.040,-10.490,-24.020
170,44442.237000,251.058,24.644,0.996,512.507,239.991,-70.470,-17.040,-7.490,-32.020
171,44442.276000,251.058,26.656,1.992,509.622,241.883,-71.415,-23.040,-5.490,-41.020
172,44442.317000,251.058,28.668,0.000,508.709,247.677,-72.269,-10.040,-9.490,-39.020
173,44442.336000,254.023,28.668,1.992,510.580,240.921,-71.434,-14.040,-10.490,-46.020
174,44442.381000,250.069,46.774,0.996,508.735,250.568,-73.185,15.960,-9.490,-25.020
175,44442.417000,251.058,19.615,19.922,510.639,247.653,-74.227,212.960,-65.490,-2.020
176,44442.457000,232.278,22.633,30.879,514.406,238.780,-82.261,237.960,-301.490,48.980
177,44442.497000,233.266,21.627,34.864,507.558,234.464,-99.042,324.960,-692.490,128.980
178,44442.543000,300.479,71.921,59.767,505.537,232.741,-132.427,472.960,-1097.490,265.980
179,44442.611000,512.988,177.540,116.545,500.463,215.456,-166.164,94.960,-1727.490,527.980
180,44442.627000,413.158,25.650,44.825,490.709,212.837,-192.721,-460.040,-1959.490,528.980
181,44442.635000,372.633,-63.874,-57.774,479.126,220.017,-214.160,-720.040,-1175.490,249.980
182,44442.675000,307.398,-98.075,-143.440,471.453,227.622,-217.930,-465.040,-565.490,193.980
183,44442.716000,265.884,-27.662,-152.405,462.858,237.418,-209.886,-654.040,-271.490,250.980
184,44442.758000,162.100,-4.527,-236.078,464.753,232.647,-207.046,804.960,353.510,305.980
185,44442.796000,137.390,5.532,-213.167,464.674,223.974,-204.296,716.960,398.510,412.980
186,44442.837000,71.166,-16.597,-223.128,466.543,216.312,-200.540,176.960,178.510,536.980
187,44442.877000,85.004,-25.650,-256.000,469.297,201.713,-203.800,13.960,-38.490,646.980
188,44442.917000,170.996,-0.503,-236.078,469.079,182.015,-216.986,263.960,-528.490,708.980
189,44442.966000,203.614,18.609,-217.152,460.222,171.683,-241.751,211.960,-1013.490,696.980
190,44442.983000,91.923,22.633,-173.323,446.443,154.334,-274.527,83.960,-1499.490,769.980
191,44443.17000,-4.942,3.521,-160.374,429.735,135.814,-315.180,-9.040,-1785.490,820.980
192,44443.68000,-64.247,-6.538,-161.370,395.589,115.139,-357.880,-452.040,-2225.490,1012.980
193,44443.96000,-21.745,-46.774,-131.486,367.405,108.350,-389.471,-774.040,-2474.490,850.980
194,44443.136000,-17.792,-40.739,-140.451,316.082,110.914,-426.787,-981.040,-2388.490,564.980
195,44443.176000,39.537,-101.092,-160.374,273.692,134.210,-451.857,-1059.040,-1763.490,222.980
196,44443.216000,85.004,-71.921,-174.319,234.198,153.069,-459.367,-1079.040,-1197.490,-64.020
197,44443.257000,120.587,-58.845,-153.401,217.854,162.703,-455.265,-442.040,-33.490,-529.020
198,44443.277000,239.197,-14.585,-112.560,222.890,178.737,-434.304,-305.040,1046.510,-855.020
199,44443.317000,328.154,1.509,-130.490,254.019,191.250,-408.464,-374.040,2169.510,-1072.020
200,44443.358000,461.591,18.609,-36.856,276.518,211.445,-382.471,327.960,3015.510,-1253.020
201,44443.398000,512.988,34.703,-21.914,326.839,205.031,-343.281,1515.960,3505.510,-1174.020
202,44443.445000,418.100,35.709,-100.607,357.927,210.101,-302.895,222.960,2311.510,-529.020
203,44443.477000,235.243,-22.633,-182.288,362.955,225.185,-280.976,-1894.040,-161.490,106.980
204,44443.517000,190.764,-44.762,35.860,361.166,239.773,-278.694,-354.040,-424.490,375.980
205,44443.561000,286.641,44.762,-69.728,371.699,227.384,-273.063,920.960,408.510,341.980
206,44443.576000,341.004,16.597,-36.856,378.433,222.682,-269.231,328.960,389.510,320.980
207,44443.616000,301.467,-1.509,-70.724,384.130,212.016,-271.417,366.960,15.510,352.980
208,44443.660000,295.537,21.627,-119.533,384.029,203.128,-278.479,512.960,-124.490,141.980
209,44443.697000,292.571,35.709,-120.529,387.685,181.742,-281.888,595.960,49.510,131.980
210,44443.737000,249.081,-13.580,-111.564,388.631,179.788,-282.910,217.960,173.510,162.980
211,44443.778000,231.290,-34.703,-105.588,398.384,185.923,-272.946,371.960,391.510,-1.020
212,44443.818000,230.301,-9.556,-95.626,399.227,173.289,-274.206,220.960,248.510,-3.020
213,44443.858000,236.232,-10.562,-92.638,404.149,181.190,-270.097,-44.040,41.510,15.980
214,44443.900000,235.243,3.521,-86.661,400.234,176.319,-269.233,-35.040,51.510,97.980
215,44443.920000,238.208,-8.550,-82.677,401.201,176.329,-269.231,-99.040,-2.490,200.980
216,44443.961000,223.382,-22.633,-93.634,400.159,168.552,-269.406,-81.040,-127.490,186.980
217,44443.996000,233.266,-24.644,-94.630,402.097,170.362,-276.226,-121.040,-256.490,257.980
218,44444.36000,228.324,-34.703,-103.595,401.080,165.477,-277.317,-87.040,-312.490,232.980
219,44444.76000,223.382,-25.650,-105.588,395.238,163.306,-285.223,-64.040,-372.490,189.980
220,44444.145000,231.290,-34.703,-111.564,389.345,155.353,-291.296,3.960,-428.490,180.980
221,44444.160000,227.336,-30.680,-119.533,383.555,158.080,-297.132,-81.040,-403.490,144.980
222,44444.200000,234.255,-29.674,-118.537,380.627,156.929,-304.028,-120.040,-403.490,146.980
223,44444.261000,256.000,-31.686,-109.572,372.875,157.609,-313.836,-108.040,-549.490,75.980
224,44444.270000,244.139,-27.662,-134.475,364.053,147.621,-322.902,-163.040,-610.490,-18.020
225,44444.298000,258.965,-14.585,-137.463,354.509,162.867,-331.410,-167.040,-676.490,-145.020
226,44444.340000,297.514,-8.550,-113.556,341.929,164.470,-341.207,-258.040,-791.490,-192.020
227,44444.380000,318.270,7.544,-97.619,326.494,171.784,-354.807,-415.040,-940.490,-191.020
228,44444.420000,325.189,8.550,-91.642,304.315,181.061,-364.454,-522.040,-912.490,-209.020
229,44444.460000,270.826,-3.521,-113.556,290.809,187.466,-376.108,-622.040,-702.490,-310.020
230,44444.500000,177.915,-76.951,-135.471,276.458,204.714,-379.678,-514.040,-468.490,-332.020
231,44444.540000,187.799,-118.193,-96.623,273.645,213.466,-377.529,-627.040,-222.490,-3.020
232,44444.565000,186.811,-102.098,-129.494,267.804,212.180,-389.337,-160.040,-656.490,678.980
233,44444.598000,197.683,-84.998,45.821,274.553,210.261,-391.327,53.960,-115.490,501.980
234,44444.690000,139.367,-6.538,-42.833,296.423,171.600,-394.101,2150.960,1232.510,218.980
235,44444.886000,176.927,10.562,-25.899,325.068,131.279,-387.090,1708.960,1646.510,-71.020
236,44444.966000,218.440,15.591,-85.665,362.715,117.645,-361.816,627.960,1804.510,-195.020
237,44445.76000,228.324,-8.550,-165.354,399.524,116.687,-333.320,-195.040,1725.510,-92.020
238,44445.91000,248.093,-39.733,-207.191,434.363,110.964,-300.032,305.960,1611.510,-65.020
239,44445.91000,192.741,-6.538,-253.012,449.927,115.451,-279.305,115.960,1265.510,-45.020
240,44445.91000,220.417,-34.703,-273.930,470.304,116.231,-252.767,-121.040,992.510,-173.020
241,44445.91000,206.579,-58.845,-257.992,482.952,120.561,-237.934,267.960,399.510,87.980
242,44445.123000,159.135,14.585,-238.070,488.746,117.877,-230.137,398.960,161.510,-43.020
243,44445.123000,254.023,-123.222,-415.377,490.648,114.941,-232.159,813.960,-216.490,-114.020
244,44445.158000,169.019,42.750,-45.821,486.671,105.949,-242.174,830.960,-250.490,-200.020
245,44445.193000,250.069,-137.305,-114.553,486.622,101.073,-243.263,1065.960,320.510,-288.020
246,44445.193000,241.174,-83.992,-70.724,484.684,100.148,-240.345,177.960,158.510,-117.020
247,44445.218000,228.324,-34.703,-108.576,487.666,107.102,-234.301,-274.040,242.510,-39.020
248,44445.263000,253.035,-5.532,-78.693,492.564,112.133,-228.295,-308.040,229.510,-50.020
249,44445.277000,260.942,-40.739,-44.825,489.560,100.562,-223.655,77.960,200.510,-81.020
250,44445.334000,244.139,-39.733,-41.837,485.775,109.262,-223.469,5.960,79.510,-51.020
251,44445.377000,241.174,-12.574,-71.720,490.631,111.251,-223.415,131.960,-2.490,-15.020
252,44445.419000,250.069,-28.668,-40.840,489.675,112.234,-222.415,179.960,-18.490,26.980
253,44445.438000,256.988,-25.650,-68.732,495.445,109.314,-225.409,129.960,17.510,39.980
254,44445.462000,261.931,-29.674,-63.751,494.484,109.369,-222.468,14.960,167.510,43.980
255,44445.488000,251.058,-26.656,-66.739,498.269,99.784,-218.750,9.960,165.510,18.980
256,44445.512000,226.347,-30.680,-63.751,496.392,103.843,-209.838,-93.040,242.510,28.980
257,44445.537000,252.046,-37.721,-39.844,502.264,109.832,-204.789,-119.040,285.510,32.980
258,44445.559000,234.255,-28.668,-34.864,502.257,108.883,-203.830,56.960,19.510,-28.020
259,44445.592000,258.965,-44.762,-53.790,502.245,107.891,-204.833,152.960,-109.490,-51.020
260,44445.639000,252.046,-31.686,-73.712,501.280,107.903,-203.854,-42.040,200.510,-49.020
261,44445.673000,270.826,-6.538,-50.802,501.310,109.952,-198.905,-317.040,269.510,-65.020
262,44445.692000,276.757,16.597,-61.759,505.242,114.111,-188.017,-663.040,309.510,-60.020
263,44445.737000,250.069,-46.774,-49.805,513.148,128.102,-172.980,-486.040,471.510,-109.020
264,44445.773000,244.139,-22.633,-59.767,510.371,138.084,-159.035,-619.040,422.510,-228.020
265,44445.817000,256.000,-69.910,-33.868,511.405,140.488,-138.385,-461.040,714.510,-168.020
266,44445.854000,230.301,-34.703,-42.833,516.299,143.729,-125.555,-94.040,815.510,-240.020
267,44445.898000,234.255,-23.639,-1.992,517.396,152.023,-101.832,9.960,943.510,-294.020
268,44445.937000,256.988,0.503,6.973,521.386,160.259,-82.028,276.960,851.510,-260.020
269,44445.973000,254.023,-9.556,20.918,520.533,169.267,-69.081,166.960,723.510,-207.020
270,44445.998000,259.954,16.597,13.946,523.447,166.771,-51.478,-30.040,612.510,-167.020
271,44446.34000,233.266,-21.627,43.829,521.582,170.938,-37.661,175.960,453.510,-69.020
272,44446.73000,246.116,19.615,43.829,518.672,169.960,-36.708,157.960,218.510,-40.020
273,44446.118000,256.000,-7.544,50.802,518.749,176.864,-31.651,16.960,67.510,-3.020
274,44446.154000,248.093,-10.562,27.891,519.729,178.751,-34.549,27.960,-48.490,41.980
275,44446.193000,254.023,-36.715,47.813,519.649,170.941,-36.684,66.960,-36.490,4.980
276,44446.249000,247.104,-11.568,31.875,519.628,168.977,-37.708,190.960,-55.490,-43.020
277,44446.273000,258.965,9.556,15.938,516.811,177.687,-37.521,142.960,98.510,-29.020
278,44446.321000,260.942,-27.662,32.872,519.738,179.722,-34.528,135.960,145.510,-93.020
279,44446.337000,255.012,-9.556,32.872,514.903,179.696,-33.558,142.960,195.510,-174.020
280,44446.377000,254.023,12.574,14.942,516.930,188.517,-30.416,204.960,293.510,-251.020
281,44446.413000,256.000,22.633,35.860,515.055,192.598,-20.522,126.960,389.510,-224.020
282,44446.463000,256.000,3.521,47.813,512.148,190.757,-14.685,0.960,376.510,-210.020
283,44446.501000,251.058,4.527,43.829,507.455,202.662,-0.702,40.960,399.510,-226.020
284,44446.534000,249.081,43.756,54.786,506.544,207.593,3.328,-129.040,290.510,-98.020
285,44446.573000,250.069,5.532,55.782,507.546,209.696,10.242,-194.040,291.510,-55.020
286,44446.619000,251.058,-2.515,44.825,508.569,213.761,18.180,-202.040,330.510,-123.020
287,44446.638000,245.127,24.644,83.673,504.704,211.134,32.823,-349.040,459.510,-285.020
288,44446.676000,266.873,43.756,83.673,497.077,220.055,44.773,-314.040,445.510,-287.020
289,44446.713000,274.780,17.603,108.576,491.365,227.054,56.684,-191.040,407.510,-406.020
290,44446.756000,246.116,-22.633,127.502,487.674,244.578,60.988,125.960,147.510,-286.020
291,44446.797000,236.232,-3.521,116.545,487.625,240.587,55.996,323.960,-156.490,-160.020
292,44446.834000,71.166,156.417,256.000,482.983,259.137,63.263,428.960,885.510,-558.020
293,44446.878000,273.792,121.210,227.113,463.851,273.360,100.803,1071.960,1930.510,-956.020
294,44446.929000,160.124,221.800,249.027,441.054,311.515,125.138,1101.960,1515.510,-879.020
295,44446.953000,101.807,73.933,122.521,419.017,323.919,169.496,-833.040,1285.510,-892.020
296,44446.978000,168.031,56.833,79.689,393.192,345.865,208.175,-420.040,1221.510,-821.020
297,44447.16000,159.135,-46.774,32.872,370.052,352.564,214.159,630.960,595.510,-90.020
298,44447.53000,128.494,-88.016,-121.525,379.802,364.827,193.858,997.960,-626.490,427.980
299,44447.96000,225.359,-120.204,3.984,398.999,356.515,160.371,1556.960,-1813.490,1046.980
300,44447.143000,442.811,61.862,-169.339,409.506,345.637,146.423,-909.040,-1102.490,705.980
301,44447.188000,294.548,-11.568,62.755,439.180,320.881,110.632,-93.040,-2066.490,1470.980
302,44447.219000,317.282,-7.544,-41.837,462.105,297.160,80.734,4.960,-1380.490,1181.980
303,44447.283000,322.224,38.727,-41.837,469.625,279.285,58.778,-274.040,-1044.490,800.980
304,44447.302000,266.873,-34.703,14.942,483.025,267.465,44.815,160.960,-669.490,610.980
305,44447.320000,256.000,81.980,16.934,487.800,263.391,33.947,154.960,-356.490,263.980
306,44447.352000,262.919,45.768,8.965,487.715,254.653,33.753,-274.040,-214.490,357.980
307,44447.392000,248.093,9.556,23.907,491.493,245.889,30.625,-128.040,-207.490,299.980
308,44447.432000,254.023,-27.662,47.813,490.457,239.062,29.490,-303.040,-185.490,174.980
309,44447.478000,246.116,1.509,48.809,492.395,239.987,26.573,5.960,-66.490,78.980
310,44447.512000,246.116,-17.603,54.786,500.087,235.208,26.483,-9.040,-37.490,49.980
311,44447.552000,248.093,18.609,35.860,496.248,238.104,27.520,36.960,-5.490,9.980
312,44447.592000,248.093,10.562,44.825,496.281,241.060,29.547,-53.040,-40.490,47.980
313,44447.613000,261.931,18.609,19.922,498.138,233.290,28.398,-169.040,-8.490,1.980
314,44447.648000,254.023,16.597,35.860,499.110,233.343,30.362,21.960,90.510,12.980
315,44447.691000,246.116,19.615,37.852,497.238,239.214,33.431,-163.040,44.510,-38.020
316,44447.728000,249.081,11.568,46.817,497.238,239.214,33.431,-124.040,12.510,-25.020
317,44447.768000,250.069,16.597,52.794,498.170,234.477,38.231,-191.040,11.510,-41.020
318,44447.812000,246.116,3.521,51.798,497.235,237.423,40.255,-248.040,11.510,-124.020
319,44447.848000,252.046,25.650,41.837,496.284,239.334,39.315,-264.040,-96.490,-83.020
320,44447.888000,234.255,18.609,66.739,496.301,241.254,38.377,-292.040,-158.490,-7.020
321,44447.911000,256.988,12.574,6.973,495.291,236.433,40.229,-318.040,-147.490,15.980
322,44447.951000,248.093,10.562,50.802,497.289,242.342,43.307,-200.040,-39.490,-13.020
323,44447.995000,251.058,20.621,66.739,494.362,241.192,36.410,-221.040,-196.490,-0.020
324,44448.28000,257.977,23.639,83.673,496.272,240.974,25.622,-209.040,-614.490,112.980
325,44448.68000,300.479,50.798,81.681,494.220,231.030,15.591,-174.040,-870.490,190.980
326,44448.111000,373.622,106.122,69.728,495.164,233.456,-6.909,-521.040,-1061.490,118.980
327,44448.151000,334.085,-38.727,39.844,494.154,233.037,-25.553,-273.040,-1029.490,110.980
328,44448.188000,314.317,-53.815,-22.911,492.094,224.777,-47.315,-171.040,-734.490,201.980
329,44448.232000,402.286,-32.692,-36.856,487.207,222.486,-61.105,-323.040,-559.490,326.980
330,44448.257000,376.587,-6.538,-34.864,487.145,219.250,-75.887,-320.040,-695.490,522.980
331,44448.291000,365.714,-11.568,-61.759,485.073,209.112,-94.749,-418.040,-857.490,624.980
332,44448.331000,364.726,-13.580,-130.490,482.061,200.994,-109.646,149.960,-689.490,546.980
333,44448.375000,292.571,-11.568,-92.638,477.090,192.619,-135.339,463.960,-691.490,462.980
334,44448.413000,173.961,5.532,-151.409,470.139,179.392,-160.164,1008.960,-474.490,343.980
335,44448.453000,64.247,-28.668,-159.377,470.042,173.179,-177.954,858.960,-324.490,282.980
336,44448.493000,-94.888,-2.515,-167.346,467.919,158.144,-198.886,634.960,-497.490,245.980
337,44448.533000,-130.471,-12.574,-179.300,461.945,145.898,-223.687,306.960,-961.490,353.980
338,44448.568000,-138.378,-34.703,-178.303,450.172,136.292,-258.248,-38.040,-1500.490,427.980
339,44448.602000,-70.178,-46.774,-187.268,436.537,133.528,-289.720,-566.040,-2141.490,651.980
340,44448.630000,23.722,-90.028,-197.230,409.162,114.667,-341.190,-632.040,-2475.490,779.980
341,44448.670000,88.958,-115.175,-210.179,371.347,115.249,-386.367,-799.040,-2499.490,685.980
342,44448.710000,101.807,-120.204,-243.051,329.606,109.083,-427.780,-875.040,-2333.490,545.980
343,44448.750000,110.703,-117.187,-246.039,279.281,113.706,-460.145,-969.040,-1877.490,310.980
344,44448.802000,170.008,-100.086,-250.023,236.776,122.698,-473.765,-966.040,-1311.490,135.980
345,44448.830000,200.649,-38.727,-271.938,225.267,134.106,-479.420,-1076.040,-722.490,-1.020
346,44448.873000,256.988,-12.574,-230.101,204.246,159.313,-471.059,-1236.040,21.510,-205.020
347,44448.895000,303.444,-15.591,-221.136,207.523,193.753,-450.675,-1393.040,398.510,-275.020
348,44448.930000,291.583,35.709,-151.409,212.714,226.249,-431.310,-1042.040,973.510,-128.020
349,44448.972000,291.583,49.792,-111.564,237.006,232.784,-409.539,-491.040,1328.510,-63.020
350,44449.13000,288.618,54.821,-92.638,258.375,236.444,-384.896,-183.040,1514.510,-162.020
351,44449.53000,251.058,28.668,-33.868,278.919,254.678,-358.951,-234.040,1500.510,-308.020
352,44449.93000,222.394,-29.674,-1.992,292.516,257.075,-344.159,79.960,1577.510,-321.020
353,44449.141000,180.880,-166.475,-378.521,311.863,253.725,-328.502,526.960,992.510,-16.020
354,44449.174000,191.753,-123.222,-256.996,318.564,246.068,-326.697,355.960,97.510,344.980
355,44449.191000,282.687,-17.603,-159.377,323.166,221.843,-327.225,640.960,368.510,448.980
356,44449.230000,270.826,45.768,-41.837,329.928,220.054,-323.327,457.960,249.510,402.980
357,44449.270000,308.386,78.963,-126.506,340.428,205.595,-323.626,867.960,278.510,220.980
358,44449.316000,320.247,61.862,-118.537,347.141,198.929,-320.818,233.960,280.510,259.980
359,44449.368000,325.189,0.503,-84.669,350.893,187.273,-323.030,266.960,105.510,405.980
360,44449.423000,240.185,-10.562,-151.409,352.701,174.628,-325.268,243.960,-74.490,339.980
361,44449.438000,224.371,-29.674,-145.432,352.583,162.934,-327.490,250.960,16.510,217.980
362,44449.510000,220.417,-30.680,-136.467,355.514,165.875,-327.418,94.960,37.510,202.980
363,44449.601000,227.336,-43.756,-122.521,355.474,161.970,-328.486,-25.040,-71.490,126.980
364,44449.636000,221.405,-21.627,-125.510,352.520,157.044,-330.562,-166.040,-215.490,82.980
365,44449.692000,219.429,-33.697,-132.482,351.565,158.912,-333.465,-84.040,-269.490,68.980
366,44449.743000,202.625,-26.656,-147.424,343.807,157.779,-337.429,-181.040,-294.490,59.980
367,44449.752000,199.660,-15.591,-149.416,340.969,165.410,-342.169,-200.040,-294.490,44.980
368,44449.827000,222.394,-33.697,-135.471,335.101,159.464,-345.255,-207.040,-364.490,37.980
369,44449.836000,215.475,-20.621,-145.432,329.375,168.965,-351.921,-288.040,-460.490,15.980
370,44449.851000,209.544,-13.580,-150.412,318.722,169.638,-360.755,-266.040,-513.490,-36.020
371,44449.866000,223.382,-21.627,-162.366,307.212,180.161,-362.507,-430.040,-521.490,-139.020
372,44449.866000,239.197,9.556,-138.459,300.506,187.776,-366.274,-707.040,-640.490,-274.020
373,44449.881000,252.046,30.680,-132.482,283.202,200.982,-375.824,-529.040,-636.490,-448.020
374,44449.935000,248.093,-9.556,-124.514,269.823,219.167,-381.333,-337.040,-626.490,-603.020
375,44449.965000,268.849,-70.916,-149.416,255.324,221.788,-388.170,-180.040,-595.490,-495.020
376,44450.4000,233.266,-82.986,-128.498,238.956,231.185,-394.860,-597.040,-481.490,-225.020
377,44450.25000,224.371,-69.910,-153.401,232.419,254.506,-390.434,-1212.040,-710.490,336.980
378,44450.305000,265.884,-29.674,-109.572,229.609,263.280,-387.303,-1505.040,-839.490,684.980
379,44450.321000,222.394,-134.287,-126.506,228.689,269.010,-391.100,467.960,-465.490,486.980
380,44450.336000,193.730,31.686,-66.739,240.761,222.035,-414.673,2419.960,151.510,544.980
381,44450.351000,118.610,14.585,-195.237,261.592,179.157,-432.252,1383.960,399.510,336.980
382,44450.351000,116.633,-4.527,-187.268,277.744,149.199,-433.864,1096.960,640.510,206.980
383,44450.351000,109.714,-78.963,-218.148,311.443,131.255,-426.346,1618.960,1177.510,-17.020
384,44450.351000,101.807,-55.827,-203.206,345.019,98.921,-411.302,1567.960,1370.510,-90.020
385,44450.351000,94.888,-90.028,-223.128,372.922,79.238,-392.067,1584.960,1836.510,-343.020
386,44450.373000,143.320,-37.721,-196.233,413.421,58.987,-360.069,1468.960,1887.510,-533.020
387,44450.431000,206.579,-46.774,-204.202,450.222,53.541,-315.002,1116.960,1966.510,-574.020
388,44450.456000,253.035,-35.709,-211.175,481.354,61.674,-267.684,512.960,1808.510,-529.020
389,44450.536000,227.336,-46.774,-218.148,497.093,81.932,-235.820,-275.040,1012.510,-289.020
390,44450.633000,207.568,-11.568,-201.214,502.014,84.547,-207.313,-407.040,615.510,-260.020
391,44450.749000,225.359,-45.768,-178.303,506.030,98.306,-201.115,376.960,546.510,-271.020
392,44450.879000,195.707,7.544,-141.447,508.938,96.630,-190.358,423.960,217.510,-354.020
393,44450.902000,231.290,-100.086,-165.354,507.057,102.415,-191.215,-290.040,-146.490,-366.020
394,44450.919000,223.382,-106.122,-37.852,505.160,106.279,-191.133,436.960,48.510,-36.020
395,44450.971000,236.232,-86.004,-63.751,511.988,110.401,-183.182,-6.040,373.510,-69.020
396,44451.27000,261.931,12.574,-70.724,514.908,109.718,-171.423,201.960,458.510,-88.020
397,44451.27000,269.838,-23.639,-27.891,515.948,115.703,-164.423,70.960,370.510,-111.020
398,44451.27000,267.861,-14.585,-31.875,516.881,110.988,-158.642,-284.040,284.510,-103.020
399,44451.46000,276.757,-5.532,-40.840,522.796,120.019,-147.642,-54.040,561.510,-65.020
400,44451.79000,254.023,-28.668,-16.934,524.769,121.289,-134.861,-133.040,324.510,10.980
401,44451.97000,240.185,-55.827,-28.887,525.738,120.436,-129.974,-213.040,125.510,14.980
402,44451.181000,261.931,-32.692,-36.856,523.766,116.534,-130.065,-152.040,88.510,-43.020
403,44451.181000,256.988,-14.585,-36.856,525.853,130.339,-120.928,-348.040,166.510,-141.020
404,44451.216000,246.116,-56.833,-23.907,526.876,135.289,-116.894,-312.040,227.510,-155.020
405,44451.246000,227.336,-74.939,-19.922,526.916,137.424,-108.020,-225.040,264.510,-157.020
406,44451.246000,245.127,-67.898,1.992,525.053,143.382,-101.027,-102.040,236.510,-126.020
407,44451.288000,262.919,-3.521,-33.868,526.023,143.413,-100.044,24.960,4.510,-172.020
408,44451.323000,245.127,-26.656,-26.895,523.156,148.131,-104.849,144.960,-129.490,-173.020
409,44451.362000,260.942,-29.674,-40.840,525.188,157.880,-103.647,90.960,137.510,-189.020
410,44451.409000,264.896,2.515,-21.914,523.283,159.911,-98.703,-81.040,215.510,-206.020
411,44451.423000,257.977,-2.515,-15.938,521.331,157.087,-93.866,-252.040,180.510,-147.020
412,44451.447000,265.884,-9.556,-7.969,521.410,164.013,-87.828,-203.040,270.510,-114.020
413,44451.484000,254.023,-8.550,-13.946,519.498,165.094,-81.924,-430.040,87.510,-107.020
414,44451.497000,238.208,-43.756,-31.875,520.585,175.934,-74.817,-224.040,233.510,-136.020
415,44451.524000,248.093,-25.650,-7.969,522.604,182.037,-62.909,-58.040,374.510,-153.020
416,44451.548000,246.116,-26.656,-17.930,523.549,178.314,-56.125,110.960,458.510,-148.020
417,44451.602000,257.977,-3.521,8.965,521.696,184.357,-45.208,15.960,406.510,-178.020
418,44451.626000,256.000,-6.538,18.926,520.763,187.325,-42.202,169.960,401.510,-189.020
419,44451.638000,258.965,6.538,6.973,514.075,194.228,-34.218,63.960,421.510,-179.020
420,44451.663000,244.139,-16.597,20.918,517.009,195.443,-24.378,286.960,479.510,-171.020
421,44451.694000,256.000,23.639,27.891,516.149,204.387,-14.374,260.960,449.510,-168.020
422,44451.731000,252.046,-0.503,43.829,516.111,198.734,-6.655,314.960,327.510,-83.020
423,44451.768000,251.058,-7.544,44.825,510.344,202.561,-6.582,276.960,216.510,-107.020
424,44451.812000,258.965,8.550,32.872,518.178,212.345,-6.348,289.960,156.510,-126.020
425,44451.857000,256.000,1.509,32.872,508.545,216.177,-4.322,289.960,113.510,-161.020
426,44451.894000,249.081,10.562,29.883,512.417,216.237,-3.332,215.960,159.510,-181.020
427,44451.912000,251.058,7.544,32.872,511.528,224.016,-2.181,168.960,181.510,-182.020
428,44451.948000,255.012,3.521,44.825,503.802,224.954,-0.215,116.960,160.510,-205.020
429,44451.992000,234.255,51.804,32.872,503.884,232.786,2.901,33.960,90.510,-199.020
430,44452.32000,256.000,7.544,47.813,505.871,237.702,4.976,-83.040,74.510,-146.020
431,44452.68000,253.035,0.503,51.798,501.029,236.727,6.905,57.960,134.510,-218.020
432,44452.109000,240.185,46.774,29.883,500.150,245.499,9.060,-60.040,160.510,-201.020
433,44452.143000,261.931,17.603,46.817,498.224,244.682,16.883,27.960,309.510,-168.020
434,44452.183000,249.081,46.774,41.837,493.479,253.437,20.009,-82.040,320.510,-216.020
435,44452.223000,248.093,15.591,45.821,494.565,263.392,31.020,9.960,395.510,-265.020
436,44452.243000,255.012,20.621,40.840,484.949,267.376,39.914,-3.040,503.510,-379.020
437,44452.283000,247.104,38.727,31.875,476.346,274.454,56.724,-221.040,590.510,-493.020
438,44452.324000,257.977,45.768,28.887,469.728,288.195,66.822,-287.040,779.510,-568.020
439,44452.365000,240.185,56.833,57.774,458.263,298.266,88.595,-155.040,809.510,-549.020
440,44452.403000,219.429,28.668,131.486,448.693,306.219,101.500,243.960,676.510,-367.020
441,44452.456000,231.290,71.921,93.634,446.781,307.300,107.404,210.960,518.510,-232.020
442,44452.488000,210.533,111.151,152.405,441.048,313.220,114.388,-616.040,7.510,-285.020
443,44452.525000,181.869,70.916,150.412,439.102,312.208,113.381,-394.040,-235.490,-157.020
444,44452.565000,161.112,111.151,149.416,440.058,312.110,108.478,292.960,-187.490,-101.020
445,44452.585000,164.077,118.193,180.296,438.108,312.825,97.702,915.960,188.510,-192.020
446,44452.624000,127.506,96.063,88.654,428.621,330.378,105.917,243.960,477.510,-179.020
447,44452.665000,224.371,-24.644,32.872,430.619,334.518,116.800,-597.040,-102.490,158.980
448,44452.703000,269.838,87.010,208.187,442.043,317.889,105.668,92.960,-477.490,593.980
449,44452.745000,249.081,118.193,61.759,451.570,304.240,98.521,-29.040,-766.490,652.980
450,44452.785000,239.197,-29.674,82.677,466.904,292.439,84.562,-455.040,-849.490,682.980
451,44452.850000,278.734,-27.662,-0.996,470.690,285.508,76.571,-267.040,-648.490,619.980
452,44452.885000,261.931,16.597,46.817,484.061,269.890,66.445,18.960,-467.490,618.980
453,44452.892000,271.815,43.756,33.868,489.746,259.117,59.354,-193.040,-521.490,494.980
454,44452.931000,254.023,5.532,48.809,495.407,245.473,54.159,-346.040,-481.490,437.980
455,44452.965000,272.803,-20.621,21.914,496.312,241.362,43.283,-171.040,-382.490,204.980
456,44453.10000,303.444,31.686,114.553,500.178,241.356,41.330,-134.040,-351.490,-20.020
457,44453.45000,425.019,256.000,277.914,495.338,245.689,19.841,563.960,-574.490,4.980
458,44453.85000,378.564,170.499,247.035,498.154,242.244,-5.727,558.960,-1573.490,300.980
459,44453.147000,-199.660,192.629,349.634,482.771,255.340,-21.159,1929.960,402.510,-1635.020
460,44453.165000,72.154,175.528,184.280,437.036,310.054,60.373,0.960,4221.510,-2539.020
461,44453.196000,428.973,-72.927,-274.926,384.467,364.098,114.418,1521.960,3382.510,-1914.020
462,44453.226000,64.247,-301.265,-442.272,372.005,374.762,119.532,-543.040,-482.490,-228.020
463,44453.266000,500.139,298.248,193.245,381.521,356.604,127.974,511.960,742.510,69.980
464,44453.305000,245.127,58.845,36.856,395.831,338.968,113.884,-1067.040,-1691.490,1149.980
465,44453.346000,121.575,-190.617,111.564,419.745,314.587,97.703,-418.040,-1216.490,1127.980
466,44453.387000,327.166,33.697,-8.965,436.008,299.775,78.775,190.960,-767.490,543.980
467,44453.428000,259.954,-4.527,-14.942,445.580,291.843,66.852,105.960,-606.490,454.980
468,44453.468000,259.954,55.827,19.922,451.303,284.953,59.846,11.960,-133.490,284.980
469,44453.508000,260.942,44.762,14.942,453.132,274.271,58.632,-279.040,-75.490,265.980
470,44453.528000,247.104,37.721,37.852,456.061,274.558,70.413,-665.040,4.510,151.980
471,44453.568000,253.035,14.585,43.829,456.922,262.097,77.003,-699.040,-23.490,86.980
472,44453.603000,246.116,23.639,70.724,456.968,265.182,84.916,-730.040,-14.490,-30.020
473,44453.645000,240.185,11.568,72.716,459.862,262.492,93.689,-615.040,-84.490,-72.020
474,44453.685000,240.185,-39.733,61.759,457.885,257.662,95.539,-308.040,-61.490,-65.020
475,44453.730000,248.093,-29.674,62.755,457.889,257.705,97.501,-74.040,-43.490,-64.020
476,44453.765000,256.000,29.674,55.782,456.988,265.376,93.747,-28.040,-31.490,-62.020
477,44453.806000,248.093,34.703,50.802,457.974,266.443,97.695,-181.040,-60.490,-55.020
478,44453.826000,249.081,16.597,52.794,457.995,268.406,98.719,-217.040,-50.490,-53.020
479,44453.866000,252.046,10.562,43.829,459.942,269.417,99.727,-183.040,16.510,-60.020
480,44453.906000,239.197,30.680,67.735,456.982,262.679,103.493,-371.040,-45.490,-84.020
481,44453.950000,229.313,23.639,100.607,457.039,268.504,103.623,-280.040,-136.490,-46.020
482,44453.985000,252.046,15.591,62.755,455.036,261.668,102.486,-181.040,-184.490,-26.020
483,44454.26000,247.104,13.580,69.728,456.027,264.547,100.591,-262.040,-277.490,-4.020
484,44454.66000,248.093,-24.644,25.899,459.895,265.448,95.716,18.960,-210.490,63.980
485,44454.107000,258.965,25.650,38.848,460.839,263.472,93.713,97.960,-166.490,23.980
486,44454.150000,249.081,33.697,24.903,459.811,259.363,83.813,42.960,-173.490,35.980
487,44454.170000,245.127,3.521,67.735,459.826,261.262,81.893,13.960,-260.490,87.980
488,44454.218000,256.988,63.874,79.689,461.767,264.862,68.248,-24.040,-553.490,137.980
489,44454.247000,311.351,83.992,133.479,469.355,253.805,47.425,55.960,-981.490,235.980
490,44454.287000,425.019,39.733,127.502,472.230,256.207,22.968,56.960,-1452.490,190.980
491,44454.327000,398.332,-29.674,25.899,470.167,250.557,-12.466,54.960,-1378.490,-10.020
492,44454.368000,413.158,-57.839,20.918,460.510,258.554,-41.729,-62.040,-1287.490,78.980
493,44454.414000,406.239,-43.756,-63.751,457.522,256.821,-75.116,385.960,-1057.490,142.980
494,44454.454000,354.842,-15.591,-95.626,448.731,254.169,-103.632,442.960,-952.490,155.980
495,44454.468000,264.896,8.550,-104.591,445.721,248.704,-130.238,635.960,-564.490,184.980
496,44454.510000,198.672,-0.503,-129.494,437.888,242.458,-146.084,811.960,-246.490,260.980
497,44454.550000,102.795,-35.709,-137.463,432.911,230.502,-158.127,931.960,-7.490,247.980
498,44454.585000,44.479,-4.527,-170.335,432.811,223.382,-172.996,947.960,84.510,204.980
499,44454.626000,25.699,-3.521,-165.354,435.646,218.362,-181.927,568.960,-204.490,245.980
500,44454.666000,-40.525,8.550,-165.354,434.520,205.387,-197.908,210.960,-596.490,350.980
501,44454.706000,-48.432,-29.674,-198.226,426.585,190.230,-221.797,102.960,-1127.490,535.980
502,44454.751000,-37.560,-35.709,-209.183,423.531,180.817,-251.432,-300.040,-1642.490,693.980
503,44454.766000,59.305,-82.986,-238.070,414.680,171.434,-277.156,-457.040,-2024.490,806.980
504,44454.805000,84.015,-87.010,-233.089,394.155,159.543,-323.555,-881.040,-2449.490,849.980
505,44454.850000,128.494,-99.081,-251.019,365.910,148.655,-365.044,-690.040,-2352.490,712.980
506,44454.895000,104.772,-90.028,-271.938,331.944,146.426,-407.333,-884.040,-2250.490,569.980
507,44454.940000,167.042,-76.951,-297.837,295.114,146.305,-440.756,-874.040,-2046.490,524.980
508,44454.965000,173.961,-71.921,-289.868,255.536,159.964,-464.072,-1242.040,-1657.490,360.980
509,44455.11000,216.463,-46.774,-273.930,217.979,179.747,-474.499,-1424.040,-1251.490,249.980
510,44455.46000,222.394,-35.709,-227.113,202.700,200.006,-473.101,-1404.040,-684.490,199.980
511,44455.86000,223.382,-26.656,-174.319,184.587,226.170,-466.675,-1294.040,-191.490,220.980
512,44455.106000,234.255,-11.568,-163.362,184.738,238.187,-449.736,-785.040,598.510,183.980
513,44455.147000,249.081,0.503,-101.603,195.515,249.272,-435.738,-544.040,938.510,121.980
514,44455.203000,263.907,-10.562,-49.805,227.500,251.913,-417.960,20.960,1321.510,63.980
515,44455.226000,237.220,27.662,-48.809,249.698,243.694,-404.367,277.960,1605.510,-243.020
516,44455.268000,233.266,-13.580,-5.977,268.139,247.088,-390.523,527.960,1765.510,-459.020
517,44455.388000,246.116,1.509,1.992,295.045,226.230,-380.142,934.960,1803.510,-347.020
518,44455.440000,198.672,14.585,-67.735,320.139,215.343,-356.795,507.960,1798.510,-133.020
519,44455.453000,170.008,-81.980,-402.428,330.871,221.595,-341.924,-439.040,175.510,323.980
520,44455.462000,175.938,-2.515,-136.467,328.634,193.141,-355.309,1422.960,-214.490,543.980
521,44455.470000,307.398,92.039,-166.350,330.242,160.086,-358.981,1178.960,338.510,300.980
522,44455.487000,323.212,4.527,-47.813,324.333,149.349,-359.232,413.960,143.510,314.980
523,44455.528000,343.969,6.538,-155.393,330.107,145.587,-356.361,-223.040,-64.490,357.980
524,44455.568000,316.293,-48.786,-109.572,333.889,136.866,-357.527,166.960,30.510,289.980
525,44455.613000,267.861,-7.544,-130.490,330.959,133.925,-357.599,188.960,12.510,73.980
526,44455.649000,158.147,-100.086,-169.339,332.931,137.827,-357.508,139.960,122.510,-83.020
527,44455.702000,199.660,-25.650,-156.389,330.975,134.960,-354.634,-40.040,120.510,-177.020
528,44455.720000,237.220,25.650,-154.397,330.118,145.695,-351.455,-192.040,-151.490,-1.020
529,44455.748000,254.023,-0.503,-126.506,326.162,137.783,-356.543,-59.040,-202.490,135.980
530,44455.800000,220.417,-48.786,-141.447,323.253,138.574,-363.396,38.960,-376.490,133.980
531,44455.855000,220.417,-51.804,-141.447,322.246,134.660,-364.466,238.960,-85.490,-13.020
532,44456.1000,214.486,-26.656,-146.428,322.135,123.916,-367.646,119.960,-214.490,113.980
533,44456.26000,206.579,-6.538,-187.268,315.328,121.757,-374.573,97.960,-316.490,173.980
534,44456.113000,162.100,4.527,-205.198,312.509,131.329,-379.270,-543.040,-259.490,252.980
535,44456.113000,198.672,-17.603,-157.385,313.552,139.106,-379.095,-450.040,-220.490,230.980
536,44456.122000,245.127,-74.939,-110.568,311.639,141.935,-381.978,-494.040,-313.490,61.980
537,44456.130000,165.066,-49.792,-176.311,305.882,148.502,-389.690,-196.040,-404.490,-209.020
538,44456.155000,178.903,-24.644,-167.346,299.100,147.465,-389.727,-204.040,-242.490,-262.020
539,44456.164000,172.973,-3.521,-168.342,293.475,166.739,-393.234,-457.040,-329.490,-253.020
540,44456.181000,213.498,-9.556,-154.397,284.875,178.240,-395.939,-371.040,-410.490,-314.020
541,44456.202000,266.873,14.585,-119.533,273.415,194.524,-400.505,-711.040,-602.490,-372.020
542,44456.241000,247.104,50.798,-135.471,263.816,203.081,-404.258,-252.040,-639.490,-576.020
543,44456.276000,297.514,7.544,-135.471,244.454,203.648,-414.093,-51.040,-663.490,-511.020
544,44456.322000,214.486,-63.874,-176.311,235.856,216.055,-419.719,-462.040,-299.490,-400.020
545,44456.401000,246.116,-137.305,-273.930,238.017,239.374,-419.197,-934.040,-458.490,194.980
546,44456.442000,291.583,-89.022,-160.374,239.147,255.025,-413.944,-858.040,-484.490,669.980
547,44456.457000,198.672,-30.680,-86.661,245.916,254.185,-411.006,-741.040,-452.490,457.980
548,44456.480000,217.452,-37.721,22.911,262.109,229.901,-419.357,1190.960,333.510,581.980
549,44456.531000,203.614,62.868,-85.665,281.239,207.738,-420.789,1468.960,725.510,439.980
550,44456.539000,171.985,39.733,-90.646,315.878,187.776,-417.236,924.960,1206.510,-104.020
551,44456.583000,192.741,33.697,-161.370,360.330,177.163,-389.920,1005.960,1701.510,-264.020
552,44456.620000,185.822,47.780,-171.331,404.842,168.880,-344.899,697.960,2113.510,-327.020
553,44456.661000,195.707,33.697,-207.191,439.837,173.470,-283.923,319.960,2283.510,-355.020
554,44456.702000,212.510,41.745,-242.054,463.354,188.884,-210.962,15.960,2341.510,-462.020
555,44456.737000,241.174,3.521,-262.973,466.434,199.419,-174.437,247.960,2143.510,-505.020
556,44456.782000,211.521,-6.538,-265.961,472.476,214.082,-128.008,425.960,1714.510,-517.020
557,44456.817000,220.417,-32.692,-256.996,469.767,228.228,-101.222,790.960,1341.510,-589.020
558,44456.837000,226.347,-39.733,-201.214,465.968,232.397,-86.427,1033.960,923.510,-528.020
559,44456.877000,221.405,-66.892,-183.284,463.136,238.324,-80.418,712.960,467.510,-288.020
560,44456.920000,233.266,-79.969,-123.518,463.185,243.199,-79.329,222.960,244.510,4.980
561,44456.960000,226.347,1.509,-111.564,466.038,238.352,-80.411,-117.040,-159.490,197.980
562,44457.3000,239.197,-48.786,-46.817,468.978,241.379,-76.415,-144.040,146.510,123.980
563,44457.37000,246.116,26.656,-46.817,470.865,235.659,-72.615,56.960,215.510,120.980
564,44457.81000,260.942,11.568,-16.934,470.810,228.971,-67.861,153.960,207.510,91.980
565,44457.120000,256.988,-31.686,-64.747,472.698,223.251,-64.061,509.960,398.510,98.980
566,44457.141000,243.151,1.509,-32.872,473.721,227.316,-56.123,292.960,568.510,121.980
567,44457.181000,274.780,44.762,-21.914,480.463,220.047,-36.657,-403.040,497.510,272.980
568,44457.222000,255.012,-39.733,0.000,485.329,219.490,-19.988,-397.040,669.510,162.980
569,44457.262000,264.896,-11.568,-0.996,489.223,218.880,-5.284,-413.040,647.510,27.980
570,44457.302000,256.988,-12.574,-0.996,483.383,211.445,12.191,-330.040,525.510,-90.020
571,44457.341000,243.151,-22.633,21.914,485.451,222.423,25.188,-432.040,429.510,-170.020
572,44457.380000,250.069,-6.538,19.922,483.597,227.582,40.008,-411.040,349.510,-202.020
573,44457.421000,246.116,-9.556,24.903,480.750,231.610,47.937,-363.040,271.510,-184.020
574,44457.461000,251.058,4.527,13.946,475.841,222.070,57.521,-374.040,269.510,-169.020
575,44457.481000,239.197,-30.680,51.798,474.991,232.870,63.643,-147.040,269.510,-141.020
576,44457.522000,243.151,-14.585,32.872,475.995,234.993,71.538,-69.040,146.510,-73.020
577,44457.561000,254.023,42.750,12.949,470.205,236.835,69.605,281.960,114.510,-34.020
578,44457.602000,268.849,9.556,25.899,470.212,236.900,72.549,79.960,122.510,-17.020
579,44457.642000,248.093,-8.550,44.825,471.174,235.982,74.492,493.960,425.510,-93.020
580,44457.682000,256.000,10.562,47.813,468.300,237.981,78.453,302.960,270.510,-146.020
581,44457.722000,250.069,11.568,39.844,464.054,-0.784,77.067,278.960,289.510,-96.020
582,44457.771000,249.081,12.574,32.872,465.564,253.638,85.659,128.960,353.510,-104.020
583,44457.785000,252.046,20.621,35.860,454.921,251.765,93.440,43.960,369.510,-146.020
584,44457.818000,237.220,18.609,76.700,454.965,254.829,100.373,-96.040,314.510,-191.020
585,44457.861000,239.197,16.597,79.689,456.003,260.793,106.392,32.960,149.510,-114.020
586,44457.901000,238.208,3.521,79.689,454.106,264.657,106.473,64.960,64.510,-107.020
587,44457.961000,234.255,16.597,72.716,455.085,265.659,107.478,32.960,-17.490,-150.020
588,44457.981000,247.104,4.527,61.759,450.290,270.423,105.613,131.960,-56.490,-125.020
589,44458.21000,254.023,12.574,53.790,448.320,267.427,102.600,202.960,72.510,-148.020
590,44458.61000,256.000,43.756,60.763,446.510,280.051,103.857,94.960,66.510,-124.020
591,44458.101000,247.104,29.674,61.759,442.638,279.992,102.867,84.960,66.510,-120.020
592,44458.121000,238.208,18.609,70.724,442.669,282.926,103.913,93.960,117.510,-156.020
593,44458.161000,252.046,23.639,44.825,435.955,287.822,108.911,186.960,212.510,-162.020
594,44458.202000,255.012,42.750,58.770,434.079,293.650,110.017,-42.040,215.510,-184.020
595,44458.242000,246.116,29.674,55.782,431.197,294.700,114.937,-83.040,213.510,-213.020
596,44458.282000,255.012,33.697,52.794,429.266,292.956,124.701,-249.040,303.510,-294.020
597,44458.323000,230.301,33.697,66.739,420.655,300.832,133.684,-266.040,431.510,-358.020
598,44458.361000,233.266,65.886,72.716,412.078,310.801,149.577,-356.040,583.510,-382.020
599,44458.401000,219.429,66.892,107.580,409.221,312.088,165.291,-298.040,519.510,-303.020
600,44458.421000,221.405,29.674,98.615,397.625,311.220,175.053,-169.040,414.510,-229.020
601,44458.458000,237.220,42.750,109.572,394.792,317.146,181.063,-71.040,351.510,-206.020
602,44458.501000,208.556,52.809,108.576,388.027,317.145,183.991,139.960,236.510,-116.020
603,44458.541000,223.382,53.815,114.553,388.053,319.151,186.977,-65.040,53.510,-58.020
604,44458.580000,217.452,61.862,110.568,389.053,323.001,185.104,1.960,-59.490,-17.020
605,44458.619000,233.266,53.815,86.661,388.100,324.006,187.085,-74.040,-63.490,-11.020
606,44458.662000,230.301,59.851,93.634,388.994,317.154,183.993,-27.040,-23.490,-24.020
607,44458.701000,224.371,53.815,91.642,388.071,321.093,187.020,-60.040,25.510,-8.020
608,44458.741000,222.394,67.898,131.486,385.148,319.102,185.989,-48.040,76.510,-80.020
609,44458.761000,237.220,35.709,130.490,388.048,318.224,188.918,30.960,-132.490,-84.020
610,44458.802000,251.058,69.910,202.210,387.136,327.556,172.452,591.960,-461.490,-66.020
611,44458.842000,180.880,138.310,126.506,387.200,339.617,147.223,1098.960,-515.490,-2.020
612,44458.880000,161.112,63.874,175.315,380.510,350.015,137.633,669.960,439.510,-306.020
613,44458.919000,150.239,126.240,193.245,357.437,359.993,160.361,231.960,1529.510,-637.020
614,44458.964000,207.568,79.969,107.580,338.173,365.025,177.103,-430.040,1636.510,-677.020
615,44459.5000,182.857,23.639,34.864,318.029,377.923,198.921,41.960,967.510,-270.020
616,44459.40000,124.541,33.697,-6.973,319.944,378.633,186.193,557.960,-298.490,323.980
617,44459.60000,186.811,172.511,339.673,331.459,373.438,165.508,645.960,-778.490,536.980
618,44459.102000,325.189,106.122,85.665,350.729,368.471,151.709,-114.040,-1120.490,882.980
619,44459.140000,283.676,-3.521,46.817,379.412,339.951,121.716,-172.040,-1878.490,1190.980
620,44459.182000,188.788,23.639,64.747,405.364,329.785,89.184,92.960,-1611.490,1001.980
621,44459.227000,277.745,-71.921,-31.875,419.727,317.931,73.260,86.960,-1308.490,990.980
622,44459.260000,266.873,32.692,0.000,433.081,304.795,43.577,332.960,-1048.490,652.980
623,44459.305000,266.873,31.686,-5.977,442.529,285.990,22.586,-145.040,-817.490,581.980
624,44459.344000,263.907,-22.633,8.965,447.276,279.004,11.653,-77.040,-572.490,483.980
625,44459.385000,264.896,7.544,12.949,453.994,275.035,4.715,158.960,-298.490,239.980
626,44459.403000,257.977,-3.521,11.953,453.966,273.007,0.747,111.960,-168.490,103.980
627,44459.443000,249.081,-12.574,25.899,451.039,271.857,-6.149,274.960,-71.490,29.980
628,44459.482000,253.035,30.680,11.953,453.904,268.887,-10.132,181.960,-54.490,40.980
629,44459.524000,249.081,64.880,8.965,454.827,264.063,-9.256,127.960,22.510,57.980
630,44459.563000,251.058,51.804,10.957,453.925,269.965,-5.205,-144.040,111.510,110.980
631,44459.603000,259.954,11.568,18.926,457.744,263.358,1.521,-443.040,218.510,204.980
632,44459.694000,254.023,5.532,23.907,461.624,261.734,14.242,-412.040,226.510,163.980
633,44459.711000,255.012,16.597,23.907,459.632,254.121,21.914,-373.040,152.510,105.980
634,44459.717000,247.104,0.503,52.794,463.516,255.173,23.907,-202.040,98.510,80.980
635,44459.778000,250.069,-8.550,31.875,456.694,250.231,22.802,-150.040,8.510,25.980
636,44459.794000,249.081,-1.509,45.821,460.627,256.159,25.884,-164.040,-33.490,12.980
637,44459.823000,251.058,-1.509,36.856,462.546,254.257,26.827,-191.040,-94.490,33.980
638,44459.918000,254.023,11.568,22.911,464.403,246.488,25.677,-172.040,-167.490,-14.020
639,44460.13000,255.012,4.527,19.922,460.602,254.152,22.898,-201.040,-169.490,-40.020
640,44460.28000,253.035,2.515,20.918,461.592,256.146,24.905,-126.040,-109.490,-54.020
641,44460.83000,254.023,12.574,21.914,459.681,258.997,23.003,-116.040,-74.490,-60.020
642,44460.91000,252.046,4.527,30.879,459.674,258.048,23.963,-51.040,-24.490,-83.020
643,44460.97000,256.988,10.562,21.914,459.707,261.888,22.087,-43.040,-50.490,-104.020
644,44460.113000,256.000,1.509,23.907,457.716,256.044,21.953,-37.040,-97.490,-138.020
645,44460.134000,249.081,11.568,32.872,451.964,262.654,16.203,-69.040,-172.490,-162.020
646,44460.174000,262.919,38.727,26.895,456.844,268.397,10.457,-30.040,-274.490,-109.020
647,44460.195000,274.780,42.750,32.872,454.884,266.372,7.466,-184.040,-441.490,-82.020
648,44460.234000,307.398,66.892,29.883,454.941,273.966,-0.210,-356.040,-540.490,-66.020
649,44460.275000,393.390,80.974,102.599,453.984,276.697,-7.997,-370.040,-453.490,-100.020
650,44460.311000,395.367,-42.750,27.891,448.082,269.542,-21.898,224.960,-639.490,107.980
651,44460.357000,465.544,-44.762,-69.728,448.031,269.931,-48.367,-267.040,-1155.490,420.980
652,44460.392000,354.842,-30.680,-85.665,449.773,255.775,-75.155,-327.040,-1394.490,428.980
653,44460.432000,330.131,-42.750,-100.607,449.633,248.267,-107.684,290.960,-1247.490,459.980
654,44460.472000,205.591,19.615,-119.533,442.818,248.676,-130.245,297.960,-1136.490,432.980
655,44460.493000,94.888,-16.597,-159.377,433.853,228.505,-161.112,720.960,-962.490,423.980
656,44460.536000,40.525,-13.580,-211.175,428.812,214.176,-192.822,864.960,-1039.490,444.980
657,44460.573000,-20.757,-30.680,-203.206,421.855,203.538,-232.299,409.960,-1398.490,663.980
658,44460.615000,11.861,-36.715,-207.191,406.032,176.311,-272.163,215.960,-1826.490,859.980
659,44460.654000,11.861,-22.633,-193.245,390.251,154.780,-317.785,-241.040,-2205.490,1028.980
660,44460.697000,2.965,-26.656,-179.300,372.676,144.255,-347.475,-450.040,-2510.490,1081.980
661,44460.731000,23.722,-39.733,-169.339,331.793,127.376,-391.085,-717.040,-2529.490,981.980
662,44460.777000,19.768,-43.756,-202.210,295.023,133.986,-427.300,-1249.040,-2208.490,802.980
663,44460.812000,59.305,-68.904,-227.113,262.163,142.792,-453.652,-1410.040,-1773.490,562.980
664,44460.832000,81.050,-39.733,-247.035,236.286,170.412,-465.842,-1719.040,-1075.490,148.980
665,44460.878000,147.274,-123.222,-266.957,216.225,197.312,-469.210,-1824.040,-579.490,-127.020
666,44460.915000,220.417,-19.615,-229.105,210.623,216.802,-462.905,-924.040,415.510,-384.020
667,44460.956000,251.058,-10.562,-209.183,211.724,229.541,-457.717,-660.040,935.510,-403.020
668,44460.996000,286.641,2.515,-151.409,221.512,238.653,-444.745,-64.040,1184.510,-221.020
669,44461.48000,275.768,3.521,-133.479,248.616,238.183,-433.911,524.960,1411.510,-95.020
670,44461.74000,236.232,32.692,-112.560,265.913,223.143,-419.499,354.960,1481.510,-55.020
671,44461.114000,204.602,-23.639,-75.704,281.475,228.493,-403.657,-324.040,1253.510,-276.020
672,44461.134000,221.405,-22.633,-101.603,298.031,236.744,-388.729,155.960,1170.510,-278.020
673,44461.174000,205.591,-20.621,-68.732,309.534,225.271,-386.017,429.960,769.510,113.980
674,44461.256000,149.251,-35.709,-180.296,315.279,217.712,-379.308,-46.040,371.510,406.980
675,44461.272000,158.147,-97.069,-302.817,312.364,215.807,-376.414,-140.040,-205.490,572.980
676,44461.293000,220.417,-8.550,-158.381,311.089,185.550,-383.953,1226.960,119.510,357.980
677,44461.341000,269.838,8.550,-97.619,313.878,173.043,-380.302,333.960,439.510,476.980
678,44461.405000,284.664,43.756,-159.377,324.499,168.551,-368.612,-407.040,520.510,534.980
679,44461.441000,361.761,189.611,-263.969,330.281,163.991,-357.914,63.960,637.510,196.980
680,44461.448000,484.324,36.715,-58.770,335.947,149.506,-357.243,862.960,195.510,478.980
681,44461.476000,163.089,-45.768,-222.132,341.615,135.927,-359.493,113.960,131.510,361.980
682,44461.513000,223.382,-48.786,-144.436,345.440,130.247,-354.708,302.960,349.510,-81.020
683,44461.555000,206.579,-24.644,-171.331,354.132,127.549,-348.866,238.960,399.510,-117.020
684,44461.593000,214.486,-47.780,-123.518,361.953,134.572,-341.829,158.960,458.510,-206.020
685,44461.652000,208.556,-31.686,-137.463,368.703,130.905,-335.031,165.960,431.510,-235.020
686,44461.673000,224.371,-22.633,-115.549,371.658,133.199,-320.264,254.960,557.510,-205.020
687,44461.763000,211.521,-24.644,-110.568,378.416,131.366,-318.329,277.960,551.510,-139.020
688,44461.827000,203.614,-0.503,-119.533,385.197,131.518,-314.389,142.960,309.510,65.980
689,44461.836000,211.521,-22.633,-105.588,388.061,126.779,-310.565,-18.040,95.510,231.980
690,44461.852000,225.359,-44.762,-99.611,388.068,127.728,-311.525,-113.040,-226.490,239.980
691,44461.879000,226.347,-25.650,-114.553,385.077,119.803,-317.591,-196.040,-361.490,234.980
692,44461.896000,226.347,-39.733,-136.467,379.256,118.711,-320.570,-136.040,-330.490,259.980
693,44461.942000,226.347,-38.727,-128.498,379.188,112.778,-325.605,-15.040,-178.490,157.980
694,44461.972000,220.417,-40.739,-123.518,375.389,120.464,-327.404,-52.040,-222.490,106.980
695,44462.17000,240.185,-35.709,-125.510,375.348,117.422,-333.355,-123.040,-320.490,75.980
696,44462.53000,230.301,-20.621,-147.424,368.593,120.161,-338.212,-240.040,-388.490,28.980
697,44462.87000,210.533,-38.727,-137.463,359.903,123.765,-346.976,-171.040,-439.490,-4.020
698,44462.116000,208.556,-47.780,-134.475,353.141,126.439,-354.776,-128.040,-471.490,-26.020
699,44462.188000,216.463,-33.697,-133.479,346.370,128.143,-362.598,-161.040,-580.490,-70.020
700,44462.228000,216.463,-10.562,-147.424,340.602,133.717,-371.312,-150.040,-702.490,-46.020
701,44462.257000,215.475,-23.639,-143.440,325.101,134.235,-385.063,-181.040,-907.490,-38.020
702,44462.308000,225.359,-43.756,-161.370,308.613,132.802,-398.859,-173.040,-945.490,-143.020
703,44462.324000,217.452,-39.733,-165.354,295.068,135.302,-411.580,151.960,-698.490,-302.020
704,44462.362000,240.185,-23.639,-173.323,280.635,144.718,-418.266,-37.040,-602.490,-332.020
705,44462.395000,228.324,20.621,-172.327,270.020,149.275,-427.014,-363.040,-727.490,-328.020
706,44462.416000,174.950,2.515,-180.296,266.286,165.505,-437.448,-276.040,-476.490,-461.020
707,44462.456000,164.077,-17.603,-178.303,262.548,179.059,-437.155,-266.040,-204.490,-500.020
708,44462.493000,177.915,-11.568,-195.237,260.651,182.924,-437.074,-418.040,3.510,-362.020
709,44462.536000,156.170,-36.715,-164.358,263.744,201.506,-431.751,-716.040,21.510,-287.020
710,44462.626000,160.124,-45.768,-221.136,269.806,226.050,-421.387,-916.040,128.510,-59.020
711,44462.693000,161.112,-3.521,-193.245,280.622,241.903,-411.206,-742.040,190.510,98.980
712,44462.738000,146.286,23.639,-160.374,288.487,251.989,-397.236,-903.040,150.510,206.980
713,44462.793000,204.602,-70.916,-116.545,291.591,269.795,-383.105,-1069.040,-21.490,187.980
714,44462.799000,144.309,24.644,-65.743,304.975,254.307,-387.343,618.960,178.510,371.980
715,44462.836000,167.042,-18.609,-97.619,315.715,263.278,-381.238,91.960,88.510,276.980
716,44462.894000,197.683,-19.615,-187.268,323.405,257.593,-378.406,-146.040,-93.490,206.980
717,44462.899000,167.042,90.028,-174.319,331.062,249.837,-381.504,460.960,9.510,121.980
718,44462.914000,161.112,55.827,-131.486,336.031,259.075,-360.694,-1213.040,237.510,60.980
719,44462.931000,222.394,-38.727,-69.728,349.703,268.354,-341.827,-689.040,618.510,346.980
720,44462.953000,181.869,-3.521,-133.479,376.775,261.412,-316.427,387.960,1238.510,382.980
721,44462.993000,195.707,-53.815,-131.486,409.596,248.723,-290.161,1277.960,1660.510,329.980
722,44463.17000,159.135,-43.756,-193.245,443.229,218.697,-258.395,1916.960,2003.510,183.980
723,44463.53000,196.695,-24.644,-154.397,466.358,200.455,-215.602,1137.960,2147.510,97.980
724,44463.97000,211.521,19.615,-259.984,484.746,190.127,-163.818,74.960,1887.510,352.980
725,44463.134000,228.324,-8.550,-268.949,490.638,191.025,-125.540,-159.040,1331.510,388.980
726,44463.176000,169.019,48.786,-243.051,494.462,183.576,-112.948,-179.040,329.510,469.980
727,44463.218000,151.228,55.827,-255.004,499.275,180.754,-111.039,-422.040,-50.490,197.980
728,44463.257000,210.533,80.974,-176.311,499.249,177.863,-110.123,245.960,191.510,-99.020
729,44463.298000,290.595,-22.633,-48.809,498.271,175.113,-102.341,173.960,329.510,-68.020
730,44463.337000,291.583,-41.745,-9.961,499.259,175.317,-93.508,-178.040,331.510,55.980
731,44463.358000,267.861,19.615,-73.712,504.070,171.588,-88.677,19.960,187.510,50.980
732,44463.393000,247.104,-18.609,-73.712,501.252,179.413,-84.587,181.960,201.510,33.980
733,44463.434000,239.197,-37.721,-55.782,506.102,179.590,-78.689,84.960,247.510,-6.020
734,44463.476000,244.139,-5.532,-50.802,510.904,174.890,-73.880,47.960,174.510,39.980
735,44463.517000,246.116,-13.580,-52.794,506.954,167.043,-76.024,162.960,72.510,72.980
736,44463.557000,247.104,-31.686,-46.817,508.929,170.967,-74.952,109.960,42.510,80.980
737,44463.597000,254.023,-10.562,-67.735,509.894,170.070,-72.028,208.960,158.510,46.980
738,44463.637000,256.988,-27.662,-73.712,512.805,169.300,-64.193,64.960,221.510,81.980
739,44463.657000,241.174,-25.650,-67.735,509.887,166.488,-58.378,-24.040,432.510,59.980
740,44463.694000,253.035,-23.639,-39.844,513.697,158.026,-47.770,45.960,475.510,33.980
741,44463.735000,250.069,-29.674,-29.883,513.708,157.249,-38.962,71.960,380.510,-18.020
742,44463.779000,258.965,-26.656,-19.922,514.823,171.001,-31.789,82.960,248.510,-82.020
743,44463.823000,248.093,-24.644,-39.844,509.934,165.172,-29.968,81.960,216.510,-133.020
744,44463.856000,256.988,-13.580,-44.825,513.911,174.163,-19.953,59.960,294.510,-118.020
745,44463.907000,255.012,-22.633,-31.875,513.946,177.141,-16.945,-98.040,350.510,-152.020
746,44463.934000,251.058,-17.603,-18.926,511.102,181.190,-8.035,-85.040,305.510,-178.020
747,44463.979000,248.093,0.503,-27.891,511.146,184.253,-1.103,-47.040,298.510,-105.020
748,44463.998000,259.954,-11.568,-26.895,511.185,186.389,7.771,-60.040,340.510,-98.020
749,44464.34000,253.035,-18.609,-17.930,509.317,191.419,16.705,-76.040,432.510,-111.020
750,44464.74000,250.069,-12.574,-6.973,508.339,187.785,28.390,92.960,514.510,-104.020
751,44464.116000,251.058,-12.574,10.957,505.473,188.986,40.178,169.960,478.510,-104.020
752,44464.157000,254.023,-4.527,5.977,501.664,193.932,46.164,120.960,422.510,-95.020
753,44464.198000,254.023,0.503,16.934,501.760,201.893,55.167,75.960,413.510,-68.020
754,44464.238000,252.046,-2.515,13.946,501.778,202.066,63.016,48.960,371.510,-37.020
755,44464.277000,247.104,-2.515,25.899,500.771,196.404,70.734,-9.040,308.510,-24.020
756,44464.304000,245.127,-18.609,44.825,500.816,199.467,77.666,5.960,143.510,-21.020
757,44464.338000,255.012,-23.639,29.883,497.972,206.171,74.867,157.960,17.510,-76.020
758,44464.379000,255.012,-0.503,24.903,499.902,205.262,76.812,136.960,41.510,-41.020
759,44464.419000,255.012,6.538,20.918,500.870,205.271,76.815,211.960,158.510,-14.020
760,44464.459000,261.931,-16.597,15.938,499.970,211.195,81.847,216.960,231.510,-16.020
761,44464.496000,248.093,5.532,25.899,497.025,206.355,83.695,161.960,364.510,-33.020
762,44464.537000,259.954,-15.591,32.872,493.232,211.452,96.549,67.960,378.510,-31.020
763,44464.578000,246.116,20.621,24.903,495.244,218.375,101.610,-56.040,352.510,-45.020
764,44464.618000,249.081,6.538,43.829,489.387,211.652,107.332,-66.040,304.510,1.980
765,44464.637000,240.185,27.662,58.770,490.379,212.783,114.224,-251.040,198.510,4.980
766,44464.682000,264.896,-10.562,19.922,490.379,211.014,122.030,-412.040,243.510,-57.020
767,44464.719000,258.965,3.521,41.837,485.479,201.560,135.539,-443.040,476.510,-115.020
768,44464.756000,250.069,2.515,59.767,482.725,213.527,151.490,-442.040,581.510,-146.020
769,44464.802000,235.243,-9.556,69.728,474.047,212.838,168.128,-339.040,689.510,-159.020
770,44464.837000,232.278,-23.639,91.642,472.172,215.149,185.827,-170.040,545.510,-159.020
771,44464.877000,253.035,1.509,110.568,465.464,219.226,197.671,-105.040,502.510,-196.020
772,44464.918000,263.907,9.556,211.175,460.592,216.201,194.652,241.960,64.510,-206.020
773,44464.947000,249.081,92.039,152.405,460.722,234.173,173.476,1678.960,-493.490,-122.020
774,44464.976000,151.228,73.933,219.144,459.004,261.770,149.569,2254.960,353.510,-216.020
775,44465.17000,156.170,114.169,191.253,434.061,280.273,163.656,976.960,1410.510,-691.020
776,44465.58000,235.243,26.656,150.412,408.196,299.199,197.364,117.960,1666.510,-792.020
777,44465.97000,194.718,58.845,93.634,380.369,318.731,215.391,715.960,1523.510,-671.020
778,44465.138000,158.147,16.597,52.794,361.182,333.299,224.500,606.960,942.510,-398.020
779,44465.184000,144.309,9.556,15.938,348.745,348.603,219.910,883.960,350.510,-151.020
780,44465.218000,142.332,-22.633,-38.848,350.762,361.739,198.631,1631.960,-238.490,262.980
781,44465.238000,232.278,122.216,322.739,357.473,361.223,172.156,957.960,-143.490,528.980
782,44465.278000,280.710,204.699,40.840,370.813,341.786,164.888,-946.040,-987.490,661.980
783,44465.318000,296.525,11.568,47.813,404.456,322.419,151.781,-795.040,-1722.490,1071.980
784,44465.358000,254.023,-64.880,13.946,424.532,302.703,128.830,-265.040,-1506.490,973.980
785,44465.398000,218.440,-107.128,95.626,431.190,294.636,111.994,-331.040,-1208.490,683.980
786,44465.438000,263.907,40.739,40.840,442.631,283.444,83.330,686.960,-948.490,568.980
787,44465.479000,258.965,28.668,16.934,454.975,264.602,59.402,360.960,-870.490,467.980
788,44465.519000,256.000,-27.662,33.868,456.801,257.415,40.614,382.960,-741.490,378.980
789,44465.559000,269.838,22.633,-15.938,460.647,258.985,22.024,334.960,-512.490,163.980
790,44465.579000,265.884,29.674,-14.942,459.621,254.898,13.105,-91.040,-370.490,164.980
791,44465.641000,263.907,19.615,3.984,465.414,253.962,12.116,-12.040,1.510,182.980
792,44465.656000,257.977,2.515,10.957,466.336,248.254,16.895,-53.040,154.510,106.980
793,44465.697000,256.000,12.574,18.926,465.342,244.469,21.712,-197.040,214.510,45.980
794,44465.737000,252.046,-1.509,27.891,464.423,247.566,30.605,-299.040,230.510,20.980
795,44465.783000,252.046,-3.521,30.879,467.337,246.818,39.420,-166.040,273.510,-47.020
796,44465.817000,248.093,9.556,36.856,466.460,254.726,46.459,-179.040,275.510,-92.020
797,44465.858000,248.093,6.538,45.821,467.347,245.157,52.132,-157.040,228.510,-73.020
798,44465.878000,250.069,2.515,42.833,459.703,253.042,61.117,-185.040,175.510,-77.020
799,44465.919000,248.093,17.603,38.848,460.670,252.167,65.022,-110.040,181.510,-104.020
800,44465.961000,245.127,-0.503,50.802,455.842,252.206,68.935,-122.040,93.510,-82.020
801,44465.996000,247.104,11.568,53.790,457.816,255.245,73.910,-165.040,69.510,-98.020
802,44466.39000,248.093,9.556,49.805,458.795,256.247,74.915,-78.040,48.510,-66.020
803,44466.79000,239.197,24.644,68.732,455.886,255.270,75.868,-256.040,-65.490,-25.020
804,44466.119000,236.232,-0.503,73.712,456.818,252.302,72.862,-84.040,-251.490,43.980
805,44466.159000,243.151,2.515,54.786,457.787,254.080,65.059,-21.040,-406.490,79.980
806,44466.198000,249.081,21.627,44.825,458.755,256.744,53.352,89.960,-525.490,133.980
807,44466.218000,256.988,0.503,36.856,465.428,250.575,34.596,47.960,-733.490,168.980
808,44466.257000,260.942,30.680,41.837,468.198,241.412,13.805,-40.040,-902.490,124.980
809,44466.297000,291.583,14.585,28.887,466.237,242.904,-5.779,124.960,-1032.490,27.980
810,44466.337000,348.911,27.662,46.817,464.297,248.991,-37.030,324.960,-1022.490,-82.020
811,44466.378000,369.668,69.910,45.821,459.449,250.605,-49.753,-341.040,-943.490,-240.020
812,44466.418000,371.645,-13.580,40.840,456.601,259.897,-67.204,-325.040,-853.490,-183.020
813,44466.459000,392.402,-38.727,-89.650,450.764,259.538,-80.954,430.960,-545.490,133.980
814,44466.501000,377.575,4.527,-11.953,447.796,256.231,-97.705,-623.040,-771.490,288.980
815,44466.521000,364.726,-16.597,-25.899,441.973,256.002,-105.567,-449.040,-546.490,393.980
816,44466.561000,285.652,4.527,-86.661,444.803,249.169,-108.655,-50.040,22.510,641.980
817,44466.609000,169.019,11.568,-113.556,445.683,240.419,-109.828,-83.040,244.510,648.980
818,44466.637000,43.490,15.591,-194.241,450.449,231.858,-104.124,363.960,434.510,583.980
819,44466.677000,12.849,19.615,-251.019,457.122,223.057,-110.189,360.960,73.510,363.980
820,44466.722000,9.884,-21.627,-280.903,455.942,204.277,-125.318,363.960,-651.490,192.980
821,44466.757000,14.826,-34.703,-267.953,451.033,203.540,-156.726,47.960,-1445.490,251.980
822,44466.798000,16.803,-54.821,-270.942,443.117,195.612,-204.971,-302.040,-2342.490,524.980
823,44466.838000,71.166,-57.839,-234.086,426.387,177.760,-259.339,-629.040,-2815.490,683.980
824,44466.858000,69.189,-78.963,-244.047,403.022,171.731,-302.671,-749.040,-3217.490,723.980
825,44466.899000,89.946,-70.916,-184.280,362.128,157.376,-363.877,-960.040,-3297.490,684.980
826,44466.963000,84.015,-83.992,-207.191,311.706,155.786,-414.033,-998.040,-2874.490,565.980
827,44466.981000,78.085,-70.916,-232.093,269.206,169.222,-446.186,-1193.040,-2218.490,358.980
828,44467.59000,104.772,-68.904,-224.125,233.526,185.831,-469.428,-1133.040,-1489.490,136.980
829,44467.86000,178.903,-41.745,-227.113,205.544,194.188,-474.205,-871.040,-380.490,-131.020
830,44467.131000,215.475,-17.603,-218.148,200.904,213.644,-469.860,-892.040,392.510,-275.020
831,44467.147000,275.768,30.680,-125.510,207.816,224.735,-453.909,-409.040,1386.510,-241.020
832,44467.161000,310.363,52.809,-50.802,235.987,232.279,-432.108,-224.040,2053.510,-223.020
833,44467.201000,387.459,30.680,-49.805,277.697,236.373,-396.625,-302.040,2742.510,-269.020
834,44467.251000,294.548,34.703,71.720,312.826,258.978,-354.861,-1049.040,2358.510,-216.020
835,44467.278000,236.232,-114.169,-337.681,328.467,269.484,-325.175,-630.040,640.510,173.980
836,44467.318000,233.266,-152.393,-55.782,322.453,248.932,-330.548,390.960,18.510,435.980
837,44467.361000,301.467,27.662,-168.342,330.099,240.183,-334.648,575.960,166.510,502.980
838,44467.402000,337.050,42.750,-50.802,333.830,225.679,-333.982,691.960,375.510,564.980
839,44467.437000,282.687,12.574,-124.514,340.430,208.248,-335.335,724.960,221.510,447.980
840,44467.481000,228.324,-44.762,-141.447,345.158,196.688,-333.621,212.960,282.510,287.980
841,44467.507000,257.977,3.521,-123.518,348.029,192.013,-326.854,91.960,364.510,182.980
842,44467.538000,342.981,157.422,-188.265,348.933,185.248,-326.021,366.960,-19.490,101.980
843,44467.581000,305.421,-10.562,-99.611,351.713,174.424,-334.101,128.960,-318.490,516.980
844,44467.621000,209.544,-16.597,-163.362,352.655,172.427,-337.085,37.960,-364.490,368.980
845,44467.674000,190.764,-50.798,-141.447,347.687,160.557,-345.205,222.960,-327.490,173.980
846,44467.721000,182.857,-25.650,-172.327,342.782,154.577,-350.251,181.960,-210.490,53.980
847,44467.749000,198.672,-20.621,-161.370,337.907,151.531,-354.251,116.960,-82.490,29.980
848,44467.783000,209.544,-21.627,-153.401,343.703,150.617,-354.260,21.960,-118.490,-0.020
849,44467.798000,215.475,-21.627,-155.393,338.913,156.308,-358.066,87.960,-180.490,-60.020
850,44467.851000,212.510,-36.715,-153.401,335.018,154.264,-361.062,-14.040,-228.490,-100.020
851,44467.887000,198.672,-8.550,-167.346,330.211,158.036,-363.930,-71.040,-237.490,-160.020
852,44467.928000,196.695,-17.603,-160.374,327.275,155.915,-370.848,-100.040,-237.490,-130.020
853,44467.962000,199.660,-11.568,-165.354,322.534,165.598,-369.662,-362.040,-287.490,-193.020
854,44468.2000,199.660,-13.580,-156.389,314.898,177.087,-373.346,-326.040,-385.490,-273.020
855,44468.42000,241.174,6.538,-150.412,303.389,188.495,-379.001,-329.040,-496.490,-351.020
856,44468.82000,256.000,-6.538,-163.362,293.814,200.806,-388.554,-222.040,-568.490,-492.020
857,44468.122000,256.000,1.509,-158.381,282.253,206.432,-392.377,-115.040,-491.490,-600.020
858,44468.142000,265.884,18.609,-164.358,271.710,216.964,-394.126,-372.040,-293.490,-597.020
859,44468.187000,222.394,28.668,-139.455,265.174,241.170,-393.603,-499.040,-41.490,-626.020
860,44468.232000,181.869,8.550,-167.346,266.320,258.741,-389.288,-411.040,118.510,-509.020
861,44468.261000,193.730,-9.556,-189.261,275.209,274.662,-375.186,-818.040,232.510,-269.020
862,44468.301000,199.660,-42.750,-199.222,285.143,296.611,-352.123,-1303.040,256.510,49.980
863,44468.346000,158.147,-12.574,-156.389,290.213,316.507,-332.058,-1108.040,180.510,232.980
864,44468.381000,201.637,-69.910,-116.545,298.004,320.595,-326.066,-93.040,81.510,297.980
865,44468.422000,177.915,-9.556,-39.844,309.393,300.989,-340.207,1567.960,316.510,387.980
866,44468.462000,184.834,3.521,-114.553,328.496,277.683,-349.510,916.960,151.510,434.980
867,44468.484000,193.730,30.680,-145.432,340.783,249.499,-356.974,1248.960,136.510,515.980
868,44468.519000,224.371,15.591,-104.591,352.913,205.717,-367.727,1772.960,159.510,461.980
869,44468.561000,180.880,43.756,-93.634,373.876,172.031,-364.508,2312.960,718.510,183.980
870,44468.601000,140.355,52.809,-119.533,390.161,153.917,-357.030,1259.960,1382.510,-200.020
871,44468.674000,236.232,-16.597,-158.381,423.086,150.138,-322.722,1123.960,1636.510,-390.020
872,44468.691000,218.440,-55.827,-228.109,447.261,142.348,-290.482,948.960,1242.510,-77.020
873,44468.752000,200.649,-43.756,-207.191,461.758,134.420,-260.227,435.960,941.510,39.980
874,44468.768000,153.205,-6.538,-229.105,467.642,137.001,-233.679,130.960,903.510,-105.020
875,44468.782000,195.707,-37.721,-234.086,476.490,146.363,-208.936,76.960,822.510,-180.020
876,44468.823000,210.533,8.550,-215.160,473.664,150.585,-192.177,-226.040,461.510,-257.020
877,44468.876000,244.139,-86.004,-356.607,474.657,153.485,-193.091,-284.040,-298.490,-28.020
878,44468.904000,179.892,22.633,-86.661,469.873,160.105,-198.839,59.960,-343.490,-4.020
879,44468.944000,217.452,-69.910,-115.549,469.832,155.315,-196.003,113.960,185.510,47.980
880,44468.979000,223.382,-47.780,-90.646,476.625,156.460,-191.060,-58.040,330.510,18.980
881,44469.19000,240.185,-7.544,-88.654,479.545,156.661,-183.204,142.960,396.510,3.980
882,44469.62000,249.081,1.509,-81.681,486.335,156.899,-175.339,182.960,350.510,-19.020
883,44469.104000,251.058,-20.621,-72.716,484.298,144.453,-166.794,152.960,319.510,32.980
884,44469.119000,229.313,-55.827,-75.704,486.303,151.311,-164.676,160.960,398.510,-0.020
885,44469.161000,258.965,-30.680,-58.770,488.209,145.764,-153.027,159.960,485.510,11.980
886,44469.204000,274.780,28.668,-57.774,496.983,150.897,-144.069,115.960,340.510,73.980
887,44469.239000,241.174,-49.792,-61.759,497.886,142.363,-135.430,66.960,277.510,126.980
888,44469.282000,236.232,-62.868,-60.763,502.699,138.656,-129.618,56.960,364.510,25.980
889,44469.353000,276.757,-0.503,-46.817,501.752,138.841,-120.790,-39.040,454.510,-8.020
890,44469.421000,261.931,-17.603,-36.856,506.668,144.929,-110.838,-262.040,263.510,27.980
891,44469.436000,248.093,-65.886,-29.883,503.793,146.928,-106.877,-137.040,163.510,-46.020
892,44469.443000,237.220,-38.727,-63.751,508.691,151.959,-100.871,-47.040,278.510,-166.020
893,44469.484000,255.012,-19.615,-48.809,507.787,156.955,-93.898,-166.040,336.510,-200.020
894,44469.513000,255.012,-11.568,-44.825,508.801,160.050,-85.982,-530.040,303.510,-211.020
895,44469.542000,255.012,-28.668,-28.887,506.052,172.945,-71.972,-815.040,235.510,-203.020
896,44469.583000,261.931,-40.739,3.984,507.103,179.038,-60.067,-549.040,382.510,-198.020
897,44469.621000,247.104,-6.538,-14.942,509.074,179.402,-44.364,-221.040,715.510,-128.020
898,44469.659000,255.012,-12.574,-26.895,508.180,183.621,-28.581,-139.040,493.510,-157.020
899,44469.704000,247.104,-34.703,-23.907,511.091,182.851,-20.747,-267.040,508.510,-187.020
900,44469.739000,248.093,-24.644,-4.981,509.261,189.995,-3.921,-208.040,568.510,-192.020
901,44469.759000,251.058,-19.615,0.996,505.542,201.974,13.008,19.960,642.510,-201.020
902,44469.799000,252.046,-3.521,18.926,505.604,205.211,27.790,106.960,652.510,-196.020
903,44469.841000,256.988,5.532,25.899,502.724,205.398,37.595,193.960,544.510,-143.020
904,44469.881000,244.139,0.503,32.872,501.817,209.488,47.490,104.960,435.510,-95.020
905,44469.929000,246.116,-11.568,43.829,499.842,204.679,50.321,113.960,256.510,0.980
906,44469.964000,239.197,0.503,57.774,502.817,211.568,53.423,57.960,125.510,-9.020
907,44470.1000,251.058,-13.580,27.891,502.805,209.691,56.323,-30.040,-0.490,59.980
908,44470.44000,256.000,-1.509,29.883,499.912,210.634,56.338,19.960,-8.490,26.980
909,44470.64000,243.151,0.503,32.872,500.840,207.623,51.369,45.960,-102.490,8.980
910,44470.102000,247.104,-8.550,39.844,503.780,212.419,47.559,110.960,-173.490,49.980
911,44470.149000,256.000,3.521,23.907,499.809,202.608,44.391,157.960,-234.490,11.980
912,44470.202000,255.012,-27.662,15.938,501.752,205.345,35.630,211.960,-105.490,-4.020
913,44470.233000,262.919,-7.544,20.918,502.760,210.144,32.797,187.960,17.510,-93.020
914,44470.262000,272.803,0.503,14.942,497.965,213.139,38.737,214.960,317.510,-72.020
915,44470.301000,249.081,-13.580,21.914,492.178,213.255,46.573,225.960,364.510,-156.020
916,44470.339000,260.942,5.532,24.903,493.267,224.117,54.662,204.960,451.510,-169.020
917,44470.382000,249.081,36.715,28.887,492.334,226.200,61.571,24.960,425.510,-130.020
918,44470.402000,246.116,6.538,47.813,488.480,226.313,68.430,-106.040,342.510,-70.020
919,44470.443000,247.104,34.703,32.872,493.366,229.467,77.336,-211.040,270.510,-48.020
920,44470.482000,259.954,-8.550,41.837,488.556,229.679,89.098,-271.040,346.510,-113.020
921,44470.522000,229.313,-8.550,65.743,485.587,221.085,96.747,-187.040,358.510,-188.020
922,44470.566000,243.151,9.556,69.728,482.832,233.916,107.813,-135.040,344.510,-158.020
923,44470.601000,244.139,3.521,82.677,479.967,236.886,111.795,-23.040,254.510,-138.020
924,44470.643000,241.174,0.503,54.786,477.059,235.046,117.632,-28.040,253.510,-120.020
925,44470.683000,246.116,33.697,59.767,479.080,242.055,126.618,-249.040,284.510,-96.020
926,44470.723000,248.093,2.515,61.759,472.336,244.017,130.570,-245.040,265.510,-140.020
927,44470.747000,230.301,-0.503,80.685,469.477,246.167,141.399,-119.040,301.510,-165.020
928,44470.782000,237.220,18.609,136.467,464.693,250.155,148.342,-155.040,286.510,-208.020
929,44470.823000,309.375,55.827,160.374,460.833,251.088,148.355,293.960,-26.490,-195.020
930,44470.863000,289.606,36.715,212.171,459.886,257.443,128.881,677.960,-421.490,-236.020
931,44470.904000,217.452,76.951,125.510,459.028,273.442,106.679,1668.960,-382.490,-364.020
932,44470.951000,94.888,83.992,139.455,442.775,294.512,101.228,1263.960,799.510,-948.020
933,44470.984000,166.054,106.122,143.440,414.171,332.589,124.568,802.960,2158.510,-1129.020
934,44471.24000,256.988,92.039,59.767,379.659,359.045,151.561,913.960,2017.510,-978.020
935,44471.44000,168.031,63.874,17.930,351.762,372.622,163.571,679.960,1329.510,-788.020
936,44471.84000,142.332,1.509,-50.802,343.198,390.639,148.262,1345.960,105.510,-240.020
937,44471.126000,205.591,216.770,380.514,350.929,392.397,136.550,435.960,-871.490,368.980
938,44471.162000,217.452,139.316,257.992,356.621,377.287,152.898,-2219.040,-959.490,642.980
939,44471.202000,333.097,34.703,71.720,381.498,351.987,138.659,-404.040,-1500.490,1017.980
940,44471.242000,241.174,67.898,32.872,407.397,333.386,119.668,-610.040,-1427.490,986.980
941,44471.287000,268.849,-26.656,20.918,420.625,304.068,104.336,-565.040,-1064.490,937.980
942,44471.322000,261.931,-1.509,27.891,437.873,289.438,93.260,-339.040,-805.490,667.980
943,44471.362000,262.919,12.574,32.872,445.552,285.414,83.380,-299.040,-582.490,532.980
944,44471.381000,260.942,10.562,19.922,454.108,269.965,83.055,-154.040,-373.490,358.980
945,44471.422000,256.988,24.644,26.895,455.062,269.845,77.171,-242.040,-226.490,235.980
946,44471.462000,254.023,19.615,34.864,457.877,261.114,76.002,-401.040,-107.490,154.980
947,44471.502000,254.023,0.503,50.802,463.590,250.599,80.684,-461.040,-53.490,91.980
948,44471.542000,248.093,-17.603,53.790,464.658,259.497,87.748,-305.040,10.510,42.980
949,44471.582000,254.023,-7.544,43.829,458.822,255.622,90.592,-309.040,29.510,-32.020
950,44471.624000,247.104,2.515,57.774,460.752,254.713,92.537,-175.040,31.510,-67.020
951,44471.664000,246.116,27.662,57.774,463.687,257.697,94.571,-109.040,-34.490,-24.020
952,44471.703000,242.162,4.527,60.763,461.708,253.730,91.537,-128.040,-74.490,32.980
953,44471.724000,245.127,34.703,53.790,460.792,259.502,89.702,-16.040,-149.490,78.980
954,44471.764000,239.197,-27.662,70.724,463.596,250.663,83.627,193.960,-229.490,170.980
955,44471.804000,247.104,-3.521,29.883,466.473,249.570,76.745,556.960,-133.490,144.980
956,44471.843000,249.081,-2.515,47.813,466.383,242.537,65.801,468.960,-79.490,158.980
957,44471.883000,243.151,-4.527,55.782,462.509,244.225,56.024,832.960,-117.490,196.980
958,44471.922000,272.803,75.945,-12.949,463.511,249.844,46.344,719.960,-264.490,78.980
959,44471.966000,261.931,33.697,0.996,469.289,249.642,34.584,252.960,-216.490,98.980
960,44472.14000,263.907,5.532,6.973,473.104,244.760,31.541,156.960,-26.490,45.980
961,44472.46000,254.023,14.585,25.899,473.128,246.745,33.547,43.960,97.510,-60.020
962,44472.74000,252.046,-1.509,23.907,465.423,249.647,36.537,98.960,156.510,-33.020
963,44472.102000,246.116,15.591,44.825,469.333,253.590,37.613,134.960,186.510,-27.020
964,44472.142000,245.127,21.627,41.837,464.472,250.673,39.500,2.960,118.510,-24.020
965,44472.186000,247.104,10.562,40.840,467.377,250.723,40.488,12.960,43.510,18.980
966,44472.226000,248.093,12.574,46.817,468.316,247.820,40.425,50.960,7.510,33.980
967,44472.266000,256.000,12.574,31.875,465.395,245.850,40.375,91.960,18.510,23.980
968,44472.302000,253.035,17.603,37.852,465.399,245.893,42.338,15.960,49.510,27.980
969,44472.344000,250.069,12.574,40.840,471.249,250.782,41.478,-52.040,65.510,29.980
970,44472.364000,252.046,12.574,44.825,472.161,244.103,46.235,-104.040,39.510,18.980
971,44472.408000,249.081,10.562,43.829,464.441,245.970,46.260,-115.040,13.510,21.980
972,44472.442000,248.093,13.580,37.852,467.300,241.187,48.121,-101.040,28.510,14.980
973,44472.483000,250.069,8.550,41.837,466.373,245.082,49.186,-93.040,49.510,15.980
974,44472.523000,250.069,11.568,44.825,467.387,249.062,53.199,-55.040,55.510,19.980
975,44472.569000,250.069,7.544,47.813,468.340,247.172,55.121,-44.040,45.510,22.980
976,44472.606000,248.093,11.568,45.821,470.202,239.446,55.934,-48.040,23.510,28.980
977,44472.646000,250.069,4.527,43.829,469.260,242.328,55.015,-29.040,13.510,31.980
978,44472.686000,250.069,9.556,43.829,470.253,244.343,58.004,-25.040,10.510,25.980
979,44472.706000,249.081,11.568,44.825,467.363,246.192,55.097,-70.040,-9.490,24.980
980,44472.746000,251.058,8.550,41.837,471.235,246.251,56.087,-105.040,8.510,20.980
981,44472.784000,252.046,6.538,42.833,472.169,241.536,61.868,-86.040,19.510,12.980
982,44472.823000,249.081,10.562,50.802,469.248,239.566,61.819,-145.040,37.510,2.980
983,44472.864000,252.046,12.574,40.840,469.283,242.543,64.827,-152.040,87.510,31.980
984,44472.904000,247.104,-8.550,38.848,472.173,240.695,67.734,-92.040,65.510,29.980
985,44472.947000,251.058,9.556,43.829,470.243,240.719,69.692,-76.040,77.510,13.980
986,44472.987000,250.069,7.544,43.829,469.306,243.644,70.735,-72.040,79.510,29.980
987,44473.27000,245.127,7.544,55.782,470.251,239.920,77.519,-141.040,43.510,31.980
988,44473.46000,245.127,0.503,52.794,470.173,232.132,76.365,-137.040,-10.490,29.980
989,44473.87000,246.116,4.527,52.794,474.048,232.213,78.337,-168.040,-34.490,22.980
990,44473.127000,248.093,-0.503,48.809,468.238,231.229,80.264,-84.040,-45.490,26.980
991,44473.164000,248.093,4.527,46.817,476.967,234.161,77.405,-98.040,-51.490,25.980
992,44473.203000,250.069,0.503,47.813,472.146,235.150,80.359,-181.040,-81.490,24.980
993,44473.248000,247.104,-5.532,50.802,473.031,227.328,77.245,-88.040,-63.490,23.980
994,44473.283000,250.069,1.509,44.825,473.031,227.328,77.245,-59.040,-78.490,25.980
995,44473.347000,251.058,-0.503,41.837,473.071,232.117,74.410,-44.040,-83.490,30.980
996,44473.356000,249.081,-0.503,42.833,475.006,232.136,74.414,-26.040,-68.490,31.980
997,44473.392000,250.069,2.515,39.844,477.901,231.215,75.381,-13.040,-45.490,36.980
998,44473.423000,250.069,-1.509,39.844,477.833,224.397,74.249,-33.040,-23.490,36.980
999,44473.468000,248.093,-0.503,44.825,474.978,229.223,74.350,-41.040,-15.490,34.980
1000,44473.503000,247.104,1.509,45.821,474.922,224.283,70.317,-35.040,-36.490,41.980
1001,44473.544000,251.058,-2.515,45.821,478.831,227.341,75.297,-30.040,-70.490,47.980
1002,44473.588000,248.093,-1.509,42.833,478.744,219.466,70.218,-39.040,-91.490,37.980
1003,44473.629000,251.058,-3.521,41.837,479.731,221.417,70.264,-3.040,-108.490,35.980
1004,44473.666000,252.046,-5.532,40.840,479.677,216.498,67.212,-4.040,-114.490,38.980
1005,44473.686000,252.046,-4.527,37.852,479.727,223.143,60.495,36.960,-119.490,38.980
1006,44473.724000,251.058,-1.509,34.864,478.745,221.235,62.412,42.960,-117.490,31.980
1007,44473.766000,251.058,-1.509,35.860,480.702,224.987,55.635,22.960,-108.490,30.980
1008,44473.806000,253.035,-5.532,34.864,483.572,222.059,53.615,58.960,-104.490,34.980
1009,44473.846000,252.046,-3.521,31.875,481.585,217.143,51.540,52.960,-98.490,27.980
1010,44473.886000,251.058,-6.538,30.879,477.718,218.011,48.609,59.960,-97.490,27.980
1011,44473.926000,250.069,-0.503,29.883,483.528,219.880,42.779,90.960,-89.490,37.980
1012,44473.966000,250.069,-4.527,28.887,482.593,222.827,44.804,123.960,-87.490,58.980
1013,44474.6000,254.023,-4.527,27.891,485.470,220.848,41.824,100.960,-80.490,71.980
1014,44474.26000,255.012,-6.538,25.899,485.449,219.770,36.897,118.960,-56.490,60.980
1015,44474.66000,253.035,-12.574,29.883,484.518,223.622,36.000,72.960,-78.490,42.980
1016,44474.107000,252.046,-5.532,26.895,490.191,210.971,31.808,72.960,-84.490,25.980
1017,44474.147000,253.035,-5.532,23.907,486.310,210.826,26.893,47.960,-92.490,21.980
1018,44474.191000,253.035,-8.550,22.911,484.427,216.589,25.056,45.960,-91.490,32.980
1019,44474.226000,254.023,-8.550,22.911,487.329,215.733,28.966,62.960,-88.490,39.980
1020,44474.272000,254.023,-4.527,21.914,487.261,209.799,23.931,76.960,-53.490,35.980
1021,44474.307000,254.023,-8.550,21.914,489.217,211.782,24.959,69.960,-49.490,34.980
1022,44474.346000,252.046,-7.544,26.895,487.292,213.618,21.073,57.960,-79.490,37.980
1023,44474.366000,253.035,-6.538,20.918,491.164,214.562,18.161,39.960,-85.490,30.980
1024,44474.406000,253.035,-8.550,18.926,487.205,205.743,15.995,15.960,-82.490,17.980
