Sample, Time, ACCX, ACCY, ACCZ, MAGX, MAGY, MAGZ, GYRX, GYRY, GYRZ
0,44665.854000,230.351,65.136,-20.540,334.516,336.986,-4.516,54.800,-78.710,9.420
1,44665.876000,215.553,75.235,-17.534,337.149,335.168,-7.545,39.800,33.290,23.420
2,44665.917000,239.229,67.156,-20.540,333.631,339.533,-6.422,88.800,182.290,19.420
3,44665.956000,251.067,65.136,-21.542,338.938,342.339,0.637,-6.200,277.290,73.420
4,44665.996000,240.216,63.116,4.509,335.423,338.109,4.461,-35.200,316.290,110.420
5,44666.37000,224.432,46.959,19.538,337.201,337.411,10.402,13.800,230.290,91.420
6,44666.78000,262.906,35.850,36.571,336.310,331.278,8.214,125.800,203.290,52.420
7,44666.114000,252.054,50.998,-1.503,336.319,328.787,12.105,-107.200,147.290,75.420
8,44666.134000,247.121,60.087,39.577,338.090,328.872,15.092,31.800,89.290,54.420
9,44666.174000,240.216,63.116,37.573,339.834,327.837,9.106,217.800,24.290,49.420
10,44666.218000,246.135,60.087,18.536,339.845,334.837,11.320,67.800,-112.710,29.420
11,44666.257000,241.202,65.136,25.550,341.587,330.329,5.221,111.800,-167.710,32.420
12,44666.296000,242.189,56.047,22.544,343.342,332.850,2.329,52.800,-272.710,14.420
13,44666.337000,247.121,56.047,10.521,343.321,330.917,-4.684,-64.200,-371.710,-48.580
14,44666.357000,254.027,50.998,-22.544,342.426,335.087,-10.510,-140.200,-349.710,-20.580
15,44666.397000,246.135,61.097,-16.532,339.776,329.849,-11.681,22.800,-214.710,51.420
16,44666.439000,244.162,54.028,-15.530,345.050,328.872,-15.668,71.800,-110.710,78.420
17,44666.476000,253.040,52.008,-6.513,345.049,331.448,-16.578,84.800,-64.710,79.420
18,44666.516000,261.919,24.742,-9.519,346.799,330.469,-20.576,5.800,-106.710,51.420
19,44666.556000,251.067,44.939,1.503,344.159,330.495,-19.590,-235.200,-249.710,-64.580
20,44666.601000,257.973,37.870,-10.521,342.401,331.390,-18.574,-485.200,-423.710,-147.580
21,44666.617000,252.054,61.097,-18.536,338.861,329.510,-23.611,-433.200,-434.710,-136.580
22,44666.658000,224.432,50.998,-44.587,337.998,330.547,-17.622,-509.200,-445.710,-56.580
23,44666.698000,233.310,65.136,-46.591,340.646,334.049,-16.507,-559.200,-399.710,-5.580
24,44666.746000,237.256,85.333,-5.511,338.014,336.736,-13.450,-410.200,-183.710,13.420
25,44666.774000,229.364,72.205,8.517,343.302,339.343,-13.348,98.800,92.290,-41.580
26,44666.819000,253.040,47.968,-44.587,342.400,338.278,-20.336,517.800,241.290,2.420
27,44666.843000,252.054,54.028,-50.599,342.408,337.494,-17.383,210.800,178.290,11.420
28,44666.878000,252.054,54.028,-21.542,342.405,337.466,-18.377,83.800,177.290,6.420
29,44666.918000,249.094,61.097,-15.530,340.644,330.577,-16.620,77.800,174.290,15.420
30,44666.958000,246.135,58.067,-10.521,339.774,330.689,-12.647,31.800,123.290,3.420
31,44666.994000,248.108,52.008,-7.515,340.654,336.709,-14.435,53.800,79.290,-22.580
32,44667.36000,249.094,48.978,-4.509,338.889,332.368,-14.581,64.800,-15.710,-89.580
33,44667.76000,242.189,59.077,-1.503,336.251,334.998,-13.512,28.800,-119.710,-138.580
34,44667.96000,240.216,59.077,-8.517,332.714,340.035,-19.317,7.800,-206.710,-174.580
35,44667.134000,244.162,64.126,-8.517,333.577,342.442,-26.187,30.800,-300.710,-238.580
36,44667.176000,249.094,63.116,-26.552,330.049,348.431,-28.983,-40.200,-341.710,-239.580
37,44667.216000,240.216,65.136,-28.556,328.284,351.845,-30.864,40.800,-311.710,-232.580
38,44667.258000,254.027,73.215,-34.568,324.741,353.382,-37.777,-62.200,-304.710,-189.580
39,44667.297000,240.216,72.205,-37.573,316.803,359.311,-42.575,52.800,-256.710,-179.580
40,44667.317000,245.148,73.215,-39.577,318.541,357.351,-50.577,2.800,-229.710,-144.580
41,44667.359000,237.256,81.294,-45.589,313.247,350.375,-51.813,78.800,-175.710,-134.580
42,44667.399000,235.283,83.314,-45.589,314.125,349.479,-52.832,30.800,-148.710,-96.580
43,44667.436000,238.243,86.343,-48.595,312.363,361.546,-55.425,43.800,-88.710,-49.580
44,44667.476000,231.337,84.323,-53.605,311.471,354.545,-57.641,36.800,1.290,19.420
45,44667.529000,219.499,85.333,-55.609,314.123,358.075,-55.532,29.800,77.290,76.420
46,44667.561000,201.742,94.422,-44.587,315.889,356.397,-53.595,9.800,133.290,110.420
47,44667.577000,202.728,90.383,-43.585,315.902,359.113,-49.535,-25.200,214.290,146.420
48,44667.618000,287.568,62.107,-62.622,319.434,354.020,-45.717,-49.200,309.290,219.420
49,44667.659000,260.933,71.195,-39.577,326.501,350.779,-37.855,-38.200,393.290,250.420
50,44667.698000,239.229,68.166,-20.540,325.635,340.588,-30.245,55.800,451.290,267.420
51,44667.741000,220.486,67.156,-30.560,332.697,340.734,-25.253,41.800,441.290,235.420
52,44667.776000,220.486,69.176,-18.536,335.366,340.989,-16.299,-48.200,394.290,195.420
53,44667.797000,255.013,65.136,-3.507,335.378,335.082,-10.533,-173.200,377.290,198.420
54,44667.842000,265.865,44.939,-15.530,337.163,330.997,-1.723,-84.200,435.290,169.420
55,44667.898000,251.067,57.057,11.523,338.960,337.384,9.413,-88.200,379.290,139.420
56,44667.919000,242.189,53.018,18.536,338.969,329.713,14.129,41.800,321.290,128.420
57,44667.956000,243.175,50.998,12.524,338.097,327.221,18.018,-61.200,267.290,120.420
58,44668.7000,245.148,48.978,0.501,341.639,329.129,24.049,-188.200,184.290,96.420
59,44668.36000,254.027,47.968,13.526,339.888,327.504,27.963,-23.200,116.290,30.420
60,44668.56000,244.162,59.077,25.550,343.414,327.535,28.968,-11.200,88.290,33.420
61,44668.101000,247.121,49.988,15.530,341.659,329.326,31.006,40.800,88.290,49.420
62,44668.136000,246.135,52.008,17.534,342.532,325.798,28.909,23.800,76.290,23.420
63,44668.176000,242.189,54.028,16.532,341.660,322.438,32.769,-56.200,46.290,0.420
64,44668.216000,245.148,50.998,21.542,339.892,322.380,30.775,-24.200,-2.710,-16.580
65,44668.256000,244.162,50.998,19.538,341.660,326.750,31.916,-16.200,-32.710,-32.580
66,44668.276000,244.162,55.037,17.534,339.896,327.588,30.944,-11.200,-45.710,-47.580
67,44668.319000,246.135,54.028,13.526,343.430,330.279,34.022,-40.200,-52.710,-48.580
68,44668.361000,248.108,56.047,8.517,339.900,332.796,31.113,-58.200,-48.710,-35.580
69,44668.396000,247.121,54.028,9.519,339.015,331.032,30.060,-34.200,-29.710,-25.580
70,44668.441000,248.108,54.028,10.521,340.772,324.089,29.841,-8.200,-20.710,-16.580
71,44668.497000,248.108,56.047,13.526,337.255,326.747,31.901,38.800,-10.710,-17.580
72,44668.519000,247.121,55.037,11.523,339.012,327.560,29.948,74.800,-14.710,-11.580
73,44668.539000,249.094,54.028,9.519,339.893,327.560,29.950,88.800,-26.710,-9.580
74,44668.583000,246.135,55.037,13.526,339.010,331.843,28.101,77.800,-40.710,-12.580
75,44668.619000,248.108,54.028,12.524,337.239,335.201,24.232,24.800,-62.710,-34.580
76,44668.657000,246.135,57.057,10.521,336.357,333.465,24.173,2.800,-74.710,-45.580
77,44668.697000,248.108,58.067,8.517,336.345,333.352,20.197,1.800,-61.710,-40.580
78,44668.742000,247.121,58.067,6.513,336.348,332.512,21.163,-7.200,-34.710,-27.580
79,44668.762000,246.135,60.087,4.509,337.229,332.513,21.166,-4.200,-9.710,-15.580
80,44668.798000,247.121,59.077,8.517,335.477,330.888,25.079,-4.200,12.290,-3.580
81,44668.839000,246.135,58.067,7.515,333.708,336.850,21.295,-11.200,26.290,5.420
82,44668.879000,246.135,58.067,8.517,334.596,334.331,24.195,-3.200,40.290,6.420
83,44668.919000,245.148,55.037,11.523,339.000,334.335,24.209,-0.200,43.290,8.420
84,44668.958000,246.135,56.047,10.521,336.362,333.521,26.161,23.800,36.290,2.420
85,44669.1000,247.121,57.057,12.524,334.597,328.312,25.986,16.800,13.290,-10.580
86,44669.22000,246.135,58.067,10.521,335.478,329.180,26.017,13.800,-2.710,-20.580
87,44669.64000,246.135,58.067,11.523,336.363,334.389,26.189,15.800,-8.710,-20.580
88,44669.101000,247.121,58.067,10.521,335.482,337.832,25.305,13.800,-16.710,-20.580
89,44669.137000,247.121,59.077,11.523,332.837,331.782,26.093,14.800,-15.710,-21.580
90,44669.177000,246.135,59.077,9.519,336.352,338.588,21.360,32.800,-7.710,-18.580
91,44669.221000,245.148,58.067,12.524,332.832,339.482,22.371,53.800,-11.710,-19.580
92,44669.261000,244.162,58.067,13.526,333.706,334.246,21.211,37.800,-42.710,-37.580
93,44669.281000,245.148,58.067,12.524,334.579,330.719,19.113,24.800,-72.710,-54.580
94,44669.319000,245.148,61.097,12.524,332.814,334.133,17.232,22.800,-99.710,-67.580
95,44669.361000,245.148,63.116,10.521,332.813,337.577,16.351,-8.200,-131.710,-82.580
96,44669.397000,244.162,60.087,7.515,333.693,343.597,14.563,-10.200,-142.710,-88.580
97,44669.444000,244.162,64.126,6.513,328.406,341.857,14.490,-9.200,-142.710,-87.580
98,44669.499000,245.148,66.146,-3.507,328.402,346.981,11.677,-17.200,-129.710,-73.580
99,44669.508000,244.162,66.146,-2.505,328.395,346.056,9.661,-6.200,-108.710,-60.580
100,44669.539000,245.148,67.156,-5.511,328.390,342.556,8.554,-10.200,-89.710,-47.580
101,44669.581000,244.162,66.146,-1.503,328.381,345.915,4.691,11.800,-63.710,-36.580
102,44669.623000,245.148,66.146,-4.509,326.617,346.754,3.720,27.800,-49.710,-28.580
103,44669.658000,241.202,67.156,-4.509,328.378,345.887,3.697,10.800,-43.710,-22.580
104,44669.697000,245.148,67.156,-2.505,328.384,346.812,5.713,2.800,-39.710,-17.580
105,44669.739000,243.175,67.156,-3.507,323.967,340.648,2.520,-1.200,-30.710,-8.580
106,44669.764000,242.189,67.156,-4.509,323.965,341.488,1.555,-10.200,-26.710,-4.580
107,44669.801000,245.148,66.146,-3.507,326.604,344.037,-0.340,-5.200,-19.710,1.420
108,44669.848000,247.121,67.156,-3.507,325.727,342.357,1.588,-1.200,-12.710,4.420
109,44669.884000,243.175,67.156,-3.507,329.257,346.728,2.735,-7.200,-5.710,12.420
110,44669.918000,244.162,66.146,-3.507,329.253,345.832,1.712,1.800,1.290,15.420
111,44669.961000,245.148,66.146,-1.503,326.615,348.462,2.782,-4.200,-0.710,13.420
112,44669.983000,245.148,66.146,-1.503,327.495,342.415,3.582,2.800,-2.710,11.420
113,44670.18000,243.175,66.146,-1.503,326.612,339.810,3.495,-1.200,-9.710,12.420
114,44670.61000,244.162,66.146,-4.509,326.610,341.518,2.557,5.800,-11.710,9.420
115,44670.101000,244.162,65.136,-2.505,330.138,346.728,2.737,-3.200,-14.710,6.420
116,44670.141000,242.189,68.166,-4.509,329.249,347.511,-0.219,-1.200,-12.710,12.420
117,44670.182000,245.148,65.136,-3.507,326.619,345.914,4.686,-0.200,-9.710,10.420
118,44670.222000,244.162,65.136,-3.507,326.609,347.538,0.766,-1.200,-10.710,6.420
119,44670.242000,243.175,66.146,-3.507,325.726,344.933,0.679,6.800,-12.710,6.420
120,44670.281000,244.162,65.136,-5.511,326.604,340.594,0.541,6.800,-14.710,5.420
121,44670.323000,243.175,65.136,-3.507,325.717,340.537,-1.450,4.800,-20.710,2.420
122,44670.359000,245.148,65.136,-5.511,331.014,348.409,0.809,0.800,-25.710,-4.580
123,44670.399000,244.162,65.136,-2.505,329.255,348.436,1.797,9.800,-26.710,-8.580
124,44670.450000,244.162,65.136,-5.511,327.482,348.322,-2.184,5.800,-26.710,-6.580
125,44670.469000,242.189,67.156,-6.513,330.133,347.540,0.778,-0.200,-24.710,-7.580
126,44670.498000,246.135,66.146,-3.507,323.954,342.243,-2.393,0.800,-19.710,-3.580
127,44670.538000,245.148,66.146,-5.511,327.481,347.454,-2.213,3.800,-12.710,0.420
128,44670.578000,244.162,67.156,-7.515,330.126,342.304,-0.385,2.800,-5.710,7.420
129,44670.618000,244.162,67.156,-6.513,325.713,346.528,-4.234,10.800,1.290,12.420
130,44670.662000,243.175,65.136,-7.515,328.366,341.463,0.575,10.800,4.290,19.420
131,44670.703000,244.162,66.146,-4.509,328.364,345.746,-1.272,26.800,7.290,19.420
132,44670.718000,244.162,67.156,-5.511,328.356,346.530,-4.226,1.800,1.290,21.420
133,44670.758000,244.162,65.136,-4.509,328.366,348.350,-1.188,14.800,0.290,28.420
134,44670.798000,243.175,66.146,-4.509,325.710,346.500,-5.228,26.800,1.290,26.420
135,44670.838000,244.162,65.136,-3.507,329.240,339.671,-1.466,16.800,-9.710,29.420
136,44670.878000,244.162,64.126,-2.505,329.234,342.191,-4.364,37.800,-16.710,28.420
137,44670.919000,246.135,64.126,-3.507,331.881,340.513,-2.424,74.800,-19.710,29.420
138,44670.939000,245.148,65.136,-1.503,332.764,346.561,-3.218,107.800,-24.710,40.420
139,44670.984000,246.135,64.126,-3.507,331.851,338.495,-12.419,34.800,-60.710,47.420
140,44671.19000,243.175,65.136,-6.513,333.629,340.373,-7.388,19.800,-82.710,62.420
141,44671.58000,246.135,60.087,-5.511,333.612,332.449,-11.617,63.800,-82.710,67.420
142,44671.103000,244.162,64.126,-6.513,336.251,335.866,-13.483,-0.200,-122.710,80.420
143,44671.149000,245.148,62.107,-11.523,333.609,336.732,-13.464,75.800,-128.710,96.420
144,44671.178000,245.148,60.087,-10.521,338.877,332.255,-18.557,34.800,-160.710,101.420
145,44671.202000,242.189,60.087,-3.507,338.863,331.246,-23.555,96.800,-191.710,103.420
146,44671.243000,245.148,59.077,-4.509,342.377,337.184,-28.316,62.800,-298.710,87.420
147,44671.281000,244.162,55.037,-10.521,344.115,332.648,-35.408,67.800,-382.710,57.420
148,44671.324000,237.256,50.998,-9.519,344.097,322.988,-39.694,12.800,-519.710,-1.580
149,44671.366000,242.189,38.880,-5.511,341.417,337.263,-56.120,92.800,-765.710,-169.580
150,44671.399000,257.973,44.939,-37.573,336.082,340.224,-73.915,136.800,-917.710,-308.580
151,44671.419000,256.000,64.126,-46.591,326.341,339.710,-91.837,143.800,-1013.710,-359.580
152,44671.467000,253.040,94.422,-52.603,317.484,340.961,-108.705,173.800,-962.710,-251.580
153,44671.506000,262.906,93.412,-51.601,314.791,341.320,-126.576,214.800,-909.710,-178.580
154,44671.539000,291.514,123.708,-23.546,306.819,343.467,-142.420,25.800,-939.710,-89.580
155,44671.589000,263.892,199.448,-12.524,294.490,357.290,-143.997,-701.200,-898.710,-355.580
156,44671.626000,243.175,65.136,30.560,290.969,358.183,-142.986,-519.200,-624.710,-462.580
157,44671.661000,223.445,119.669,42.583,289.250,365.492,-129.846,-921.200,403.290,-144.580
158,44671.687000,221.472,131.787,52.603,295.549,377.152,-85.755,-1941.200,939.290,119.420
159,44671.739000,245.148,117.649,11.523,307.186,378.124,-21.142,-2466.200,1324.290,480.420
160,44671.764000,234.297,200.458,-25.550,317.881,362.991,26.065,-2704.200,1459.290,796.420
161,44671.804000,246.135,201.467,-61.620,325.979,346.572,89.109,-2437.200,1423.290,666.420
162,44671.843000,230.351,217.625,-72.642,327.872,329.782,139.213,-1352.200,1438.290,282.420
163,44671.887000,200.755,250.951,-111.718,309.438,326.972,162.894,-699.200,1040.290,-637.580
164,44671.903000,186.944,181.270,-118.732,282.174,339.471,176.122,-328.200,805.290,-1121.580
165,44671.943000,174.119,119.669,-123.742,264.577,357.770,179.638,-2.200,657.290,-1331.580
166,44671.982000,182.012,24.742,-70.638,232.874,372.503,180.014,324.800,585.290,-1227.580
167,44672.23000,206.674,2.525,-129.753,209.070,398.159,167.862,921.800,417.290,-816.580
168,44672.63000,287.568,48.978,-78.654,192.291,411.528,150.368,708.800,-18.710,-527.580
169,44672.103000,399.044,-101.491,107.710,190.531,405.507,152.153,-1065.200,-664.710,-175.580
170,44672.143000,401.017,-80.284,44.587,194.072,394.479,160.743,-681.200,-699.710,28.420
171,44672.163000,344.786,75.235,-27.554,200.225,402.967,154.088,481.800,-386.710,48.420
172,44672.204000,321.110,28.781,-24.548,208.079,409.996,126.537,1644.800,55.290,51.420
173,44672.239000,260.933,-9.594,-50.599,214.185,415.428,103.894,2412.800,426.290,530.420
174,44672.284000,240.216,7.574,-87.671,237.864,412.668,67.140,2411.800,604.290,1358.420
175,44672.324000,222.459,75.235,-123.742,265.071,399.606,34.034,2201.800,610.290,1528.420
176,44672.364000,220.486,110.580,-141.777,301.129,374.038,18.425,1323.800,343.290,1810.420
177,44672.384000,222.459,125.728,-134.763,338.974,348.724,11.767,1123.800,136.290,1890.420
178,44672.424000,206.674,181.270,-117.730,362.708,319.788,-0.018,1132.800,-59.710,1798.420
179,44672.461000,207.661,180.260,-89.675,391.727,287.411,-10.906,492.800,-393.710,1772.420
180,44672.499000,243.175,402.430,49.597,411.951,259.481,-17.705,-2392.200,-1403.710,1352.420
181,44672.542000,398.058,-50.998,352.188,424.317,246.025,-3.208,-3578.200,-1085.710,1008.420
182,44672.582000,321.110,208.536,217.926,426.977,239.308,4.527,433.800,478.290,247.420
183,44672.621000,291.514,182.280,183.859,426.098,249.667,2.874,1066.800,281.290,-396.580
184,44672.648000,323.083,73.215,168.830,414.615,257.104,-9.830,957.800,-4.710,-591.580
185,44672.681000,256.000,148.955,44.587,402.255,267.173,-21.459,1267.800,113.290,-529.580
186,44672.732000,130.713,428.686,-43.585,397.866,280.247,-19.063,-493.200,252.290,-908.580
187,44672.763000,172.146,129.767,54.607,375.963,307.285,17.492,-3208.200,65.290,-1455.580
188,44672.806000,175.106,62.107,7.515,352.349,328.780,72.728,-2792.200,1049.290,-1285.580
189,44672.840000,217.526,34.840,-68.634,325.162,337.727,113.644,-455.200,1934.290,-695.580
190,44672.867000,222.459,134.817,-103.703,314.637,344.218,128.716,40.800,1747.290,-744.580
191,44672.906000,232.324,30.801,-130.755,288.247,350.613,140.755,34.800,1136.290,-798.580
192,44672.946000,281.649,-25.751,-144.783,273.273,360.094,139.029,416.800,462.290,-650.580
193,44673.6000,270.798,96.442,-111.718,260.947,382.568,136.739,-617.200,-446.710,-634.580
194,44673.23000,377.341,-73.215,63.624,265.351,377.392,137.579,-955.200,-452.710,72.420
195,44673.71000,338.867,84.323,101.699,270.674,377.762,150.516,-844.200,-239.710,188.420
196,44673.104000,273.757,64.126,117.730,275.080,372.613,152.349,-427.200,-339.710,68.420
197,44673.128000,211.607,100.481,71.640,271.544,378.518,146.572,316.800,-113.710,-100.580
198,44673.164000,209.634,102.501,52.603,272.414,378.406,142.599,-20.200,-376.710,-165.580
199,44673.203000,211.607,95.432,71.640,270.627,375.575,134.557,-5.200,-441.710,-271.580
200,44673.244000,223.445,100.481,55.609,268.846,376.244,127.623,25.800,-513.710,-311.580
201,44673.286000,242.189,65.136,57.613,269.700,385.455,116.008,655.800,-383.710,-299.580
202,44673.327000,251.067,71.195,-29.558,267.002,395.249,94.472,809.800,-441.710,-325.580
203,44673.341000,239.229,69.176,2.505,259.912,398.266,78.659,915.800,-439.710,-246.580
204,44673.393000,269.811,109.570,18.536,262.500,408.064,57.139,922.800,-267.710,-175.580
205,44673.422000,172.146,206.517,-27.554,260.693,409.348,41.287,718.800,-280.710,-78.580
206,44673.463000,203.715,163.093,33.566,263.297,405.512,28.262,312.800,-271.710,-43.580
207,44673.509000,258.960,96.442,-27.554,265.043,410.524,21.480,543.800,-68.710,-49.580
208,44673.543000,235.283,114.619,-19.538,264.135,409.402,12.503,577.800,-78.710,-58.580
209,44673.584000,227.391,122.698,-14.528,260.572,413.316,-2.276,712.800,-96.710,-41.580
210,44673.604000,152.416,220.655,10.521,261.423,411.299,-12.268,424.800,-51.710,54.420
211,44673.649000,206.674,133.807,-7.515,262.294,408.612,-15.332,403.800,222.290,220.420
212,44673.684000,249.094,103.511,-42.583,266.677,402.370,-21.478,286.800,179.290,222.420
213,44673.724000,216.540,100.481,-14.528,270.195,398.004,-22.602,39.800,20.290,156.420
214,44673.764000,186.944,129.767,-59.616,274.600,398.007,-22.587,-102.200,39.290,163.420
215,44673.812000,228.378,90.383,-25.550,278.142,392.159,-14.822,-377.200,79.290,239.420
216,44673.836000,257.973,59.077,-51.601,280.797,394.010,-10.781,97.800,381.290,160.420
217,44673.887000,225.418,126.738,34.568,279.918,395.745,-10.728,71.800,248.290,25.420
218,44673.903000,202.728,159.053,37.573,277.283,395.828,-7.755,-4.200,102.290,-94.580
219,44673.943000,201.742,118.659,-39.577,278.191,401.262,0.368,-388.200,-131.710,-92.580
220,44673.984000,240.216,124.718,-34.568,279.948,398.631,-0.704,-319.200,115.290,22.420
221,44674.28000,237.256,100.481,5.511,279.968,395.384,7.134,66.800,297.290,33.420
222,44674.62000,243.175,85.333,-12.524,279.963,400.508,4.322,481.800,328.290,-29.580
223,44674.83000,192.863,165.112,24.548,277.302,405.488,-3.469,616.800,308.290,-66.580
224,44674.123000,212.593,138.856,3.507,272.880,398.429,-7.684,331.800,253.290,48.420
225,44674.163000,228.378,92.402,-16.532,273.740,400.808,-15.548,630.800,346.290,42.420
226,44674.203000,190.890,120.679,28.556,271.946,402.205,-27.425,934.800,275.290,-130.580
227,44674.243000,218.513,129.767,3.507,271.916,400.187,-37.420,432.800,68.290,-157.580
228,44674.288000,244.162,127.748,30.560,264.872,401.078,-36.421,21.800,-79.710,-98.580
229,44674.304000,235.283,112.600,38.575,268.390,405.336,-39.250,76.800,-193.710,-171.580
230,44674.344000,221.472,129.767,11.523,264.859,410.429,-43.068,-22.200,-281.710,-227.580
231,44674.427000,183.985,156.024,-26.552,260.448,412.945,-45.980,-95.200,-158.710,-91.580
232,44674.473000,226.405,118.659,-12.524,263.097,410.427,-43.074,-124.200,-150.710,0.420
233,44674.514000,232.324,119.669,-13.526,260.457,407.010,-41.207,-289.200,-234.710,17.420
234,44674.551000,200.755,139.866,-31.562,260.466,407.094,-38.226,-371.200,-261.710,62.420
235,44674.567000,208.647,132.797,-29.558,264.884,405.502,-33.298,-402.200,-184.710,161.420
236,44674.576000,212.593,132.797,-17.534,267.544,406.541,-27.298,-438.200,-152.710,207.420
237,44674.621000,224.432,118.659,-15.530,273.719,406.630,-24.296,-471.200,-160.710,201.420
238,44674.643000,216.540,118.659,-4.509,275.513,404.366,-12.448,-609.200,-195.710,181.420
239,44674.683000,224.432,103.511,-4.509,275.522,393.251,-6.851,-670.200,-258.710,118.420
240,44674.724000,233.310,94.422,10.521,279.076,403.027,1.422,-573.200,-381.710,-33.580
241,44674.766000,242.189,109.570,-16.532,272.919,404.843,4.440,-504.200,-422.710,-127.580
242,44674.786000,210.620,147.945,-15.530,279.097,401.516,9.317,-373.200,-326.710,-91.580
243,44674.831000,222.459,114.619,-17.534,277.341,398.127,12.180,-325.200,-190.710,16.420
244,44674.862000,239.229,110.580,-22.544,279.115,398.241,16.161,-344.200,-149.710,17.420
245,44674.906000,225.418,109.570,-16.532,280.012,401.855,21.246,-165.200,-39.710,40.420
246,44674.946000,225.418,116.639,-10.521,280.015,401.015,22.212,-127.200,94.290,84.420
247,44674.986000,224.432,117.649,-12.524,278.266,395.974,28.001,-32.200,109.290,66.420
248,44675.27000,248.108,82.304,-1.503,279.131,400.986,21.215,334.800,95.290,7.420
249,44675.47000,210.620,132.797,0.501,278.236,400.844,16.243,405.800,29.290,-93.580
250,44675.87000,219.499,121.688,-8.517,277.338,397.231,11.158,340.800,9.290,-81.580
251,44675.134000,217.526,130.777,-2.505,271.157,404.841,4.434,184.800,-39.710,-112.580
252,44675.168000,228.378,112.600,-23.546,269.389,403.916,2.412,265.800,-18.710,-126.580
253,44675.206000,215.553,133.807,-19.538,269.373,401.171,-2.642,208.800,66.290,-63.580
254,44675.243000,215.553,135.826,-9.519,271.127,402.824,-5.561,181.800,127.290,35.420
255,44675.266000,226.405,122.698,-8.517,272.901,407.249,-2.433,140.800,133.290,95.420
256,44675.304000,220.486,126.738,-13.526,270.241,399.323,-6.671,153.800,124.290,90.420
257,44675.346000,213.580,122.698,-8.517,273.765,400.193,-6.631,175.800,147.290,103.420
258,44675.386000,203.715,142.895,4.509,275.526,401.903,-7.563,39.800,139.290,105.420
259,44675.426000,233.310,102.501,-2.505,279.055,401.961,-5.564,-140.200,94.290,134.420
260,44675.466000,211.607,133.807,4.509,278.193,400.422,1.334,-274.200,62.290,120.420
261,44675.513000,211.607,130.777,12.524,283.504,399.811,10.268,-529.200,29.290,129.420
262,44675.528000,241.202,83.314,-22.544,285.295,397.518,21.123,-547.200,28.290,135.420
263,44675.566000,241.202,87.353,-3.507,287.063,395.000,24.026,-125.200,129.290,92.420
264,44675.609000,232.324,105.531,0.501,288.829,392.454,25.935,43.800,157.290,62.420
265,44675.644000,228.378,96.442,-5.511,287.951,388.170,27.779,125.800,207.290,64.420
266,44675.712000,229.364,105.531,3.507,287.951,389.038,27.807,82.800,228.290,27.420
267,44675.728000,216.540,112.600,12.524,287.957,396.850,28.060,235.800,194.290,-18.580
268,44675.748000,232.324,104.521,10.521,285.306,397.631,25.098,172.800,94.290,-82.580
269,44675.784000,228.378,113.609,0.501,284.427,399.367,25.152,231.800,134.290,-78.580
270,44675.827000,227.391,106.540,14.528,284.415,394.942,22.029,225.800,187.290,-65.580
271,44675.887000,227.391,116.639,12.524,281.780,398.468,24.121,9.800,174.290,-96.580
272,44675.927000,225.418,123.708,3.507,277.385,399.418,27.117,-152.200,174.290,-45.580
273,44675.967000,219.499,114.619,8.517,280.917,399.505,30.110,-74.200,240.290,45.420
274,44675.983000,214.566,127.748,28.556,277.409,402.247,35.153,25.800,195.290,6.420
275,44676.4000,229.364,89.373,28.556,277.408,400.511,35.096,-141.200,52.290,6.420
276,44676.46000,242.189,90.383,8.517,273.892,395.413,38.892,110.800,74.290,-63.580
277,44676.87000,216.540,116.639,27.554,272.123,397.063,35.960,169.800,59.290,-81.580
278,44676.127000,216.540,121.688,29.558,269.475,398.741,34.020,38.800,-2.710,-114.580
279,44676.167000,226.405,105.531,17.534,271.226,402.074,29.169,231.800,-68.710,-228.580
280,44676.248000,235.283,108.560,27.554,266.816,411.506,25.489,392.800,-138.710,-241.580
281,44676.256000,213.580,161.073,27.554,264.148,411.250,16.535,174.800,-156.710,-234.580
282,44676.306000,237.256,102.501,8.517,259.726,414.522,9.677,406.800,4.290,-132.580
283,44676.321000,211.607,132.797,15.530,257.069,414.379,4.698,184.800,-85.710,-107.580
284,44676.348000,215.553,130.777,3.507,256.167,412.445,-2.318,264.800,-75.710,-119.580
285,44676.384000,226.405,117.649,5.511,253.515,411.491,-5.337,199.800,-108.710,-117.580
286,44676.428000,225.418,119.669,-9.519,249.972,412.159,-12.277,302.800,-63.710,-118.580
287,44676.464000,206.674,140.876,0.501,246.454,416.525,-11.154,234.800,-28.710,-114.580
288,44676.484000,218.513,124.718,-0.501,243.792,418.062,-18.063,139.800,-44.710,-103.580
289,44676.524000,227.391,118.659,-10.521,239.371,415.314,-23.132,350.800,-35.710,-129.580
290,44676.564000,210.620,150.974,-6.513,234.065,417.688,-31.016,440.800,-23.710,-176.580
291,44676.606000,219.499,125.728,-9.519,235.808,414.917,-37.058,495.800,-51.710,-162.580
292,44676.646000,220.486,132.797,-21.542,233.127,412.812,-50.044,503.800,-70.710,-158.580
293,44676.688000,212.593,156.024,2.505,228.704,418.660,-57.812,611.800,-31.710,-179.580
294,44676.711000,216.540,129.767,-4.509,225.163,426.244,-65.521,524.800,-53.710,-171.580
295,44676.756000,218.513,124.718,-27.554,221.592,419.743,-80.638,668.800,-91.710,-211.580
296,44676.829000,224.432,118.659,-30.560,216.278,423.769,-91.448,699.800,-201.710,-283.580
297,44676.886000,217.526,133.807,-16.532,207.427,420.764,-105.475,622.800,-313.710,-347.580
298,44676.910000,204.701,146.935,-25.550,195.941,424.730,-118.292,487.800,-374.710,-411.580
299,44676.927000,187.931,158.043,-51.601,188.859,424.387,-130.242,381.800,-359.710,-422.580
300,44676.959000,188.917,160.063,-60.618,180.023,422.391,-139.272,391.800,-294.710,-360.580
301,44676.967000,184.971,160.063,-66.630,172.956,423.924,-146.196,285.800,-307.710,-320.580
302,44677.47000,185.958,155.014,-70.638,163.268,426.521,-146.143,199.800,-311.710,-256.580
303,44677.136000,176.092,168.142,-70.638,161.486,430.635,-153.959,154.800,-250.710,-191.580
304,44677.203000,170.173,164.103,-80.658,153.549,429.676,-156.994,154.800,-189.710,-159.580
305,44677.228000,185.958,175.211,-69.636,148.249,430.400,-161.953,160.800,-119.710,-170.580
306,44677.238000,193.850,181.270,-77.652,149.991,421.580,-167.198,573.800,109.290,-356.580
307,44677.265000,188.917,203.487,-76.650,137.597,420.112,-188.139,1381.800,292.290,-723.580
308,44677.271000,180.039,175.211,-132.759,122.515,410.435,-223.256,1786.800,82.290,-943.580
309,44677.296000,176.092,95.432,-194.881,98.631,395.656,-254.594,1756.800,-204.710,-884.580
310,44677.303000,179.052,71.195,-190.873,85.335,384.498,-280.817,1589.800,-454.710,-603.580
311,44677.384000,188.917,66.146,-164.822,75.562,364.719,-305.322,1162.800,-653.710,-146.580
312,44677.427000,192.863,67.156,-145.785,62.283,345.975,-323.846,1099.800,-626.710,229.420
313,44677.444000,197.796,82.304,-112.720,63.986,331.609,-341.188,971.800,-518.710,730.420
314,44677.477000,208.647,70.185,-33.566,71.889,327.050,-349.255,612.800,-232.710,1140.420
315,44677.499000,238.243,92.402,25.550,100.061,317.409,-353.449,354.800,125.290,1476.420
316,44677.541000,250.081,108.560,37.573,143.205,298.260,-356.911,761.800,1179.290,1803.420
317,44677.561000,303.353,181.270,66.630,202.259,282.234,-342.347,179.800,1701.290,1790.420
318,44677.596000,294.474,196.418,56.611,258.742,266.910,-302.944,-623.200,2087.290,1681.420
319,44677.641000,301.380,236.813,33.566,294.089,265.430,-264.152,-1793.200,2394.290,1657.420
320,44677.676000,331.961,251.961,40.579,341.860,264.861,-193.515,-2395.200,2504.290,1720.420
321,44677.717000,355.638,286.296,23.546,376.425,252.299,-117.351,-2453.200,2709.290,1672.420
322,44677.757000,342.813,319.621,-38.575,399.542,237.181,-39.322,-1941.200,2959.290,1084.420
323,44677.799000,304.339,238.832,-91.679,410.248,239.380,7.455,-1312.200,2790.290,612.420
324,44677.822000,254.027,315.582,-93.683,410.415,232.419,67.802,-539.200,2428.290,51.420
325,44677.857000,232.324,271.148,-145.785,406.125,238.722,106.719,-1273.200,1026.290,-1198.580
326,44677.897000,226.405,188.339,-171.836,393.012,261.257,137.198,-1556.200,248.290,-1641.580
327,44677.937000,220.486,209.546,-162.818,379.828,276.201,144.592,-1519.200,-310.710,-1877.580
328,44677.979000,235.283,170.162,-152.798,366.675,300.918,160.246,-1805.200,-845.710,-2081.580
329,44678.17000,240.216,130.777,-122.740,347.321,326.160,163.982,-1315.200,-884.710,-2136.580
330,44678.37000,256.000,65.136,-93.683,321.786,362.457,160.113,-819.200,-840.710,-2126.580
331,44678.83000,259.946,25.751,-69.636,291.811,392.364,145.100,117.800,-666.710,-2042.580
332,44678.124000,283.622,-17.673,-56.611,271.510,409.202,127.708,727.800,-707.710,-1586.580
333,44678.162000,270.798,155.014,-115.726,255.614,425.176,110.301,-994.200,-635.710,-591.580
334,44678.196000,404.963,-165.112,223.937,260.926,410.790,122.760,-1147.200,-167.710,520.420
335,44678.236000,475.006,-61.097,133.761,266.229,403.207,130.475,-462.200,-265.710,168.420
336,44678.276000,348.732,43.929,-62.622,269.734,412.504,121.851,586.800,-292.710,29.420
337,44678.297000,225.418,109.570,-20.540,271.459,416.451,108.083,613.800,-164.710,-52.580
338,44678.340000,238.243,-21.712,0.501,272.305,414.377,96.102,972.800,259.290,366.420
339,44678.379000,223.445,0.505,-7.515,288.111,406.126,79.997,1548.800,896.290,1230.420
340,44678.416000,241.202,48.978,-34.568,299.524,391.965,69.645,1703.800,1131.290,1645.420
341,44678.457000,245.148,81.294,-53.605,328.550,368.269,59.039,1606.800,1042.290,1775.420
342,44678.497000,243.175,118.659,-70.638,347.891,340.310,51.243,1365.800,783.290,1833.420
343,44678.519000,221.472,130.777,-77.652,368.984,315.711,39.589,1273.800,595.290,1777.420
344,44678.558000,217.526,137.846,-70.638,392.733,292.963,31.976,1297.800,373.290,1764.420
345,44678.597000,204.701,215.606,-43.585,399.744,269.335,24.281,245.800,-182.710,1524.420
346,44678.637000,211.607,234.793,-39.577,414.692,247.534,19.649,-888.200,-908.710,1052.420
347,44678.677000,301.380,205.507,94.685,418.170,234.150,6.317,-1941.200,-1522.710,453.420
348,44678.725000,322.096,20.702,363.209,418.172,229.866,8.164,-1205.200,-533.710,216.420
349,44678.757000,310.258,100.481,292.070,418.175,229.894,9.158,566.800,338.290,-153.580
350,44678.789000,262.906,93.412,98.693,414.630,240.026,-0.454,1763.800,460.290,-729.580
351,44678.821000,214.566,178.241,6.513,402.276,257.907,-11.830,1895.800,532.290,-949.580
352,44678.868000,218.513,132.797,107.710,393.495,280.581,-7.150,-36.200,171.290,-999.580
353,44678.902000,210.620,156.024,34.568,388.245,290.407,3.082,-1335.200,268.290,-766.580
354,44678.938000,208.647,178.241,23.546,380.410,302.530,33.240,-1806.200,254.290,-767.580
355,44678.977000,216.540,160.063,-10.521,371.697,314.681,64.389,-1909.200,209.290,-944.580
356,44678.997000,211.607,123.708,-51.601,360.331,328.453,91.610,-1284.200,149.290,-1250.580
357,44679.38000,194.836,198.438,-60.618,343.627,336.535,101.749,-687.200,41.290,-1407.580
358,44679.82000,211.607,93.412,-106.708,328.670,362.564,102.546,-444.200,-145.710,-1537.580
359,44679.124000,230.351,37.870,-149.793,305.758,387.466,94.343,143.800,-343.710,-1370.580
360,44679.158000,248.108,14.643,-147.789,289.865,407.779,77.078,214.800,-642.710,-1119.580
361,44679.221000,272.771,26.761,-138.771,279.283,416.282,71.362,-276.200,-973.710,-889.580
362,44679.240000,399.044,-186.320,151.796,278.399,411.942,71.218,-1590.200,-899.710,88.420
363,44679.272000,426.667,219.645,195.883,290.813,391.208,104.347,-2005.200,-181.710,514.420
364,44679.311000,272.771,120.679,94.685,293.464,390.427,107.309,1440.800,595.290,354.420
365,44679.342000,215.553,176.221,53.605,294.320,387.598,99.276,255.800,147.290,262.420
366,44679.377000,222.459,115.629,32.564,297.862,389.506,105.307,-500.200,-90.710,145.420
367,44679.424000,204.701,123.708,71.640,300.510,388.696,107.275,39.800,38.290,137.420
368,44679.487000,220.486,113.609,39.577,300.507,388.668,106.281,31.800,-33.710,62.420
369,44679.494000,233.310,110.580,48.595,300.504,388.640,105.287,-64.200,-104.710,23.420
370,44679.518000,235.283,107.550,46.591,304.022,379.962,105.017,1.800,-117.710,0.420
371,44679.569000,221.472,115.629,35.569,300.499,385.139,104.181,31.800,-128.710,-34.580
372,44679.597000,215.553,125.728,34.568,304.014,384.190,101.182,-17.200,-143.710,-24.580
373,44679.638000,217.526,114.619,34.568,303.125,381.529,99.107,14.800,-127.710,-15.580
374,44679.691000,216.540,119.669,37.573,303.109,383.096,93.200,34.800,-139.710,-50.580
375,44679.718000,217.526,123.708,38.575,305.760,390.070,94.428,25.800,-156.710,-53.580
376,44679.738000,217.526,121.688,34.568,304.875,383.993,94.228,28.800,-184.710,-19.580
377,44679.777000,212.593,126.738,25.550,305.751,392.561,90.537,-11.200,-172.710,-14.580
378,44679.818000,223.445,111.590,28.556,308.376,392.394,84.582,22.800,-155.710,-18.580
379,44679.858000,221.472,123.708,26.552,309.242,383.630,81.321,55.800,-185.710,-33.580
380,44679.902000,222.459,115.629,25.550,305.709,385.251,77.390,29.800,-202.710,-32.580
381,44679.944000,216.540,129.767,11.523,310.105,389.481,73.570,-5.200,-150.710,-10.580
382,44679.972000,229.364,115.629,19.538,308.339,391.160,71.633,91.800,-114.710,4.420
383,44680.3000,221.472,122.698,15.530,307.454,393.707,69.726,163.800,-93.710,-5.580
384,44680.42000,219.499,126.738,15.530,305.671,391.772,62.707,105.800,-93.710,-2.580
385,44680.83000,222.459,117.649,17.534,307.424,390.821,59.703,159.800,-82.710,-1.580
386,44680.122000,224.432,118.659,11.523,307.415,389.869,56.693,95.800,-115.710,-26.580
387,44680.163000,233.310,108.560,7.515,304.758,389.726,51.715,350.800,-102.710,-44.580
388,44680.198000,214.566,136.836,5.511,309.150,395.636,45.963,289.800,-64.710,-67.580
389,44680.218000,220.486,119.669,13.526,304.732,397.228,41.035,124.800,-69.710,-63.580
390,44680.264000,214.566,127.748,9.519,304.724,401.455,37.200,277.800,-25.710,-72.580
391,44680.302000,218.513,134.817,6.513,302.066,399.577,32.166,142.800,-33.710,-64.580
392,44680.346000,217.526,125.728,9.519,302.945,396.973,32.084,165.800,-48.710,-50.580
393,44680.391000,225.418,123.708,5.511,302.050,394.256,28.021,137.800,-80.710,-29.580
394,44680.418000,212.593,143.905,0.501,301.161,398.483,24.184,39.800,-90.710,-0.580
395,44680.461000,219.499,123.708,-0.501,303.792,393.192,21.041,32.800,-34.710,111.420
396,44680.479000,215.553,141.886,1.503,302.920,398.456,23.195,-89.200,-86.710,142.420
397,44680.526000,214.566,130.777,9.519,309.974,398.517,25.206,-40.200,-86.710,180.420
398,44680.562000,215.553,134.817,6.513,311.729,393.282,24.049,-120.200,-94.710,170.420
399,44680.599000,235.283,92.402,-5.511,314.374,389.001,25.904,-9.200,-115.710,78.420
400,44680.642000,213.580,133.807,23.546,311.724,394.962,22.117,48.800,-156.710,-43.580
401,44680.692000,217.526,124.718,13.526,316.115,387.069,18.896,-111.200,-250.710,-84.580
402,44680.700000,244.162,113.609,-39.577,315.235,388.804,18.950,-63.200,-74.710,-90.580
403,44680.742000,229.364,106.540,-22.544,314.357,396.587,18.207,-17.200,82.290,-46.580
404,44680.778000,233.310,121.688,-12.524,312.585,398.209,14.282,273.800,58.290,-80.580
405,44680.831000,208.647,128.757,8.517,308.167,395.489,10.207,222.800,8.290,-60.580
406,44680.862000,196.809,143.905,-6.513,306.403,400.640,8.383,270.800,17.290,-47.580
407,44680.899000,196.809,147.945,-12.524,303.744,397.893,3.320,251.800,126.290,-1.580
408,44680.943000,206.674,143.905,0.501,309.022,395.236,1.265,145.800,204.290,48.420
409,44680.961000,225.418,113.609,-21.542,310.793,398.766,3.371,41.800,203.290,98.420
410,44681.2000,230.351,119.669,-28.556,309.920,398.850,6.350,151.800,282.290,113.420
411,44681.41000,226.405,108.560,2.505,313.440,397.088,5.311,97.800,265.290,138.420
412,44681.219000,213.580,129.767,9.519,313.444,394.541,7.214,197.800,313.290,126.420
413,44681.234000,236.270,100.481,-2.505,318.731,392.837,8.169,209.800,230.290,128.420
414,44681.249000,228.378,113.609,12.524,316.956,386.675,4.984,358.800,209.290,97.420
415,44681.260000,193.850,147.945,44.587,316.946,384.854,1.946,123.800,29.290,-6.580
416,44681.260000,203.715,133.807,9.519,317.833,384.911,3.937,-215.200,-141.710,-41.580
417,44681.300000,237.256,97.452,-30.560,319.611,391.969,8.144,-369.200,-184.710,12.420
418,44681.325000,252.054,88.363,-27.554,321.368,389.338,7.071,123.800,12.290,-58.580
419,44681.340000,221.472,129.767,-12.524,314.318,393.617,5.201,172.800,62.290,-137.580
420,44681.379000,227.391,120.679,-0.501,313.422,396.051,-0.681,478.800,184.290,-120.580
421,44681.451000,213.580,146.935,16.532,312.525,396.750,-6.619,357.800,122.290,-72.580
422,44681.478000,217.526,150.974,12.524,312.520,390.674,-6.816,136.800,36.290,85.420
423,44681.512000,211.607,135.826,-0.501,316.054,395.941,-4.648,79.800,78.290,245.420
424,44681.526000,216.540,117.649,8.517,322.208,382.897,-6.044,-117.200,1.290,283.420
425,44681.619000,212.593,118.659,9.519,327.500,380.381,-3.130,-292.200,-71.710,239.420
426,44681.634000,235.283,101.491,2.505,331.933,380.666,6.823,-579.200,-185.710,173.420
427,44681.649000,227.391,95.432,2.505,331.071,382.571,12.840,-603.200,-248.710,75.420
428,44681.662000,237.256,86.343,9.519,332.838,381.760,14.806,-633.200,-356.710,-22.580
429,44681.699000,237.256,108.560,1.503,331.968,381.872,18.778,-498.200,-432.710,-122.580
430,44681.742000,226.405,113.609,0.501,331.091,379.324,20.679,-422.200,-429.710,-132.580
431,44681.779000,223.445,111.590,0.501,328.438,377.501,17.632,-246.200,-386.710,-149.580
432,44681.822000,227.391,104.521,-17.534,325.788,386.907,12.964,-271.200,-361.710,-212.580
433,44681.859000,223.445,127.748,-15.530,322.277,388.753,16.985,-204.200,-275.710,-180.580
434,44681.900000,216.540,133.807,-17.534,321.390,391.272,14.085,-124.200,-217.710,-115.580
435,44681.919000,245.148,108.560,-33.566,323.160,394.801,16.191,7.800,-54.710,-23.580
436,44681.972000,220.486,127.748,-28.556,321.402,392.252,18.088,-61.200,101.290,96.420
437,44682.51000,227.391,111.590,-15.530,323.161,377.582,20.597,93.800,276.290,157.420
438,44682.74000,222.459,121.688,5.511,324.931,381.112,22.703,-15.200,236.290,144.420
439,44682.89000,213.580,120.679,6.513,331.998,384.758,28.802,-57.200,218.290,131.420
440,44682.120000,237.256,91.393,-11.523,329.361,380.500,31.634,-122.200,197.290,95.420
441,44682.180000,224.432,111.590,6.513,330.252,383.190,34.704,176.800,335.290,60.420
442,44682.198000,238.243,113.609,-24.548,330.255,382.350,35.669,430.800,523.290,68.420
443,44682.221000,234.297,105.531,-10.521,324.979,377.279,40.453,158.800,518.290,38.420
444,44682.260000,227.391,75.235,16.532,323.224,379.070,42.491,610.800,582.290,-65.580
445,44682.307000,217.526,110.580,24.548,320.579,383.352,40.636,408.800,408.290,-180.580
446,44682.345000,201.742,139.866,34.568,313.520,386.678,35.756,245.800,217.290,-243.580
447,44682.380000,215.553,151.984,28.556,310.000,388.439,36.795,205.800,148.290,-163.580
448,44682.401000,222.459,135.826,25.550,309.125,397.118,37.074,108.800,127.290,-2.580
449,44682.441000,227.391,96.442,19.538,307.353,398.741,33.149,501.800,82.290,-82.580
450,44682.483000,195.823,149.964,40.579,305.566,401.930,23.317,223.800,-37.710,-123.580
451,44682.522000,225.418,111.590,10.521,299.400,402.793,23.325,175.800,-104.710,-147.580
452,44682.562000,222.459,113.609,9.519,297.613,395.651,16.137,201.800,-81.710,-165.580
453,44682.602000,222.459,115.629,25.550,298.477,403.238,8.442,487.800,-115.710,-211.580
454,44682.651000,191.877,155.014,16.532,294.062,408.302,3.627,175.800,-199.710,-261.580
455,44682.663000,223.445,137.846,2.505,287.869,411.488,-6.220,246.800,-196.710,-231.580
456,44682.704000,226.405,129.767,-0.501,284.335,416.552,-11.032,267.800,-162.710,-158.580
457,44682.744000,215.553,130.777,-4.509,281.683,415.598,-14.050,237.800,-90.710,-134.580
458,44682.782000,208.647,138.856,-10.521,279.008,414.418,-25.020,361.800,-59.710,-146.580
459,44682.824000,216.540,145.925,-24.548,275.464,414.218,-31.989,343.800,-43.710,-120.580
460,44682.864000,222.459,133.807,-19.538,272.803,415.755,-38.898,583.800,65.290,-74.580
461,44682.884000,224.432,117.649,-26.552,275.425,421.580,-47.638,636.800,61.290,-67.580
462,44682.925000,219.499,129.767,-20.540,272.726,419.306,-66.587,788.800,29.290,-93.580
463,44682.966000,204.701,164.103,7.515,264.765,416.387,-77.630,502.800,-103.710,-130.580
464,44683.12000,202.728,159.053,0.501,263.869,415.377,-82.631,211.800,-192.710,-156.580
465,44683.45000,200.755,147.945,-5.511,262.086,414.311,-89.622,265.800,-249.710,-219.580
466,44683.87000,205.688,141.886,-12.524,251.497,420.154,-97.410,190.800,-338.710,-334.580
467,44683.120000,208.647,142.895,-47.593,246.185,419.029,-106.401,308.800,-271.710,-355.580
468,44683.142000,200.755,154.004,-63.624,240.001,422.299,-113.265,332.800,-208.710,-295.580
469,44683.182000,191.877,144.915,-57.613,232.940,428.201,-119.054,170.800,-217.710,-224.580
470,44683.227000,190.890,157.034,-46.591,228.533,431.613,-120.944,182.800,-189.710,-222.580
471,44683.262000,197.796,145.925,-42.583,222.339,433.063,-130.846,276.800,-174.710,-226.580
472,44683.302000,190.890,145.925,-59.616,215.281,434.681,-134.788,167.800,-267.710,-225.580
473,44683.344000,184.971,160.063,-56.611,209.087,431.819,-143.838,85.800,-289.710,-218.580
474,44683.364000,177.079,166.122,-58.614,207.328,432.714,-142.822,80.800,-276.710,-204.580
475,44683.411000,177.079,172.181,-56.611,201.152,438.645,-147.614,65.800,-224.710,-196.580
476,44683.444000,189.904,165.112,-54.607,194.985,437.772,-147.662,49.800,-180.710,-214.580
477,44683.484000,165.241,170.162,-83.663,187.924,435.918,-151.717,57.800,-155.710,-113.580
478,44683.544000,168.200,184.300,-71.640,188.805,439.363,-152.595,-41.200,-118.710,-92.580
479,44683.569000,159.322,160.063,-78.654,188.809,436.815,-150.692,-73.200,-100.710,-71.580
480,44683.606000,175.106,166.122,-80.658,183.519,438.491,-152.640,137.800,-15.710,-73.580
481,44683.632000,195.823,138.856,-92.681,182.628,440.114,-156.563,109.800,-52.710,-76.580
482,44683.665000,191.877,125.728,-153.800,179.966,437.339,-162.619,231.800,-145.710,-27.580
483,44683.704000,210.620,155.014,-131.757,178.184,437.140,-169.582,317.800,-277.710,22.420
484,44683.793000,202.728,226.714,-157.808,171.112,430.862,-176.760,568.800,-392.710,-379.580
485,44683.818000,235.283,105.531,-212.916,141.916,426.158,-219.704,1963.800,-567.710,-905.580
486,44683.834000,260.933,14.643,-145.785,120.571,389.676,-282.522,3221.800,-494.710,-580.580
487,44683.842000,238.243,-23.732,-3.507,116.932,356.656,-315.381,2524.800,-351.710,140.420
488,44683.883000,235.283,26.761,53.605,133.573,324.688,-342.183,1621.800,421.290,1031.420
489,44683.926000,279.676,67.156,73.644,177.608,299.604,-340.869,551.800,1359.290,1952.420
490,44683.966000,289.541,139.866,63.624,238.449,274.341,-315.676,194.800,2016.290,2359.420
491,44684.5000,314.204,239.842,71.640,280.796,270.680,-292.821,-782.200,2284.290,2466.420
492,44684.45000,320.123,319.621,46.591,338.222,255.108,-231.577,-2008.200,2296.290,2177.420
493,44684.87000,321.110,312.552,42.583,385.998,245.103,-157.274,-2270.200,2409.290,1933.420
494,44684.108000,340.840,313.562,47.593,424.115,239.713,-72.922,-2012.200,2693.290,1221.420
495,44684.148000,300.393,292.355,-28.556,441.069,223.779,7.047,-1144.200,2672.290,677.420
496,44684.182000,233.310,371.124,-118.732,438.567,226.893,55.797,-902.200,2001.290,-149.580
497,44684.228000,239.229,280.237,-163.820,424.622,243.019,104.932,-1425.200,788.290,-1189.580
498,44684.262000,235.283,231.763,-178.849,406.223,261.239,136.247,-1547.200,205.290,-1593.580
499,44684.302000,229.364,232.773,-187.867,387.788,284.272,153.816,-1714.200,-317.710,-1862.580
500,44684.342000,238.243,152.994,-154.802,372.852,296.723,165.095,-1567.200,-669.710,-2121.580
501,44684.368000,231.337,135.826,-134.763,353.500,323.701,168.887,-994.200,-658.710,-2191.580
502,44684.403000,228.378,77.254,-141.777,330.596,355.575,161.904,-218.200,-567.710,-1994.580
503,44684.452000,249.094,56.047,-157.808,307.661,387.139,143.988,122.800,-671.710,-1854.580
504,44684.482000,312.231,28.781,-58.614,295.303,415.324,128.975,454.800,-737.710,-1598.580
505,44684.524000,323.083,-114.619,-12.524,281.175,432.223,113.591,-200.200,-962.710,-992.580
506,44684.562000,411.869,-151.984,199.890,284.713,431.498,118.543,-884.200,-250.710,135.420
507,44684.582000,453.303,275.187,-0.501,288.273,426.687,132.301,-711.200,30.290,1.420
508,44684.622000,345.773,100.481,88.673,286.476,425.480,120.340,660.800,246.290,43.420
509,44684.663000,345.773,56.047,44.587,285.594,428.055,119.428,405.800,50.290,-43.580
510,44684.712000,264.879,49.988,-120.736,279.389,429.392,105.549,772.800,-233.710,-321.580
511,44684.745000,235.283,108.560,-93.683,265.236,442.594,82.100,879.800,-202.710,-396.580
512,44684.785000,197.796,-11.613,-10.521,258.168,445.835,74.239,841.800,444.290,54.420
513,44684.827000,179.052,-26.761,-10.521,262.520,440.152,57.188,2254.800,1582.290,934.420
514,44684.847000,229.364,26.761,-31.562,283.570,428.038,27.072,3506.800,2653.290,1648.420
515,44684.883000,268.825,60.087,-123.742,306.394,403.131,4.491,3563.800,2911.290,1801.420
516,44684.925000,278.690,91.393,-142.779,334.523,369.801,-9.409,2654.800,2450.290,1687.420
517,44684.965000,269.811,142.895,-184.861,347.726,355.055,-9.845,1294.800,1138.290,1533.420
518,44685.5000,76.455,516.544,-204.900,362.734,336.421,5.486,-3095.200,-1102.710,798.420
519,44685.48000,220.486,-29.791,297.080,374.256,331.953,31.196,-3130.200,-1262.710,154.420
520,44685.68000,251.067,287.306,237.965,368.955,337.828,24.419,843.800,318.290,-224.580
521,44685.120000,129.726,124.718,22.544,357.483,341.067,16.543,1133.800,554.290,-565.580
522,44685.143000,129.726,186.320,-116.728,350.396,353.603,0.046,2094.800,503.290,-528.580
523,44685.183000,154.389,318.611,-63.624,338.950,361.406,0.263,-1146.200,-390.710,-760.580
524,44685.223000,169.187,188.339,-54.607,330.288,369.752,50.156,-3927.200,-1150.710,-959.580
525,44685.268000,170.173,100.481,-39.577,319.855,374.569,97.942,-3124.200,-876.710,-917.580
526,44685.303000,163.268,194.398,-85.667,317.274,377.762,118.890,-1907.200,-456.710,-755.580
527,44685.323000,213.580,121.688,-129.753,315.557,380.787,133.878,-1015.200,-543.710,-868.580
528,44685.363000,252.054,93.412,-72.642,311.157,391.172,133.208,-531.200,-699.710,-894.580
529,44685.403000,277.703,29.791,-68.634,308.525,402.482,134.559,-741.200,-957.710,-863.580
530,44685.443000,316.177,-112.600,3.507,308.518,400.690,132.515,-1351.200,-1155.710,-514.580
531,44685.483000,348.732,-57.057,131.757,315.575,398.204,136.429,-1134.200,-620.710,204.420
532,44685.527000,322.096,10.604,152.798,330.583,387.325,150.026,-992.200,-110.710,484.420
533,44685.547000,296.447,64.126,73.644,338.525,375.404,157.608,-793.200,-106.710,118.420
534,44685.587000,254.027,107.550,77.652,337.651,377.196,159.650,326.800,45.290,181.420
535,44685.627000,221.472,121.688,16.532,344.684,383.948,152.940,246.800,-92.710,66.420
536,44685.673000,217.526,116.639,55.609,343.797,379.579,151.803,-311.200,-355.710,-81.580
537,44685.705000,221.472,97.452,70.638,344.669,382.071,147.914,220.800,-73.710,7.420
538,44685.755000,225.418,85.333,35.569,344.631,385.149,134.112,1033.800,202.290,45.420
539,44685.800000,195.823,178.241,-37.573,345.485,383.160,125.114,808.800,75.290,28.420
540,44685.813000,231.337,111.590,44.587,349.885,391.730,121.434,27.800,-219.710,43.420
541,44685.850000,218.513,118.659,-7.515,349.864,386.353,115.301,351.800,-28.710,71.420
542,44685.884000,204.701,139.866,-10.521,354.253,387.924,109.408,17.800,-27.710,103.420
543,44685.924000,236.270,128.757,28.556,352.508,388.091,115.366,-196.200,-64.710,118.420
544,44685.965000,212.593,120.679,30.560,358.670,381.152,115.161,-225.200,-110.710,184.420
545,44686.3000,223.445,123.708,16.532,364.839,373.429,117.909,-387.200,-184.710,156.420
546,44686.23000,235.283,99.471,23.546,366.602,369.986,118.796,-128.200,-193.710,118.420
547,44686.67000,222.459,116.639,9.519,370.121,371.668,116.876,-112.200,-184.710,90.420
548,44686.104000,222.459,117.649,9.519,376.277,368.984,113.829,-52.200,-102.710,124.420
549,44686.144000,232.324,105.531,9.519,377.154,359.465,114.516,-109.200,-73.710,152.420
550,44686.183000,236.270,102.501,10.521,380.683,362.968,115.634,-19.200,-24.710,149.420
551,44686.223000,225.418,100.481,22.544,380.690,357.005,119.413,-82.200,-20.710,118.420
552,44686.264000,225.418,101.491,13.526,378.916,356.023,115.403,97.800,-23.710,73.420
553,44686.287000,238.243,94.422,14.528,381.546,353.308,111.352,182.800,-48.710,45.420
554,44686.328000,230.351,102.501,10.521,382.425,359.328,109.564,401.800,-1.710,21.420
555,44686.368000,222.459,111.590,5.511,380.634,358.177,99.591,517.800,22.290,-5.580
556,44686.408000,218.513,127.748,14.528,382.397,366.802,97.890,313.800,-19.710,-20.580
557,44686.443000,231.337,120.679,-0.501,384.144,362.351,93.780,224.800,5.290,33.420
558,44686.483000,231.337,104.521,15.530,385.021,367.475,90.970,-3.200,-66.710,1.420
559,44686.506000,238.243,93.412,7.515,383.247,367.361,86.988,46.800,-83.710,-17.580
560,44686.544000,235.283,109.570,-3.507,384.114,363.777,82.903,68.800,-93.710,-45.580
561,44686.583000,228.378,110.580,7.515,384.993,360.306,82.793,122.800,-50.710,-23.580
562,44686.627000,230.351,100.481,4.509,383.227,362.852,80.884,109.800,-61.710,-44.580
563,44686.664000,222.459,112.600,2.505,380.581,369.710,78.119,101.800,-65.710,-66.580
564,44686.703000,225.418,110.580,4.509,384.094,370.468,74.183,89.800,-84.710,-48.580
565,44686.744000,233.310,108.560,-12.524,380.575,373.097,75.250,70.800,-39.710,-1.580
566,44686.764000,225.418,115.629,-2.505,383.209,372.147,72.249,11.800,-15.710,2.420
567,44686.805000,231.337,96.442,-5.511,382.317,366.014,70.061,3.800,7.290,21.420
568,44686.844000,229.364,113.609,-4.509,382.321,366.910,71.083,-33.200,2.290,-17.580
569,44686.887000,235.283,105.531,-1.503,381.454,374.806,74.315,1.800,60.290,6.420
570,44686.924000,229.364,98.462,-10.521,383.213,373.911,73.299,158.800,88.290,-33.580
571,44686.964000,231.337,102.501,11.523,377.920,375.558,70.356,315.800,25.290,-91.580
572,44686.993000,223.445,121.688,-1.503,377.909,379.757,65.528,111.800,-36.710,-101.580
573,44687.26000,228.378,127.748,-11.523,377.901,369.341,65.190,111.800,1.290,-53.580
574,44687.69000,229.364,113.609,-19.538,372.606,376.141,60.428,135.800,126.290,48.420
575,44687.104000,223.445,122.698,-4.509,375.258,376.227,63.419,-71.200,142.290,64.420
576,44687.153000,232.324,118.659,5.511,377.032,378.077,67.456,227.800,241.290,94.420
577,44687.203000,219.499,118.659,2.505,377.034,376.369,68.394,160.800,234.290,102.420
578,44687.234000,226.405,105.531,7.515,380.570,378.221,72.437,-22.200,174.290,76.420
579,44687.245000,230.351,103.511,5.511,378.812,375.672,74.335,108.800,203.290,70.420
580,44687.284000,237.256,94.422,6.513,377.055,374.859,76.289,243.800,287.290,86.420
581,44687.328000,231.337,77.254,15.530,374.407,374.800,74.292,333.800,344.290,117.420
582,44687.367000,239.229,100.481,18.536,377.024,371.105,66.237,882.800,304.290,-23.580
583,44687.407000,225.418,111.590,15.530,373.473,376.001,55.462,682.800,148.290,-72.580
584,44687.450000,226.405,106.540,10.521,370.820,381.066,50.653,507.800,13.290,-148.580
585,44687.468000,219.499,120.679,11.523,365.513,390.328,41.006,430.800,-78.710,-232.580
586,44687.504000,210.620,117.649,-7.515,362.858,390.214,37.022,191.800,-131.710,-233.580
587,44687.544000,216.540,125.728,-6.513,352.267,397.764,28.296,521.800,10.290,-257.580
588,44687.588000,189.904,170.162,5.511,350.477,398.349,18.379,361.800,1.290,-196.580
589,44687.630000,204.701,169.152,15.530,349.586,395.660,15.310,56.800,-55.710,-40.580
590,44687.664000,243.175,114.619,-19.538,351.355,401.766,16.507,-47.200,-152.710,72.420
591,44687.704000,215.553,122.698,-10.521,353.993,399.136,15.437,-123.200,-202.710,102.420
592,44687.727000,197.796,138.856,-11.523,360.165,401.772,16.536,-300.200,-247.710,96.420
593,44687.773000,229.364,109.570,-33.566,359.283,389.704,19.120,-519.200,-254.710,162.420
594,44687.804000,238.243,113.609,-28.556,365.478,384.810,29.904,-578.200,-211.710,168.420
595,44687.849000,222.459,114.619,-8.517,362.848,383.213,34.809,-530.200,-211.710,108.420
596,44687.885000,218.513,119.669,-11.523,367.276,380.866,43.684,-906.200,-342.710,95.420
597,44687.925000,252.054,89.373,-8.517,373.463,377.624,51.542,-840.200,-304.710,37.420
598,44687.949000,224.432,90.383,4.509,374.348,375.945,53.477,-599.200,-298.710,-71.580
599,44687.988000,226.405,112.600,13.526,368.179,376.780,52.491,-153.200,-406.710,-228.580
600,44688.24000,231.337,111.590,-26.552,366.410,385.318,47.797,-40.200,-439.710,-250.580
601,44688.68000,214.566,148.955,-41.581,364.636,385.204,43.816,-136.200,-320.710,-182.580
602,44688.108000,222.459,134.817,-28.556,361.130,385.371,49.768,-273.200,-118.710,15.420
603,44688.152000,221.472,126.738,-17.534,368.180,385.404,50.785,-257.200,-14.710,97.420
604,44688.187000,215.553,124.718,-8.517,370.830,379.442,54.572,-176.200,67.290,124.420
605,44688.208000,221.472,112.600,-17.534,374.366,380.426,58.587,-45.200,142.290,115.420
606,44688.262000,213.580,127.748,-3.507,371.738,382.301,63.604,-83.200,142.290,100.420
607,44688.285000,226.405,109.570,-9.519,370.861,379.752,65.505,-33.200,157.290,72.420
608,44688.325000,226.405,112.600,-4.509,370.871,381.573,68.543,-22.200,196.290,46.420
609,44688.394000,219.499,113.609,1.503,374.396,379.000,69.464,-16.200,246.290,43.420
610,44688.407000,224.432,108.560,-9.519,372.653,374.016,77.240,149.800,372.290,35.420
611,44688.454000,238.243,92.402,-3.507,370.021,377.570,80.326,260.800,390.290,10.420
612,44688.465000,232.324,106.540,-2.505,365.619,381.907,80.453,455.800,434.290,-9.580
613,44688.509000,226.405,116.639,0.501,364.738,385.350,79.569,454.800,474.290,-9.580
614,44688.549000,228.378,106.540,11.523,363.853,387.897,77.663,590.800,502.290,-1.580
615,44688.597000,205.688,135.826,19.538,359.448,391.338,76.767,442.800,424.290,-19.580
616,44688.628000,216.540,119.669,16.532,360.332,387.055,78.617,185.800,289.290,25.420
617,44688.665000,234.297,97.452,28.556,356.798,385.232,75.568,363.800,189.290,61.420
618,44688.685000,227.391,117.649,22.544,356.803,387.864,76.646,245.800,132.290,80.420
619,44688.728000,234.297,97.452,27.554,361.192,385.990,71.634,212.800,85.290,64.420
620,44688.770000,203.715,128.757,40.579,362.081,392.963,72.856,39.800,46.290,24.420
621,44688.808000,220.486,101.491,14.528,361.189,392.850,68.878,19.800,-20.710,-9.580
622,44688.850000,230.351,108.560,9.519,359.428,391.141,69.810,17.800,-37.710,-44.580
623,44688.894000,227.391,114.619,18.536,358.546,392.848,68.869,121.800,1.290,-38.580
624,44688.930000,219.499,114.619,14.528,355.025,392.873,69.852,44.800,-28.710,-56.580
625,44688.949000,235.283,116.639,9.519,354.132,388.448,66.726,56.800,-25.710,-77.580
626,44688.985000,230.351,112.600,8.517,355.891,396.177,64.004,158.800,31.290,-51.580
627,44689.29000,226.405,121.688,17.534,352.352,397.741,58.085,258.800,49.290,-72.580
628,44689.72000,222.459,111.590,42.583,348.825,397.711,57.080,144.800,-111.710,-133.580
629,44689.109000,243.175,108.560,-11.523,347.060,404.569,54.318,87.800,-162.710,-166.580
630,44689.152000,226.405,126.738,-2.505,341.754,404.368,47.344,442.800,31.290,-113.580
631,44689.170000,219.499,129.767,8.517,342.612,406.719,38.486,466.800,52.290,-98.580
632,44689.210000,222.459,115.629,14.528,337.299,409.038,28.614,463.800,1.290,-148.580
633,44689.247000,223.445,122.698,2.505,334.646,414.103,23.805,482.800,-73.710,-212.580
634,44689.290000,222.459,117.649,0.501,329.336,419.025,14.018,431.800,-134.710,-253.580
635,44689.329000,215.553,133.807,-0.501,318.734,419.576,3.079,362.800,-178.710,-298.580
636,44689.372000,213.580,141.886,-6.513,311.677,430.686,-2.541,202.800,-184.710,-318.580
637,44689.415000,202.728,145.925,-11.523,302.699,436.013,246.843,99.800,-197.710,-300.580
638,44689.432000,202.728,139.866,-14.528,297.559,429.582,-10.566,100.800,-220.710,-292.580
639,44689.472000,201.742,140.876,-27.554,292.255,431.985,-17.456,-17.200,-265.710,-308.580
640,44689.509000,195.823,143.905,-26.552,283.453,442.394,-17.147,-9.200,-270.710,-294.580
641,44689.552000,195.823,152.994,-24.548,276.388,441.352,-23.161,28.800,-250.710,-282.580
642,44689.592000,199.769,167.132,-35.569,273.749,446.558,-23.001,-10.200,-162.710,-199.580
643,44689.632000,193.850,152.994,-35.569,271.101,447.368,-24.969,61.800,-69.710,-102.580
644,44689.650000,195.823,144.915,-24.548,264.936,449.968,-24.904,145.800,-44.710,-91.580
645,44689.689000,204.701,140.876,-15.530,260.509,450.607,-32.842,279.800,-64.710,-132.580
646,44689.738000,198.782,145.925,-18.536,258.723,444.333,-40.002,455.800,-129.710,-158.580
647,44689.769000,211.607,114.619,-47.593,251.637,445.669,-53.883,711.800,-142.710,-302.580
648,44689.812000,219.499,172.181,-49.597,241.923,448.881,-62.747,198.800,-242.710,-353.580
649,44689.850000,204.701,120.679,-84.665,235.725,455.454,-75.462,503.800,-126.710,-268.580
650,44689.887000,199.769,92.402,-114.724,227.754,448.138,-88.634,918.800,-99.710,-145.580
651,44689.912000,215.553,155.014,-92.681,223.297,453.647,-108.330,408.800,-421.710,-161.580
652,44689.949000,200.755,189.349,-76.650,209.173,444.732,-116.608,47.800,-569.710,-214.580
653,44689.992000,182.998,227.724,-186.865,192.392,456.364,-134.158,513.800,-932.710,-673.580
654,44690.27000,236.270,59.077,-216.924,160.508,435.696,-189.545,2258.800,-809.710,-982.580
655,44690.70000,246.135,57.057,-135.765,144.513,425.709,-235.598,2817.800,-800.710,-554.580
656,44690.107000,261.919,-27.771,-2.505,131.133,395.619,-287.260,2225.800,-669.710,238.420
657,44690.138000,221.472,8.584,45.589,144.237,361.799,-318.105,1572.800,53.290,1105.420
658,44690.170000,256.000,45.949,126.748,188.270,334.112,-316.877,730.800,940.290,1788.420
659,44690.207000,290.528,181.270,111.718,229.691,313.620,-306.486,124.800,2151.290,2701.420
660,44690.250000,331.961,320.631,80.658,300.310,290.105,-250.422,-1442.200,2365.290,3049.420
661,44690.292000,340.840,379.203,77.652,359.562,277.758,-167.222,-3077.200,2263.290,2559.420
662,44690.330000,332.948,402.430,83.663,390.673,264.162,-66.278,-3851.200,2062.290,2073.420
663,44690.373000,312.231,398.391,79.656,402.304,249.565,-0.184,-3710.200,2037.290,1489.420
664,44690.392000,264.879,326.690,-14.528,395.445,233.332,69.769,-1105.200,2237.290,477.420
665,44690.432000,240.216,381.223,-73.644,377.977,232.236,123.299,-660.200,1996.290,-451.580
666,44690.468000,250.081,277.207,-139.773,353.427,243.705,161.326,-1034.200,1445.290,-1086.580
667,44690.533000,223.445,279.227,-167.828,332.363,252.234,187.353,-980.200,927.290,-1652.580
668,44690.563000,215.553,247.921,-181.855,313.918,264.823,203.591,-1343.200,429.290,-1902.580
669,44690.588000,238.243,145.925,-179.851,292.841,285.278,222.061,-1135.200,60.290,-1993.580
670,44690.608000,235.283,82.304,-141.777,273.522,311.727,237.752,-736.200,-134.710,-2041.580
671,44690.648000,301.380,-31.811,-153.800,248.862,336.768,234.514,-57.200,-522.710,-1867.580
672,44690.692000,358.597,-295.385,69.636,241.805,349.586,227.956,-143.200,-717.710,-1454.580
673,44690.728000,386.220,-246.911,134.763,244.468,346.341,235.803,-919.200,-200.710,236.420
674,44690.770000,417.788,88.363,50.599,252.403,332.628,241.341,-945.200,-331.710,89.420
675,44690.813000,293.487,122.698,115.726,255.058,326.723,247.116,166.800,61.290,128.420
676,44690.858000,218.513,77.254,29.558,255.927,336.074,240.472,212.800,105.290,95.420
677,44690.870000,212.593,90.383,21.542,255.932,336.130,242.459,-120.200,-27.710,92.420
678,44690.948000,248.108,55.037,23.546,256.806,330.895,241.299,140.800,-143.710,126.420
679,44690.963000,273.757,27.771,-22.544,259.412,338.286,226.653,701.800,-337.710,-4.580
680,44690.988000,330.975,-70.185,53.605,257.604,336.966,210.716,893.800,-76.710,7.420
681,44691.30000,285.595,-89.373,18.536,253.149,348.524,190.224,2591.800,1097.290,908.420
682,44691.79000,292.501,1.515,-26.552,260.096,361.318,151.935,3251.800,1787.290,1501.420
683,44691.108000,304.339,-4.544,-42.583,269.692,352.640,120.901,3288.800,2015.290,1812.420
684,44691.132000,266.852,84.323,-134.763,284.588,335.483,96.561,2458.800,1252.290,1927.420
685,44691.170000,265.865,123.708,-81.659,298.670,328.465,93.399,1059.800,584.290,1954.420
686,44691.213000,183.985,409.499,-241.973,325.963,299.029,94.517,-627.200,-105.710,2078.420
687,44691.250000,196.809,290.335,225.941,353.329,248.767,125.743,-6298.200,-2005.710,1267.420
688,44691.288000,311.245,-59.077,356.196,365.706,219.911,147.685,-1666.200,-41.710,824.420
689,44691.332000,183.985,504.426,319.123,358.645,232.701,140.133,2046.800,744.290,-646.580
690,44691.350000,197.796,130.777,118.732,341.882,263.458,124.197,2731.800,605.290,-1199.580
691,44691.394000,203.715,356.986,-10.521,319.818,305.270,100.658,1771.800,50.290,-1626.580
692,44691.434000,237.256,167.132,-1.503,301.360,323.766,111.129,-2054.200,-1163.710,-2024.580
693,44691.504000,241.202,61.097,-13.526,286.443,327.790,131.072,-2787.200,-764.710,-1655.580
694,44691.519000,227.391,88.363,-45.589,274.210,333.079,164.966,-2316.200,-304.710,-1407.580
695,44691.550000,217.526,54.028,-44.587,260.161,338.699,179.998,-668.200,-58.710,-1152.580
696,44691.593000,255.013,25.751,-83.663,246.957,349.134,181.287,3.800,-134.710,-991.580
697,44691.613000,262.906,17.673,-54.607,241.698,365.763,186.775,-320.200,-523.710,-855.580
698,44691.658000,316.177,-68.166,22.544,241.708,367.583,189.813,-1448.200,-999.710,-488.580
699,44691.749000,265.865,-130.777,59.616,255.830,347.184,204.091,-1217.200,-581.710,355.420
700,44691.773000,320.123,186.320,47.593,265.566,339.018,221.731,-748.200,-159.710,253.420
701,44691.822000,288.555,45.949,85.667,266.431,337.142,216.708,395.800,167.290,94.420
702,44691.859000,276.717,46.959,10.521,264.664,333.640,215.596,103.800,57.290,57.420
703,44691.882000,220.486,160.063,58.614,264.660,328.432,215.427,-131.200,18.290,146.420
704,44691.895000,245.148,115.629,71.640,265.557,327.734,221.365,190.800,300.290,241.420
705,44691.909000,329.002,8.584,40.579,264.665,327.621,217.387,564.800,368.290,270.420
706,44691.954000,285.595,41.909,2.505,263.771,324.903,213.324,33.800,-18.710,216.420
707,44691.989000,253.040,132.797,15.530,275.217,328.299,210.491,-404.200,-518.710,318.420
708,44692.33000,242.189,35.850,-93.683,279.584,315.869,200.172,374.800,-458.710,501.420
709,44692.69000,218.513,70.185,-74.646,299.800,303.365,186.922,366.800,-545.710,975.420
710,44692.94000,209.634,128.757,-84.665,317.388,291.869,178.662,-335.200,-850.710,1103.420
711,44692.129000,198.782,181.270,-143.781,331.425,277.512,161.360,130.800,-1249.710,693.420
712,44692.174000,132.686,284.276,-192.877,345.430,281.801,128.775,912.800,-1616.710,-64.580
713,44692.212000,91.252,366.075,-202.896,348.804,303.578,70.906,954.800,-2429.710,-878.580
714,44692.249000,102.104,337.799,-179.851,334.532,331.976,2.273,853.800,-2834.710,-1661.580
715,44692.292000,92.239,315.582,-159.812,310.634,360.146,-43.560,830.800,-2957.710,-2289.580
716,44692.309000,110.983,228.734,-120.736,255.846,394.619,-111.134,747.800,-2804.710,-2405.580
717,44692.435000,111.969,171.172,-116.728,194.028,412.036,-168.360,896.800,-2410.710,-2194.580
718,44692.463000,128.740,151.984,-114.724,133.995,413.301,-214.189,817.800,-1676.710,-1603.580
719,44692.497000,158.335,142.895,-103.703,103.110,417.083,-233.032,390.800,-1101.710,-1053.580
720,44692.522000,199.769,132.797,-77.652,70.496,417.730,-240.066,-124.200,-625.710,-673.580
721,44692.545000,209.634,166.122,-93.683,56.410,415.229,-236.221,-218.200,51.290,-180.580
722,44692.575000,215.553,98.462,53.605,59.081,414.644,-226.301,-393.200,686.290,406.420
723,44692.620000,316.177,246.911,15.530,80.252,411.497,-215.413,-562.200,1466.290,989.420
724,44692.634000,427.653,72.205,-26.552,103.236,422.634,-190.153,-656.200,1278.290,105.420
725,44692.690000,444.424,-21.712,-158.810,118.248,417.832,-176.359,-47.200,1322.290,178.420
726,44692.719000,237.256,218.635,-82.661,129.778,419.469,-149.458,-1220.200,536.290,383.420
727,44692.733000,191.877,209.546,-88.673,146.568,420.856,-131.485,-489.200,756.290,676.420
728,44692.775000,216.540,154.004,-164.822,165.112,423.028,-116.460,-727.200,753.290,1048.420
729,44692.793000,264.879,144.915,-116.728,186.315,413.303,-92.876,-684.200,884.290,1080.420
730,44692.832000,210.620,134.817,-122.740,213.689,408.791,-69.103,-570.200,1087.290,1136.420
731,44692.874000,127.753,156.024,-82.661,241.066,396.552,-42.602,-574.200,1041.290,1185.420
732,44692.912000,205.688,125.728,-40.579,257.844,385.759,-26.018,-472.200,1019.290,1181.420
733,44692.954000,211.607,112.600,-21.542,279.037,369.902,-4.618,-503.200,859.290,1085.420
734,44692.990000,245.148,85.333,-16.532,296.707,362.666,15.063,-313.200,852.290,999.420
735,44693.29000,225.418,110.580,-8.517,312.608,345.013,34.401,-320.200,839.290,964.420
736,44693.54000,240.216,111.590,-47.593,324.100,337.660,50.087,-472.200,812.290,1092.420
737,44693.95000,237.256,96.442,-52.603,336.485,315.777,73.249,-455.200,939.290,1192.420
738,44693.133000,242.189,100.481,-49.597,351.510,290.424,96.306,2.800,1306.290,1325.420
739,44693.169000,249.094,104.521,-10.521,365.662,264.287,122.314,-129.200,1332.290,1336.420
740,44693.213000,250.081,100.481,13.526,373.651,235.598,150.205,-52.200,1374.290,1438.420
741,44693.254000,288.555,36.860,69.636,373.664,234.002,155.119,784.800,1049.290,946.420
742,44693.274000,150.443,347.897,-264.016,374.513,247.469,140.663,1671.800,-601.710,-1037.580
743,44693.310000,266.852,324.671,-223.937,363.822,296.256,87.598,998.800,-2393.710,-2223.580
744,44693.352000,268.825,180.260,-128.751,339.869,347.998,16.712,582.800,-3296.710,-2637.580
745,44693.395000,226.405,139.866,-72.642,310.668,375.128,-35.130,1048.800,-3152.710,-2509.580
746,44693.440000,260.933,76.245,-27.554,244.460,408.194,-90.870,-170.200,-3089.710,-1895.580
747,44693.484000,242.189,-84.323,138.771,192.475,427.027,-98.369,-1033.200,-1982.710,-1233.580
748,44693.513000,275.730,-61.097,156.806,175.806,432.870,-75.394,-1210.200,-574.710,-53.580
749,44693.530000,399.044,39.890,94.685,186.439,436.074,-54.403,-1149.200,784.290,1246.420
750,44693.570000,483.884,-45.949,-90.677,205.044,432.817,-16.716,-1033.200,1156.290,1009.420
751,44693.612000,437.518,-6.564,-3.507,213.910,420.452,5.750,-286.200,1054.290,464.420
752,44693.655000,170.173,192.379,-14.528,216.596,421.744,20.696,-566.200,697.290,228.420
753,44693.704000,279.676,89.373,-19.538,222.821,412.849,43.266,-1061.200,423.290,566.420
754,44693.734000,239.229,86.343,-40.579,228.134,404.510,54.928,-270.200,489.290,286.420
755,44693.764000,206.674,131.787,-0.501,232.570,408.267,64.994,-17.200,450.290,212.420
756,44693.802000,233.310,120.679,-2.505,233.460,409.220,68.007,133.800,432.290,199.420
757,44693.833000,245.148,79.274,3.507,230.802,407.342,62.972,409.800,402.290,61.420
758,44693.875000,214.566,123.708,9.519,227.252,402.774,54.869,757.800,224.290,-202.580
759,44693.913000,224.432,104.521,-12.524,226.346,414.587,43.333,818.800,69.290,-288.580
760,44693.955000,211.607,143.905,-35.569,217.476,413.121,22.405,839.800,-4.710,-381.580
761,44693.993000,220.486,119.669,-28.556,212.140,417.790,3.672,1094.800,6.290,-434.580
762,44694.10000,169.187,122.698,-6.513,204.159,426.741,-16.916,1494.800,-16.710,-641.580
763,44694.54000,185.958,238.832,-3.507,193.526,432.161,-39.613,183.800,-441.710,-515.580
764,44694.90000,191.877,169.152,-80.658,183.828,432.938,-42.598,-150.200,-400.710,-224.580
765,44694.148000,197.796,173.191,-44.587,184.707,433.778,-43.561,-16.200,-272.710,-61.580
766,44694.207000,177.079,130.777,-109.714,182.954,434.729,-40.556,-447.200,-308.710,122.420
767,44694.222000,154.389,154.004,-78.654,184.740,428.936,-30.809,-886.200,-409.710,259.420
768,44694.242000,187.931,161.073,-44.587,189.195,428.579,-12.932,-1034.200,-445.710,279.420
769,44694.292000,200.755,146.935,-70.638,198.059,429.120,5.981,-1074.200,-337.710,336.420
770,44694.312000,190.890,128.757,-35.569,205.149,425.236,21.765,-740.200,-166.710,318.420
771,44694.355000,204.701,163.093,-42.583,207.827,427.312,33.757,-745.200,-171.710,275.420
772,44694.394000,270.798,105.531,-66.630,214.035,426.003,48.629,-713.200,-105.710,296.420
773,44694.432000,251.067,89.373,-23.546,215.820,422.786,57.468,-629.200,-169.710,84.420
774,44694.474000,202.728,142.895,-6.513,215.844,421.303,66.356,-410.200,-332.710,-79.580
775,44694.490000,207.661,142.895,-86.669,214.957,416.934,65.219,-251.200,-148.710,1.420
776,44694.542000,199.769,137.846,-42.583,215.844,413.548,68.091,-65.200,231.290,113.420
777,44694.580000,212.593,131.787,-1.503,216.742,413.717,74.057,130.800,341.290,130.420
778,44694.614000,214.566,132.797,-2.505,216.733,416.209,70.166,104.800,136.290,16.420
779,44694.652000,204.701,130.777,-12.524,214.094,414.527,72.089,133.800,14.290,-67.580
780,44694.693000,195.823,133.807,-46.591,212.322,415.281,68.136,253.800,39.290,-34.580
781,44694.722000,206.674,142.895,-25.550,210.543,415.979,62.195,449.800,224.290,-84.580
782,44694.767000,198.782,136.836,-13.526,206.122,423.562,54.483,425.800,168.290,-130.580
783,44694.795000,210.620,130.777,-39.577,204.334,423.307,45.532,363.800,65.290,-205.580
784,44694.837000,202.728,164.103,-34.568,201.702,430.306,47.736,198.800,97.290,-130.580
785,44694.877000,232.324,120.679,-40.579,200.802,427.532,41.686,144.800,65.290,-140.580
786,44694.916000,194.836,168.142,-18.536,200.807,431.032,42.792,-9.200,-5.710,-128.580
787,44694.955000,199.769,160.063,-26.552,196.401,432.737,41.840,-63.200,-48.710,-27.580
788,44694.985000,218.513,131.787,-22.544,195.515,429.236,40.731,-61.200,-49.710,-37.580
789,44695.13000,202.728,135.826,-37.573,192.874,424.951,42.569,-17.200,-45.710,-91.580
790,44695.53000,206.674,145.925,-21.542,191.116,433.601,41.851,-40.200,-62.710,-97.580
791,44695.95000,223.445,131.787,-30.560,191.114,430.997,41.767,47.800,-74.710,-157.580
792,44695.143000,217.526,132.797,-30.560,187.583,432.646,38.830,130.800,-125.710,-287.580
793,44695.177000,199.769,163.093,-32.564,182.290,434.294,35.888,57.800,-164.710,-318.580
794,44695.193000,215.553,158.043,-51.601,178.753,439.330,30.082,124.800,-71.710,-277.580
795,44695.245000,251.067,150.974,-43.585,171.686,443.440,22.249,322.800,102.290,-273.580
796,44695.284000,294.474,127.748,-28.556,167.276,439.936,21.128,544.800,174.290,-369.580
797,44695.318000,285.595,114.619,-15.530,161.072,447.321,6.453,754.800,135.290,-551.580
798,44695.402000,237.256,141.886,-13.526,153.957,444.064,-16.515,927.800,80.290,-572.580
799,44695.417000,128.740,169.152,-76.650,147.742,447.025,-34.312,893.800,125.290,-403.580
800,44695.485000,99.145,185.310,-79.656,145.946,446.685,-46.245,647.800,54.290,-210.580
801,44695.493000,165.241,141.886,-67.632,141.513,446.400,-56.198,577.800,-17.710,-168.580
802,44695.508000,139.592,177.231,-73.644,140.585,444.213,-72.160,487.800,-155.710,-243.580
803,44695.537000,159.322,145.925,-77.652,132.627,434.434,-80.447,544.800,-214.710,-223.580
804,44695.587000,152.416,190.359,-73.644,133.485,438.521,-89.248,227.800,-270.710,-222.580
805,44695.627000,146.497,174.201,-110.716,135.243,444.514,-92.027,200.800,-259.710,-162.580
806,44695.653000,139.592,176.221,-97.691,128.163,438.151,-102.186,198.800,-187.710,-127.580
807,44695.724000,132.686,175.211,-97.691,130.802,440.701,-104.081,-45.200,-227.710,-26.580
808,44695.790000,136.632,152.994,-116.728,130.809,439.049,-101.156,-91.200,-208.710,60.420
809,44695.817000,151.430,181.270,-56.611,130.792,438.880,-107.119,21.800,-122.710,-28.580
810,44695.869000,149.457,207.527,-86.669,130.791,433.700,-106.294,8.800,-137.710,-66.580
811,44695.878000,137.618,168.142,-112.720,127.261,437.085,-109.175,129.800,-86.710,-100.580
812,44695.950000,156.362,165.112,-83.663,128.127,436.077,-114.170,294.800,-29.710,-87.580
813,44695.989000,159.322,188.339,-93.683,127.236,437.700,-118.092,-52.200,-143.710,-83.580
814,44696.8000,140.578,159.053,-95.687,120.188,433.383,-117.261,-26.200,-168.710,-69.580
815,44696.85000,140.578,193.389,-138.771,121.058,437.583,-122.087,210.800,-85.710,-26.580
816,44696.289000,152.416,200.458,-71.640,122.825,436.772,-120.122,-164.200,-102.710,63.420
817,44696.303000,165.241,172.181,-85.667,120.195,438.619,-116.098,-77.200,-36.710,-13.580
818,44696.344000,158.335,160.063,-119.734,121.939,437.583,-122.084,213.800,119.290,-60.580
819,44696.385000,159.322,150.974,-134.763,121.039,431.366,-127.254,297.800,116.290,-59.580
820,44696.482000,198.782,129.767,-141.777,120.154,436.489,-130.070,321.800,34.290,-44.580
821,44696.482000,224.432,137.846,-140.775,113.945,432.618,-144.117,467.800,-188.710,-308.580
822,44696.482000,235.283,166.122,-116.728,105.103,427.990,-154.225,707.800,-421.710,-533.580
823,44696.482000,272.771,73.215,-86.669,90.032,417.558,-185.395,1675.800,-507.710,-523.580
824,44696.482000,288.555,47.968,-28.556,82.859,396.490,-224.828,2185.800,-190.710,-152.580
825,44696.506000,259.946,32.821,48.595,100.340,363.260,-265.570,2197.800,342.290,585.420
826,44696.585000,261.919,54.028,78.654,128.499,346.591,-272.972,656.800,1066.290,1780.420
827,44696.604000,279.676,116.639,27.554,188.424,328.745,-261.443,25.800,1749.290,2412.420
828,44696.658000,292.501,228.734,-4.509,258.116,310.798,-223.075,-972.200,2199.290,2826.420
829,44696.658000,294.474,280.237,-18.536,323.499,295.514,-151.866,-2867.200,2199.290,2978.420
830,44696.670000,358.597,291.345,5.511,372.178,270.224,-66.141,-3277.200,2021.290,2785.420
831,44696.726000,330.975,364.055,1.503,391.686,243.927,-15.296,-3093.200,2045.290,1967.420
832,44696.760000,287.568,309.523,-69.636,404.214,217.433,59.352,-2346.200,2097.290,1087.420
833,44696.796000,219.499,268.118,-72.642,403.474,209.349,110.722,-379.200,2053.290,483.420
834,44696.796000,220.486,291.345,-52.603,389.487,217.297,146.683,398.800,1821.290,-515.580
835,44696.823000,200.755,237.822,-120.736,375.440,236.720,159.184,364.800,1410.290,-1188.580
836,44696.855000,180.039,233.783,-174.841,351.722,267.534,175.996,265.800,924.290,-1731.580
837,44696.885000,215.553,247.921,-101.699,322.694,299.826,183.902,-711.200,29.290,-2186.580
838,44696.915000,233.310,104.521,-161.816,290.126,328.502,186.714,-744.200,-407.710,-2447.580
839,44696.944000,278.690,77.254,-93.683,265.465,344.052,185.154,32.800,-432.710,-2383.580
840,44696.965000,298.420,2.525,-153.800,236.355,375.527,164.236,805.800,-693.710,-1883.580
841,44696.990000,414.829,-311.542,144.783,214.309,391.665,152.773,8.800,-597.710,-1154.580
842,44697.27000,472.046,-226.714,131.757,209.898,395.049,149.890,-63.200,-79.710,-215.580
843,44697.55000,377.341,76.245,-18.536,211.670,401.183,152.080,261.800,-180.710,80.420
844,44697.80000,306.312,-112.600,5.511,215.148,404.178,135.308,1256.800,404.290,403.420
845,44697.105000,301.380,-26.761,45.589,227.414,400.936,112.403,1831.800,1121.290,1174.420
846,44697.145000,290.528,39.890,-16.532,247.635,387.620,101.113,1401.800,1379.290,1748.420
847,44697.164000,273.757,78.264,-56.611,277.572,365.942,100.505,1150.800,1261.290,2004.420
848,44697.202000,262.906,111.590,-58.614,297.814,354.560,96.229,816.800,1018.290,2133.420
849,44697.244000,234.297,147.945,-90.677,331.267,326.781,94.442,715.800,578.290,2025.420
850,44697.280000,233.310,184.300,-80.658,351.499,298.935,90.624,594.800,119.290,1757.420
851,44697.330000,212.593,167.132,-52.603,369.949,273.467,78.934,429.800,-442.710,1542.420
852,44697.380000,192.863,224.694,-63.624,382.230,252.278,65.377,223.800,-918.710,1329.420
853,44697.391000,212.593,251.961,-30.560,398.017,233.498,44.958,-943.200,-1625.710,637.420
854,44697.425000,263.892,187.329,354.192,404.997,229.383,22.008,-1803.200,-1592.710,-83.580
855,44697.461000,315.191,-12.623,396.274,406.768,222.581,26.758,-1174.200,-422.710,257.420
856,44697.505000,266.852,183.290,145.785,402.363,226.022,25.863,102.800,90.290,-117.580
857,44697.550000,248.108,79.274,83.663,398.843,235.539,25.167,1684.800,618.290,-844.580
858,44697.585000,220.486,190.359,131.757,385.650,259.862,26.907,853.800,701.290,-892.580
859,44697.625000,222.459,179.250,103.703,373.370,279.343,41.402,-779.200,582.290,-1016.580
860,44697.649000,232.324,130.777,45.589,359.389,291.659,78.497,-1646.200,621.290,-850.580
861,44697.675000,233.310,170.162,25.550,354.159,287.038,99.184,-1657.200,782.290,-836.580
862,44697.718000,245.148,144.915,-31.562,337.556,290.954,145.928,-2438.200,736.290,-1012.580
863,44697.758000,236.270,112.600,-56.611,319.147,303.042,175.058,-1055.200,653.290,-1126.580
864,44697.795000,260.933,47.968,-83.663,298.940,319.941,190.436,-501.200,509.290,-1224.580
865,44697.835000,264.879,6.564,-101.699,284.856,331.243,191.751,30.800,213.290,-1373.580
866,44697.858000,269.811,-11.613,-140.775,266.345,347.496,184.275,373.800,-415.710,-1223.580
867,44697.904000,340.840,-217.625,27.554,256.634,356.756,174.615,-475.200,-772.710,-777.580
868,44697.935000,352.678,-95.432,127.750,261.930,340.493,182.048,-942.200,-165.710,291.420
869,44697.975000,317.164,42.919,52.603,268.127,343.383,192.091,-951.200,-275.710,-33.580
870,44698.20000,237.256,128.757,112.720,266.367,341.674,193.023,72.800,-49.710,89.420
871,44698.60000,226.405,91.393,83.663,263.729,341.728,195.003,51.800,-55.710,-21.580
872,44698.100000,201.742,120.679,61.620,268.131,340.835,193.995,-26.200,-132.710,-16.580
873,44698.120000,209.634,112.600,82.661,268.133,343.439,194.079,-230.200,-263.710,-56.580
874,44698.160000,223.445,100.481,87.671,265.473,335.513,189.841,-135.200,-305.710,-120.580
875,44698.213000,230.351,92.402,51.601,266.351,339.797,187.997,-29.200,-290.710,-136.580
876,44698.235000,232.324,102.501,57.613,269.855,339.602,181.051,31.800,-304.710,-126.580
877,44698.278000,220.486,104.521,39.577,275.122,337.701,175.049,-42.200,-339.710,-148.580
878,44698.319000,208.647,119.669,46.591,270.723,345.510,175.288,-58.200,-348.710,-162.580
879,44698.339000,219.499,110.580,38.575,272.463,346.154,167.370,37.800,-324.710,-165.580
880,44698.380000,227.391,108.560,25.550,268.933,352.983,163.609,243.800,-344.710,-130.580
881,44698.420000,223.445,117.649,42.583,272.424,358.695,150.896,320.800,-341.710,-145.580
882,44698.460000,236.270,121.688,46.591,271.533,351.694,148.680,12.800,-380.710,-142.580
883,44698.510000,215.553,124.718,32.564,275.035,356.651,139.915,97.800,-426.710,-111.580
884,44698.538000,213.580,131.787,46.591,275.896,360.766,132.108,20.800,-404.710,-129.580
885,44698.615000,225.418,110.580,12.524,276.765,364.098,127.254,-96.200,-452.710,-117.580
886,44698.634000,238.243,103.511,9.519,276.736,358.637,118.140,80.800,-420.710,-149.580
887,44698.659000,227.391,124.718,6.513,274.094,367.258,116.425,74.800,-405.710,-180.580
888,44698.680000,213.580,136.836,0.501,272.314,366.220,110.428,93.800,-328.710,-127.580
889,44698.715000,231.337,131.787,10.521,274.049,367.676,100.550,133.800,-317.710,-90.580
890,44698.760000,224.432,108.560,-23.546,274.033,369.243,94.643,54.800,-323.710,-89.580
891,44698.803000,209.634,137.846,-10.521,275.795,377.000,92.915,246.800,-138.710,-106.580
892,44698.827000,222.459,128.757,2.505,274.018,379.433,87.030,193.800,-132.710,-83.580
893,44698.860000,224.432,139.866,-5.511,274.887,381.897,82.148,196.800,-137.710,-71.580
894,44698.900000,233.310,126.738,-14.528,276.624,383.381,73.265,347.800,-83.710,-58.580
895,44698.936000,216.540,142.895,-15.530,273.087,376.350,70.046,204.800,-109.710,14.420
896,44698.979000,208.647,140.876,-5.511,273.953,379.654,64.198,205.800,-111.710,45.420
897,44699.15000,184.971,144.915,-31.562,277.465,377.807,60.178,190.800,-99.710,123.420
898,44699.55000,200.755,138.856,-21.542,281.856,379.406,55.279,100.800,-97.710,185.420
899,44699.75000,174.119,159.053,-13.526,286.269,382.069,57.365,44.800,-127.710,203.420
900,44699.115000,190.890,155.014,-0.501,291.551,377.733,57.241,-107.200,-178.710,218.420
901,44699.159000,212.593,109.570,-56.611,292.428,372.526,57.075,-252.200,-240.710,193.420
902,44699.200000,208.647,90.383,-57.613,293.297,370.678,53.046,-118.200,-213.710,122.420
903,44699.238000,197.796,156.024,7.515,297.719,363.962,60.786,-599.200,-298.710,71.420
904,44699.292000,238.243,85.333,-55.609,300.369,362.313,63.720,-701.200,-297.710,92.420
905,44699.302000,237.256,66.146,-6.513,300.376,360.661,66.646,-342.200,-134.710,-26.580
906,44699.342000,287.568,68.166,-22.544,300.382,364.161,67.752,-150.200,-103.710,-187.580
907,44699.379000,275.730,77.254,-30.560,295.971,371.858,64.016,279.800,-165.710,-315.580
908,44699.434000,184.971,164.103,-23.546,288.026,364.795,59.789,119.800,-222.710,-278.580
909,44699.462000,161.295,163.093,-69.636,287.129,369.805,52.998,192.800,22.290,-103.580
910,44699.498000,226.405,130.777,-6.513,287.137,369.022,55.951,-111.200,65.290,95.420
911,44699.538000,231.337,116.639,-26.552,289.788,368.240,58.914,214.800,221.290,99.420
912,44699.558000,213.580,124.718,-46.591,290.678,376.081,60.164,138.800,228.290,117.420
913,44699.601000,202.728,136.836,-16.532,293.323,368.355,62.901,-6.200,222.290,150.420
914,44699.642000,197.796,128.757,-37.573,291.561,360.599,64.629,64.800,295.290,166.420
915,44699.817000,190.890,148.955,-18.536,293.341,361.637,70.627,-57.200,335.290,189.420
916,44699.832000,232.324,121.688,-14.528,298.634,360.857,73.597,-10.200,402.290,229.420
917,44699.857000,256.000,84.323,5.511,296.895,356.769,82.396,-240.200,248.290,193.420
918,44699.858000,239.229,99.471,-0.501,299.545,355.120,85.330,-54.200,127.290,69.420
919,44699.858000,268.825,78.264,-2.505,299.548,355.148,86.324,59.800,-28.710,-114.580
920,44700.137000,228.378,117.649,-24.548,297.784,360.298,84.499,138.800,32.290,-144.580
921,44700.164000,215.553,110.580,-36.571,296.016,363.685,81.625,574.800,313.290,-104.580
922,44700.232000,234.297,111.590,-4.509,289.839,368.747,76.804,848.800,511.290,-50.580
923,44700.255000,206.674,123.708,-3.507,285.394,364.038,63.728,751.800,471.290,-83.580
924,44700.255000,204.701,130.777,8.517,286.286,374.483,65.063,294.800,293.290,68.420
925,44700.255000,256.000,103.511,-14.528,286.279,369.247,63.900,437.800,152.290,176.420
926,44700.255000,197.796,151.984,21.542,290.660,370.732,55.025,427.800,79.290,102.420
927,44700.255000,184.971,134.817,-4.509,293.304,372.470,55.090,-130.200,-175.710,108.420
928,44700.255000,204.701,118.659,-11.523,294.186,367.319,56.912,-402.200,-329.710,70.420
929,44700.270000,244.162,92.402,-20.540,293.308,367.347,57.903,-417.200,-404.710,25.420
930,44700.278000,232.324,99.471,-19.538,299.478,363.935,59.798,-439.200,-450.710,11.420
931,44700.287000,213.580,126.738,-15.530,300.352,357.832,58.610,-575.200,-490.710,-75.580
932,44700.313000,224.432,131.787,-11.523,295.949,360.433,58.680,-416.200,-433.710,-135.580
933,44700.353000,230.351,121.688,-12.524,295.964,361.442,63.678,-574.200,-471.710,-147.580
934,44700.397000,196.809,145.925,-4.509,296.850,360.631,65.640,-855.200,-557.710,-145.580
935,44700.414000,228.378,111.590,-16.532,295.123,361.835,77.590,-835.200,-563.710,-170.580
936,44700.458000,230.351,118.659,-41.581,292.485,364.466,78.660,-616.200,-520.710,-232.580
937,44700.494000,214.566,136.836,-31.562,291.602,366.173,77.719,-458.200,-426.710,-157.580
938,44700.550000,229.364,130.777,-43.585,293.366,361.022,79.544,-562.200,-375.710,-69.580
939,44700.640000,225.418,125.728,-46.591,296.032,357.806,88.385,-318.200,-147.710,7.420
940,44700.870000,212.593,129.767,-33.566,296.034,360.410,88.469,-117.200,10.290,41.420
941,44700.990000,219.499,121.688,-40.579,296.921,353.579,92.222,-119.200,65.290,43.420
942,44701.123000,200.755,141.886,-32.564,296.931,359.711,94.407,-13.200,258.290,50.420
943,44701.174000,215.553,128.757,-23.546,296.059,356.352,98.268,170.800,392.290,97.420
944,44701.309000,222.459,126.738,-29.558,293.416,360.661,97.406,256.800,479.290,106.420
945,44701.309000,220.486,116.639,-24.548,292.541,360.717,99.391,529.800,588.290,60.420
946,44701.309000,209.634,135.826,-9.519,287.248,365.809,95.567,706.800,666.290,73.420
947,44701.309000,211.607,131.787,-2.505,287.252,359.817,98.352,687.800,675.290,89.420
948,44701.309000,223.445,124.718,6.513,286.359,358.836,94.345,691.800,587.290,55.420
949,44701.309000,227.391,116.639,15.530,280.194,368.323,92.647,443.800,354.290,-20.580
950,44701.309000,209.634,134.817,6.513,281.958,371.796,92.766,306.800,207.290,-109.580
951,44701.414000,226.405,123.708,11.523,276.666,374.312,89.851,198.800,62.290,-118.580
952,44701.414000,220.486,121.688,8.517,273.146,379.517,90.009,56.800,-35.710,-164.580
953,44701.414000,218.513,124.718,-2.505,272.247,378.480,84.014,60.800,-52.710,-218.580
954,44701.461000,222.459,123.708,-0.501,266.073,379.259,81.041,254.800,-48.710,-254.580
955,44701.512000,232.324,111.590,-10.521,260.775,386.030,75.286,402.800,-2.710,-268.580
956,44701.598000,218.513,132.797,-12.524,257.244,391.991,71.496,198.800,-32.710,-264.580
957,44701.717000,236.270,122.698,-37.573,251.054,390.025,63.468,422.800,49.290,-254.580
958,44701.717000,222.459,158.043,0.501,247.503,399.232,51.840,607.800,116.290,-288.580
959,44701.717000,219.499,138.856,-1.503,237.793,404.208,44.026,500.800,52.290,-291.580
960,44701.828000,249.094,124.718,-13.526,235.132,406.613,37.145,638.800,50.290,-308.580
961,44701.828000,253.040,64.126,-52.603,228.037,410.440,19.372,1308.800,123.290,-336.580
962,44701.828000,233.310,105.531,-79.656,220.898,416.422,-14.218,1486.800,190.290,-300.580
963,44701.828000,175.106,170.162,-87.671,220.843,418.462,-34.012,894.800,-106.710,-187.580
964,44701.839000,156.362,220.655,-61.620,214.651,414.760,-42.096,532.800,-402.710,-260.580
965,44701.875000,172.146,178.241,-130.755,202.243,425.218,-70.593,1664.800,-464.710,-561.580
966,44701.875000,220.486,41.909,-120.736,193.270,409.803,-124.743,2959.800,74.290,-232.580
967,44701.894000,196.809,132.797,-106.708,192.267,401.703,-165.722,2192.800,-4.710,13.420
968,44701.908000,208.647,128.757,-126.748,194.848,386.442,-184.083,1317.800,-269.710,421.420
969,44701.969000,184.971,202.477,-97.691,200.079,373.844,-200.363,407.800,-666.710,583.420
970,44701.969000,137.618,286.296,-82.661,202.757,379.363,-189.252,-1329.200,-1120.710,413.420
971,44701.969000,179.052,82.304,-77.652,197.507,389.189,-179.020,-634.200,-897.710,305.420
972,44702.15000,202.728,73.215,-81.659,196.601,385.491,-187.087,707.800,-236.710,259.420
973,44702.15000,221.472,25.751,-69.636,202.701,375.356,-208.249,1243.800,332.290,371.420
974,44702.15000,224.432,63.116,-104.704,219.395,358.566,-219.663,938.800,588.290,796.420
975,44702.48000,212.593,106.540,-97.691,241.422,343.967,-215.102,25.800,399.290,1069.420
976,44702.95000,227.391,116.639,-101.699,260.816,331.187,-207.510,-542.200,118.290,948.420
977,44702.119000,209.634,104.521,-74.646,273.174,329.713,-198.581,-362.200,249.290,967.420
978,44702.145000,227.391,84.323,-60.618,292.582,320.518,-186.902,-389.200,311.290,997.420
979,44702.145000,197.796,111.590,-142.779,313.751,313.899,-176.126,-275.200,484.290,1056.420
980,44702.170000,256.000,59.077,-70.638,333.160,298.683,-162.655,-180.200,559.290,1043.420
981,44702.209000,242.189,92.402,-30.560,343.751,285.953,-153.105,-108.200,773.290,1042.420
982,44702.240000,231.337,79.274,-28.556,364.054,269.143,-134.718,-30.200,993.290,958.420
983,44702.253000,283.622,54.028,12.524,386.993,250.542,-118.368,795.800,1271.290,850.420
984,44702.276000,261.919,79.274,-10.521,409.087,235.751,-89.980,685.800,1609.290,787.420
985,44702.303000,282.636,75.235,-0.501,424.115,228.514,-70.307,405.800,1742.290,712.420
986,44702.329000,263.892,125.728,5.511,437.441,215.846,-27.977,-62.200,1765.290,536.420
987,44702.340000,256.000,174.201,29.558,446.381,209.393,19.506,-674.200,1572.290,254.420
988,44702.384000,258.960,158.043,13.526,442.119,207.354,70.069,-1191.200,1378.290,-86.580
989,44702.424000,266.852,188.339,-1.503,433.275,-17.876,109.403,-1145.200,1367.290,-414.580
990,44702.464000,286.582,123.708,-31.562,424.713,201.698,146.290,-1488.200,1298.290,-713.580
991,44702.500000,292.501,105.531,-30.560,408.103,202.954,190.962,-1062.200,1423.290,-873.580
992,44702.544000,279.676,101.491,-43.585,388.836,215.266,228.040,-795.200,1340.290,-1061.580
993,44702.603000,269.811,43.929,-54.607,366.003,225.445,251.136,-541.200,962.290,-1178.580
994,44702.614000,267.838,32.821,-53.605,351.081,237.169,267.357,-469.200,598.290,-1253.580
995,44702.649000,262.906,-12.623,-48.595,341.428,250.463,277.687,-679.200,66.290,-1199.580
996,44702.679000,262.906,-23.732,-38.575,339.686,249.791,284.611,-1334.200,-447.710,-853.580
997,44702.714000,269.811,-27.771,-19.538,342.340,238.706,291.211,-1568.200,-596.710,-695.580
998,44702.756000,268.825,-39.890,17.534,350.280,235.381,296.093,-1162.200,-538.710,-527.580
999,44702.794000,267.838,-15.653,70.638,356.439,231.857,294.012,-529.200,-431.710,-401.580
1000,44702.823000,258.960,-22.722,84.665,359.077,236.982,291.208,-82.200,-216.710,-257.580
1001,44702.864000,261.919,-29.791,87.671,352.007,233.308,284.115,355.800,13.290,-101.580
1002,44702.894000,254.027,1.515,102.701,352.896,244.593,284.484,451.800,129.290,72.420
1003,44702.935000,250.081,16.663,124.744,353.763,240.141,280.371,142.800,47.290,158.420
1004,44702.974000,251.067,9.594,111.718,352.892,239.385,284.315,0.800,100.290,238.420
1005,44703.17000,238.243,25.751,108.712,352.908,234.374,291.104,220.800,260.290,334.420
1006,44703.55000,230.351,24.742,99.695,349.388,227.512,293.849,382.800,386.290,398.420
1007,44703.74000,212.593,65.136,81.659,348.521,231.096,297.934,430.800,376.290,392.420
1008,44703.116000,197.796,62.107,61.620,344.996,229.357,297.867,460.800,271.290,327.420
1009,44703.156000,193.850,61.097,37.573,344.103,228.376,293.860,523.800,99.290,199.420
1010,44703.198000,164.254,91.393,-13.526,346.731,242.012,285.374,719.800,-282.710,51.420
1011,44703.241000,169.187,98.462,-43.585,355.511,244.313,274.554,545.800,-921.710,-281.580
1012,44703.274000,273.757,59.077,326.137,349.308,260.322,258.173,1197.800,41.290,-407.580
1013,44703.298000,244.162,168.142,167.828,347.523,275.606,246.747,871.800,-147.710,-423.580
1014,44703.336000,324.069,-23.732,-27.554,355.437,285.803,239.159,-570.200,-857.710,-403.580
1015,44703.380000,223.445,128.757,32.564,354.537,290.785,231.374,-177.200,-983.710,-612.580
1016,44703.416000,199.769,141.886,50.599,353.613,286.050,217.316,-265.200,-768.710,-358.580
1017,44703.460000,231.337,102.501,33.566,358.006,292.828,211.592,-201.200,-500.710,-195.580
1018,44703.504000,254.027,71.195,13.526,362.393,288.350,206.495,-386.200,-506.710,-279.580
1019,44703.535000,215.553,106.540,61.620,357.102,288.290,204.491,-291.200,-420.710,-266.580
1020,44703.558000,245.148,76.245,5.511,360.621,297.728,200.836,48.800,-348.710,-217.580
1021,44703.600000,233.310,96.442,29.558,361.476,303.495,190.103,240.800,-409.710,-287.580
1022,44703.644000,227.391,104.521,22.544,360.573,311.893,180.443,275.800,-393.710,-252.580
1023,44703.682000,233.310,114.619,-7.515,359.671,315.139,172.601,221.800,-290.710,-190.580
1024,44703.740000,234.297,99.471,6.513,358.780,312.449,169.532,97.800,-246.710,-160.580
1025,44703.764000,227.391,112.600,7.515,358.761,316.564,161.722,229.800,-124.710,-94.580
1026,44703.777000,232.324,103.511,5.511,356.113,321.686,158.901,117.800,-82.710,-57.580
1027,44703.820000,231.337,101.491,5.511,358.739,321.519,152.946,206.800,-16.710,-35.580
1028,44703.858000,229.364,106.540,13.526,358.736,324.934,151.070,246.800,6.290,-31.580
1029,44703.895000,224.432,113.609,16.532,357.854,330.953,149.277,235.800,-25.710,-36.580
1030,44703.940000,227.391,113.609,10.521,355.197,327.367,145.180,150.800,-58.710,-39.580
1031,44703.972000,229.364,105.531,5.511,354.311,332.489,142.364,111.800,-54.710,-34.580
1032,44704.13000,229.364,109.570,3.507,356.066,326.387,141.179,119.800,-41.710,-31.580
1033,44704.32000,228.378,110.580,7.515,356.944,330.671,139.335,107.800,-47.710,-23.580
1034,44704.99000,228.378,106.540,6.513,355.170,328.821,135.297,111.800,-58.710,-28.580
1035,44704.115000,227.391,108.560,6.513,354.286,329.660,134.329,116.800,-66.710,-32.580
1036,44704.154000,226.405,108.560,7.515,354.273,338.143,127.653,185.800,-90.710,-54.580
1037,44704.199000,228.378,105.531,8.517,355.159,340.776,128.734,186.800,-136.710,-73.580
1038,44704.234000,226.405,106.540,7.515,352.493,343.992,119.893,219.800,-173.710,-93.580
1039,44704.295000,231.337,106.540,-2.505,350.716,347.294,114.037,306.800,-230.710,-137.580
1040,44704.312000,240.216,100.481,-8.517,351.556,344.296,100.040,417.800,-263.710,-154.580
1041,44704.362000,230.351,124.718,-11.523,345.376,349.331,94.226,492.800,-312.710,-203.580
1042,44704.393000,237.256,114.619,-24.548,344.463,359.352,80.646,433.800,-353.710,-179.580
1043,44704.413000,236.270,116.639,-30.560,341.780,362.399,65.842,466.800,-339.710,-175.580
1044,44704.455000,228.378,127.748,-30.560,337.342,368.106,53.104,470.800,-312.710,-154.580
1045,44704.490000,233.310,118.659,-34.568,336.436,371.296,43.274,531.800,-263.710,-122.580
1046,44704.510000,228.378,106.540,-43.585,334.634,370.900,29.354,517.800,-276.710,-116.580
1047,44704.552000,212.593,115.629,-48.595,331.080,376.635,17.613,573.800,-288.710,-151.580
1048,44704.593000,201.742,123.708,-55.609,323.985,373.576,1.603,530.800,-289.710,-156.580
1049,44704.633000,197.796,127.748,-58.614,322.186,375.784,-12.233,430.800,-313.710,-144.580
1050,44704.675000,205.688,121.688,-58.614,323.056,380.852,-17.031,446.800,-297.710,-151.580
1051,44704.712000,208.647,113.609,-68.634,315.092,382.216,-29.921,498.800,-310.710,-179.580
1052,44704.732000,220.486,110.580,-76.650,311.532,387.027,-43.678,457.800,-345.710,-211.580
1053,44704.772000,224.432,101.491,-80.658,305.325,385.760,-57.641,499.800,-349.710,-243.580
1054,44704.817000,221.472,98.462,-89.675,295.599,383.679,-69.656,543.800,-370.710,-263.580
1055,44704.853000,218.513,99.471,-97.691,288.517,382.468,-81.634,624.800,-422.710,-295.580
1056,44704.893000,207.661,147.945,-97.691,277.900,386.321,-98.423,554.800,-496.710,-370.580
1057,44704.933000,169.187,193.389,-111.718,268.174,387.684,-111.319,349.800,-389.710,-431.580
1058,44704.973000,161.295,213.586,-118.732,258.461,399.519,-121.889,589.800,-308.710,-631.580
1059,44705.7000,153.403,121.688,-43.585,245.209,401.719,-135.762,991.800,381.290,-525.580
1060,44705.33000,157.349,53.018,-26.552,245.168,396.145,-148.852,1392.800,1124.290,-204.580
1061,44705.90000,189.904,66.146,-85.667,258.357,384.701,-155.139,1653.800,1684.290,108.420
1062,44705.125000,193.850,96.442,-120.736,266.277,369.111,-154.627,1221.800,1839.290,314.420
1063,44705.159000,232.324,100.481,-136.767,285.701,359.217,-137.012,171.800,1469.290,361.420
1064,44705.199000,226.405,97.452,-141.777,298.965,360.573,-120.044,10.800,1200.290,382.420
1065,44705.214000,224.432,118.659,-125.746,305.170,355.792,-105.285,-180.200,723.290,233.420
1066,44705.269000,226.405,111.590,-118.732,306.087,358.735,-93.270,-223.200,445.290,66.420
1067,44705.360000,223.445,80.284,-80.658,306.974,355.348,-90.398,29.800,324.290,-43.580
1068,44705.413000,240.216,105.531,-121.738,307.852,355.320,-91.389,620.800,470.290,-136.580
1069,44705.463000,216.540,86.343,-101.699,304.313,349.997,-95.545,557.800,352.290,-188.580
1070,44705.479000,219.499,84.323,-131.757,306.979,353.668,-88.467,-60.200,223.290,-17.580
1071,44705.559000,218.513,108.560,-78.654,307.866,358.037,-87.329,-382.200,237.290,67.420
1072,44705.583000,216.540,114.619,-26.552,307.896,356.611,-76.453,-190.200,401.290,74.420
1073,44705.614000,233.310,104.521,-33.566,316.735,358.635,-66.429,67.800,558.290,104.420
1074,44705.636000,234.297,97.452,-46.591,321.151,358.751,-62.439,-144.200,461.290,125.420
1075,44705.643000,243.175,80.284,-38.575,319.424,356.512,-49.608,-276.200,376.290,84.420
1076,44705.702000,232.324,88.363,-24.548,321.214,349.039,-37.929,-200.200,355.290,33.420
1077,44705.797000,227.391,93.412,-14.528,321.232,354.388,-32.790,-241.200,302.290,-3.580
1078,44705.805000,246.135,88.363,-21.542,321.254,352.877,-24.895,-260.200,267.290,-36.580
1079,44705.889000,241.202,89.373,-21.542,324.805,359.181,-16.735,-252.200,251.290,-70.580
1080,44705.896000,229.364,98.462,-10.521,322.188,360.301,-7.771,-275.200,245.290,-79.580
1081,44705.905000,237.256,95.432,-13.526,320.448,362.233,-0.763,-255.200,277.290,-63.580
1082,44705.960000,228.378,99.471,-6.513,316.953,364.248,9.222,-267.200,312.290,-62.580
1083,44705.960000,236.270,93.412,1.503,317.870,366.322,21.208,-301.200,304.290,-59.580
1084,44705.968000,231.337,98.462,9.519,318.762,362.124,26.039,-243.200,293.290,-69.580
1085,44705.983000,230.351,96.442,19.538,315.268,368.451,35.170,-216.200,216.290,-69.580
1086,44706.38000,228.378,99.471,25.550,313.511,367.638,37.124,-100.200,160.290,-55.580
1087,44706.70000,230.351,102.501,22.544,315.285,368.620,41.134,-60.200,94.290,-47.580
1088,44706.93000,228.378,104.521,16.532,310.881,366.041,42.029,-32.200,52.290,-33.580
1089,44706.109000,232.324,102.501,12.524,310.007,363.521,44.923,-24.200,54.290,-21.580
1090,44706.157000,230.351,104.521,14.528,308.244,362.651,44.889,-19.200,69.290,-10.580
1091,44706.242000,230.351,102.501,18.536,310.003,361.757,43.873,-26.200,69.290,-12.580
1092,44706.300000,230.351,104.521,15.530,310.019,367.945,48.046,-43.200,60.290,-15.580
1093,44706.338000,229.364,101.491,18.536,309.141,368.841,49.065,-28.200,44.290,-14.580
1094,44706.347000,227.391,103.511,21.542,310.034,373.266,52.191,-27.200,22.290,-21.580
1095,44706.368000,230.351,103.511,21.542,308.271,372.397,52.157,-22.200,6.290,-23.580
1096,44706.454000,227.391,104.521,18.536,307.384,371.472,50.138,-46.200,-9.710,-29.580
1097,44706.516000,228.378,104.521,19.538,309.154,367.246,53.978,-55.200,-16.710,-32.580
1098,44706.529000,229.364,103.511,20.540,307.393,364.668,54.882,-54.200,-25.710,-33.580
1099,44706.554000,228.378,105.531,19.538,307.388,365.480,52.922,-56.200,-44.710,-41.580
1100,44706.615000,229.364,103.511,19.538,303.863,371.497,51.120,-31.200,-53.710,-45.580
1101,44706.664000,227.391,107.550,17.534,302.100,366.316,51.940,-11.200,-58.710,-43.580
1102,44706.766000,229.364,106.540,15.530,302.110,371.580,54.097,-5.200,-55.710,-37.580
1103,44706.819000,228.378,108.560,14.528,302.108,368.976,54.012,-1.200,-49.710,-33.580
1104,44706.888000,227.391,107.550,13.526,302.087,367.911,47.026,6.800,-38.710,-28.580
1105,44706.918000,229.364,107.550,14.528,302.979,374.912,49.242,10.800,-22.710,-19.580
1106,44706.955000,228.378,108.560,13.526,302.097,369.732,50.065,6.800,-15.710,-13.580
1107,44706.955000,228.378,107.550,13.526,302.979,370.600,50.096,14.800,-7.710,-10.580
1108,44707.0,227.391,106.540,16.532,305.624,378.386,49.364,8.800,-9.710,-7.580
1109,44707.110000,226.405,109.570,14.528,300.333,367.126,49.974,7.800,-10.710,-8.580
1110,44707.155000,227.391,109.570,15.530,301.204,364.439,46.911,2.800,-8.710,-5.580
1111,44707.155000,227.391,107.550,13.526,302.098,370.600,50.093,1.800,-9.710,-3.580
1112,44707.191000,229.364,109.570,15.530,302.095,367.128,49.980,-2.200,-10.710,-2.580
1113,44707.258000,226.405,108.560,12.524,301.221,368.051,51.993,2.800,-9.710,2.420
1114,44707.258000,227.391,108.560,14.528,303.851,366.205,47.970,-4.200,-7.710,6.420
1115,44707.258000,228.378,108.560,15.530,300.330,373.986,47.218,-10.200,-7.710,8.420
1116,44707.298000,229.364,108.560,14.528,301.206,367.911,47.024,-12.200,-8.710,9.420
1117,44707.332000,227.391,107.550,15.530,302.972,368.808,48.051,-12.200,-10.710,7.420
1118,44707.361000,229.364,107.550,15.530,303.858,372.309,49.161,-16.200,-12.710,8.420
1119,44707.396000,228.378,109.570,13.526,302.981,374.072,50.208,-17.200,-13.710,7.420
1120,44707.479000,229.364,107.550,14.528,302.095,374.015,48.218,-15.200,-10.710,10.420
1121,44707.479000,227.391,108.560,14.528,304.738,367.130,49.989,-13.200,-8.710,9.420
1122,44707.508000,228.378,107.550,15.530,302.981,369.761,51.061,-19.200,-10.710,8.420
1123,44707.531000,228.378,109.570,13.526,302.091,365.364,48.930,-17.200,-11.710,9.420
1124,44707.606000,228.378,107.550,14.528,301.207,365.335,47.933,-13.200,-8.710,9.420
1125,44707.646000,227.391,108.560,15.530,302.094,366.260,49.952,-10.200,-11.710,8.420
1126,44707.689000,229.364,106.540,14.528,303.866,371.525,52.114,-16.200,-14.710,7.420
1127,44707.689000,229.364,107.550,16.532,305.630,374.131,52.205,-14.200,-14.710,6.420
1128,44707.745000,228.378,105.531,14.528,304.744,371.498,51.123,-12.200,-17.710,4.420
1129,44707.745000,229.364,107.550,16.532,302.988,371.553,53.105,-11.200,-21.710,0.420
1130,44707.781000,228.378,106.540,14.528,301.227,373.288,53.156,-9.200,-27.710,-3.580
1131,44707.803000,229.364,107.550,13.526,305.624,370.630,51.098,-8.200,-27.710,-4.580
1132,44707.854000,230.351,105.531,13.526,305.625,371.498,51.126,-2.200,-18.710,-1.580
1133,44707.886000,230.351,107.550,15.530,303.867,373.261,52.171,-4.200,-12.710,-0.580
1134,44707.899000,228.378,108.560,14.528,306.509,374.971,51.242,-2.200,-10.710,-1.580
1135,44707.936000,229.364,106.540,14.528,305.628,372.395,52.148,1.800,-9.710,-1.580
1136,44707.979000,228.378,109.570,13.526,301.211,370.543,48.102,2.800,-10.710,-1.580
1137,44707.991000,228.378,107.550,15.530,303.849,367.913,47.032,2.800,-10.710,-1.580
1138,44708.19000,227.391,107.550,14.528,302.972,365.364,48.933,-1.200,-9.710,-1.580
1139,44708.83000,227.391,108.560,14.528,302.979,371.468,50.124,0.800,-9.710,-1.580
1140,44708.218000,227.391,106.540,12.524,302.978,374.044,49.214,1.800,-11.710,-3.580
1141,44708.281000,228.378,108.560,12.524,306.506,374.943,50.248,2.800,-11.710,-3.580
1142,44708.349000,228.378,109.570,13.526,303.856,365.393,49.929,2.800,-9.710,0.420
1143,44708.368000,228.378,109.570,13.526,300.332,369.702,49.065,2.800,-5.710,-0.580
1144,44708.385000,228.378,106.540,14.528,302.976,371.440,49.130,1.800,-2.710,2.420
1145,44708.452000,228.378,107.550,14.528,304.743,369.762,51.067,-1.200,-1.710,1.420
1146,44708.452000,227.391,105.531,13.526,307.377,366.235,48.975,-0.200,-2.710,1.420
1147,44708.452000,228.378,107.550,13.526,304.743,370.630,51.095,-1.200,-4.710,-0.580
1148,44708.565000,226.405,107.550,11.523,300.332,369.702,49.065,0.800,-2.710,-1.580
1149,44708.565000,227.391,108.560,13.526,303.859,373.177,49.189,1.800,-0.710,0.420
1150,44708.585000,226.405,106.540,13.526,300.325,367.042,46.993,4.800,-0.710,1.420
1151,44708.611000,228.378,107.550,15.530,300.345,371.551,53.097,3.800,-3.710,2.420
1152,44708.765000,227.391,106.540,13.526,305.622,367.158,50.985,2.800,-5.710,2.420
1153,44708.765000,227.391,108.560,12.524,302.974,371.412,48.136,3.800,-4.710,5.420
1154,44708.919000,227.391,107.550,15.530,304.744,371.498,51.123,1.800,-6.710,5.420
1155,44708.919000,227.391,108.560,13.526,302.977,376.620,48.305,1.800,-10.710,3.420
1156,44708.919000,226.405,107.550,15.530,302.094,373.147,48.189,1.800,-14.710,3.420
1157,44708.959000,229.364,108.560,13.526,302.980,372.336,50.152,1.800,-14.710,3.420
1158,44709.45000,228.378,107.550,12.524,303.854,370.545,48.111,2.800,-12.710,4.420
1159,44709.455000,228.378,108.560,13.526,302.084,367.883,46.033,-0.200,-6.710,8.420
1160,44709.455000,227.391,108.560,12.524,301.211,367.099,48.983,-0.200,2.290,14.420
1161,44709.455000,228.378,107.550,13.526,303.860,370.601,50.098,-4.200,8.290,15.420
1162,44709.824000,228.378,108.560,13.526,303.855,371.413,48.139,-8.200,10.290,14.420
1163,44709.824000,228.378,107.550,13.526,302.983,372.365,51.146,-6.200,9.290,14.420
1164,44709.824000,229.364,107.550,15.530,302.099,368.024,51.002,-6.200,4.290,13.420
1165,44709.824000,228.378,106.540,14.528,303.859,366.289,50.951,-6.200,-3.710,7.420
1166,44709.824000,229.364,108.560,14.528,305.618,374.018,48.229,-1.200,-11.710,2.420
1167,44709.921000,228.378,108.560,14.528,303.855,372.281,48.167,-4.200,-17.710,-2.580
1168,44710.85000,227.391,107.550,15.530,305.623,368.894,51.042,-2.200,-21.710,-6.580
1169,44710.85000,227.391,108.560,14.528,304.739,368.866,50.045,0.800,-25.710,-6.580
1170,44710.303000,229.364,108.560,11.523,304.736,371.413,48.142,3.800,-21.710,-3.580
1171,44710.303000,227.391,109.570,12.524,302.969,373.092,46.204,1.800,-18.710,-2.580
1172,44710.920000,228.378,106.540,13.526,300.335,373.174,49.178,2.800,-14.710,-1.580
1173,44710.920000,229.364,108.560,14.528,302.965,367.016,46.007,3.800,-13.710,-2.580
1174,44710.920000,230.351,107.550,12.524,303.851,366.205,47.970,1.800,-11.710,-1.580
1175,44710.920000,230.351,108.560,12.524,302.087,371.355,46.145,3.800,-7.710,-0.580
1176,44710.920000,229.364,108.560,12.524,304.738,371.441,49.135,1.800,-2.710,1.420
1177,44710.920000,229.364,106.540,12.524,304.732,374.829,46.266,0.800,-2.710,2.420
1178,44710.921000,229.364,106.540,13.526,302.103,374.100,51.199,-1.200,-0.710,3.420
1179,44710.921000,230.351,107.550,13.526,302.093,371.411,48.133,-1.200,-1.710,3.420
1180,44710.921000,226.405,107.550,11.523,302.982,370.629,51.089,-0.200,1.290,227.393
1181,44711.784000,107.550,11.523,302.094,368.836,49.042,-3.200,2.290,4.420,228.378
1182,44711.784000,106.540,12.524,305.621,374.046,49.223,-5.200,3.290,2.420,229.364
1183,44711.784000,107.550,15.530,299.458,371.494,51.106,-1.200,0.290,0.420,228.378
1184,44711.784000,108.560,12.524,304.745,373.234,51.180,-4.200,-4.710,-4.580,227.391
1185,44711.784000,107.550,13.526,302.977,372.308,49.158,-2.200,-3.710,-1.580,229.364
1186,44711.784000,107.550,11.523,302.972,369.676,48.080,-1.200,-1.710,-1.580,227.391
1187,44711.785000,106.540,11.523,297.689,369.700,49.056,-3.200,-0.710,0.420,228.378
1188,44711.785000,107.550,12.524,301.212,367.967,49.011,-1.200,0.290,1.420,228.378
1189,44711.785000,107.550,12.524,302.096,367.996,50.008,2.800,2.290,5.420,229.364
1190,44711.821000,106.540,14.528,303.860,374.913,49.245,-0.200,0.290,3.420,228.378
1191,44712.289000,107.550,12.524,306.511,374.131,52.207,-0.200,-3.710,1.420,227.391
1192,44712.289000,108.560,13.526,302.983,373.233,51.174,-0.200,-5.710,0.420,228.378
1193,44712.289000,107.550,13.526,302.106,374.128,52.193,1.800,-5.710,3.420,228.378
1194,44712.289000,107.550,10.521,302.981,374.072,50.208,-2.200,-4.710,2.420,227.391
1195,44712.289000,106.540,13.526,302.971,367.940,48.023,-2.200,-4.710,2.420,228.378
1196,44712.409000,106.540,14.528,304.732,367.073,48.001,-1.200,-5.710,2.420,228.378
1197,44712.409000,107.550,13.526,303.850,368.781,47.060,-0.200,-4.710,3.420,228.378
1198,44713.26000,107.550,12.524,302.091,373.119,47.195,-0.200,-4.710,3.420,229.364
1199,44713.27000,106.540,13.526,304.742,373.206,50.186,0.800,-6.710,3.420,226.405
1200,44713.27000,106.540,12.524,304.738,370.574,49.107,-0.200,-6.710,3.420,227.391
1201,44713.27000,108.560,12.524,305.624,374.074,50.217,1.800,-5.710,4.420,228.378
1202,44713.27000,106.540,12.524,302.968,367.912,47.029,3.800,-6.710,2.420,228.378
1203,44713.27000,107.550,11.523,305.623,372.338,50.160,1.800,-7.710,1.420,228.378
1204,44713.681000,107.550,13.526,306.503,374.915,49.254,1.800,-9.710,0.420,227.391
1205,44713.682000,107.550,11.523,303.857,374.885,48.251,-1.200,-7.710,-2.580,228.378
1206,44713.682000,107.550,13.526,304.743,370.630,51.095,0.800,-2.710,2.420,229.364
1207,44713.682000,107.550,12.524,303.859,373.177,49.189,0.800,3.290,6.420,227.391
1208,44713.682000,107.550,13.526,303.852,367.941,48.026,1.800,8.290,13.420,228.378
1209,44713.682000,107.550,11.523,302.975,366.260,49.955,0.800,10.290,14.420,228.378
1210,44713.682000,107.550,12.524,301.210,368.807,48.046,-4.200,14.290,19.420,229.364
1211,44713.682000,107.550,12.524,304.730,364.469,47.916,-6.200,23.290,23.420,229.364
1212,44713.682000,107.550,14.528,305.626,373.234,51.182,-8.200,32.290,25.420,0.000
1213,44714.234000,0.000,-59115547474940070109118464.000,-0.000,-13043254272.000,0.000,434697282160427008.000,-0.000,-0.000,0.000
1214,44714.234000,0.000,3967142882945206403800667709767680.000,-0.000,-13047479296.000,0.000,-0.000,-24748.639,-0.000,0.000
1215,44714.234000,-958402993214711155576105074688.000,-50071.938,-3525854789202083840.000,-0.000,0.000,-426772344602624.000,0.001,-0.000,0.000
1216,44714.234000,-0.000,-0.000,0.000,-13048347648.000,0.000,-426944143294464.000,415979634688.000,-12.213,0.000
1217,44714.234000,-0.000,-13126404096.000,0.000,-3.037,0.000,-426806704340992.000,0.000,-12.212,0.000
1218,44714.235000,0.000,3281601024.000,0.000,0.000,0.000,-0.000,0.001,-0.000,0.001
1219,44714.235000,3244848128.000,0.000,-0.000,-50954964.000,0.000,435984329240215552.000,-24697.279,-12.212,0.000
1220,44714.235000,0.000,0.000,-0.000,-50934632.000,0.000,436125066728570880.000,0.000,-204879424.000,0.000
1221,44714.235000,0.000,-945815555459708444552986624.000,-0.001,229481117171047227981824.000,0.000,436195435472748544.000,-0.000,-204883456.000,0.000
1222,44714.286000,-0.000,-63475385417878187878494793778593792.000,-0.000,229403367027080303738880.000,0.000,1918407813140411694808695832576.000,0.000,-12.212,0.000
1223,44714.286000,62799737551476855890539250163122176.000,13126171648.000,-0.000,229421075180815124529152.000,0.000,0.000,59028477286597257014763493261312.000,-0.000,-0.000
1224,44714.286000,0.000,0.000,127106703360.000,190567252246921216.000,11972471706293249245184.000,0.000,40.315,-0.000,990106377701758527270999084236800.000
