Sample, Time, ACCX, ACCY, ACCZ, MAGX, MAGY, MAGZ, GYRX, GYRY, GYRZ
0,44665.810000,191.140,20.078,151.552,342.361,-204.122,361.946,149.220,-202.600,-169.060
1,44665.856000,178.365,15.059,145.408,351.871,-200.371,360.051,0.220,-166.600,-138.060
2,44665.870000,172.468,17.067,132.096,350.025,-196.771,358.135,1.220,-118.600,-27.060
3,44665.912000,179.347,20.078,131.072,352.856,-197.591,361.106,84.220,-18.600,17.940
4,44665.962000,191.140,16.063,139.264,345.311,-195.858,361.132,116.220,101.400,52.940
5,44665.991000,202.933,18.071,157.696,344.345,-197.645,364.076,31.220,217.400,76.940
6,44666.31000,171.486,24.094,166.912,339.706,-191.236,367.189,9.220,187.400,67.940
7,44666.73000,178.365,22.086,179.200,337.765,-194.906,368.103,-109.780,98.400,48.940
8,44666.99000,199.985,12.047,195.584,336.752,-200.317,372.960,-128.780,66.400,-17.060
9,44666.129000,182.296,3.012,196.608,334.790,-205.001,368.879,-174.780,68.400,-2.060
10,44666.169000,179.347,-1.004,200.704,337.665,-202.235,367.947,-110.780,10.400,9.940
11,44666.213000,170.503,-5.020,198.656,332.851,-207.872,363.841,-73.780,-66.600,28.940
12,44666.252000,171.486,-3.012,196.608,338.608,-202.261,365.959,11.220,-111.600,35.940
13,44666.298000,188.192,4.016,191.488,340.422,-207.772,363.855,29.220,-146.600,38.940
14,44666.312000,184.261,4.016,175.104,343.295,-205.025,361.928,41.220,-204.600,54.940
15,44666.352000,183.278,12.047,160.768,348.029,-204.164,355.986,81.220,-252.600,53.940
16,44666.392000,188.192,19.075,159.744,352.718,-206.908,352.950,85.220,-252.600,9.940
17,44666.434000,196.054,19.075,155.648,354.743,-196.864,350.183,131.220,-199.600,-18.060
18,44666.471000,197.036,26.102,150.528,361.378,-195.880,349.219,161.220,-126.600,-47.060
19,44666.511000,199.985,34.133,151.552,362.292,-198.557,352.147,135.220,-101.600,-64.060
20,44666.551000,200.967,37.145,148.480,363.312,-193.068,351.271,122.220,-86.600,-50.060
21,44666.571000,201.950,46.180,151.552,367.118,-191.224,349.327,110.220,-50.600,-11.060
22,44666.612000,195.071,44.173,152.576,366.151,-193.030,351.276,81.220,8.400,22.940
23,44666.653000,192.123,41.161,157.696,364.324,-188.435,353.361,39.220,43.400,65.940
24,44666.693000,182.296,37.145,158.720,360.488,-192.150,353.276,8.220,49.400,118.940
25,44666.729000,184.261,37.145,164.864,361.356,-197.673,351.170,-50.780,0.400,119.940
26,44666.768000,185.244,27.106,174.080,363.312,-193.068,351.271,-171.780,-157.600,82.940
27,44666.789000,161.658,14.055,168.960,366.973,-201.399,344.137,-78.780,-316.600,-1.060
28,44666.838000,195.071,9.035,181.248,375.603,-192.262,337.382,329.220,-511.600,-59.060
29,44666.873000,197.036,19.075,180.224,389.901,-183.167,324.666,743.220,-921.600,-67.060
30,44666.912000,212.760,36.141,147.456,394.733,-174.996,317.885,651.220,-1022.600,71.940
31,44666.953000,222.587,36.141,126.976,408.028,-169.656,301.109,383.220,-971.600,299.940
32,44666.988000,229.466,23.090,102.400,413.550,-179.873,289.959,47.220,-689.600,368.940
33,44667.11000,224.553,11.043,119.808,417.242,-185.535,278.903,46.220,-445.600,289.940
34,44667.51000,223.570,7.027,94.208,420.942,-191.098,272.822,289.220,-312.600,216.940
35,44667.98000,220.622,-2.008,98.304,421.971,-184.732,269.975,231.220,-381.600,165.940
36,44667.137000,228.484,9.035,115.712,421.911,-188.513,263.927,225.220,-547.600,112.940
37,44667.178000,232.415,17.067,102.400,434.252,-184.043,250.115,147.220,-621.600,90.940
38,44667.218000,236.345,12.047,91.136,437.903,-192.492,237.011,42.220,-587.600,109.940
39,44667.253000,241.259,9.035,68.608,438.810,-194.488,228.018,56.220,-474.600,133.940
40,44667.273000,244.207,12.047,68.608,444.426,-198.214,220.984,150.220,-392.600,148.940
41,44667.324000,242.242,9.035,72.704,446.374,-193.686,217.105,43.220,-341.600,166.940
42,44667.354000,246.173,9.035,69.632,446.352,-194.719,211.115,-58.780,-209.600,187.940
43,44667.402000,248.138,3.012,65.536,449.070,-203.025,205.969,-80.780,-163.600,180.940
44,44667.431000,256.000,2.008,62.464,443.325,-207.739,202.876,-88.780,-113.600,151.940
45,44667.471000,249.121,-1.004,60.416,448.949,-211.367,200.818,69.220,-57.600,87.940
46,44667.522000,241.259,0.000,62.464,447.069,-210.476,200.834,-45.780,-48.600,62.940
47,44667.556000,232.415,-1.004,60.416,444.153,-216.030,199.717,-38.780,-66.600,15.940
48,44667.594000,214.726,4.016,58.368,448.949,-211.367,200.818,68.220,-84.600,-31.060
49,44667.633000,239.294,2.008,48.128,447.930,-216.078,194.749,74.220,-126.600,-35.060
50,44667.654000,282.534,5.020,73.728,449.882,-211.511,192.859,10.220,-98.600,-53.060
51,44667.701000,266.810,8.031,73.728,449.934,-207.827,193.933,20.220,58.400,-28.060
52,44667.736000,218.656,7.027,58.368,450.819,-212.376,194.832,-10.780,124.400,11.940
53,44667.761000,205.881,4.016,47.104,446.163,-206.941,194.940,-80.780,8.400,62.940
54,44667.799000,206.864,5.020,44.032,450.788,-214.286,190.812,-133.780,-1.600,63.940
55,44667.837000,257.965,7.027,64.512,447.996,-211.458,196.836,-51.780,117.400,-2.060
56,44667.883000,270.741,6.024,91.136,442.322,-211.494,198.816,-2.780,268.400,-40.060
57,44667.922000,249.121,3.012,88.064,440.442,-211.363,206.774,-77.780,319.400,-27.060
58,44667.958000,223.570,4.016,77.824,438.509,-214.175,204.722,-75.780,140.400,-13.060
59,44667.972000,226.518,2.008,73.728,439.496,-211.375,206.772,-105.780,4.400,-15.060
60,44668.9000,242.242,0.000,78.848,441.289,-218.679,206.619,-91.780,-61.600,-28.060
61,44668.51000,245.190,6.024,83.968,437.550,-215.104,204.700,-29.780,-35.600,-37.060
62,44668.91000,241.259,1.004,80.896,442.253,-216.913,202.680,-40.780,-40.600,-21.060
63,44668.131000,237.328,1.004,75.776,442.291,-214.164,202.738,-37.780,-81.600,3.940
64,44668.171000,241.259,2.008,75.776,444.205,-212.346,200.790,-64.780,-91.600,5.940
65,44668.191000,247.155,3.012,70.656,445.993,-219.709,197.652,-57.780,-85.600,-1.060
66,44668.229000,246.173,3.012,69.632,446.947,-218.839,194.688,-47.780,-42.600,-14.060
67,44668.269000,245.190,3.012,65.536,444.148,-216.089,196.732,-53.780,-5.600,-12.060
68,44668.314000,242.242,4.016,62.464,446.993,-215.213,192.776,-75.780,8.400,9.940
69,44668.356000,245.190,1.004,64.512,441.310,-216.126,196.727,-93.780,50.400,3.940
70,44668.389000,245.190,0.000,64.512,441.305,-216.185,193.742,-109.780,67.400,15.940
71,44668.409000,246.173,3.012,66.560,443.211,-215.224,194.760,-128.780,88.400,15.940
72,44668.456000,250.104,7.027,66.560,443.936,-231.663,196.400,-124.780,101.400,16.940
73,44668.499000,262.879,5.020,49.152,440.281,-222.493,199.574,-229.780,249.400,-18.060
74,44668.534000,252.069,3.012,45.056,433.577,-228.896,204.401,-571.780,766.400,-104.060
75,44668.594000,237.328,-5.020,63.488,428.872,-229.426,227.259,-611.780,1229.400,-128.060
76,44668.622000,218.656,-23.090,88.064,412.718,-236.577,246.976,-509.780,1231.400,40.940
77,44668.651000,203.916,-4.016,123.904,399.402,-242.931,258.757,-290.780,1193.400,58.940
78,44668.683000,205.881,-8.031,144.384,388.153,-237.213,277.760,-91.780,893.400,60.940
79,44668.712000,199.002,-9.035,149.504,376.773,-239.955,285.642,40.220,586.400,36.940
80,44668.752000,202.933,-7.027,156.672,372.074,-238.868,297.594,62.220,369.400,16.940
81,44668.793000,202.933,-1.004,153.600,369.262,-237.053,298.623,83.220,221.400,-9.060
82,44668.834000,200.967,-3.012,154.624,368.334,-236.072,302.621,54.220,92.400,-10.060
83,44668.874000,203.916,-2.008,152.576,364.452,-243.412,304.448,39.220,37.400,-5.060
84,44668.894000,202.933,-2.008,149.504,367.421,-234.154,307.633,31.220,5.400,1.940
85,44668.934000,204.898,-2.008,148.480,365.488,-236.967,305.581,43.220,-13.600,9.940
86,44668.973000,206.864,-4.016,146.432,370.255,-234.175,304.653,47.220,-16.600,7.940
87,44669.17000,203.916,-2.008,144.384,365.516,-235.095,307.611,53.220,-7.600,-6.060
88,44669.59000,203.916,-1.004,146.432,365.452,-239.696,306.518,60.220,3.400,-16.060
89,44669.96000,201.950,0.000,143.360,365.550,-232.386,305.679,-6.780,-13.600,-26.060
90,44669.123000,202.933,-1.004,145.408,363.649,-233.288,307.646,6.220,-8.600,-35.060
91,44669.171000,205.881,-2.008,150.528,365.593,-229.579,308.723,-1.780,-15.600,-27.060
92,44669.194000,204.898,-2.008,148.480,367.421,-234.154,307.633,10.220,-49.600,-2.060
93,44669.234000,208.829,-2.008,147.456,371.258,-230.420,308.713,20.220,-69.600,2.940
94,44669.306000,205.881,-1.004,144.384,366.434,-236.954,305.583,27.220,-88.600,4.940
95,44669.322000,208.829,-1.004,143.360,375.054,-228.714,299.803,32.220,-92.600,-3.060
96,44669.354000,210.795,-3.012,141.312,371.195,-234.241,300.675,33.220,-97.600,0.940
97,44669.392000,209.812,-1.004,137.216,374.036,-234.184,301.675,4.220,-94.600,-5.060
98,44669.411000,210.795,-3.012,135.168,374.980,-234.191,300.681,-1.780,-94.600,-1.060
99,44669.456000,214.726,-2.008,134.144,377.825,-233.315,296.726,-6.780,-84.600,-4.060
100,44669.502000,212.760,-3.012,134.144,378.845,-227.825,295.849,-13.780,-73.600,3.940
101,44669.534000,207.846,-2.008,131.072,379.743,-231.458,296.768,-34.780,-57.600,-0.060
102,44669.591000,205.881,-3.012,132.096,378.811,-229.755,290.835,-92.780,-37.600,-48.060
103,44669.599000,210.795,-3.012,129.024,378.790,-231.549,292.786,-100.780,-12.600,-34.060
104,44669.633000,219.639,-2.008,137.216,379.679,-235.279,288.730,-148.780,-27.600,28.940
105,44669.674000,216.691,-9.035,134.144,377.658,-244.504,286.541,-120.780,-45.600,68.940
106,44669.713000,216.691,-10.039,135.168,382.485,-237.171,283.720,-55.780,-41.600,46.940
107,44669.754000,213.743,-11.043,131.072,377.758,-237.175,286.697,38.220,-38.600,29.940
108,44669.794000,214.726,-4.016,134.144,376.748,-241.788,285.603,48.220,4.400,2.940
109,44669.837000,216.691,-5.020,135.168,376.748,-241.788,285.603,2.220,5.400,10.940
110,44669.858000,211.777,-5.020,132.096,376.737,-242.684,286.578,-14.780,21.400,15.940
111,44669.913000,211.777,-7.027,136.192,380.624,-235.286,287.736,-12.780,19.400,18.940
112,44669.934000,211.777,-7.027,135.168,377.669,-243.607,285.565,3.220,32.400,15.940
113,44669.977000,211.777,-8.031,136.192,377.701,-241.697,289.585,8.220,29.400,3.940
114,44670.21000,210.795,-4.016,135.168,373.955,-238.979,290.632,4.220,20.400,-0.060
115,44670.56000,210.795,-4.016,137.216,377.747,-238.072,287.673,11.220,-6.600,-4.060
116,44670.76000,210.795,-4.016,137.216,373.016,-238.134,287.664,-19.780,-41.600,11.940
117,44670.116000,212.760,-6.024,139.264,379.624,-239.002,285.666,4.220,-46.600,26.940
118,44670.156000,211.777,-5.020,137.216,378.641,-241.763,285.606,24.220,-36.600,35.940
119,44670.197000,212.760,-6.024,135.168,376.725,-243.600,286.559,50.220,-32.600,31.940
120,44670.237000,212.760,-2.008,133.120,376.771,-239.975,284.647,56.220,-17.600,22.940
121,44670.283000,209.812,-6.024,138.240,378.625,-243.478,291.537,28.220,31.400,11.940
122,44670.298000,212.760,-4.016,142.336,379.654,-237.111,288.691,41.220,-6.600,7.940
123,44670.346000,213.743,-8.031,139.264,376.795,-238.922,291.632,38.220,-14.600,5.940
124,44670.374000,212.760,-2.008,138.240,379.634,-238.885,291.637,46.220,-36.600,4.940
125,44670.414000,212.760,-4.016,138.240,375.897,-235.290,290.713,31.220,-51.600,3.940
126,44670.458000,213.743,-5.020,133.120,379.667,-236.195,288.710,47.220,-58.600,0.940
127,44670.493000,213.743,-4.016,132.096,377.729,-239.826,291.614,61.220,-54.600,6.940
128,44670.533000,215.708,-6.024,131.072,376.785,-239.039,285.661,51.220,-49.600,15.940
129,44670.553000,215.708,-4.016,130.048,381.534,-238.002,288.674,23.220,-29.600,20.940
130,44670.593000,214.726,-7.027,131.072,379.576,-242.647,286.583,31.220,-25.600,18.940
131,44670.633000,215.708,-4.016,128.000,379.638,-238.066,286.681,53.220,-5.600,7.940
132,44670.677000,214.726,-8.031,131.072,377.733,-239.007,286.658,39.220,-3.600,3.940
133,44670.713000,215.708,-6.024,131.072,378.680,-238.995,286.660,35.220,-2.600,-2.060
134,44670.753000,214.726,-6.024,131.072,381.522,-238.918,288.655,54.220,-3.600,-14.060
135,44670.773000,215.708,-4.016,131.072,378.695,-238.040,288.669,52.220,-2.600,-7.060
136,44670.813000,212.760,-5.020,132.096,379.617,-239.859,288.632,46.220,-0.600,-2.060
137,44670.852000,213.743,-5.020,133.120,381.547,-237.086,288.694,-2.780,12.400,-0.060
138,44670.892000,215.708,-11.043,133.120,375.924,-233.438,291.747,7.220,-1.600,5.940
139,44670.934000,213.743,-8.031,133.120,374.976,-233.470,290.750,18.220,-13.600,-0.060
140,44670.974000,213.743,-10.039,134.144,380.649,-233.453,287.775,5.220,-9.600,-14.060
141,44670.994000,212.760,-13.051,135.168,375.937,-232.522,291.767,-12.780,-12.600,-21.060
142,44671.41000,212.760,-14.055,136.192,381.569,-235.293,286.743,-64.780,-25.600,-21.060
143,44671.81000,209.812,-18.071,134.144,380.576,-238.931,288.653,-78.780,-28.600,-24.060
144,44671.123000,210.795,-24.094,137.216,382.470,-238.886,289.652,-119.780,-26.600,-20.060
145,44671.161000,207.846,-26.102,135.168,390.023,-239.761,286.660,-117.780,-37.600,-22.060
146,44671.204000,208.829,-24.094,137.216,390.020,-239.800,284.670,-88.780,-40.600,-49.060
147,44671.246000,213.743,-25.098,139.264,388.169,-236.258,279.770,-68.780,-59.600,-93.060
148,44671.254000,209.812,-18.071,140.288,390.929,-241.756,277.667,-58.780,-68.600,-120.060
149,44671.302000,206.864,-11.043,141.312,396.682,-236.184,277.794,-37.780,-74.600,-149.060
150,44671.353000,203.916,-2.008,132.096,399.594,-230.670,276.921,-79.780,-135.600,-155.060
151,44671.373000,200.967,3.012,121.856,409.069,-228.868,269.017,-114.780,-183.600,-162.060
152,44671.413000,201.950,7.027,122.880,412.896,-225.252,264.126,-125.780,-185.600,-187.060
153,44671.456000,206.864,20.078,121.856,416.698,-223.467,259.197,-138.780,-171.600,-181.060
154,44671.483000,226.518,20.078,124.928,418.607,-221.707,254.264,-180.780,-149.600,-162.060
155,44671.516000,242.242,25.098,129.024,420.432,-226.321,251.184,-194.780,-90.600,-153.060
156,44671.571000,244.207,20.078,118.784,424.298,-219.936,247.347,-201.780,-91.600,-107.060
157,44671.641000,243.225,15.059,108.544,429.915,-223.663,240.314,-224.780,-123.600,-56.060
158,44671.663000,247.155,12.047,110.592,431.786,-224.651,235.322,-125.780,-89.600,-17.060
159,44671.678000,245.190,12.047,109.568,430.906,-220.044,237.408,23.220,-12.600,-1.060
160,44671.697000,220.622,13.051,102.400,428.892,-229.191,239.200,97.220,87.400,19.940
161,44671.742000,215.708,17.067,104.448,426.158,-221.841,242.336,35.220,136.400,10.940
162,44671.792000,212.760,9.035,115.712,427.048,-226.331,246.221,10.220,135.400,6.940
163,44671.822000,201.950,8.031,116.736,424.200,-227.246,248.186,9.220,128.400,-25.060
164,44671.871000,200.967,11.043,121.856,424.302,-219.897,249.337,65.220,129.400,-70.060
165,44671.898000,208.829,11.043,130.048,425.230,-221.639,253.280,37.220,100.400,-103.060
166,44671.958000,205.881,17.067,130.048,423.365,-219.793,255.306,1.220,50.400,-105.060
167,44671.966000,209.812,14.055,128.000,425.289,-217.098,251.388,-56.780,7.400,-99.060
168,44671.997000,206.864,8.031,128.000,425.251,-219.846,251.329,-96.780,-50.600,-62.060
169,44672.42000,221.605,6.024,130.048,428.149,-215.267,249.442,-106.780,-82.600,-39.060
170,44672.84000,230.449,2.008,129.024,430.999,-214.333,248.471,-43.780,-99.600,-21.060
171,44672.129000,245.190,-3.012,129.024,430.893,-221.740,244.335,-51.780,-94.600,40.940
172,44672.158000,241.259,-9.035,130.048,430.957,-217.140,245.427,16.220,-49.600,81.940
173,44672.177000,244.207,-14.055,133.120,429.871,-227.249,244.216,94.220,23.400,130.940
174,44672.218000,228.484,0.000,120.832,425.175,-225.362,250.217,185.220,55.400,109.940
175,44672.253000,213.743,3.012,118.784,423.375,-218.916,253.335,161.220,30.400,60.940
176,44672.299000,212.760,1.004,119.808,425.244,-220.704,254.295,128.220,-6.600,53.940
177,44672.339000,207.846,1.004,112.640,426.163,-222.543,253.262,135.220,-35.600,72.940
178,44672.378000,208.829,3.012,112.640,427.136,-220.678,254.298,105.220,-36.600,76.940
179,44672.399000,218.656,0.000,116.736,424.248,-224.381,254.215,120.220,-40.600,81.940
180,44672.454000,211.777,3.012,109.568,421.407,-224.438,253.215,176.220,-40.600,54.940
181,44672.478000,208.829,6.024,120.832,424.340,-217.909,257.337,177.220,-14.600,10.940
182,44672.517000,224.553,5.020,121.856,425.249,-220.645,257.280,154.220,-21.600,9.940
183,44672.557000,218.656,6.024,125.952,428.177,-214.175,258.417,167.220,-38.600,-6.060
184,44672.643000,231.432,12.047,125.952,424.329,-218.806,258.312,147.220,-26.600,14.940
185,44672.676000,228.484,13.051,120.832,428.154,-215.988,259.373,108.220,-12.600,35.940
186,44672.683000,223.570,14.055,114.688,422.532,-212.320,263.421,129.220,29.400,37.940
187,44672.698000,212.760,14.055,114.688,421.522,-216.933,262.327,144.220,92.400,37.940
188,44672.734000,213.743,12.047,111.616,420.701,-208.544,270.461,163.220,106.400,31.940
189,44672.777000,222.587,11.043,116.736,419.721,-211.266,272.391,184.220,92.400,58.940
190,44672.833000,208.829,8.031,109.568,415.957,-210.302,277.379,148.220,34.400,73.940
191,44672.862000,210.795,17.067,101.376,414.023,-213.115,275.327,90.220,-9.600,50.940
192,44672.901000,207.846,21.082,95.232,418.830,-207.555,275.453,30.220,-19.600,-13.060
193,44672.914000,208.829,21.082,96.256,418.828,-207.575,274.457,-17.780,13.400,-52.060
194,44672.962000,235.363,16.063,112.640,417.910,-205.716,276.485,-86.780,74.400,-76.060
195,44673.3000,256.000,16.063,125.952,418.836,-207.477,279.433,-277.780,152.400,-43.060
196,44673.38000,266.810,8.031,133.120,415.869,-216.715,277.243,-372.780,143.400,-0.060
197,44673.79000,246.173,-16.063,133.120,413.942,-219.449,279.171,-372.780,99.400,91.940
198,44673.99000,217.674,-25.098,115.712,410.967,-228.785,272.005,-290.780,-27.600,197.940
199,44673.136000,204.898,-20.078,99.328,405.182,-236.267,267.859,-229.780,-113.600,262.940
200,44673.178000,221.605,-13.051,102.400,402.256,-242.718,267.717,-33.780,-95.600,255.940
201,44673.219000,225.536,-17.067,97.280,407.893,-245.430,265.679,71.220,-79.600,267.940
202,44673.256000,223.570,-1.004,105.472,402.117,-252.814,266.507,260.220,-45.600,274.940
203,44673.296000,241.259,12.047,123.904,398.360,-250.993,268.530,324.220,-36.600,281.940
204,44673.343000,258.948,27.106,130.048,393.541,-258.229,276.326,400.220,-24.600,267.940
205,44673.356000,243.225,18.071,114.688,391.675,-256.402,277.357,211.220,-134.600,299.940
206,44673.396000,213.743,4.016,124.928,386.828,-264.749,275.183,-17.780,-156.600,323.940
207,44673.444000,179.347,1.004,145.408,382.925,-273.102,272.015,-367.780,-20.600,344.940
208,44673.487000,170.503,-34.133,149.504,374.239,-285.203,267.766,-366.780,92.400,322.940
209,44673.519000,214.726,-39.153,156.672,369.354,-296.298,265.534,-235.780,89.400,311.940
210,44673.559000,221.605,-25.098,148.480,362.746,-295.430,267.532,96.220,96.400,266.940
211,44673.579000,202.933,-40.157,147.456,357.907,-303.679,270.333,62.220,38.400,326.940
212,44673.619000,203.916,-49.192,146.432,354.070,-307.413,269.253,53.220,-59.600,461.940
213,44673.666000,193.106,-58.227,139.264,342.564,-318.557,268.999,140.220,-143.600,554.940
214,44673.699000,197.036,-83.325,134.144,339.643,-324.949,271.842,213.220,-97.600,560.940
215,44673.741000,205.881,-103.404,124.928,329.195,-328.614,278.711,329.220,-84.600,502.940
216,44673.781000,199.985,-91.357,113.664,325.379,-331.335,282.626,547.220,-92.600,389.940
217,44673.801000,194.088,-75.294,119.808,323.625,-322.042,290.779,554.220,-114.600,258.940
218,44673.838000,211.777,-79.310,120.832,320.739,-325.705,292.686,392.220,-143.600,118.940
219,44673.878000,220.622,-79.310,124.928,325.609,-316.325,300.850,280.220,-118.600,55.940
220,44673.918000,216.691,-72.282,123.904,323.742,-314.518,300.885,382.220,-52.600,15.940
221,44673.964000,206.864,-57.224,120.832,324.648,-318.053,306.779,454.220,-31.600,-78.060
222,44674.1000,221.605,-46.180,121.856,327.736,-300.472,314.120,510.220,-56.600,-190.060
223,44674.42000,228.484,-38.149,114.688,333.550,-291.099,321.291,574.220,-79.600,-226.060
224,44674.57000,227.501,-11.043,118.784,337.538,-277.132,330.546,645.220,-27.600,-235.060
225,44674.104000,219.639,-10.039,121.856,342.472,-263.151,339.802,625.220,35.400,-226.060
226,44674.137000,210.795,3.012,126.976,344.516,-252.893,347.981,593.220,89.400,-196.060
227,44674.177000,199.002,15.059,126.976,344.601,-247.279,354.068,555.220,42.400,-182.060
228,44674.218000,208.829,0.000,128.000,346.668,-235.208,361.291,439.220,-48.600,-89.060
229,44674.269000,236.345,11.043,124.928,348.587,-233.331,362.328,314.220,-143.600,50.940
230,44674.291000,228.484,1.004,135.168,349.671,-223.241,362.545,147.220,-117.600,64.940
231,44674.319000,216.691,0.000,132.096,350.569,-226.873,363.463,29.220,45.400,41.940
232,44674.359000,218.656,13.051,146.432,348.673,-226.937,361.470,-48.780,154.400,-40.060
233,44674.401000,206.864,7.027,135.168,344.910,-225.954,367.453,-74.780,134.400,-59.060
234,44674.437000,225.536,10.039,123.904,342.077,-225.154,363.487,-165.780,21.400,-113.060
235,44674.476000,235.363,15.059,123.904,346.746,-229.672,363.398,-215.780,-43.600,-132.060
236,44674.497000,228.484,-2.008,125.952,348.588,-232.551,355.382,-279.780,-29.600,-119.060
237,44674.539000,225.536,0.000,120.832,347.538,-239.932,353.234,-341.780,-21.600,-58.060
238,44674.578000,216.691,-4.016,117.760,353.147,-244.516,349.167,-335.780,-50.600,-37.060
239,44674.623000,207.846,-13.051,115.712,352.139,-248.329,342.121,-310.780,-30.600,-24.060
240,44674.658000,203.916,-15.059,119.808,353.969,-252.885,342.027,-287.780,22.400,-13.060
241,44674.697000,207.846,-17.067,117.760,353.953,-253.840,340.018,-297.780,21.400,-15.060
242,44674.741000,205.881,-27.106,119.808,355.825,-254.829,335.026,-289.780,-16.600,-11.060
243,44674.761000,228.484,-32.125,128.000,352.845,-264.983,332.816,-238.780,7.400,-2.060
244,44674.801000,226.518,-33.129,130.048,350.019,-264.104,332.831,-208.780,41.400,-13.060
245,44674.842000,224.553,-35.137,134.144,349.052,-265.130,327.834,-189.780,63.400,-46.060
246,44674.876000,220.622,-29.114,128.000,348.029,-270.659,326.721,-145.780,10.400,-101.060
247,44674.922000,210.795,-26.102,122.880,356.633,-264.134,326.872,-113.780,-54.600,-154.060
248,44674.962000,221.605,-21.082,119.808,357.599,-262.348,323.928,-100.780,-58.600,-156.060
249,44674.981000,214.726,-15.059,115.712,359.403,-268.755,322.799,-100.780,-37.600,-159.060
250,44675.22000,211.777,-9.035,116.736,362.340,-261.408,321.965,-30.780,42.400,-146.060
251,44675.62000,207.846,-10.039,131.072,360.344,-268.801,319.816,-69.780,97.400,-104.060
252,44675.102000,212.760,-8.031,141.312,363.274,-262.312,321.948,41.220,140.400,-50.060
253,44675.137000,222.587,-22.086,149.504,364.269,-259.414,328.973,90.220,81.400,26.940
254,44675.187000,208.829,-21.082,141.312,359.488,-263.141,328.887,121.220,-24.600,99.940
255,44675.222000,222.587,-21.082,138.240,359.488,-263.141,328.887,122.220,-132.600,125.940
256,44675.246000,224.553,-21.082,135.168,359.511,-261.328,327.931,125.220,-142.600,78.940
257,44675.281000,222.587,-17.067,126.976,362.436,-254.897,327.077,160.220,-109.600,6.940
258,44675.321000,217.674,-21.082,128.000,361.509,-253.136,324.130,75.220,-66.600,-37.060
259,44675.361000,210.795,-24.094,121.856,365.287,-253.944,327.102,33.220,-82.600,-6.060
260,44675.401000,208.829,-25.098,120.832,365.246,-256.731,325.053,27.220,-120.600,48.940
261,44675.441000,219.639,-32.125,117.760,370.048,-251.230,322.193,69.220,-149.600,70.940
262,44675.461000,218.656,-33.129,114.688,366.248,-252.216,321.172,146.220,-136.600,67.940
263,44675.497000,222.587,-34.133,112.640,367.148,-255.829,323.086,284.220,-83.600,48.940
264,44675.559000,228.484,-28.110,108.544,371.099,-243.830,325.336,339.220,-79.600,1.940
265,44675.589000,229.466,-21.082,110.592,372.029,-245.553,330.274,334.220,-78.600,-51.060
266,44675.619000,225.536,-15.059,108.544,373.027,-241.856,331.349,364.220,-56.600,-78.060
267,44675.659000,220.622,-3.012,99.328,376.939,-232.625,332.546,331.220,-63.600,-104.060
268,44675.677000,223.570,-2.008,99.328,376.060,-227.998,335.627,286.220,-102.600,-119.060
269,44675.723000,227.501,-1.004,97.280,379.997,-216.935,336.863,267.220,-98.600,-107.060
270,44675.758000,230.449,1.004,93.184,385.794,-208.537,341.029,272.220,-80.600,-101.060
271,44675.799000,230.449,5.020,92.160,385.869,-203.040,341.146,329.220,-33.600,-122.060
272,44675.843000,231.432,6.024,92.160,388.850,-192.867,344.351,303.220,-7.600,-135.060
273,44675.882000,236.345,14.055,93.184,393.613,-190.894,348.378,311.220,15.400,-165.060
274,44675.918000,240.276,20.078,94.208,388.976,-184.465,352.487,281.220,61.400,-204.060
275,44675.937000,244.207,27.106,98.304,391.075,-169.704,356.783,260.220,78.400,-259.060
276,44675.977000,243.225,34.133,90.112,390.097,-172.407,359.708,120.220,38.400,-351.060
277,44676.21000,209.812,46.180,81.920,394.983,-161.292,362.935,21.220,30.400,-424.060
278,44676.61000,211.777,58.227,106.496,397.974,-150.241,364.170,2.220,138.400,-441.060
279,44676.103000,222.587,57.224,126.976,395.182,-147.413,370.193,-57.780,357.400,-305.060
280,44676.142000,225.536,59.231,141.312,383.962,-138.285,376.339,-58.780,423.400,-151.060
281,44676.162000,214.726,49.192,146.432,378.185,-146.449,384.114,-13.780,294.400,-23.060
282,44676.203000,207.846,46.180,147.456,372.607,-139.195,384.260,-31.780,121.400,39.940
283,44676.239000,207.846,48.188,144.384,372.608,-139.175,385.255,-62.780,-8.600,65.940
284,44676.291000,214.726,48.188,143.360,375.372,-144.635,385.143,-98.780,-24.600,41.940
285,44676.323000,213.743,32.125,125.952,374.349,-150.164,384.029,-88.780,-46.600,42.940
286,44676.364000,211.777,35.137,119.808,374.280,-154.822,379.951,-107.780,-51.600,60.940
287,44676.379000,217.674,34.133,120.832,374.205,-160.319,379.834,-155.780,-7.600,64.940
288,44676.431000,214.726,24.094,113.664,369.464,-161.259,381.796,-128.780,51.400,67.940
289,44676.459000,207.846,23.090,120.832,369.377,-167.672,381.660,-113.780,112.400,66.940
290,44676.499000,217.674,18.071,129.024,363.742,-164.160,377.748,-154.780,129.400,86.940
291,44676.539000,216.691,17.067,131.072,360.849,-168.681,382.620,-117.780,115.400,83.940
292,44676.580000,215.708,14.055,138.240,355.974,-179.659,386.358,-81.780,103.400,42.940
293,44676.621000,217.674,13.051,138.240,355.053,-177.839,386.395,-46.780,84.400,14.940
294,44676.640000,212.760,16.063,134.144,353.225,-173.264,387.485,-32.780,42.400,-32.060
295,44676.683000,216.691,18.071,137.216,353.173,-176.948,386.412,-30.780,24.400,-58.060
296,44676.720000,217.674,17.067,138.240,349.341,-180.623,388.317,-12.780,13.400,-55.060
297,44676.758000,217.674,15.059,139.264,354.224,-169.548,389.555,46.220,-2.600,-77.060
298,44676.798000,211.777,22.086,138.240,352.318,-170.508,388.537,78.220,-15.600,-91.060
299,44676.842000,210.795,21.082,136.192,356.947,-177.794,387.394,53.220,-38.600,-87.060
300,44676.859000,202.933,23.090,132.096,356.220,-162.155,391.704,26.220,-60.600,-60.060
301,44676.906000,201.950,21.082,136.192,359.835,-174.112,386.482,2.220,-47.600,-64.060
302,44676.944000,206.864,26.102,138.240,356.206,-163.090,390.690,26.220,-49.600,-82.060
303,44676.982000,206.864,24.094,136.192,359.017,-164.924,388.665,7.220,-55.600,-92.060
304,44677.19000,206.864,25.098,140.288,359.028,-164.027,387.690,-49.780,-58.600,-84.060
305,44677.69000,205.881,26.102,138.240,360.879,-166.790,385.645,-77.780,-24.600,-111.060
306,44677.103000,205.881,24.094,142.336,360.892,-165.874,385.664,-111.780,-9.600,-127.060
307,44677.119000,207.846,29.114,144.384,359.921,-167.719,385.623,-127.780,-2.600,-147.060
308,44677.162000,207.846,40.157,151.552,365.672,-162.166,384.755,-126.780,13.400,-202.060
309,44677.206000,199.985,35.137,151.552,361.897,-161.320,383.773,-196.780,-20.600,-166.060
310,44677.249000,202.933,37.145,161.792,360.884,-165.971,380.689,-245.780,-21.600,-86.060
311,44677.349000,201.950,32.125,162.816,366.474,-172.309,380.562,-220.780,-48.600,-73.060
312,44677.405000,199.002,34.133,158.720,365.558,-169.651,376.639,-168.780,-129.600,-73.060
313,44677.412000,200.967,35.137,147.456,371.146,-175.249,367.576,-197.780,-246.600,-84.060
314,44677.429000,204.898,37.145,137.216,373.054,-173.509,361.648,-238.780,-275.600,-66.060
315,44677.462000,214.726,30.118,126.976,383.375,-179.024,353.589,-252.780,-261.600,-19.060
316,44677.479000,214.726,23.090,114.688,385.284,-177.264,348.656,-262.780,-224.600,-5.060
317,44677.522000,225.536,22.086,112.640,388.958,-184.680,341.541,-277.780,-159.600,0.940
318,44677.563000,230.449,35.137,106.496,387.961,-187.597,333.521,-318.780,-58.600,3.940
319,44677.569000,231.432,26.102,110.592,389.797,-192.075,337.407,-298.780,51.400,-57.060
320,44677.609000,229.466,19.075,112.640,393.554,-193.896,335.384,-244.780,77.400,-113.060
321,44677.643000,218.656,30.118,115.712,389.755,-194.882,334.363,-202.780,103.400,-125.060
322,44677.684000,210.795,28.110,121.856,390.733,-192.959,338.384,-232.780,140.400,-91.060
323,44677.719000,209.812,26.102,119.808,384.900,-204.086,335.154,-254.780,161.400,-76.060
324,44677.759000,210.795,25.098,122.880,384.991,-197.634,337.281,-220.780,160.400,-83.060
325,44677.782000,205.881,25.098,135.168,384.853,-207.711,337.066,-217.780,168.400,-89.060
326,44677.831000,202.933,26.102,145.408,380.148,-205.922,338.092,-150.780,192.400,-71.060
327,44677.859000,196.054,24.094,151.552,381.114,-204.916,342.094,-165.780,192.400,-65.060
328,44677.899000,203.916,21.082,161.792,379.171,-208.605,342.012,-176.780,135.400,-62.060
329,44677.939000,200.967,19.075,155.648,376.297,-211.371,342.944,-162.780,-15.600,-66.060
330,44677.982000,200.967,29.114,146.432,380.086,-210.503,337.995,-209.780,-127.600,-63.060
331,44678.19000,208.829,20.078,135.168,385.727,-212.397,331.000,-306.780,-231.600,-67.060
332,44678.39000,215.708,16.063,126.976,392.288,-216.130,322.973,-289.780,-250.600,-107.060
333,44678.86000,210.795,12.047,119.808,394.172,-216.202,318.001,-212.780,-217.600,-158.060
334,44678.148000,222.587,18.071,116.736,398.907,-214.561,305.113,-206.780,-200.600,-186.060
335,44678.164000,232.415,11.043,116.736,399.775,-220.085,303.008,-320.780,-195.600,-192.060
336,44678.204000,232.415,1.004,122.880,406.414,-218.282,297.088,-329.780,-142.600,-185.060
337,44678.244000,249.121,-8.031,131.072,411.180,-215.510,295.165,-182.780,-37.600,-172.060
338,44678.264000,212.760,-18.071,136.192,411.232,-211.826,296.238,-2.780,79.400,-104.060
339,44678.313000,222.587,0.000,145.408,408.355,-214.612,296.174,202.220,155.400,-11.060
340,44678.343000,211.777,15.059,135.168,406.494,-212.727,300.190,256.220,85.400,-37.060
341,44678.389000,203.916,24.094,132.096,406.653,-201.636,305.400,271.220,18.400,-73.060
342,44678.424000,203.916,30.118,133.120,413.291,-200.612,306.426,264.220,-39.600,-49.060
343,44678.466000,202.933,36.141,125.952,411.552,-189.605,308.647,250.220,-74.600,-30.060
344,44678.481000,201.950,38.149,118.784,413.457,-188.664,308.670,241.220,-107.600,-25.060
345,44678.522000,203.916,45.176,117.760,416.308,-187.710,308.694,202.220,-117.600,-32.060
346,44678.561000,210.795,43.169,116.736,412.525,-187.740,309.683,187.220,-100.600,-18.060
347,44678.599000,213.743,42.165,118.784,416.374,-183.090,310.782,76.220,-63.600,15.940
348,44678.639000,214.726,42.165,122.880,416.347,-184.942,309.748,78.220,-39.600,32.940
349,44678.692000,221.605,39.153,124.928,418.258,-183.163,305.810,82.220,-70.600,72.940
350,44678.719000,241.259,39.153,119.808,417.251,-187.737,306.706,52.220,-119.600,96.940
351,44678.739000,237.328,37.145,121.856,422.860,-192.320,302.638,55.220,-89.600,129.940
352,44678.792000,217.674,31.122,115.712,418.146,-191.408,305.634,95.220,-41.600,173.940
353,44678.823000,224.553,41.161,114.688,419.178,-185.002,304.778,107.220,-1.600,147.940
354,44678.862000,229.466,42.165,116.736,412.509,-188.696,307.673,113.220,15.400,101.940
355,44678.909000,210.795,36.141,115.712,414.405,-188.632,309.666,94.220,16.400,63.940
356,44678.941000,207.846,37.145,112.640,413.449,-189.521,311.635,81.220,28.400,47.940
357,44678.964000,217.674,31.122,114.688,410.623,-188.643,311.650,22.220,15.400,83.940
358,44679.7000,214.726,24.094,110.592,410.546,-194.159,310.538,-1.780,9.400,86.940
359,44679.41000,217.674,32.125,109.568,413.428,-191.314,313.586,7.220,40.400,63.940
360,44679.99000,215.708,30.118,109.568,413.387,-194.102,311.538,-75.780,62.400,9.940
361,44679.127000,212.760,31.122,106.496,406.718,-197.795,314.433,-122.780,72.400,-55.060
362,44679.167000,218.656,28.110,112.640,405.790,-196.054,310.490,-196.780,104.400,-101.060
363,44679.187000,231.432,33.129,122.880,399.078,-202.554,310.342,-349.780,119.400,-31.060
364,44679.223000,244.207,18.071,129.024,402.712,-213.517,309.120,-581.780,85.400,36.940
365,44679.261000,244.207,2.008,132.096,401.685,-219.085,306.016,-485.780,13.400,78.940
366,44679.313000,234.380,2.008,132.096,396.920,-221.077,300.993,-357.780,-29.600,110.940
367,44679.351000,203.916,2.008,122.880,399.617,-231.176,297.798,-359.780,-41.600,187.940
368,44679.391000,199.985,-4.016,135.168,394.743,-241.374,294.590,-374.780,50.400,271.940
369,44679.427000,209.812,-7.027,143.360,390.867,-247.876,292.457,-186.780,121.400,274.940
370,44679.481000,217.674,-11.043,141.312,383.073,-264.447,293.087,-58.780,139.400,245.940
371,44679.497000,208.829,-2.008,137.216,382.110,-266.194,298.022,32.220,36.400,179.940
372,44679.520000,211.777,-3.012,135.168,381.246,-259.853,295.171,1.220,-23.600,135.940
373,44679.572000,215.708,-12.047,136.192,379.330,-261.690,296.124,20.220,-43.600,137.940
374,44679.606000,215.708,-13.051,134.144,376.424,-266.367,293.036,45.220,-26.600,132.940
375,44679.640000,213.743,-14.055,126.976,378.252,-270.942,291.947,51.220,-44.600,117.940
376,44679.677000,211.777,-14.055,122.880,379.123,-276.427,291.832,87.220,-55.600,102.940
377,44679.701000,221.605,-9.035,125.952,376.429,-266.309,296.021,113.220,-37.600,97.940
378,44679.748000,222.587,-7.027,123.904,378.284,-269.032,295.966,63.220,-35.600,93.940
379,44679.791000,217.674,-8.031,120.832,375.432,-269.986,295.942,14.220,-24.600,100.940
380,44679.820000,221.605,-14.055,120.832,372.553,-273.570,301.829,-0.780,-26.600,122.940
381,44679.860000,217.674,-14.055,116.736,373.466,-275.488,296.816,25.220,-27.600,129.940
382,44679.883000,222.587,-14.055,114.688,370.552,-281.022,296.694,31.220,-22.600,128.940
383,44679.926000,232.415,-17.067,126.976,369.654,-277.390,295.776,29.220,2.400,126.940
384,44679.967000,218.656,-17.067,121.856,365.815,-281.923,300.647,106.220,28.400,112.940
385,44680.5000,213.743,-19.075,122.880,366.816,-278.187,303.712,131.220,45.400,92.940
386,44680.44000,214.726,-16.063,130.048,361.148,-277.385,301.731,224.220,63.400,64.940
387,44680.86000,213.743,-19.075,129.024,363.000,-280.907,307.627,222.220,59.400,60.940
388,44680.124000,213.743,-14.055,134.144,359.227,-280.821,314.585,212.220,57.400,47.940
389,44680.146000,212.760,-13.051,136.192,359.335,-273.394,319.717,250.220,49.400,15.940
390,44680.187000,212.760,-10.039,140.288,360.427,-263.207,324.908,247.220,33.400,-1.060
391,44680.226000,213.743,-10.039,138.240,357.579,-264.121,326.874,254.220,19.400,-14.060
392,44680.267000,208.829,-5.020,132.096,360.509,-257.632,329.006,285.220,-4.600,-22.060
393,44680.304000,214.726,0.000,129.024,358.684,-253.018,332.085,303.220,-15.600,-13.060
394,44680.348000,222.587,3.012,128.000,360.596,-251.998,336.088,276.220,-23.600,18.940
395,44680.377000,222.587,7.027,124.928,355.899,-250.112,342.089,255.220,-10.600,39.940
396,44680.405000,230.449,8.031,124.928,357.793,-250.067,343.087,227.220,10.400,71.940
397,44680.443000,232.415,11.043,131.072,357.852,-246.305,348.141,114.220,59.400,98.940
398,44680.482000,225.536,21.082,130.048,353.139,-245.373,352.132,75.220,90.400,59.940
399,44680.528000,212.760,22.086,149.504,348.372,-248.165,353.060,-25.780,144.400,14.940
400,44680.564000,201.950,24.094,158.720,347.413,-249.093,353.039,-121.780,182.400,-68.060
401,44680.583000,197.036,4.016,164.864,349.320,-248.133,354.057,-192.780,107.400,-82.060
402,44680.626000,189.175,-8.031,164.864,347.376,-251.842,352.981,-172.780,-15.600,-11.060
403,44680.686000,189.175,-10.039,155.648,352.020,-258.192,352.852,-166.780,-103.600,24.940
404,44680.703000,198.019,-5.020,153.600,348.212,-259.275,346.856,10.220,-139.600,-25.060
405,44680.744000,201.950,-10.039,149.504,356.882,-248.130,349.095,162.220,-143.600,-96.060
406,44680.786000,205.881,-1.004,140.288,358.773,-248.125,348.103,141.220,-157.600,-83.060
407,44680.825000,201.950,10.039,132.096,361.669,-243.565,345.221,70.220,-148.600,-87.060
408,44680.846000,202.933,-2.008,130.048,366.433,-240.813,342.303,-70.780,-86.600,-24.060
409,44680.887000,207.846,-4.016,124.928,368.114,-256.362,341.974,-65.780,-86.600,28.940
410,44680.937000,211.777,-10.039,125.952,366.363,-245.491,337.230,-42.780,-61.600,58.940
411,44680.963000,220.622,-17.067,132.096,365.374,-248.310,334.184,80.220,-28.600,81.940
412,44681.4000,214.726,-14.055,129.024,365.354,-250.084,337.130,157.220,-37.600,107.940
413,44681.43000,215.708,-14.055,133.120,361.663,-243.643,341.241,209.220,-26.600,107.940
414,44681.64000,212.760,-13.051,126.976,361.614,-247.288,342.158,276.220,-35.600,105.940
415,44681.104000,214.726,-10.039,124.928,361.732,-238.984,345.318,274.220,-59.600,114.940
416,44681.143000,225.536,-10.039,129.024,361.787,-235.261,348.382,255.220,-42.600,115.940
417,44681.182000,225.536,-9.035,129.024,362.732,-235.268,347.388,303.220,-25.600,117.940
418,44681.222000,211.777,-10.039,119.808,356.080,-237.987,353.288,271.220,-69.600,133.940
419,44681.262000,212.760,1.004,116.736,360.885,-232.447,352.419,331.220,-114.600,119.940
420,44681.287000,220.622,9.035,121.856,360.963,-226.912,354.526,303.220,-129.600,84.940
421,44681.328000,211.777,11.043,118.784,364.832,-220.488,352.679,254.220,-158.600,50.940
422,44681.363000,229.466,15.059,108.544,369.582,-219.450,355.692,139.220,-210.600,51.940
423,44681.404000,268.775,24.094,114.688,367.671,-220.450,352.684,92.220,-193.600,53.940
424,44681.453000,267.793,17.067,96.256,375.224,-221.325,349.693,51.220,-167.600,77.940
425,44681.488000,236.345,40.157,97.280,375.174,-224.989,349.615,40.220,-33.600,11.940
426,44681.533000,232.415,31.122,108.544,370.434,-225.929,351.577,-60.780,121.400,-81.060
427,44681.546000,229.466,15.059,116.736,369.537,-222.277,351.653,-198.780,161.400,-10.060
428,44681.592000,211.777,10.039,111.616,370.421,-226.845,351.557,-168.780,144.400,73.940
429,44681.629000,210.795,2.008,119.808,364.586,-238.771,354.279,-201.780,99.400,136.940
430,44681.664000,217.674,-7.027,118.784,360.786,-239.757,353.258,-146.780,58.400,165.940
431,44681.707000,208.829,-10.039,114.688,358.867,-241.634,352.220,-67.780,41.400,129.940
432,44681.744000,206.864,-14.055,120.832,351.259,-244.482,352.148,-104.780,54.400,120.940
433,44681.763000,199.985,-9.035,124.928,355.959,-246.330,348.137,-176.780,52.400,97.940
434,44681.805000,190.157,-13.051,131.072,350.145,-256.463,348.908,-128.780,74.400,5.940
435,44681.843000,237.328,-27.106,145.408,346.346,-257.449,347.887,-128.780,54.400,5.940
436,44681.884000,221.605,-18.071,140.288,352.027,-257.335,349.887,-10.780,-5.600,-26.060
437,44681.928000,220.622,-21.082,134.144,350.076,-261.122,344.830,-91.780,-32.600,-63.060
438,44681.966000,219.639,-11.043,133.120,353.043,-251.884,347.020,-68.780,-11.600,-122.060
439,44681.987000,220.622,-20.078,126.976,352.967,-257.400,345.908,8.220,23.400,-182.060
440,44682.28000,223.570,-16.063,123.904,353.117,-246.406,346.142,39.220,-10.600,-163.060
441,44682.65000,205.881,-13.051,116.736,361.685,-242.610,347.230,52.220,-74.600,-114.060
442,44682.104000,219.639,-6.024,110.592,359.841,-238.990,346.310,85.220,-136.600,-88.060
443,44682.143000,212.760,-5.020,101.376,362.675,-239.011,343.330,93.220,-153.600,-94.060
444,44682.189000,207.846,-3.012,101.376,366.546,-232.568,342.478,108.220,-113.600,-108.060
445,44682.223000,216.691,0.000,98.304,371.256,-234.298,344.438,153.220,-73.600,-115.060
446,44682.243000,220.622,-2.008,99.328,372.300,-226.976,343.600,124.220,-88.600,-99.060
447,44682.294000,223.570,-5.020,99.328,372.272,-228.847,341.571,149.220,-124.600,-50.060
448,44682.353000,250.104,4.016,108.544,377.107,-221.417,343.726,227.220,-89.600,-71.060
449,44682.369000,272.706,9.035,113.664,381.036,-211.211,347.927,285.220,-46.600,-120.060
450,44682.403000,251.086,26.102,107.520,379.186,-208.429,350.968,346.220,4.400,-240.060
451,44682.443000,213.743,50.196,90.112,382.193,-196.424,354.212,328.220,-32.600,-358.060
452,44682.463000,212.760,54.212,92.160,388.017,-185.394,352.466,237.220,-16.600,-430.060
453,44682.506000,222.587,51.200,107.520,390.965,-177.930,357.602,182.220,65.400,-286.060
454,44682.564000,223.570,55.216,116.736,387.213,-176.050,362.610,132.220,136.400,-138.060
455,44682.587000,218.656,41.161,122.880,388.305,-165.863,367.801,141.220,132.400,41.940
456,44682.627000,214.726,35.137,119.808,379.740,-169.620,368.703,104.220,60.400,148.940
457,44682.665000,234.380,31.122,119.808,379.768,-167.749,370.733,94.220,-16.600,201.940
458,44682.692000,232.415,33.129,118.784,377.860,-168.729,368.720,123.220,-18.600,136.940
459,44682.727000,223.570,36.141,114.688,374.017,-173.301,371.600,150.220,37.400,44.940
460,44682.764000,220.622,34.133,112.640,370.249,-172.376,374.598,36.220,96.400,15.940
461,44682.804000,220.622,28.110,118.784,368.360,-172.362,376.585,-24.780,119.400,48.940
462,44682.847000,226.518,23.090,120.832,364.619,-169.586,380.617,-58.780,174.400,53.940
463,44682.887000,226.518,21.082,126.976,358.871,-175.099,383.475,-48.780,191.400,106.940
464,44682.928000,222.587,15.059,126.976,355.993,-177.905,382.417,-72.780,161.400,151.940
465,44682.948000,216.691,12.047,131.072,350.282,-180.669,385.333,-24.780,116.400,140.940
466,44682.987000,213.743,12.047,131.072,348.391,-180.675,386.325,7.220,81.400,119.940
467,44683.27000,218.656,11.043,131.072,340.751,-186.213,389.180,14.220,57.400,97.940
468,44683.68000,218.656,11.043,129.024,342.627,-187.923,394.120,104.220,58.400,44.940
469,44683.109000,210.795,17.067,128.000,340.736,-187.928,395.111,91.220,44.400,4.940
470,44683.144000,213.743,19.075,131.072,336.031,-186.139,396.137,59.220,42.400,-19.060
471,44683.164000,210.795,13.051,129.024,337.056,-180.591,398.246,75.220,24.400,-17.060
472,44683.204000,205.881,13.051,131.072,336.008,-187.952,397.093,32.220,6.400,2.940
473,44683.248000,210.795,16.063,132.096,337.082,-178.739,399.280,28.220,-4.600,6.940
474,44683.284000,215.708,19.075,136.192,336.102,-181.461,401.210,-36.780,2.400,-13.060
475,44683.327000,207.846,20.078,134.144,336.959,-187.881,400.080,-87.780,-33.600,-3.060
476,44683.367000,206.864,17.067,134.144,336.104,-180.662,395.259,-115.780,-68.600,-3.060
477,44683.387000,216.691,19.075,131.072,335.094,-185.274,394.165,-115.780,-73.600,-30.060
478,44683.432000,219.639,18.071,123.904,337.885,-188.882,395.087,-122.780,-67.600,-89.060
479,44683.477000,226.518,22.086,123.904,340.722,-188.864,394.097,-141.780,7.400,-138.060
480,44683.518000,218.656,21.082,121.856,339.747,-190.748,392.066,-185.780,32.400,-157.060
481,44683.547000,206.864,13.051,123.904,340.668,-192.568,392.029,-279.780,53.400,-169.060
482,44683.587000,207.846,15.059,123.904,341.635,-190.781,389.084,-268.780,38.400,-195.060
483,44683.627000,211.777,13.051,125.952,344.335,-200.841,387.879,-266.780,37.400,-213.060
484,44683.648000,216.691,6.024,135.168,340.633,-194.517,386.019,-188.780,94.400,-226.060
485,44683.684000,203.916,16.063,135.168,341.639,-189.963,384.128,-106.780,82.400,-241.060
486,44683.729000,202.933,25.098,151.552,343.510,-191.731,386.083,-11.780,162.400,-294.060
487,44683.768000,203.916,36.141,178.176,340.804,-182.510,391.248,-88.780,230.400,-249.060
488,44683.809000,199.985,48.188,184.320,333.241,-182.532,395.215,-65.780,215.400,-171.060
489,44683.844000,197.036,44.173,178.176,337.961,-183.366,396.199,-154.780,11.400,-86.060
490,44683.866000,204.898,34.133,155.648,339.833,-184.354,391.207,-170.780,-183.600,-10.060
491,44683.908000,202.933,31.122,132.096,346.383,-188.984,384.156,-202.780,-306.600,28.940
492,44683.948000,205.881,25.098,130.048,348.985,-205.574,376.844,-247.780,-283.600,19.940
493,44683.988000,207.846,26.102,120.832,352.909,-194.667,370.120,-156.780,-197.600,-32.060
494,44684.28000,203.916,34.133,116.736,360.298,-207.471,365.880,-113.780,-90.600,-121.060
495,44684.69000,206.864,34.133,116.736,360.396,-200.161,365.041,-194.780,-80.600,-133.060
496,44684.111000,217.674,33.129,123.904,364.119,-204.692,364.950,-267.780,-61.600,-142.060
497,44684.131000,228.484,34.133,135.168,362.204,-205.750,358.957,-217.780,23.400,-179.060
498,44684.171000,206.864,40.157,130.048,363.195,-202.131,356.051,-227.780,37.400,-190.060
499,44684.211000,208.829,33.129,137.216,363.179,-203.087,354.042,-298.780,21.400,-136.060
500,44684.250000,209.812,29.114,138.240,367.846,-207.624,352.957,-336.780,6.400,-78.060
501,44684.290000,210.795,29.114,132.096,365.931,-208.682,346.964,-291.780,-0.600,-86.060
502,44684.331000,216.691,31.122,134.144,367.735,-215.090,345.836,-313.780,-51.600,-92.060
503,44684.350000,210.795,26.102,126.976,368.530,-225.311,337.662,-367.780,-102.600,-55.060
504,44684.385000,212.760,23.090,120.832,374.141,-229.875,334.590,-351.780,-135.600,-52.060
505,44684.426000,211.777,16.063,110.592,376.075,-226.283,329.696,-280.780,-163.600,-75.060
506,44684.467000,223.570,20.078,114.688,377.893,-230.976,322.636,-294.780,-147.600,-55.060
507,44684.527000,231.432,15.059,115.712,380.686,-233.784,317.607,-431.780,-104.600,8.940
508,44684.550000,231.432,9.035,112.640,383.349,-245.812,309.398,-400.780,-69.600,16.940
509,44684.570000,243.225,1.004,133.120,379.533,-246.993,298.426,-419.780,-8.600,14.940
510,44684.609000,225.536,-10.039,134.144,376.712,-246.056,301.426,-223.780,33.400,58.940
511,44684.646000,195.071,-24.094,141.312,375.639,-255.249,300.234,-152.780,99.400,158.940
512,44684.686000,202.933,-20.078,148.480,369.932,-257.975,305.141,27.220,178.400,226.940
513,44684.727000,197.036,-15.059,143.360,365.175,-260.649,312.039,273.220,177.400,152.940
514,44684.768000,220.622,-2.008,148.480,363.328,-257.829,317.070,365.220,133.400,28.940
515,44684.809000,216.691,9.035,144.384,359.624,-252.304,321.161,388.220,10.400,-96.060
516,44684.829000,206.864,20.078,140.288,364.525,-240.253,325.403,330.220,-60.600,-118.060
517,44684.869000,197.036,23.090,132.096,366.444,-238.377,326.440,216.220,-124.600,-69.060
518,44684.907000,196.054,22.086,131.072,375.951,-234.665,322.555,172.220,-174.600,-2.060
519,44684.948000,196.054,21.082,126.976,375.992,-231.878,324.603,141.220,-210.600,1.940
520,44684.988000,230.449,27.106,124.928,376.894,-234.692,320.566,166.220,-223.600,-17.060
521,44685.29000,254.035,27.106,117.760,379.754,-232.861,318.620,206.220,-179.600,3.940
522,44685.51000,232.415,21.082,125.952,382.645,-229.139,319.698,140.220,-75.600,82.940
523,44685.90000,210.795,24.094,109.568,378.911,-225.505,320.765,149.220,-44.600,211.940
524,44685.132000,193.106,13.051,101.376,378.774,-235.583,320.550,128.220,-96.600,251.940
525,44685.165000,236.345,20.078,116.736,374.006,-238.374,321.478,176.220,-62.600,257.940
526,44685.206000,233.397,19.075,116.736,375.122,-226.374,325.714,319.220,32.400,160.940
527,44685.248000,223.570,21.082,111.616,372.240,-229.998,329.611,316.220,76.400,107.940
528,44685.277000,219.639,16.063,112.640,368.489,-228.098,335.614,187.220,78.400,122.940
529,44685.312000,204.898,19.075,109.568,368.489,-228.098,335.614,80.220,31.400,123.940
530,44685.352000,223.570,15.059,114.688,365.552,-235.446,336.448,0.220,34.400,100.940
531,44685.397000,226.518,11.043,112.640,361.744,-237.308,337.397,-146.780,64.400,80.940
532,44685.432000,230.449,6.024,116.736,362.701,-236.399,336.423,-228.780,69.400,56.940
533,44685.478000,239.294,4.016,118.784,360.691,-244.728,333.259,-252.780,38.400,6.940
534,44685.508000,236.345,1.004,113.664,362.608,-242.871,333.301,-245.780,-17.600,-33.060
535,44685.529000,226.518,-1.004,109.568,362.445,-254.020,325.107,-265.780,-29.600,1.940
536,44685.569000,224.553,-10.039,101.376,360.496,-257.788,321.045,-328.780,-20.600,117.940
537,44685.609000,216.691,-7.027,109.568,354.716,-265.212,319.884,-331.780,36.400,175.940
538,44685.649000,218.656,-12.047,119.808,353.770,-265.224,319.882,-186.780,153.400,212.940
539,44685.688000,224.553,-18.071,128.000,341.393,-270.883,319.744,-33.780,178.400,311.940
540,44685.727000,224.553,-14.055,132.096,339.435,-276.288,325.593,107.220,125.400,386.940
541,44685.749000,222.587,-15.059,125.952,329.863,-284.619,327.391,213.220,26.400,446.940
542,44685.807000,212.760,-10.039,113.664,325.200,-280.023,331.461,339.220,-78.600,479.940
543,44685.830000,229.466,-37.145,112.640,317.472,-291.974,334.179,322.220,-113.600,524.940
544,44685.877000,231.432,-47.184,115.712,307.034,-294.763,339.077,253.220,8.400,644.940
545,44685.913000,225.536,-46.180,116.736,299.470,-294.785,343.044,289.220,22.400,624.940
546,44685.949000,206.864,-42.165,120.832,296.604,-297.453,348.951,310.220,83.400,506.940
547,44685.968000,214.726,-48.188,133.120,286.193,-298.370,355.878,363.220,148.400,330.940
548,44686.12000,210.795,-39.153,136.192,273.969,-293.777,364.910,366.220,186.400,191.940
549,44686.50000,206.864,-25.098,143.360,273.106,-288.195,370.001,373.220,247.400,37.940
550,44686.90000,208.829,-19.075,149.504,267.487,-285.268,382.985,237.220,314.400,-112.060
551,44686.127000,211.777,-16.063,153.600,262.837,-279.755,387.074,177.220,307.400,-171.060
552,44686.167000,200.967,-3.012,156.672,260.057,-276.031,392.122,76.220,239.400,-248.060
553,44686.210000,194.088,-5.020,155.648,260.999,-276.837,397.080,18.220,196.400,-250.060
554,44686.229000,191.140,-2.008,151.552,261.127,-267.636,399.265,1.220,154.400,-208.060
555,44686.267000,195.071,4.016,155.648,256.351,-271.305,402.164,-9.780,142.400,-180.060
556,44686.308000,197.036,7.027,161.792,259.243,-267.564,404.237,23.220,143.400,-176.060
557,44686.349000,199.985,12.047,162.816,262.184,-260.178,405.393,25.220,114.400,-154.060
558,44686.390000,193.106,9.035,167.936,260.202,-266.635,404.258,-20.780,65.400,-104.060
559,44686.428000,194.088,7.027,180.224,261.187,-263.855,405.313,-38.780,58.400,-42.060
560,44686.450000,196.054,-2.008,178.176,259.284,-264.776,406.285,23.220,-8.600,0.940
561,44686.490000,196.054,-9.035,164.864,261.264,-258.338,406.425,-9.780,-115.600,41.940
562,44686.529000,192.123,-5.020,156.672,260.291,-260.203,405.390,-48.780,-212.600,64.940
563,44686.568000,201.950,-8.031,151.552,266.866,-263.000,398.377,-35.780,-242.600,52.940
564,44686.608000,199.002,-9.035,144.384,266.875,-262.123,396.407,52.220,-206.600,38.940
565,44686.649000,204.898,-13.051,143.360,270.646,-263.009,395.399,26.220,-146.600,48.940
566,44686.672000,201.950,-11.043,142.336,270.610,-265.738,396.335,91.220,-117.600,45.940
567,44686.717000,208.829,-14.055,153.600,270.596,-266.673,395.321,30.220,-70.600,54.940
568,44686.752000,206.864,-16.063,155.648,266.859,-263.078,394.397,89.220,-33.600,48.940
569,44686.792000,199.985,-17.067,152.576,270.591,-266.732,392.336,88.220,-59.600,41.940
570,44686.829000,196.054,-16.063,151.552,273.526,-260.184,397.453,90.220,-107.600,51.940
571,44686.889000,200.967,-17.067,150.528,276.283,-265.721,393.360,81.220,-173.600,64.940
572,44686.919000,203.916,-16.063,143.360,279.128,-264.846,389.405,76.220,-208.600,64.940
573,44686.937000,211.777,-19.075,135.168,282.054,-258.395,389.546,66.220,-205.600,65.940
574,44686.972000,213.743,-20.078,135.168,282.042,-259.311,389.527,44.220,-162.600,75.940
575,44687.10000,216.691,-22.086,124.928,281.078,-260.298,386.520,25.220,-158.600,72.940
576,44687.50000,217.674,-18.071,121.856,287.697,-260.269,383.547,59.220,-119.600,0.940
577,44687.89000,210.795,-22.086,123.904,291.486,-260.180,385.544,58.220,-39.600,-36.060
578,44687.133000,216.691,-24.094,125.952,288.598,-263.863,386.456,32.220,15.400,-30.060
579,44687.148000,210.795,-23.090,129.024,292.465,-258.238,390.560,17.220,21.400,-3.060
580,44687.193000,208.829,-27.106,130.048,290.571,-258.283,389.561,31.220,3.400,13.940
581,44687.229000,212.760,-27.106,132.096,289.698,-252.818,388.682,117.220,11.400,-2.060
582,44687.279000,202.933,-20.078,129.024,291.635,-249.966,392.724,234.220,3.400,-46.060
583,44687.308000,211.777,-17.067,132.096,291.626,-250.843,394.694,205.220,-13.600,-64.060
584,44687.352000,222.587,-5.020,131.072,290.815,-240.798,393.912,177.220,-7.600,-58.060
585,44687.369000,225.536,-6.024,134.144,292.765,-237.030,397.974,97.220,-10.600,-47.060
586,44687.409000,220.622,-8.031,134.144,292.766,-237.011,398.969,98.220,-21.600,-6.060
587,44687.453000,217.674,-4.016,132.096,291.779,-239.811,396.919,155.220,-62.600,22.940
588,44687.499000,202.933,0.000,126.976,294.745,-230.592,398.114,184.220,-114.600,55.940
589,44687.528000,213.743,0.000,123.904,296.628,-231.445,400.088,148.220,-174.600,100.940
590,44687.573000,230.449,5.020,123.904,300.462,-227.750,399.177,237.220,-134.600,99.940
591,44687.608000,252.069,15.059,124.928,299.515,-227.762,399.176,193.220,-70.600,97.940
592,44687.637000,233.397,36.141,124.928,299.478,-230.510,399.117,181.220,48.400,-11.060
593,44687.672000,231.432,38.149,129.024,297.775,-216.774,400.402,41.220,145.400,-119.060
594,44687.712000,222.587,10.039,136.192,295.753,-226.779,405.159,-210.780,146.400,-24.060
595,44687.750000,199.985,-1.004,132.096,291.046,-225.009,405.190,-253.780,81.400,80.940
596,44687.789000,201.950,-11.043,128.000,288.954,-238.913,397.928,-297.780,-0.600,123.940
597,44687.828000,207.846,-22.086,138.240,286.067,-242.595,398.840,-301.780,-19.600,126.940
598,44687.852000,204.898,-24.094,138.240,287.891,-247.229,394.766,-265.780,26.400,80.940
599,44687.893000,201.950,-25.098,139.264,285.941,-250.997,390.704,-266.780,5.400,8.940
600,44687.933000,202.933,-27.106,137.216,292.375,-264.690,388.433,-267.780,-61.600,-65.060
601,44687.978000,208.829,-28.110,134.144,291.511,-258.348,385.583,-250.780,-89.600,-91.060
602,44688.19000,209.812,-27.106,131.072,295.145,-268.532,377.414,-224.780,-129.600,-113.060
603,44688.58000,220.622,-23.090,132.096,297.906,-274.030,375.312,-181.780,-123.600,-162.060
604,44688.70000,237.328,-27.106,128.000,304.637,-265.756,372.514,-171.780,-93.600,-191.060
605,44688.110000,223.570,-29.114,125.952,310.227,-271.334,364.447,-169.780,-99.600,-187.060
606,44688.154000,217.674,-23.090,124.928,314.126,-263.019,365.624,-221.780,-83.600,-208.060
607,44688.189000,210.795,-26.102,119.808,317.891,-263.983,360.636,-211.780,-72.600,-206.060
608,44688.232000,213.743,-26.102,118.784,322.597,-265.753,360.605,-172.780,-26.600,-198.060
609,44688.270000,205.881,-19.075,121.856,320.766,-260.437,352.758,-96.780,17.400,-221.060
610,44688.310000,209.812,-15.059,126.976,323.612,-260.321,356.744,10.220,39.400,-241.060
611,44688.333000,212.760,-8.031,124.928,324.604,-257.463,361.779,53.220,5.400,-230.060
612,44688.373000,203.916,-2.008,118.784,335.044,-254.655,357.876,63.220,-40.600,-197.060
613,44688.409000,217.674,-2.008,116.736,333.247,-247.409,355.043,100.220,-72.600,-133.060
614,44688.449000,227.501,-4.016,116.736,336.990,-250.926,359.947,164.220,-68.600,-96.060
615,44688.494000,234.380,2.008,115.712,342.842,-238.045,359.235,251.220,-49.600,-70.060
616,44688.529000,231.432,2.008,114.688,340.961,-237.154,359.252,392.220,-54.600,-56.060
617,44688.552000,231.432,5.020,115.712,342.063,-226.089,362.473,430.220,-89.600,-64.060
618,44688.592000,241.259,14.055,116.736,342.210,-215.895,368.658,510.220,-146.600,-106.060
619,44688.630000,238.311,25.098,107.520,349.039,-201.091,371.967,614.220,-167.600,-159.060
620,44688.675000,242.242,55.216,100.352,353.006,-188.137,376.227,619.220,-156.600,-217.060
621,44688.722000,230.449,57.224,84.992,360.739,-176.127,376.494,351.220,-165.600,-221.060
622,44688.759000,224.553,46.180,80.896,360.793,-172.423,378.562,146.220,-104.600,-156.060
623,44688.773000,220.622,43.169,82.944,358.884,-173.403,376.549,9.220,47.400,20.940
624,44688.811000,230.449,41.161,91.136,358.923,-170.636,377.603,-87.780,221.400,67.940
625,44688.853000,226.518,35.137,107.520,353.220,-173.322,384.500,-36.780,291.400,82.940
626,44688.889000,218.656,25.098,113.664,347.554,-173.261,391.455,-0.780,328.400,83.940
627,44688.933000,221.605,28.110,121.856,335.169,-179.778,394.282,3.220,285.400,89.940
628,44688.970000,221.605,24.094,117.760,336.047,-185.184,398.147,-4.780,196.400,79.940
629,44689.13000,220.622,21.082,114.688,329.549,-176.091,399.325,41.220,122.400,39.940
630,44689.32000,222.587,23.090,114.688,325.680,-182.514,401.172,45.220,89.400,23.940
631,44689.74000,229.466,25.098,114.688,321.059,-175.131,407.290,67.220,109.400,2.940
632,44689.117000,229.466,24.094,119.808,318.173,-178.794,409.197,58.220,145.400,-17.060
633,44689.154000,220.622,18.071,130.048,312.511,-177.914,411.197,89.220,184.400,-14.060
634,44689.195000,209.812,16.063,131.072,307.794,-177.040,412.203,151.220,168.400,-2.060
635,44689.232000,215.708,27.106,140.288,307.894,-170.471,420.300,147.220,104.400,-49.060
636,44689.255000,214.726,28.110,138.240,306.041,-167.729,421.350,139.220,39.400,-111.060
637,44689.299000,208.829,27.106,138.240,303.252,-164.102,421.423,107.220,-0.600,-175.060
638,44689.332000,208.829,34.133,140.288,304.273,-158.592,421.542,95.220,-4.600,-203.060
639,44689.374000,206.864,44.173,140.288,306.114,-162.251,420.472,22.220,-14.600,-224.060
640,44689.410000,206.864,42.165,132.096,308.171,-150.297,421.725,35.220,-11.600,-255.060
641,44689.465000,201.950,53.208,123.904,307.211,-151.245,420.708,12.220,-43.600,-287.060
642,44689.474000,204.898,55.216,124.928,308.307,-140.239,420.944,-91.780,-20.600,-250.060
643,44689.512000,216.691,53.208,132.096,311.990,-147.538,419.800,-115.780,44.400,-149.060
644,44689.554000,211.777,45.176,128.000,306.352,-144.845,420.843,-146.780,77.400,-70.060
645,44689.594000,210.795,48.188,131.072,304.422,-147.618,420.781,-190.780,114.400,-64.060
646,44689.644000,205.881,40.157,137.216,301.544,-150.424,419.723,-191.780,129.400,-62.060
647,44689.672000,199.985,37.145,130.048,299.517,-160.487,421.495,-266.780,91.400,-85.060
648,44689.720000,199.985,42.165,133.120,292.925,-157.885,418.557,-338.780,87.400,-144.060
649,44689.733000,210.795,34.133,143.360,296.664,-161.460,420.475,-285.780,133.400,-136.060
650,44689.772000,199.985,19.075,146.432,292.777,-168.859,419.317,-214.780,207.400,-55.060
651,44689.814000,199.985,23.090,157.696,282.299,-174.415,423.162,-110.780,230.400,-29.060
652,44689.853000,196.054,16.063,169.984,284.218,-172.538,424.200,66.220,194.400,-30.060
653,44689.895000,185.244,26.102,164.864,279.603,-164.316,426.357,133.220,88.400,-40.060
654,44689.933000,187.209,33.129,167.936,280.516,-166.994,429.285,143.220,13.400,-93.060
655,44689.952000,186.226,38.149,176.128,278.750,-157.838,430.472,124.220,-33.600,-94.060
656,44689.994000,186.226,52.204,184.320,277.826,-156.057,428.520,77.220,-2.600,-78.060
657,44690.40000,199.002,68.267,198.656,278.765,-156.902,431.487,-5.780,21.400,-71.060
658,44690.73000,184.261,65.255,178.176,279.656,-160.613,428.425,-121.780,-94.600,-58.060
659,44690.115000,192.123,62.243,156.672,283.409,-162.473,424.413,-258.780,-245.600,-52.060
660,44690.153000,200.967,58.227,146.432,291.952,-159.749,417.521,-306.780,-381.600,-14.060
661,44690.173000,199.985,62.243,128.000,300.266,-173.554,408.288,-429.780,-397.600,42.940
662,44690.215000,208.829,46.180,120.832,308.646,-182.739,401.142,-496.780,-305.600,96.940
663,44690.257000,199.002,29.114,115.712,310.327,-197.509,393.868,-462.780,-221.600,101.940
664,44690.294000,206.864,26.102,122.880,311.160,-204.982,385.753,-303.780,-111.600,29.940
665,44690.333000,209.812,42.165,124.928,309.341,-199.530,384.872,-196.780,-27.600,19.940
666,44690.375000,208.829,33.129,130.048,310.149,-208.835,376.718,-330.780,10.400,8.940
667,44690.414000,193.106,18.071,126.976,306.289,-214.381,376.594,-242.780,-35.600,-4.060
668,44690.434000,198.019,25.098,141.312,310.072,-214.351,375.605,-152.780,-7.600,-23.060
669,44690.477000,207.846,29.114,147.456,309.064,-218.944,375.506,-173.780,50.400,-14.060
670,44690.518000,209.812,23.090,154.624,306.120,-226.369,372.360,-196.780,77.400,-29.060
671,44690.554000,205.881,26.102,154.624,311.844,-222.669,370.458,-180.780,12.400,-46.060
672,44690.597000,202.933,18.071,145.408,312.645,-232.831,365.270,-216.780,-127.600,-39.060
673,44690.632000,199.985,13.051,138.240,314.588,-228.362,358.405,-188.780,-278.600,-45.060
674,44690.662000,214.726,13.051,122.880,324.897,-234.794,350.326,-180.780,-400.600,-57.060
675,44690.694000,248.138,9.035,122.880,332.421,-237.540,345.306,-198.780,-393.600,-66.060
676,44690.737000,247.155,11.043,112.640,335.311,-233.058,338.443,-239.780,-296.600,-115.060
677,44690.773000,250.104,0.000,117.760,340.847,-242.340,328.307,-253.780,-220.600,-142.060
678,44690.815000,210.795,-9.035,108.544,343.699,-240.606,321.386,-252.780,-160.600,-59.060
679,44690.853000,199.002,-5.020,117.760,346.473,-245.189,319.303,-235.780,-27.600,65.940
680,44690.878000,209.812,-8.031,139.264,344.519,-249.775,320.197,-88.780,74.400,76.940
681,44690.933000,216.691,4.016,132.096,340.784,-246.160,320.269,111.220,85.400,18.940
682,44690.958000,223.570,8.031,122.880,341.815,-240.534,326.358,134.220,23.400,-103.060
683,44690.997000,222.587,13.051,126.976,342.710,-244.205,325.286,171.220,-32.600,-181.060
684,44691.33000,226.518,27.106,131.072,350.450,-232.118,329.534,165.220,-23.600,-221.060
685,44691.74000,218.656,33.129,125.952,349.452,-235.814,328.459,134.220,-54.600,-187.060
686,44691.125000,201.950,38.149,118.784,353.282,-232.158,325.558,35.220,-101.600,-152.060
687,44691.134000,195.071,42.165,113.664,358.149,-222.038,324.786,-51.780,-176.600,-100.060
688,44691.173000,215.708,39.153,117.760,362.819,-225.776,317.751,-115.780,-198.600,-65.060
689,44691.215000,237.328,38.149,115.712,364.755,-222.165,313.853,-77.780,-156.600,13.940
690,44691.253000,240.276,36.141,119.808,363.743,-226.797,311.763,-16.780,-136.600,106.940
691,44691.297000,222.587,33.129,114.688,363.657,-233.191,312.622,95.220,-154.600,233.940
692,44691.334000,220.622,29.114,98.304,361.750,-234.151,311.604,269.220,-173.600,370.940
693,44691.353000,208.829,34.133,95.232,361.757,-234.073,315.584,359.220,-112.600,387.940
694,44691.397000,228.484,29.114,113.664,354.232,-231.327,320.604,396.220,35.400,365.940
695,44691.437000,225.536,29.114,109.568,349.434,-236.789,325.454,413.220,150.400,328.940
696,44691.477000,222.587,22.086,111.616,344.748,-234.005,330.480,298.220,124.400,274.940
697,44691.514000,228.484,14.055,115.712,339.968,-237.713,331.388,56.220,80.400,267.940
698,44691.553000,216.691,9.035,118.784,333.271,-243.278,332.255,-60.780,56.400,250.940
699,44691.577000,220.622,-1.004,114.688,328.425,-251.605,331.076,-161.780,27.400,199.940
700,44691.615000,222.587,-4.016,110.592,328.436,-250.708,330.100,-222.780,-13.600,108.940
701,44691.652000,230.449,-4.016,110.592,330.263,-255.303,328.016,-209.780,-15.600,65.940
702,44691.695000,233.397,-9.035,114.688,331.063,-265.466,322.827,-304.780,19.400,59.940
703,44691.734000,233.397,-14.055,113.664,329.166,-265.549,319.839,-361.780,41.400,61.940
704,44691.782000,228.484,-25.098,125.952,327.157,-273.858,317.670,-318.780,64.400,56.940
705,44691.817000,221.605,-30.118,131.072,321.471,-274.031,312.685,-112.780,59.400,57.940
706,44691.837000,214.726,-25.098,152.576,322.422,-273.960,315.671,-7.780,108.400,18.940
707,44691.873000,211.777,-36.141,148.480,324.345,-272.044,318.699,161.220,119.400,-6.060
708,44691.918000,215.708,-25.098,129.024,321.579,-267.384,324.762,278.220,0.400,-68.060
709,44691.957000,208.829,-20.078,120.832,329.274,-258.122,324.970,310.220,-133.600,-187.060
710,44691.998000,202.933,-2.008,107.520,335.857,-261.602,329.879,266.220,-107.600,-336.060
711,44692.35000,230.449,2.008,123.904,337.040,-244.183,330.252,185.220,-8.600,-435.060
712,44692.59000,225.536,25.098,125.952,344.800,-230.321,331.553,200.220,80.400,-551.060
713,44692.102000,207.846,34.133,137.216,350.535,-226.504,335.621,-39.780,145.400,-632.060
714,44692.138000,183.278,37.145,146.432,357.257,-219.107,334.794,-216.780,125.400,-607.060
715,44692.177000,181.313,40.157,156.672,364.951,-209.865,334.007,-305.780,124.400,-570.060
716,44692.214000,170.503,38.149,168.960,365.917,-208.079,331.063,-384.780,75.400,-486.060
717,44692.258000,168.537,36.141,175.104,373.597,-199.772,329.262,-368.780,19.400,-449.060
718,44692.275000,163.624,45.176,166.912,376.441,-198.137,317.365,-459.780,-171.600,-428.060
719,44692.318000,155.762,63.247,157.696,390.605,-199.080,306.425,-584.780,-285.600,-525.060
720,44692.354000,161.658,63.247,158.720,401.006,-198.261,294.522,-737.780,-363.600,-603.060
721,44692.395000,182.296,73.286,178.176,412.416,-192.868,281.724,-774.780,-254.600,-635.060
722,44692.438000,175.417,73.286,178.176,418.991,-194.886,267.765,-934.780,-208.600,-524.060
723,44692.478000,165.589,61.239,167.936,429.401,-193.209,252.897,-1148.780,-263.600,-362.060
724,44692.515000,213.743,64.251,166.912,435.872,-201.835,228.852,-1229.780,-227.600,-322.060
725,44692.537000,243.225,66.259,168.960,442.468,-202.079,211.947,-1373.780,-59.600,-317.060
726,44692.578000,230.449,70.275,142.336,443.267,-212.261,205.764,-1692.780,298.400,-304.060
727,44692.615000,273.689,53.208,88.064,448.870,-216.143,190.770,-1900.780,386.400,-331.060
728,44692.659000,267.793,24.094,98.304,443.908,-231.995,179.484,-2007.780,552.400,-168.060
729,44692.693000,292.361,-25.098,114.688,438.986,-245.059,170.247,-1775.780,476.400,358.940
730,44692.735000,301.205,-58.227,102.400,430.260,-259.167,157.004,-1467.780,292.400,290.940
731,44692.755000,282.534,-60.235,131.072,432.951,-269.324,150.824,-937.780,307.400,67.940
732,44692.795000,265.827,-44.173,169.984,430.146,-267.432,155.833,-279.780,661.400,-68.060
733,44692.834000,189.175,-22.086,162.816,426.270,-275.473,168.587,-0.780,679.400,-133.060
734,44692.877000,154.779,-14.055,158.720,426.474,-261.536,178.830,82.220,342.400,-92.060
735,44692.914000,135.125,-25.098,143.360,424.526,-266.064,182.709,201.220,59.400,22.940
736,44692.957000,134.142,-17.067,123.904,427.462,-259.496,188.821,426.220,-116.600,109.940
737,44692.980000,153.797,-51.200,126.976,424.612,-260.430,189.792,558.220,-175.600,300.940
738,44693.18000,178.365,-53.208,116.736,422.742,-259.422,195.778,783.220,-162.600,444.940
739,44693.57000,167.555,-65.255,111.616,418.913,-263.838,206.620,1030.220,-135.600,484.940
740,44693.98000,174.434,-64.251,115.712,416.167,-258.164,217.677,1085.220,-49.600,558.940
741,44693.135000,156.745,-50.196,137.216,405.886,-250.641,234.731,1180.220,8.400,643.940
742,44693.178000,201.950,-32.125,149.504,401.217,-247.662,249.707,1354.220,139.400,655.940
743,44693.215000,231.432,59.231,200.704,391.910,-239.034,275.737,1500.220,357.400,528.940
744,44693.239000,237.328,77.302,193.536,381.732,-224.143,294.937,1147.220,429.400,341.940
745,44693.282000,256.983,89.349,209.920,376.193,-215.660,311.024,769.220,173.400,274.940
746,44693.319000,272.706,91.357,211.968,373.391,-213.729,318.023,625.220,56.400,273.940
747,44693.354000,279.585,75.294,200.704,373.433,-210.922,321.067,593.220,-120.600,232.940
748,44693.398000,188.192,65.255,156.672,375.489,-198.987,321.324,549.220,-298.600,240.940
749,44693.435000,177.382,45.176,122.880,379.194,-204.493,318.229,492.220,-489.600,388.940
750,44693.467000,181.313,49.192,83.968,386.703,-208.194,311.198,376.220,-691.600,445.940
751,44693.495000,200.967,42.165,87.040,389.548,-206.539,300.297,356.220,-616.600,353.940
752,44693.539000,203.916,34.133,86.016,391.398,-209.321,297.256,399.220,-440.600,250.940
753,44693.578000,223.570,37.145,98.304,395.348,-197.342,298.512,421.220,-201.600,120.940
754,44693.614000,204.898,33.129,104.448,396.269,-199.161,298.474,202.220,-97.600,-11.060
755,44693.658000,189.175,6.024,91.136,400.135,-192.776,294.638,-72.780,-129.600,-25.060
756,44693.695000,295.309,-3.012,147.456,398.094,-203.775,295.395,-226.780,32.400,49.940
757,44693.719000,247.155,2.008,137.216,391.563,-197.392,298.505,-43.780,126.400,85.940
758,44693.759000,220.622,-3.012,133.120,390.566,-201.069,298.425,115.220,-16.600,66.940
759,44693.795000,204.898,16.063,115.712,395.355,-196.484,295.546,202.220,-242.600,11.940
760,44693.835000,200.967,28.110,100.352,395.359,-195.665,290.590,164.220,-338.600,-70.060
761,44693.878000,212.760,14.055,103.424,402.986,-191.063,286.721,161.220,-225.600,11.940
762,44693.916000,233.397,24.094,111.616,399.154,-194.738,288.627,239.220,-69.600,76.940
763,44693.939000,207.846,23.090,117.760,401.145,-187.404,287.791,234.220,-42.600,161.940
764,44693.977000,212.760,18.071,156.672,401.106,-190.172,286.737,161.220,-73.600,258.940
765,44694.19000,213.743,1.004,146.432,394.394,-196.672,286.589,89.220,-190.600,427.940
766,44694.57000,197.036,6.024,140.288,397.153,-202.190,283.492,250.220,-369.600,423.940
767,44694.99000,254.035,30.118,151.552,396.099,-210.389,286.300,314.220,-237.600,280.940
768,44694.139000,241.259,9.035,143.360,391.372,-209.633,281.336,236.220,34.400,192.940
769,44694.155000,216.691,5.020,130.048,388.604,-204.992,286.403,117.220,80.400,186.940
770,44694.198000,206.864,-23.090,113.664,386.630,-211.352,290.244,-16.780,-2.600,270.940
771,44694.237000,212.760,-27.106,114.688,383.749,-214.197,287.195,126.220,-82.600,355.940
772,44694.280000,222.587,-44.173,132.096,381.822,-216.931,289.123,259.220,-39.600,337.940
773,44694.320000,211.777,-28.110,119.808,382.777,-216.821,294.100,433.220,-36.600,118.940
774,44694.358000,200.967,-24.094,104.448,382.817,-214.033,296.149,599.220,-178.600,-33.060
775,44694.397000,227.501,9.035,92.160,388.731,-196.571,295.535,616.220,-340.600,-132.060
776,44694.422000,247.155,7.027,107.520,395.446,-190.032,297.673,541.220,-243.600,-220.060
777,44694.458000,246.173,1.004,102.400,401.335,-174.402,297.020,386.220,-113.600,-152.060
778,44694.499000,215.708,34.133,101.376,404.154,-176.138,299.971,312.220,-39.600,-193.060
779,44694.537000,231.432,47.184,117.760,408.092,-165.056,302.202,279.220,97.400,-321.060
780,44694.575000,216.691,41.161,107.520,405.412,-154.002,307.406,26.220,84.400,-280.060
781,44694.617000,224.553,40.157,108.544,408.296,-150.359,304.504,-4.780,-3.600,-156.060
782,44694.654000,222.587,41.161,104.448,413.027,-150.296,304.512,115.220,-51.600,-139.060
783,44694.675000,212.760,39.153,94.208,413.163,-140.238,303.732,216.220,-111.600,-125.060
784,44694.717000,221.605,43.169,87.040,413.172,-139.361,301.761,205.220,-137.600,-70.060
785,44694.778000,224.553,33.129,80.896,413.149,-141.174,302.717,169.220,-123.600,0.940
786,44694.798000,227.501,30.118,73.728,415.162,-132.046,299.931,222.220,-73.600,78.940
787,44694.839000,244.207,29.114,79.872,417.965,-134.737,300.872,246.220,-22.600,59.940
788,44694.864000,254.035,31.122,77.824,418.061,-128.227,305.984,322.220,14.400,38.940
789,44694.895000,253.052,40.157,82.944,413.316,-129.206,305.956,309.220,99.400,-30.060
790,44694.943000,257.965,55.216,84.992,414.398,-119.915,312.124,280.220,117.400,-137.060
791,44694.977000,229.466,65.255,66.560,416.406,-111.605,314.293,75.220,71.400,-283.060
792,44695.15000,224.553,60.235,75.776,412.723,-104.307,315.437,-149.780,98.400,-395.060
793,44695.55000,228.484,52.204,84.992,413.712,-101.487,318.483,-265.780,153.400,-325.060
794,44695.98000,224.553,52.204,96.256,409.930,-101.498,320.466,-297.780,235.400,-302.060
795,44695.118000,223.570,53.208,101.376,411.854,-99.563,324.489,-279.780,241.400,-311.060
796,44695.158000,220.622,51.200,114.688,408.967,-103.246,325.401,-224.780,192.400,-307.060
797,44695.195000,225.536,60.235,124.928,407.167,-96.799,328.519,-137.780,116.400,-348.060
798,44695.240000,243.225,64.251,128.000,409.143,-90.400,326.669,-183.780,17.400,-354.060
799,44695.279000,246.173,62.243,132.096,413.716,-102.208,328.414,-296.780,-49.600,-326.060
800,44695.320000,242.242,59.231,141.312,416.601,-98.545,326.507,-298.780,-17.600,-256.060
801,44695.339000,230.449,59.231,142.336,414.734,-96.738,326.542,-248.780,-15.600,-206.060
802,44695.378000,187.209,61.239,133.120,417.608,-93.972,325.611,-157.780,-124.600,-340.060
803,44695.419000,169.520,98.384,114.688,425.325,-82.157,315.927,-276.780,-206.600,-575.060
804,44695.457000,184.261,99.388,112.640,430.105,-78.450,315.019,-417.780,-255.600,-671.060
805,44695.495000,190.157,101.396,110.592,435.880,-70.305,306.249,-515.780,-221.600,-644.060
806,44695.539000,200.967,107.420,123.904,440.694,-63.888,303.408,-406.780,-123.600,-559.060
807,44695.559000,191.140,103.404,129.024,442.482,-71.251,300.271,-420.780,-19.600,-447.060
808,44695.595000,193.106,97.380,137.216,439.744,-63.940,301.417,-442.780,118.400,-232.060
809,44695.637000,196.054,96.376,151.552,437.782,-69.403,304.281,-342.780,165.400,-117.060
810,44695.682000,188.192,91.357,150.528,437.719,-73.984,304.184,-310.780,106.400,-39.060
811,44695.719000,172.468,84.329,150.528,434.846,-76.730,306.110,-385.780,25.400,54.940
812,44695.772000,192.123,72.282,152.576,435.562,-93.267,302.776,-360.780,-40.600,146.940
813,44695.799000,191.140,78.306,144.384,433.643,-95.144,301.738,-251.780,-44.600,135.940
814,44695.819000,186.226,74.290,146.432,425.932,-105.360,299.520,-280.780,-13.600,132.940
815,44695.857000,190.157,65.255,145.408,430.637,-107.149,298.494,-251.780,-34.600,204.940
816,44695.909000,199.985,61.239,144.384,429.553,-117.239,298.278,-216.780,-62.600,238.940
817,44695.937000,191.140,57.224,137.216,429.420,-126.498,293.108,-225.780,-90.600,237.940
818,44695.978000,219.639,36.141,144.384,425.462,-138.575,286.877,-221.780,-49.600,284.940
819,44696.29000,212.760,47.184,137.216,423.532,-141.349,286.815,-87.780,-16.600,257.940
820,44696.47000,215.708,43.169,138.240,424.469,-142.213,288.787,-95.780,12.400,157.940
821,44696.80000,202.933,47.184,136.192,423.344,-155.091,286.522,-130.780,-65.600,119.940
822,44696.122000,205.881,52.204,141.312,425.232,-155.124,283.540,-158.780,-73.600,91.940
823,44696.162000,212.760,55.216,148.480,421.357,-161.607,282.402,-105.780,-61.600,151.940
824,44696.203000,209.812,65.255,146.432,421.297,-165.388,276.354,-71.780,-69.600,202.940
825,44696.238000,203.916,65.255,150.528,422.170,-170.853,277.233,-60.780,-99.600,333.940
826,44696.257000,204.898,61.239,147.456,415.304,-188.406,273.866,-11.780,-147.600,555.940
827,44696.298000,204.898,57.224,146.432,410.394,-201.333,271.594,63.220,-125.600,635.940
828,44696.345000,217.674,32.125,135.168,406.484,-210.544,271.392,121.220,-100.600,689.940
829,44696.380000,203.916,20.078,110.592,399.701,-221.723,266.171,48.220,-158.600,730.940
830,44696.418000,203.916,-14.055,117.760,393.839,-235.501,267.858,-87.780,-104.600,742.940
831,44696.460000,215.708,-37.145,123.904,384.105,-254.962,262.457,-191.780,-86.600,759.940
832,44696.483000,211.777,-52.204,114.688,372.574,-267.938,262.163,-64.780,-25.600,664.940
833,44696.525000,217.674,-52.204,116.736,370.642,-270.731,261.106,-18.780,-43.600,466.940
834,44696.561000,220.622,-51.200,107.520,369.560,-280.802,261.885,25.220,-56.600,117.940
835,44696.598000,232.415,-49.192,117.760,368.636,-279.021,259.932,5.220,-3.600,-21.060
836,44696.659000,229.466,-35.137,120.832,363.104,-268.921,265.112,165.220,126.400,-111.060
837,44696.679000,218.656,-22.086,132.096,369.719,-269.710,267.095,-53.780,176.400,-174.060
838,44696.720000,211.777,-24.094,137.216,366.958,-264.212,269.197,-56.780,160.400,-212.060
839,44696.740000,199.985,-14.055,134.144,372.714,-258.601,271.314,47.220,41.400,-293.060
840,44696.779000,201.950,-2.008,133.120,373.720,-254.047,269.423,95.220,-70.600,-345.060
841,44696.817000,193.106,2.008,122.880,381.317,-252.095,270.471,132.220,-161.600,-345.060
842,44696.857000,203.916,10.039,122.880,389.084,-237.376,268.806,241.220,-173.600,-312.060
843,44696.898000,210.795,17.067,124.928,394.835,-231.824,267.938,269.220,-153.600,-315.060
844,44696.945000,236.345,19.075,123.904,400.715,-217.071,269.255,209.220,-156.600,-291.060
845,44696.967000,258.948,10.039,119.808,404.538,-214.273,269.321,161.220,-162.600,-259.060
846,44697.0,250.104,17.067,109.568,408.423,-206.894,269.483,110.220,-125.600,-253.060
847,44697.39000,234.380,19.075,114.688,412.276,-201.425,265.627,-27.780,38.400,-191.060
848,44697.82000,232.415,16.063,126.976,411.301,-204.088,270.542,-14.780,140.400,-132.060
849,44697.119000,199.002,30.118,122.880,409.533,-194.952,270.734,101.220,169.400,-101.060
850,44697.159000,190.157,34.133,124.928,414.301,-192.921,277.747,82.220,86.400,-99.060
851,44697.183000,201.950,33.129,124.928,414.323,-191.127,275.796,104.220,14.400,-77.060
852,44697.222000,200.967,38.149,122.880,412.398,-193.842,278.719,151.220,-32.600,-80.060
853,44697.263000,205.881,44.173,128.000,415.389,-182.792,279.953,212.220,-16.600,-100.060
854,44697.300000,214.726,50.196,126.976,416.238,-190.069,281.789,178.220,-25.600,-119.060
855,44697.340000,206.864,54.212,124.928,415.401,-181.876,279.973,159.220,-53.600,-124.060
856,44697.382000,203.916,54.212,123.904,419.311,-172.664,280.174,46.220,-110.600,-37.060
857,44697.420000,220.622,53.208,120.832,420.164,-179.143,276.059,5.220,-155.600,18.940
858,44697.439000,253.052,52.204,119.808,424.993,-171.771,275.229,19.220,-157.600,25.940
859,44697.482000,228.484,51.200,97.280,424.835,-182.862,270.019,65.220,-186.600,110.940
860,44697.519000,222.587,53.208,95.232,422.132,-172.841,269.234,74.220,-166.600,155.940
861,44697.559000,244.207,45.176,107.520,422.082,-176.506,269.156,90.220,-33.600,174.940
862,44697.599000,228.484,41.161,99.328,422.994,-179.203,271.089,140.220,37.400,190.940
863,44697.639000,208.829,45.176,88.064,418.208,-183.748,275.958,91.220,64.400,142.940
864,44697.663000,217.674,37.145,103.424,413.452,-185.643,275.911,41.220,87.400,129.940
865,44697.710000,219.639,30.118,102.400,410.493,-194.783,278.696,-8.780,118.400,136.940
866,44697.745000,215.708,28.110,113.664,408.564,-197.537,279.629,-85.780,175.400,116.940
867,44697.780000,217.674,24.094,115.712,403.838,-197.541,282.606,-199.780,160.400,117.940
868,44697.824000,216.691,19.075,115.712,400.921,-203.115,280.494,-299.780,106.400,68.940
869,44697.860000,222.587,20.078,113.664,401.842,-204.934,280.456,-291.780,61.400,-20.060
870,44697.880000,240.276,24.094,111.616,402.667,-213.265,275.307,-339.780,25.400,-75.060
871,44697.918000,239.294,18.071,114.688,405.544,-210.479,275.371,-409.780,39.400,-84.060
872,44697.963000,247.155,6.024,118.784,401.691,-215.168,272.281,-481.780,84.400,-33.060
873,44698.3000,229.466,-3.012,118.784,399.663,-224.471,266.112,-485.780,114.400,89.940
874,44698.39000,206.864,-6.024,117.760,397.637,-234.535,267.885,-348.780,98.400,213.940
875,44698.88000,206.864,-6.024,118.784,391.852,-242.017,263.738,-256.780,70.400,239.940
876,44698.123000,209.812,-7.027,119.808,389.936,-243.855,264.691,-80.780,75.400,215.940
877,44698.143000,213.743,-13.051,129.024,387.997,-247.505,266.600,-16.780,108.400,185.940
878,44698.187000,223.570,-6.024,136.192,384.092,-256.658,269.383,90.220,137.400,120.940
879,44698.224000,216.691,-1.004,134.144,381.311,-252.933,274.431,101.220,105.400,45.940
880,44698.259000,213.743,0.000,135.168,377.448,-259.279,280.258,39.220,53.400,33.940
881,44698.304000,210.795,0.000,133.120,380.291,-258.423,275.308,-43.780,7.400,53.940
882,44698.348000,210.795,-4.016,133.120,378.388,-259.345,276.280,-151.780,18.400,81.940
883,44698.363000,217.674,-4.016,134.144,375.571,-257.589,274.324,-183.780,14.400,94.940
884,44698.403000,220.622,0.000,138.240,376.401,-265.861,272.160,-164.780,10.400,72.940
885,44698.443000,225.536,-4.016,138.240,375.403,-269.557,271.085,-186.780,-9.600,72.940
886,44698.479000,216.691,-6.024,136.192,370.587,-275.234,264.989,-154.780,-23.600,77.940
887,44698.522000,211.777,-5.020,136.192,373.447,-273.403,263.043,-97.780,-56.600,76.940
888,44698.559000,204.898,-7.027,124.928,372.404,-280.706,264.875,-40.780,-54.600,70.940
889,44698.602000,220.622,-5.020,123.904,374.335,-277.153,257.991,-20.780,-44.600,63.940
890,44698.625000,217.674,-2.008,128.000,371.353,-288.106,261.732,43.220,7.400,63.940
891,44698.662000,218.656,-5.020,138.240,371.365,-287.190,261.752,-46.780,58.400,82.940
892,44698.704000,219.639,-10.039,132.096,368.569,-284.420,264.791,-32.780,57.400,161.940
893,44698.739000,219.639,-14.055,130.048,366.528,-295.419,265.548,-11.780,24.400,216.940
894,44698.784000,206.864,-11.043,128.000,359.982,-289.971,267.644,5.220,18.400,235.940
895,44698.819000,214.726,-8.031,140.288,354.115,-303.807,266.346,20.220,99.400,218.940
896,44698.843000,216.691,-11.043,141.312,354.127,-303.671,273.311,67.220,145.400,225.940
897,44698.882000,214.726,0.000,140.288,348.427,-305.539,275.252,157.220,183.400,212.940
898,44698.945000,206.864,1.004,139.264,341.829,-304.554,283.221,196.220,215.400,214.940
899,44698.962000,206.864,1.004,136.192,333.277,-308.156,292.083,230.220,223.400,230.940
900,44699.3000,196.054,2.008,145.408,323.854,-306.273,301.061,131.220,285.400,313.940
901,44699.44000,189.175,-2.008,150.528,320.956,-310.852,302.948,84.220,322.400,374.940
902,44699.64000,183.278,-22.086,169.984,301.915,-320.146,308.690,-28.780,346.400,453.940
903,44699.104000,172.468,-55.216,180.224,293.292,-328.426,312.480,-48.780,231.400,544.940
904,44699.143000,166.572,-57.224,199.680,280.909,-334.923,316.302,-52.780,152.400,512.940
905,44699.187000,179.347,-72.282,203.776,271.355,-341.500,314.158,-45.780,55.400,349.940
906,44699.227000,167.555,-87.341,195.584,270.392,-342.487,311.152,19.220,-127.600,200.940
907,44699.262000,166.572,-71.278,182.272,273.221,-343.327,313.128,81.220,-247.600,-6.060
908,44699.282000,180.330,-70.275,164.864,278.937,-339.724,306.250,193.220,-368.600,-225.060
909,44699.344000,194.088,-58.227,152.576,288.488,-333.186,306.404,274.220,-366.600,-286.060
910,44699.359000,205.881,-37.145,149.504,300.834,-330.197,310.464,384.220,-290.600,-320.060
911,44699.408000,188.192,-33.129,142.336,308.617,-314.523,310.809,246.220,-128.600,-243.060
912,44699.444000,191.140,-33.129,161.792,306.828,-307.180,312.952,144.220,-32.600,-200.060
913,44699.479000,215.708,-31.122,153.600,313.449,-307.131,310.974,133.220,-130.600,-214.060
914,44699.520000,199.985,-10.039,128.000,323.969,-298.768,310.173,154.220,-264.600,-281.060
915,44699.540000,213.743,-23.090,131.072,332.454,-300.566,306.168,-2.780,-266.600,-270.060
916,44699.583000,208.829,-32.125,131.072,334.417,-295.103,303.304,-137.780,-119.600,-135.060
917,44699.624000,204.898,-31.122,131.072,336.353,-291.491,299.405,-61.780,-40.600,-58.060
918,44699.664000,193.106,-37.145,132.096,340.035,-298.809,297.265,32.220,-55.600,-20.060
919,44699.702000,199.002,-34.133,134.144,336.394,-288.704,301.453,161.220,-103.600,-3.060
920,44699.745000,213.743,-27.106,139.264,339.272,-285.898,302.512,242.220,-116.600,-36.060
921,44699.764000,225.536,-19.075,138.240,347.873,-280.172,308.614,313.220,-113.600,-96.060
922,44699.800000,225.536,-13.051,134.144,351.675,-279.167,310.631,329.220,-125.600,-118.060
923,44699.843000,222.587,-5.020,133.120,354.632,-270.046,306.851,332.220,-168.600,-120.060
924,44699.905000,213.743,-2.008,123.904,359.404,-267.196,308.908,359.220,-231.600,-102.060
925,44699.925000,216.691,7.027,116.736,364.323,-253.392,309.209,412.220,-248.600,-63.060
926,44699.962000,237.328,25.098,107.520,369.978,-255.129,310.175,402.220,-258.600,-54.060
927,44699.983000,251.086,26.102,113.664,375.782,-245.873,311.375,323.220,-140.600,-56.060
928,44700.20000,254.035,54.212,105.472,376.809,-240.305,314.479,224.220,-75.600,-50.060
929,44700.60000,227.501,48.188,107.520,380.644,-236.591,314.564,109.220,9.400,-127.060
930,44700.105000,212.760,30.118,119.808,374.929,-239.414,314.495,-100.780,51.400,-28.060
931,44700.147000,204.898,21.082,120.832,375.823,-243.086,313.424,-197.780,48.400,98.940
932,44700.194000,204.898,11.043,111.616,374.869,-243.196,308.447,-221.780,-37.600,146.940
933,44700.222000,213.743,-4.016,116.736,368.163,-248.858,304.338,-240.780,-59.600,161.940
934,44700.242000,210.795,-20.078,114.688,369.911,-258.989,300.146,-278.780,-54.600,177.940
935,44700.280000,210.795,-27.106,114.688,366.026,-266.368,299.983,-273.780,-71.600,188.940
936,44700.323000,221.605,-31.122,117.760,366.881,-272.047,289.917,-236.780,-74.600,164.940
937,44700.367000,212.760,-32.125,112.640,366.868,-272.964,289.898,-142.780,-91.600,67.940
938,44700.404000,215.708,-35.137,126.976,366.807,-277.525,290.795,-57.780,-66.600,28.940
939,44700.442000,233.397,-23.090,119.808,368.745,-273.894,287.892,94.220,-103.600,-59.060
940,44700.465000,228.484,-23.090,122.880,370.620,-274.843,284.890,70.220,-159.600,-133.060
941,44700.503000,244.207,-20.078,118.784,375.477,-265.620,285.094,53.220,-150.600,-148.060
942,44700.545000,230.449,-19.075,108.544,379.188,-270.287,278.037,-32.780,-108.600,-213.060
943,44700.583000,231.432,-11.043,115.712,385.017,-259.199,279.277,-77.780,-26.600,-271.060
944,44700.625000,229.466,-10.039,107.520,388.876,-253.671,278.405,-94.780,23.400,-314.060
945,44700.665000,210.795,-2.008,101.376,392.686,-251.789,278.451,-120.780,-30.600,-302.060
946,44700.687000,222.587,1.004,102.400,393.616,-252.732,276.443,-126.780,-48.600,-295.060
947,44700.727000,218.656,5.020,103.424,401.255,-247.213,272.593,-134.780,-34.600,-272.060
948,44700.762000,228.484,11.043,106.496,404.153,-242.634,270.706,-36.780,17.400,-261.060
949,44700.802000,228.484,6.024,100.352,403.225,-241.672,273.709,58.220,33.400,-215.060
950,44700.844000,226.518,12.047,101.376,407.077,-236.983,276.798,155.220,19.400,-112.060
951,44700.884000,230.449,19.075,103.424,410.962,-229.603,276.961,271.220,-0.600,-68.060
952,44700.924000,233.397,25.098,91.136,408.301,-217.556,286.165,392.220,-33.600,-73.060
953,44700.945000,233.397,30.118,84.992,412.088,-217.486,287.167,385.220,-72.600,-112.060
954,44700.983000,242.242,37.145,86.016,414.096,-209.177,289.336,331.220,-38.600,-170.060
955,44701.29000,239.294,45.176,80.896,415.189,-198.989,294.528,263.220,9.400,-267.060
956,44701.65000,227.501,56.220,75.776,418.188,-187.062,293.791,137.220,61.400,-325.060
957,44701.102000,225.536,54.212,88.064,417.217,-188.906,293.751,-100.780,124.400,-358.060
958,44701.147000,233.397,48.188,98.304,416.329,-185.157,298.802,-281.780,251.400,-330.060
959,44701.167000,217.674,29.114,109.568,413.545,-181.471,301.860,-237.780,295.400,-288.060
960,44701.203000,217.674,16.063,107.520,411.508,-192.431,304.608,-358.780,284.400,-253.060
961,44701.243000,235.363,42.165,125.952,414.608,-173.934,311.969,-84.780,308.400,-360.060
962,44701.285000,232.415,37.145,135.168,411.748,-175.765,313.915,-69.780,224.400,-340.060
963,44701.324000,226.518,43.169,138.240,410.880,-170.242,316.020,30.220,135.400,-245.060
964,44701.363000,223.570,59.231,145.408,407.256,-159.162,323.213,105.220,125.400,-214.060
965,44701.383000,204.898,48.188,145.408,408.242,-156.381,324.269,113.220,100.400,-150.060
966,44701.423000,193.106,54.212,146.432,405.434,-154.508,328.283,231.220,73.400,-11.060
967,44701.463000,185.244,53.208,151.552,405.416,-156.263,332.224,246.220,50.400,96.940
968,44701.507000,183.278,46.180,149.504,402.643,-151.680,334.307,237.220,15.400,202.940
969,44701.543000,189.175,51.200,149.504,398.763,-159.001,337.129,281.220,-36.600,221.940
970,44701.587000,206.864,50.196,151.552,398.871,-151.574,342.261,314.220,-31.600,186.940
971,44701.624000,209.812,41.161,152.576,397.848,-157.103,341.147,223.220,-74.600,170.940
972,44701.645000,205.881,44.173,142.336,403.585,-152.486,339.264,108.220,-155.600,159.940
973,44701.688000,208.829,37.145,141.312,401.598,-159.002,335.144,27.220,-170.600,97.940
974,44701.725000,202.933,30.118,128.000,405.368,-159.908,333.141,60.220,-170.600,31.940
975,44701.763000,199.002,45.176,119.808,407.362,-152.534,334.296,58.220,-158.600,-75.060
976,44701.803000,209.812,61.239,121.856,410.244,-148.910,330.398,44.220,-109.600,-210.060
977,44701.847000,209.812,60.235,117.760,412.233,-141.595,328.568,-19.780,-77.600,-224.060
978,44701.865000,208.829,62.243,120.832,416.960,-141.591,325.591,-52.780,-70.600,-216.060
979,44701.903000,205.881,63.247,129.024,417.945,-138.811,326.646,-54.780,-26.600,-130.060
980,44701.947000,214.726,61.239,130.048,418.729,-150.708,326.394,-76.780,-38.600,-49.060
981,44701.987000,204.898,63.247,120.832,422.683,-137.910,322.694,-57.780,-96.600,-44.060
982,44702.24000,211.777,70.275,121.856,422.555,-147.110,320.509,-63.780,-163.600,-112.060
983,44702.67000,212.760,79.310,114.688,429.324,-136.088,317.769,-95.780,-182.600,-157.060
984,44702.90000,210.795,85.333,106.496,428.392,-134.385,311.836,-170.780,-193.600,-206.060
985,44702.127000,212.760,92.361,101.376,433.061,-138.143,303.806,-278.780,-181.600,-183.060
986,44702.165000,215.708,83.325,102.400,434.970,-136.384,298.873,-345.780,-137.600,-92.060
987,44702.204000,218.656,78.306,101.376,439.557,-146.477,294.687,-393.780,-87.600,44.940
988,44702.248000,223.570,73.286,112.640,435.772,-146.527,294.680,-334.780,5.400,118.940
989,44702.285000,222.587,62.243,111.616,432.773,-157.675,288.470,-333.780,34.400,182.940
990,44702.324000,224.553,51.200,104.448,427.977,-162.338,287.369,-349.780,9.400,225.940
991,44702.348000,228.484,47.184,102.400,426.751,-182.564,283.953,-387.780,-19.600,245.940
992,44702.385000,225.536,34.133,103.424,425.748,-186.319,279.893,-384.780,-15.600,231.940
993,44702.425000,223.570,22.086,102.400,420.790,-202.891,278.539,-324.780,36.400,171.940
994,44702.465000,221.605,23.090,103.424,423.640,-201.957,277.568,-218.780,79.400,107.940
995,44702.508000,218.656,24.094,113.664,419.881,-200.155,278.596,-214.780,88.400,63.940
996,44702.545000,214.726,29.114,116.736,418.780,-211.220,275.374,-184.780,84.400,18.940
997,44702.577000,215.708,28.110,120.832,416.926,-208.477,276.425,-209.780,57.400,-25.060
998,44702.604000,219.639,30.118,128.000,416.895,-210.387,272.406,-199.780,15.400,-49.060
999,44702.643000,227.501,26.102,130.048,418.741,-213.988,274.321,-155.780,-15.600,-59.060
1000,44702.687000,223.570,24.094,122.880,418.723,-214.962,271.316,-105.780,-120.600,-68.060
1001,44702.728000,220.622,21.082,113.664,423.471,-213.165,266.388,-83.780,-213.600,-90.060
1002,44702.765000,226.518,23.090,104.448,425.302,-216.941,259.348,-72.780,-268.600,-130.060
1003,44702.784000,230.449,23.090,102.400,429.190,-208.763,253.560,-99.780,-259.600,-113.060
1004,44702.824000,231.432,26.102,91.136,431.110,-206.107,247.652,-70.780,-235.600,-66.060
1005,44702.865000,225.536,27.106,87.040,433.808,-216.186,245.452,-89.780,-174.600,-11.060
1006,44702.908000,236.345,21.082,86.016,432.971,-207.992,243.636,83.220,-6.600,32.940
1007,44702.950000,233.397,7.027,97.280,434.805,-212.509,245.532,290.220,5.400,36.940
1008,44702.988000,233.397,13.051,96.256,430.247,-200.525,252.742,877.220,-104.600,20.940
1009,44703.27000,234.380,26.102,91.136,435.169,-187.461,261.979,1145.220,-146.600,32.940
1010,44703.50000,228.484,42.165,81.920,435.313,-177.306,266.174,1263.220,-160.600,102.940
1011,44703.88000,223.570,54.212,75.776,431.694,-166.167,276.352,1104.220,-180.600,212.940
1012,44703.125000,227.501,59.231,72.704,429.887,-160.578,282.437,992.220,-125.600,263.940
1013,44703.165000,228.484,53.208,76.800,429.933,-157.732,287.470,834.220,-91.600,327.940
1014,44703.207000,227.501,50.196,78.848,428.112,-153.059,293.535,655.220,-39.600,342.940
1015,44703.250000,234.380,56.220,66.560,428.161,-149.414,292.618,599.220,-118.600,284.940
1016,44703.264000,242.242,58.227,71.680,422.466,-151.224,297.544,641.220,-108.600,178.940
1017,44703.307000,268.775,50.196,78.848,425.421,-142.902,299.715,517.220,-92.600,226.940
1018,44703.349000,287.447,60.235,87.040,418.816,-141.995,303.703,440.220,-44.600,230.940
1019,44703.393000,242.242,57.224,99.328,413.086,-146.534,309.566,226.220,95.400,293.940
1020,44703.425000,223.570,40.157,107.520,414.024,-147.379,312.533,161.220,143.400,338.940
1021,44703.472000,215.708,47.184,92.160,412.073,-151.946,314.422,121.220,-83.600,294.940
1022,44703.505000,217.674,47.184,87.040,408.203,-158.370,316.269,57.220,-161.600,230.940
1023,44703.525000,221.605,33.129,88.064,411.908,-163.875,313.174,55.220,-133.600,181.940
1024,44703.570000,238.311,42.165,88.064,409.920,-170.410,308.058,73.220,-138.600,126.940
1025,44703.608000,231.432,39.153,81.920,410.918,-166.714,309.133,188.220,-78.600,51.940
1026,44703.645000,236.345,45.176,86.016,413.773,-165.721,311.148,239.220,-60.600,3.940
1027,44703.689000,235.363,46.180,79.872,414.822,-158.341,313.296,270.220,-95.600,-2.060
1028,44703.727000,235.363,45.176,75.776,416.823,-150.129,310.489,324.220,-112.600,40.940
1029,44703.748000,235.363,41.161,67.584,413.974,-151.044,312.455,323.220,-144.600,133.940
1030,44703.785000,239.294,37.145,61.440,415.933,-146.399,314.546,279.220,-138.600,176.940
1031,44703.834000,241.259,33.129,59.392,410.241,-147.410,313.522,261.220,-98.600,177.940
1032,44703.867000,242.242,25.098,57.344,412.121,-148.301,313.505,285.220,-50.600,155.940
1033,44703.909000,238.311,25.098,55.296,411.167,-149.171,316.469,293.220,-8.600,122.940
1034,44703.948000,238.311,24.094,54.272,413.190,-139.926,319.653,334.220,11.400,59.940
1035,44703.967000,246.173,26.102,58.368,410.342,-140.841,321.619,366.220,11.400,25.940
1036,44704.8000,243.225,28.110,55.296,411.431,-130.692,324.820,373.220,17.400,24.940
1037,44704.48000,242.242,32.125,55.296,409.545,-130.639,328.797,342.220,31.400,29.940
1038,44704.84000,244.207,31.122,54.272,406.786,-125.121,331.894,321.220,36.400,35.940
1039,44704.125000,240.276,30.118,57.344,407.840,-117.682,337.027,281.220,35.400,46.940
1040,44704.174000,240.276,29.114,57.344,404.064,-116.855,335.050,254.220,12.400,46.940
1041,44704.189000,244.207,31.122,55.296,404.994,-118.577,339.988,260.220,-10.600,56.940
1042,44704.229000,244.207,27.106,52.224,400.300,-115.891,340.038,264.220,-13.600,81.940
1043,44704.270000,249.121,28.110,60.416,403.208,-111.195,344.121,272.220,6.400,87.940
1044,44704.307000,252.069,28.110,58.368,398.428,-114.902,345.030,301.220,6.400,97.940
1045,44704.348000,256.000,28.110,58.368,400.472,-103.864,346.262,316.220,6.400,122.940
1046,44704.388000,256.983,34.133,61.440,401.438,-102.858,350.264,330.220,27.400,123.940
1047,44704.429000,250.104,33.129,62.464,394.815,-102.926,351.247,319.220,29.400,142.940
1048,44704.450000,249.121,34.133,62.464,395.857,-96.403,356.361,270.220,7.400,166.940
1049,44704.485000,249.121,31.122,59.392,395.722,-106.461,357.141,244.220,-10.600,176.940
1050,44704.530000,241.259,29.114,57.344,397.743,-97.235,359.330,222.220,-32.600,170.940
1051,44704.574000,228.484,30.118,48.128,394.991,-90.860,359.461,206.220,-54.600,174.940
1052,44704.608000,226.518,26.102,46.080,392.954,-101.820,362.209,148.220,-58.600,181.940
1053,44704.648000,232.415,25.098,46.080,394.919,-96.318,361.334,93.220,-30.600,174.940
1054,44704.670000,238.311,20.078,50.176,393.005,-98.136,363.282,113.220,15.400,156.940
1055,44704.707000,241.259,24.094,54.272,389.202,-99.940,367.216,108.220,16.400,132.940
1056,44704.747000,240.276,24.094,53.248,389.209,-99.082,364.251,134.220,10.400,103.940
1057,44704.787000,241.259,28.110,52.224,388.338,-93.598,364.366,161.220,2.400,73.940
1058,44704.827000,240.276,29.114,52.224,385.441,-98.158,367.249,162.220,-16.600,47.940
1059,44704.869000,238.311,29.114,50.176,387.432,-90.823,366.413,140.220,4.400,61.940
1060,44704.908000,242.242,29.114,49.152,382.634,-96.285,371.263,160.220,15.400,78.940
1061,44704.928000,250.104,32.125,51.200,383.655,-90.776,371.382,198.220,48.400,47.940
1062,44704.968000,256.983,36.141,54.272,383.770,-82.511,372.553,207.220,86.400,19.940
1063,44705.19000,255.017,38.149,54.272,378.082,-84.242,381.459,269.220,127.400,-35.060
1064,44705.47000,240.276,29.114,53.248,375.379,-74.222,380.674,390.220,211.400,-31.060
1065,44705.99000,229.466,14.055,63.488,371.777,-61.349,385.915,502.220,150.400,-70.060
1066,44705.128000,236.345,32.125,59.392,372.903,-48.452,389.176,828.220,-10.600,-114.060
1067,44705.148000,241.259,49.192,52.224,370.307,-31.024,392.527,836.220,-10.600,-151.060
1068,44705.190000,243.225,61.239,48.128,366.702,-18.190,395.778,811.220,16.400,-193.060
1069,44705.229000,244.207,69.271,47.104,367.948,3.810,396.248,642.220,66.400,-222.060
1070,44705.272000,241.259,69.271,50.176,364.253,10.212,398.368,437.220,118.400,-191.060
1071,44705.309000,241.259,70.275,54.272,363.445,20.277,398.581,182.220,86.400,-121.060
1072,44705.352000,240.276,68.267,52.224,363.440,19.458,403.537,76.220,103.400,-64.060
1073,44705.372000,246.173,61.239,57.344,363.516,24.955,403.654,-5.780,39.400,-41.060
1074,44705.408000,242.242,56.220,57.344,361.484,14.833,402.441,-35.780,-4.600,-12.060
1075,44705.454000,240.276,53.208,56.320,357.749,18.448,402.513,-62.780,2.400,-3.060
1076,44705.489000,236.345,48.188,56.320,359.652,19.369,401.540,-94.780,-8.600,-5.060
1077,44705.528000,240.276,47.184,54.272,360.641,22.189,404.586,-69.780,-26.600,-6.060
1078,44705.569000,235.363,41.161,52.224,361.535,18.517,403.514,-77.780,-1.600,13.940
1079,44705.609000,234.380,42.165,60.416,363.381,14.917,405.430,-73.780,20.400,7.940
1080,44705.630000,232.415,41.161,63.488,360.562,16.653,402.479,-74.780,29.400,-14.060
1081,44705.665000,233.397,39.153,61.440,358.603,11.229,407.333,-41.780,22.400,-37.060
1082,44705.712000,240.276,40.157,64.512,359.521,9.370,405.306,-31.780,38.400,-54.060
1083,44705.747000,240.276,43.169,66.560,354.800,10.204,404.322,-17.780,27.400,-70.060
1084,44705.788000,231.432,41.161,66.560,361.512,16.704,404.470,8.220,8.400,-67.060
1085,44705.847000,235.363,46.180,62.464,359.568,12.995,403.394,-32.780,-18.600,-43.060
1086,44705.855000,239.294,43.169,62.464,359.602,15.705,401.462,-74.780,-23.600,-20.060
1087,44705.898000,248.138,43.169,60.416,357.713,15.719,403.449,-90.780,-13.600,-10.060
1088,44705.943000,253.052,42.165,61.440,359.555,12.079,403.374,-71.780,-0.600,-14.060
1089,44705.970000,255.017,42.165,60.416,356.704,11.126,403.350,-55.780,4.400,-14.060
1090,44706.13000,258.948,43.169,61.440,357.647,11.099,401.361,-41.780,11.400,-17.060
1091,44706.48000,249.121,46.180,58.368,352.815,3.708,401.197,-31.780,4.400,-26.060
1092,44706.73000,242.242,46.180,55.296,358.545,7.467,402.280,-49.780,-2.600,-23.060
1093,44706.112000,236.345,48.188,57.344,359.514,9.292,401.326,-53.780,-2.600,-23.060
1094,44706.147000,235.363,48.188,56.320,353.774,4.636,401.218,-35.780,-15.600,-29.060
1095,44706.188000,237.328,46.180,54.272,355.692,6.493,401.260,-80.780,4.400,10.940
1096,44706.233000,242.242,45.176,59.392,355.551,-3.623,399.056,-84.780,24.400,47.940
1097,44706.287000,244.207,44.173,59.392,357.513,1.061,403.137,-59.780,19.400,62.940
1098,44706.312000,243.225,41.161,62.464,353.631,-6.279,404.964,-68.780,28.400,79.940
1099,44706.333000,241.259,39.153,63.488,358.361,-6.236,403.977,-53.780,9.400,74.940
1100,44706.375000,239.294,40.157,59.392,355.509,-7.190,403.953,-16.780,-7.600,50.940
1101,44706.414000,239.294,41.161,59.392,356.429,-9.029,402.920,-38.780,1.400,33.940
1102,44706.449000,240.276,40.157,63.488,355.422,-13.603,403.816,-28.780,-1.600,17.940
1103,44706.488000,241.259,41.161,61.440,353.632,-6.260,405.959,-29.780,-7.600,17.940
1104,44706.530000,241.259,42.165,61.440,359.266,-9.011,401.930,-41.780,-0.600,24.940
1105,44706.549000,240.276,40.157,64.512,354.524,-9.970,402.898,-45.780,0.400,32.940
1106,44706.588000,240.276,39.153,62.464,355.481,-9.061,401.924,-55.780,-4.600,36.940
1107,44706.629000,239.294,39.153,63.488,354.436,-16.383,402.761,-49.780,0.400,36.940
1108,44706.672000,240.276,39.153,64.512,353.485,-16.454,399.774,-52.780,-0.600,32.940
1109,44706.710000,241.259,38.149,63.488,356.336,-15.501,399.799,-56.780,-8.600,32.940
1110,44706.747000,242.242,36.141,66.560,354.411,-18.216,402.722,-60.780,-7.600,32.940
1111,44706.768000,242.242,36.141,62.464,355.318,-20.971,401.670,-45.780,-5.600,38.940
1112,44706.812000,241.259,35.137,64.512,355.229,-27.403,400.538,-34.780,-9.600,44.940
1113,44706.852000,241.259,34.133,62.464,355.231,-27.384,401.533,-18.780,-9.600,39.940
1114,44706.889000,240.276,34.133,63.488,355.270,-24.616,402.587,-24.780,-2.600,26.940
1115,44706.932000,241.259,32.125,62.464,355.263,-24.694,398.607,-16.780,0.400,27.940
1116,44706.975000,242.242,35.137,62.464,354.359,-21.900,401.649,5.220,-1.600,12.940
1117,44707.15000,242.242,33.129,62.464,354.359,-21.900,401.649,0.220,-2.600,7.940
1118,44707.29000,243.225,35.137,62.464,356.243,-22.752,403.623,-9.780,1.400,6.940
1119,44707.72000,242.242,34.133,62.464,354.306,-25.603,399.581,8.220,-4.600,5.940
1120,44707.112000,241.259,34.133,60.416,354.338,-23.693,403.600,-4.780,-5.600,10.940
1121,44707.150000,242.242,34.133,62.464,353.268,-32.847,404.398,4.220,8.400,10.940
1122,44707.193000,240.276,36.141,63.488,357.197,-21.882,400.659,3.220,8.400,7.940
1123,44707.232000,241.259,36.141,63.488,356.115,-31.952,401.438,-3.780,12.400,4.940
1124,44707.253000,241.259,35.137,63.488,356.145,-30.061,404.462,2.220,6.400,8.940
1125,44707.290000,242.242,35.137,62.464,354.343,-23.634,406.585,-1.780,-3.600,12.940
1126,44707.333000,241.259,36.141,62.464,356.179,-27.352,402.530,-5.780,-9.600,10.940
1127,44707.370000,241.259,36.141,63.488,353.388,-23.744,401.608,-20.780,-13.600,9.940
1128,44707.410000,242.242,35.137,60.416,354.338,-23.693,403.600,-17.780,-11.600,5.940
1129,44707.453000,241.259,35.137,60.416,357.133,-26.482,399.566,-22.780,-11.600,5.940
1130,44707.469000,242.242,34.133,62.464,354.217,-32.036,398.449,-36.780,-8.600,6.940
1131,44707.509000,241.259,33.129,63.488,358.109,-24.579,402.592,-35.780,-6.600,-0.060
1132,44707.548000,241.259,33.129,63.488,354.208,-32.913,400.420,-32.780,-5.600,-8.060
1133,44707.594000,242.242,33.129,61.440,354.220,-31.997,400.439,-44.780,1.400,-10.060
1134,44707.633000,242.242,35.137,63.488,357.061,-31.940,401.439,-39.780,2.400,-11.060
1135,44707.670000,240.276,37.145,61.440,357.053,-32.797,404.405,-24.780,-0.600,-16.060
1136,44707.714000,239.294,35.137,62.464,351.336,-35.640,403.341,-41.780,-7.600,-18.060
1137,44707.734000,241.259,36.141,61.440,355.127,-34.752,399.387,-32.780,-13.600,-21.060
1138,44707.772000,241.259,35.137,63.488,357.996,-32.824,402.416,-33.780,-17.600,-18.060
1139,44707.812000,243.225,35.137,63.488,353.322,-28.364,399.520,-30.780,-17.600,-11.060
1140,44707.855000,241.259,34.133,62.464,356.147,-29.262,398.511,-15.780,-22.600,-3.060
1141,44707.888000,242.242,35.137,64.512,356.135,-30.178,398.491,-9.780,-19.600,-2.060
1142,44707.928000,242.242,35.137,63.488,356.147,-29.262,398.511,-8.780,-14.600,3.940
1143,44707.950000,242.242,35.137,63.488,354.139,-37.572,396.342,-1.780,-8.600,6.940
1144,44707.993000,243.225,35.137,61.440,356.904,-43.011,397.225,2.220,-7.600,10.940
1145,44708.28000,240.276,36.141,61.440,356.110,-32.011,398.452,9.220,-5.600,13.940
1146,44708.75000,242.242,34.133,62.464,354.208,-32.913,400.420,0.220,-6.600,15.940
1147,44708.110000,240.276,35.137,63.488,355.199,-29.294,397.514,2.220,-6.600,17.940
1148,44708.153000,244.207,35.137,61.440,357.927,-37.482,398.339,12.220,-7.600,20.940
1149,44708.168000,241.259,33.129,63.488,358.874,-37.470,398.340,3.220,-5.600,24.940
1150,44708.209000,242.242,33.129,62.464,357.907,-39.256,401.285,11.220,-6.600,20.940
1151,44708.253000,241.259,32.125,62.464,356.086,-33.823,399.408,14.220,-13.600,13.940
1152,44708.290000,241.259,32.125,61.440,358.007,-31.927,401.441,7.220,-10.600,14.940
1153,44708.332000,243.225,34.133,63.488,357.981,-33.779,400.407,11.220,-4.600,9.940
1154,44708.369000,242.242,33.129,61.440,357.022,-34.708,400.386,3.220,-2.600,1.940
1155,44708.418000,243.225,32.125,63.488,356.036,-37.488,399.330,2.220,-2.600,-0.060
1156,44708.434000,242.242,33.129,62.464,357.061,-31.940,401.439,1.220,-2.600,-0.060
1157,44708.472000,241.259,32.125,61.440,356.995,-36.559,399.352,-6.780,-6.600,3.940
1158,44708.512000,242.242,33.129,62.464,359.861,-34.670,400.391,9.220,-10.600,3.940
1159,44708.552000,242.242,31.122,61.440,357.043,-32.914,398.435,1.220,-3.600,5.940
1160,44708.594000,242.242,33.129,61.440,359.740,-43.013,395.240,0.220,-10.600,7.940
1161,44708.633000,244.207,33.129,62.464,358.950,-31.954,399.452,-6.780,-10.600,8.940
1162,44708.652000,243.225,33.129,61.440,356.010,-39.340,398.296,-7.780,-8.600,6.940
1163,44708.692000,242.242,30.118,61.440,356.092,-32.985,395.448,-15.780,-3.600,3.940
1164,44708.730000,242.242,33.129,61.440,355.162,-32.043,397.456,-4.780,-3.600,2.940
1165,44708.773000,242.242,32.125,60.416,357.042,-32.934,397.439,-5.780,-7.600,1.940
1166,44708.810000,242.242,32.125,60.416,354.164,-35.739,396.381,-6.780,-11.600,1.940
1167,44708.865000,243.225,32.125,60.416,359.866,-33.832,396.430,-2.780,-14.600,0.940
1168,44708.874000,244.207,34.133,60.416,357.897,-39.373,395.314,-8.780,-13.600,1.940
1169,44708.912000,243.225,33.129,60.416,357.913,-38.418,397.324,-15.780,-10.600,-1.060
1170,44708.954000,242.242,33.129,61.440,362.691,-34.730,395.420,-9.780,-10.600,-5.060
1171,44708.994000,241.259,34.133,60.416,357.913,-38.418,397.324,-15.780,-0.600,3.940
1172,44709.34000,242.242,32.125,62.464,356.045,-36.611,397.360,1.220,5.400,4.940
1173,44709.74000,241.259,32.125,61.440,357.890,-40.231,398.280,9.220,8.400,-0.060
1174,44709.112000,241.259,34.133,62.464,357.924,-37.522,396.348,9.220,9.400,-5.060
1175,44709.139000,240.276,34.133,62.464,357.022,-34.708,400.386,5.220,2.400,-2.060
1176,44709.172000,241.259,33.129,63.488,360.784,-36.470,401.348,-5.780,-7.600,2.940
1177,44709.214000,243.225,32.125,60.416,357.916,-38.379,399.314,2.220,-10.600,-1.060
1178,44709.252000,240.276,30.118,59.392,359.827,-36.600,395.376,9.220,-8.600,-0.060
1179,44709.292000,242.242,32.125,61.440,358.814,-42.012,400.233,-0.780,-2.600,-1.060
1180,44709.332000,243.225,31.122,60.416,358.836,-40.218,398.282,1.220,0.400,-6.060
1181,44709.358000,243.225,32.125,62.464,359.831,-36.561,397.366,9.220,0.400,-10.060
1182,44709.390000,243.225,32.125,61.440,360.729,-40.193,398.285,10.220,6.400,-14.060
1183,44709.434000,242.242,32.125,60.416,360.829,-32.864,398.441,2.220,6.400,-10.060
1184,44709.474000,243.225,32.125,61.440,357.877,-41.147,398.261,6.220,4.400,-6.060
1185,44709.513000,242.242,31.122,61.440,357.926,-37.502,397.344,11.220,1.400,-9.060
1186,44709.554000,243.225,33.129,61.440,357.990,-32.902,398.436,7.220,2.400,-12.060
1187,44709.573000,242.242,34.133,61.440,357.031,-33.830,398.415,-0.780,1.400,-10.060
1188,44709.610000,243.225,32.125,63.488,357.029,-33.850,397.420,-3.780,8.400,-15.060
1189,44709.653000,242.242,34.133,64.512,359.896,-31.941,399.454,3.220,6.400,-18.060
1190,44709.693000,241.259,34.133,61.440,357.056,-31.998,398.454,8.220,6.400,-15.060
1191,44709.732000,244.207,34.133,63.488,356.086,-33.823,399.408,1.220,7.400,-6.060
1192,44709.772000,241.259,34.133,62.464,354.240,-30.223,397.493,-2.780,6.400,-6.060
1193,44709.813000,242.242,33.129,63.488,355.127,-34.752,399.387,-4.780,4.400,-10.060
1194,44709.833000,241.259,34.133,63.488,358.020,-31.011,401.460,-4.780,7.400,-17.060
1195,44709.878000,242.242,36.141,62.464,354.217,-32.036,398.449,-1.780,6.400,-16.060
1196,44709.914000,241.259,34.133,64.512,356.050,-36.552,400.345,-5.780,7.400,-9.060
1197,44709.954000,243.225,33.129,65.536,353.292,-31.034,403.442,-6.780,5.400,-0.060
1198,44709.993000,242.242,35.137,62.464,356.110,-32.011,398.452,3.220,9.400,5.940
1199,44710.33000,241.259,34.133,63.488,355.165,-32.004,399.446,-9.780,11.400,8.940
1200,44710.54000,240.276,35.137,64.512,356.091,-33.765,402.394,-10.780,6.400,9.940
1201,44710.100000,241.259,34.133,64.512,356.090,-33.784,401.398,-6.780,5.400,6.940
1202,44710.130000,242.242,33.129,63.488,356.090,-33.784,401.398,-11.780,4.400,8.940
1203,44710.172000,242.242,35.137,65.536,356.050,-36.552,400.345,-0.780,-0.600,15.940
1204,44710.213000,241.259,34.133,64.512,354.127,-39.248,404.263,3.220,-3.600,18.940
1205,44710.252000,241.259,34.133,64.512,356.063,-35.636,400.364,8.220,-8.600,21.940
1206,44710.272000,243.225,35.137,64.512,355.115,-35.668,399.368,13.220,-6.600,32.940
1207,44710.312000,243.225,36.141,63.488,354.099,-41.119,402.234,-49.780,-5.600,59.940
1208,44710.352000,242.242,33.129,65.536,359.841,-36.444,403.337,-96.780,-12.600,88.940
1209,44710.393000,238.311,30.118,63.488,355.915,-46.610,401.125,-137.780,6.400,99.940
1210,44710.433000,241.259,25.098,66.560,352.140,-45.764,400.143,-111.780,-6.600,83.940
1211,44710.473000,241.259,27.106,64.512,353.096,-44.874,398.174,-37.780,-9.600,42.940
1212,44710.515000,241.259,24.094,64.512,356.808,-50.301,399.059,-13.780,-12.600,9.940
1213,44710.535000,243.225,27.106,64.512,354.952,-47.578,399.114,14.220,-11.600,-13.060
1214,44710.572000,242.242,28.110,62.464,356.829,-48.508,397.108,25.220,-8.600,-9.060
1215,44710.614000,241.259,28.110,62.464,353.961,-51.196,402.019,13.220,-7.600,1.940
1216,44710.650000,240.276,27.106,62.464,353.021,-50.371,398.057,10.220,-9.600,19.940
1217,44710.694000,242.242,25.098,65.536,351.191,-45.815,398.151,-12.780,31.400,26.940
1218,44710.735000,246.173,28.110,63.488,351.046,-56.750,400.902,30.220,29.400,135.940
1219,44710.750000,245.190,20.078,65.536,351.074,-54.879,402.931,-13.780,31.400,244.940
1220,44710.805000,240.276,22.086,63.488,350.012,-63.176,400.764,-8.780,4.400,232.940
1221,44710.838000,238.311,22.086,62.464,350.936,-64.956,402.717,31.220,-32.600,152.940
1222,44710.873000,242.242,20.078,62.464,351.888,-64.106,398.758,18.220,-44.600,31.940
1223,44710.915000,245.190,18.071,62.464,353.786,-64.022,401.746,18.220,-35.600,-24.060
1224,44710.953000,245.190,20.078,61.440,356.697,-58.527,399.878,-15.780,-29.600,-45.060
1225,44710.974000,243.225,19.075,60.416,351.951,-59.525,398.855,-21.780,-29.600,-39.060
1226,44711.12000,243.225,21.082,60.416,354.785,-59.546,395.875,-38.780,-24.600,-31.060
1227,44711.55000,243.225,21.082,60.416,356.681,-59.482,397.869,-13.780,-23.600,-26.060
1228,44711.93000,243.225,22.086,62.464,354.797,-58.630,395.895,-14.780,-20.600,-24.060
1229,44711.134000,244.207,21.082,60.416,355.686,-63.140,398.784,-26.780,-9.600,-19.060
1230,44711.179000,244.207,21.082,60.416,357.624,-59.509,395.880,-31.780,3.400,-17.060
1231,44711.217000,244.207,20.078,62.464,356.715,-56.773,395.937,-22.780,5.400,-16.060
1232,44711.237000,243.225,22.086,62.464,355.735,-59.495,397.867,-1.780,9.400,-9.060
1233,44711.275000,244.207,22.086,61.440,354.740,-63.152,398.782,-3.780,14.400,0.940
1234,44711.313000,243.225,19.075,64.512,356.583,-66.792,398.707,-5.780,12.400,1.940
1235,44711.354000,243.225,21.082,63.488,354.804,-58.552,399.875,2.220,10.400,-1.060
1236,44711.414000,242.242,21.082,63.488,351.962,-58.629,397.880,-2.780,11.400,-5.060
1237,44711.437000,242.242,22.086,63.488,351.988,-56.777,398.914,-14.780,11.400,-8.060
1238,44711.453000,243.225,20.078,66.560,349.126,-58.627,399.865,-5.780,12.400,-8.060
1239,44711.493000,243.225,19.075,65.536,352.896,-59.532,397.862,-3.780,12.400,-3.060
1240,44711.542000,240.276,20.078,63.488,356.598,-65.837,400.717,-2.780,11.400,-5.060
1241,44711.582000,243.225,19.075,66.560,352.821,-65.029,397.745,-12.780,7.400,-7.060
1242,44711.614000,242.242,20.078,66.560,353.779,-64.100,397.766,-7.780,0.400,-10.060
1243,44711.657000,242.242,21.082,65.536,351.899,-63.209,397.782,0.220,-2.600,-15.060
1244,44711.674000,242.242,21.082,64.512,351.067,-54.957,398.951,-9.780,-4.600,-14.060
1245,44711.715000,243.225,20.078,63.488,351.899,-63.209,397.782,-8.780,-7.600,-11.060
1246,44711.753000,244.207,21.082,63.488,352.944,-55.887,396.945,0.220,-6.600,-14.060
1247,44711.792000,243.225,21.082,64.512,351.017,-58.622,398.873,7.220,-2.600,-12.060
1248,44711.837000,244.207,22.086,61.440,353.844,-59.500,398.859,-0.780,2.400,-8.060
1249,44711.879000,245.190,21.082,61.440,353.833,-60.397,399.834,-4.780,-2.600,-4.060
1250,44711.895000,242.242,22.086,62.464,354.804,-58.552,399.875,5.220,-1.600,-7.060
1251,44711.935000,243.225,22.086,62.464,352.836,-64.074,399.754,6.220,5.400,-14.060
1252,44711.980000,243.225,23.090,63.488,350.980,-61.370,398.815,-0.780,7.400,-15.060
1253,44712.13000,243.225,21.082,63.488,355.761,-57.643,398.901,-5.780,12.400,-19.060
1254,44712.55000,243.225,24.094,65.536,353.849,-59.442,401.844,-0.780,17.400,-20.060
1255,44712.100000,243.225,24.094,65.536,353.869,-57.668,398.898,4.220,15.400,-22.060
1256,44712.137000,242.242,24.094,66.560,353.845,-59.481,399.854,1.220,8.400,-22.060
1257,44712.155000,240.276,26.102,63.488,351.934,-61.260,403.791,-11.780,1.400,-20.060
1258,44712.195000,242.242,24.094,65.536,350.032,-61.402,397.818,-23.780,-2.600,-13.060
1259,44712.235000,242.242,24.094,66.560,352.929,-57.602,402.876,-7.780,-6.600,-9.060
1260,44712.273000,242.242,25.098,67.584,351.953,-59.506,399.850,-17.780,-9.600,4.940
1261,44712.318000,241.259,25.098,65.536,352.911,-58.577,399.871,-3.780,-10.600,11.940
1262,44712.357000,242.242,25.098,63.488,352.922,-57.680,398.896,-0.780,-6.600,11.940
1263,44712.377000,242.242,25.098,64.512,352.872,-61.345,398.818,-8.780,-10.600,13.940
1264,44712.417000,243.225,24.094,63.488,352.933,-56.784,397.920,-9.780,-10.600,13.940
1265,44712.463000,241.259,23.090,64.512,353.833,-60.397,399.834,-10.780,-10.600,14.940
1266,44712.494000,243.225,23.090,63.488,351.890,-64.086,399.753,2.220,-13.600,7.940
1267,44712.543000,242.242,22.086,62.464,349.051,-64.124,399.748,1.220,-10.600,-0.060
1268,44712.578000,243.225,23.090,64.512,352.861,-62.242,399.793,12.220,-11.600,-8.060
1269,44712.597000,241.259,24.094,65.536,352.956,-54.971,396.964,21.220,-10.600,-16.060
1270,44712.637000,242.242,25.098,64.512,356.697,-58.527,399.878,16.220,-7.600,-15.060
1271,44712.684000,240.276,24.094,62.464,351.015,-58.641,397.878,15.220,-9.600,-12.060
1272,44712.713000,242.242,24.094,64.512,353.881,-56.752,398.917,19.220,-15.600,-0.060
1273,44712.753000,242.242,24.094,63.488,357.702,-53.973,397.987,10.220,-15.600,5.940
1274,44712.794000,245.190,24.094,63.488,351.929,-61.318,400.806,5.220,-10.600,13.940
1275,44712.835000,244.207,25.098,61.440,353.851,-58.643,395.893,-2.780,-2.600,10.940
1276,44712.854000,243.225,22.086,63.488,355.710,-61.327,397.828,-11.780,-2.600,11.940
1277,44712.898000,242.242,22.086,66.560,355.688,-63.120,399.779,-2.780,-0.600,4.940
1278,44712.934000,241.259,23.090,62.464,356.725,-56.656,401.907,-0.780,-2.600,-2.060
1279,44712.974000,244.207,23.090,64.512,353.884,-56.713,400.907,5.220,1.400,-2.060
1280,44713.14000,242.242,24.094,64.512,354.843,-55.784,400.928,3.220,-1.600,3.940
1281,44713.54000,242.242,23.090,64.512,356.736,-55.759,400.932,-0.780,1.400,8.940
1282,44713.75000,242.242,21.082,63.488,350.053,-59.609,395.867,2.220,-2.600,2.940
1283,44713.118000,242.242,22.086,65.536,353.915,-54.042,396.986,0.220,-0.600,-2.060
1284,44713.157000,242.242,23.090,64.512,355.797,-54.914,397.964,-5.780,-3.600,-6.060
1285,44713.193000,242.242,22.086,65.536,354.768,-61.281,400.811,-5.780,-6.600,-3.060
1286,44713.237000,243.225,23.090,61.440,354.802,-58.572,398.880,-4.780,-5.600,-1.060
1287,44713.277000,242.242,24.094,64.512,353.856,-58.584,398.878,6.220,-6.600,-2.060
1288,44713.297000,242.242,25.098,64.512,352.849,-63.158,399.774,-3.780,0.400,-0.060
1289,44713.338000,242.242,21.082,64.512,352.863,-62.222,400.788,1.220,0.400,0.940
1290,44713.378000,244.207,24.094,64.512,352.942,-55.907,395.950,-1.780,9.400,-1.060
1291,44713.418000,242.242,24.094,63.488,351.017,-58.622,398.873,1.220,10.400,-1.060
1292,44713.455000,244.207,22.086,64.512,352.983,-53.119,397.998,6.220,14.400,-0.060
1293,44713.497000,241.259,25.098,64.512,352.872,-61.345,398.818,17.220,21.400,-1.060
1294,44713.540000,242.242,23.090,63.488,350.038,-61.324,401.798,13.220,25.400,3.940
1295,44713.559000,242.242,25.098,66.560,352.936,-56.745,399.911,14.220,23.400,6.940
1296,44713.593000,242.242,23.090,66.560,351.006,-59.518,399.849,8.220,7.400,0.940
1297,44713.634000,242.242,23.090,65.536,350.983,-61.331,400.805,-3.780,0.400,-2.060
1298,44713.677000,243.225,23.090,67.584,352.924,-57.661,399.891,10.220,-6.600,-6.060
1299,44713.719000,238.311,24.094,65.536,350.087,-57.679,400.881,5.220,-3.600,-3.060
1300,44713.757000,242.242,23.090,65.536,350.140,-53.975,402.949,9.220,-5.600,-2.060
1301,44713.774000,242.242,23.090,64.512,356.725,-56.656,401.907,19.220,0.400,1.940
1302,44713.818000,241.259,24.094,65.536,350.040,-61.304,402.793,14.220,2.400,-2.060
1303,44713.857000,242.242,24.094,65.536,350.983,-61.331,400.805,11.220,4.400,-2.060
1304,44713.899000,242.242,23.090,64.512,350.121,-54.970,398.950,-0.780,2.400,-5.060
1305,44713.949000,241.259,24.094,64.512,348.163,-60.374,404.799,5.220,4.400,-10.060
1306,44713.978000,242.242,24.094,63.488,352.025,-54.808,405.918,11.220,17.400,-8.060
1307,44713.995000,241.259,25.098,66.560,352.916,-58.518,402.857,-0.780,15.400,-4.060
1308,44714.39000,242.242,25.098,65.536,348.271,-52.188,401.990,-5.780,28.400,-0.060
1309,44714.77000,243.225,24.094,68.608,351.115,-52.092,404.980,-18.780,21.400,-2.060
1310,44714.123000,244.207,24.094,67.584,352.045,-53.034,402.972,-17.780,20.400,-5.060
1311,44714.162000,244.207,24.094,66.560,348.271,-52.188,401.990,-10.780,25.400,-9.060
1312,44714.199000,243.225,25.098,67.584,350.128,-54.891,402.930,-7.780,29.400,-7.060
1313,44714.235000,241.259,23.090,66.560,348.288,-51.213,404.995,-20.780,18.400,-2.060
1314,44714.255000,242.242,23.090,65.536,345.298,-62.263,403.760,-44.780,14.400,-6.060
1315,44714.295000,242.242,22.086,67.584,347.292,-54.890,404.915,-29.780,16.400,-4.060
1316,44714.335000,241.259,23.090,67.584,347.267,-56.722,404.876,-22.780,8.400,-10.060
1317,44714.379000,241.259,23.090,68.608,347.294,-54.870,405.910,-21.780,3.400,-17.060
1318,44714.417000,240.276,25.098,69.632,347.294,-54.870,405.910,-27.780,8.400,-25.060
1319,44714.455000,242.242,26.102,71.680,344.367,-61.321,405.768,-20.780,11.400,-25.060
1320,44714.478000,241.259,25.098,67.584,341.573,-57.752,402.856,-22.780,11.400,-18.060
