Sample, Time, ACCX, ACCY, ACCZ, MAGX, MAGY, MAGZ, GYRX, GYRY, GYRZ
0,38370.731000,249.081,12.574,-25.899,444.252,263.722,24.056,-12.040,-1.490,-8.020
1,38370.775000,253.035,13.580,-26.895,443.225,256.981,26.846,-6.040,-1.490,-8.020
2,38370.810000,252.046,14.585,-28.887,445.242,265.716,26.064,-0.040,1.510,-7.020
3,38370.830000,252.046,11.568,-24.903,440.344,259.801,23.961,-8.040,4.510,-5.020
4,38370.873000,253.035,13.580,-23.907,449.051,259.886,23.981,-4.040,4.510,-5.020
5,38370.915000,252.046,13.580,-26.895,441.333,261.774,24.987,-1.040,-9.490,-2.020
6,38370.953000,252.046,12.574,-25.899,442.288,259.906,27.890,-4.040,-11.490,-3.020
7,38370.995000,253.035,13.580,-28.887,443.298,264.727,26.038,-2.040,-1.490,-1.020
8,38371.35000,252.046,14.585,-27.891,444.223,259.925,27.895,-11.040,-2.490,0.980
9,38371.70000,251.058,11.568,-24.903,446.229,267.668,26.109,9.960,-14.490,-1.020
10,38371.116000,252.046,12.574,-28.887,444.252,263.722,24.056,13.960,-14.490,-0.020
11,38371.133000,252.046,11.568,-26.895,440.307,255.917,23.875,-2.040,-12.490,-6.020
12,38371.175000,251.058,14.585,-27.891,447.154,263.750,24.063,-2.040,-3.490,-5.020
13,38371.215000,253.035,12.574,-27.891,443.294,264.684,24.076,-10.040,-2.490,-2.020
14,38371.253000,252.046,12.574,-27.891,442.328,264.696,25.054,-2.040,-5.490,-5.020
15,38371.295000,253.035,14.585,-27.891,443.296,264.705,25.057,-2.040,-5.490,-5.020
16,38371.332000,254.023,13.580,-27.891,440.333,258.808,22.958,-7.040,3.510,-3.020
17,38371.375000,251.058,13.580,-24.903,438.487,267.571,25.110,-7.040,0.510,-3.020
18,38371.413000,254.023,13.580,-23.907,441.368,265.635,24.093,6.960,-5.490,-5.020
19,38371.455000,252.046,12.574,-25.899,443.258,260.822,24.970,-11.040,-0.490,-6.020
20,38371.473000,253.035,12.574,-25.899,438.445,263.644,23.062,-5.040,-11.490,-8.020
21,38371.515000,251.058,14.585,-26.895,438.491,267.614,27.072,-1.040,-8.490,-9.020
22,38371.556000,250.069,13.580,-27.891,443.275,262.742,24.032,-1.040,-9.490,-6.020
23,38371.596000,252.046,12.574,-26.895,441.373,266.563,22.152,-6.040,-13.490,-8.020
24,38371.636000,255.012,17.603,-28.887,440.422,267.589,25.115,10.960,-7.490,-6.020
25,38371.671000,253.035,15.591,-28.887,438.426,261.702,23.018,-10.040,1.510,-2.020
26,38371.712000,251.058,13.580,-24.903,437.475,262.728,25.981,-10.040,1.510,-2.020
27,38371.755000,252.046,14.585,-24.903,441.399,268.570,25.138,-3.040,-5.490,-2.020
28,38371.776000,252.046,15.591,-27.891,441.392,267.620,26.098,0.960,1.510,-0.020
29,38371.816000,250.069,14.585,-24.903,444.273,266.570,21.177,-13.040,-1.490,-1.020
30,38371.851000,252.046,15.591,-25.899,442.345,266.616,24.116,0.960,-7.490,-1.020
31,38371.893000,253.035,13.580,-28.887,441.309,259.789,22.982,8.960,6.510,1.980
32,38371.933000,251.058,15.591,-28.887,443.298,264.727,26.038,-3.040,10.510,6.980
33,38371.973000,254.023,12.574,-22.911,442.357,268.493,21.216,0.960,3.510,0.980
34,38372.21000,253.035,17.603,-27.891,443.336,268.610,26.124,-5.040,3.510,5.980
35,38372.55000,251.058,12.574,-27.891,439.396,261.733,24.002,-8.040,-0.490,1.980
36,38372.75000,251.058,15.591,-26.895,439.440,265.681,27.032,-0.040,-7.490,-1.020
37,38372.111000,252.046,14.585,-26.895,441.340,262.723,24.028,-1.040,-7.490,-0.020
38,38372.152000,251.058,16.597,-26.895,437.428,258.759,21.970,-10.040,-1.490,1.980
39,38372.193000,252.046,13.580,-25.899,444.289,267.606,24.143,-2.040,-3.490,3.980
40,38372.235000,252.046,15.591,-26.895,441.384,266.671,27.058,0.960,-4.490,2.980
41,38372.271000,250.069,14.585,-26.895,444.301,268.598,25.145,-5.040,-7.490,3.980
42,38372.313000,254.023,13.580,-26.895,442.326,264.674,24.073,-4.040,-4.490,2.980
43,38372.352000,252.046,16.597,-27.891,439.367,258.821,23.937,-0.040,-4.490,2.980
44,38372.392000,253.035,13.580,-26.895,441.317,260.738,22.022,-4.040,-9.490,3.980
45,38372.412000,254.023,15.591,-27.891,443.299,265.611,22.135,0.960,-11.490,1.980
46,38372.465000,253.035,15.591,-27.891,439.417,264.581,21.123,-8.040,-11.490,2.980
47,38372.493000,251.058,15.591,-26.895,439.394,262.596,19.118,4.960,-13.490,-0.020
48,38372.532000,252.046,14.585,-27.891,438.464,266.470,19.202,14.960,-13.490,-2.020
49,38372.572000,251.058,13.580,-26.895,438.450,264.572,21.121,5.960,-15.490,-1.020
50,38372.613000,252.046,13.580,-24.903,441.373,266.563,22.152,9.960,-29.490,-7.020
51,38372.656000,252.046,15.591,-27.891,440.432,269.445,21.233,27.960,-33.490,-5.020
52,38372.696000,252.046,13.580,-25.899,441.343,264.514,17.203,-24.040,-38.490,-1.020
53,38372.716000,252.046,16.597,-24.903,438.408,260.645,19.072,-26.040,-55.490,-3.020
54,38372.757000,252.046,14.585,-29.883,436.588,272.298,20.308,-27.040,-64.490,-13.020
55,38372.797000,249.081,14.585,-32.872,440.399,266.489,19.206,11.960,-62.490,-31.020
56,38372.833000,252.046,14.585,-34.864,439.423,266.393,15.279,26.960,-45.490,-36.020
57,38372.872000,252.046,17.603,-30.879,435.609,272.181,15.400,39.960,-23.490,-32.020
58,38372.915000,253.035,16.597,-32.872,436.518,266.344,14.291,43.960,-23.490,-37.020
59,38372.955000,253.035,16.597,-25.899,434.616,269.280,16.314,66.960,-41.490,-43.020
60,38372.995000,254.023,21.627,-34.864,438.510,273.072,10.522,23.960,-41.490,-41.020
61,38373.35000,250.069,20.621,-37.852,435.636,275.957,10.580,7.960,-10.490,-34.020
62,38373.55000,250.069,19.615,-37.852,435.629,275.007,11.540,-20.040,14.510,-30.020
63,38373.96000,252.046,21.627,-36.856,433.691,274.082,14.457,-23.040,55.510,-23.020
64,38373.136000,250.069,20.621,-33.868,433.646,269.249,15.331,-51.040,73.510,-14.020
65,38373.176000,252.046,18.609,-28.887,433.738,278.937,14.565,-60.040,75.510,-15.020
66,38373.216000,250.069,18.609,-23.907,436.605,274.218,19.370,-56.040,38.510,-25.020
67,38373.271000,250.069,13.580,-18.926,434.705,277.177,22.373,-36.040,-13.490,-41.020
68,38373.297000,250.069,20.621,-22.911,432.759,277.935,13.560,49.960,-55.490,-57.020
69,38373.338000,249.081,21.627,-27.891,435.605,272.138,13.438,14.960,-80.490,-61.020
70,38373.352000,250.069,22.633,-26.895,430.761,272.026,10.483,7.960,-132.490,-70.020
71,38373.397000,250.069,18.609,-15.938,431.830,282.693,9.741,23.960,-198.490,-83.020
72,38373.436000,251.058,29.674,-35.860,426.989,283.488,3.865,63.960,-243.490,-83.020
73,38373.477000,250.069,25.650,-39.844,427.919,281.383,-4.025,53.960,-251.490,-77.020
74,38373.517000,248.093,27.662,-40.840,425.010,282.174,-10.879,30.960,-281.490,-83.020
75,38373.557000,249.081,27.662,-38.848,423.050,280.149,-13.870,-7.040,-304.490,-72.020
76,38373.597000,251.058,27.662,-46.817,417.289,286.673,-23.544,73.960,-314.490,-66.020
77,38373.645000,250.069,32.692,-57.774,417.299,288.528,-27.425,-9.040,-304.490,-60.020
78,38373.672000,255.012,25.650,-61.759,417.274,287.406,-34.315,-27.040,-240.490,-46.020
79,38373.692000,250.069,38.727,-60.763,417.207,279.726,-30.563,-130.040,66.510,7.980
80,38373.732000,234.255,44.762,-71.720,416.322,287.548,-27.449,-267.040,-10.490,-35.020
81,38373.772000,238.208,30.680,-62.755,417.233,282.617,-31.479,149.960,-74.490,-42.020
82,38373.812000,237.220,36.715,-69.728,417.302,290.319,-34.250,-40.040,16.510,-8.020
83,38373.852000,239.197,21.627,-58.770,415.328,284.647,-26.535,-183.040,54.510,68.980
84,38373.892000,252.046,36.715,-49.805,417.282,286.608,-26.487,-115.040,74.510,64.980
85,38373.937000,247.104,42.750,-52.794,417.277,285.680,-24.546,152.960,83.510,28.980
86,38373.978000,246.116,49.792,-50.802,420.127,279.927,-22.707,37.960,99.510,49.980
87,38373.998000,242.162,15.591,-49.805,419.247,288.677,-21.534,87.960,161.510,56.980
88,38374.38000,253.035,22.633,-42.833,425.004,282.994,-17.725,143.960,157.510,65.980
89,38374.78000,246.116,38.727,-54.786,425.009,283.037,-15.763,-80.040,123.510,65.980
90,38374.118000,248.093,33.697,-53.790,423.970,274.420,-10.072,-114.040,143.510,71.980
91,38374.158000,249.081,22.633,-52.794,423.089,282.285,-4.996,-88.040,201.510,82.980
92,38374.198000,253.035,18.609,-32.872,427.902,278.578,0.816,-168.040,253.510,93.980
93,38374.235000,254.023,26.656,-36.856,431.813,280.773,10.679,-69.040,274.510,95.980
94,38374.275000,252.046,24.644,-33.868,432.695,271.160,14.390,-167.040,231.510,91.980
95,38374.326000,250.069,16.597,-25.899,434.639,271.265,18.319,-150.040,195.510,82.980
96,38374.335000,252.046,16.597,-19.922,432.742,274.245,22.304,-33.040,136.510,73.980
97,38374.375000,247.104,16.597,-21.914,436.580,270.464,25.170,1.960,86.510,57.980
98,38374.413000,251.058,19.615,-22.911,433.680,270.458,26.145,1.960,25.510,39.980
99,38374.453000,249.081,18.609,-23.907,439.513,273.427,26.223,20.960,-11.490,36.980
100,38374.493000,252.046,17.603,-26.895,438.444,262.759,26.965,39.960,-32.490,33.980
101,38374.533000,250.069,21.627,-32.872,437.503,266.526,22.143,63.960,-23.490,38.980
102,38374.576000,252.046,18.609,-30.879,435.622,271.426,25.190,46.960,-26.490,40.980
103,38374.617000,252.046,20.621,-31.875,435.567,267.370,17.254,31.960,-30.490,41.980
104,38374.642000,252.046,16.597,-33.868,437.525,269.373,19.264,24.960,-19.490,43.980
105,38374.676000,252.046,16.597,-31.875,435.573,267.434,20.198,-6.040,-7.490,43.980
106,38374.717000,252.046,15.591,-28.887,438.501,269.469,23.191,5.960,-4.490,39.980
107,38374.757000,251.058,14.585,-31.875,440.387,265.497,18.204,-2.040,-5.490,29.980
108,38374.797000,252.046,16.597,-33.868,441.385,268.440,19.252,-19.040,-3.490,26.980
109,38374.837000,251.058,11.568,-26.895,440.396,265.583,22.128,-11.040,-14.490,15.980
110,38374.877000,251.058,13.580,-31.875,439.366,259.684,19.053,-3.040,-15.490,10.980
111,38374.917000,251.058,14.585,-29.883,439.413,264.538,19.161,-15.040,-17.490,8.980
112,38374.937000,252.046,13.580,-31.875,440.328,258.765,20.996,-19.040,-20.490,8.980
113,38374.977000,253.035,15.591,-33.868,438.441,264.485,17.196,-14.040,-13.490,4.980
114,38375.16000,252.046,13.580,-30.879,442.280,260.704,20.062,0.960,-16.490,11.980
115,38375.56000,251.058,15.591,-33.868,440.392,265.540,20.166,-9.040,-21.490,12.980
116,38375.96000,253.035,16.597,-31.875,441.303,260.609,16.136,-6.040,-24.490,12.980
117,38375.137000,252.046,10.562,-30.879,441.352,265.485,17.225,-8.040,-28.490,13.980
118,38375.185000,252.046,12.574,-31.875,442.256,258.719,18.057,24.960,-40.490,9.980
119,38375.218000,249.081,14.585,-33.868,438.453,266.362,14.296,19.960,-40.490,6.980
120,38375.258000,251.058,12.574,-30.879,442.222,256.627,11.146,34.960,-45.490,9.980
121,38375.280000,251.058,14.585,-34.864,440.329,260.535,13.190,32.960,-41.490,11.980
122,38375.318000,251.058,16.597,-33.868,440.320,259.564,13.168,31.960,-45.490,10.980
123,38375.360000,249.081,12.574,-36.856,441.344,266.283,9.397,15.960,-46.490,7.980
124,38375.398000,253.035,13.580,-36.856,443.260,264.360,9.358,33.960,-46.490,-0.020
125,38375.438000,251.058,16.597,-39.844,445.164,261.445,8.317,10.960,-32.490,4.980
126,38375.481000,247.104,11.568,-39.844,438.345,256.524,8.193,9.960,-23.490,3.980
127,38375.516000,252.046,13.580,-35.860,440.289,257.514,8.219,14.960,-10.490,0.980
128,38375.556000,250.069,14.585,-37.852,439.381,263.351,9.328,8.960,-3.490,-1.020
129,38375.577000,251.058,11.568,-36.856,440.294,258.442,6.279,-5.040,-8.490,-6.020
130,38375.618000,251.058,16.597,-38.848,438.428,265.241,7.406,2.960,1.510,-5.020
131,38375.658000,249.081,14.585,-35.860,439.341,259.446,8.260,-5.040,3.510,-8.020
132,38375.698000,250.069,15.591,-36.856,437.392,257.529,10.175,9.960,-0.490,-9.020
133,38375.738000,252.046,14.585,-36.856,437.401,258.500,10.197,-13.040,-1.490,-6.020
134,38375.778000,251.058,15.591,-35.860,438.420,264.291,8.366,-6.040,-2.490,-5.020
135,38375.832000,251.058,15.591,-34.864,439.391,265.207,5.446,2.960,-5.490,-3.020
136,38375.860000,252.046,15.591,-37.852,439.360,261.388,8.304,-8.040,-9.490,-1.020
137,38375.900000,252.046,16.597,-34.864,436.462,262.288,6.356,-9.040,-9.490,-1.020
138,38375.920000,250.069,15.591,-36.856,440.367,266.187,5.470,-11.040,-11.490,0.980
139,38375.958000,248.093,12.574,-36.856,438.439,266.233,8.409,-9.040,-12.490,-3.020
140,38376.0,251.058,13.580,-37.852,438.454,268.132,6.490,8.960,-13.490,-6.020
141,38376.38000,251.058,15.591,-39.844,441.313,263.349,8.351,-5.040,-8.490,-5.020
142,38376.81000,250.069,14.585,-37.852,438.399,262.328,7.342,-5.040,-12.490,-3.020
143,38376.117000,250.069,16.597,-38.848,435.500,263.206,4.413,-1.040,-12.490,-5.020
144,38376.157000,251.058,15.591,-37.852,436.519,268.113,6.485,-8.040,-10.490,-4.020
145,38376.197000,249.081,14.585,-39.844,436.460,262.266,5.375,-9.040,-4.490,-3.020
146,38376.217000,252.046,16.597,-35.860,438.397,262.306,6.361,-5.040,-12.490,-3.020
147,38376.258000,250.069,13.580,-35.860,439.407,267.127,4.508,20.960,-24.490,-6.020
148,38376.300000,251.058,15.591,-39.844,437.414,261.261,3.393,9.960,-20.490,-7.020
149,38376.340000,249.081,16.597,-41.837,437.503,270.042,5.550,6.960,-17.490,-2.020
150,38376.377000,250.069,13.580,-34.864,439.412,268.055,2.568,-5.040,-27.490,1.980
151,38376.417000,252.046,19.615,-39.844,435.511,264.198,5.416,-1.040,-31.490,-0.020
152,38376.457000,248.093,13.580,-35.860,435.460,259.301,3.346,-20.040,-34.490,0.980
153,38376.498000,250.069,12.574,-36.856,437.487,269.891,-1.318,15.960,-52.490,-12.020
154,38376.538000,251.058,11.568,-37.852,435.545,268.923,-0.363,36.960,-70.490,-26.020
155,38376.558000,247.104,15.591,-24.903,431.591,261.032,-4.469,19.960,-107.490,-37.020
156,38376.597000,242.162,0.503,-2.988,433.597,268.775,-6.255,73.960,-274.490,-88.020
157,38376.637000,247.104,26.656,-23.907,425.767,262.551,-21.119,152.960,-651.490,-112.020
158,38376.680000,249.081,43.756,-84.669,424.827,268.971,-37.650,245.960,-730.490,-80.020
159,38376.721000,244.139,33.697,-117.541,421.856,264.757,-51.479,78.960,-433.490,6.980
160,38376.760000,251.058,26.656,-102.599,416.997,262.747,-52.514,39.960,-151.490,64.980
161,38376.807000,239.197,36.715,-109.572,421.861,266.569,-57.323,201.960,72.510,82.980
162,38376.841000,238.208,11.568,-83.673,423.812,266.739,-50.450,91.960,318.510,169.980
163,38376.861000,247.104,21.627,-35.860,426.591,253.262,-46.821,112.960,381.510,265.980
164,38376.900000,257.977,8.550,-40.840,437.258,253.603,-36.003,-84.040,200.510,245.980
165,38376.941000,252.046,-2.515,-58.770,440.159,251.862,-28.191,-53.040,100.510,181.980
166,38376.977000,256.988,19.615,-58.770,446.086,264.539,-27.897,-234.040,51.510,37.980
167,38377.23000,243.151,15.591,-43.829,450.931,266.421,-32.748,-116.040,22.510,-6.020
168,38377.58000,241.174,1.509,-12.949,443.117,260.347,-40.745,-149.040,-214.490,-23.020
169,38377.98000,247.104,1.509,-43.829,439.245,261.173,-45.638,-192.040,-389.490,-51.020
170,38377.140000,240.185,7.544,-49.805,431.479,259.954,-53.527,-104.040,-530.490,-112.020
171,38377.161000,246.116,11.568,-57.774,424.659,258.550,-70.243,33.960,-681.490,-145.020
172,38377.198000,240.185,21.627,-92.638,415.878,253.352,-82.145,-10.040,-729.490,-143.020
173,38377.238000,239.197,9.556,-85.665,409.122,258.723,-99.692,-93.040,-724.490,-125.020
174,38377.278000,256.000,32.692,-98.615,410.019,252.778,-105.706,-501.040,-643.490,-40.020
175,38377.318000,268.849,52.809,-64.747,406.328,270.302,-101.402,-1146.040,-463.490,-17.020
176,38377.358000,319.259,-16.597,-78.693,402.468,272.120,-105.293,-1254.040,-844.490,-161.020
177,38377.398000,295.537,-94.051,-158.381,391.913,280.775,-104.142,-2499.040,-1393.490,225.980
178,38377.438000,181.869,-23.639,-351.626,388.135,288.656,-97.111,-3087.040,-1843.490,540.980
179,38377.510000,155.181,1.509,-305.805,383.303,290.421,-102.966,-2266.040,-2209.490,454.980
180,38377.542000,43.490,-48.786,-201.214,386.156,289.975,-124.544,-635.040,-1985.490,689.980
181,38377.558000,46.456,12.574,-95.626,385.909,269.997,-150.485,-202.040,-1215.490,881.980
182,38377.597000,109.714,66.892,-76.700,395.358,249.444,-162.689,173.960,-360.490,844.980
183,38377.625000,224.371,127.246,-84.669,407.750,229.308,-157.226,268.960,398.510,775.980
184,38377.661000,249.081,134.287,-107.580,413.560,225.891,-138.657,-596.040,779.510,498.980
185,38377.701000,219.429,208.723,-269.946,419.354,221.438,-123.053,902.960,936.510,95.980
186,38377.736000,244.139,245.941,-44.825,426.972,208.029,-118.432,937.960,782.510,-183.020
187,38377.778000,235.243,-43.756,-177.307,431.840,210.126,-113.472,686.960,769.510,187.980
188,38377.798000,262.919,-29.674,-108.576,439.565,204.786,-94.941,-778.040,527.510,354.980
189,38377.838000,280.710,86.004,-78.693,442.459,201.211,-82.266,-364.040,431.510,121.980
190,38378.23000,274.780,-0.503,-99.611,445.445,207.323,-70.356,-728.040,284.510,40.980
191,38378.40000,273.792,38.727,-32.872,447.448,213.275,-65.316,-853.040,-9.490,-70.020
192,38378.54000,308.386,135.293,-6.973,440.672,214.935,-75.100,-294.040,-580.490,-361.020
193,38378.54000,341.992,121.210,27.891,438.863,229.328,-81.649,-303.040,-853.490,-561.020
194,38378.62000,358.795,64.880,72.716,427.387,246.346,-96.986,-1048.040,-1419.490,-783.020
195,38378.78000,418.100,-84.998,-273.930,399.445,268.295,-145.591,2361.960,-1460.490,-1620.020
196,38378.118000,284.664,-69.910,-199.222,363.560,271.484,-205.416,2957.960,-967.490,-1774.020
197,38378.138000,233.266,-75.945,65.743,332.673,283.308,-227.774,626.960,-144.490,-1688.020
198,38378.177000,141.344,-153.399,-28.887,324.459,326.696,-192.505,-1480.040,1615.510,-1350.020
199,38378.220000,141.344,-106.122,-79.689,336.337,345.234,-148.920,-315.040,2741.510,-924.020
200,38378.260000,149.251,-239.906,-107.580,353.814,346.892,-125.310,1802.960,3533.510,272.980
201,38378.300000,203.614,-225.823,-201.214,404.837,316.799,-104.296,3285.960,4022.510,1000.980
202,38378.340000,307.398,-108.134,-248.031,456.718,271.591,-64.983,3159.960,4250.510,1237.980
203,38378.381000,326.178,-9.556,-273.930,490.301,226.117,14.493,1508.960,4016.510,1618.980
204,38378.422000,268.849,-6.538,-249.027,508.595,199.047,99.248,-1400.040,2671.510,1057.980
205,38378.442000,253.035,79.969,-242.054,518.123,173.963,145.783,-456.040,1259.510,912.980
206,38378.477000,217.452,170.499,-208.187,516.105,164.343,150.468,366.960,153.510,597.980
207,38378.520000,285.652,106.122,-32.872,520.881,162.039,131.795,981.960,-789.490,196.980
208,38378.558000,330.131,79.969,124.514,520.853,165.297,103.428,1635.960,-669.490,-273.020
209,38378.601000,247.104,110.145,-37.852,519.000,177.511,86.043,835.960,-353.490,-133.020
210,38378.641000,228.324,-60.857,7.969,519.999,182.224,79.285,162.960,-300.490,80.980
211,38378.681000,253.035,-18.609,54.786,521.895,180.107,70.416,368.960,-324.490,67.980
212,38378.722000,271.815,42.750,44.825,521.815,175.813,51.688,923.960,-581.490,-37.020
213,38378.762000,256.988,15.591,-2.988,520.884,183.204,35.179,816.960,-693.490,6.980
214,38378.782000,262.919,-17.603,-45.821,516.911,176.888,14.437,663.960,-494.490,35.980
215,38378.826000,265.884,-16.597,-40.840,514.035,181.520,5.707,387.960,-384.490,-8.020
216,38378.862000,259.954,40.739,-23.907,517.899,182.378,-1.130,275.960,-195.490,49.980
217,38378.902000,263.907,-39.733,35.860,519.785,179.290,-10.021,55.960,-304.490,106.980
218,38378.942000,266.873,3.521,-19.922,517.760,172.238,-20.969,344.960,-350.490,46.980
219,38378.982000,301.467,32.692,31.875,516.838,177.946,-25.747,-195.040,-397.490,121.980
220,38379.21000,376.587,40.739,104.591,518.714,173.002,-30.756,-1023.040,-675.490,88.980
221,38379.62000,219.429,1.509,-69.728,521.630,177.561,-45.359,-587.040,-914.490,38.980
222,38379.77000,133.436,-51.804,-29.883,518.596,165.710,-53.474,164.960,-78.490,173.980
223,38379.122000,113.668,-69.910,24.903,527.291,158.632,-26.154,-874.040,936.510,522.980
224,38379.163000,197.683,17.603,-92.638,529.273,155.587,11.048,-1588.040,890.510,282.980
225,38379.203000,204.602,21.627,-149.416,536.102,157.961,27.786,-631.040,269.510,-37.020
226,38379.243000,319.259,-116.181,-200.218,529.318,160.420,10.175,1900.960,-858.490,-499.020
227,38379.285000,390.425,-251.976,161.370,526.473,172.387,-18.005,1053.960,-540.490,-377.020
228,38379.320000,233.266,-99.081,-112.560,517.782,175.970,-27.750,-171.040,-453.490,-406.020
229,38379.365000,267.861,21.627,-72.716,509.144,184.472,-34.444,778.960,-66.490,-358.020
230,38379.400000,245.127,36.715,-8.965,508.250,193.977,-43.061,403.960,-144.490,-251.020
231,38379.417000,258.965,-20.621,-73.712,505.386,198.717,-46.885,-65.040,-160.490,-159.020
232,38379.460000,249.081,10.562,-11.953,503.453,198.720,-45.908,122.960,-55.490,-197.020
233,38379.500000,257.977,19.615,-42.833,502.566,207.405,-47.679,5.960,-93.490,-172.020
234,38379.545000,254.023,-2.515,-38.848,499.651,207.247,-53.572,158.960,-108.490,-141.020
235,38379.578000,246.116,12.574,-68.732,495.861,215.904,-55.349,319.960,24.510,-158.020
236,38379.620000,253.035,43.756,-43.829,499.721,214.086,-51.459,103.960,128.510,-21.020
237,38379.658000,256.000,12.574,-61.759,495.816,211.071,-54.476,30.960,138.510,84.980
238,38379.698000,255.012,-22.633,-72.716,497.708,204.510,-44.811,-197.040,173.510,36.980
239,38379.718000,254.023,8.550,-56.778,497.705,203.604,-41.889,-129.040,298.510,23.980
240,38379.766000,246.116,18.609,1.992,502.500,196.207,-27.333,-118.040,227.510,67.980
241,38379.806000,242.162,-11.568,0.000,505.570,212.805,-24.016,-262.040,128.510,52.980
242,38379.841000,248.093,-17.603,7.969,506.538,213.699,-27.917,-168.040,-6.490,-7.020
243,38379.881000,239.197,-11.568,34.864,506.491,209.729,-31.928,-182.040,-257.490,-99.020
244,38379.923000,230.301,17.603,21.914,499.742,215.165,-46.532,-168.040,-597.490,-145.020
245,38379.963000,259.954,-5.532,-68.732,499.785,221.745,-56.192,-178.040,-594.490,-135.020
246,38380.3000,243.151,20.621,-30.879,492.042,223.396,-65.978,-293.040,-701.490,-166.020
247,38380.43000,275.768,101.092,-91.642,490.105,224.240,-70.867,-1115.040,-716.490,-23.020
248,38380.65000,257.977,-22.633,-49.805,485.347,233.751,-77.531,-1143.040,-918.490,-146.020
249,38380.98000,250.069,-29.674,-175.315,477.665,241.270,-85.225,-1494.040,-809.490,-231.020
250,38380.141000,258.965,11.568,-190.257,475.877,253.225,-70.254,-3288.040,-610.490,298.980
251,38380.182000,291.583,-166.475,-364.576,479.820,256.607,-50.557,-4759.040,-1504.490,553.980
252,38380.385000,224.371,-20.621,-314.770,466.323,265.730,-70.977,-3251.040,-2532.490,285.980
253,38380.413000,216.463,-29.674,-287.875,449.903,274.631,-100.234,-2130.040,-3208.490,276.980
254,38380.431000,159.135,-1.509,-155.393,426.609,275.441,-141.453,-1729.040,-3059.490,352.980
255,38380.438000,121.575,-0.503,-43.829,402.360,275.486,-172.884,-795.040,-2260.490,442.980
256,38380.438000,121.575,7.544,7.969,397.478,275.007,-192.518,-310.040,-1312.490,551.980
257,38380.438000,169.019,-11.568,-39.844,404.081,258.482,-196.794,275.960,-136.490,757.980
258,38380.455000,218.440,52.809,25.899,418.358,233.489,-192.415,743.960,647.510,724.980
259,38380.485000,165.066,33.697,-188.265,431.892,229.997,-180.696,257.960,1172.510,587.980
260,38380.542000,124.541,180.558,-361.588,435.703,218.902,-157.398,358.960,817.510,158.980
261,38380.563000,204.602,215.764,-79.689,439.455,208.130,-163.513,1747.960,732.510,98.980
262,38380.603000,310.363,22.633,-119.533,441.424,209.357,-152.695,563.960,681.510,76.980
263,38380.648000,315.305,51.804,-119.533,447.223,206.717,-142.935,-348.040,366.510,204.980
264,38380.663000,320.247,96.063,-103.595,447.283,209.932,-129.134,-494.040,208.510,39.980
265,38380.711000,288.618,45.768,-81.681,450.168,207.155,-124.286,-769.040,69.510,9.980
266,38380.742000,271.815,17.603,-91.642,456.062,215.993,-122.116,-727.040,-56.490,-114.020
267,38380.853000,224.371,88.016,-51.798,458.116,226.842,-115.006,-1353.040,-235.490,-157.020
268,38380.937000,175.938,91.033,-34.864,458.266,240.607,-106.855,-1891.040,-242.490,-89.020
269,38380.965000,221.405,-25.650,-85.665,459.248,242.515,-108.772,-875.040,-325.490,-254.020
270,38380.980000,306.409,20.621,-209.183,437.936,247.313,-145.976,1614.960,-830.490,-1080.020
271,38380.989000,266.873,-27.662,-161.370,420.609,265.590,-189.736,1737.960,-1022.490,-1476.020
272,38380.996000,265.884,-9.556,-172.327,396.444,272.603,-213.167,1143.960,-498.490,-1504.020
273,38381.17000,241.174,-14.585,-51.798,382.182,297.747,-210.678,-867.040,114.510,-1088.020
274,38381.52000,187.799,-44.762,-39.844,383.477,322.028,-166.007,-1998.040,1255.510,-490.020
275,38381.92000,215.475,-73.933,-78.693,402.028,329.111,-116.777,-418.040,2075.510,-54.020
276,38381.130000,188.788,-43.756,-107.580,430.062,317.734,-72.841,1050.960,2604.510,488.980
277,38381.151000,228.324,-84.998,-143.440,459.777,280.162,-29.483,2670.960,2979.510,719.980
278,38381.202000,257.977,13.580,-288.872,474.154,256.118,18.066,3058.960,3336.510,727.980
279,38381.237000,359.784,-17.603,-234.086,477.070,248.358,61.049,2039.960,3111.510,839.980
280,38381.272000,314.317,56.833,-189.261,470.224,229.974,110.641,1639.960,2642.510,743.980
281,38381.312000,326.178,-41.745,-174.319,456.695,223.823,145.780,1015.960,1692.510,639.980
282,38381.357000,271.815,38.727,-150.412,448.978,221.331,168.263,717.960,1186.510,658.980
283,38381.392000,244.139,50.798,-112.560,446.049,216.642,176.979,574.960,520.510,581.980
284,38381.433000,222.394,50.798,-101.603,445.970,209.717,170.941,1044.960,191.510,437.980
285,38381.473000,188.788,74.939,-116.545,445.072,220.063,156.459,1335.960,-120.490,216.980
286,38381.502000,182.857,61.862,-107.580,445.999,219.685,138.801,1401.960,-303.490,108.980
287,38381.531000,160.124,57.839,-92.638,443.172,231.825,118.470,1580.960,-221.490,-177.020
288,38381.602000,169.019,86.004,-66.739,443.262,245.891,96.227,1824.960,6.510,-288.020
289,38381.631000,480.371,-194.640,380.514,447.968,233.231,92.034,762.960,329.510,435.980
290,38381.652000,304.432,134.287,72.716,447.005,233.265,93.994,-656.040,-414.490,101.980
291,38381.696000,251.058,-55.827,-100.607,449.861,231.093,82.183,371.960,-377.490,282.980
292,38381.748000,269.838,-27.662,-46.817,449.828,230.769,67.466,753.960,-442.490,175.980
293,38381.770000,273.792,-16.597,-6.973,452.727,233.408,53.802,344.960,-439.490,88.980
294,38381.791000,264.896,17.603,-26.895,453.653,232.145,40.046,894.960,-271.490,110.980
295,38381.833000,250.069,-51.804,5.977,451.648,226.171,34.026,382.960,-347.490,87.980
296,38381.872000,253.035,14.585,-35.860,449.680,225.829,19.304,401.960,-219.490,80.980
297,38381.913000,252.046,-11.568,-3.984,452.569,227.497,5.618,457.960,-254.490,75.980
298,38381.955000,256.000,25.650,-13.946,449.658,227.382,1.686,-19.040,-358.490,90.980
299,38381.995000,255.012,-16.597,-21.914,450.581,224.328,-5.244,-9.040,-347.490,135.980
300,38382.35000,286.641,10.562,-23.907,451.441,214.499,-11.344,-239.040,-331.490,132.980
301,38382.75000,299.490,6.538,-16.934,450.460,213.476,-13.330,-461.040,-329.490,141.980
302,38382.102000,307.398,61.862,-37.852,459.235,221.263,-16.081,-512.040,-133.490,114.980
303,38382.166000,242.162,10.562,-94.630,460.215,222.265,-15.076,-298.040,-110.490,51.980
304,38382.183000,237.220,-41.745,-52.794,461.094,212.630,-12.346,-628.040,-156.490,242.980
305,38382.248000,202.625,-5.532,-48.809,460.197,218.575,-6.332,-1232.040,-136.490,137.980
306,38382.395000,179.892,0.503,-39.844,461.161,215.910,4.398,-1523.040,-171.490,112.980
307,38382.411000,151.228,-7.544,-49.805,462.195,220.083,17.241,-933.040,0.510,-54.020
308,38382.426000,165.066,20.621,-73.712,461.246,220.246,25.088,-582.040,210.510,-167.020
309,38382.435000,175.938,0.503,-179.300,463.275,229.089,29.212,87.960,-31.490,-422.020
310,38382.435000,337.050,-64.880,23.907,454.591,235.390,10.701,2666.960,153.510,-393.020
311,38382.443000,358.795,53.815,-2.988,452.637,233.430,10.653,-616.040,79.510,261.980
312,38382.472000,306.409,116.181,-26.895,452.608,227.863,22.297,-601.040,177.510,65.980
313,38382.512000,252.046,43.756,-90.646,458.431,228.977,26.257,-304.040,364.510,171.980
314,38382.556000,263.907,-24.644,-13.946,459.408,226.441,42.874,-791.040,396.510,172.980
315,38382.596000,261.931,-0.503,-24.903,459.343,217.897,51.510,211.960,381.510,14.980
316,38382.632000,256.988,-42.750,-16.934,460.291,214.195,59.275,-225.040,252.510,-93.020
317,38382.676000,249.081,-13.580,4.981,461.404,227.042,69.369,-337.040,280.510,-62.020
318,38382.716000,240.185,13.580,6.973,462.385,228.065,71.355,-66.040,166.510,-55.020
319,38382.737000,246.116,3.521,2.988,460.482,230.118,77.281,-97.040,62.510,-61.020
320,38382.773000,249.081,-1.509,4.981,459.510,230.065,75.316,156.960,-43.490,-78.020
321,38382.815000,264.896,41.745,-22.911,460.478,230.074,75.319,-17.040,-32.490,-32.020
322,38382.855000,274.780,6.538,-51.798,457.613,233.045,79.301,-152.040,307.510,5.980
323,38382.895000,269.838,-1.509,-68.732,460.539,231.541,97.907,-524.040,660.510,18.980
324,38382.935000,316.293,90.028,9.961,459.558,222.600,133.010,-1065.040,1213.510,94.980
325,38382.983000,258.965,71.921,50.802,459.555,215.523,164.234,-1566.040,1568.510,316.980
326,38383.15000,193.730,50.798,-7.969,453.608,189.447,216.598,-1318.040,1343.510,273.980
327,38383.55000,189.776,151.387,-492.078,445.037,203.882,214.939,1223.960,-391.490,-685.020
328,38383.75000,351.876,132.275,-458.210,463.351,211.332,148.458,-126.040,-3381.490,-318.020
329,38383.115000,347.923,142.334,-362.584,474.884,220.399,70.231,-2640.040,-4236.490,-1127.020
330,38383.156000,291.583,92.039,-337.681,472.985,243.617,-20.459,-1963.040,-4303.490,-1657.020
331,38383.196000,295.537,-20.621,-230.101,443.180,283.843,-119.657,-15.040,-3164.490,-1536.020
332,38383.236000,297.514,-22.633,-147.424,414.295,309.536,-174.064,383.960,-2047.490,-1294.020
333,38383.272000,321.236,-119.198,100.607,372.757,326.456,-224.771,1042.960,-611.490,-561.020
334,38383.312000,163.089,-182.570,153.401,364.825,313.090,-255.485,2199.960,821.510,-344.020
335,38383.356000,229.313,155.411,248.031,381.117,293.272,-237.258,-547.040,1929.510,214.980
336,38383.376000,470.486,18.609,206.195,402.190,266.813,-214.265,1519.960,2067.510,626.980
337,38383.413000,344.958,-56.833,12.949,407.972,261.368,-199.663,595.960,962.510,414.980
338,38383.455000,442.811,113.163,-84.669,412.782,255.870,-187.027,-18.040,850.510,268.980
339,38383.513000,382.517,101.092,-92.638,422.504,253.785,-153.710,-163.040,1212.510,161.980
340,38383.532000,226.347,-13.580,-128.498,429.295,249.623,-125.349,-315.040,1344.510,41.980
341,38383.572000,215.475,7.544,14.942,438.020,246.363,-100.886,51.960,1098.510,14.980
342,38383.613000,243.151,24.644,34.864,438.020,245.479,-96.983,502.960,312.510,-17.020
343,38383.655000,256.000,-16.597,-1.992,438.054,251.088,-106.665,318.960,-163.490,-91.020
344,38383.692000,293.560,71.921,-102.599,433.159,246.963,-115.593,182.960,-270.490,-70.020
345,38383.716000,290.595,58.845,-107.580,438.993,249.070,-110.631,-532.040,130.510,200.980
346,38383.762000,239.197,56.833,-140.451,442.879,249.258,-103.754,-297.040,351.510,135.980
347,38383.796000,208.556,7.544,-310.786,454.414,239.857,-95.112,266.960,145.510,41.980
348,38383.836000,197.683,31.686,-413.385,437.036,247.950,-116.544,-10.040,-1224.490,-97.020
349,38383.876000,188.788,40.739,-220.140,416.755,256.900,-141.885,-747.040,-1899.490,-154.020
350,38383.916000,138.378,11.568,-82.677,388.789,270.694,-164.193,-940.040,-1753.490,-232.020
351,38383.957000,128.494,-11.568,29.883,366.616,279.150,-166.994,-1147.040,-1248.490,-187.020
352,38383.996000,118.610,29.674,53.790,366.691,286.032,-162.918,-1007.040,-365.490,-49.020
353,38384.16000,367.691,-165.470,239.066,370.629,287.602,-137.378,-370.040,999.510,682.980
354,38384.53000,512.988,30.680,51.798,385.009,271.519,-124.956,1519.960,1238.510,580.980
355,38384.92000,364.726,137.305,59.767,391.839,271.261,-95.528,-660.040,791.510,152.980
356,38384.133000,222.394,70.916,-51.798,393.783,271.366,-91.599,138.960,172.510,162.980
357,38384.177000,203.614,31.686,-129.494,397.539,258.869,-87.945,-173.040,8.510,340.980
358,38384.217000,266.873,26.656,-91.642,402.323,253.997,-90.985,245.960,144.510,251.980
359,38384.257000,246.116,46.774,-92.638,407.187,255.188,-83.103,-309.040,158.510,256.980
360,38384.297000,228.324,5.532,-45.821,411.972,249.453,-81.259,169.960,111.510,304.980
361,38384.333000,260.942,2.515,-59.767,415.793,244.614,-82.339,-0.040,-7.490,192.980
362,38384.353000,258.965,49.792,-98.615,420.599,239.958,-75.568,-387.040,82.510,188.980
363,38384.397000,240.185,-1.509,-79.689,426.501,247.113,-61.667,-1121.040,172.510,186.980
364,38384.437000,230.301,35.709,-93.634,433.342,252.249,-51.732,-766.040,173.510,83.980
365,38384.496000,251.058,-2.515,-63.751,431.332,243.579,-48.006,-821.040,166.510,97.980
366,38384.517000,246.116,22.633,-57.774,432.308,242.790,-40.177,-960.040,91.510,58.980
367,38384.558000,235.243,-19.615,-28.887,432.321,242.034,-30.387,-688.040,-79.490,-8.020
368,38384.597000,240.185,-11.568,-43.829,427.458,239.981,-33.384,-470.040,-354.490,-40.020
369,38384.637000,235.243,36.715,-86.661,427.484,243.757,-38.204,-264.040,-355.490,-122.020
370,38384.657000,221.405,-18.609,-58.770,421.739,251.316,-44.913,-219.040,-389.490,-117.020
371,38384.705000,249.081,-3.521,-71.720,424.654,253.221,-47.806,-130.040,-374.490,-81.020
372,38384.737000,233.266,1.509,-68.732,415.934,253.891,-57.617,310.960,-414.490,-139.020
373,38384.773000,255.012,7.544,-61.759,410.065,250.577,-73.393,384.960,-573.490,-191.020
374,38384.818000,294.548,16.597,-20.918,404.312,260.704,-95.736,236.960,-988.490,-339.020
375,38384.858000,390.425,26.656,-6.973,392.711,267.711,-125.024,27.960,-1391.490,-578.020
376,38384.893000,512.988,154.405,194.241,370.610,291.830,-165.723,-192.040,-1944.490,-870.020
377,38384.935000,431.938,-221.800,-163.362,340.852,321.937,-195.518,-1345.040,-1764.490,-1680.020
378,38384.955000,287.629,-34.703,-200.218,323.362,322.803,-236.724,3012.960,-1298.490,-1787.020
379,38384.996000,122.564,-111.151,-59.767,299.907,309.740,-291.000,2915.960,284.510,-1707.020
380,38385.36000,106.749,-100.086,-21.914,305.756,313.745,-287.956,731.960,1331.510,-1445.020
381,38385.76000,80.062,-140.322,-81.681,330.179,332.103,-258.078,697.960,2890.510,-1213.020
382,38385.116000,133.436,-164.464,-137.463,368.131,342.525,-197.946,434.960,3514.510,-696.020
383,38385.173000,245.127,-349.548,-217.152,410.541,316.769,-152.337,2986.960,3877.510,324.980
384,38385.197000,202.625,-120.204,-272.934,439.251,281.475,-137.369,5674.960,4003.510,649.980
385,38385.235000,113.668,63.874,-298.833,476.672,240.138,-92.117,1653.960,3707.510,1338.980
386,38385.275000,250.069,125.234,-402.428,500.818,217.094,-3.337,-2638.040,2263.510,1598.980
387,38385.295000,329.143,233.870,-252.016,511.315,192.926,40.278,-738.040,449.510,811.980
388,38385.335000,390.425,401.855,-75.704,514.033,176.213,29.126,-932.040,-686.490,259.980
389,38385.376000,353.853,287.183,77.696,515.994,179.123,28.214,-133.040,-308.490,103.980
390,38385.416000,289.606,219.788,-95.626,519.882,181.102,28.266,-1984.040,-739.490,-187.020
391,38385.456000,269.838,246.947,-204.202,512.180,187.542,15.644,-1621.040,-1263.490,-663.020
392,38385.497000,267.861,121.210,-80.685,505.598,210.432,0.447,-2412.040,-1254.490,-1188.020
393,38385.537000,211.521,134.287,-89.650,497.252,248.146,-1.675,-2006.040,-897.490,-1501.020
394,38385.578000,147.274,48.786,-93.634,483.081,282.093,3.952,-1330.040,-302.490,-1563.020
395,38385.598000,144.309,-7.544,-38.848,474.824,323.302,28.385,-1199.040,417.510,-1376.020
396,38385.638000,299.490,-101.092,-467.175,468.418,352.275,69.222,-934.040,1265.510,-1425.020
397,38385.675000,458.625,-119.198,78.693,460.657,354.638,47.683,4262.960,1711.510,-700.020
398,38385.716000,390.425,-340.495,-50.802,460.817,365.857,72.449,-1903.040,663.510,201.980
399,38385.756000,341.992,-129.257,-57.774,471.335,349.801,87.806,-965.040,-263.490,426.980
400,38385.796000,262.919,-116.181,-98.615,476.024,336.105,80.647,-522.040,-1274.490,537.980
401,38385.837000,248.093,154.405,-111.564,481.678,325.029,59.819,-1661.040,-1572.490,554.980
402,38385.873000,240.185,-40.739,14.942,484.444,315.823,37.065,-1303.040,-1647.490,532.980
403,38385.918000,211.521,-6.538,-13.946,488.986,294.555,-5.566,706.960,-1351.490,601.980
404,38385.947000,194.718,51.804,10.957,491.776,289.103,-34.120,1186.960,-1108.490,700.980
405,38385.975000,182.857,59.851,31.875,492.457,266.114,-65.029,860.960,-647.490,490.980
406,38386.15000,181.869,63.874,13.946,490.307,248.188,-85.045,861.960,-265.490,403.980
407,38386.75000,205.591,75.945,-274.926,496.033,243.089,-98.875,1048.960,-253.490,226.980
408,38386.96000,351.876,131.269,11.953,484.409,243.709,-109.673,-250.040,-507.490,-418.020
409,38386.141000,397.344,200.676,-65.743,477.537,236.523,-124.557,1252.960,-33.490,-158.020
410,38386.177000,161.112,30.680,-134.475,483.334,233.862,-115.778,-316.040,140.510,508.980
411,38386.215000,272.803,19.615,-49.805,492.850,216.588,-111.238,160.960,266.510,627.980
412,38386.236000,241.174,-83.992,-101.603,499.609,213.008,-100.516,-386.040,147.510,338.980
413,38386.276000,254.023,-64.880,-93.634,504.501,216.227,-88.666,170.960,377.510,-182.020
414,38386.320000,245.127,64.880,-61.759,506.593,230.959,-81.470,293.960,398.510,-213.020
415,38386.372000,241.174,42.750,-58.770,508.555,235.638,-90.188,40.960,315.510,-60.020
416,38386.410000,210.533,34.703,-64.747,513.368,228.415,-67.783,-1272.040,575.510,198.980
417,38386.481000,222.394,25.650,-41.837,511.423,225.656,-60.003,-1242.040,113.510,67.980
418,38386.513000,255.012,19.615,-25.899,508.548,226.771,-52.139,-839.040,-404.490,-62.020
419,38386.558000,252.046,-37.721,-39.844,506.604,226.666,-56.068,-573.040,-480.490,-72.020
420,38386.588000,249.081,-51.804,-45.821,503.661,224.480,-65.930,148.960,-488.490,-175.020
421,38386.661000,249.081,19.615,-46.817,494.020,232.628,-88.324,706.960,-594.490,-285.020
422,38386.691000,256.988,16.597,-101.603,487.256,237.049,-104.912,500.960,-733.490,-286.020
423,38386.708000,273.792,-19.615,-131.486,484.349,240.495,-123.474,209.960,-596.490,-124.020
424,38386.801000,204.602,26.656,-168.342,484.394,245.327,-124.347,-1163.040,-406.490,307.980
425,38386.825000,185.822,115.175,-113.556,484.391,243.537,-117.522,-1204.040,-101.490,432.980
426,38386.875000,208.556,122.216,-74.708,485.354,239.101,-98.986,-756.040,115.510,257.980
427,38386.883000,229.313,53.815,-96.623,485.379,241.108,-96.000,279.960,305.510,14.980
428,38386.935000,239.197,-16.597,-136.467,488.267,237.468,-86.268,88.960,489.510,126.980
429,38386.972000,265.884,32.692,-18.926,494.989,231.774,-83.438,633.960,407.510,106.980
430,38386.988000,234.255,14.585,-94.630,492.072,229.847,-81.526,601.960,284.510,183.980
431,38387.2000,257.977,1.509,-63.751,499.682,216.352,-80.829,591.960,238.510,97.980
432,38387.18000,255.012,6.538,-62.755,500.635,215.347,-82.810,824.960,228.510,-0.020
433,38387.61000,241.174,13.580,-45.821,502.551,213.424,-82.849,110.960,78.510,32.980
434,38387.70000,241.174,-10.562,-53.790,501.596,215.292,-85.751,52.960,-42.490,-0.020
435,38387.117000,236.232,11.568,-48.809,501.551,210.459,-84.878,-99.040,-190.490,-28.020
436,38387.152000,230.301,21.627,-47.813,496.644,204.458,-90.906,-277.040,-355.490,10.980
437,38387.188000,248.093,14.585,-97.619,497.672,212.968,-101.502,-267.040,-435.490,109.980
438,38387.233000,246.116,-27.662,-142.444,495.737,213.833,-105.409,0.960,-260.490,64.980
439,38387.268000,244.139,-13.580,-113.556,498.656,215.782,-106.341,43.960,0.510,-46.020
440,38387.306000,242.162,6.538,-78.693,494.791,216.672,-108.290,174.960,51.510,-63.020
441,38387.360000,248.093,2.515,-92.638,495.733,213.790,-107.372,104.960,42.510,-87.020
442,38387.367000,230.301,7.544,-99.611,490.010,221.565,-104.269,35.960,132.510,-159.020
443,38387.410000,239.197,45.768,-94.630,492.959,224.679,-96.348,124.960,205.510,-165.020
444,38387.447000,237.220,-36.715,-60.763,489.121,226.712,-90.427,-198.040,112.510,-89.020
445,38387.490000,230.301,25.650,-64.747,494.027,233.577,-89.284,-252.040,63.510,-159.020
446,38387.532000,229.313,42.750,-69.728,490.188,236.473,-88.247,-245.040,-76.490,-151.020
447,38387.570000,244.139,0.503,-70.724,486.283,233.458,-91.264,-123.040,-143.490,-193.020
448,38387.611000,266.873,23.639,-93.634,483.538,249.913,-91.886,105.960,-127.490,-226.020
449,38387.648000,221.405,45.768,-108.576,481.551,244.112,-90.057,6.960,10.510,-158.020
450,38387.667000,247.104,20.621,-78.693,479.694,251.882,-88.908,-138.040,100.510,-45.020
451,38387.710000,257.977,20.621,-32.872,481.603,249.010,-87.987,-205.040,-27.490,-72.020
452,38387.747000,259.954,4.527,-42.833,480.669,253.725,-93.768,65.960,-241.490,-219.020
453,38387.790000,257.977,31.686,-89.650,475.831,255.426,-102.567,74.960,-298.490,-319.020
454,38387.828000,205.591,13.580,-61.759,467.330,278.447,-110.900,-7.040,-381.490,-387.020
455,38387.871000,207.568,-7.544,-44.825,457.719,288.644,-128.345,72.960,-784.490,-491.020
456,38387.908000,296.525,26.656,-56.778,449.070,298.808,-147.751,-59.040,-935.490,-573.020
457,38387.951000,415.135,15.591,9.961,434.678,313.013,-157.273,-93.040,-1331.490,-866.020
458,38387.988000,512.988,-44.762,-30.879,404.798,329.636,-182.464,-346.040,-1971.490,-1030.020
459,38388.7000,394.378,18.609,-190.257,367.273,355.892,-207.458,-169.040,-1647.490,-1270.020
460,38388.50000,201.637,38.727,-191.253,338.432,374.077,-206.134,117.960,-618.490,-1030.020
461,38388.87000,93.900,-48.786,-27.891,337.344,361.468,-205.436,1589.960,890.510,-81.020
462,38388.130000,111.691,-32.692,-53.790,359.260,325.892,-200.295,2281.960,1735.510,363.980
463,38388.167000,133.436,24.644,-91.642,380.408,309.832,-189.820,2252.960,2630.510,677.980
464,38388.210000,159.135,96.063,-121.525,412.076,273.336,-142.511,999.960,3042.510,803.980
465,38388.252000,254.023,34.703,-158.381,442.092,262.431,-77.966,102.960,3126.510,1027.980
466,38388.307000,231.290,60.857,-177.307,459.454,241.845,-6.798,206.960,2998.510,844.980
467,38388.313000,216.463,127.246,-164.358,472.947,221.243,65.342,-765.040,2789.510,678.980
468,38388.357000,298.502,58.845,-83.673,465.236,215.278,106.381,80.960,1387.510,363.980
469,38388.388000,273.792,64.880,-144.436,463.406,227.708,98.808,1355.960,-120.490,-94.020
470,38388.428000,394.378,65.886,91.642,463.374,226.521,88.975,519.960,-82.490,-54.020
471,38388.466000,287.629,74.939,56.778,464.376,229.508,91.986,-456.040,-146.490,77.980
472,38388.516000,242.162,45.768,-8.965,465.330,227.619,93.907,-301.040,-101.490,-76.020
473,38388.547000,206.579,-10.562,-36.856,462.482,234.279,89.145,251.960,-80.490,-215.020
474,38388.591000,194.718,37.721,21.914,459.570,232.395,93.020,-209.040,248.510,-133.020
475,38388.641000,202.625,62.868,-11.953,457.689,233.778,112.660,-923.040,410.510,-84.020
476,38388.648000,236.232,135.293,-18.926,454.791,232.024,122.422,-1687.040,-105.490,-220.020
477,38388.691000,293.560,211.741,54.786,451.834,222.675,139.860,-2741.040,-442.490,-369.020
478,38388.728000,273.792,186.593,99.611,452.896,227.107,164.477,-3228.040,-396.490,-875.020
479,38388.771000,270.826,14.585,126.506,441.351,225.851,200.709,-1242.040,739.510,-950.020
480,38388.807000,270.826,99.081,27.891,426.098,240.198,242.183,-768.040,1477.510,-731.020
481,38388.851000,305.421,-47.780,-255.004,417.310,220.846,292.730,-2074.040,927.510,-480.020
482,38388.888000,283.676,-161.446,-55.782,407.947,253.675,289.516,2327.960,647.510,-663.020
483,38388.931000,310.363,-284.165,-93.634,407.958,253.783,294.422,-289.040,173.510,-1.020
484,38388.950000,282.687,88.016,103.595,409.763,239.347,299.008,-420.040,-250.490,38.980
485,38388.992000,270.826,-20.621,43.829,405.981,249.838,292.369,452.960,-22.490,-43.020
486,38389.28000,264.896,-106.122,-5.977,408.936,256.533,286.640,488.960,-161.490,68.980
487,38389.71000,245.127,-41.745,-63.751,410.868,260.047,269.070,774.960,-366.490,190.980
488,38389.112000,195.707,76.951,-119.533,420.398,247.304,259.000,-852.040,-725.490,349.980
489,38389.150000,244.139,-186.593,-72.716,429.959,239.265,242.171,317.960,-994.490,512.980
490,38389.190000,248.093,-2.515,37.852,437.483,220.549,226.081,688.960,-314.490,1085.980
491,38389.230000,255.012,98.075,21.914,453.759,205.865,213.040,-118.040,-527.490,1263.980
492,38389.268000,296.525,2.515,0.000,466.136,190.864,187.236,1020.960,-1035.490,431.980
493,38389.291000,342.981,247.953,-65.743,468.117,207.172,133.666,2131.960,-1526.490,-213.020
494,38389.330000,260.942,230.853,-108.576,464.297,226.099,69.354,2248.960,-1777.490,-978.020
495,38389.372000,212.510,162.452,-85.665,458.609,250.940,10.074,1527.960,-1844.490,-905.020
496,38389.415000,197.683,96.063,-72.716,448.859,250.997,-27.211,638.960,-1564.490,-605.020
497,38389.452000,206.579,4.527,-62.755,445.071,266.709,-61.193,532.960,-1101.490,-392.020
498,38389.490000,246.116,-39.733,-110.568,446.933,264.269,-84.779,127.960,-535.490,-26.020
499,38389.532000,271.815,-112.157,22.911,457.410,247.825,-87.084,-302.040,-63.490,597.980
500,38389.570000,288.618,-121.210,21.914,470.885,234.084,-55.979,-1758.040,541.510,941.980
501,38389.588000,245.127,112.157,11.953,480.561,229.798,-34.479,274.960,662.510,342.980
502,38389.632000,297.514,-43.756,-96.623,478.670,231.074,-19.745,1293.960,775.510,47.980
503,38389.670000,298.502,76.951,-29.883,477.757,234.236,-7.909,612.960,642.510,-122.020
504,38389.708000,234.255,2.515,-69.728,488.573,250.974,-1.631,216.960,380.510,64.980
505,38389.752000,243.151,-7.544,-50.802,497.206,246.830,-17.395,103.960,293.510,67.980
506,38389.790000,250.069,3.521,-53.790,490.395,243.744,-22.381,195.960,268.510,-3.020
507,38389.833000,246.116,39.733,-48.809,490.321,235.114,-17.669,54.960,200.510,37.980
508,38389.871000,235.243,17.603,-18.926,489.285,227.402,-14.901,-8.040,42.510,106.980
509,38389.915000,242.162,-1.509,17.930,487.289,221.515,-16.997,-358.040,-529.490,91.980
510,38389.930000,247.104,15.591,-93.634,485.275,215.455,-26.942,-81.040,-580.490,122.980
511,38389.971000,251.058,-25.650,-150.412,483.294,212.351,-34.861,49.960,-88.490,47.980
512,38390.10000,251.058,13.580,-93.634,484.304,216.287,-32.810,38.960,196.510,0.980
513,38390.52000,248.093,3.521,-40.840,483.371,219.255,-29.804,64.960,63.510,-11.020
514,38390.88000,245.127,-14.585,-52.794,486.267,219.219,-32.741,87.960,-21.490,-71.020
515,38390.133000,237.220,1.509,-48.809,480.481,221.988,-36.614,65.960,-104.490,-119.020
516,38390.171000,248.093,11.568,-52.794,483.410,224.908,-37.524,253.960,-235.490,-143.020
517,38390.213000,240.185,12.574,-56.778,477.681,234.387,-45.171,196.960,-340.490,-158.020
518,38390.230000,232.278,20.621,-58.770,473.817,237.046,-54.926,32.960,-493.490,-166.020
519,38390.272000,243.151,2.515,-48.809,465.093,238.558,-70.602,59.960,-621.490,-185.020
520,38390.312000,222.394,39.733,-89.650,455.319,230.460,-81.590,-184.040,-695.490,-171.020
521,38390.353000,256.000,-30.680,-89.650,449.643,246.606,-94.972,-403.040,-736.490,-148.020
522,38390.400000,254.023,33.697,-174.319,447.667,244.430,-104.831,9.960,-337.490,-142.020
523,38390.432000,179.892,104.110,-196.233,446.711,245.413,-103.831,-17.040,168.510,-20.020
524,38390.472000,232.278,-11.568,-106.584,455.501,250.697,-88.005,37.960,669.510,183.980
525,38390.513000,265.884,-1.509,-91.642,463.198,242.444,-69.539,-136.040,685.510,185.980
526,38390.548000,264.896,33.697,-74.708,466.104,240.747,-59.764,-20.040,645.510,112.980
527,38390.568000,236.232,12.574,-61.759,475.845,244.120,-42.997,-8.040,567.510,71.980
528,38390.608000,242.162,5.532,-50.802,481.684,245.385,-32.170,-149.040,432.510,97.980
529,38390.648000,218.440,25.650,-47.813,485.516,240.654,-28.344,-215.040,229.510,115.980
530,38390.688000,225.359,3.521,-51.798,482.582,235.923,-21.590,-34.040,103.510,84.980
531,38390.733000,225.359,6.538,-77.696,476.737,231.961,-22.671,101.960,-27.490,19.980
532,38390.775000,223.382,6.538,-86.661,481.608,235.849,-24.536,84.960,30.510,21.980
533,38390.813000,275.768,19.615,-69.728,481.558,230.973,-25.625,130.960,87.510,-64.020
534,38390.851000,231.290,22.633,-112.560,479.710,238.829,-20.551,59.960,304.510,-32.020
535,38390.871000,241.174,-5.532,-145.432,482.584,231.543,-0.113,61.960,898.510,11.980
536,38390.913000,332.108,76.951,-83.673,488.422,231.039,18.521,-168.040,1325.510,50.980
537,38390.953000,308.386,101.092,-64.747,491.400,229.146,63.595,-806.040,1919.510,218.980
538,38390.993000,329.143,74.939,-4.981,494.342,219.876,126.158,-1447.040,2385.510,386.980
539,38391.33000,148.263,70.916,-25.899,488.451,194.339,203.051,-2190.040,2843.510,626.980
540,38391.75000,87.969,178.546,-492.078,488.630,216.302,186.868,1955.960,-156.490,-738.020
541,38391.115000,268.849,108.134,-290.864,495.348,224.653,122.344,-382.040,-2376.490,-492.020
542,38391.155000,373.622,93.045,-229.105,508.758,219.974,80.099,-2975.040,-3014.490,-328.020
543,38391.178000,328.154,32.692,-179.300,497.264,245.622,15.921,-3093.040,-3127.490,-606.020
544,38391.212000,267.861,13.580,-114.553,462.659,279.996,-38.306,-1601.040,-2866.490,-1112.020
545,38391.256000,257.977,4.527,-106.584,421.246,309.559,-87.751,-540.040,-2587.490,-1170.020
546,38391.293000,248.093,25.650,-81.681,372.037,329.703,-120.750,-422.040,-2150.490,-1065.020
547,38391.337000,287.629,-41.745,-38.848,334.389,341.569,-138.218,-230.040,-1723.490,-955.020
548,38391.370000,303.444,-83.992,26.895,315.184,359.481,-153.551,543.960,-716.490,-761.020
549,38391.413000,277.745,-133.281,89.650,308.419,362.134,-162.333,923.960,37.510,-563.020
550,38391.450000,254.023,-84.998,153.401,316.177,362.382,-154.466,93.960,1281.510,177.980
551,38391.495000,145.297,169.493,-492.078,338.280,342.685,-133.282,1129.960,2191.510,647.980
552,38391.521000,456.649,120.204,74.708,354.667,336.999,-134.354,2030.960,1481.510,744.980
553,38391.550000,310.363,-237.894,-84.669,368.076,319.979,-119.994,923.960,906.510,728.980
554,38391.590000,353.853,-31.686,-92.638,385.464,313.740,-102.443,-209.040,826.510,768.980
555,38391.635000,283.676,92.039,-21.914,394.127,307.245,-92.763,540.960,725.510,441.980
556,38391.673000,309.375,97.069,-84.669,401.831,301.689,-84.044,93.960,676.510,304.980
557,38391.713000,229.313,27.662,-84.669,405.638,292.320,-70.515,109.960,692.510,167.980
558,38391.752000,251.058,26.656,-55.782,411.503,297.361,-64.506,261.960,435.510,68.980
559,38391.793000,252.046,50.798,-57.774,421.209,298.642,-54.651,1.960,417.510,99.980
560,38391.813000,236.232,22.633,-69.728,420.203,292.979,-46.933,-19.040,257.510,61.980
561,38391.853000,242.162,23.639,-40.840,417.296,292.023,-44.999,-122.040,-24.490,-5.020
562,38391.893000,257.977,26.656,-51.798,413.365,286.117,-47.100,-1.040,-303.490,-86.020
563,38391.933000,234.255,61.862,-160.374,411.452,289.831,-53.886,-69.040,-30.490,63.980
564,38391.973000,212.510,61.862,-138.459,417.279,290.103,-44.061,19.960,478.510,249.980
565,38392.12000,230.301,43.756,-60.763,426.905,282.690,-32.438,-161.040,620.510,367.980
566,38392.52000,246.116,11.568,-39.844,431.701,275.293,-17.882,-228.040,404.510,285.980
567,38392.98000,256.988,21.627,-34.864,436.582,278.404,-10.938,-238.040,209.510,205.980
568,38392.133000,249.081,-9.556,-35.860,441.419,278.451,-10.927,-287.040,21.510,34.980
569,38392.152000,244.139,9.556,-50.802,441.495,286.218,-10.754,-336.040,-95.490,-47.020
570,38392.193000,245.127,36.715,-58.770,436.622,283.194,-13.773,-275.040,-142.490,-68.020
571,38392.232000,246.116,3.521,-50.802,433.724,282.324,-7.915,-600.040,-172.490,-54.020
572,38392.272000,245.127,9.556,-49.805,428.866,280.313,-8.950,-405.040,-250.490,-106.020
573,38392.316000,241.174,7.544,-42.833,424.055,284.042,-13.781,-313.040,-427.490,-169.020
574,38392.356000,248.093,8.550,-26.895,423.089,286.686,-25.492,14.960,-737.490,-235.020
575,38392.396000,299.490,19.615,-14.942,414.377,290.075,-44.068,204.960,-1146.490,-363.020
576,38392.435000,478.394,104.110,43.829,406.672,300.010,-74.264,-450.040,-1852.490,-761.020
577,38392.455000,512.988,52.809,249.027,373.904,322.020,-117.975,78.960,-2523.490,-1431.020
578,38392.495000,344.958,-383.749,-394.459,334.270,335.140,-165.819,-94.040,-1985.490,-1812.020
579,38392.536000,354.842,-57.839,-205.198,286.694,332.154,-236.594,3378.960,-624.490,-2309.020
580,38392.576000,156.170,-216.770,-72.716,265.284,325.452,-267.188,2191.960,871.510,-2054.020
581,38392.616000,70.178,-225.823,-91.642,282.688,323.767,-263.266,2138.960,2670.510,-1552.020
582,38392.656000,65.236,-237.894,-169.339,304.919,319.388,-251.548,1998.960,3639.510,-1056.020
583,38392.696000,150.239,-246.947,-231.097,354.024,288.564,-218.787,2878.960,4265.510,-126.020
584,38392.737000,184.834,-274.106,-351.626,411.708,244.275,-184.344,5028.960,4556.510,496.980
585,38392.778000,120.587,-14.585,-433.307,467.413,190.734,-128.537,2432.960,4104.510,997.980
586,38392.797000,358.795,134.287,-442.272,488.676,175.774,-68.023,-3505.040,1365.510,1308.980
587,38392.831000,378.564,456.173,-105.588,496.241,154.814,-53.763,-557.040,23.510,643.980
588,38392.871000,343.969,463.214,-0.996,495.335,160.673,-51.673,-1720.040,-441.490,53.980
589,38392.911000,363.737,261.029,-203.206,489.515,161.350,-62.458,-641.040,-779.490,-681.020
590,38392.951000,297.514,269.077,-157.385,483.050,195.048,-71.530,-3647.040,-1293.490,-897.020
591,38392.991000,261.931,73.933,-82.677,469.938,235.153,-51.054,-5058.040,-1279.490,-1202.020
592,38393.38000,224.371,70.916,-87.658,455.001,285.983,-27.402,-2861.040,-669.490,-1509.020
593,38393.97000,170.996,-7.544,-125.510,444.728,321.996,-17.798,-1169.040,-272.490,-1591.020
594,38393.106000,34.595,-82.986,-85.665,443.040,341.955,8.138,-802.040,645.510,-959.020
595,38393.142000,338.039,-176.534,-461.198,444.090,346.279,27.850,-718.040,884.510,-705.020
596,38393.185000,424.031,-15.591,-64.747,442.302,362.636,22.325,1120.960,1189.510,-201.020
597,38393.213000,435.892,-262.035,10.957,449.981,348.925,57.341,-1395.040,286.510,473.980
598,38393.253000,303.444,-81.980,-53.790,460.415,325.900,64.697,-1479.040,-640.490,583.980
599,38393.296000,282.687,-104.110,-38.848,465.123,314.146,57.581,-1174.040,-1215.490,822.980
600,38393.336000,283.676,100.086,-102.599,477.385,279.555,67.627,-4538.040,-1911.490,1262.980
601,38393.373000,257.977,-64.880,4.981,485.856,255.368,67.108,-3132.040,-2025.490,1425.980
602,38393.413000,220.417,-64.880,77.696,496.051,214.199,43.660,-1133.040,-1719.490,1141.980
603,38393.432000,155.181,39.733,95.626,504.493,191.501,22.580,-55.040,-614.490,1148.980
604,38393.486000,187.799,40.739,57.774,510.996,162.571,27.836,-680.040,114.510,1039.980
605,38393.515000,211.521,50.798,-31.875,519.518,140.628,41.096,0.960,682.510,517.980
606,38393.556000,309.375,-210.735,-217.152,516.668,148.151,31.450,2064.960,276.510,171.980
607,38393.596000,512.988,20.621,287.875,508.090,164.268,18.061,1765.960,-95.490,-735.020
608,38393.636000,230.301,65.886,-103.595,502.407,178.581,9.540,756.960,-372.490,-663.020
609,38393.700000,162.100,-140.322,-222.132,498.589,188.726,-12.798,2101.960,64.510,-464.020
610,38393.718000,308.386,137.305,-58.770,492.753,184.851,-9.954,-824.040,111.510,153.980
611,38393.767000,252.046,26.656,-19.922,495.662,184.059,-3.101,445.960,65.510,165.980
612,38393.783000,261.931,-46.774,-57.774,498.564,184.088,-3.094,-209.040,-34.490,55.980
613,38393.816000,246.116,-14.585,-80.685,498.502,176.450,2.620,-189.040,225.510,-82.020
614,38393.856000,256.000,12.574,-30.879,495.705,185.354,11.638,-291.040,163.510,-45.020
615,38393.903000,234.255,-15.591,-52.794,502.478,182.788,24.344,-382.040,150.510,-22.020
616,38393.965000,244.139,-32.692,-34.864,505.535,197.508,30.561,-205.040,104.510,-132.020
617,38394.45000,258.965,12.574,-30.879,508.524,208.928,19.053,133.960,62.510,-195.020
618,38394.87000,248.093,-7.544,-26.895,503.688,211.535,7.333,389.960,-132.490,-231.020
619,38394.115000,245.127,5.532,-47.813,496.818,203.486,-2.667,679.960,-175.490,-139.020
620,38394.136000,256.000,-6.538,-39.844,490.075,208.102,-10.424,613.960,-178.490,-151.020
621,38394.165000,256.000,30.680,-29.883,490.980,203.106,-17.398,448.960,-272.490,-132.020
622,38394.190000,233.266,-2.515,-52.794,488.090,206.724,-28.111,370.960,-348.490,-133.020
623,38394.211000,221.405,43.756,-9.961,485.234,214.182,-40.700,137.960,-513.490,-59.020
624,38394.238000,266.873,0.503,-107.580,481.310,211.858,-56.450,272.960,-538.490,39.980
625,38394.303000,233.266,-29.674,-128.498,482.156,201.900,-68.438,145.960,-272.490,-33.020
626,38394.317000,258.965,20.621,-97.619,477.413,211.561,-68.233,110.960,31.510,-26.020
627,38394.355000,242.162,-7.544,-103.595,481.240,206.788,-66.370,157.960,232.510,-45.020
628,38394.440000,247.104,-1.509,-66.739,485.218,216.663,-60.258,71.960,335.510,-43.020
629,38394.455000,245.127,5.532,-53.790,485.240,217.764,-54.350,117.960,277.510,-61.020
630,38394.470000,248.093,0.503,-41.837,482.343,217.779,-52.394,81.960,158.510,-64.020
631,38394.492000,248.093,12.574,-66.739,483.317,217.853,-49.449,113.960,124.510,-82.020
632,38394.548000,247.104,11.568,-52.794,481.480,226.701,-43.372,60.960,143.510,-75.020
633,38394.597000,243.151,4.527,-29.883,483.452,229.719,-39.378,-155.040,-43.490,-78.020
634,38394.617000,252.046,10.562,-54.786,481.494,227.715,-41.388,-128.040,-123.490,-63.020
635,38394.656000,273.792,-9.556,-16.934,481.570,235.482,-41.216,117.960,-220.490,-182.020
636,38394.676000,280.710,44.762,-41.837,477.651,232.338,-50.120,231.960,-389.490,-279.020
637,38394.727000,274.780,38.727,-61.759,478.691,242.725,-63.616,376.960,-375.490,-357.020
638,38394.757000,262.919,3.521,-58.770,478.763,253.102,-77.115,445.960,-342.490,-401.020
639,38394.803000,245.127,12.574,-36.856,472.011,257.632,-88.797,221.960,-496.490,-416.020
640,38394.837000,238.208,11.568,-60.763,463.283,259.985,-110.337,432.960,-666.490,-562.020
641,38394.877000,289.606,-54.821,-2.988,457.513,266.422,-123.936,163.960,-940.490,-604.020
642,38394.918000,329.143,-27.662,-26.895,438.217,279.071,-158.019,983.960,-1213.490,-814.020
643,38394.956000,363.737,35.709,-62.755,418.021,294.989,-175.360,-500.040,-1299.490,-634.020
644,38394.996000,235.243,-27.662,-221.136,405.680,319.138,-174.850,-948.040,-1018.490,-714.020
645,38395.16000,141.344,-2.515,-209.183,395.109,327.643,-180.567,247.960,-588.490,-601.020
646,38395.58000,74.131,-163.458,-85.665,397.922,317.121,-174.911,1194.960,922.510,176.980
647,38395.96000,113.668,-93.045,-36.856,415.137,295.134,-167.518,2609.960,2140.510,433.980
648,38395.141000,177.915,-67.898,-105.588,445.825,261.153,-137.807,2716.960,3080.510,649.980
649,38395.187000,267.861,9.556,-147.424,477.655,239.414,-81.344,1719.960,3072.510,617.980
650,38395.213000,303.444,-29.674,-101.603,493.075,220.514,-20.930,1045.960,2703.510,870.980
651,38395.262000,257.977,42.750,-86.661,496.807,193.691,37.322,142.960,2415.510,899.980
652,38395.297000,202.625,50.798,-118.537,503.509,174.598,92.811,-547.040,1848.510,895.980
653,38395.317000,196.695,100.086,-142.444,504.360,156.765,119.875,-898.040,775.510,554.980
654,38395.357000,140.355,135.293,-81.681,507.234,152.996,123.720,-1345.040,-131.490,321.980
655,38395.397000,445.776,-105.116,185.276,507.176,149.803,110.900,1624.960,-349.490,-57.020
656,38395.437000,356.819,111.151,218.148,507.127,145.812,105.908,-1359.040,-495.490,70.980
657,38395.478000,358.795,170.499,174.319,507.104,144.712,100.000,-777.040,-472.490,117.980
658,38395.516000,320.247,123.222,80.685,510.941,145.311,81.389,-726.040,-929.490,-200.020
659,38395.557000,275.768,159.434,-160.374,512.854,147.767,59.873,-683.040,-1179.490,-345.020
660,38395.593000,228.324,105.116,-29.883,510.910,147.662,55.944,-4145.040,-1047.490,-375.020
661,38395.640000,170.008,42.750,61.759,514.063,168.575,78.970,-3708.040,126.510,-1012.020
662,38395.655000,134.425,160.440,17.930,506.567,183.170,128.311,-3184.040,1159.510,-1123.020
663,38395.693000,135.413,-116.181,-285.883,496.182,199.614,174.745,1457.960,1886.510,-916.020
664,38395.735000,305.421,-164.464,-492.078,484.027,242.274,178.609,3675.960,1546.510,-779.020
665,38395.776000,413.158,-392.802,-107.580,491.794,247.894,166.001,2394.960,14.510,16.980
666,38395.816000,443.799,-232.864,171.331,499.281,221.778,166.418,-566.040,-341.490,177.980
667,38395.856000,277.745,72.927,-23.907,497.460,234.294,162.769,353.960,28.510,-102.020
668,38395.896000,278.734,12.574,-69.728,493.548,226.813,177.305,-339.040,521.510,118.980
669,38395.936000,258.965,48.786,-21.914,487.696,216.616,201.583,-928.040,805.510,254.980
670,38395.957000,201.637,39.733,-93.634,490.489,198.867,231.595,-869.040,972.510,387.980
671,38396.0,208.556,102.098,-203.206,488.567,198.093,241.380,-242.040,288.510,98.980
672,38396.40000,213.498,5.532,-171.331,500.925,180.265,219.436,-1113.040,-1338.490,151.980
673,38396.83000,258.965,-5.532,-36.856,517.220,173.694,178.137,-1762.040,-1930.490,69.980
674,38396.121000,220.417,-1.509,-55.782,524.756,159.487,146.456,-1855.040,-2125.490,-140.020
675,38396.160000,234.255,20.621,-28.887,533.458,171.849,86.929,-252.040,-2216.490,-527.020
676,38396.206000,188.788,-63.874,-69.728,526.808,197.608,25.705,1874.960,-1420.490,-668.020
677,38396.237000,376.587,-63.874,334.693,516.157,207.105,-23.140,2673.960,-502.490,-668.020
678,38396.281000,409.205,-122.216,224.125,513.253,207.940,-28.031,1273.960,940.510,-228.020
679,38396.298000,287.629,200.676,21.914,515.196,206.276,-16.296,-1010.040,148.510,141.980
680,38396.335000,216.463,84.998,-99.611,514.192,203.268,-20.287,980.960,263.510,-7.020
681,38396.376000,211.521,-19.615,-99.611,516.144,202.575,-8.531,-609.040,295.510,268.980
682,38396.420000,275.768,-33.697,-8.965,520.952,197.940,-0.778,671.960,445.510,32.980
683,38396.456000,256.000,5.532,-35.860,517.032,192.142,2.027,388.960,194.510,11.980
684,38396.496000,254.023,8.550,-46.817,515.135,195.122,6.012,105.960,98.510,-20.020
685,38396.698000,254.023,-1.509,-41.837,521.063,206.052,15.093,-136.040,-33.490,-69.020
686,38396.901000,237.220,-15.591,-63.751,528.872,214.714,8.437,188.960,-45.490,-134.020
687,38396.925000,247.104,38.727,-64.747,527.845,211.490,-5.366,408.960,116.510,-84.020
688,38396.942000,245.127,11.568,-14.942,522.078,216.202,-9.196,439.960,-8.490,-55.020
689,38396.942000,237.220,-9.556,3.984,518.123,210.058,-22.090,480.960,-300.490,-100.020
690,38396.942000,247.104,24.644,-25.899,510.348,210.522,-41.709,335.960,-773.490,-134.020
691,38396.964000,250.069,27.662,-95.626,507.422,212.911,-64.217,-13.040,-912.490,-54.020
692,38396.964000,235.243,15.591,-164.358,505.446,211.619,-77.979,-87.040,-546.490,59.980
693,38396.964000,250.069,-0.503,-151.409,506.423,212.599,-77.956,-179.040,-54.490,120.980
694,38396.964000,194.718,35.709,-116.545,503.534,211.816,-68.172,-31.040,447.510,48.980
695,38396.964000,258.965,-2.515,-39.844,507.360,204.388,-54.600,133.960,507.510,45.980
696,38396.971000,250.069,-4.527,-38.848,506.512,216.094,-51.400,159.960,201.510,-24.020
697,38397.1000,244.139,-8.550,-58.770,509.407,215.173,-50.434,94.960,51.510,-81.020
698,38397.35000,248.093,16.597,-63.751,508.473,218.119,-48.409,135.960,-35.490,-114.020
699,38397.66000,246.116,21.627,-61.759,504.542,212.213,-50.510,68.960,-58.490,-84.020
700,38397.87000,240.185,9.556,-78.693,506.536,218.964,-53.298,-20.040,-18.490,-94.020
701,38397.127000,239.197,0.503,-45.821,502.637,215.129,-49.468,-110.040,-70.490,-116.020
702,38397.180000,252.046,8.550,-69.728,498.862,225.684,-53.165,148.960,-150.490,-222.020
703,38397.265000,255.012,42.750,-89.650,497.966,234.283,-58.860,230.960,-126.490,-242.020
704,38397.281000,263.907,23.639,-53.790,493.120,234.150,-62.795,231.960,-8.490,-178.020
705,38397.297000,258.965,22.633,-39.844,493.120,235.034,-66.698,395.960,-138.490,-302.020
706,38397.329000,287.629,33.697,-37.852,489.313,243.519,-76.325,514.960,-275.490,-401.020
707,38397.377000,258.965,32.692,-85.665,482.597,251.910,-88.901,676.960,-232.490,-499.020
708,38397.397000,241.174,8.550,-60.763,482.753,269.256,-94.400,508.960,-235.490,-425.020
709,38397.429000,176.927,81.980,-80.685,475.019,271.878,-104.165,20.960,-426.490,-403.020
710,38397.470000,233.266,49.792,-43.829,464.452,282.173,-116.707,257.960,-602.490,-502.020
711,38397.510000,361.761,66.892,23.907,449.954,287.447,-135.253,-252.040,-1004.490,-514.020
712,38397.550000,408.216,50.798,50.802,430.722,301.584,-145.767,-1082.040,-1028.490,-649.020
713,38397.595000,308.386,-56.833,-224.125,418.195,312.508,-173.009,2045.960,-1095.490,-1012.020
714,38397.627000,237.220,-20.621,-95.626,395.940,317.534,-199.423,880.960,-322.490,-821.020
715,38397.667000,202.625,-121.210,-39.844,387.354,326.532,-183.550,-17.040,607.510,-395.020
716,38397.707000,186.811,-119.198,-74.708,398.004,320.552,-151.299,214.960,1591.510,230.980
717,38397.727000,177.915,-102.098,-127.502,413.436,307.930,-114.281,881.960,2059.510,562.980
718,38397.772000,200.649,-91.033,-146.428,434.559,284.578,-82.393,1914.960,2403.510,994.980
719,38397.806000,217.452,-18.609,-122.521,445.042,263.797,-61.258,2004.960,2477.510,1029.980
720,38397.846000,234.255,24.644,-105.588,461.359,240.699,-15.645,498.960,2468.510,975.980
721,38397.886000,232.278,3.521,-161.370,471.910,220.565,34.925,-33.040,2309.510,949.980
722,38397.926000,242.162,80.974,-144.436,475.570,190.420,74.470,-134.040,1594.510,913.980
723,38397.971000,218.440,207.717,-148.420,476.442,173.665,106.462,-1002.040,658.510,887.980
724,38398.6000,377.575,189.611,171.331,480.243,166.001,109.242,-603.040,-408.490,128.980
725,38398.26000,454.672,219.788,267.953,479.283,166.941,108.280,780.960,262.510,-94.020
726,38398.71000,305.421,70.916,148.420,481.234,167.111,115.153,-1171.040,156.510,37.980
727,38398.111000,255.012,143.340,5.977,480.221,162.268,116.024,315.960,-196.490,-413.020
728,38398.151000,287.629,251.976,-178.303,476.531,185.079,95.928,1235.960,-503.490,-659.020
729,38398.191000,281.699,25.650,18.926,478.514,191.721,88.235,-2107.040,-931.490,-867.020
730,38398.230000,250.069,17.603,21.914,473.949,217.175,100.558,-2053.040,-300.490,-908.020
731,38398.270000,240.185,7.544,45.821,465.393,228.223,121.379,-1427.040,227.510,-943.020
732,38398.311000,188.788,-3.521,37.852,455.914,239.692,161.821,-2103.040,635.510,-860.020
733,38398.350000,277.745,-147.363,-264.965,452.101,241.963,178.534,-110.040,376.510,-1052.020
734,38398.376000,309.375,-34.703,-40.840,430.269,288.909,160.898,3598.960,1351.510,-915.020
735,38398.410000,299.490,-182.570,-142.444,424.634,301.042,185.672,-846.040,551.510,-313.020
736,38398.450000,248.093,50.798,-262.973,425.444,280.167,206.785,-2260.040,-152.490,162.980
737,38398.495000,312.340,-38.727,-92.638,441.603,251.158,204.213,-1604.040,-1538.490,77.980
738,38398.527000,331.120,-37.721,-32.872,452.220,255.426,172.949,-621.040,-1908.490,-177.020
739,38398.568000,304.432,77.957,-90.646,462.726,247.180,146.311,-1461.040,-2497.490,-442.020
740,38398.610000,282.687,72.927,-84.669,475.304,259.644,89.735,-696.040,-2648.490,-547.020
741,38398.649000,217.452,-4.527,-43.829,475.301,271.942,31.169,-485.040,-2366.490,-462.020
742,38398.675000,227.336,-92.039,22.911,472.301,272.734,-19.814,469.960,-1665.490,-295.020
743,38398.710000,144.309,-11.568,29.883,474.122,269.905,-61.061,655.960,-959.490,184.980
744,38398.749000,200.649,-76.951,94.630,484.656,259.286,-63.236,-401.040,-3.490,807.980
745,38398.790000,312.340,-38.727,-219.144,497.536,487.758,-48.331,-691.040,-20.490,1036.980
746,38398.835000,381.529,89.022,27.891,498.928,231.596,-49.111,389.960,448.510,225.980
747,38398.892000,322.224,50.798,-80.685,495.964,224.814,-47.306,597.960,358.510,102.980
748,38398.920000,274.780,88.016,-87.658,502.679,217.286,-39.614,-8.040,378.510,418.980
749,38398.951000,257.977,-31.686,-73.712,504.544,207.834,-29.032,213.960,417.510,388.980
750,38398.980000,255.012,-11.568,-84.669,510.354,205.301,-14.366,-42.040,366.510,201.980
751,38399.27000,266.873,29.674,-58.770,513.276,204.639,-1.626,55.960,410.510,117.980
752,38399.103000,257.977,18.609,-42.833,510.455,210.673,9.289,-249.040,292.510,148.980
753,38399.130000,242.162,1.509,-58.770,519.496,243.897,15.929,-77.040,154.510,72.980
754,38399.162000,240.185,6.538,-64.747,531.970,243.912,-33.077,-176.040,119.510,68.980
755,38399.233000,221.405,32.692,-40.840,530.560,195.639,-21.403,-339.040,-28.490,109.980
756,38399.282000,224.371,-7.544,-48.809,522.813,192.846,-12.655,-75.040,-176.490,112.980
757,38399.326000,241.174,-2.515,-66.739,519.833,185.029,-13.816,-10.040,-300.490,48.980
758,38399.342000,243.151,44.762,-77.696,518.757,174.297,-16.017,34.960,-265.490,59.980
759,38399.350000,256.988,-34.703,-114.553,523.625,178.163,-18.863,168.960,32.510,12.980
760,38399.366000,235.243,2.515,-85.665,516.879,180.988,-19.796,90.960,189.510,-59.020
761,38399.406000,256.988,-5.532,-54.786,518.899,189.744,-19.597,357.960,184.510,-104.020
762,38399.442000,248.093,-0.503,-94.630,519.967,198.643,-12.533,351.960,226.510,-111.020
763,38399.461000,243.151,21.627,-69.728,518.987,195.871,-5.731,554.960,409.510,-100.020
764,38399.502000,246.116,23.639,-32.872,514.140,193.969,-1.861,394.960,323.510,-6.020
765,38399.542000,246.116,0.503,-30.879,515.135,196.006,2.109,229.960,137.510,14.980
766,38399.583000,239.197,-13.580,-28.887,512.245,196.970,3.105,4.960,-123.490,-83.020
767,38399.622000,253.035,4.527,-54.786,515.206,203.730,0.319,-133.040,-269.490,-156.020
768,38399.663000,251.058,-2.515,-83.673,511.346,205.548,-3.571,-160.040,-136.490,-174.020
769,38399.697000,252.046,40.739,-81.681,507.432,200.677,-2.707,-69.040,30.510,-169.020
770,38399.746000,252.046,8.550,-30.879,505.610,212.309,-2.453,10.960,77.510,-98.020
771,38399.759000,249.081,-6.538,-21.914,510.485,217.124,-6.258,17.960,-101.490,-124.020
772,38399.806000,275.768,27.662,-53.790,509.553,220.977,-7.155,210.960,-208.490,-183.020
773,38399.841000,271.815,32.692,-44.825,507.688,229.544,-13.834,298.960,-197.490,-233.020
774,38399.881000,253.035,22.633,-69.728,506.716,231.261,-23.604,518.960,-243.490,-360.020
775,38399.917000,174.950,18.609,-74.708,500.046,242.738,-28.267,482.960,-256.490,-408.020
776,38399.960000,223.382,18.609,-97.619,493.339,252.100,-40.822,557.960,-332.490,-414.020
777,38400.5000,210.533,-28.668,-85.665,488.555,260.488,-54.375,595.960,-277.490,-499.020
778,38400.39000,240.185,-50.798,-55.782,480.784,259.227,-64.226,152.960,-484.490,-434.020
779,38400.80000,452.695,47.780,33.868,469.328,279.070,-83.423,-27.040,-998.490,-616.020
780,38400.110000,512.988,11.568,61.759,448.044,284.149,-107.872,-99.040,-1396.490,-714.020
781,38400.153000,244.139,-19.615,-240.062,426.079,314.849,-114.101,-865.040,-840.490,-686.020
782,38400.180000,128.494,-75.945,-199.222,406.886,332.006,-119.645,103.960,-345.490,-649.020
783,38400.222000,103.784,-163.458,-135.471,403.827,318.148,-130.746,2248.960,506.510,189.980
784,38400.262000,43.490,-109.139,-138.459,413.212,289.052,-134.314,1663.960,1068.510,879.980
785,38400.302000,47.444,-33.697,-150.412,428.483,266.075,-126.947,1836.960,1583.510,1233.980
786,38400.342000,117.622,24.644,-117.541,442.653,225.957,-104.271,1358.960,1751.510,1198.980
787,38400.381000,170.996,23.639,-107.580,463.742,198.765,-70.507,1232.960,2059.510,1145.980
788,38400.401000,250.069,82.986,-88.654,482.918,170.884,-23.033,700.960,2375.510,1111.980
789,38400.441000,281.699,233.870,-48.809,494.461,150.113,42.234,-481.040,2532.510,878.980
790,38400.488000,339.027,-249.965,-152.405,489.532,128.059,100.574,-2120.040,1737.510,542.980
791,38400.522000,352.865,126.240,-68.732,481.879,134.974,109.537,1843.960,1013.510,-284.020
792,38400.562000,381.529,204.699,259.984,481.045,147.693,114.721,-124.040,441.510,-220.020
793,38400.602000,307.398,92.039,133.479,483.992,150.785,121.661,-627.040,9.510,-315.020
794,38400.642000,274.780,30.680,-31.875,486.039,165.971,105.331,1514.960,-613.490,-746.020
795,38400.682000,253.035,304.283,-150.412,479.292,175.830,71.212,670.960,-1144.490,-670.020
796,38400.733000,275.768,20.621,-21.914,483.273,187.496,70.499,-3723.040,-1177.490,-679.020
797,38400.742000,236.232,38.727,7.969,483.447,200.614,93.346,-3734.040,-504.490,-887.020
798,38400.782000,219.429,10.562,9.961,476.790,207.818,115.066,-2726.040,311.510,-912.020
799,38400.822000,240.185,54.821,16.934,473.130,219.474,161.408,-1974.040,1183.510,-928.020
800,38400.861000,258.965,-266.059,-252.016,463.651,230.059,205.753,-479.040,851.510,-905.020
801,38400.902000,260.942,227.835,-78.693,446.639,273.362,196.872,4735.960,1782.510,-745.020
802,38400.942000,385.483,-515.521,-75.704,434.113,268.450,243.808,-2987.040,1137.510,-82.020
803,38400.982000,255.012,71.921,-116.545,422.554,270.580,257.560,272.960,951.510,-96.020
804,38401.23000,207.568,118.193,-162.366,428.245,256.333,269.024,-1126.040,-121.490,80.980
805,38401.45000,232.278,-32.692,-77.696,433.914,244.523,258.967,-650.040,-1194.490,47.980
806,38401.85000,271.815,65.886,-44.825,446.475,250.666,223.826,174.960,-1454.490,-101.020
807,38401.125000,268.849,67.898,-118.537,465.699,247.014,181.617,-698.040,-2311.490,-313.020
808,38401.170000,246.116,34.703,-97.619,481.178,260.369,120.164,-33.040,-2576.490,-449.020
809,38401.205000,212.510,5.532,-86.661,489.822,268.653,51.720,260.960,-2451.490,-369.020
810,38401.245000,235.243,-48.786,20.918,483.888,269.114,-13.006,391.960,-2173.490,-163.020
811,38401.286000,225.359,-35.709,58.770,482.844,268.371,-46.367,409.960,-1353.490,255.980
812,38401.321000,205.591,-31.686,58.770,486.484,252.120,-81.043,441.960,-689.490,446.980
813,38401.360000,289.606,193.635,-25.899,486.456,249.208,-81.108,-844.040,237.510,297.980
814,38401.382000,405.251,82.986,-21.914,487.264,233.597,-85.375,1569.960,308.510,65.980
815,38401.434000,256.988,61.862,-114.553,493.064,233.611,-87.324,154.960,-55.490,223.980
816,38401.465000,192.741,-4.527,-144.436,497.762,219.116,-86.655,186.960,134.510,429.980
817,38401.505000,260.942,-11.568,-108.576,500.635,214.463,-78.907,188.960,341.510,456.980
818,38401.561000,260.942,0.503,-85.665,503.466,205.883,-73.208,112.960,378.510,206.980
819,38401.586000,216.463,-13.580,-82.677,502.531,208.829,-71.183,501.960,337.510,151.980
820,38401.632000,218.440,15.591,-75.704,504.393,200.218,-66.467,212.960,242.510,146.980
821,38401.677000,286.641,41.745,-31.875,503.397,198.180,-70.437,304.960,-4.490,57.980
822,38401.686000,239.197,4.527,-93.634,505.219,187.434,-74.594,36.960,-132.490,201.980
823,38401.806000,236.232,-15.591,-170.335,507.182,189.480,-70.622,28.960,159.510,160.980
824,38401.822000,245.127,29.674,-110.568,508.137,185.844,-59.913,-39.040,634.510,29.980
825,38401.968000,253.035,23.639,-73.712,513.064,191.155,-41.152,-464.040,631.510,79.980
826,38402.1000,235.243,-38.727,-45.821,517.979,195.474,-23.394,-512.040,434.510,-12.020
827,38402.16000,244.139,-9.556,-74.708,517.190,211.257,-11.278,180.960,434.510,-109.020
828,38402.26000,246.116,13.580,-75.704,524.951,215.065,-18.042,-2.040,525.510,-101.020
829,38402.26000,242.162,7.544,-33.868,522.902,200.742,-6.596,-22.040,556.510,-53.020
830,38402.26000,235.243,26.656,-0.996,521.945,199.071,6.114,-102.040,355.510,-0.020
831,38402.72000,235.243,15.591,-3.984,522.928,199.232,12.984,-163.040,-31.490,67.980
832,38402.105000,250.069,24.644,-46.817,524.844,198.193,9.042,-134.040,-158.490,92.980
833,38402.120000,264.896,-32.692,-43.829,522.818,189.372,5.900,35.960,-149.490,100.980
834,38402.156000,255.012,-21.627,-52.794,521.836,188.349,3.914,41.960,-115.490,9.980
835,38402.174000,263.907,22.633,-49.805,523.840,196.070,1.148,-58.040,-140.490,-32.020
836,38402.215000,252.046,1.509,-56.778,522.868,196.017,-0.817,-122.040,-113.490,-20.020
837,38402.255000,236.232,3.521,-64.747,522.899,199.836,-3.674,176.960,-39.490,-52.020
838,38402.294000,233.266,5.532,-57.774,522.880,197.894,-3.717,246.960,-46.490,-62.020
839,38402.332000,235.243,-1.509,-44.825,519.962,197.715,-10.592,241.960,-151.490,-87.020
840,38402.372000,238.208,11.568,-73.712,516.149,204.387,-14.374,182.960,-174.490,-106.020
841,38402.413000,252.046,7.544,-83.673,519.052,205.300,-18.271,3.960,-93.490,-62.020
842,38402.453000,247.104,25.650,-64.747,517.126,205.367,-14.351,91.960,42.510,-45.020
843,38402.473000,271.815,-6.538,-53.790,514.153,197.615,-12.568,81.960,61.510,-50.020
844,38402.512000,268.849,40.739,-47.813,514.236,206.331,-13.355,-151.040,-12.490,-66.020
845,38402.549000,265.884,39.733,-44.825,515.184,204.399,-13.396,-250.040,-41.490,-58.020
846,38402.591000,257.977,-4.527,-35.860,513.365,216.052,-12.160,-2.040,-151.490,-169.020
847,38402.634000,239.197,23.639,-58.770,516.282,219.748,-21.878,222.960,-198.490,-260.020
848,38402.674000,195.707,6.538,-65.743,511.451,222.398,-31.636,487.960,-346.490,-398.020
849,38402.746000,207.568,17.603,-96.623,503.769,229.917,-39.331,537.960,-311.490,-360.020
850,38402.777000,201.637,18.609,-69.728,500.868,233.427,-54.950,1106.960,-174.490,-495.020
851,38402.793000,167.042,8.550,-28.887,491.186,236.785,-74.509,1354.960,-465.490,-655.020
852,38402.813000,328.154,-75.945,-104.591,478.668,245.141,-86.118,186.960,-477.490,-255.020
853,38402.853000,373.622,90.028,1.992,472.050,264.169,-100.419,166.960,-642.490,-622.020
854,38402.893000,512.988,-4.527,47.813,453.719,274.152,-123.772,83.960,-1145.490,-744.020
855,38402.933000,412.170,-35.709,-25.899,430.602,289.869,-148.969,178.960,-1073.490,-862.020
856,38402.973000,168.031,-61.862,-313.774,408.593,313.989,-145.538,-701.040,-511.490,-710.020
857,38403.13000,22.734,-64.880,-131.486,398.110,331.253,-150.081,641.960,61.510,-548.020
858,38403.53000,55.351,-146.358,-122.521,394.172,325.282,-155.125,1446.960,622.510,183.980
859,38403.93000,35.583,-72.927,-59.767,405.522,298.254,-153.739,1934.960,1473.510,739.980
860,38403.113000,117.622,46.774,-136.467,424.535,260.881,-140.800,2428.960,1959.510,719.980
861,38403.151000,250.069,-55.827,-167.346,439.880,243.017,-121.550,2355.960,1899.510,88.980
862,38403.192000,313.328,-9.556,-150.412,448.432,224.008,-107.244,2361.960,1717.510,140.980
863,38403.232000,336.062,61.862,-68.732,457.975,206.993,-90.931,1237.960,1400.510,512.980
864,38403.272000,310.363,38.727,-42.833,464.743,203.499,-76.284,193.960,1152.510,577.980
865,38403.312000,309.375,24.644,-45.821,473.357,188.611,-51.099,383.960,1093.510,563.980
866,38403.353000,237.220,39.733,-109.572,472.213,165.775,-30.034,459.960,902.510,795.980
867,38403.393000,169.019,-3.521,67.735,483.775,155.748,-5.716,-607.040,1108.510,878.980
868,38403.433000,148.263,164.464,-171.331,497.234,137.455,39.017,-2680.040,863.510,672.980
869,38403.453000,185.822,120.204,8.965,496.232,127.435,69.193,-2375.040,496.510,189.980
870,38403.496000,295.537,-138.310,-13.946,491.446,130.516,79.058,1438.960,588.510,-387.020
871,38403.536000,368.680,47.780,121.525,489.596,140.119,75.345,1203.960,314.510,-461.020
872,38403.576000,344.958,-59.851,35.860,487.684,141.201,81.249,-1866.040,-427.490,-139.020
873,38403.616000,343.969,243.929,-83.673,487.683,142.948,72.461,-2026.040,-1000.490,-336.020
874,38403.656000,322.224,18.609,71.720,489.692,153.366,59.948,-1729.040,-746.490,-600.020
875,38403.696000,246.116,180.558,6.973,483.059,166.957,63.178,-2009.040,-349.490,-1079.020
876,38403.733000,233.266,67.898,-2.988,474.691,197.422,84.430,-2211.040,-145.490,-1275.020
877,38403.754000,219.429,104.110,28.887,465.256,218.989,98.619,-1333.040,517.510,-1423.020
878,38403.795000,171.985,114.169,-21.914,456.941,251.719,134.631,-1246.040,1013.510,-1621.020
879,38403.835000,320.247,-262.035,-302.817,440.817,279.304,160.707,427.960,516.510,-1220.020
880,38403.874000,396.355,-163.458,-4.981,426.597,312.776,144.749,3641.960,1500.510,-568.020
881,38403.915000,338.039,-167.481,-187.268,418.893,306.875,188.731,-2302.040,1089.510,-286.020
882,38403.956000,185.822,67.898,-246.039,418.001,310.231,209.398,-1529.040,60.510,-613.020
883,38404.3000,268.849,-74.939,16.934,415.999,302.532,213.145,-1458.040,-742.490,-273.020
884,38404.33000,253.035,-9.556,-4.981,422.688,292.997,217.851,-1846.040,-1039.490,-90.020
885,38404.53000,252.046,-12.574,-114.553,449.540,270.737,208.587,-2158.040,-2000.490,-125.020
886,38404.106000,245.127,-45.768,-85.665,469.649,258.379,167.168,-1241.040,-2376.490,-80.020
887,38404.133000,232.278,-6.538,-110.568,485.938,252.628,119.022,-1156.040,-2431.490,-169.020
888,38404.173000,230.301,-87.010,-56.778,493.635,261.981,55.503,97.960,-2219.490,-105.020
889,38404.213000,215.475,-78.963,39.844,499.302,259.837,-0.431,785.960,-1867.490,7.980
890,38404.253000,254.023,-29.674,87.658,503.039,254.201,-37.813,1490.960,-982.490,345.980
891,38404.293000,266.873,142.334,174.319,501.982,249.812,-60.468,347.960,-134.490,8.980
892,38404.333000,512.988,-46.774,148.420,500.875,234.376,-55.909,2316.960,626.510,66.980
893,38404.374000,326.178,74.939,-28.887,503.730,229.550,-56.011,-52.040,198.510,352.980
894,38404.395000,144.309,49.792,-163.362,506.609,226.709,-54.106,55.960,-61.490,285.980
895,38404.432000,159.135,-17.603,-123.518,511.329,215.947,-60.219,421.960,14.510,359.980
896,38404.472000,231.290,-4.527,-90.646,505.459,209.979,-64.287,641.960,13.510,92.980
897,38404.513000,365.714,18.609,10.957,501.587,210.804,-69.180,848.960,113.510,-228.020
898,38404.553000,280.710,36.715,-122.521,495.760,209.648,-75.102,429.960,-31.490,-201.020
899,38404.598000,248.093,75.945,-126.506,495.809,214.523,-74.013,462.960,481.510,125.980
900,38404.633000,248.093,3.521,-101.603,503.488,206.098,-63.396,462.960,416.510,256.980
901,38404.673000,249.081,-31.686,-104.591,505.436,205.362,-53.602,216.960,525.510,28.980
902,38404.693000,244.139,30.680,-65.743,510.321,205.862,-32.987,-100.040,597.510,-18.020
903,38404.733000,242.162,-2.515,-54.786,509.319,200.243,-23.307,-59.040,554.510,-18.020
904,38404.774000,241.174,-12.574,-58.770,508.512,212.337,-2.446,60.960,498.510,-51.020
905,38404.813000,249.081,19.615,-37.852,529.322,260.410,12.394,-209.040,405.510,-78.020
906,38404.873000,256.988,-66.892,-20.918,547.614,260.610,-30.712,-18.040,372.510,62.980
907,38404.896000,248.093,34.703,-21.914,531.667,211.075,-25.961,135.960,201.510,8.980
908,38404.933000,246.116,12.574,-21.914,521.023,205.664,-2.568,35.960,38.510,63.980
909,38404.975000,232.278,6.538,-29.883,523.935,206.663,-2.540,23.960,-206.490,55.980
910,38405.15000,256.988,17.603,-59.767,519.093,206.573,-4.513,-143.040,-277.490,93.980
911,38405.32000,259.954,-7.544,-83.673,520.946,198.760,-7.625,195.960,-106.490,56.980
912,38405.75000,250.069,-0.503,-60.763,521.984,205.608,-5.509,12.960,91.510,32.980
913,38405.116000,253.035,-4.527,-33.868,520.995,203.636,-6.536,-206.040,-48.490,14.980
914,38405.156000,250.069,-2.515,-71.720,520.044,205.546,-7.476,-61.040,6.510,-0.020
915,38405.196000,251.058,3.521,-52.794,520.990,202.708,-4.595,1.960,113.510,-47.020
916,38405.236000,243.151,21.627,-30.879,517.210,211.451,-2.447,185.960,53.510,-56.020
917,38405.278000,251.058,3.521,-50.802,520.060,206.582,-4.511,365.960,-43.490,-68.020
918,38405.314000,250.069,17.603,-52.794,518.112,205.549,-6.499,353.960,-28.490,-52.020
919,38405.332000,248.093,19.615,-38.848,513.298,208.371,-8.408,244.960,-69.490,-32.020
920,38405.388000,232.278,2.515,-37.852,517.204,214.040,-17.100,-223.040,-287.490,-36.020
921,38405.416000,252.046,-17.603,-43.829,512.417,219.754,-19.925,-82.040,-372.490,-126.020
922,38405.456000,254.023,32.692,-106.584,514.338,219.643,-25.808,-1.040,-213.490,-194.020
923,38405.508000,247.104,18.609,-67.735,510.518,225.366,-28.631,8.960,-24.490,-130.020
924,38405.536000,244.139,22.633,-61.759,509.528,223.371,-30.638,55.960,24.510,-83.020
925,38405.575000,256.988,13.580,-35.860,505.700,227.260,-28.599,-11.040,-73.490,-67.020
926,38405.615000,257.977,-11.568,-36.856,507.709,235.909,-33.306,66.960,-230.490,-160.020
927,38405.634000,229.313,24.644,-58.770,503.821,236.583,-45.067,177.960,-334.490,-257.020
928,38405.680000,198.672,-7.544,-23.907,500.024,246.923,-58.575,38.960,-510.490,-301.020
929,38405.718000,224.371,22.633,-72.716,496.202,254.394,-70.185,347.960,-688.490,-403.020
930,38405.754000,210.533,24.644,-68.732,488.464,256.972,-81.912,34.960,-820.490,-446.020
931,38405.794000,269.838,18.609,-73.712,474.009,267.057,-102.312,-101.040,-929.490,-454.020
932,38405.834000,271.815,84.998,-134.475,458.570,275.213,-121.777,-206.040,-958.490,-553.020
933,38405.879000,391.413,53.815,-104.591,443.104,279.593,-136.422,-438.040,-958.490,-597.020
934,38405.914000,303.444,37.721,-88.654,428.777,298.825,-137.987,-681.040,-589.490,-420.020
935,38405.954000,164.077,57.839,-209.183,419.172,308.202,-148.586,362.960,-406.490,-548.020
936,38405.974000,186.811,-47.780,-108.576,408.642,321.497,-157.139,947.960,243.510,-732.020
937,38406.15000,210.533,-44.762,-104.591,399.860,314.529,-161.235,1465.960,647.510,-591.020
938,38406.60000,207.568,-32.692,-103.595,395.933,308.667,-161.374,1534.960,947.510,-307.020
939,38406.95000,216.463,-28.668,-89.650,405.535,301.016,-160.543,1881.960,1124.510,-140.020
940,38406.134000,218.440,8.550,-95.626,408.229,278.800,-157.107,1489.960,1179.510,141.980
941,38406.174000,211.521,36.715,-65.743,423.664,270.602,-139.605,816.960,1131.510,503.980
942,38406.214000,227.336,80.974,-76.700,432.289,259.338,-126.108,125.960,1081.510,830.980
943,38406.254000,253.035,11.568,-120.529,448.636,243.576,-99.945,-130.040,1149.510,983.980
944,38406.274000,258.965,13.580,-131.486,467.747,210.669,-60.428,-1341.040,1211.510,1832.980
945,38406.318000,261.931,106.122,-125.510,484.903,174.031,-13.153,-2884.040,983.510,1918.980
946,38406.357000,240.185,68.904,-79.689,498.200,139.212,30.232,-4311.040,421.510,1789.980
947,38406.397000,225.359,55.827,23.907,509.462,97.254,58.744,-3260.040,503.510,1457.980
948,38406.437000,228.324,39.733,59.767,507.434,82.262,83.905,-2573.040,961.510,974.980
949,38406.477000,238.208,182.570,8.965,507.274,56.070,128.433,-1772.040,1713.510,406.980
950,38406.517000,264.896,-22.633,-353.619,500.454,40.578,177.108,-2547.040,1829.510,-49.020
951,38406.564000,281.699,-253.988,-128.498,490.009,54.692,205.839,3774.960,1174.510,-676.020
952,38406.594000,312.340,3.521,37.852,485.660,104.224,209.871,3085.960,551.510,-878.020
953,38406.616000,326.178,-71.921,63.751,484.594,90.946,224.284,-2025.040,238.510,173.980
954,38406.656000,263.907,94.051,122.521,489.297,77.379,223.012,-717.040,-146.490,-33.020
955,38406.697000,300.479,26.656,46.817,492.240,83.966,212.377,308.960,-735.490,-376.020
956,38406.737000,309.375,129.257,-25.899,496.248,103.810,186.348,1659.960,-874.490,-615.020
957,38406.782000,258.965,160.440,41.837,500.301,126.738,168.233,-558.040,-411.490,-848.020
958,38406.816000,221.405,72.927,68.732,497.536,137.713,183.181,-1665.040,471.510,-1023.020
959,38406.862000,247.104,1.509,83.673,489.855,133.797,229.169,-2264.040,1200.510,-888.020
960,38406.896000,140.355,81.980,-59.767,465.710,122.515,300.456,-2362.040,2432.510,-884.020
961,38406.917000,320.247,-148.369,-103.595,448.569,145.214,325.440,1146.960,2052.510,-1045.020
962,38406.958000,285.652,52.809,-97.619,414.335,200.753,351.117,2352.960,1718.510,-908.020
963,38406.998000,244.139,-74.939,-74.708,400.024,217.505,369.111,-915.040,791.510,-623.020
964,38407.38000,198.672,-153.399,-64.747,411.592,214.576,363.186,425.960,-900.490,-385.020
965,38407.78000,239.197,55.827,294.848,426.134,222.937,339.866,114.960,-800.490,-387.020
966,38407.118000,240.185,-140.322,157.385,429.845,203.838,352.199,-167.040,149.510,152.980
967,38407.158000,244.139,52.809,-1.992,433.687,201.848,348.240,-342.040,-81.490,185.980
968,38407.198000,237.220,99.081,-128.498,439.543,210.319,333.731,961.960,-1084.490,-317.020
969,38407.218000,275.768,112.157,-69.728,458.074,238.351,276.533,1839.960,-1908.490,-445.020
970,38407.258000,318.270,116.181,-94.630,473.670,266.917,200.708,417.960,-2574.490,-410.020
971,38407.298000,296.525,28.668,-156.389,491.121,287.691,122.753,-126.040,-3152.490,-617.020
972,38407.338000,263.907,66.892,-79.689,480.409,300.122,30.824,1073.960,-3120.490,-777.020
973,38407.378000,170.008,23.639,6.973,466.884,320.422,-55.052,1480.960,-2252.490,-628.020
974,38407.419000,103.784,-9.556,64.747,455.202,322.251,-99.166,1605.960,-1243.490,-280.020
975,38407.460000,139.367,-20.621,23.907,458.025,319.755,-125.693,1142.960,698.510,158.980
976,38407.494000,512.988,-65.886,139.455,459.887,312.913,-128.783,-73.040,399.510,-388.020
977,38407.536000,336.062,220.794,-14.942,466.498,295.590,-125.231,702.960,1297.510,470.980
978,38407.556000,315.305,106.122,16.934,478.131,293.287,-102.702,-53.040,990.510,443.980
979,38407.601000,249.081,46.774,-30.879,484.840,283.946,-89.166,634.960,811.510,386.980
980,38407.641000,253.035,48.786,-86.661,490.525,267.886,-71.859,-143.040,749.510,378.980
981,38407.676000,211.521,29.674,-83.673,497.329,268.254,-58.107,94.960,904.510,395.980
982,38407.718000,311.351,72.927,-42.833,504.004,254.188,-38.792,508.960,1033.510,330.980
983,38407.759000,251.058,-8.550,-6.973,512.730,251.814,-18.232,181.960,932.510,361.980
984,38407.799000,258.965,28.668,-3.984,518.547,249.346,-0.623,-2.040,707.510,278.980
985,38407.841000,240.185,-9.556,14.942,516.554,240.848,10.952,16.960,449.510,191.980
986,38407.856000,253.035,11.568,-27.891,523.286,235.240,17.707,180.960,329.510,123.980
987,38407.896000,251.058,30.680,-33.868,519.424,233.519,29.428,139.960,371.510,126.980
988,38407.937000,254.023,4.527,-18.926,519.336,223.875,32.156,65.960,420.510,104.980
989,38407.977000,253.035,3.521,1.992,515.527,227.937,42.045,26.960,410.510,67.980
990,38408.17000,254.023,10.562,-0.996,521.331,226.224,49.864,59.960,356.510,14.980
991,38408.57000,256.000,2.515,-1.992,520.400,228.329,57.754,-20.040,340.510,-35.020
992,38408.99000,255.012,5.532,-1.992,517.476,224.568,64.529,-34.040,367.510,-83.020
993,38408.140000,254.023,4.527,-1.992,511.787,233.551,78.446,-65.040,425.510,-106.020
994,38408.179000,256.000,14.585,3.984,513.776,237.605,85.405,-8.040,540.510,-131.020
995,38408.197000,257.977,15.591,14.942,511.877,237.931,101.099,-57.040,611.510,-155.020
996,38408.237000,258.965,30.680,37.852,507.139,245.003,115.955,-295.040,629.510,-191.020
997,38408.277000,248.093,29.674,45.821,502.295,239.606,137.400,-600.040,525.510,-195.020
998,38408.317000,248.093,42.750,44.825,499.410,237.981,153.048,-784.040,392.510,-183.020
999,38408.357000,260.942,63.874,19.922,491.683,236.266,166.723,-949.040,270.510,-126.020
1000,38408.397000,307.398,51.804,-32.872,494.607,235.625,180.445,-842.040,186.510,15.980
1001,38408.437000,279.722,53.815,-89.650,493.609,231.797,183.299,-604.040,-25.490,93.980
1002,38408.481000,209.544,89.022,-120.529,492.557,223.050,183.103,-1331.040,-427.490,70.980
1003,38408.501000,214.486,69.910,-100.607,487.612,214.934,169.183,-956.040,-1203.490,-184.020
1004,38408.541000,226.347,83.992,-74.708,487.692,231.546,130.326,-342.040,-1633.490,-355.020
1005,38408.581000,258.965,104.110,-92.638,480.893,239.140,81.447,-373.040,-2146.490,-673.020
1006,38408.621000,276.757,72.927,-113.556,460.697,262.113,31.900,-372.040,-2377.490,-869.020
1007,38408.661000,284.664,74.939,-130.490,447.266,281.550,-4.962,-74.040,-2442.490,-1058.020
1008,38408.701000,274.780,57.839,-123.518,416.371,296.825,-46.856,-177.040,-2356.490,-1113.020
1009,38408.739000,245.127,47.780,-103.595,379.764,320.847,-85.626,-185.040,-2149.490,-1065.020
1010,38408.779000,231.290,32.692,-92.638,354.794,344.377,-107.712,-98.040,-1714.490,-968.020
1011,38408.801000,220.417,7.544,-39.844,328.763,359.074,-133.919,414.960,-1326.490,-822.020
1012,38408.841000,217.452,-2.515,-5.977,313.235,358.449,-155.540,894.960,-636.490,-547.020
1013,38408.881000,201.637,4.527,1.992,307.389,356.235,-165.408,687.960,10.510,-223.020
1014,38408.921000,264.896,-24.644,19.922,313.232,358.427,-156.521,-181.040,1059.510,309.980
1015,38408.961000,480.371,8.550,-59.767,328.745,358.017,-137.865,424.960,1197.510,492.980
1016,38409.1000,303.444,55.827,-70.724,351.917,349.872,-121.325,-520.040,1067.510,738.980
1017,38409.41000,286.641,33.697,-69.728,366.442,344.857,-91.006,-655.040,950.510,636.980
1018,38409.81000,239.197,53.815,-77.696,380.867,332.722,-75.554,130.960,915.510,559.980
1019,38409.146000,219.429,41.745,-100.607,389.539,325.428,-58.046,13.960,946.510,542.980
1020,38409.169000,238.208,32.692,-115.549,398.197,317.121,-42.521,54.960,1113.510,546.980
1021,38409.183000,361.761,112.157,-42.833,404.043,315.818,-16.060,393.960,1361.510,438.980
1022,38409.216000,206.579,-41.745,48.809,420.445,306.744,5.348,-231.040,1058.510,658.980
1023,38409.257000,252.046,-38.727,26.895,428.048,292.299,7.004,395.960,454.510,406.980
1024,38409.299000,245.127,-29.674,-16.934,430.963,292.457,12.898,70.960,145.510,93.980
1025,38409.341000,246.116,54.821,-49.805,427.033,286.551,10.797,97.960,50.510,73.980
1026,38409.389000,249.081,20.621,-70.724,433.831,289.508,9.897,281.960,140.510,126.980
1027,38409.417000,248.093,25.650,-46.817,431.858,284.721,13.709,74.960,237.510,124.980
1028,38409.441000,249.081,13.580,-21.914,434.771,284.857,18.621,188.960,186.510,132.980
1029,38409.481000,250.069,13.580,-37.852,441.593,289.799,19.726,174.960,42.510,71.980
1030,38409.521000,255.012,10.562,-45.821,441.536,283.974,19.597,222.960,38.510,43.980
1031,38409.561000,252.046,4.527,-47.813,439.601,283.955,19.592,168.960,93.510,-1.020
1032,38409.599000,251.058,14.585,-32.872,439.651,289.716,16.778,140.960,101.510,-22.020
1033,38409.639000,250.069,5.532,-29.883,444.472,287.843,17.727,198.960,50.510,-49.020
1034,38409.679000,253.035,8.550,-28.887,439.647,289.673,14.816,147.960,-7.490,-111.020
1035,38409.719000,252.046,14.585,-36.856,440.612,289.660,13.837,57.960,-39.490,-147.020
1036,38409.760000,248.093,21.627,-38.848,435.855,298.308,12.058,-70.040,-73.490,-161.020
1037,38409.779000,250.069,21.627,-36.856,433.927,299.238,11.094,-124.040,-88.490,-165.020
1038,38409.819000,249.081,13.580,-26.895,433.009,304.105,12.180,-193.040,-168.490,-211.020
1039,38409.861000,250.069,20.621,-26.895,433.994,306.919,7.342,-166.040,-250.490,-253.020
1040,38409.902000,249.081,38.727,-36.856,427.276,312.657,6.474,-105.040,-359.490,-237.020
1041,38409.942000,246.116,39.733,-52.794,420.429,306.593,-1.520,-115.040,-385.490,-193.020
1042,38409.979000,242.162,35.709,-57.774,416.635,315.207,-5.260,-169.040,-378.490,-155.020
1043,38410.21000,241.174,37.721,-59.767,415.666,316.060,-10.146,-150.040,-372.490,-136.020
1044,38410.61000,242.162,39.733,-60.763,412.765,317.801,-17.959,-104.040,-372.490,-108.020
1045,38410.81000,246.116,40.739,-63.751,408.910,320.547,-23.790,-15.040,-374.490,-102.020
1046,38410.121000,240.185,46.774,-49.805,406.938,318.414,-31.687,-57.040,-460.490,-106.020
1047,38410.169000,273.792,40.739,-54.786,402.083,319.078,-43.450,67.960,-567.490,-117.020
1048,38410.198000,276.757,51.804,-54.786,401.181,328.497,-55.992,-15.040,-671.490,-142.020
1049,38410.238000,282.687,71.921,-59.767,393.337,320.374,-68.937,-136.040,-851.490,-126.020
1050,38410.278000,283.676,73.933,-75.704,390.455,325.826,-84.513,-281.040,-877.490,-122.020
1051,38410.318000,244.139,51.804,-89.650,381.722,323.735,-87.520,-681.040,-549.490,-73.020
