Sample, Time, ACCX, ACCY, ACCZ, MAGX, MAGY, MAGZ, GYRX, GYRY, GYRZ
0,37936.205000,256.000,-1.509,-47.813,417.195,287.536,-72.558,77.960,173.510,152.980
1,37936.245000,256.000,15.591,-55.782,414.229,280.733,-71.734,211.960,221.510,131.980
2,37936.286000,251.058,21.627,-68.732,422.931,279.890,-69.773,145.960,253.510,138.980
3,37936.307000,250.069,4.527,-59.767,421.005,279.958,-65.853,3.960,286.510,138.980
4,37936.349000,252.046,13.580,-51.798,426.753,273.305,-62.066,62.960,325.510,125.980
5,37936.387000,249.081,10.562,-47.813,427.828,283.152,-55.961,39.960,330.510,135.980
6,37936.435000,248.093,22.633,-45.821,433.564,274.622,-49.274,33.960,338.510,148.980
7,37936.468000,249.081,15.591,-40.840,434.554,275.732,-43.363,20.960,337.510,179.980
8,37936.509000,247.104,5.532,-32.872,435.483,270.088,-35.641,47.960,296.510,186.980
9,37936.554000,255.012,-2.515,-25.899,438.352,266.276,-33.759,75.960,222.510,178.980
10,37936.595000,255.012,-3.521,-34.864,444.161,265.492,-27.880,61.960,198.510,148.980
11,37936.615000,254.023,2.515,-28.887,446.077,263.569,-27.918,-30.040,191.510,119.980
12,37936.650000,250.069,-10.562,-19.922,447.049,263.621,-25.954,12.960,156.510,103.980
13,37936.690000,249.081,-8.550,-10.957,447.957,256.899,-23.159,34.960,70.510,54.980
14,37936.725000,252.046,-7.544,-13.946,444.087,256.862,-23.168,23.960,9.510,17.980
15,37936.770000,252.046,-0.503,-29.883,450.859,256.928,-23.152,42.960,-9.490,8.980
16,37936.810000,253.035,0.503,-32.872,448.863,250.156,-21.346,50.960,0.510,11.980
17,37936.850000,252.046,-1.509,-27.891,445.961,251.012,-25.255,48.960,4.510,2.980
18,37936.890000,255.012,-0.503,-26.895,447.917,252.994,-24.227,0.960,7.510,-12.020
19,37936.910000,253.035,-2.515,-22.911,447.955,256.878,-24.140,-1.040,-6.490,-28.020
20,37936.956000,253.035,-2.515,-19.922,445.987,253.903,-26.172,-63.040,-34.490,-57.020
21,37936.990000,254.023,-0.503,-25.899,445.071,258.791,-24.104,-80.040,-45.490,-66.020
22,37937.31000,249.081,0.503,-31.875,442.164,258.720,-26.073,-93.040,-53.490,-58.020
23,37937.66000,252.046,5.532,-29.883,443.176,262.677,-23.041,-101.040,-53.490,-50.020
24,37937.106000,255.012,3.521,-33.868,442.190,260.726,-23.086,-89.040,-15.490,-33.020
25,37937.146000,252.046,0.503,-26.895,443.186,263.648,-23.019,-138.040,1.510,-34.020
26,37937.188000,254.023,7.544,-29.883,440.222,257.752,-25.118,-90.040,1.510,-30.020
27,37937.230000,252.046,3.521,-32.872,442.185,259.798,-21.146,-29.040,16.510,-17.020
28,37937.245000,250.069,1.509,-29.883,442.197,260.791,-20.143,-43.040,26.510,-14.020
29,37937.296000,251.058,4.527,-27.891,442.251,265.710,-17.092,-21.040,12.510,-9.020
30,37937.325000,252.046,2.515,-29.883,444.190,265.772,-15.125,-41.040,24.510,-4.020
31,37937.366000,252.046,1.509,-24.903,442.284,269.550,-18.968,-51.040,15.510,-9.020
32,37937.406000,254.023,5.532,-27.891,443.246,268.632,-17.025,-38.040,-2.490,-14.020
33,37937.446000,254.023,3.521,-29.883,445.124,261.941,-13.247,-44.040,7.510,-15.020
34,37937.486000,252.046,2.515,-26.895,442.262,266.702,-16.089,-23.040,-0.490,-16.020
35,37937.526000,253.035,3.521,-23.907,444.237,270.626,-15.017,-22.040,-8.490,-18.020
36,37937.546000,252.046,4.527,-28.887,443.251,268.675,-15.062,-25.040,-9.490,-16.020
37,37937.586000,252.046,3.521,-27.891,444.221,268.706,-14.079,-10.040,-8.490,-15.020
38,37937.626000,254.023,2.515,-26.895,443.202,263.799,-16.151,-20.040,-10.490,-17.020
39,37937.666000,251.058,6.538,-29.883,440.292,262.822,-15.199,-10.040,-11.490,-17.020
40,37937.714000,251.058,6.538,-28.887,439.391,269.608,-15.050,-22.040,-9.490,-18.020
41,37937.751000,254.023,5.532,-28.887,443.279,271.588,-14.998,-9.040,-11.490,-17.020
42,37937.797000,250.069,7.544,-27.891,446.142,267.711,-16.058,2.960,-20.490,-21.020
43,37937.831000,253.035,5.532,-31.875,441.321,269.584,-17.008,-0.040,-26.490,-24.020
44,37937.851000,253.035,8.550,-28.887,438.423,269.599,-15.052,-14.040,-23.490,-23.020
45,37937.891000,250.069,5.532,-29.883,438.447,272.468,-16.950,12.960,-23.490,-22.020
46,37937.937000,253.035,7.544,-31.875,439.426,274.355,-19.848,14.960,-32.490,-19.020
47,37937.971000,254.023,9.556,-31.875,439.410,272.435,-18.910,8.960,-25.490,-17.020
48,37938.11000,252.046,8.550,-30.879,439.419,273.405,-18.888,20.960,-23.490,-11.020
49,37938.77000,250.069,7.544,-31.875,438.456,273.439,-16.928,11.960,-25.490,-11.020
50,37938.98000,255.012,9.556,-32.872,435.512,270.369,-22.886,3.960,-16.490,-8.020
51,37938.126000,251.058,7.544,-30.879,437.487,274.293,-21.814,6.960,-5.490,-0.020
52,37938.169000,254.023,8.550,-28.887,437.485,274.271,-22.796,22.960,-10.490,-0.020
53,37938.190000,253.035,8.550,-30.879,439.351,267.472,-23.923,34.960,-7.490,2.980
54,37938.231000,252.046,6.538,-31.875,434.549,270.403,-20.926,0.960,-2.490,3.980
55,37938.270000,253.035,6.538,-27.891,435.550,274.252,-22.800,14.960,-3.490,-0.020
56,37938.310000,252.046,7.544,-31.875,436.522,274.305,-20.836,6.960,-0.490,-1.020
57,37938.346000,252.046,6.538,-29.883,437.452,270.431,-20.920,0.960,2.510,-1.020
58,37938.386000,252.046,7.544,-29.883,438.417,270.419,-21.899,-0.040,-2.490,-5.020
59,37938.426000,254.023,7.544,-28.887,435.482,267.435,-23.932,11.960,-7.490,-5.020
60,37938.466000,251.058,5.532,-31.875,435.578,277.165,-22.735,3.960,-5.490,-7.020
61,37938.486000,253.035,8.550,-30.879,437.485,274.271,-22.796,-5.040,-7.490,-8.020
62,37938.527000,254.023,9.556,-30.879,435.545,273.325,-20.859,10.960,-4.490,-8.020
63,37938.570000,251.058,8.550,-27.891,440.425,278.183,-22.703,5.960,-7.490,-7.020
64,37938.610000,251.058,7.544,-30.879,440.354,271.344,-24.816,5.960,-16.490,-10.020
65,37938.649000,253.035,10.562,-32.872,434.552,271.309,-23.848,1.960,-14.490,-12.020
66,37938.697000,251.058,7.544,-29.883,435.515,271.275,-25.808,-7.040,-7.490,-5.020
67,37938.730000,251.058,7.544,-29.883,433.662,279.088,-22.697,-6.040,-8.490,-5.020
68,37938.771000,251.058,10.562,-33.868,439.375,269.457,-21.918,-2.040,-8.490,-3.020
69,37938.792000,251.058,9.556,-31.875,436.546,277.174,-22.733,-0.040,-15.490,-7.020
70,37938.826000,252.046,9.556,-31.875,434.531,269.345,-24.873,-11.040,-18.490,-4.020
71,37938.872000,250.069,6.538,-30.879,436.553,278.124,-23.693,-14.040,-7.490,-4.020
72,37938.912000,254.023,10.562,-33.868,437.530,279.104,-23.669,11.960,-12.490,-4.020
73,37938.960000,250.069,9.556,-29.883,435.578,277.165,-22.735,-3.040,-18.490,-4.020
74,37938.987000,255.012,11.568,-31.875,435.508,270.326,-24.849,8.960,-13.490,-2.020
75,37939.32000,251.058,8.550,-33.868,436.480,270.378,-22.884,4.960,-1.490,2.980
76,37939.67000,252.046,9.556,-32.872,436.454,268.372,-25.871,-2.040,-2.490,2.980
77,37939.92000,251.058,11.568,-33.868,436.527,276.117,-26.679,10.960,-10.490,2.980
78,37939.139000,253.035,8.550,-33.868,432.643,274.181,-24.769,-0.040,-0.490,7.980
79,37939.172000,251.058,10.562,-31.875,437.450,271.294,-25.804,-1.040,0.510,6.980
80,37939.212000,251.058,9.556,-30.879,432.618,272.174,-27.756,13.960,-20.490,6.980
81,37939.254000,254.023,10.562,-32.872,436.527,276.117,-26.679,8.960,-20.490,6.980
82,37939.287000,250.069,10.562,-33.868,434.592,276.098,-26.684,-11.040,-2.490,10.980
83,37939.333000,252.046,7.544,-32.872,435.527,273.152,-28.709,3.960,-9.490,13.980
84,37939.376000,253.035,10.562,-33.868,434.560,273.143,-28.711,7.960,-15.490,8.980
85,37939.408000,253.035,6.538,-32.872,434.534,270.252,-27.794,-8.040,-8.490,15.980
86,37939.428000,252.046,9.556,-27.891,433.573,271.191,-28.756,-17.040,-16.490,25.980
87,37939.469000,251.058,7.544,-28.887,436.511,275.082,-29.644,-6.040,-37.490,23.980
88,37939.508000,252.046,9.556,-34.864,435.480,268.298,-28.816,-30.040,-43.490,20.980
89,37939.552000,250.069,6.538,-38.848,437.464,273.192,-27.723,-43.040,-32.490,13.980
90,37939.587000,250.069,3.521,-32.872,437.422,269.266,-29.771,-13.040,-38.490,0.980
91,37939.627000,254.023,8.550,-37.852,433.590,273.112,-29.694,20.960,-35.490,-5.020
92,37939.667000,252.046,10.562,-41.837,438.427,273.159,-29.683,31.960,-12.490,-3.020
93,37939.709000,251.058,6.538,-40.840,433.576,272.098,-31.678,20.960,17.510,0.980
94,37939.729000,252.046,7.544,-33.868,437.460,273.149,-29.685,25.960,21.510,0.980
95,37939.771000,250.069,8.550,-33.868,438.366,267.290,-31.775,28.960,18.510,5.980
96,37939.809000,252.046,7.544,-35.860,434.520,269.238,-29.778,12.960,20.510,6.980
97,37939.847000,251.058,10.562,-33.868,436.508,274.175,-26.722,-16.040,25.510,9.980
98,37939.887000,251.058,8.550,-33.868,438.434,273.223,-26.740,-31.040,17.510,9.980
99,37939.927000,253.035,7.544,-35.860,437.439,271.186,-30.710,-20.040,1.510,8.980
100,37939.981000,252.046,5.532,-34.864,435.492,269.290,-27.814,-17.040,3.510,9.980
101,37940.9000,251.058,6.538,-34.864,436.511,275.082,-29.644,-11.040,3.510,6.980
102,37940.31000,252.046,6.538,-33.868,436.438,267.336,-28.836,-12.040,7.510,7.980
103,37940.72000,253.035,7.544,-33.868,437.464,273.192,-27.723,-22.040,14.510,7.980
104,37940.119000,251.058,7.544,-33.868,440.367,273.221,-27.716,-9.040,14.510,5.980
105,37940.152000,252.046,6.538,-32.872,439.340,267.365,-28.829,-7.040,12.510,4.980
106,37940.194000,252.046,7.544,-33.868,436.482,271.284,-25.806,-9.040,15.510,5.980
107,37940.236000,251.058,8.550,-31.875,436.502,274.111,-29.666,-5.040,10.510,6.980
108,37940.270000,250.069,7.544,-32.872,435.543,274.188,-25.744,-2.040,-0.490,6.980
109,37940.310000,252.046,8.550,-34.864,437.480,274.228,-24.758,-11.040,3.510,4.980
110,37940.350000,252.046,6.538,-30.879,438.438,273.267,-24.777,-13.040,6.510,6.980
111,37940.370000,252.046,7.544,-31.875,436.445,267.401,-25.892,-4.040,0.510,6.980
112,37940.411000,253.035,6.538,-32.872,439.406,273.276,-24.775,-4.040,0.510,7.980
113,37940.454000,253.035,8.550,-32.872,439.413,274.225,-25.735,-7.040,2.510,6.980
114,37940.493000,251.058,5.532,-32.872,437.384,264.498,-25.955,-6.040,4.510,6.980
115,37940.535000,252.046,8.550,-31.875,438.408,270.332,-25.823,-0.040,3.510,4.980
116,37940.569000,251.058,7.544,-33.868,438.368,266.427,-26.891,6.960,-2.490,3.980
117,37940.635000,253.035,5.532,-29.883,437.443,270.345,-24.844,3.960,2.510,1.980
118,37940.655000,251.058,5.532,-30.879,439.408,273.298,-23.794,0.960,-1.490,-2.020
119,37940.675000,253.035,6.538,-34.864,441.338,272.389,-21.849,-10.040,-3.490,-7.020
120,37940.708000,251.058,7.544,-31.875,434.526,269.302,-26.835,-19.040,0.510,-10.020
121,37940.750000,251.058,6.538,-30.879,442.336,276.217,-24.704,-10.040,-5.490,-11.020
122,37940.790000,254.023,8.550,-29.883,436.473,270.314,-25.828,-4.040,-10.490,-11.020
123,37940.832000,252.046,8.550,-32.872,438.443,274.194,-26.718,-5.040,-6.490,-6.020
124,37940.870000,252.046,9.556,-29.883,438.433,272.339,-22.837,-3.040,-9.490,-4.020
125,37940.912000,253.035,10.562,-29.883,439.406,273.276,-24.775,-5.040,-6.490,-2.020
126,37940.953000,252.046,7.544,-33.868,437.459,272.265,-25.782,-8.040,-11.490,-0.020
127,37940.973000,253.035,7.544,-32.872,436.468,269.386,-23.887,-6.040,-9.490,0.980
128,37941.14000,252.046,7.544,-33.868,434.561,272.280,-23.827,0.960,-5.490,1.980
129,37941.49000,251.058,10.562,-32.872,436.539,277.110,-25.677,5.960,-6.490,-0.020
130,37941.88000,253.035,8.550,-33.868,439.430,276.145,-26.673,-1.040,1.510,0.980
131,37941.133000,251.058,8.550,-32.872,438.394,269.318,-27.807,-8.040,1.510,0.980
132,37941.174000,252.046,7.544,-29.883,439.311,263.567,-24.991,-19.040,1.510,2.980
133,37941.215000,252.046,8.550,-33.868,433.554,268.365,-24.896,-10.040,3.510,2.980
134,37941.248000,252.046,9.556,-30.879,433.634,276.175,-22.761,-0.040,1.510,8.980
135,37941.288000,252.046,6.538,-30.879,437.414,267.432,-24.909,-0.040,-2.490,5.980
136,37941.308000,251.058,9.556,-33.868,434.564,273.186,-26.749,1.960,-6.490,7.980
137,37941.350000,251.058,9.556,-32.872,435.468,266.421,-25.916,1.960,-5.490,5.980
138,37941.390000,253.035,10.562,-34.864,434.574,274.157,-26.727,0.960,-2.490,12.980
139,37941.430000,251.058,6.538,-30.879,439.429,275.261,-22.770,-6.040,-0.490,15.980
140,37941.472000,252.046,5.532,-31.875,437.454,271.337,-23.841,-5.040,-0.490,12.980
141,37941.518000,253.035,7.544,-32.872,438.408,270.332,-25.823,-3.040,0.510,11.980
142,37941.552000,250.069,7.544,-34.864,438.380,267.420,-25.888,3.960,-0.490,9.980
143,37941.591000,251.058,8.550,-31.875,434.533,269.367,-23.891,0.960,0.510,7.980
144,37941.611000,252.046,6.538,-33.868,436.511,274.197,-25.741,-2.040,1.510,8.980
145,37941.651000,252.046,7.544,-31.875,439.404,273.254,-25.756,-10.040,4.510,7.980
146,37941.693000,252.046,6.538,-32.872,440.310,266.511,-23.943,-7.040,0.510,5.980
147,37941.734000,254.023,6.538,-30.879,437.464,272.308,-23.820,-6.040,6.510,6.980
148,37941.774000,250.069,7.544,-31.875,438.434,273.223,-26.740,-4.040,6.510,5.980
149,37941.821000,252.046,6.538,-30.879,439.389,271.356,-23.837,-5.040,0.510,5.980
150,37941.855000,253.035,6.538,-30.879,441.360,275.237,-24.727,-3.040,-2.490,5.980
151,37941.895000,251.058,4.527,-31.875,438.424,271.368,-22.858,0.960,-2.490,6.980
152,37941.915000,253.035,7.544,-31.875,437.431,269.352,-25.847,-10.040,-2.490,2.980
153,37941.951000,252.046,8.550,-29.883,438.361,265.478,-25.931,-3.040,-5.490,3.980
154,37941.991000,251.058,8.550,-33.868,436.440,266.473,-23.952,-5.040,-6.490,6.980
155,37942.34000,253.035,7.544,-32.872,436.503,273.248,-24.782,-5.040,-4.490,4.980
156,37942.75000,251.058,7.544,-30.879,440.383,274.256,-24.751,-1.040,-5.490,6.980
157,37942.121000,253.035,7.544,-31.875,438.361,265.478,-25.931,-0.040,-4.490,7.980
158,37942.155000,251.058,4.527,-32.872,438.380,267.420,-25.888,-6.040,-13.490,5.980
159,37942.195000,249.081,8.550,-34.864,436.445,267.401,-25.892,-3.040,-8.490,5.980
160,37942.215000,252.046,6.538,-31.875,437.459,272.265,-25.782,-5.040,-6.490,6.980
161,37942.255000,252.046,5.532,-30.879,438.429,272.296,-24.799,-6.040,-16.490,4.980
162,37942.296000,252.046,6.538,-33.868,439.366,269.371,-25.842,-0.040,-20.490,0.980
163,37942.330000,251.058,7.544,-30.879,436.447,267.423,-24.911,-0.040,-21.490,2.980
164,37942.375000,250.069,10.562,-32.872,438.432,273.202,-27.721,5.960,-52.490,0.980
165,37942.410000,254.023,6.538,-38.848,438.413,272.145,-31.667,53.960,-48.490,1.980
166,37942.460000,252.046,12.574,-40.840,439.345,268.292,-30.770,-8.040,-14.490,14.980
167,37942.493000,250.069,6.538,-33.868,440.341,271.214,-30.703,-1.040,-7.490,22.980
168,37942.533000,252.046,4.527,-29.883,437.373,264.390,-30.860,18.960,-15.490,19.980
169,37942.553000,251.058,5.532,-35.860,436.452,269.235,-30.755,26.960,-18.490,24.980
170,37942.593000,251.058,4.527,-33.868,436.467,271.133,-32.674,8.960,-7.490,27.980
171,37942.634000,252.046,7.544,-31.875,439.350,269.220,-32.710,-5.040,-11.490,31.980
172,37942.673000,252.046,0.503,-35.860,441.303,270.296,-28.760,14.960,-22.490,30.980
173,37942.713000,250.069,3.521,-37.852,441.297,270.231,-31.703,-10.040,-12.490,25.980
174,37942.753000,252.046,3.521,-33.868,439.263,259.576,-29.983,-47.040,-7.490,27.980
175,37942.793000,251.058,3.521,-33.868,439.350,269.220,-32.710,-18.040,-19.490,24.980
176,37942.833000,249.081,-0.503,-33.868,441.193,259.552,-31.940,4.960,-47.490,10.980
177,37942.852000,237.220,-20.621,10.957,439.361,268.443,-23.902,-347.040,179.510,26.980
178,37942.895000,240.185,32.692,-3.984,432.479,259.402,-34.904,82.960,-319.490,-116.020
179,37942.940000,264.896,29.674,-28.887,433.509,268.818,-48.422,310.960,-696.490,-83.020
180,37942.981000,246.116,9.556,-130.490,432.449,261.754,-60.349,56.960,-368.490,-0.020
181,37943.16000,247.104,62.868,-100.607,432.460,261.862,-55.444,-28.040,95.510,153.980
182,37943.53000,256.988,5.532,-29.883,436.328,261.878,-56.416,147.960,75.510,199.980
183,37943.105000,256.988,-39.733,-35.860,437.234,255.134,-54.602,-429.040,-32.490,59.980
184,37943.132000,254.023,7.544,-48.809,436.330,261.015,-51.531,-320.040,-90.490,-76.020
185,37943.152000,239.197,-22.633,-38.848,437.354,266.850,-51.400,-456.040,-40.490,-111.020
186,37943.220000,243.151,-6.538,-28.887,435.494,273.713,-47.329,-366.040,-62.490,-116.020
187,37943.236000,243.151,4.527,-21.914,427.736,272.580,-51.293,-227.040,-205.490,-132.020
188,37943.277000,242.162,-3.521,-14.942,427.788,279.247,-57.029,-114.040,-315.490,-152.020
189,37943.317000,248.093,11.568,-59.767,420.967,275.190,-62.037,-111.040,-380.490,-174.020
190,37943.360000,246.116,-32.692,-23.907,413.283,282.687,-70.712,-178.040,-551.490,-202.020
191,37943.395000,268.849,35.709,-63.751,406.501,286.052,-91.246,337.960,-764.490,-297.020
192,37943.433000,305.421,17.603,-7.969,394.877,287.557,-105.947,145.960,-1254.490,-486.020
193,37943.481000,362.749,63.874,11.953,380.449,302.302,-135.070,-261.040,-1703.490,-564.020
194,37943.495000,498.162,71.921,126.506,356.282,312.811,-176.075,-122.040,-2404.490,-868.020
195,37943.536000,483.336,-110.145,47.813,320.521,324.242,-214.143,-368.040,-2401.490,-925.020
196,37943.595000,370.656,-22.633,-140.451,288.435,316.229,-255.576,196.960,-1795.490,-692.020
197,37943.611000,109.714,-66.892,22.911,288.414,314.266,-256.600,-311.040,-234.490,148.980
198,37943.670000,75.120,-58.845,22.911,315.607,321.692,-239.707,-809.040,1749.510,828.980
199,37943.691000,109.714,-30.680,-56.778,360.003,302.622,-199.829,166.960,2737.510,1152.980
200,37943.731000,186.811,-26.656,-89.650,416.785,262.467,-153.529,1025.960,3327.510,1380.980
201,37943.771000,285.652,109.139,-185.276,468.744,221.530,-96.469,2301.960,3799.510,1254.980
202,37943.791000,302.456,132.275,-329.712,504.524,204.123,-21.269,120.960,3465.510,472.980
203,37943.832000,241.174,6.538,-326.724,513.247,194.671,30.514,194.960,1651.510,114.980
204,37943.872000,206.579,101.092,-284.887,518.101,194.006,42.278,67.960,286.510,124.980
205,37943.912000,295.537,28.668,50.802,516.130,192.758,30.478,87.960,-760.490,-69.020
206,37943.952000,334.085,-41.745,-6.973,518.985,191.449,13.784,1180.960,-527.490,-19.020
207,37943.992000,280.710,44.762,-72.716,517.002,190.092,-2.922,281.960,-496.490,-2.020
208,37944.32000,252.046,-58.845,-41.837,513.152,193.765,-10.694,298.960,-259.490,53.980
209,37944.73000,268.849,8.550,-20.918,516.961,188.819,-16.680,-112.040,-223.490,14.980
210,37944.96000,262.919,-7.544,-9.961,512.117,188.707,-19.634,-16.040,-248.490,-41.020
211,37944.136000,260.942,-27.662,8.965,514.051,189.589,-24.514,-210.040,-366.490,-108.020
212,37944.172000,246.116,-25.650,-6.973,511.211,198.968,-38.041,213.960,-722.490,-204.020
213,37944.213000,248.093,-3.521,-31.875,513.208,211.025,-64.247,187.960,-821.490,-245.020
214,37944.257000,231.290,-4.527,-31.875,505.426,211.425,-86.810,91.960,-860.490,-285.020
215,37944.292000,256.000,29.674,-83.673,495.735,214.696,-110.293,198.960,-869.490,-288.020
216,37944.338000,208.556,8.550,-67.735,489.975,222.989,-127.773,-93.040,-749.490,-204.020
217,37944.372000,201.637,-25.650,-81.681,485.166,229.371,-144.313,-322.040,-870.490,-84.020
218,37944.412000,338.039,62.868,-85.665,478.350,227.126,-155.165,-200.040,-686.490,-39.020
219,37944.432000,283.676,45.768,-96.623,476.460,232.825,-159.945,-650.040,-345.490,-27.020
220,37944.477000,242.162,60.857,-147.424,476.437,230.840,-161.951,-356.040,-356.490,-88.020
221,37944.513000,201.637,43.756,-248.031,467.780,236.516,-164.785,-217.040,-461.490,-120.020
222,37944.566000,173.961,62.868,-219.144,457.271,252.658,-176.217,-993.040,-872.490,-117.020
223,37944.593000,147.274,46.774,-168.342,437.982,263.602,-199.550,-438.040,-1386.490,-244.020
224,37944.633000,123.552,65.886,-150.412,420.568,267.834,-220.087,-99.040,-1348.490,-343.020
225,37944.677000,98.842,10.562,-108.576,399.329,277.745,-245.409,138.960,-997.490,-369.020
226,37944.717000,102.795,-27.662,-132.482,384.672,267.399,-268.225,635.960,-524.490,-213.020
227,37944.737000,182.857,-62.868,-27.891,380.670,254.654,-272.439,743.960,778.510,-29.020
228,37944.772000,258.965,-44.762,-442.272,395.269,260.038,-254.637,313.960,1095.510,-114.020
229,37944.812000,374.610,27.662,-128.498,410.609,241.246,-233.447,1121.960,1569.510,451.980
230,37944.853000,319.259,-42.750,-54.786,425.036,227.363,-209.208,475.960,1363.510,463.980
231,37944.893000,310.363,44.762,-73.712,441.494,223.230,-183.768,-486.040,1464.510,317.980
232,37944.933000,265.884,29.674,-84.669,446.382,222.004,-153.384,-325.040,1088.510,98.980
233,37944.976000,245.127,25.650,-79.689,458.130,231.373,-129.616,-256.040,912.510,35.980
234,37945.22000,249.081,26.656,-40.840,465.928,232.894,-107.991,-293.040,703.510,48.980
235,37945.36000,250.069,-6.538,-39.844,474.595,224.672,-88.542,40.960,642.510,96.980
236,37945.73000,247.104,-10.562,-24.903,470.740,223.016,-73.877,19.960,514.510,55.980
237,37945.126000,247.104,9.556,-36.856,470.728,221.139,-70.977,44.960,376.510,-3.020
238,37945.153000,253.035,-3.521,-43.829,469.769,220.331,-63.151,59.960,332.510,-16.020
239,37945.196000,240.185,-15.591,-34.864,471.784,227.276,-57.109,4.960,386.510,-3.020
240,37945.236000,250.069,29.674,-33.868,472.771,227.479,-48.276,-5.040,362.510,9.980
241,37945.277000,279.722,38.727,-14.942,478.528,220.912,-40.565,-155.040,246.510,67.980
242,37945.317000,273.792,95.057,-125.510,484.383,223.213,-26.772,-243.040,595.510,252.980
243,37945.337000,262.919,-0.503,-144.436,484.305,213.655,-20.120,534.960,746.510,-7.020
244,37945.385000,201.637,72.927,-424.342,485.380,224.387,-17.918,447.960,-13.490,-105.020
245,37945.418000,233.266,56.833,-289.868,470.855,229.402,-48.238,-1362.040,-2141.490,-201.020
246,37945.458000,239.197,79.969,-255.004,443.858,249.376,-98.846,-690.040,-2939.490,-571.020
247,37945.498000,210.533,61.862,-166.350,402.289,263.361,-150.598,-224.040,-2951.490,-888.020
248,37945.545000,174.950,10.562,-97.619,363.733,287.234,-195.260,56.960,-2572.490,-827.020
249,37945.578000,141.344,-8.550,-57.774,332.792,295.023,-224.572,-265.040,-1807.490,-534.020
250,37945.613000,190.764,-77.957,-31.875,316.404,303.342,-236.190,50.960,-916.490,-341.020
251,37945.653000,248.093,-40.739,1.992,307.771,312.771,-244.825,717.960,323.510,-113.020
252,37945.683000,256.988,-35.709,16.934,312.603,311.891,-242.873,651.960,1126.510,93.980
253,37945.722000,455.660,-77.957,95.626,328.963,299.775,-227.417,343.960,1732.510,231.980
254,37945.758000,348.911,144.346,19.922,351.345,307.413,-198.761,19.960,1576.510,602.980
255,37945.795000,308.386,-69.910,-15.938,364.836,299.109,-185.187,295.960,1203.510,411.980
256,37945.866000,324.201,-38.727,-24.903,370.640,297.397,-177.368,77.960,902.510,327.980
257,37945.883000,267.861,93.045,-57.774,383.217,294.003,-160.745,357.960,990.510,109.980
258,37945.917000,241.174,-4.527,-102.599,386.997,283.490,-155.087,8.960,424.510,109.980
259,37945.968000,230.301,0.503,-112.560,392.928,294.442,-145.025,-162.040,500.510,66.980
260,37945.987000,241.174,-3.521,-58.770,407.546,302.652,-131.082,306.960,492.510,8.980
261,37946.47000,243.151,1.509,-29.883,408.477,296.146,-118.476,517.960,358.510,13.980
262,37946.83000,247.104,5.532,-26.895,398.622,278.468,-123.793,493.960,-9.490,-49.020
263,37946.98000,239.197,-9.556,-22.911,398.670,285.092,-131.491,235.960,-190.490,-105.020
264,37946.138000,243.151,22.633,-61.759,392.798,280.871,-144.345,14.960,-403.490,-117.020
265,37946.178000,246.116,5.532,-57.774,385.052,281.616,-151.210,-317.040,-456.490,-63.020
266,37946.218000,247.104,15.591,-64.747,378.340,289.166,-157.921,-272.040,-598.490,-81.020
267,37946.258000,246.116,22.633,-144.436,374.400,284.058,-167.849,1.960,-394.490,-73.020
268,37946.277000,229.313,48.786,-147.424,371.552,288.949,-164.805,-48.040,-15.490,46.980
269,37946.338000,232.278,27.662,-102.599,376.264,276.353,-166.055,24.960,266.510,160.980
270,37946.353000,228.324,1.509,-114.553,381.213,285.397,-154.076,-71.040,376.510,150.980
271,37946.400000,243.151,7.544,-41.837,390.833,277.918,-145.396,-126.040,469.510,190.980
272,37946.435000,256.000,32.692,-28.887,391.858,282.005,-136.477,38.960,321.510,169.980
273,37946.482000,249.081,-44.762,-53.790,398.629,279.418,-124.752,-120.040,150.510,-9.020
274,37946.585000,243.151,14.585,-52.794,404.587,295.914,-127.315,-158.040,89.510,-49.020
275,37946.600000,240.185,-13.580,-46.817,400.709,296.675,-135.152,-199.040,-38.490,-78.020
276,37946.615000,242.162,13.580,-50.802,393.934,295.703,-132.246,-502.040,-151.490,-92.020
277,37946.623000,258.965,1.509,-27.891,389.074,294.555,-138.165,37.960,-345.490,-154.020
278,37946.660000,256.988,-3.521,32.872,380.307,291.256,-151.986,-40.040,-1099.490,-263.020
279,37946.695000,306.409,17.603,2.988,362.929,301.119,-181.224,-50.040,-1618.490,-347.020
280,37946.737000,434.903,91.033,-18.926,344.534,305.211,-207.650,-402.040,-1986.490,-317.020
281,37946.776000,495.197,12.574,127.502,318.379,307.265,-235.118,-677.040,-2256.490,-371.020
282,37946.820000,331.120,-7.544,-219.144,300.939,310.375,-262.544,-40.040,-2505.490,-388.020
283,37946.860000,244.139,-65.886,-5.977,271.876,309.704,-280.272,-937.040,-1857.490,-363.020
284,37946.900000,123.552,-76.951,-9.961,265.232,320.555,-269.258,-1541.040,-206.490,342.980
285,37946.920000,84.015,8.550,23.907,289.506,326.033,-251.433,-537.040,1085.510,625.980
286,37946.960000,73.143,-18.609,-38.848,331.983,310.612,-221.286,220.960,2375.510,875.980
287,37947.1000,132.448,-7.544,-64.747,385.795,267.149,-191.736,1293.960,3131.510,1066.980
288,37947.41000,228.324,80.974,-123.518,438.970,251.486,-133.132,1474.960,3786.510,1009.980
289,37947.76000,328.154,136.299,-269.946,472.702,226.811,-78.692,128.960,3911.510,589.980
290,37947.116000,268.849,63.874,-395.455,497.932,218.986,-4.282,-107.040,2924.510,402.980
291,37947.158000,217.452,92.039,-342.661,505.684,213.021,29.925,-473.040,669.510,107.980
292,37947.198000,189.776,21.627,-321.743,507.582,210.041,25.940,-518.040,-615.490,-70.020
293,37947.217000,341.992,122.216,7.969,505.526,201.823,6.140,262.960,-724.490,-118.020
294,37947.258000,253.035,-14.585,-71.720,502.642,207.254,-10.417,513.960,-694.490,43.980
295,37947.301000,252.046,-26.656,-52.794,500.589,198.174,-25.332,364.960,-356.490,53.980
296,37947.335000,270.826,-10.562,-13.946,499.657,202.911,-30.133,184.960,-340.490,-4.020
297,37947.376000,260.942,0.503,-52.794,501.533,199.715,-43.929,322.960,-352.490,-88.020
298,37947.418000,251.058,-0.503,-37.852,498.673,204.498,-45.790,119.960,-301.490,-133.020
299,37947.460000,251.058,0.503,-17.930,496.798,212.979,-56.393,158.960,-371.490,-141.020
300,37947.500000,254.023,3.521,-30.879,498.808,224.282,-72.809,33.960,-449.490,-144.020
301,37947.520000,253.035,-1.509,-23.907,490.017,218.113,-84.732,7.960,-530.490,-172.020
302,37947.555000,246.116,10.562,-22.911,489.075,223.627,-98.341,-73.040,-782.490,-207.020
303,37947.595000,247.104,22.633,-51.798,478.431,227.903,-119.843,25.960,-907.490,-203.020
304,37947.638000,206.579,23.639,-91.642,468.720,230.096,-148.254,-74.040,-1068.490,-187.020
305,37947.678000,210.533,12.574,-77.696,462.887,231.528,-168.829,-421.040,-1061.490,-31.020
306,37947.720000,343.969,39.733,-70.724,451.268,234.845,-189.373,-364.040,-1173.490,-26.020
307,37947.760000,257.977,32.692,-157.385,444.540,242.244,-202.953,-328.040,-851.490,-118.020
308,37947.801000,183.846,6.538,-176.311,443.615,247.931,-208.712,87.960,-474.490,-143.020
309,37947.836000,159.135,9.556,-168.342,440.608,238.970,-217.744,310.960,-86.490,-106.020
310,37947.856000,174.950,1.509,-165.354,439.647,239.026,-214.802,154.960,75.510,8.980
311,37947.896000,189.776,-9.556,-116.545,446.360,232.360,-211.994,116.960,305.510,181.980
312,37947.940000,194.718,13.580,-128.498,455.127,236.544,-202.076,323.960,642.510,91.980
313,37947.981000,188.788,4.527,-138.459,459.867,225.092,-195.456,455.960,616.510,21.980
314,37948.21000,239.197,89.022,-80.685,463.806,230.200,-185.528,338.960,792.510,113.980
315,37948.61000,242.162,-30.680,-85.665,469.497,215.952,-174.064,432.960,783.510,68.980
316,37948.96000,277.745,21.627,-79.689,476.351,220.333,-154.339,32.960,746.510,102.980
317,37948.136000,257.977,-4.527,-68.732,484.165,224.637,-138.536,24.960,786.510,40.980
318,37948.157000,264.896,10.562,-44.825,491.911,220.376,-115.079,-37.040,736.510,18.980
319,37948.202000,250.069,32.692,-32.872,487.973,210.004,-99.627,219.960,642.510,-6.020
320,37948.236000,235.243,0.503,-32.872,488.001,212.032,-95.659,140.960,435.510,-11.020
321,37948.276000,242.162,0.503,-40.840,490.920,213.096,-92.687,168.960,343.510,-24.020
322,37948.321000,243.151,4.527,-48.809,490.919,211.326,-84.881,81.960,292.510,-41.020
323,37948.357000,258.965,21.627,-62.755,495.800,213.553,-74.034,-189.040,455.510,27.980
324,37948.397000,299.490,34.703,-53.790,496.775,210.995,-58.398,-334.040,651.510,126.980
325,37948.437000,294.548,63.874,-56.778,503.604,208.968,-21.164,-1386.040,1079.510,310.980
326,37948.460000,270.826,54.821,-94.630,511.442,214.393,1.528,-202.040,740.510,22.980
327,37948.501000,214.486,36.715,-465.183,504.667,216.053,-8.256,1156.960,-276.490,-233.020
328,37948.541000,244.139,66.892,-336.685,492.014,216.967,-49.450,-1084.040,-2361.490,-93.020
329,37948.581000,238.208,71.921,-279.907,462.988,228.982,-108.084,-1253.040,-3219.490,-324.020
330,37948.621000,210.533,51.804,-141.447,417.583,246.770,-161.721,-1169.040,-3340.490,-793.020
331,37948.661000,159.135,32.692,-63.751,368.423,274.423,-206.322,-333.040,-2773.490,-865.020
332,37948.696000,145.297,10.562,-50.802,334.698,294.761,-237.322,-211.040,-2087.490,-759.020
333,37948.736000,157.158,-33.697,-30.879,309.579,301.010,-250.966,51.960,-956.490,-574.020
334,37948.776000,198.672,-57.839,18.926,298.076,311.598,-249.774,210.960,64.510,-344.020
335,37948.796000,325.189,-98.075,51.798,310.640,308.959,-242.942,648.960,1572.510,132.980
336,37948.836000,395.367,59.851,-275.922,335.819,305.925,-215.498,538.960,2463.510,280.980
337,37948.877000,289.606,92.039,29.883,357.134,302.917,-185.119,188.960,1800.510,654.980
338,37948.930000,294.548,331.442,20.918,379.385,297.848,-160.668,253.960,1600.510,495.980
339,37948.957000,351.876,-109.139,-45.821,391.814,278.942,-143.410,551.960,1451.510,342.980
340,37949.0,295.537,55.827,14.942,393.790,281.118,-133.550,526.960,803.510,194.980
341,37949.38000,244.139,8.550,-48.809,410.199,277.395,-133.599,463.960,381.510,143.980
342,37949.80000,231.290,20.621,-69.728,414.127,281.510,-124.673,78.960,319.510,111.980
343,37949.100000,240.185,14.585,-72.716,418.941,275.171,-106.171,108.960,352.510,113.980
344,37949.141000,246.116,-21.627,-36.856,414.973,263.634,-99.571,-304.040,435.510,152.980
345,37949.182000,242.162,-14.585,-40.840,415.915,260.752,-98.652,-68.040,332.510,66.980
346,37949.217000,250.069,-6.538,-44.825,419.775,259.819,-98.665,103.960,155.510,-5.020
347,37949.260000,252.046,4.527,-33.868,413.999,262.675,-98.613,123.960,0.510,-63.020
348,37949.305000,238.208,-4.527,-9.961,416.001,271.259,-106.264,199.960,-321.490,-113.020
349,37949.345000,249.081,4.527,20.918,410.190,273.792,-120.930,213.960,-690.490,-158.020
350,37949.377000,253.035,51.804,-72.716,402.340,265.604,-136.819,-223.040,-835.490,-80.020
351,37949.406000,241.174,6.538,-71.720,392.683,269.199,-145.585,-259.040,-807.490,-22.020
352,37949.442000,232.278,13.580,-121.525,389.796,273.724,-159.220,-55.040,-661.490,24.980
353,37949.477000,230.301,0.503,-129.494,384.893,267.765,-163.285,-162.040,-301.490,64.980
354,37949.526000,236.232,46.774,-165.354,387.807,268.786,-162.276,161.960,89.510,95.980
355,37949.561000,242.162,19.615,-89.650,390.709,267.929,-158.366,-120.040,361.510,156.980
356,37949.616000,230.301,-16.597,-95.626,395.493,260.425,-148.716,-161.040,428.510,116.980
357,37949.637000,250.069,56.833,-108.576,399.386,260.679,-138.896,83.960,538.510,193.980
358,37949.677000,258.965,66.892,-92.638,408.070,255.262,-124.288,-342.040,567.510,252.980
359,37949.717000,248.093,-12.574,-60.763,413.960,261.424,-111.390,-817.040,471.510,153.980
360,37949.737000,243.151,-41.745,-48.809,419.822,263.789,-94.654,-952.040,460.510,61.980
361,37949.786000,241.174,-9.556,-25.899,422.757,261.487,-68.221,-865.040,334.510,-26.020
362,37949.825000,237.220,-22.633,-29.883,426.754,270.672,-49.376,-730.040,262.510,-44.020
363,37949.930000,243.151,0.503,-33.868,435.522,275.741,-43.361,-610.040,155.510,-71.020
364,37949.993000,253.035,-0.503,-6.973,427.846,282.440,-44.209,-396.040,-39.490,-141.020
365,37950.23000,251.058,-33.697,-10.957,422.072,286.202,-47.080,-262.040,-179.490,-147.020
366,37950.38000,245.127,9.556,16.934,424.010,288.012,-53.900,42.960,-576.490,-212.020
367,37950.47000,262.919,-3.521,32.872,409.435,286.382,-77.503,383.960,-1151.490,-308.020
368,37950.72000,332.108,79.969,-5.977,396.839,292.236,-114.665,108.960,-1857.490,-441.020
369,37950.90000,481.359,27.662,97.619,378.419,295.207,-147.980,-561.040,-2077.490,-432.020
370,37950.133000,438.857,29.674,61.759,353.308,308.576,-190.885,-157.040,-2678.490,-791.020
371,37950.186000,434.903,-103.104,-177.307,312.631,313.034,-235.002,577.960,-2479.490,-1190.020
372,37950.192000,187.799,-6.538,-72.716,300.962,311.476,-256.636,147.960,-893.490,-423.020
373,37950.227000,96.865,-93.045,17.930,301.918,309.608,-253.733,-55.040,394.510,115.980
374,37950.271000,45.467,-17.603,-5.977,330.911,302.555,-234.215,-231.040,1575.510,480.980
375,37950.311000,98.842,11.568,-59.767,375.439,296.193,-190.133,-487.040,2729.510,961.980
376,37950.357000,171.985,-12.574,-109.572,428.486,267.865,-133.772,228.960,3359.510,1289.980
377,37950.391000,305.421,124.228,-264.965,473.624,221.987,-77.816,2245.960,3591.510,1175.980
378,37950.431000,320.247,159.434,-343.658,501.690,210.912,-20.144,691.960,2873.510,498.980
379,37950.471000,233.266,-5.532,-428.327,510.347,200.835,3.186,234.960,762.510,285.980
380,37950.491000,200.649,118.193,-377.525,516.103,196.900,-1.792,-365.040,-690.490,203.980
381,37950.531000,323.212,89.022,97.619,511.258,199.421,-17.437,886.960,-207.490,-249.020
382,37950.571000,214.486,105.116,-91.642,505.389,196.106,-33.213,937.960,-464.490,-136.020
383,37950.611000,248.093,-49.792,-24.903,505.363,196.732,-48.890,-62.040,-459.490,40.980
384,37950.651000,263.907,1.509,-36.856,500.442,190.601,-60.805,336.960,-419.490,-23.020
385,37950.692000,260.942,-1.509,-40.840,497.576,195.319,-65.609,51.960,-442.490,-63.020
386,37950.728000,260.942,-7.544,-56.778,493.712,197.978,-75.365,-43.040,-429.490,-122.020
387,37950.768000,251.058,-3.521,-61.759,497.647,204.812,-75.205,-186.040,-320.490,-127.020
388,37950.810000,242.162,-2.515,-66.739,497.644,207.423,-88.876,-23.040,-250.490,-166.020
389,37950.830000,231.290,-26.656,-24.903,493.849,217.784,-101.403,-60.040,-294.490,-193.020
390,37950.900000,224.371,7.544,-23.907,485.134,220.267,-117.057,142.960,-623.490,-240.020
391,37950.917000,214.486,34.703,6.973,479.293,218.980,-128.866,-254.040,-954.490,-224.020
392,37950.950000,247.104,7.544,-18.926,466.720,225.935,-160.119,286.960,-1450.490,-241.020
393,37950.990000,319.259,58.845,-122.521,448.238,222.153,-191.623,-298.040,-1371.490,-189.020
394,37951.28000,255.012,20.621,-172.327,437.658,233.203,-213.955,-320.040,-997.490,-260.020
395,37951.68000,152.216,-6.538,-237.074,433.918,247.621,-218.546,-231.040,-355.490,-209.020
396,37951.110000,161.112,6.538,-272.934,440.716,248.808,-211.641,-57.040,403.510,67.980
397,37951.131000,170.008,92.039,-127.502,446.385,232.598,-201.202,573.960,763.510,81.980
398,37951.171000,177.915,19.615,-120.529,452.252,237.660,-194.212,770.960,911.510,13.980
399,37951.211000,202.625,-1.509,-90.646,465.748,229.399,-178.677,425.960,1035.510,60.980
400,37951.252000,298.502,24.644,-45.821,468.695,229.859,-159.047,337.960,884.510,71.980
401,37951.292000,284.664,40.739,-38.848,479.316,224.482,-143.453,260.960,596.510,50.980
402,37951.331000,254.023,-14.585,-37.852,485.157,225.768,-131.645,25.960,391.510,70.980
403,37951.372000,237.220,6.538,-85.665,480.218,213.294,-123.106,283.960,311.510,-34.020
404,37951.412000,236.232,4.527,-73.712,480.304,221.169,-118.028,233.960,422.510,-30.020
405,37951.432000,242.162,8.550,-49.805,481.264,219.344,-113.163,161.960,447.510,-35.020
406,37951.468000,256.988,2.515,-36.856,479.282,213.587,-109.372,229.960,313.510,-49.020
407,37951.510000,256.988,11.568,-53.790,484.196,220.538,-104.304,77.960,242.510,-23.020
408,37951.550000,266.873,21.627,-80.685,489.962,214.942,-96.571,-2.040,422.510,17.980
409,37951.592000,302.456,88.016,-49.805,497.753,213.744,-66.181,-951.040,908.510,257.980
410,37951.632000,234.255,72.927,-122.521,505.512,208.728,-32.933,-847.040,862.510,408.980
411,37951.668000,187.799,56.833,-298.833,505.540,210.756,-28.965,370.960,453.510,-135.020
412,37951.710000,193.730,70.916,-382.506,495.861,215.904,-55.349,-169.040,-1433.490,-176.020
413,37951.753000,234.255,18.609,-300.825,470.741,229.187,-102.179,-1180.040,-2448.490,-270.020
414,37951.768000,229.313,58.845,-234.086,434.038,246.132,-153.855,-957.040,-2947.490,-648.020
415,37951.808000,215.475,5.532,-119.533,387.733,268.958,-198.557,-360.040,-2707.490,-764.020
416,37951.858000,199.660,-0.503,-57.774,349.131,285.345,-230.636,-55.040,-1964.490,-654.020
417,37951.896000,204.602,-38.727,-23.907,332.717,291.657,-245.241,-365.040,-1343.490,-520.020
418,37951.931000,208.556,-65.886,0.996,309.690,311.755,-247.785,-224.040,-710.490,-288.020
419,37951.971000,199.660,-36.715,35.860,307.734,309.772,-248.814,201.960,361.510,-17.020
420,37952.23000,301.467,-99.081,35.860,317.353,302.294,-240.134,754.960,1194.510,86.980
421,37952.52000,319.259,72.927,-258.988,330.955,305.619,-227.283,905.960,1625.510,-168.020
422,37952.72000,324.201,-6.538,-20.918,349.371,304.374,-203.736,-247.040,1391.510,383.980
423,37952.112000,255.012,219.788,-16.934,365.625,282.442,-193.401,754.960,1480.510,548.980
424,37952.157000,368.680,11.568,-23.907,376.266,280.776,-185.570,1687.960,1235.510,298.980
425,37952.191000,344.958,141.328,15.938,384.918,273.288,-176.892,508.960,508.510,145.980
426,37952.235000,240.185,-13.580,-96.623,389.720,269.473,-175.986,442.960,332.510,171.980
427,37952.270000,242.162,-6.538,-94.630,404.285,272.765,-165.095,-71.040,438.510,101.980
428,37952.310000,234.255,0.503,-78.693,408.137,265.596,-139.749,-284.040,618.510,84.980
429,37952.383000,238.208,-8.550,-64.747,404.306,265.925,-123.078,-188.040,710.510,65.980
430,37952.397000,244.139,-1.509,-28.887,406.222,264.002,-123.117,50.960,379.510,-18.020
431,37952.425000,246.116,-10.562,-11.953,409.136,265.023,-122.107,6.960,87.510,-54.020
432,37952.452000,244.139,-16.597,-24.903,404.262,262.862,-130.011,181.960,-250.490,-150.020
433,37952.498000,240.185,14.585,-52.794,400.466,272.339,-138.635,148.960,-336.490,-169.020
434,37952.533000,258.965,9.556,27.891,391.662,265.156,-152.542,-11.040,-785.490,-212.020
435,37952.572000,238.208,7.544,-80.685,379.188,278.345,-165.024,-495.040,-1082.490,-197.020
436,37952.611000,217.452,57.839,-184.280,373.382,280.036,-173.825,-290.040,-559.490,-40.020
437,37952.652000,256.000,30.680,-104.591,370.501,282.855,-176.710,-14.040,-276.490,-19.020
438,37952.690000,246.116,24.644,-108.576,368.538,280.809,-180.682,-31.040,-86.490,39.980
439,37952.711000,216.463,35.709,-158.381,372.330,272.173,-177.924,56.960,201.510,166.980
440,37952.751000,237.220,37.721,-91.642,373.281,270.262,-176.984,105.960,323.510,182.980
441,37952.791000,221.405,-56.833,-93.634,381.958,265.666,-169.222,-149.040,336.510,177.980
442,37952.831000,250.069,19.615,-106.584,388.765,266.940,-158.392,9.960,395.510,163.980
443,37952.871000,252.046,46.774,-99.611,394.533,261.365,-149.678,25.960,505.510,225.980
444,37952.910000,243.151,-12.574,-55.782,399.395,262.534,-142.777,-458.040,489.510,234.980
445,37952.951000,245.127,-32.692,-48.809,402.254,255.097,-129.207,-368.040,425.510,121.980
446,37952.991000,241.174,-16.597,-54.786,407.200,262.351,-110.403,-611.040,370.510,14.980
447,37953.31000,246.116,-15.591,-40.840,413.017,260.767,-96.697,-340.040,328.510,-16.020
448,37953.56000,241.174,-19.615,-33.868,423.828,276.577,-88.478,-273.040,294.510,-30.020
449,37953.91000,240.185,4.527,-28.887,419.904,271.621,-91.538,-106.040,124.510,-37.020
450,37953.131000,249.081,5.532,-17.930,411.209,272.528,-90.555,-97.040,-26.490,-85.020
451,37953.176000,243.151,-3.521,35.860,414.135,276.311,-96.349,2.960,-485.490,-135.020
452,37953.211000,247.104,-9.556,43.829,405.402,277.736,-115.949,260.960,-1137.490,-293.020
453,37953.251000,300.479,16.597,-4.981,386.999,282.627,-150.203,-93.040,-1814.490,-386.020
454,37953.291000,479.382,100.086,47.813,365.703,289.345,-188.344,-422.040,-2358.490,-469.020
455,37953.332000,512.988,83.992,195.237,327.049,301.719,-226.397,-415.040,-2752.490,-716.020
456,37953.353000,266.873,-74.939,-384.498,297.074,310.381,-260.591,125.960,-2452.490,-756.020
457,37953.392000,91.923,-28.668,-8.965,284.475,310.927,-274.334,-215.040,-1277.490,-316.020
458,37953.446000,79.073,-81.980,19.922,291.340,317.163,-258.491,-1213.040,553.510,546.980
459,37953.471000,58.317,-39.733,6.973,329.105,314.338,-227.093,-783.040,1743.510,859.980
460,37953.515000,96.865,3.521,-63.751,379.293,292.563,-180.399,-193.040,2950.510,1229.980
461,37953.555000,171.985,5.532,-102.599,433.292,264.094,-130.903,1276.960,3490.510,1412.980
462,37953.595000,289.606,157.422,-255.004,482.369,225.071,-73.807,1895.960,3630.510,790.980
463,37953.636000,272.803,46.774,-400.436,506.520,209.125,-15.270,430.960,2640.510,349.980
464,37953.661000,230.301,22.633,-433.307,512.344,207.607,1.380,-282.040,294.510,223.980
465,37953.695000,235.243,4.527,-403.424,510.239,194.514,-19.509,-220.040,-1390.490,191.980
466,37953.735000,255.012,174.523,-68.732,505.437,202.730,-40.912,724.960,-429.490,-308.020
467,37953.771000,202.625,34.703,-145.432,503.446,201.287,-61.542,188.960,-645.490,122.980
468,37953.816000,267.861,-66.892,-33.868,502.451,200.134,-69.415,148.960,-259.490,81.980
469,37953.851000,273.792,14.585,-40.840,498.474,191.143,-79.429,110.960,-246.490,-56.020
470,37953.892000,267.861,-0.503,-46.817,497.518,193.011,-82.332,44.960,-220.490,-56.020
471,37953.932000,247.104,-1.509,-55.782,495.624,196.897,-81.269,-209.040,-183.490,-101.020
472,37953.973000,237.220,-22.633,-51.798,502.523,209.627,-79.010,-13.040,-151.490,-139.020
473,37953.995000,242.162,-5.532,-51.798,499.636,214.151,-92.645,-66.040,-128.490,-131.020
474,37954.31000,238.208,6.538,-45.821,498.643,212.135,-95.634,-149.040,-175.490,-131.020
475,37954.71000,262.919,-6.538,-25.899,491.897,215.845,-100.469,-305.040,-352.490,-138.020
476,37954.112000,191.753,19.615,19.922,485.218,227.235,-109.057,-714.040,-643.490,-158.020
477,37954.153000,271.815,44.762,-58.770,476.509,230.646,-126.651,-291.040,-1220.490,-122.020
478,37954.193000,269.838,60.857,-112.560,468.753,233.936,-150.130,-185.040,-1046.490,-52.020
479,37954.233000,250.069,1.509,-117.541,462.908,233.491,-167.804,-56.040,-876.490,-109.020
480,37954.278000,256.000,6.538,-137.463,457.072,233.133,-181.554,90.960,-469.490,-73.020
481,37954.293000,197.683,5.532,-158.381,458.030,233.940,-189.379,240.960,-193.490,-57.020
482,37954.335000,174.950,-10.562,-162.366,458.906,224.263,-188.612,191.960,188.510,3.980
483,37954.375000,201.637,-7.544,-138.459,458.917,224.371,-183.706,661.960,342.510,-30.020
484,37954.416000,214.486,89.022,-121.525,465.663,221.546,-182.774,500.960,620.510,-22.020
485,37954.456000,201.637,-14.585,-80.685,469.550,219.987,-167.110,510.960,855.510,-44.020
486,37954.502000,254.023,-46.774,-62.755,473.423,217.414,-153.429,325.960,770.510,0.980
487,37954.550000,305.421,58.845,-15.938,481.237,222.602,-141.530,120.960,569.510,-15.020
488,37954.572000,263.907,1.509,-33.868,488.017,221.870,-133.686,82.960,244.510,-0.020
489,37954.622000,237.220,6.538,-77.696,488.932,215.213,-127.948,210.960,215.510,-44.020
490,37954.636000,230.301,-11.568,-72.716,485.116,219.210,-121.003,64.960,327.510,3.980
491,37954.676000,253.035,1.509,-46.817,484.070,209.643,-114.353,185.960,341.510,-36.020
492,37954.722000,256.000,5.532,-41.837,485.106,216.470,-113.218,234.960,299.510,-81.020
493,37954.757000,242.162,21.627,-71.720,486.039,211.754,-107.437,77.960,324.510,-40.020
494,37954.792000,256.000,4.527,-78.693,489.964,214.963,-95.590,-259.040,483.510,46.980
495,37954.832000,282.687,41.745,-35.860,493.869,213.577,-72.076,-735.040,773.510,136.980
496,37954.872000,275.768,68.904,-83.673,500.662,209.436,-42.734,-892.040,752.510,250.980
497,37954.912000,239.197,44.762,-237.074,501.691,212.681,-27.950,-165.040,795.510,63.980
498,37954.932000,219.429,14.585,-356.607,500.778,218.475,-28.804,520.960,-139.490,-158.020
499,37954.972000,227.336,47.780,-300.825,492.976,218.681,-60.197,-856.040,-1866.490,-86.020
500,37955.16000,232.278,60.857,-261.977,463.951,228.948,-110.044,-1270.040,-2762.490,-296.020
501,37955.57000,227.336,49.792,-168.342,422.456,249.794,-158.702,-701.040,-2963.490,-580.020
502,37955.95000,193.730,34.703,-109.572,379.004,267.773,-204.485,-415.040,-2693.490,-637.020
503,37955.137000,161.112,-0.503,-55.782,343.291,281.427,-229.755,-462.040,-2184.490,-588.020
504,37955.172000,152.216,-46.774,-5.977,324.062,296.470,-243.191,5.960,-1141.490,-443.020
505,37955.212000,225.359,-91.033,-11.953,313.411,297.165,-251.043,309.960,-169.490,-329.020
506,37955.253000,245.127,-69.910,2.988,315.308,292.415,-247.222,867.960,1013.510,-159.020
507,37955.277000,329.143,-8.550,-21.914,325.061,297.666,-233.355,744.960,1724.510,-13.020
508,37955.333000,474.440,-72.927,7.969,352.118,289.710,-209.939,488.960,1750.510,550.980
509,37955.355000,296.525,265.053,-13.946,369.501,279.890,-178.739,-61.040,1753.510,617.980
510,37955.395000,329.143,5.532,-40.840,384.053,281.305,-164.948,907.960,1495.510,383.980
511,37955.435000,260.942,-2.515,20.918,401.410,270.363,-140.638,-273.040,962.510,323.980
512,37955.475000,249.081,24.644,-41.837,405.280,269.516,-136.726,284.960,434.510,199.980
513,37955.515000,241.174,-17.603,-65.743,413.040,270.670,-131.781,264.960,290.510,153.980
514,37955.555000,245.127,0.503,-84.669,423.734,272.155,-113.092,-412.040,437.510,186.980
515,37955.575000,226.347,9.556,-72.716,422.693,259.114,-87.887,-321.040,613.510,148.980
516,37955.615000,251.058,-17.603,-25.899,422.665,256.201,-87.952,66.960,360.510,110.980
517,37955.655000,254.023,-6.538,-38.848,425.511,251.289,-91.977,134.960,195.510,-13.020
518,37955.693000,239.197,0.503,-29.883,423.628,257.052,-93.815,172.960,107.510,-60.020
519,37955.735000,242.162,-17.603,-20.918,426.568,260.964,-93.722,158.960,-26.490,-57.020
520,37955.773000,246.116,-12.574,-9.961,421.635,252.956,-102.736,406.960,-169.490,-100.020
521,37955.818000,242.162,-17.603,15.938,414.924,262.275,-117.253,586.960,-709.490,-171.020
522,37955.853000,261.931,45.768,-32.872,409.063,261.679,-141.795,-95.040,-1157.490,-122.020
523,37955.893000,220.417,22.633,-179.300,398.410,262.352,-150.629,21.960,-694.490,4.980
524,37955.913000,230.301,-4.527,-105.588,397.427,263.076,-161.402,-200.040,-349.490,7.980
525,37955.958000,244.139,0.503,-114.553,392.543,258.175,-161.521,-2.040,-202.490,-38.020
526,37956.11000,237.220,8.550,-110.568,388.697,261.891,-167.330,260.960,-58.490,-9.020
527,37956.33000,240.185,36.715,-97.619,395.366,251.278,-167.552,292.960,61.510,57.980
528,37956.76000,239.197,2.515,-98.615,395.399,255.118,-169.428,204.960,205.510,74.980
529,37956.117000,232.278,-2.515,-85.665,402.111,247.568,-162.717,-36.040,257.510,70.980
530,37956.165000,232.278,19.615,-65.743,402.182,254.407,-160.604,22.960,282.510,79.980
531,37956.195000,245.127,4.527,-84.669,403.099,247.772,-153.884,157.960,335.510,67.980
532,37956.215000,240.185,7.544,-34.864,407.985,250.926,-144.978,-172.040,319.510,82.980
533,37956.256000,252.046,0.503,-30.879,410.896,251.040,-141.047,-61.040,135.510,131.980
534,37956.315000,248.093,-17.603,-67.735,411.823,246.260,-138.209,-69.040,53.510,68.980
535,37956.335000,255.012,-2.515,-67.735,410.841,244.352,-136.292,-224.040,70.510,-8.020
536,37956.375000,249.081,-9.556,-60.763,408.009,249.394,-126.379,-372.040,45.510,-38.020
537,37956.418000,248.093,-12.574,-53.790,409.987,251.591,-115.539,-391.040,1.510,-86.020
538,37956.457000,254.023,17.603,-62.755,422.778,274.022,-115.995,-405.040,-48.490,-97.020
539,37956.527000,244.139,-7.544,-42.833,414.023,270.831,-124.910,-489.040,-161.490,-105.020
540,37956.542000,242.162,0.503,-36.856,409.130,265.843,-128.954,-337.040,-342.490,-150.020
541,37956.556000,255.012,8.550,-16.934,401.408,269.457,-137.716,-81.040,-697.490,-250.020
542,37956.596000,270.826,24.644,-18.926,388.824,272.786,-157.282,0.960,-1012.490,-318.020
543,37956.636000,295.537,38.727,-31.875,383.026,277.196,-174.848,82.960,-1462.490,-360.020
544,37956.676000,419.089,52.809,31.875,362.687,281.184,-205.203,-225.040,-1806.490,-329.020
545,37956.722000,494.208,35.709,153.401,336.630,293.874,-234.396,-989.040,-2341.490,-317.020
546,37956.756000,346.934,-49.792,-70.724,304.747,301.891,-252.918,-1539.040,-2494.490,-385.020
547,37956.796000,372.633,-33.697,-65.743,277.646,307.668,-287.170,108.960,-1611.490,-364.020
548,37956.835000,147.274,-67.898,3.984,278.752,320.450,-280.019,-1081.040,-310.490,213.980
549,37956.855000,56.340,-26.656,7.969,309.709,315.465,-255.548,-635.040,1495.510,710.980
550,37956.895000,84.015,20.621,-48.809,339.725,312.478,-228.093,-659.040,2554.510,1014.980
551,37956.936000,134.425,-4.527,-106.584,401.478,284.214,-172.692,591.960,3402.510,1450.980
552,37956.976000,245.127,96.063,-231.097,455.360,242.304,-116.630,2214.960,3859.510,1363.980
553,37957.16000,293.560,149.375,-369.556,498.799,218.910,-52.334,1613.960,3497.510,638.980
554,37957.55000,250.069,0.503,-416.374,515.247,209.404,-6.420,144.960,1415.510,266.980
555,37957.95000,213.498,64.880,-396.451,517.046,196.672,-12.582,323.960,-256.490,291.980
556,37957.140000,302.456,160.440,58.770,507.373,200.117,-28.217,418.960,-327.490,-321.020
557,37957.175000,193.730,88.016,-102.599,505.339,193.863,-46.993,1203.960,-498.490,-132.020
558,37957.195000,252.046,-33.697,-57.774,504.401,199.420,-58.639,-106.040,-327.490,72.980
559,37957.235000,275.768,14.585,-36.856,507.295,200.246,-66.460,241.960,-263.490,1.980
560,37957.281000,256.988,-15.591,-49.805,501.439,196.177,-72.447,40.960,-246.490,-83.020
561,37957.316000,259.954,-0.503,-44.825,499.504,196.158,-72.451,-9.040,-191.490,-147.020
562,37957.356000,254.023,-8.550,-24.903,500.627,212.629,-74.045,131.960,-277.490,-177.020
563,37957.398000,227.336,-3.521,-51.798,501.615,217.234,-85.708,-100.040,-356.490,-189.020
564,37957.435000,229.313,8.550,-47.813,498.721,220.809,-98.384,-73.040,-404.490,-162.020
565,37957.477000,232.278,23.639,-19.922,487.132,225.291,-110.076,-54.040,-604.490,-192.020
566,37957.517000,249.081,19.615,-29.883,481.216,218.007,-129.864,-312.040,-1012.490,-150.020
567,37957.537000,282.687,41.745,-97.619,468.688,228.909,-158.087,-63.040,-1010.490,-32.020
568,37957.578000,262.919,13.580,-102.599,464.829,232.496,-169.784,-434.040,-707.490,-26.020
569,37957.615000,271.815,5.532,-98.615,457.095,235.118,-179.549,-239.040,-734.490,-126.020
570,37957.656000,225.359,37.721,-148.420,457.131,240.749,-188.249,-96.040,-549.490,-149.020
571,37957.696000,198.672,41.745,-150.412,451.278,237.585,-197.158,214.960,-186.490,-50.020
572,37957.737000,205.591,6.538,-128.498,450.268,233.649,-199.209,270.960,11.510,-2.020
573,37957.777000,201.637,-8.550,-152.405,455.141,236.674,-196.189,100.960,267.510,74.980
574,37957.817000,196.695,-15.591,-151.409,462.870,234.009,-188.387,157.960,529.510,114.980
575,37957.837000,214.486,61.862,-138.459,464.772,227.556,-173.816,315.960,736.510,34.980
576,37957.876000,238.208,-9.556,-55.782,469.590,223.007,-162.139,454.960,780.510,73.980
577,37957.917000,298.502,15.591,-50.802,475.339,215.491,-153.468,307.960,664.510,64.980
578,37957.957000,264.896,18.609,-61.759,483.179,223.571,-142.485,263.960,517.510,3.980
579,37957.996000,235.243,-9.556,-67.735,491.849,217.140,-129.861,39.960,450.510,-1.020
580,37958.36000,224.371,-11.568,-65.743,495.771,219.443,-115.091,348.960,473.510,-68.020
581,37958.76000,235.243,7.544,-54.786,488.947,212.710,-109.371,325.960,459.510,-41.020
582,37958.115000,245.127,1.509,-29.883,489.949,215.697,-106.361,285.960,323.510,-59.020
583,37958.156000,257.977,8.550,-35.860,489.947,215.675,-107.342,265.960,227.510,-74.020
584,37958.176000,262.919,19.615,-62.755,488.979,214.781,-103.441,205.960,199.510,-104.020
585,37958.216000,257.977,14.585,-89.650,491.944,219.815,-96.459,-28.040,385.510,-35.020
586,37958.256000,311.351,130.263,-91.642,496.855,223.206,-76.760,-736.040,861.510,255.980
587,37958.296000,290.595,92.039,-93.634,508.456,212.683,-30.878,-1679.040,1396.510,485.980
588,37958.340000,187.799,27.662,-244.047,515.313,215.316,-2.366,18.960,1040.510,-79.020
589,37958.380000,184.834,65.886,-456.218,507.492,213.579,-33.802,-311.040,-1263.490,117.980
590,37958.416000,245.127,3.521,-311.782,489.090,218.492,-67.074,-1832.040,-2677.490,-42.020
591,37958.461000,225.359,76.951,-223.128,453.339,234.411,-121.713,-1728.040,-3454.490,-496.020
592,37958.476000,202.625,-14.585,-64.747,406.129,265.750,-176.034,-1047.040,-3189.490,-871.020
593,37958.516000,158.147,-11.568,-18.926,361.721,283.828,-216.914,224.960,-2146.490,-971.020
594,37958.565000,168.031,-39.733,10.957,331.786,293.762,-237.351,282.960,-1195.490,-757.020
595,37958.601000,237.220,-116.181,33.868,322.164,299.450,-239.206,638.960,432.510,-476.020
596,37958.636000,368.680,-122.216,61.759,331.856,298.832,-227.431,1062.960,1683.510,-258.020
597,37958.695000,381.529,-35.709,-73.712,347.286,290.590,-211.891,425.960,1898.510,395.980
598,37958.717000,361.761,188.605,-14.942,373.474,289.723,-174.590,101.960,1740.510,902.980
599,37958.757000,287.629,-238.900,-17.930,396.684,282.829,-145.274,487.960,1512.510,269.980
600,37958.792000,262.919,-28.668,-43.829,406.270,269.741,-126.912,-394.040,1062.510,382.980
601,37958.820000,339.027,163.458,-0.996,414.019,267.271,-110.279,493.960,844.510,198.980
602,37958.856000,236.232,-33.697,-36.856,422.706,262.760,-98.593,304.960,494.510,212.980
603,37958.897000,232.278,0.503,-34.864,424.668,263.922,-90.718,132.960,275.510,122.980
604,37958.937000,245.127,8.550,-81.681,423.631,257.958,-96.737,392.960,257.510,61.980
605,37958.977000,243.151,-11.568,-59.767,429.446,256.354,-84.011,-238.040,748.510,125.980
606,37959.18000,252.046,25.650,-39.844,427.487,252.581,-78.215,93.960,362.510,-1.020
607,37959.58000,250.069,11.568,-27.891,430.445,257.550,-74.176,50.960,206.510,9.980
608,37959.98000,255.012,-22.633,3.984,432.399,260.395,-78.031,166.960,-99.490,-105.020
609,37959.126000,245.127,5.532,21.914,425.586,258.171,-87.902,-50.040,-498.490,-140.020
610,37959.161000,271.815,27.662,-73.712,420.757,260.843,-96.679,15.960,-612.490,-43.020
611,37959.197000,235.243,4.527,-122.521,420.691,255.816,-104.636,-74.040,-271.490,43.980
612,37959.237000,251.058,-10.562,-75.704,418.754,255.775,-105.621,55.960,9.510,1.980
613,37959.276000,256.000,5.532,-39.844,420.647,250.983,-103.762,-142.040,51.510,-31.020
614,37959.316000,245.127,1.509,-35.860,423.653,261.691,-103.518,42.960,42.510,29.980
615,37959.356000,243.151,10.562,-54.786,422.591,252.857,-107.639,-131.040,-146.490,162.980
616,37959.396000,230.301,-38.727,-70.724,422.636,257.690,-108.513,-431.040,-297.490,229.980
617,37959.437000,206.579,-0.503,-78.693,423.514,248.034,-106.764,-551.040,-351.490,323.980
618,37959.460000,246.116,177.540,-68.732,423.591,254.938,-101.707,-632.040,-40.490,154.980
619,37959.506000,254.023,40.739,-69.728,425.477,250.081,-102.791,780.960,313.510,130.980
620,37959.540000,234.255,-4.527,-49.805,427.391,245.504,-91.121,-385.040,264.510,165.980
621,37959.580000,253.035,-12.574,-32.872,427.369,241.772,-84.339,-222.040,130.510,199.980
622,37959.621000,257.977,-35.709,-72.716,429.368,247.681,-81.262,-158.040,137.510,92.980
623,37959.661000,260.942,0.503,-66.739,432.264,245.012,-71.508,-640.040,254.510,-4.020
624,37959.701000,250.069,-23.639,-46.817,429.412,247.227,-57.736,-176.040,226.510,-79.020
625,37959.737000,242.162,-26.656,-17.930,443.110,260.283,-43.688,-419.040,12.510,-152.020
626,37959.757000,248.093,16.597,-12.949,438.265,262.803,-59.333,-147.040,-301.490,-229.020
627,37959.797000,249.081,-12.574,4.981,429.581,267.335,-70.038,-243.040,-578.490,-253.020
628,37959.843000,250.069,-12.574,21.914,416.964,267.709,-91.631,-95.040,-1155.490,-379.020
629,37959.878000,304.432,40.739,9.961,401.539,281.280,-129.608,158.960,-1658.490,-464.020
630,37959.918000,406.239,78.963,1.992,387.962,283.478,-156.066,-146.040,-2139.490,-396.020
631,37959.957000,512.988,51.804,156.389,365.616,282.355,-197.325,-487.040,-2479.490,-548.020
632,37959.997000,301.467,-146.358,-220.140,328.991,302.687,-227.352,-926.040,-2365.490,-713.020
633,37960.37000,166.054,-62.868,48.809,305.783,310.487,-259.589,204.960,-1363.490,-574.020
634,37960.57000,77.097,-32.692,32.872,313.574,314.575,-253.598,-620.040,749.510,139.980
635,37960.97000,80.062,-66.892,-4.981,348.305,299.014,-226.412,-1.040,2102.510,457.980
636,37960.143000,140.355,-10.562,-59.767,398.691,295.858,-171.459,11.960,3418.510,763.980
637,37960.178000,219.429,-39.733,-167.346,434.276,265.139,-127.936,1276.960,3921.510,1169.980
638,37960.226000,300.479,108.134,-330.708,484.418,235.877,-68.659,2415.960,3823.510,932.980
639,37960.260000,240.185,48.786,-403.424,507.604,219.944,-9.144,-73.040,2138.510,277.980
640,37960.300000,222.394,-18.609,-393.463,516.218,206.803,7.254,-171.040,307.510,373.980
641,37960.337000,222.394,127.246,-251.019,516.107,199.576,-12.520,-281.040,-1315.490,-8.020
642,37960.381000,233.266,86.004,-153.401,510.320,204.978,-29.084,379.960,-331.490,-97.020
643,37960.401000,284.664,19.615,-86.661,508.290,196.998,-38.091,-53.040,-255.490,100.980
644,37960.442000,268.849,-32.692,-25.899,510.240,199.800,-43.909,460.960,-82.490,61.980
645,37960.480000,263.907,-36.715,0.996,508.267,195.897,-43.999,-54.040,-141.490,64.980
646,37960.520000,254.023,-14.585,-35.860,506.262,189.924,-50.020,63.960,-174.490,-36.020
647,37960.561000,249.081,-8.550,-26.895,508.258,195.811,-47.924,-22.040,-137.490,-70.020
648,37960.598000,246.116,-21.627,-31.875,514.183,208.467,-48.611,-34.040,-145.490,-85.020
649,37960.638000,242.162,3.521,-31.875,512.237,209.225,-57.424,-69.040,-221.490,-79.020
650,37960.680000,252.046,-1.509,-24.903,509.298,207.083,-65.323,-84.040,-297.490,-70.020
651,37960.720000,241.174,23.639,-5.977,507.355,207.862,-73.156,-244.040,-460.490,-73.020
652,37960.740000,245.127,11.568,-4.981,497.619,205.416,-91.863,-257.040,-875.490,-16.020
653,37960.780000,262.919,19.615,-32.872,494.716,209.789,-112.366,-237.040,-1009.490,50.980
654,37960.821000,261.931,-3.521,-80.685,484.976,208.185,-136.938,-85.040,-1085.490,88.980
655,37960.861000,235.243,-5.532,-157.385,483.926,202.976,-152.747,-249.040,-670.490,19.980
656,37960.901000,224.371,-29.674,-140.451,477.182,206.707,-156.601,350.960,-43.490,-39.020
657,37960.941000,249.081,59.851,-146.428,481.965,200.066,-151.835,-100.040,302.510,75.980
658,37960.981000,258.965,18.609,-95.626,492.711,208.217,-138.883,-345.040,601.510,152.980
659,37961.22000,213.498,-26.656,-64.747,496.595,205.752,-120.297,-303.040,653.510,114.980
660,37961.42000,283.676,-0.503,-61.759,501.487,207.202,-100.641,-332.040,565.510,21.980
661,37961.82000,279.722,38.727,-59.767,506.346,205.695,-83.012,-533.040,580.510,24.980
662,37961.141000,239.197,-11.568,-33.868,513.180,208.997,-68.215,-194.040,446.510,-1.020
663,37961.163000,239.197,-6.538,-36.856,514.146,207.238,-60.406,-41.040,260.510,-13.020
664,37961.198000,226.347,-6.538,-48.809,518.020,206.434,-54.532,90.960,248.510,-9.020
665,37961.238000,234.255,-19.615,-41.837,515.137,208.347,-54.496,317.960,145.510,-55.020
666,37961.278000,244.139,-8.550,-19.922,511.230,205.311,-58.494,367.960,52.510,-50.020
667,37961.318000,254.023,19.615,-51.798,508.347,208.109,-62.361,300.960,-66.490,-68.020
668,37961.361000,255.012,17.603,-71.720,511.294,212.085,-59.324,154.960,65.510,-24.020
669,37961.381000,257.977,15.591,-81.681,514.188,210.280,-54.455,-81.040,358.510,103.980
670,37961.421000,296.525,67.898,-59.767,516.106,206.609,-45.706,-272.040,564.510,210.980
671,37961.462000,264.896,91.033,-54.786,523.790,193.826,-12.631,-700.040,1066.510,171.980
672,37961.502000,194.718,67.898,-280.903,522.883,198.800,-6.639,1718.960,660.510,-391.020
673,37961.542000,204.602,59.851,-490.086,508.455,214.430,-39.665,910.960,-1297.490,-408.020
674,37961.588000,260.942,-24.644,-282.895,483.334,229.460,-95.282,-1171.040,-2686.490,-376.020
675,37961.622000,237.220,20.621,-223.128,439.901,251.150,-148.828,-1391.040,-3060.490,-445.020
676,37961.663000,221.405,2.515,-126.506,399.389,271.272,-186.713,-1371.040,-2792.490,-635.020
677,37961.678000,189.776,-62.868,-43.829,367.604,289.925,-206.960,-446.040,-2224.490,-666.020
678,37961.718000,198.672,-75.945,-38.848,345.367,296.008,-229.427,348.960,-1094.490,-279.020
679,37961.758000,218.440,-68.904,24.903,335.644,292.807,-238.344,636.960,-221.490,7.980
680,37961.798000,315.305,-90.028,46.817,345.339,292.211,-225.589,39.960,1129.510,299.980
681,37961.840000,337.050,-50.798,29.883,364.668,284.288,-197.285,621.960,1839.510,292.980
682,37961.880000,411.181,41.745,48.809,385.910,273.535,-166.097,415.960,1680.510,680.980
683,37961.923000,334.085,-47.780,10.957,394.625,271.052,-150.443,571.960,1505.510,162.980
684,37961.960000,281.699,-27.662,-21.914,407.252,272.534,-132.732,-74.040,1002.510,322.980
685,37962.0,319.259,111.151,0.996,414.957,267.000,-123.032,784.960,833.510,91.980
686,37962.21000,242.162,-17.603,-47.813,421.674,258.608,-110.455,253.960,515.510,116.980
687,37962.61000,233.266,6.538,-57.774,423.623,256.125,-91.874,-97.040,327.510,84.980
688,37962.101000,249.081,6.538,-64.747,418.737,252.086,-96.877,307.960,266.510,29.980
689,37962.140000,252.046,-8.550,-68.732,422.599,251.175,-95.909,223.960,384.510,-45.020
690,37962.180000,253.035,22.633,-41.837,423.606,254.204,-90.936,124.960,270.510,-88.020
691,37962.220000,247.104,-2.515,-15.938,424.621,259.068,-90.826,69.960,12.510,-93.020
692,37962.260000,250.069,16.597,2.988,420.688,253.141,-93.908,-18.040,-191.490,-111.020
693,37962.300000,248.093,15.591,-34.864,416.890,262.596,-103.512,-109.040,-593.490,-101.020
694,37962.323000,248.093,12.574,-105.588,413.007,263.313,-113.311,-170.040,-510.490,-44.020
695,37962.363000,241.174,5.532,-111.564,412.953,258.394,-116.363,-103.040,-181.490,-0.020
696,37962.405000,245.127,12.574,-92.638,411.075,264.201,-116.238,-64.040,-13.490,-16.020
697,37962.440000,238.208,30.680,-75.704,409.128,262.305,-113.342,-160.040,32.510,40.980
698,37962.480000,238.208,38.727,-62.755,412.063,265.289,-111.308,-158.040,21.510,86.980
699,37962.520000,240.185,11.568,-62.755,418.825,263.499,-107.411,-91.040,46.510,119.980
700,37962.563000,233.266,10.562,-83.673,412.985,259.581,-106.530,-117.040,141.510,110.980
701,37962.603000,258.965,-9.556,-72.716,414.881,253.947,-98.805,-158.040,161.510,56.980
702,37962.645000,256.000,71.921,-101.603,421.650,252.222,-91.965,-148.040,408.510,151.980
703,37962.660000,244.139,31.686,-42.833,423.575,249.501,-84.176,-331.040,441.510,204.980
704,37962.701000,245.127,-19.615,-23.907,425.579,253.705,-70.349,-459.040,278.510,175.980
705,37962.753000,247.104,-28.668,-41.837,433.287,248.193,-59.668,-357.040,217.510,102.980
706,37962.781000,252.046,21.627,-24.903,433.307,248.387,-50.837,-538.040,148.510,31.980
707,37962.822000,242.162,-19.615,-26.895,433.378,252.594,-36.034,-537.040,32.510,-4.020
708,37962.862000,247.104,-6.538,-25.899,441.233,264.341,-34.776,-565.040,-66.490,-51.020
709,37962.902000,251.058,-1.509,-12.949,441.239,266.154,-40.620,-597.040,-134.490,-73.020
710,37962.948000,244.139,-3.521,0.996,437.355,265.102,-42.613,-427.040,-311.490,-191.020
711,37962.962000,243.151,-50.798,53.790,428.633,266.635,-57.307,235.960,-926.490,-258.020
712,37963.3000,302.456,60.857,-15.938,412.151,270.531,-93.540,516.960,-1587.490,-331.020
713,37963.43000,452.695,129.257,65.743,398.512,269.493,-134.779,-432.040,-2171.490,-358.020
714,37963.82000,512.988,14.585,246.039,371.497,285.777,-176.643,-945.040,-2614.490,-641.020
715,37963.121000,400.309,-122.216,-57.774,335.735,298.956,-223.498,426.960,-2437.490,-1169.020
716,37963.162000,217.452,-78.963,-0.996,320.228,301.179,-247.998,681.960,-824.490,-534.020
717,37963.202000,74.131,-93.045,40.840,332.825,301.495,-239.138,-294.040,1126.510,258.980
718,37963.242000,60.293,-42.750,12.949,368.630,294.897,-201.944,-254.040,2397.510,719.980
719,37963.290000,167.042,1.509,-109.572,424.702,278.335,-141.392,-336.040,3611.510,1136.980
720,37963.303000,276.757,43.756,-194.241,477.701,241.615,-69.527,1572.960,3891.510,1550.980
721,37963.345000,315.305,141.328,-362.584,510.461,212.485,3.445,884.960,3309.510,656.980
722,37963.380000,229.313,37.721,-442.272,521.123,203.981,53.293,-647.040,1528.510,338.980
723,37963.425000,194.718,133.281,-467.175,523.912,193.243,49.138,-445.040,-624.490,226.980
724,37963.465000,324.201,167.481,225.121,521.994,199.546,27.699,904.960,-348.490,-345.020
725,37963.500000,210.533,135.293,-93.634,521.955,200.927,2.232,1893.960,-574.490,-125.020
726,37963.543000,257.977,-33.697,-53.790,518.969,194.814,-9.678,-231.040,-247.490,71.980
727,37963.583000,268.849,19.615,-0.996,519.948,196.701,-12.576,428.960,-133.490,31.980
728,37963.603000,256.000,-38.727,-8.965,522.858,198.563,-17.432,-27.040,-222.490,-56.020
729,37963.642000,259.954,-11.568,-14.942,517.105,203.404,-15.375,37.960,-261.490,-142.020
730,37963.683000,250.069,-14.585,-22.911,515.164,204.205,-22.226,13.960,-234.490,-162.020
731,37963.725000,246.116,-0.503,-39.844,516.184,211.766,-31.862,-87.040,-206.490,-144.020
732,37963.765000,244.139,-5.532,-8.965,513.268,211.608,-37.756,-124.040,-305.490,-139.020
733,37963.807000,232.278,38.727,30.879,507.536,221.044,-47.365,-24.040,-548.490,-155.020
734,37963.842000,262.919,31.686,-36.856,502.657,222.356,-73.824,1.960,-1009.490,-116.020
735,37963.883000,266.873,14.585,-103.595,495.802,218.860,-97.452,-164.040,-957.490,-40.020
736,37963.923000,243.151,-4.527,-100.607,493.898,222.660,-100.314,-341.040,-469.490,-30.020
737,37963.945000,230.301,-9.556,-107.580,491.958,224.346,-111.068,243.960,-342.490,-134.020
738,37963.986000,238.208,24.644,-94.630,485.125,220.180,-120.981,355.960,-189.490,-93.020
739,37964.25000,246.116,7.544,-84.669,484.205,225.910,-124.779,103.960,-48.490,-4.020
740,37964.65000,248.093,-11.568,-95.626,489.984,222.191,-119.946,35.960,108.510,83.980
741,37964.105000,203.614,47.780,-106.584,490.917,216.591,-110.262,-95.040,367.510,74.980
742,37964.141000,217.452,41.745,-82.677,493.870,220.632,-104.282,768.960,606.510,-72.020
743,37964.183000,274.780,-35.709,-41.837,493.839,215.929,-97.521,303.960,650.510,-5.020
744,37964.222000,262.919,52.809,-54.786,498.762,222.081,-84.626,306.960,577.510,-34.020
745,37964.243000,245.127,-18.609,-58.770,503.586,217.598,-70.005,-200.040,632.510,42.980
746,37964.283000,247.104,14.585,-28.887,508.506,221.960,-50.285,-84.040,621.510,4.980
747,37964.325000,250.069,13.580,-11.953,504.592,214.457,-36.730,89.960,515.510,34.980
748,37964.366000,250.069,-13.580,8.965,504.634,218.384,-34.682,-12.040,270.510,-9.020
749,37964.401000,255.012,3.521,13.946,509.511,221.451,-29.700,8.960,119.510,-50.020
750,37964.441000,255.012,5.532,-2.988,511.465,224.296,-33.556,-47.040,-49.490,-36.020
751,37964.482000,264.896,19.615,-85.665,509.558,226.306,-29.592,-98.040,151.510,-31.020
752,37964.522000,308.386,38.727,-80.685,510.469,216.973,-13.126,-297.040,725.510,39.980
753,37964.543000,286.641,62.868,-44.825,515.453,222.824,30.163,-1644.040,1346.510,307.980
754,37964.585000,207.568,42.750,-368.560,520.282,216.635,55.533,17.960,770.510,23.980
755,37964.625000,201.637,117.187,-403.424,509.600,220.545,17.352,1046.960,-1275.490,-103.020
756,37964.665000,255.012,13.580,-325.728,494.078,224.386,-21.822,-1091.040,-2847.490,-202.020
757,37964.705000,234.255,73.933,-224.125,464.033,232.378,-86.432,-959.040,-3305.490,-550.020
758,37964.745000,205.591,22.633,-70.724,417.723,257.794,-145.786,-494.040,-3081.490,-871.020
759,37964.785000,175.938,-19.615,13.946,382.954,272.989,-189.651,552.960,-1914.490,-763.020
760,37964.831000,273.792,-74.939,55.782,363.679,282.315,-198.311,157.960,-755.490,-411.020
761,37964.867000,331.120,-109.139,57.774,365.696,288.396,-187.385,-354.040,675.510,-7.020
762,37964.882000,508.046,-125.234,235.082,385.018,280.408,-162.024,858.960,1582.510,466.980
763,37964.926000,415.135,239.906,31.875,396.584,270.424,-135.743,-1219.040,1785.510,309.980
764,37964.966000,330.131,24.644,-5.977,410.253,273.511,-89.555,28.960,1901.510,428.980
765,37965.2000,310.363,0.503,41.837,426.734,270.478,-58.206,165.960,1127.510,271.980
766,37965.42000,246.116,-15.591,26.895,436.385,264.186,-39.693,-47.040,592.510,211.980
767,37965.82000,229.313,15.591,-26.895,434.383,254.718,-28.139,33.960,190.510,90.980
768,37965.122000,243.151,12.574,-57.774,430.539,257.571,-29.065,370.960,69.510,87.980
769,37965.178000,255.012,14.585,-52.794,432.456,258.302,-40.813,543.960,153.510,76.980
770,37965.186000,259.954,-13.580,-28.887,432.421,254.440,-39.918,254.960,190.510,17.980
771,37965.226000,252.046,-7.544,-26.895,433.409,256.413,-38.891,324.960,142.510,-14.020
772,37965.266000,251.058,-6.538,-6.973,431.414,251.410,-44.890,561.960,23.510,-51.020
773,37965.306000,247.104,13.580,-2.988,427.623,260.930,-51.552,354.960,-193.490,-122.020
774,37965.346000,258.965,49.792,-29.883,426.615,260.532,-69.215,362.960,-517.490,-69.020
775,37965.386000,245.127,37.721,-99.611,426.566,257.426,-78.110,33.960,-419.490,29.980
776,37965.426000,234.255,7.544,-90.646,425.632,260.372,-76.085,-253.040,-4.490,59.980
777,37965.462000,258.965,1.509,-46.817,426.542,253.672,-72.309,-146.040,-21.490,9.980
778,37965.502000,244.139,6.538,-38.848,426.587,258.504,-73.182,-122.040,-13.490,-23.020
779,37965.522000,236.232,10.562,-42.833,422.743,261.358,-74.108,84.960,-157.490,-26.020
780,37965.565000,233.266,7.544,-64.747,423.704,262.187,-80.952,78.960,-289.490,56.980
781,37965.618000,222.394,3.521,-84.669,422.616,252.210,-92.944,-0.040,-354.490,111.980
782,37965.646000,275.768,32.692,15.938,419.744,255.116,-91.905,52.960,-261.490,31.980
783,37965.686000,283.676,-3.521,-95.626,421.625,250.216,-94.951,121.960,4.510,-5.020
784,37965.726000,251.058,57.839,-109.572,421.674,254.207,-89.959,-22.040,239.510,28.980
785,37965.766000,246.116,-2.515,-18.926,425.482,246.607,-84.236,236.960,223.510,74.980
786,37965.806000,251.058,-4.527,-65.743,427.429,248.503,-87.132,343.960,9.510,14.980
787,37965.846000,255.012,9.556,-56.778,422.575,246.536,-86.205,-46.040,119.510,-52.020
788,37965.870000,241.174,-16.597,-40.840,421.712,254.574,-73.280,-428.040,105.510,-50.020
789,37965.905000,241.174,18.609,-41.837,428.505,255.719,-68.337,-264.040,-30.490,-97.020
790,37965.945000,251.058,2.515,-20.918,431.514,269.102,-78.821,-172.040,-230.490,-98.020
791,37965.985000,258.965,6.538,-10.957,424.696,266.835,-90.653,-180.040,-533.490,-137.020
792,37966.25000,250.069,-21.627,29.883,412.983,259.559,-107.511,-133.040,-971.490,-225.020
793,37966.65000,299.490,25.650,19.922,398.534,272.341,-137.658,-45.040,-1676.490,-364.020
794,37966.106000,428.973,110.145,12.949,371.372,273.135,-177.905,-65.040,-2184.490,-279.020
795,37966.145000,512.988,51.804,191.253,345.256,283.495,-224.802,-274.040,-2698.490,-388.020
796,37966.165000,512.988,36.715,150.412,326.014,296.661,-235.337,-2453.040,-2586.490,-277.020
797,37966.205000,347.923,-81.980,-118.537,300.909,307.441,-263.590,-430.040,-1745.490,-359.020
798,37966.248000,62.270,-34.703,42.833,310.768,323.393,-248.505,-1822.040,681.510,488.980
799,37966.285000,53.375,-59.851,-0.996,354.336,318.855,-209.288,-632.040,2100.510,921.980
800,37966.326000,124.541,-42.750,-81.681,413.186,290.562,-153.894,718.960,3542.510,1300.980
801,37966.366000,223.382,61.862,-219.144,470.835,238.895,-101.963,2393.960,3990.510,1380.980
802,37966.406000,347.923,199.670,-407.409,504.605,212.817,-23.038,1884.960,3742.510,621.980
803,37966.446000,277.745,-0.503,-479.128,518.149,204.147,17.986,-621.040,1865.510,266.980
804,37966.485000,214.486,61.862,-409.401,521.025,200.399,22.812,-613.040,-985.490,432.980
805,37966.507000,330.131,207.717,135.471,519.979,196.118,5.063,-348.040,-406.490,-169.020
806,37966.553000,245.127,69.910,-93.634,513.164,195.642,-13.594,1757.960,-519.490,-163.020
807,37966.587000,254.023,-75.945,-30.879,514.189,202.362,-17.365,-592.040,-200.490,39.980
808,37966.627000,275.768,7.544,-40.840,507.368,198.304,-22.373,785.960,-80.490,-66.020
809,37966.671000,256.988,-13.580,-14.942,511.190,193.488,-22.472,202.960,-68.490,-160.020
810,37966.703000,255.012,20.621,-9.961,511.386,213.854,-23.000,124.960,-151.490,-189.020
811,37966.743000,249.081,-2.515,-21.914,513.369,220.497,-30.694,213.960,-196.490,-140.020
812,37966.788000,245.127,21.627,-23.907,510.398,216.283,-44.523,64.960,-268.490,-131.020
813,37966.805000,247.104,6.538,14.942,504.641,222.850,-52.235,-136.040,-590.490,-159.020
814,37966.845000,226.347,33.697,25.899,495.934,228.051,-76.654,-292.040,-1107.490,-171.020
815,37966.887000,256.988,34.703,-104.591,491.020,226.386,-106.121,124.960,-1262.490,-70.020
816,37966.937000,273.792,31.686,-117.541,482.249,223.043,-121.905,-512.040,-995.490,-15.020
817,37966.966000,244.139,12.574,-111.564,478.378,224.753,-130.701,-459.040,-562.490,-35.020
818,37967.7000,248.093,7.544,-108.576,474.533,229.354,-140.413,-145.040,-494.490,-69.020
819,37967.47000,234.255,28.668,-120.529,474.588,236.042,-145.168,-88.040,-338.490,-10.020
820,37967.87000,208.556,0.503,-134.475,475.529,234.045,-148.152,-0.040,-50.490,6.980
821,37967.123000,213.498,12.574,-140.451,477.428,229.318,-143.350,117.960,272.510,70.980
822,37967.148000,202.625,18.609,-130.490,480.339,227.663,-131.613,63.960,589.510,75.980
823,37967.188000,201.637,55.827,-140.451,482.249,222.159,-118.002,255.960,866.510,118.980
824,37967.223000,291.583,0.503,-32.872,489.077,223.648,-97.360,213.960,999.510,124.980
825,37967.277000,257.977,17.603,-41.837,496.843,222.214,-77.762,-5.040,764.510,109.980
826,37967.313000,243.151,12.574,-37.852,502.594,212.950,-60.304,-333.040,627.510,175.980
827,37967.347000,248.093,-8.550,-21.914,510.369,213.370,-44.588,-259.040,501.510,144.980
828,37967.383000,237.220,-0.503,-23.907,509.415,212.606,-34.800,-77.040,319.510,97.980
829,37967.430000,247.104,-18.609,-20.918,509.419,212.649,-32.838,269.960,234.510,41.980
830,37967.445000,253.035,-2.515,-26.895,509.414,211.721,-30.897,116.960,177.510,26.980
831,37967.485000,263.907,15.591,-44.825,510.360,208.883,-28.016,54.960,208.510,41.980
832,37967.526000,256.000,7.544,-65.743,510.376,208.149,-17.245,-235.040,416.510,101.980
833,37967.567000,346.934,93.045,-41.837,514.194,198.888,1.190,-416.040,684.510,164.980
834,37967.607000,223.382,61.862,-112.560,519.060,193.929,38.355,-1485.040,1133.510,275.980
835,37967.648000,181.869,66.892,-490.086,517.225,206.316,28.820,1395.960,-51.490,-299.020
836,37967.687000,228.324,31.686,-304.809,515.258,209.512,-1.514,-166.040,-1562.490,-95.020
837,37967.733000,206.579,36.715,-289.868,492.022,217.916,-50.409,-1526.040,-2709.490,-367.020
838,37967.767000,216.463,90.028,-200.218,454.397,240.569,-106.864,-1257.040,-3012.490,-742.020
839,37967.787000,212.510,19.615,-118.537,409.098,269.942,-163.186,511.960,-2624.490,-1057.020
840,37967.833000,170.996,17.603,-71.720,372.329,279.207,-211.110,888.960,-2050.490,-944.020
841,37967.867000,169.019,-20.621,-14.942,340.391,282.305,-232.683,603.960,-767.490,-736.020
842,37967.906000,267.861,-17.603,59.767,337.578,290.173,-226.631,533.960,541.510,-443.020
843,37967.947000,414.147,-95.057,64.747,346.255,284.691,-214.966,129.960,1349.510,-38.020
844,37967.988000,512.988,5.532,50.802,377.251,280.074,-173.816,-298.040,2259.510,518.980
845,37968.35000,299.490,67.898,46.817,399.564,277.356,-130.680,-131.040,1909.510,474.980
846,37968.68000,344.958,33.697,5.977,413.044,265.428,-105.419,200.960,1435.510,364.980
847,37968.88000,263.907,12.574,16.934,425.637,261.300,-78.026,-57.040,1153.510,285.980
848,37968.128000,238.208,6.538,-6.973,431.404,254.841,-65.408,336.960,648.510,182.980
849,37968.168000,242.162,-3.521,-3.984,435.339,259.905,-57.442,179.960,317.510,132.980
850,37968.208000,242.162,6.538,-13.946,434.338,255.171,-51.665,212.960,164.510,127.980
851,37968.247000,255.012,-18.609,-18.926,432.335,249.219,-56.705,190.960,-17.490,56.980
852,37968.287000,253.035,-11.568,-29.883,433.249,245.194,-63.657,378.960,-149.490,-58.020
853,37968.325000,252.046,0.503,-38.848,426.502,249.767,-73.376,298.960,-134.490,-93.020
854,37968.366000,243.151,8.550,-22.911,429.442,253.678,-73.283,173.960,-160.490,-141.020
855,37968.396000,258.965,28.668,-29.883,424.550,251.344,-89.036,28.960,-511.490,-172.020
856,37968.430000,254.023,25.650,-124.514,418.770,255.042,-94.850,-133.040,-504.490,-95.020
857,37968.467000,244.139,19.615,-105.588,415.822,250.181,-93.984,-205.040,-151.490,-65.020
858,37968.506000,242.162,-5.532,-16.934,412.982,257.790,-99.705,-360.040,-170.490,-65.020
859,37968.546000,243.151,19.615,-41.837,412.050,262.527,-104.505,21.960,-317.490,-20.020
860,37968.586000,237.220,16.597,-53.790,411.027,257.577,-108.539,36.960,-364.490,-12.020
861,37968.631000,239.197,15.591,-84.669,406.115,251.532,-116.529,-76.040,-348.490,33.980
862,37968.666000,237.220,29.674,-93.634,400.341,255.294,-119.400,-53.040,-246.490,-0.020
863,37968.707000,247.104,13.580,-103.595,403.225,253.381,-119.436,-50.040,-26.490,63.980
864,37968.727000,250.069,28.668,-119.533,403.248,255.366,-117.431,83.960,226.510,156.980
865,37968.767000,250.069,46.774,-98.615,412.943,255.654,-108.578,-151.040,450.510,215.980
866,37968.810000,245.127,0.503,-24.903,419.664,247.306,-94.039,-316.040,391.510,265.980
867,37968.850000,244.139,-40.739,-50.802,418.705,247.383,-90.117,73.960,240.510,131.980
868,37968.890000,256.988,33.697,-53.790,420.590,240.757,-83.395,-192.040,144.510,-8.020
869,37968.926000,252.046,1.509,-27.891,419.641,241.804,-79.452,-365.040,9.510,1.980
870,37968.975000,245.127,-32.692,-37.852,428.519,257.617,-70.256,-290.040,-170.490,-53.020
871,37969.8000,252.046,-2.515,-42.833,432.452,267.062,-83.767,-226.040,-258.490,-98.020
872,37969.26000,262.919,15.591,-53.790,420.747,258.987,-92.797,-308.040,-311.490,-118.020
873,37969.67000,237.220,-9.556,21.914,415.004,267.453,-102.428,-350.040,-558.490,-172.020
874,37969.107000,276.757,12.574,21.914,406.283,269.871,-121.025,123.960,-1191.490,-355.020
875,37969.147000,325.189,49.792,5.977,388.784,268.881,-158.349,32.960,-1716.490,-406.020
876,37969.187000,493.220,97.069,97.619,373.308,274.923,-185.706,-452.040,-2249.490,-258.020
877,37969.227000,512.988,16.597,231.097,348.216,287.601,-215.878,-1363.040,-2454.490,-396.020
878,37969.275000,357.807,-114.169,-308.794,311.470,297.966,-257.894,-63.040,-2601.490,-706.020
879,37969.315000,190.764,-16.597,-3.984,295.989,303.079,-283.310,-49.040,-898.490,-255.020
880,37969.356000,94.888,-107.128,60.763,312.526,309.388,-268.426,-855.040,585.510,370.980
881,37969.370000,73.143,-15.591,-14.942,361.889,303.936,-229.216,-553.040,2404.510,835.980
882,37969.410000,148.263,-10.562,-97.619,422.795,284.745,-157.925,-594.040,3319.510,1211.980
883,37969.450000,256.000,33.697,-196.233,462.228,250.331,-107.612,1605.960,4127.510,1591.980
884,37969.490000,315.305,163.458,-314.770,510.450,217.664,-25.860,2426.960,4211.510,1037.980
885,37969.531000,260.942,79.969,-486.101,526.916,203.045,52.303,-317.040,2098.510,201.980
886,37969.566000,205.591,33.697,-428.327,530.688,190.698,62.825,327.960,-50.490,312.980
887,37969.606000,385.483,164.464,226.117,529.660,190.107,36.331,3.960,-940.490,-241.020
888,37969.646000,388.448,158.428,31.875,526.803,200.197,11.052,1664.960,-1128.490,-41.020
889,37969.666000,215.475,-45.768,-64.747,521.938,199.006,3.170,-135.040,-403.490,74.980
890,37969.730000,273.792,-82.986,-14.942,523.836,196.911,-4.718,556.960,-318.490,-30.020
891,37969.746000,268.849,-18.609,-40.840,522.841,196.643,-16.494,287.960,-276.490,-94.020
892,37969.786000,263.907,31.686,-46.817,515.149,201.422,-16.404,86.960,-175.490,-144.020
893,37969.827000,245.127,-8.550,-28.887,520.985,205.297,-19.247,105.960,-103.490,-119.020
894,37969.875000,251.058,3.521,-18.926,517.097,205.971,-31.008,137.960,-165.490,-104.020
895,37969.911000,255.012,7.544,-1.992,515.211,212.576,-38.711,-83.040,-301.490,-112.020
896,37969.946000,228.324,24.644,8.965,514.272,217.248,-46.455,-294.040,-681.490,-117.020
897,37970.5000,240.185,-19.615,16.934,511.276,211.913,-67.173,-43.040,-980.490,-108.020
898,37970.11000,285.652,22.633,-79.689,504.494,214.393,-83.804,-532.040,-690.490,34.980
899,37970.47000,247.104,51.804,-97.619,501.573,214.192,-91.660,-642.040,-565.490,48.980
900,37970.87000,241.174,21.627,-79.689,501.631,222.671,-103.239,-671.040,-660.490,19.980
901,37970.130000,231.290,-9.556,-115.549,501.638,223.620,-104.199,-434.040,-511.490,15.980
902,37970.175000,192.741,1.509,-138.459,498.739,225.383,-111.031,-376.040,-258.490,20.980
903,37970.222000,193.730,-30.680,-147.424,498.656,216.666,-110.244,295.960,187.510,-7.020
904,37970.250000,199.660,-14.585,-146.428,502.559,218.775,-104.305,565.960,416.510,-25.020
905,37970.301000,242.162,40.739,-102.599,503.515,215.160,-92.615,590.960,835.510,5.980
906,37970.308000,331.120,-4.527,-6.973,508.386,215.531,-77.886,489.960,841.510,-52.020
907,37970.348000,256.000,26.656,-36.856,510.364,216.844,-63.143,133.960,593.510,-13.020
908,37970.390000,253.035,4.527,-43.829,514.331,223.095,-45.344,-200.040,492.510,41.980
909,37970.431000,230.301,8.550,-31.875,514.262,214.508,-38.670,-207.040,428.510,46.980
910,37970.471000,235.243,-6.538,-24.903,514.289,215.652,-30.800,80.960,285.510,31.980
911,37970.511000,237.220,5.532,-29.883,514.306,216.687,-27.835,191.960,157.510,0.980
912,37970.551000,253.035,-0.503,-35.860,512.345,214.662,-30.826,106.960,148.510,-7.020
913,37970.588000,269.838,18.609,-56.778,515.310,219.696,-23.843,71.960,323.510,-34.020
914,37970.627000,287.629,21.627,-61.759,519.216,220.078,-8.136,-68.040,564.510,-7.020
915,37970.648000,344.958,107.128,-33.868,521.195,218.759,19.298,-498.040,856.510,105.980
916,37970.688000,206.579,40.739,-139.455,524.030,204.937,51.359,-1223.040,1225.510,264.980
917,37970.728000,141.344,40.739,-492.078,521.185,208.101,64.172,482.960,328.510,-201.020
918,37970.768000,191.753,95.057,-458.210,516.231,206.932,13.141,-971.040,-2069.490,44.980
919,37970.808000,254.023,26.656,-288.872,494.016,224.666,-53.197,-1670.040,-3031.490,-276.020
920,37970.848000,252.046,128.251,-200.218,447.704,251.830,-121.338,-1224.040,-3356.490,-836.020
921,37970.888000,213.498,36.715,-52.794,399.362,266.612,-177.990,106.960,-2823.490,-1049.020
922,37970.928000,202.625,4.527,11.953,374.287,280.326,-205.197,589.960,-1605.490,-880.020
923,37970.948000,231.290,-69.910,70.724,350.133,287.447,-223.723,571.960,-411.490,-685.020
924,37970.993000,289.606,-90.028,80.685,345.342,290.485,-215.820,786.960,1200.510,-202.020
925,37971.28000,512.988,-271.088,240.062,361.747,282.318,-197.334,1485.960,2141.510,252.980
926,37971.68000,402.286,328.424,41.837,384.965,273.741,-156.288,266.960,1896.510,359.980
927,37971.108000,270.826,51.804,-1.992,401.312,257.095,-126.223,1038.960,1569.510,387.980
928,37971.147000,338.039,-52.809,-16.934,412.932,252.030,-96.891,27.960,1305.510,401.980
929,37971.187000,260.942,27.662,25.899,424.546,248.669,-78.308,-266.040,1223.510,336.980
930,37971.230000,250.069,2.515,-5.977,436.234,253.938,-64.437,199.960,526.510,181.980
931,37971.271000,248.093,-6.538,-31.875,433.260,244.417,-54.848,206.960,114.510,74.980
932,37971.291000,251.058,-0.503,-70.724,429.311,236.569,-56.992,349.960,225.510,45.980
933,37971.342000,255.012,3.521,-43.829,427.404,240.348,-60.835,322.960,303.510,19.980
934,37971.372000,253.035,6.538,-18.926,433.244,243.382,-57.813,299.960,220.510,-29.020
935,37971.411000,249.081,-3.521,-4.981,433.263,244.439,-53.867,200.960,72.510,-50.020
936,37971.451000,242.162,4.527,-26.895,431.328,246.189,-61.678,153.960,-69.490,-111.020
937,37971.491000,262.919,-24.644,2.988,425.522,247.880,-70.478,350.960,-367.490,-218.020
938,37971.531000,268.849,24.644,-33.868,426.435,244.718,-82.315,467.960,-472.490,-176.020
939,37971.571000,249.081,55.827,-121.525,419.717,251.340,-87.085,157.960,-204.490,-20.020
940,37971.592000,243.151,8.550,-48.809,423.533,245.574,-86.224,-259.040,86.510,67.980
941,37971.632000,232.278,27.662,-34.864,424.533,247.655,-80.292,-483.040,73.510,110.980
942,37971.672000,231.290,24.644,-24.903,421.599,243.808,-77.442,-559.040,-260.490,169.980
943,37971.708000,253.035,-0.503,-36.856,423.488,240.742,-85.351,-461.040,-374.490,151.980
944,37971.748000,256.000,-16.597,-45.821,419.590,238.676,-89.328,61.960,-429.490,96.980
945,37971.788000,239.197,1.509,-73.712,420.575,242.375,-98.070,5.960,-387.490,75.980
946,37971.828000,204.602,12.574,-111.564,423.440,238.520,-98.149,-216.040,-5.490,56.980
947,37971.870000,306.409,13.580,-72.716,421.452,231.834,-92.418,157.960,236.510,80.980
948,37971.910000,240.185,44.762,-68.732,420.564,237.866,-82.479,-346.040,351.510,136.980
949,37971.930000,256.000,-12.574,-17.930,425.380,235.065,-79.589,-445.040,235.510,237.980
950,37971.971000,250.069,-69.910,-45.821,430.152,226.568,-70.942,-222.040,68.510,30.980
951,37972.11000,253.035,6.538,-57.774,425.407,235.324,-67.815,-263.040,9.510,-94.020
952,37972.50000,252.046,-11.568,-39.844,425.392,232.540,-61.993,-25.040,-88.490,-129.020
953,37972.92000,247.104,-19.615,-26.895,432.310,248.097,-63.595,-67.040,-260.490,-149.020
954,37972.128000,259.954,9.556,-29.883,430.392,253.515,-81.130,-173.040,-370.490,-155.020
955,37972.170000,252.046,16.597,-26.895,417.734,248.215,-95.985,-229.040,-606.490,-194.020
956,37972.208000,254.023,-2.515,5.977,415.883,258.681,-104.582,-77.040,-897.490,-304.020
957,37972.228000,295.537,45.768,13.946,395.520,259.800,-133.039,-39.040,-1500.490,-370.020
958,37972.268000,326.178,72.927,-21.914,379.979,260.814,-168.353,36.960,-1886.490,-327.020
959,37972.313000,474.440,73.933,63.751,353.867,270.333,-209.385,-626.040,-2344.490,-306.020
960,37972.348000,442.811,21.627,82.677,332.789,296.749,-234.340,-2042.040,-2394.490,-211.020
961,37972.388000,392.402,-96.063,-217.152,302.863,309.402,-263.542,-384.040,-1880.490,-433.020
962,37972.428000,100.819,-44.762,27.891,304.846,316.044,-271.236,-609.040,-245.490,170.980
963,37972.468000,56.340,-45.768,29.883,330.046,315.858,-246.670,-760.040,1199.510,708.980
964,37972.512000,108.726,23.639,-63.751,381.256,299.895,-200.826,-614.040,2726.510,1121.980
965,37972.552000,152.216,-20.621,-73.712,446.017,277.960,-123.704,-154.040,3565.510,1454.980
966,37972.572000,280.710,42.750,-203.206,497.945,231.435,-55.981,2895.960,4035.510,1291.980
967,37972.612000,337.050,139.316,-354.615,521.060,204.261,21.918,1714.960,3484.510,428.980
968,37972.653000,252.046,-25.650,-407.409,526.945,203.325,65.058,665.960,1354.510,116.980
969,37972.693000,234.255,55.827,-365.572,527.853,195.719,71.756,-472.040,-319.490,417.980
970,37972.733000,269.838,30.680,70.724,527.796,193.410,55.033,-986.040,-812.490,-20.020
971,37972.773000,366.703,66.892,-48.809,525.925,201.050,50.296,889.960,-25.490,-200.020
972,37972.813000,251.058,53.815,-56.778,527.802,196.992,41.384,405.960,-0.490,87.980
973,37972.850000,263.907,-48.786,0.000,525.827,193.068,40.312,189.960,7.510,64.980
974,37972.870000,269.838,16.597,-24.903,523.890,193.027,39.326,238.960,5.510,-78.020
975,37972.912000,258.965,-0.503,-14.942,526.794,192.193,44.217,-119.040,25.510,-124.020
976,37972.952000,247.104,-5.532,-2.988,527.928,207.887,51.432,-174.040,-27.490,-114.020
977,37972.992000,248.093,10.562,-20.918,526.023,213.434,39.784,-74.040,-41.490,-81.020
978,37973.32000,260.942,3.521,-15.938,525.978,208.602,40.657,-285.040,-47.490,-86.020
979,37973.73000,246.116,10.562,31.875,523.059,207.538,37.685,-286.040,-326.490,-96.020
980,37973.110000,247.104,-22.633,20.918,522.143,215.943,23.160,-79.040,-637.490,-148.020
981,37973.150000,261.931,5.532,-38.848,519.193,214.577,6.452,68.960,-715.490,-195.020
982,37973.195000,249.081,27.662,-100.607,519.206,218.223,-4.254,22.960,-437.490,-127.020
983,37973.210000,245.127,10.562,-68.732,517.323,223.986,-6.092,-245.040,-76.490,-74.020
984,37973.250000,253.035,13.580,-31.875,517.316,223.037,-5.132,-213.040,-18.490,-47.020
985,37973.291000,254.023,9.556,-24.903,512.531,227.887,-3.073,-30.040,-72.490,-25.020
986,37973.331000,250.069,6.538,-38.848,517.357,227.826,-7.968,32.960,-81.490,-22.020
987,37973.371000,249.081,20.621,-63.751,516.382,226.868,-7.010,-6.040,-36.490,5.980
988,37973.411000,251.058,15.591,-46.817,516.361,224.904,-8.035,25.960,77.510,26.980
989,37973.455000,250.069,17.603,-44.825,519.225,220.165,-4.211,75.960,113.510,45.980
990,37973.495000,252.046,12.574,-47.813,519.277,225.062,-2.141,79.960,180.510,78.980
991,37973.513000,250.069,10.562,-52.794,523.146,223.331,5.674,189.960,290.510,99.980
992,37973.553000,250.069,20.621,-45.821,521.220,223.398,9.594,282.960,415.510,127.980
993,37973.593000,250.069,9.556,-23.907,524.036,212.919,17.213,323.960,455.510,151.980
994,37973.633000,251.058,-12.574,-14.942,525.972,211.191,26.004,354.960,432.510,141.980
995,37973.673000,256.988,3.521,-21.914,526.935,209.388,31.850,348.960,455.510,107.980
996,37973.713000,253.035,0.503,2.988,525.027,210.512,39.717,267.960,406.510,71.980
997,37973.755000,249.081,-8.550,17.930,529.908,213.623,46.661,141.960,273.510,10.980
998,37973.792000,249.081,1.509,6.973,528.922,210.787,50.518,61.960,133.510,-25.020
999,37973.833000,256.000,8.550,-12.949,528.933,210.895,55.424,26.960,153.510,-22.020
1000,37973.853000,254.023,0.503,-1.992,526.058,212.895,59.385,-109.040,208.510,-11.020
1001,37973.923000,256.988,2.515,-5.977,520.251,211.048,66.196,3.960,219.510,-5.020
1002,37973.941000,256.988,-3.521,2.988,523.160,211.141,69.146,-59.040,300.510,-21.020
1003,37973.976000,252.046,-7.544,11.953,523.203,213.320,79.982,-103.040,320.510,-75.020
1004,37974.11000,256.000,3.521,6.973,519.316,210.477,84.814,2.960,314.510,-110.020
1005,37974.51000,255.012,2.515,6.973,513.588,215.555,97.663,-7.040,395.510,-119.020
1006,37974.96000,259.954,-5.532,7.969,515.647,227.332,102.833,129.960,435.510,-186.020
1007,37974.131000,254.023,6.538,26.895,507.949,228.530,116.572,-227.040,404.510,-304.020
1008,37974.152000,255.012,22.633,35.860,507.030,231.627,125.465,-496.040,315.510,-337.020
