Sample, Time, ACCX, ACCY, ACCZ, MAGX, MAGY, MAGZ, GYRX, GYRY, GYRZ
0,38299.184000,254.023,6.538,-25.899,444.127,251.079,22.795,101.960,-7.490,5.980
1,38299.225000,254.023,8.550,-29.883,438.348,253.914,21.865,64.960,5.510,2.980
2,38299.265000,253.035,9.556,-27.891,443.106,246.151,19.741,3.960,16.510,-6.020
3,38299.305000,254.023,10.562,-24.903,443.181,253.033,23.817,-18.040,19.510,-15.020
4,38299.345000,253.035,8.550,-22.911,442.244,255.958,24.860,-39.040,16.510,-22.020
5,38299.388000,254.023,13.580,-21.914,440.306,255.033,27.778,-65.040,16.510,-28.020
6,38299.421000,252.046,12.574,-20.918,441.252,253.079,26.756,-62.040,0.510,-25.020
7,38299.461000,254.023,11.568,-19.922,440.259,250.179,27.670,-13.040,-20.490,-20.020
8,38299.481000,253.035,12.574,-24.903,439.313,253.017,24.789,-2.040,-29.490,-19.020
9,38299.521000,252.046,14.585,-26.895,438.386,257.797,21.951,12.960,-24.490,-13.020
10,38299.565000,253.035,14.585,-24.903,439.356,257.828,22.934,9.960,-19.490,-8.020
11,38299.606000,255.012,13.580,-26.895,435.427,251.944,21.815,24.960,-11.490,-4.020
12,38299.641000,252.046,15.591,-27.891,439.339,255.908,23.872,11.960,-1.490,0.980
13,38299.684000,252.046,11.568,-24.903,440.328,257.881,24.899,2.960,3.510,2.980
14,38299.724000,255.012,15.591,-28.887,436.411,252.989,24.782,16.960,10.510,7.980
15,38299.765000,251.058,13.580,-21.914,441.298,258.796,21.979,35.960,7.510,9.980
16,38299.785000,252.046,13.580,-25.899,439.339,256.793,19.969,25.960,3.510,6.980
17,38299.826000,251.058,11.568,-25.899,439.295,251.960,20.843,-1.040,-4.490,2.980
18,38299.865000,252.046,14.585,-27.891,435.486,258.675,19.022,5.960,-2.490,-0.020
19,38299.904000,252.046,13.580,-25.899,440.300,255.853,20.931,-18.040,6.510,3.980
20,38299.945000,251.058,13.580,-25.899,437.369,252.027,24.763,-17.040,7.510,4.980
21,38299.985000,252.046,13.580,-23.907,440.333,258.808,22.958,-21.040,-1.490,3.980
22,38300.24000,253.035,14.585,-22.911,441.243,252.993,22.831,-23.040,-13.490,-2.020
23,38300.61000,251.058,11.568,-26.895,439.318,253.945,22.848,-67.040,-12.490,-5.020
24,38300.84000,256.000,9.556,-21.914,439.309,252.974,22.827,-53.040,-9.490,-6.020
25,38300.123000,250.069,11.568,-25.899,437.407,256.795,20.946,5.960,-5.490,-2.020
26,38300.163000,253.035,14.585,-26.895,440.255,251.020,21.805,9.960,-3.490,-0.020
27,38300.205000,252.046,14.585,-26.895,443.239,258.880,24.927,6.960,4.510,1.980
28,38300.246000,253.035,13.580,-22.911,438.336,252.037,24.765,4.960,3.510,-1.020
29,38300.286000,254.023,16.597,-26.895,438.421,260.774,24.959,5.960,13.510,2.980
30,38300.333000,251.058,11.568,-24.903,436.444,256.829,22.906,-8.040,9.510,2.980
31,38300.366000,252.046,14.585,-22.911,439.351,256.900,24.875,-13.040,6.510,0.980
32,38300.406000,252.046,15.591,-23.907,438.343,252.986,23.805,-20.040,-4.490,1.980
33,38300.434000,253.035,14.585,-24.903,438.322,251.023,22.781,-17.040,-12.490,0.980
34,38300.468000,252.046,14.585,-24.903,438.334,252.015,23.784,-55.040,-32.490,-11.020
35,38300.509000,254.023,11.568,-26.895,438.407,259.760,22.975,-5.040,-21.490,-9.020
36,38300.545000,251.058,14.585,-30.879,438.407,259.760,22.975,-9.040,21.510,1.980
37,38300.583000,252.046,14.585,-24.903,440.292,254.019,25.794,-20.040,27.510,2.980
38,38300.623000,252.046,10.562,-20.918,439.313,253.017,24.789,-20.040,11.510,-7.020
39,38300.663000,252.046,13.580,-22.911,439.386,260.762,23.980,8.960,-8.490,-14.020
40,38300.703000,252.046,18.609,-24.903,439.367,258.821,23.937,3.960,-14.490,-14.020
41,38300.723000,253.035,15.591,-23.907,438.398,258.790,22.954,5.960,-23.490,-12.020
42,38300.763000,254.023,15.591,-22.911,437.416,256.882,24.871,5.960,-22.490,-9.020
43,38300.809000,253.035,18.609,-26.895,437.383,253.926,22.844,19.960,-9.490,0.980
44,38300.843000,252.046,17.603,-24.903,438.412,260.688,21.035,21.960,-6.490,2.980
45,38300.883000,252.046,13.580,-26.895,438.443,263.622,22.080,1.960,-8.490,4.980
46,38300.923000,252.046,13.580,-27.891,438.409,259.782,23.956,-18.040,3.510,2.980
47,38300.963000,252.046,16.597,-25.899,440.342,259.779,22.980,-33.040,9.510,5.980
48,38301.3000,251.058,12.574,-22.911,438.357,254.000,25.789,-8.040,-0.490,1.980
49,38301.23000,253.035,13.580,-24.903,439.360,257.871,24.897,0.960,-7.490,0.980
50,38301.65000,252.046,16.597,-24.903,436.465,258.792,23.930,-2.040,-5.490,2.980
51,38301.104000,253.035,15.591,-25.899,439.375,260.654,19.075,1.960,-10.490,4.980
52,38301.145000,254.023,16.597,-27.891,437.402,255.868,22.887,-0.040,-7.490,8.980
53,38301.185000,253.035,15.591,-25.899,438.343,252.986,23.805,-6.040,-2.490,8.980
54,38301.226000,252.046,14.585,-28.887,437.406,255.911,24.849,-1.040,7.510,10.980
55,38301.265000,251.058,15.591,-22.911,437.425,257.852,24.892,10.960,13.510,12.980
56,38301.306000,253.035,6.538,-16.934,440.349,260.729,22.020,261.960,-0.490,18.980
57,38301.344000,255.012,13.580,-33.868,440.298,255.831,19.950,148.960,-12.490,-4.020
58,38301.364000,253.035,15.591,-30.879,438.349,254.798,17.962,5.960,21.510,-9.020
59,38301.405000,253.035,16.597,-25.899,437.388,254.854,20.903,-30.040,38.510,-8.020
60,38301.444000,252.046,15.591,-24.903,434.519,258.666,19.020,-72.040,30.510,-6.020
61,38301.484000,253.035,14.585,-23.907,440.359,261.699,22.042,-119.040,29.510,-7.020
62,38301.526000,253.035,17.603,-20.918,439.370,258.842,24.918,-116.040,17.510,-2.020
63,38301.578000,250.069,14.585,-17.930,438.341,252.080,26.727,-63.040,-2.490,0.980
64,38301.605000,251.058,15.591,-23.907,438.416,259.847,26.900,-31.040,-20.490,-1.020
65,38301.646000,252.046,15.591,-23.907,441.245,252.130,27.715,-31.040,-21.490,-1.020
66,38301.669000,252.046,15.591,-24.903,434.487,253.962,25.780,-25.040,-20.490,3.980
67,38301.709000,250.069,13.580,-23.907,434.546,259.809,26.891,-18.040,-19.490,4.980
68,38301.749000,254.023,17.603,-25.899,437.369,252.027,24.763,-11.040,-13.490,6.980
69,38301.784000,252.046,14.585,-25.899,436.481,259.828,26.895,-12.040,-7.490,6.980
70,38301.826000,252.046,16.597,-22.911,437.435,258.823,24.914,-5.040,-10.490,5.980
71,38301.870000,253.035,14.585,-25.899,437.442,259.773,23.954,-4.040,-12.490,7.980
72,38301.906000,251.058,15.591,-22.911,436.486,260.756,24.955,-13.040,-14.490,5.980
73,38301.948000,254.023,14.585,-24.903,436.460,257.865,25.871,-11.040,-8.490,0.980
74,38301.969000,252.046,14.585,-25.899,435.443,252.979,24.780,-12.040,-1.490,2.980
75,38302.13000,253.035,14.585,-23.907,439.365,258.799,22.956,-7.040,2.510,5.980
76,38302.49000,252.046,15.591,-21.914,436.486,260.756,24.955,-0.040,-4.490,-2.020
77,38302.84000,254.023,15.591,-23.907,436.470,258.835,25.893,7.960,-7.490,-0.020
78,38302.124000,252.046,13.580,-24.903,436.470,258.835,25.893,4.960,-5.490,-4.020
79,38302.164000,252.046,15.591,-25.899,437.397,254.940,24.828,8.960,-5.490,-5.020
80,38302.206000,252.046,12.574,-20.918,436.493,260.820,27.898,-3.040,-13.490,-3.020
81,38302.246000,253.035,15.591,-23.907,440.380,263.663,23.066,-10.040,-22.490,-8.020
82,38302.266000,253.035,14.585,-23.907,438.426,260.818,26.921,-3.040,-31.490,-11.020
83,38302.306000,253.035,15.591,-24.903,437.385,253.947,23.825,5.960,-32.490,-7.020
84,38302.345000,253.035,14.585,-29.883,435.493,258.740,21.966,25.960,-28.490,-4.020
85,38302.391000,252.046,16.597,-27.891,435.460,254.899,23.842,-5.040,-17.490,-1.020
86,38302.426000,253.035,15.591,-28.887,437.473,263.591,21.097,-11.040,-10.490,0.980
87,38302.464000,252.046,16.597,-26.895,438.344,253.871,19.902,-1.040,-4.490,1.980
88,38302.504000,254.023,15.591,-28.887,440.307,256.802,19.972,-5.040,1.510,1.980
89,38302.550000,252.046,16.597,-25.899,434.523,257.824,24.885,-14.040,6.510,2.980
90,38302.584000,252.046,14.585,-20.918,440.361,261.721,23.023,-12.040,-8.490,0.980
91,38302.611000,253.035,16.597,-26.895,436.432,255.837,21.903,-11.040,-17.490,-2.020
92,38302.646000,253.035,15.591,-28.887,434.476,253.854,20.875,-19.040,-12.490,-3.020
93,38302.688000,252.046,15.591,-27.891,436.472,259.742,22.971,-17.040,-14.490,-2.020
94,38302.728000,253.035,17.603,-27.891,433.488,251.882,19.848,-18.040,-9.490,1.980
95,38302.768000,254.023,13.580,-25.899,435.507,259.754,23.950,-26.040,1.510,11.980
96,38302.808000,251.058,15.591,-23.907,438.417,260.731,22.997,-18.040,-3.490,11.980
97,38302.848000,251.058,14.585,-25.899,436.425,254.887,22.863,-12.040,-14.490,8.980
98,38302.888000,252.046,15.591,-25.899,436.477,260.669,21.030,9.960,-25.490,1.980
99,38302.908000,253.035,16.597,-29.883,437.372,253.818,17.938,19.960,-27.490,0.980
100,38302.949000,252.046,14.585,-25.899,432.610,261.538,18.099,32.960,-28.490,-3.020
101,38302.989000,253.035,17.603,-30.879,437.443,261.542,16.148,21.960,-20.490,-5.020
102,38303.29000,252.046,15.591,-30.879,437.405,257.658,16.062,-16.040,-12.490,-3.020
103,38303.70000,252.046,16.597,-29.883,435.444,254.748,16.974,-26.040,-5.490,-4.020
104,38303.110000,251.058,14.585,-29.883,437.438,260.614,18.089,-18.040,-11.490,-5.020
105,38303.145000,253.035,14.585,-27.891,437.376,253.861,19.900,-10.040,-12.490,-7.020
106,38303.185000,249.081,18.609,-28.887,437.433,259.686,20.030,-6.040,-12.490,-1.020
107,38303.205000,252.046,14.585,-25.899,440.357,262.562,17.158,14.960,-16.490,0.980
108,38303.248000,253.035,18.609,-27.891,435.503,260.595,18.084,32.960,-17.490,0.980
109,38303.288000,252.046,16.597,-31.875,434.477,254.739,16.972,15.960,-6.490,4.980
110,38303.328000,252.046,16.597,-29.883,436.409,254.736,15.995,-0.040,0.510,3.980
111,38303.369000,252.046,16.597,-28.887,437.388,255.738,17.000,4.960,4.510,5.980
112,38303.409000,251.058,16.597,-29.883,437.464,263.505,17.172,12.960,3.510,4.980
113,38303.450000,252.046,14.585,-28.887,440.378,264.526,18.182,30.960,-2.490,1.980
114,38303.490000,254.023,15.591,-29.883,435.456,255.741,17.977,21.960,2.510,0.980
115,38303.510000,251.058,15.591,-29.883,439.357,259.597,15.128,3.960,5.510,0.980
116,38303.550000,252.046,17.603,-29.883,439.328,255.800,18.967,0.960,7.510,3.980
117,38303.590000,251.058,16.597,-30.879,437.480,264.541,20.137,-5.040,14.510,4.980
118,38303.630000,252.046,17.603,-29.883,434.472,254.696,15.009,-14.040,15.510,6.980
119,38303.670000,250.069,15.591,-26.895,434.493,256.659,16.034,-7.040,10.510,4.980
120,38303.710000,253.035,14.585,-24.903,435.456,255.741,17.977,-3.040,0.510,2.980
121,38303.750000,252.046,15.591,-29.883,437.395,255.803,19.943,-1.040,1.510,3.980
122,38303.789000,252.046,17.603,-27.891,434.538,260.607,19.063,-8.040,3.510,4.980
123,38303.829000,252.046,15.591,-28.887,437.442,260.657,20.051,-8.040,6.510,4.980
124,38303.846000,252.046,16.597,-25.899,436.452,258.663,18.044,-12.040,4.510,6.980
125,38303.888000,252.046,13.580,-26.895,436.435,256.743,18.982,-7.040,1.510,5.980
126,38303.929000,253.035,17.603,-27.891,437.433,259.686,20.030,-16.040,7.510,8.980
127,38303.969000,252.046,16.597,-28.887,432.549,254.785,19.911,-20.040,11.510,9.980
128,38304.10000,253.035,14.585,-26.895,439.370,259.727,21.015,-7.040,9.510,9.980
129,38304.50000,251.058,14.585,-26.895,437.426,258.737,20.989,-4.040,4.510,8.980
130,38304.85000,252.046,16.597,-26.895,439.370,259.727,21.015,-6.040,-0.490,5.980
131,38304.153000,251.058,15.591,-26.895,436.411,253.873,20.879,-4.040,1.510,7.980
132,38304.163000,251.058,14.585,-28.887,435.498,259.667,20.025,-19.040,3.510,5.980
133,38304.190000,252.046,14.585,-27.891,432.562,255.799,21.894,-6.040,0.510,4.980
134,38304.231000,251.058,14.585,-26.895,437.407,256.795,20.946,-7.040,1.510,6.980
135,38304.271000,251.058,15.591,-26.895,434.483,254.804,19.915,-7.040,-1.490,5.980
136,38304.311000,253.035,13.580,-27.891,439.313,253.902,20.886,7.960,-10.490,3.980
137,38304.351000,253.035,14.585,-29.883,435.507,260.638,20.047,-0.040,-10.490,2.980
138,38304.391000,252.046,16.597,-27.891,437.433,259.686,20.030,-2.040,-7.490,4.980
139,38304.431000,252.046,14.585,-28.887,437.440,259.751,22.973,-7.040,2.510,5.980
140,38304.453000,252.046,15.591,-27.891,439.326,255.779,17.986,-0.040,1.510,6.980
141,38304.486000,251.058,13.580,-25.899,434.547,260.694,22.988,2.960,-7.490,6.980
142,38304.526000,253.035,13.580,-27.891,437.367,252.890,19.879,9.960,-2.490,5.980
143,38304.571000,252.046,14.585,-27.891,437.433,259.686,20.030,-5.040,9.510,9.980
144,38304.611000,252.046,14.585,-25.899,437.426,258.737,20.989,-12.040,10.510,9.980
145,38304.651000,252.046,14.585,-22.911,438.334,252.900,19.881,9.960,-1.490,8.980
146,38304.686000,251.058,15.591,-25.899,435.439,253.821,18.915,0.960,1.510,8.980
147,38304.729000,251.058,15.591,-26.895,437.446,259.816,25.917,-8.040,2.510,9.980
148,38304.750000,252.046,13.580,-25.899,436.414,254.779,17.957,-4.040,-0.490,8.980
149,38304.791000,253.035,14.585,-27.891,435.441,253.842,19.896,-7.040,1.510,5.980
150,38304.826000,252.046,14.585,-26.895,436.447,257.735,19.984,-8.040,2.510,6.980
151,38304.866000,252.046,14.585,-25.899,438.344,253.871,19.902,-6.040,-4.490,4.980
152,38304.906000,252.046,13.580,-25.899,435.449,254.792,18.936,5.960,-6.490,5.980
153,38304.949000,252.046,13.580,-27.891,436.399,252.881,19.876,-10.040,-2.490,2.980
154,38304.989000,253.035,14.585,-26.895,435.488,257.812,23.907,-8.040,-4.490,0.980
155,38305.29000,253.035,14.585,-26.895,438.412,260.688,21.035,-4.040,-5.490,0.980
156,38305.50000,252.046,12.574,-27.891,438.386,257.797,21.951,-6.040,-7.490,0.980
157,38305.90000,254.023,16.597,-26.895,435.434,252.893,20.855,-2.040,-6.490,1.980
158,38305.130000,253.035,14.585,-24.903,437.461,262.599,20.094,2.960,-7.490,2.980
159,38305.169000,253.035,14.585,-27.891,435.432,252.871,19.874,-8.040,-2.490,1.980
160,38305.219000,253.035,14.585,-25.899,435.493,258.740,21.966,-4.040,-3.490,1.980
161,38305.246000,253.035,12.574,-25.899,435.519,261.631,21.049,18.960,-9.490,-0.020
162,38305.286000,253.035,15.591,-28.887,440.267,252.012,22.807,12.960,-8.490,2.980
163,38305.326000,253.035,12.574,-26.895,439.344,257.720,18.029,8.960,-8.490,5.980
164,38305.366000,253.035,13.580,-27.891,438.405,259.739,21.994,3.960,-13.490,1.980
165,38305.393000,251.058,14.585,-25.899,439.356,258.713,19.031,18.960,-17.490,-2.020
166,38305.440000,254.023,15.591,-27.891,436.412,254.758,16.976,20.960,-20.490,-0.020
167,38305.470000,251.058,15.591,-28.887,438.340,254.712,14.037,31.960,-25.490,-2.020
168,38305.511000,249.081,15.591,-21.914,435.446,254.770,17.955,41.960,-53.490,-6.020
169,38305.549000,254.023,7.544,-19.922,434.538,261.492,15.160,51.960,-101.490,-11.020
170,38305.590000,252.046,10.562,-24.903,437.401,258.500,10.197,91.960,-128.490,-19.020
171,38305.630000,252.046,15.591,-38.848,439.275,252.650,8.109,93.960,-103.490,-4.020
172,38305.670000,254.023,18.609,-43.829,436.382,253.593,8.124,-38.040,-28.490,20.980
173,38305.690000,252.046,18.609,-31.875,431.608,260.320,7.283,-73.040,-26.490,24.980
174,38305.730000,252.046,12.574,-34.864,436.392,255.448,4.243,-38.040,-29.490,24.980
175,38305.771000,252.046,6.538,-24.903,434.490,258.385,6.265,-58.040,-18.490,19.980
176,38305.813000,240.185,8.550,-5.977,436.417,256.570,11.132,-172.040,68.510,37.980
177,38305.848000,241.174,4.527,-7.969,436.359,251.608,6.119,-65.040,-333.490,-47.020
178,38305.888000,249.081,28.668,-43.829,429.595,254.260,-2.663,-40.040,-469.490,-33.020
179,38305.928000,248.093,9.556,-104.591,430.525,252.156,-10.553,302.960,-220.490,42.980
180,38305.970000,260.942,25.650,-40.840,433.428,253.068,-14.449,283.960,14.510,150.980
181,38305.990000,259.954,1.509,-17.930,437.312,254.120,-12.456,-65.040,10.510,108.980
182,38306.31000,248.093,-26.656,-19.922,439.244,254.118,-13.433,-251.040,-143.490,-11.020
183,38306.70000,246.116,1.509,-28.887,434.443,258.817,-18.242,-93.040,-256.490,-118.020
184,38306.110000,239.197,-8.550,-19.922,427.587,251.782,-26.258,-2.040,-248.490,-108.020
185,38306.158000,241.174,31.686,-30.879,426.702,261.374,-30.950,-85.040,-321.490,-82.020
186,38306.191000,246.116,-7.544,-21.914,420.785,254.068,-51.718,380.960,-569.490,-170.020
187,38306.231000,243.151,2.515,-115.549,417.914,259.628,-62.388,638.960,-632.490,-190.020
188,38306.270000,252.046,42.750,-73.712,411.123,262.021,-82.943,440.960,-610.490,-252.020
189,38306.303000,253.035,9.556,-83.673,400.471,264.464,-99.583,294.960,-621.490,-227.020
190,38306.331000,246.116,9.556,-85.665,391.813,271.887,-111.204,82.960,-511.490,-222.020
191,38306.371000,244.139,25.650,-111.564,389.902,275.622,-117.009,-92.040,-341.490,-184.020
192,38306.413000,223.382,21.627,-74.708,383.121,276.354,-124.853,3.960,-359.490,-233.020
193,38306.453000,223.382,26.656,-99.611,381.213,280.996,-133.580,38.960,-445.490,-270.020
194,38306.493000,276.757,43.756,-90.646,370.554,280.719,-141.454,-97.040,-482.490,-254.020
195,38306.528000,306.409,68.904,-61.759,364.827,290.220,-148.119,-309.040,-566.490,-242.020
196,38306.581000,317.282,54.821,-22.911,359.129,300.865,-146.914,-1226.040,-561.490,-103.020
197,38306.590000,349.900,-43.756,-37.852,348.514,306.306,-159.565,-962.040,-1494.490,-102.020
198,38306.630000,264.896,-47.780,-166.350,335.007,313.574,-176.103,-1342.040,-1886.490,208.980
199,38306.669000,154.193,10.562,-100.607,331.245,323.375,-170.009,-2468.040,-1390.490,395.980
200,38306.721000,121.575,-34.703,-86.661,330.368,330.398,-159.068,-1095.040,-590.490,848.980
201,38306.753000,62.270,101.092,-92.638,350.455,309.022,-169.307,1322.960,440.510,992.980
202,38306.793000,112.680,121.210,-71.720,370.519,283.028,-168.861,513.960,825.510,829.980
203,38306.833000,133.436,78.963,-95.626,388.738,263.164,-153.573,756.960,1268.510,439.980
204,38306.871000,164.077,139.316,-116.545,402.225,254.817,-141.962,996.960,1433.510,163.980
205,38306.910000,341.992,14.585,-387.486,410.945,254.147,-132.152,1692.960,1446.510,-233.020
206,38306.936000,248.093,119.198,-47.813,402.282,258.010,-129.142,3.960,-220.490,-262.020
207,38306.973000,227.336,145.352,-138.459,402.287,258.053,-127.180,304.960,93.510,30.980
208,38307.13000,259.954,-6.538,-98.615,410.978,254.470,-117.435,-188.040,498.510,309.980
209,38307.53000,244.139,-36.715,-104.591,412.860,246.053,-103.888,-465.040,385.510,90.980
210,38307.94000,246.116,6.538,-69.728,416.839,255.066,-92.892,-219.040,249.510,-29.020
211,38307.129000,231.290,37.721,-102.599,417.844,257.190,-84.998,-317.040,176.510,-23.020
212,38307.180000,255.012,-59.851,-31.875,418.823,258.192,-83.993,-22.040,39.510,-9.020
213,38307.214000,261.931,34.703,-33.868,419.779,258.093,-88.896,503.960,-300.490,-54.020
214,38307.229000,200.649,20.621,-89.650,417.852,260.793,-97.666,60.960,97.510,36.980
215,38307.269000,231.290,-35.709,-166.350,423.517,245.423,-93.092,932.960,569.510,141.980
216,38307.313000,210.533,-65.886,-83.673,422.549,243.645,-85.289,218.960,466.510,143.980
217,38307.354000,168.031,58.845,-149.416,427.435,247.683,-80.285,810.960,619.510,-1.020
218,38307.394000,302.456,9.556,-13.946,433.258,248.797,-76.326,662.960,695.510,77.980
219,38307.434000,237.220,32.692,-34.864,432.311,248.982,-67.498,371.960,336.510,-29.020
220,38307.474000,241.174,23.639,-73.712,439.002,239.469,-61.811,272.960,238.510,36.980
221,38307.513000,238.208,13.580,-30.879,438.084,243.450,-56.821,149.960,199.510,53.980
222,38307.533000,240.185,26.656,-13.946,437.067,239.450,-61.815,353.960,-13.490,14.980
223,38307.575000,245.127,0.503,-68.732,432.170,235.303,-71.724,385.960,-150.490,-102.020
224,38307.611000,247.104,5.532,-101.603,428.338,240.034,-75.550,32.960,3.510,-65.020
225,38307.653000,241.174,-0.503,-56.778,428.307,236.215,-72.693,8.960,185.510,-42.020
226,38307.694000,256.000,-15.591,-26.895,428.323,237.251,-69.728,136.960,86.510,-143.020
227,38307.731000,282.687,20.621,8.965,429.324,241.100,-71.602,-111.040,-41.490,-178.020
228,38307.773000,319.259,2.515,44.825,429.390,248.781,-75.354,-503.040,-489.490,-133.020
229,38307.814000,378.564,28.668,25.899,425.531,252.368,-87.050,-755.040,-963.490,-79.020
230,38307.841000,231.290,10.562,-133.479,421.675,256.861,-101.668,-71.040,-840.490,-263.020
231,38307.875000,167.042,-23.639,-3.984,423.547,251.874,-108.640,714.960,-15.490,-91.020
232,38307.914000,167.042,-80.974,77.696,431.297,250.289,-95.910,626.960,1281.510,281.980
233,38307.954000,247.104,33.697,-5.977,454.462,237.678,-61.818,794.960,2263.510,476.980
234,38307.996000,306.409,56.833,-39.844,473.745,217.866,-0.435,66.960,2659.510,602.980
235,38308.30000,315.305,46.774,-52.794,489.204,203.734,56.162,60.960,2480.510,226.980
236,38308.70000,244.139,-4.527,-93.634,489.399,214.413,100.529,625.960,1814.510,-85.020
237,38308.113000,196.695,34.703,-147.424,493.340,217.773,119.245,452.960,825.510,24.980
238,38308.133000,242.162,47.780,-125.510,492.278,207.171,122.930,53.960,93.510,59.980
239,38308.175000,372.633,-71.921,277.914,497.139,210.087,121.043,-524.040,-22.490,296.980
240,38308.215000,315.305,6.538,66.739,502.820,199.270,111.989,111.960,-580.490,-26.020
241,38308.250000,226.347,12.574,6.973,499.891,200.752,92.403,257.960,-638.490,-70.020
242,38308.290000,260.942,-5.532,-34.864,502.844,208.310,81.789,163.960,-507.490,25.980
243,38308.335000,247.104,-46.774,-2.988,502.789,205.139,69.951,57.960,-248.490,27.980
244,38308.375000,251.058,-12.574,34.864,503.768,206.141,70.956,41.960,-208.490,13.980
245,38308.411000,257.977,17.603,17.930,502.728,200.155,63.956,483.960,-184.490,8.980
246,38308.434000,245.127,10.562,30.879,501.757,200.987,58.089,-70.040,-167.490,7.980
247,38308.474000,243.151,-21.627,30.879,503.732,205.796,55.258,-176.040,-116.490,43.980
248,38308.515000,250.069,-54.821,32.872,504.656,202.742,48.327,-8.040,-307.490,41.980
249,38308.554000,238.208,-49.792,-0.996,501.681,197.622,37.420,131.960,-582.490,-42.020
250,38308.591000,280.710,72.927,-28.887,503.676,206.141,26.826,128.960,-588.490,-89.020
251,38308.633000,273.792,5.532,31.875,501.665,200.987,13.959,-63.040,-597.490,-102.020
252,38308.678000,281.699,61.862,-79.689,497.809,205.481,-0.660,192.960,-402.490,-155.020
253,38308.714000,317.282,95.057,-20.918,502.703,211.353,-0.519,-280.040,86.510,-25.020
254,38308.750000,316.293,165.470,45.821,508.558,214.538,9.371,38.960,323.510,-164.020
255,38308.770000,220.417,126.240,-88.654,507.606,218.196,-0.357,1516.960,189.510,-547.020
256,38308.810000,208.556,181.564,-492.078,498.106,240.022,-18.525,-450.040,-1212.490,-864.020
257,38308.850000,202.625,18.609,-339.673,478.908,261.538,-46.527,-3109.040,-2532.490,-910.020
258,38308.890000,170.008,17.603,-255.004,441.514,303.133,-80.006,-2440.040,-2883.490,-1102.020
259,38308.933000,205.591,-17.603,-256.996,396.361,341.827,-109.642,-1785.040,-2926.490,-1396.020
260,38308.973000,225.359,-134.287,-145.432,345.248,364.887,-141.600,-874.040,-2672.490,-1283.020
261,38309.11000,225.359,-129.257,-121.525,308.570,377.668,-161.988,-424.040,-1986.490,-536.020
262,38309.53000,242.162,-202.688,-57.774,295.027,380.189,-173.728,-254.040,-1332.490,128.980
263,38309.73000,271.815,-115.175,5.977,296.760,359.777,-176.139,93.960,-316.490,1007.980
264,38309.118000,292.571,-38.727,-6.973,317.950,347.644,-163.615,-368.040,197.510,1312.980
265,38309.158000,293.560,2.515,12.949,345.880,331.736,-149.199,-208.040,865.510,1314.980
266,38309.193000,255.012,105.116,-169.339,374.832,315.492,-106.350,-1511.040,1121.510,1270.980
267,38309.238000,302.456,227.835,-226.117,383.554,310.442,-75.062,-1784.040,226.510,639.980
268,38309.303000,355.830,155.411,25.899,392.177,298.272,-58.643,890.960,743.510,652.980
269,38309.354000,306.409,-48.786,-80.685,394.970,285.809,-53.030,321.960,921.510,512.980
270,38309.368000,260.942,-11.568,-102.599,406.596,282.556,-29.541,-661.040,799.510,549.980
271,38309.376000,296.525,75.945,-66.739,408.521,277.203,-9.062,80.960,832.510,232.980
272,38309.519000,254.023,-24.644,-3.984,411.363,268.731,1.543,342.960,422.510,130.980
273,38309.555000,235.243,82.986,-70.724,409.464,271.689,4.547,75.960,111.510,-5.020
274,38309.569000,230.301,56.833,-92.638,409.490,274.580,3.630,168.960,106.510,-9.020
275,38309.578000,227.336,0.503,-53.790,406.555,271.596,1.596,433.960,26.510,-56.020
276,38309.594000,242.162,35.709,-45.821,408.531,278.174,-9.041,516.960,-424.490,-319.020
277,38309.624000,256.988,19.615,-73.712,400.812,283.578,-24.628,251.960,-574.490,-437.020
278,38309.654000,273.792,40.739,-52.794,386.398,296.706,-39.077,170.960,-738.490,-537.020
279,38309.674000,330.131,75.945,-19.922,377.741,305.898,-58.504,-109.040,-917.490,-532.020
280,38309.715000,355.830,93.045,-35.860,366.179,315.925,-82.822,-430.040,-1478.490,-555.020
281,38309.766000,394.378,-19.615,12.949,340.119,329.457,-117.881,-387.040,-2147.490,-798.020
282,38309.796000,282.687,-0.503,-237.074,318.859,338.290,-148.130,195.960,-1896.490,-937.020
283,38309.843000,115.645,-65.886,-11.953,306.343,346.667,-158.758,-517.040,-227.490,-135.020
284,38309.876000,70.178,-46.774,-30.879,317.938,345.767,-160.715,724.960,959.510,291.980
285,38309.918000,66.224,90.028,-120.529,348.600,316.813,-167.177,2150.960,2023.510,599.980
286,38309.951000,142.332,77.957,-250.023,384.118,286.331,-156.991,1704.960,2394.510,520.980
287,38309.971000,187.799,87.010,-264.965,408.199,271.465,-137.657,1687.960,2047.510,133.980
288,38310.14000,299.490,-4.527,-386.490,411.967,261.729,-140.807,2459.960,1180.510,-91.020
289,38310.58000,184.834,68.904,-258.988,409.888,250.642,-158.710,323.960,-431.490,77.980
290,38310.91000,125.529,53.815,-289.868,413.810,255.578,-156.630,-213.040,176.510,190.980
291,38310.131000,210.533,25.650,-148.420,419.571,249.054,-146.956,466.960,729.510,150.980
292,38310.171000,287.629,-8.550,-48.809,430.147,238.845,-130.490,451.960,852.510,68.980
293,38310.214000,237.220,50.798,-58.770,434.138,247.965,-114.588,-79.040,635.510,65.980
294,38310.256000,243.151,14.585,-59.767,439.000,248.250,-103.784,-52.040,526.510,69.980
295,38310.276000,241.174,31.686,-47.813,447.727,248.529,-94.934,100.960,420.510,56.980
296,38310.316000,243.151,19.615,-20.918,446.702,240.925,-87.259,350.960,125.510,61.980
297,38310.353000,234.255,-12.574,-52.794,444.676,232.988,-94.304,205.960,-156.490,40.980
298,38310.394000,254.023,9.556,-69.728,436.907,231.748,-103.174,79.960,-174.490,-14.020
299,38310.433000,247.104,9.556,-74.708,437.889,234.540,-108.994,216.960,-109.490,-32.020
300,38310.475000,249.081,15.591,-88.654,435.973,237.348,-112.859,236.960,14.510,-59.020
301,38310.515000,248.093,-1.509,-92.638,436.879,230.604,-111.045,148.960,178.510,-7.020
302,38310.558000,249.081,-12.574,-59.767,436.917,233.603,-107.056,-22.040,233.510,-34.020
303,38310.595000,263.907,34.703,-34.864,436.942,234.725,-100.166,-99.040,179.510,-12.020
304,38310.616000,310.363,34.703,32.872,442.839,241.836,-88.228,-993.040,260.510,107.980
305,38310.660000,331.120,-13.580,27.891,443.817,244.586,-96.010,-428.040,-691.490,-4.020
306,38310.695000,277.745,0.503,-51.798,440.783,235.367,-116.815,216.960,-891.490,-20.020
307,38310.735000,232.278,-43.756,30.879,444.644,235.318,-120.731,288.960,289.510,326.980
308,38310.775000,201.637,-69.910,80.685,458.104,220.564,-91.610,-565.040,1268.510,485.980
309,38310.816000,229.313,-3.521,-2.988,476.530,215.004,-43.642,-474.040,1729.510,622.980
310,38310.856000,230.301,40.739,-74.708,494.876,202.518,-1.712,81.960,1650.510,441.980
311,38310.894000,214.486,41.745,-94.630,503.602,196.627,35.441,293.960,1144.510,120.980
312,38310.913000,249.081,70.916,-147.424,504.549,190.271,54.915,107.960,743.510,-136.020
313,38310.953000,251.058,84.998,-230.101,507.527,198.951,51.191,-262.040,-209.490,-140.020
314,38310.995000,270.826,-120.204,-53.790,508.410,191.107,47.096,-334.040,-846.490,-63.020
315,38311.35000,232.278,38.727,-60.763,511.312,195.537,26.607,46.960,-640.490,-8.020
316,38311.75000,254.023,34.703,-55.782,510.327,195.355,18.755,-400.040,-418.490,91.980
317,38311.115000,256.000,-47.780,-0.996,512.163,185.622,16.582,-1101.040,-335.490,136.980
318,38311.155000,249.081,-55.827,-47.813,512.137,183.616,13.595,-219.040,-297.490,73.980
319,38311.195000,257.977,-11.568,-51.798,512.171,188.341,7.816,-275.040,-296.490,-94.020
320,38311.214000,257.977,-4.527,-19.922,504.373,183.303,2.785,-75.040,-287.490,-43.020
321,38311.256000,254.023,-31.686,6.973,509.232,187.083,-3.986,91.960,-461.490,-48.020
322,38311.296000,253.035,-19.615,-67.735,508.309,195.423,-21.455,369.960,-490.490,-266.020
323,38311.343000,285.652,28.668,8.965,505.331,190.260,-34.324,-334.040,-591.490,-108.020
324,38311.376000,236.232,5.532,-132.482,502.488,198.732,-44.929,155.960,-467.490,-149.020
325,38311.416000,265.884,44.762,-104.591,503.433,197.641,-50.835,49.960,-161.490,-73.020
326,38311.455000,251.058,78.963,-136.467,506.386,201.682,-44.856,-17.040,208.510,38.980
327,38311.494000,302.456,121.210,-127.502,517.969,193.618,-19.513,-1458.040,1119.510,570.980
328,38311.515000,254.023,135.293,-85.665,523.779,186.684,15.649,-553.040,1147.510,-204.020
329,38311.555000,186.811,99.081,-370.553,513.389,211.003,23.032,1114.960,484.510,-936.020
330,38311.595000,216.463,88.016,-335.689,495.221,239.282,-6.779,-470.040,-1361.490,-887.020
331,38311.635000,259.954,49.792,-216.156,466.430,271.167,-44.378,-2160.040,-2850.490,-881.020
332,38311.675000,280.710,14.585,-190.257,438.538,293.590,-71.398,-1927.040,-3017.490,-1067.020
333,38311.716000,236.232,-58.845,-114.553,395.233,324.428,-106.108,-1128.040,-2695.490,-1124.020
334,38311.756000,199.660,-75.945,-53.790,360.525,340.205,-123.483,-1104.040,-1951.490,-843.020
335,38311.796000,199.660,-127.246,8.965,340.384,359.295,-128.986,-645.040,-1147.490,-361.020
336,38311.890000,253.035,-142.334,-42.833,339.342,353.288,-136.967,983.960,18.510,50.980
337,38311.906000,308.386,-37.721,7.969,355.528,328.939,-148.260,1536.960,624.510,492.980
338,38311.959000,308.386,14.585,-45.821,367.924,307.962,-136.932,439.960,718.510,889.980
339,38312.45000,252.046,79.969,-52.794,380.478,301.698,-118.412,-1351.040,699.510,765.980
340,38312.120000,480.371,228.841,17.930,381.475,303.757,-113.461,550.960,-10.490,260.980
341,38312.263000,248.093,272.094,-44.825,388.237,301.967,-109.564,446.960,582.510,84.980
342,38312.309000,259.954,28.668,-131.486,392.950,290.256,-114.717,1172.960,512.510,124.980
343,38312.318000,235.243,45.768,-122.521,394.813,280.782,-105.117,-192.040,288.510,207.980
344,38312.325000,238.208,50.798,-101.603,395.773,278.073,-96.349,-73.040,340.510,21.980
345,38312.358000,225.359,17.603,-111.564,397.783,284.974,-92.269,-132.040,269.510,21.980
346,38312.371000,159.135,36.715,-93.634,394.920,287.967,-87.305,196.960,107.510,-45.020
347,38312.371000,231.290,41.745,-130.490,394.943,289.951,-85.300,210.960,102.510,-96.020
348,38312.371000,193.730,-32.692,-46.817,392.013,287.010,-85.371,-39.040,-54.490,-41.020
349,38312.378000,331.120,71.921,-75.704,380.327,281.763,-98.261,265.960,-457.490,-169.020
350,38312.386000,326.178,73.933,-45.821,370.720,292.003,-113.744,259.960,-617.490,-398.020
351,38312.421000,395.367,38.727,-11.953,355.151,285.703,-128.627,104.960,-1311.490,-543.020
352,38312.438000,456.649,43.756,10.957,337.896,309.072,-161.487,-517.040,-2046.490,-458.020
353,38312.470000,476.417,43.756,32.872,313.887,331.662,-182.611,-2214.040,-2343.490,-515.020
354,38312.504000,278.734,-30.680,-251.019,282.970,342.321,-213.820,354.960,-1819.490,-926.020
355,38312.544000,26.687,14.585,-29.883,271.510,358.604,-218.386,-806.040,-314.490,-344.020
356,38312.589000,-3.954,-12.574,-40.840,289.921,359.949,-209.492,266.960,1233.510,100.980
357,38312.610000,27.676,41.745,-129.494,319.664,334.977,-210.964,1771.960,2240.510,352.980
358,38312.645000,30.641,101.092,-206.195,351.405,315.029,-205.456,1936.960,2791.510,295.980
359,38312.689000,151.228,98.075,-339.673,392.899,299.448,-182.179,1009.960,2494.510,141.980
360,38312.729000,214.486,155.411,-492.078,414.955,276.666,-168.909,1669.960,1510.510,-45.020
361,38312.768000,169.019,133.281,-339.673,411.082,278.354,-178.686,922.960,-167.490,-368.020
362,38312.805000,155.181,93.045,-254.008,414.867,270.538,-182.774,657.960,257.510,186.980
363,38312.846000,324.201,99.081,-70.724,424.498,263.168,-169.188,333.960,849.510,208.980
364,38312.885000,203.614,61.862,-152.405,428.282,253.583,-165.470,306.960,781.510,484.980
365,38312.909000,238.208,-21.627,-100.607,441.751,240.662,-141.212,-488.040,933.510,474.980
366,38312.950000,254.023,-26.656,-48.809,455.358,241.398,-113.708,-496.040,804.510,230.980
367,38312.985000,220.417,6.538,-49.805,457.239,232.097,-96.259,154.960,567.510,14.980
368,38313.26000,240.185,12.574,-54.786,460.196,235.296,-84.414,115.960,527.510,57.980
369,38313.68000,239.197,44.762,-49.805,462.083,227.807,-72.808,-405.040,630.510,148.980
370,38313.121000,249.081,0.503,-41.837,463.080,228.982,-63.954,-188.040,311.510,38.980
371,38313.145000,257.977,10.562,-68.732,461.149,228.121,-58.093,-76.040,365.510,65.980
372,38313.186000,258.965,15.591,-54.786,465.978,225.450,-49.316,198.960,457.510,68.980
373,38313.226000,245.127,19.615,-27.891,466.039,230.434,-43.322,463.960,353.510,35.980
374,38313.246000,253.035,4.527,-43.829,468.879,222.824,-37.601,-45.040,311.510,58.980
375,38313.290000,247.104,-3.521,-7.969,467.930,222.988,-29.754,-313.040,249.510,38.980
376,38313.325000,251.058,-7.544,14.942,471.884,230.878,-25.648,-85.040,42.510,-33.020
377,38313.365000,248.093,-0.503,8.965,468.012,230.819,-26.638,-125.040,-162.490,-69.020
378,38313.405000,253.035,-41.745,17.930,471.862,230.663,-35.459,366.960,-402.490,-194.020
379,38313.450000,248.093,44.762,-42.833,465.178,242.010,-46.009,-55.040,-488.490,-187.020
380,38313.485000,289.606,48.786,-33.868,463.193,239.747,-59.792,374.960,-526.490,-208.020
381,38313.525000,338.039,46.774,9.961,461.247,241.390,-72.508,172.960,-429.490,-150.020
382,38313.545000,340.015,-21.627,-3.984,464.211,248.171,-74.313,-843.040,-535.490,26.980
383,38313.589000,171.985,4.527,-173.323,469.986,246.178,-79.248,-183.040,-407.490,216.980
384,38313.629000,149.251,-16.597,-120.529,474.780,241.414,-77.383,63.960,158.510,409.980
385,38313.683000,156.170,-20.621,-4.981,484.330,225.349,-62.029,23.960,770.510,535.980
386,38313.711000,180.880,7.544,20.918,492.970,210.698,-26.051,-281.040,1534.510,532.980
387,38313.750000,237.220,28.668,-36.856,504.609,204.058,19.917,-179.040,1767.510,555.980
388,38313.788000,239.197,39.733,-40.840,508.479,195.293,60.918,-16.040,1768.510,207.980
389,38313.831000,256.000,26.656,-98.615,513.320,188.328,95.097,111.960,1379.510,-14.020
390,38313.848000,356.819,-14.585,153.401,512.355,185.708,108.766,-225.040,455.510,241.980
391,38313.888000,295.537,-62.868,64.747,514.288,185.705,107.790,32.960,-208.490,-166.020
392,38313.928000,273.792,44.762,17.930,513.255,183.301,87.140,-169.040,-1115.490,-127.020
393,38313.966000,258.965,-18.609,27.891,515.253,198.897,45.322,1373.960,-1203.490,-45.020
394,38314.6000,205.591,-5.532,2.988,513.232,196.289,15.840,772.960,-1048.490,-87.020
395,38314.48000,172.973,-7.544,-3.984,513.206,198.684,-7.643,336.960,-648.490,-361.020
396,38314.85000,181.869,59.851,-35.860,506.522,209.147,-14.289,152.960,-364.490,-309.020
397,38314.130000,174.950,27.662,-169.339,501.620,204.073,-22.257,122.960,-533.490,-301.020
398,38314.163000,324.201,163.458,103.595,498.767,214.206,-45.574,56.960,-722.490,-122.020
399,38314.190000,233.266,-31.686,-114.553,495.906,219.852,-52.320,-376.040,-553.490,-146.020
400,38314.230000,284.664,93.045,-71.720,492.938,213.913,-56.380,72.960,-302.490,-28.020
401,38314.270000,253.035,-37.721,-79.689,491.969,214.766,-61.267,-431.040,-186.490,143.980
402,38314.309000,251.058,-30.680,-82.677,489.010,208.913,-61.403,380.960,125.510,73.980
403,38314.350000,263.907,7.544,-38.848,492.905,211.841,-62.310,816.960,189.510,-26.020
404,38314.401000,260.942,27.662,-48.809,492.967,219.479,-68.025,847.960,123.510,-214.020
405,38314.430000,243.151,31.686,-70.724,493.014,222.564,-60.111,-30.040,379.510,-154.020
406,38314.470000,248.093,8.550,-44.825,489.106,217.758,-56.303,449.960,313.510,-144.020
407,38314.490000,239.197,1.509,-31.875,489.190,224.727,-48.303,-57.040,343.510,-69.020
408,38314.529000,246.116,23.639,-14.942,488.257,227.695,-45.297,93.960,114.510,-74.020
409,38314.569000,250.069,-3.521,-39.844,488.293,231.557,-46.192,253.960,106.510,-74.020
410,38314.609000,248.093,31.686,-69.728,489.285,232.688,-39.300,27.960,160.510,-77.020
411,38314.654000,255.012,15.591,-21.914,493.127,229.813,-39.356,13.960,188.510,-32.020
412,38314.690000,253.035,0.503,-29.883,494.091,227.147,-28.626,-188.040,148.510,-28.020
413,38314.729000,252.046,10.562,-15.938,494.215,238.905,-23.461,-86.040,165.510,-56.020
414,38314.769000,242.162,21.627,-1.992,496.169,240.866,-23.413,-171.040,42.510,-85.020
415,38314.789000,250.069,1.509,-5.977,492.347,246.567,-27.218,-231.040,-247.490,-117.020
416,38314.829000,250.069,15.591,-38.848,490.412,247.433,-31.125,-159.040,-303.490,-158.020
417,38314.871000,252.046,47.780,-22.911,486.531,246.403,-32.137,-479.040,-322.490,-184.020
418,38314.908000,259.954,39.733,-44.825,482.659,247.228,-37.030,-466.040,-384.490,-125.020
419,38314.948000,265.884,40.739,-48.809,483.699,253.214,-30.030,-1147.040,-352.490,74.980
420,38314.987000,278.734,35.709,-116.545,482.715,252.169,-32.998,-872.040,-470.490,70.980
421,38315.28000,241.174,74.939,-327.720,482.680,248.307,-32.103,-1976.040,-1105.490,237.980
422,38315.68000,228.324,11.568,-275.922,476.952,257.786,-39.750,-2665.040,-1953.490,154.980
423,38315.88000,207.568,73.933,-201.214,453.715,261.789,-68.149,-1816.040,-2308.490,-152.020
424,38315.128000,185.822,56.833,-159.377,434.530,286.066,-102.954,-1311.040,-2274.490,-387.020
425,38315.169000,153.205,38.727,-64.747,405.608,300.843,-124.262,-1073.040,-1956.490,-502.020
426,38315.209000,137.390,-3.521,41.837,389.269,314.922,-138.694,-344.040,-863.490,-420.020
427,38315.264000,163.089,-45.768,-7.969,384.426,314.810,-141.648,149.960,225.510,-145.020
428,38315.310000,284.664,4.527,-55.782,392.086,304.443,-131.075,612.960,1366.510,176.980
429,38315.340000,303.444,56.833,54.786,389.253,309.485,-121.162,-240.040,20.510,26.980
430,38315.369000,426.008,87.010,-4.981,391.160,306.591,-121.223,246.960,68.510,-21.020
431,38315.389000,371.645,66.892,16.934,389.246,307.651,-116.300,-729.040,10.510,146.980
432,38315.436000,281.699,15.591,-91.642,383.390,304.466,-126.190,152.960,-714.490,-201.020
433,38315.470000,223.382,-4.527,-192.249,373.683,306.702,-152.638,587.960,-850.490,-235.020
434,38315.510000,223.382,21.627,-48.809,370.780,309.306,-165.335,416.960,-585.490,-84.020
435,38315.550000,187.799,2.515,-10.957,370.780,309.306,-165.335,210.960,160.510,97.980
436,38315.590000,199.660,13.580,-39.844,387.118,296.975,-159.690,341.960,796.510,330.980
437,38315.630000,198.672,64.880,-92.638,410.208,281.883,-150.170,1164.960,1335.510,386.980
438,38315.677000,158.147,132.275,-224.125,424.541,260.061,-133.953,540.960,1188.510,256.980
439,38315.688000,178.903,137.305,-492.078,435.208,262.171,-130.942,605.960,237.510,-6.020
440,38315.729000,151.228,67.898,-13.946,428.484,268.728,-138.656,408.960,-391.490,-376.020
441,38315.770000,160.124,57.839,-177.307,429.405,265.653,-146.567,642.960,215.510,-52.020
442,38315.810000,260.942,47.780,-117.541,431.314,261.896,-141.743,326.960,477.510,309.980
443,38315.848000,284.664,37.721,-88.654,439.897,246.706,-130.295,157.960,548.510,211.980
444,38315.889000,222.394,14.585,-125.510,440.899,247.923,-119.478,23.960,562.510,244.980
445,38315.929000,195.707,16.597,-143.440,451.496,239.678,-101.987,-66.040,726.510,365.980
446,38315.969000,306.409,3.521,-40.840,458.292,239.096,-87.276,336.960,710.510,114.980
447,38316.8000,221.405,17.603,-59.767,463.105,233.620,-73.658,-203.040,450.510,30.980
448,38316.28000,233.266,30.680,-38.848,458.388,241.771,-53.873,-860.040,519.510,120.980
449,38316.73000,209.544,33.697,-64.747,460.183,226.364,-49.308,-368.040,-32.490,36.980
450,38316.108000,232.278,48.786,-77.696,459.214,227.218,-54.195,-106.040,-269.490,10.980
451,38316.148000,252.046,-0.503,-159.377,454.379,228.077,-57.128,278.960,2.510,-51.020
452,38316.188000,227.336,49.792,-112.560,463.155,231.463,-39.382,-6.040,509.510,134.980
453,38316.228000,253.035,55.827,-45.821,465.948,218.999,-33.769,39.960,429.510,141.980
454,38316.268000,254.023,-10.562,-43.829,466.063,229.786,-28.626,-323.040,246.510,100.980
455,38316.313000,254.023,56.833,-70.724,471.914,232.043,-16.796,-678.040,290.510,92.980
456,38316.333000,252.046,70.916,-52.794,472.842,226.400,-9.074,-775.040,208.510,69.980
457,38316.374000,242.162,-43.756,9.961,471.933,231.353,-4.062,-633.040,-66.490,18.980
458,38316.413000,234.255,-32.692,-45.821,468.977,226.406,-7.120,-248.040,-197.490,-67.020
459,38316.448000,245.127,22.633,-47.813,472.841,227.263,-13.958,-21.040,-315.490,-138.020
460,38316.490000,240.185,-31.686,-26.895,469.946,229.069,-18.827,-117.040,-424.490,-131.020
461,38316.535000,247.104,15.591,-88.654,463.296,244.256,-31.253,171.960,-425.490,-199.020
462,38316.570000,259.954,68.904,-83.673,465.197,243.952,-45.965,196.960,-384.490,-265.020
463,38316.610000,262.919,60.857,-64.747,456.502,246.628,-52.789,-469.040,-509.490,-265.020
464,38316.631000,306.409,34.703,9.961,451.718,254.132,-62.439,-804.040,-864.490,-319.020
465,38316.669000,347.923,25.650,-21.914,445.049,268.263,-78.811,-873.040,-1384.490,-551.020
466,38316.724000,236.232,-5.532,-243.051,434.520,284.211,-99.073,-683.040,-1184.490,-436.020
467,38316.750000,129.483,124.228,-203.206,434.568,290.834,-106.771,-771.040,-1025.490,-228.020
468,38316.790000,83.027,120.204,-159.377,421.082,298.297,-114.479,-264.040,-927.490,-324.020
469,38316.830000,85.004,123.222,-137.463,410.466,305.485,-135.916,538.960,-720.490,-630.020
470,38316.871000,89.946,19.615,-75.704,390.113,308.459,-168.255,1900.960,-250.490,-824.020
471,38316.911000,119.598,-44.762,-76.700,388.928,294.038,-205.843,2592.960,21.510,-414.020
472,38316.954000,174.950,128.251,-264.965,387.764,277.179,-221.910,1325.960,412.510,54.980
473,38316.971000,216.463,-82.986,-89.650,381.962,278.028,-224.846,-22.040,-44.490,-192.020
474,38317.11000,241.174,116.181,-167.346,378.936,266.242,-230.017,1111.960,478.510,-143.020
475,38317.51000,204.602,16.597,-196.233,379.862,260.577,-223.276,520.960,723.510,18.980
476,38317.91000,213.498,102.098,-181.292,392.391,253.191,-211.646,718.960,1158.510,194.980
477,38317.132000,222.394,33.697,-130.490,404.925,244.101,-189.266,336.960,1297.510,229.980
478,38317.173000,278.734,-4.527,-69.728,416.487,234.074,-164.947,37.960,1137.510,248.980
479,38317.213000,251.058,13.580,-37.852,422.804,482.977,-144.699,-30.040,641.510,114.980
480,38317.253000,224.371,-2.515,-88.654,424.236,230.719,-144.412,257.960,373.510,43.980
481,38317.279000,258.965,7.544,-88.654,424.254,231.776,-140.465,401.960,302.510,-97.020
482,38317.313000,245.127,21.627,-100.607,425.240,233.727,-140.420,403.960,250.510,-103.020
483,38317.354000,246.116,21.627,-91.642,431.071,235.791,-137.420,386.960,288.510,-26.020
484,38317.389000,253.035,3.521,-68.732,434.900,231.039,-134.575,217.960,213.510,-5.020
485,38317.429000,236.232,25.650,-77.696,437.891,238.963,-128.509,86.960,95.510,-67.020
486,38317.469000,237.220,48.786,-75.704,435.911,233.227,-123.737,28.960,72.510,-68.020
487,38317.510000,234.255,-24.644,-63.751,433.981,235.020,-129.586,229.960,-42.490,-124.020
488,38317.554000,210.533,1.509,-101.603,430.117,236.795,-135.438,121.960,-200.490,-178.020
489,38317.569000,214.486,61.862,-120.529,428.150,234.705,-141.373,-435.040,-133.490,-110.020
490,38317.614000,219.429,8.550,-79.689,422.397,240.431,-143.219,-113.040,-291.490,-120.020
491,38317.650000,301.467,-34.703,-73.712,415.704,250.807,-153.790,-104.040,-397.490,-109.020
492,38317.691000,412.170,46.774,-56.778,412.870,257.596,-152.665,-398.040,-493.490,-304.020
493,38317.731000,371.645,31.686,-32.872,412.976,267.413,-147.544,-1087.040,-362.490,-129.020
494,38317.771000,216.463,47.780,-133.479,414.937,272.092,-156.261,43.960,-598.490,-80.020
495,38317.816000,179.892,13.580,-26.895,415.758,259.243,-167.332,517.960,-71.490,-40.020
496,38317.851000,170.996,-17.603,85.665,430.293,257.852,-148.700,89.960,1099.510,401.980
497,38317.873000,177.915,-23.639,22.911,459.323,248.512,-100.794,-125.040,1929.510,506.980
498,38317.913000,193.730,-4.527,-35.860,484.467,234.583,-39.268,-86.040,2399.510,557.980
499,38317.953000,234.255,-6.538,-95.626,497.979,222.956,-0.271,476.960,2469.510,603.980
500,38317.993000,281.699,35.709,-137.463,506.641,205.889,58.208,-230.040,1987.510,334.980
501,38318.34000,276.757,-17.603,-147.424,509.567,199.099,101.212,-221.040,1186.510,116.980
502,38318.74000,268.849,36.715,-217.152,512.390,188.685,111.774,-120.040,83.510,337.980
503,38318.114000,312.340,139.316,-4.981,516.306,196.209,99.201,-118.040,-673.490,-120.020
504,38318.154000,251.058,-79.969,-16.934,513.319,190.960,82.407,661.960,-559.490,-31.020
505,38318.193000,269.838,20.621,-50.802,513.367,197.584,74.709,264.960,-209.490,101.980
506,38318.212000,259.954,-11.568,14.942,514.313,195.630,73.687,-357.040,-279.490,-59.020
507,38318.254000,263.907,18.609,23.907,511.367,193.422,62.844,97.960,-365.490,37.980
508,38318.300000,250.069,-77.957,3.984,510.356,190.349,55.909,-362.040,-506.490,-4.020
509,38318.330000,252.046,-41.745,-19.922,510.362,193.931,42.260,334.960,-600.490,-83.020
510,38318.371000,273.792,19.615,23.907,505.447,191.381,16.696,646.960,-856.490,-134.020
511,38318.410000,222.394,4.527,-82.677,500.686,204.387,-7.542,485.960,-870.490,-354.020
512,38318.450000,252.046,-7.544,-113.556,496.818,207.888,-23.163,621.960,-713.490,-358.020
513,38318.496000,303.444,74.939,-82.677,492.057,218.261,-34.711,427.960,-330.490,-240.020
514,38318.515000,339.027,164.464,-101.603,491.041,214.260,-39.705,258.960,163.510,-64.020
515,38318.550000,326.178,186.593,-83.673,502.661,209.195,-10.373,-534.040,1103.510,275.980
516,38318.595000,164.077,134.287,-160.374,506.664,216.676,19.221,1068.960,1670.510,-404.020
517,38318.634000,199.660,136.299,-492.078,499.097,234.983,16.669,918.960,505.510,-949.020
518,38318.674000,199.660,16.597,-381.510,496.325,252.926,-4.513,-1867.040,-2049.490,-669.020
519,38318.723000,236.232,34.703,-209.183,476.124,277.604,-64.809,-1590.040,-2960.490,-776.020
520,38318.751000,214.486,-19.615,-99.611,433.730,307.912,-124.046,-1286.040,-2819.490,-1088.020
521,38318.795000,172.973,-77.957,35.860,391.299,329.051,-158.970,-950.040,-2071.490,-756.020
522,38318.815000,190.764,-27.662,34.864,374.087,349.312,-156.595,-1232.040,-77.490,-115.020
523,38318.850000,359.784,-77.957,-43.829,378.153,361.798,-120.025,-1152.040,1132.510,-30.020
524,38318.895000,455.660,-45.768,-106.584,383.101,364.672,-79.743,-1341.040,1677.510,7.980
525,38318.930000,248.093,-80.974,-117.541,374.528,372.915,-54.081,-826.040,-254.490,-192.020
526,38318.991000,278.734,4.527,-58.770,360.018,374.542,-61.921,-1038.040,-1912.490,-109.020
527,38319.23000,317.282,-73.933,16.934,335.918,385.698,-73.492,-1763.040,-2796.490,-318.020
528,38319.51000,307.398,-105.116,31.875,324.343,392.079,-87.104,-926.040,-2460.490,24.980
529,38319.91000,214.486,-86.004,137.463,328.922,372.040,-117.940,1081.960,-587.490,805.980
530,38319.111000,201.637,8.550,116.545,351.829,340.228,-118.598,873.960,949.510,1182.980
531,38319.156000,224.371,38.727,16.934,372.960,321.363,-103.281,262.960,1913.510,1489.980
532,38319.192000,247.104,50.798,-55.782,398.955,301.035,-68.374,-367.040,1687.510,1210.980
533,38319.232000,268.849,513.509,-492.078,410.430,286.650,-65.727,1703.960,205.510,402.980
534,38319.273000,315.305,324.401,71.720,406.512,284.390,-78.534,-404.040,-328.490,27.980
535,38319.313000,243.151,145.352,-137.463,395.798,280.080,-93.362,795.960,-182.490,-283.020
536,38319.351000,238.208,36.715,-116.545,400.610,277.236,-92.435,90.960,8.510,351.980
537,38319.391000,255.012,44.762,-140.451,402.544,277.255,-92.430,162.960,391.510,300.980
538,38319.411000,227.336,4.527,-108.576,406.462,278.630,-75.720,-398.040,514.510,196.980
539,38319.455000,239.197,33.697,-81.681,412.263,275.127,-61.076,-395.040,346.510,65.980
540,38319.514000,223.382,32.692,-82.677,413.184,267.649,-48.491,-183.040,250.510,-38.020
541,38319.534000,227.336,19.615,-61.759,413.178,265.837,-42.647,-97.040,132.510,-84.020
542,38319.575000,231.290,34.703,-50.802,406.510,276.451,-42.426,3.960,-119.490,-145.020
543,38319.613000,237.220,31.686,-59.767,406.473,273.452,-46.415,170.960,-270.490,-214.020
544,38319.653000,250.069,24.644,-62.755,399.794,285.727,-58.905,149.960,-500.490,-386.020
545,38319.704000,256.988,28.668,-63.751,392.085,292.987,-78.374,-53.040,-875.490,-528.020
546,38319.712000,370.656,75.945,-40.840,378.573,300.212,-96.874,-62.040,-1076.490,-592.020
547,38319.753000,376.587,76.951,-0.996,367.062,313.367,-111.316,-864.040,-1317.490,-689.020
548,38319.793000,375.598,-44.762,-47.813,347.943,342.672,-138.165,-353.040,-1733.490,-1000.020
549,38319.833000,222.394,-32.692,-274.926,327.644,351.449,-171.355,474.960,-1477.490,-608.020
550,38319.873000,85.992,-15.591,-70.724,328.657,357.176,-176.129,-278.040,-584.490,-257.020
551,38319.911000,53.375,-4.527,-46.817,335.313,347.317,-186.141,1197.960,617.510,223.980
552,38319.953000,47.444,93.045,-97.619,359.130,313.206,-203.519,2361.960,1259.510,306.980
553,38319.994000,87.969,78.963,-185.276,386.986,292.185,-200.985,919.960,1595.510,367.980
554,38320.34000,120.587,21.627,-321.743,416.873,278.281,-184.559,874.960,1596.510,738.980
555,38320.61000,216.463,185.587,-491.082,412.872,265.536,-188.773,311.960,6.510,-114.020
556,38320.95000,132.448,82.986,-292.856,413.875,270.292,-193.569,650.960,160.510,59.980
557,38320.131000,183.846,75.945,-213.167,419.549,255.009,-185.070,373.960,660.510,613.980
558,38320.175000,371.645,73.933,-31.875,430.060,238.888,-172.657,629.960,969.510,577.980
559,38320.216000,200.649,-54.821,-154.397,443.543,228.750,-154.221,-29.040,623.510,463.980
560,38320.256000,217.452,-6.538,-141.447,452.276,227.325,-134.621,-39.040,962.510,172.980
561,38320.291000,238.208,-0.503,-65.743,459.083,225.967,-111.101,-167.040,767.510,65.980
562,38320.331000,236.232,-17.603,-43.829,456.171,223.198,-103.323,104.960,496.510,-46.020
563,38320.351000,239.197,2.515,-46.817,459.056,219.537,-94.573,384.960,317.510,-135.020
564,38320.394000,255.012,-2.515,-52.794,456.225,228.118,-100.272,946.960,104.510,-205.020
565,38320.435000,239.197,41.745,-109.572,456.218,228.053,-103.216,246.960,52.510,-48.020
566,38320.476000,245.127,-5.532,-88.654,459.061,221.350,-100.416,174.960,248.510,-38.020
567,38320.516000,238.208,30.680,-80.685,456.179,222.400,-95.496,-86.040,328.510,7.980
568,38320.556000,243.151,1.509,-71.720,461.116,229.567,-80.616,-160.040,287.510,8.980
569,38320.596000,242.162,17.603,-60.763,462.055,225.779,-76.776,-219.040,316.510,-2.020
570,38320.633000,241.174,-4.527,-52.794,464.055,231.709,-72.717,212.960,306.510,-83.020
571,38320.658000,245.127,-8.550,-29.883,463.106,232.757,-68.774,-7.040,114.510,-91.020
572,38320.693000,240.185,-0.503,-13.946,460.183,231.650,-73.708,20.960,-170.490,-117.020
573,38320.733000,244.139,0.503,-35.860,453.361,228.456,-83.599,30.960,-400.490,-154.020
574,38320.773000,264.896,9.556,-61.759,451.499,237.067,-88.316,18.960,-344.490,-190.020
575,38320.811000,295.537,38.727,-37.852,453.508,246.600,-96.926,-46.040,-479.490,-139.020
576,38320.851000,404.263,43.756,-13.946,450.579,246.313,-108.706,58.960,-625.490,-89.020
577,38320.895000,332.108,4.527,-19.922,453.493,248.219,-111.600,-1000.040,-406.490,-6.020
578,38320.936000,211.521,-16.597,-33.868,452.435,240.291,-118.643,304.960,-461.490,-202.020
579,38320.951000,157.158,-29.674,51.798,462.166,247.095,-122.394,1148.960,234.510,68.980
580,38320.996000,140.355,-61.862,44.825,476.571,231.250,-99.179,711.960,1271.510,401.980
581,38321.36000,185.822,-22.633,18.926,492.968,216.847,-55.334,577.960,1837.510,402.980
582,38321.76000,236.232,9.556,-39.844,506.504,208.090,-18.235,313.960,2097.510,462.980
583,38321.116000,236.232,11.568,-137.463,516.167,195.757,34.467,253.960,1852.510,259.980
584,38321.155000,241.174,12.574,-147.424,515.276,196.481,67.824,701.960,1003.510,-195.020
585,38321.196000,283.676,42.750,-110.568,518.293,205.527,80.780,206.960,388.510,-125.020
586,38321.235000,344.958,-114.169,-65.743,517.237,197.621,74.718,242.960,-728.490,115.980
587,38321.276000,258.965,36.715,47.813,517.201,197.276,59.020,-562.040,-847.490,-153.020
588,38321.296000,243.151,-3.521,-54.786,515.293,202.802,46.390,316.960,-571.490,-11.020
589,38321.336000,282.687,193.635,-16.934,511.337,196.659,33.496,-725.040,-629.490,-2.020
590,38321.378000,245.127,-98.075,-14.942,514.210,194.638,28.554,-1230.040,-620.490,148.980
591,38321.418000,256.988,2.515,-34.864,515.117,191.432,14.756,-177.040,-598.490,53.980
592,38321.455000,261.931,-28.668,-35.860,514.061,184.411,4.791,-581.040,-663.490,35.980
593,38321.493000,244.139,-51.804,-34.864,509.146,180.092,-12.967,79.960,-620.490,5.980
594,38321.534000,268.849,-51.804,-1.992,513.036,184.726,-24.624,655.960,-669.490,-215.020
595,38321.575000,255.012,24.644,-98.615,502.493,199.660,-46.870,739.960,-561.490,-606.020
596,38321.595000,260.942,89.022,-131.486,498.702,210.064,-57.434,666.960,-200.490,-433.020
597,38321.635000,299.490,111.151,-122.521,497.794,215.901,-56.326,471.960,692.510,-77.020
598,38321.675000,295.537,156.417,-75.704,506.491,208.845,-28.025,427.960,1564.510,124.980
599,38321.715000,175.938,66.892,-254.008,514.310,207.043,19.023,404.960,1659.510,-439.020
600,38321.755000,189.776,40.739,-328.716,512.606,230.368,21.499,542.960,652.510,-759.020
601,38321.796000,188.788,58.845,-368.560,507.872,244.517,5.131,-1059.040,-1261.490,-632.020
602,38321.836000,190.764,53.815,-187.268,486.678,264.547,-45.463,-1742.040,-2465.490,-699.020
603,38321.876000,144.309,-1.509,-48.809,460.713,289.557,-88.112,-1668.040,-2162.490,-892.020
604,38321.896000,245.127,93.045,-124.514,439.585,309.328,-106.350,-508.040,-344.490,-595.020
605,38321.936000,399.320,49.792,-6.973,430.103,324.293,-83.483,-998.040,592.510,-178.020
606,38321.976000,441.822,40.739,-101.603,420.726,345.536,-39.882,-2188.040,753.510,-639.020
607,38322.14000,307.398,-101.092,-126.506,408.334,361.270,-24.849,-1071.040,-315.490,-593.020
608,38322.84000,249.081,59.851,-70.724,383.357,378.566,-21.575,-2728.040,-2117.490,-612.020
609,38322.100000,336.062,-156.417,-73.712,360.251,389.990,-21.371,-2275.040,-2708.490,-763.020
610,38322.149000,316.293,-135.293,-15.938,334.217,402.896,-40.752,-331.040,-2585.490,-299.020
611,38322.189000,228.324,-71.921,58.770,327.322,397.242,-74.235,267.960,-1834.490,126.980
612,38322.196000,193.730,-68.904,63.751,330.047,384.131,-98.056,601.960,-890.490,493.980
613,38322.235000,201.637,-54.821,58.770,343.286,354.922,-108.483,1046.960,439.510,1065.980
614,38322.279000,198.672,1.509,31.875,365.355,334.902,-102.016,781.960,1180.510,1295.980
615,38322.350000,286.641,30.680,-29.883,391.215,305.361,-88.888,659.960,1593.510,1369.980
616,38322.379000,260.942,391.796,-467.175,402.736,293.177,-74.424,-370.040,-300.490,753.980
617,38322.395000,374.610,473.273,-34.864,395.987,295.096,-72.435,775.960,103.510,236.980
618,38322.440000,275.768,91.033,-132.482,396.898,290.164,-76.465,892.960,185.510,49.980
619,38322.475000,254.023,-100.086,-124.514,393.887,278.529,-74.768,138.960,293.510,280.980
620,38322.514000,254.023,56.833,-102.599,398.743,278.749,-66.908,-164.040,444.510,228.980
621,38322.539000,238.208,12.574,-78.693,397.846,282.062,-48.203,-654.040,478.510,176.980
622,38322.588000,219.429,7.544,-40.840,402.621,273.587,-38.575,-509.040,111.510,31.980
623,38322.619000,238.208,35.709,-67.735,399.726,274.508,-39.541,-2.040,-246.490,-172.020
624,38322.674000,227.336,22.633,-126.506,391.978,275.230,-47.387,232.960,-243.490,-233.020
625,38322.721000,215.475,19.615,-91.642,391.063,281.888,-53.125,347.960,-136.490,-289.020
626,38322.758000,251.058,101.092,-79.689,379.532,291.332,-59.804,141.960,-362.490,-477.020
627,38322.774000,252.046,50.798,-81.681,371.884,303.576,-73.278,221.960,-613.490,-546.020
628,38322.816000,339.027,39.733,-55.782,362.291,315.715,-90.681,-261.040,-1032.490,-653.020
629,38322.836000,395.367,114.169,2.988,346.911,329.717,-109.035,-543.040,-1226.490,-702.020
630,38322.875000,382.517,-22.633,-51.798,324.837,353.211,-134.057,-93.040,-1766.490,-1081.020
631,38322.915000,192.741,-27.662,-244.047,303.579,364.697,-176.015,370.960,-1731.490,-1071.020
632,38322.955000,195.707,48.786,-97.619,285.231,372.760,-198.430,133.960,-500.490,-527.020
633,38322.996000,40.525,-74.939,-25.899,293.929,372.758,-202.334,903.960,555.510,142.980
634,38323.36000,61.282,3.521,-74.708,316.744,335.660,-222.723,2485.960,1421.510,352.980
635,38323.76000,73.143,40.739,-123.518,348.254,296.770,-240.191,2958.960,2130.510,84.980
636,38323.116000,249.081,103.104,-452.233,389.630,272.127,-231.825,2316.960,2641.510,12.980
637,38323.136000,138.378,62.868,-492.078,398.300,265.697,-219.201,205.960,622.510,-439.020
638,38323.176000,100.819,80.974,-306.802,395.393,265.625,-221.170,242.960,40.510,-97.020
639,38323.216000,136.402,86.004,-254.008,400.197,261.832,-219.283,826.960,1021.510,334.980
640,38323.256000,356.819,47.780,-21.914,415.596,249.771,-200.885,379.960,1082.510,346.980
641,38323.296000,193.730,-47.780,-124.514,426.285,250.328,-180.257,108.960,950.510,130.980
642,38323.336000,239.197,9.556,-70.724,435.936,242.267,-153.937,-79.040,950.510,84.980
643,38323.380000,239.197,26.656,-60.763,446.634,244.679,-137.190,177.960,771.510,34.980
644,38323.416000,234.255,18.609,-32.872,449.500,238.192,-124.579,217.960,562.510,23.980
645,38323.436000,232.278,30.680,-30.879,452.411,238.306,-120.648,435.960,333.510,13.980
646,38323.476000,237.220,2.515,-51.798,450.423,233.368,-123.704,314.960,63.510,31.980
647,38323.516000,241.174,-5.532,-94.630,447.509,232.348,-124.713,283.960,54.510,-25.020
648,38323.556000,246.116,19.615,-77.696,450.399,231.384,-125.709,127.960,198.510,-51.020
649,38323.596000,254.023,23.639,-83.673,450.363,226.637,-120.911,183.960,248.510,-32.020
650,38323.636000,244.139,10.562,-57.774,455.287,233.674,-111.919,11.960,354.510,-3.020
651,38323.676000,245.127,12.574,-42.833,457.294,238.785,-101.014,-125.040,334.510,17.980
652,38323.718000,245.127,11.568,-39.844,458.223,234.911,-101.098,256.960,178.510,10.980
653,38323.746000,242.162,-1.509,-23.907,460.142,233.894,-104.058,261.960,-10.490,-16.020
654,38323.775000,248.093,10.562,-39.844,456.195,226.952,-109.124,75.960,-176.490,-11.020
655,38323.815000,241.174,-11.568,-23.907,453.343,233.569,-115.848,38.960,-388.490,-77.020
656,38323.861000,232.278,64.880,-41.837,446.568,236.114,-129.535,-38.040,-532.490,-102.020
657,38323.896000,258.965,19.615,-111.564,437.850,237.690,-142.267,-32.040,-849.490,-54.020
658,38323.942000,257.977,32.692,-133.479,438.826,240.418,-151.030,-406.040,-617.490,59.980
659,38323.978000,371.645,59.851,-9.961,437.826,239.222,-160.865,-399.040,-710.490,104.980
660,38324.18000,512.988,1.509,16.934,434.914,240.855,-173.584,-683.040,-1184.490,115.980
661,38324.61000,216.463,-75.945,-171.331,435.980,249.732,-167.501,-1615.040,-688.490,315.980
662,38324.80000,84.015,28.668,-19.922,443.737,250.865,-163.537,-617.040,-342.490,382.980
663,38324.117000,93.900,-68.904,113.556,461.097,240.829,-142.148,-81.040,931.510,767.980
664,38324.155000,149.251,-28.668,52.794,483.120,208.921,-102.603,1386.960,2152.510,762.980
665,38324.196000,181.869,23.639,-29.883,506.263,191.693,-57.826,1358.960,2903.510,432.980
666,38324.236000,270.826,82.986,-123.518,518.902,182.732,14.571,637.960,2844.510,9.980
667,38324.275000,267.861,40.739,-204.202,517.213,194.752,76.615,655.960,2131.510,-362.020
668,38324.320000,277.745,-53.815,-271.938,515.423,204.053,103.296,-80.040,562.510,-243.020
669,38324.366000,253.035,15.591,-23.907,522.015,188.305,90.212,-880.040,-924.490,151.980
670,38324.380000,201.637,-49.792,-19.922,516.246,195.627,72.710,-225.040,-836.490,-179.020
671,38324.420000,247.104,-101.092,-114.553,516.113,184.667,59.718,338.960,-714.490,132.980
672,38324.460000,277.745,28.668,-66.739,519.085,194.167,49.148,-436.040,-556.490,-45.020
673,38324.500000,260.942,-7.544,-38.848,514.253,196.816,39.390,87.960,-339.490,-69.020
674,38324.553000,260.942,2.515,-18.926,514.256,198.607,32.565,212.960,-310.490,-113.020
675,38324.577000,257.977,3.521,-5.977,512.303,198.416,24.711,-166.040,-422.490,-133.020
676,38324.619000,249.081,24.644,-44.825,509.438,205.788,8.198,377.960,-477.490,-186.020
677,38324.656000,259.954,11.568,-23.907,506.479,203.451,-8.532,246.960,-513.490,-187.020
678,38324.677000,242.162,39.733,-91.642,500.748,212.909,-17.160,610.960,-381.490,-245.020
679,38324.716000,280.710,67.898,-119.533,502.686,213.834,-20.077,387.960,238.510,-28.020
680,38324.757000,295.537,89.022,-122.521,508.430,203.621,-1.659,-36.040,808.510,249.980
681,38324.798000,287.629,53.815,-111.564,516.126,189.198,45.109,-1091.040,1426.510,273.980
682,38324.837000,198.672,41.745,-249.027,518.228,201.385,68.920,-203.040,1198.510,-395.020
683,38324.877000,196.695,59.851,-418.366,515.496,224.118,44.902,-154.040,-921.490,-625.020
684,38324.930000,244.139,65.886,-312.778,511.661,235.860,6.909,-1435.040,-2514.490,-633.020
685,38324.960000,253.035,40.739,-205.198,485.658,262.273,-60.226,-2031.040,-3188.490,-774.020
686,38324.980000,242.162,-35.709,-78.693,442.285,290.694,-116.564,-1875.040,-2934.490,-806.020
687,38325.24000,160.124,-10.562,59.767,412.619,326.971,-130.532,-2566.040,-1549.490,-648.020
688,38325.56000,273.792,-45.768,-59.767,401.253,347.677,-110.483,-1756.040,-179.490,20.980
689,38325.102000,489.266,-191.623,107.580,406.087,340.648,-79.248,-767.040,958.510,431.980
690,38325.136000,352.865,-142.334,-78.693,407.184,346.310,-42.835,-1793.040,1324.510,-85.020
691,38325.180000,216.463,-113.163,-116.545,404.293,341.988,-17.440,-429.040,205.510,18.980
692,38325.220000,234.255,-29.674,-100.607,397.550,344.835,-17.391,-1787.040,-1578.490,207.980
693,38325.256000,273.792,-45.768,-23.907,390.876,354.520,-15.229,-2032.040,-1875.490,-219.020
694,38325.299000,256.000,-126.240,43.829,388.796,345.181,-41.918,895.960,-1175.490,436.980
695,38325.318000,236.232,0.503,33.868,392.326,318.186,-79.775,2108.960,-264.490,633.980
696,38325.359000,194.718,-8.550,81.681,401.738,294.634,-95.969,1708.960,665.510,791.980
697,38325.399000,173.961,-70.916,-145.432,417.975,275.183,-105.192,2156.960,909.510,970.980
698,38325.444000,240.185,282.153,-3.984,408.370,282.791,-107.985,-1380.040,-666.490,-12.020
699,38325.480000,277.745,317.360,-109.572,394.689,273.425,-130.777,1727.960,-230.490,-508.020
700,38325.520000,331.120,14.585,-134.475,393.659,270.180,-145.561,798.960,-242.490,211.980
701,38325.559000,233.266,65.886,-152.405,388.738,263.164,-153.573,12.960,-282.490,192.980
702,38325.599000,176.927,-20.621,-203.206,398.433,263.452,-144.720,-413.040,226.510,437.980
703,38325.624000,225.359,-2.515,-129.494,401.268,254.916,-137.058,-94.040,437.510,223.980
704,38325.658000,232.278,10.562,-111.564,399.318,251.229,-127.338,18.960,305.510,-21.020
705,38325.699000,216.463,23.639,-123.518,408.116,258.347,-116.374,-108.040,383.510,-112.020
706,38325.738000,216.463,33.697,-118.537,410.033,253.792,-103.722,-237.040,478.510,-81.020
707,38325.779000,215.475,21.627,-87.658,411.086,259.022,-86.933,-433.040,470.510,-69.020
708,38325.819000,218.440,30.680,-88.654,408.286,267.020,-74.993,-126.040,314.510,-160.020
709,38325.864000,250.069,47.780,-67.735,405.407,269.861,-76.898,100.960,44.510,-207.020
710,38325.899000,241.174,37.721,-69.728,405.452,274.694,-77.771,179.960,-212.490,-299.020
711,38325.916000,260.942,11.568,-70.724,396.775,281.060,-93.338,126.960,-495.490,-452.020
712,38325.966000,317.282,49.792,-68.732,386.137,283.632,-104.091,-308.040,-555.490,-459.020
713,38326.2000,336.062,68.904,-31.875,378.573,303.729,-113.467,-417.040,-909.490,-476.020
714,38326.37000,345.946,40.739,-9.961,372.855,316.833,-132.802,-836.040,-1241.490,-551.020
715,38326.77000,245.127,-69.910,-190.257,354.571,332.554,-159.950,-210.040,-1520.490,-873.020
716,38326.123000,156.170,-41.745,-63.751,342.974,337.835,-179.470,331.960,-1101.490,-626.020
717,38326.159000,120.587,-26.656,-30.879,336.112,332.505,-198.236,615.960,-85.490,-153.020
718,38326.198000,45.467,-46.774,-23.907,352.240,304.963,-222.349,3326.960,1379.510,91.980
719,38326.220000,79.073,71.921,-108.576,387.700,273.036,-233.770,2538.960,1873.510,32.980
720,38326.259000,291.583,14.585,-492.078,415.494,241.746,-212.832,2012.960,1968.510,356.980
721,38326.299000,69.189,112.157,-468.171,418.464,246.822,-203.887,-618.040,-158.490,234.980
722,38326.339000,85.004,152.393,-256.996,419.457,248.838,-200.898,430.960,349.510,92.980
723,38326.379000,220.417,-74.939,-190.257,422.195,230.571,-194.433,1130.960,1223.510,242.980
724,38326.417000,279.722,47.780,-56.778,428.997,230.918,-181.662,138.960,286.510,163.980
725,38326.461000,228.324,16.597,-140.451,433.809,226.326,-171.947,206.960,654.510,41.980
726,38326.499000,233.266,-23.639,-99.611,438.716,230.559,-158.114,190.960,592.510,-63.020
727,38326.520000,231.290,17.603,-96.623,441.601,226.898,-149.363,252.960,541.510,-184.020
728,38326.560000,229.313,55.827,-66.739,444.538,229.019,-142.445,292.960,460.510,-107.020
729,38326.599000,237.220,62.868,-78.693,447.416,225.293,-136.638,155.960,319.510,163.980
730,38326.640000,246.116,-0.503,-94.630,452.245,222.622,-127.861,-335.040,327.510,280.980
731,38326.680000,245.127,-29.674,-63.751,457.097,221.935,-117.079,19.960,255.510,10.980
732,38326.720000,247.104,7.544,-41.837,458.105,225.850,-116.009,79.960,172.510,-12.020
733,38326.760000,246.116,3.521,-59.767,452.201,215.157,-114.298,-284.040,6.510,14.980
734,38326.800000,246.116,6.538,-64.747,458.114,225.936,-112.085,-218.040,-47.490,10.980
735,38326.840000,256.988,23.639,-66.739,460.030,224.898,-116.026,-134.040,-158.490,-34.020
736,38326.860000,249.081,16.597,-77.696,455.141,219.953,-118.108,126.960,-188.490,-105.020
737,38326.900000,213.498,-0.503,-105.588,456.155,226.564,-126.785,107.960,-81.490,-120.020
738,38326.940000,179.892,-12.574,-92.638,452.323,231.295,-130.610,175.960,-113.490,-102.020
739,38326.980000,280.710,6.538,-62.755,451.254,221.512,-133.772,0.960,-116.490,-50.020
740,38327.21000,380.541,24.644,17.930,442.591,228.007,-143.452,279.960,-527.490,-275.020
741,38327.61000,465.544,33.697,59.767,439.794,242.197,-158.834,10.960,-1071.490,-277.020
742,38327.102000,309.375,22.633,-83.673,436.840,241.673,-181.407,-211.040,-1003.490,-42.020
743,38327.142000,165.066,36.715,-192.249,435.895,245.396,-188.191,-144.040,-627.490,-87.020
744,38327.163000,64.247,-29.674,34.864,443.525,232.095,-178.664,728.960,557.510,169.980
745,38327.204000,123.552,-76.951,100.607,470.608,222.628,-135.668,643.960,2144.510,423.980
746,38327.241000,206.579,4.527,-45.821,505.463,210.022,-62.324,369.960,2807.510,527.980
747,38327.281000,244.139,50.798,-114.553,516.150,197.353,18.812,-401.040,2781.510,483.980
748,38327.321000,363.737,-32.692,-87.658,522.971,192.608,64.812,276.960,2291.510,76.980
749,38327.361000,411.181,229.847,-29.883,520.062,188.113,82.358,-364.040,-1081.490,80.980
750,38327.399000,221.405,-164.464,155.393,518.044,182.895,66.547,-1083.040,-1022.490,-58.020
751,38327.440000,322.224,-36.715,-149.416,518.035,187.210,42.127,142.960,-877.490,96.980
752,38327.458000,298.502,66.892,-73.712,517.991,184.147,35.194,-407.040,-546.490,-15.020
753,38327.500000,259.954,21.627,-30.879,519.847,177.240,29.161,-338.040,-326.490,38.980
754,38327.540000,255.012,-16.597,-48.809,517.933,180.069,26.277,-188.040,-274.490,42.980
755,38327.579000,257.977,-44.762,-13.946,513.076,178.943,21.339,-316.040,-281.490,-4.020
756,38327.629000,257.977,-56.833,-36.856,512.111,180.725,14.512,-89.040,-352.490,-57.020
757,38327.662000,263.907,2.515,-16.934,512.988,174.585,-0.333,266.960,-439.490,-145.020
758,38327.700000,278.734,23.639,-22.911,509.217,188.701,-18.660,609.960,-773.490,-514.020
759,38327.739000,174.950,19.615,-138.459,498.705,206.569,-39.860,942.960,-538.490,-539.020
760,38327.760000,261.931,19.615,-152.405,498.623,199.622,-46.879,256.960,-56.490,-9.020
761,38327.799000,311.351,93.045,-129.494,502.549,203.716,-38.935,49.960,496.510,199.980
762,38327.839000,277.745,190.617,-84.669,508.263,187.936,-8.872,-1032.040,1539.510,621.980
763,38327.882000,210.533,114.169,-107.580,520.001,191.048,39.274,-125.040,1730.510,28.980
764,38327.923000,207.568,115.175,-318.755,518.273,211.503,43.647,1128.960,566.510,-1037.020
765,38327.959000,186.811,94.051,-377.525,506.746,228.025,5.744,-384.040,-1390.490,-923.020
766,38327.999000,191.753,67.898,-147.424,492.474,264.518,-49.374,-1376.040,-2376.490,-936.020
767,38328.41000,171.985,52.809,-68.732,472.274,282.162,-76.484,-1639.040,-1803.490,-1016.020
768,38328.97000,241.174,-39.733,-9.961,446.475,318.455,-91.423,-1532.040,-887.490,-956.020
769,38328.105000,337.050,66.892,-30.879,433.127,335.173,-75.389,-1852.040,492.510,-514.020
770,38328.140000,423.042,19.615,-90.646,416.040,356.621,-19.052,-3151.040,557.510,-660.020
771,38328.180000,351.876,-191.623,-87.658,395.099,384.353,15.843,-1360.040,-225.490,-919.020
772,38328.225000,243.151,14.585,-60.763,371.087,402.520,14.234,-925.040,-1220.490,-786.020
773,38328.260000,315.305,-107.128,-44.825,357.635,412.075,13.437,-1753.040,-2430.490,-661.020
774,38328.306000,315.305,-140.322,-13.946,338.272,415.274,-9.088,-390.040,-2493.490,-226.020
775,38328.341000,239.197,-89.022,55.782,331.362,407.722,-40.651,392.960,-1664.490,275.980
776,38328.381000,183.846,-73.933,70.724,337.923,392.556,-71.374,1105.960,-466.490,621.980
777,38328.402000,224.371,-93.045,28.887,351.121,362.958,-99.462,1869.960,389.510,881.980
778,38328.445000,224.371,21.627,-35.860,380.714,326.854,-121.776,2794.960,1440.510,1184.980
779,38328.484000,171.985,127.246,-423.346,395.019,303.004,-109.526,155.960,1195.510,1094.980
780,38328.524000,266.873,245.941,30.879,395.960,299.238,-104.705,-1490.040,-819.490,671.980
781,38328.564000,266.873,342.507,-71.720,392.000,289.535,-102.967,548.960,237.510,61.980
782,38328.601000,323.212,44.762,-84.669,394.910,291.397,-107.823,1162.960,425.510,75.980
783,38328.641000,279.722,23.639,-97.619,395.858,288.580,-103.961,150.960,237.510,258.980
784,38328.684000,261.931,71.921,-98.615,398.678,279.008,-99.264,-288.040,391.510,236.980
785,38328.704000,222.394,25.650,-84.669,401.576,275.476,-84.626,-631.040,222.510,132.980
786,38328.744000,204.602,1.509,-68.732,398.709,278.425,-81.625,-416.040,-116.490,-50.020
787,38328.784000,197.683,38.727,-132.482,393.926,284.181,-82.488,-45.040,-133.490,-157.020
788,38328.824000,217.452,5.532,-128.498,392.003,285.155,-81.490,178.960,35.510,-158.020
789,38328.864000,241.174,19.615,-89.650,386.163,282.121,-84.511,455.960,99.510,-245.020
790,38328.904000,262.919,78.963,-46.817,380.364,284.762,-94.271,415.960,-257.490,-421.020
791,38328.941000,259.954,26.656,-76.700,366.930,298.891,-107.715,173.960,-793.490,-555.020
792,38328.980000,324.201,49.792,-83.673,351.526,310.908,-128.075,-116.040,-968.490,-624.020
793,38329.20000,387.459,102.098,-53.790,340.933,319.197,-143.604,-182.040,-1353.490,-694.020
794,38329.40000,380.541,35.709,-1.992,332.342,336.955,-170.686,-222.040,-1440.490,-664.020
795,38329.81000,326.178,-4.527,-87.658,310.249,356.738,-187.946,-866.040,-1623.490,-897.020
796,38329.120000,157.158,67.898,-226.117,289.951,362.883,-208.446,443.960,-1056.490,-731.020
797,38329.161000,55.351,-42.750,-24.903,290.002,370.412,-219.066,766.960,376.510,-250.020
798,38329.201000,63.259,-61.862,-4.981,308.910,330.278,-243.453,2727.960,1407.510,-93.020
799,38329.241000,104.772,12.574,-92.638,335.744,307.845,-260.566,3297.960,2097.510,199.980
800,38329.281000,161.112,40.739,-235.082,382.802,268.890,-243.679,1098.960,2609.510,395.980
801,38329.321000,150.239,137.305,-492.078,415.610,254.302,-215.495,644.960,1414.510,42.980
802,38329.342000,108.726,122.216,-352.623,410.895,265.992,-211.322,-678.040,-484.490,234.980
803,38329.384000,71.166,193.635,-246.039,415.672,259.308,-208.519,644.960,454.510,181.980
804,38329.424000,364.726,-35.709,-158.381,423.365,250.127,-188.112,654.960,1333.510,158.980
805,38329.461000,191.753,25.650,-99.611,434.027,249.541,-175.354,141.960,799.510,124.980
806,38329.501000,230.301,11.568,-114.553,439.736,237.235,-163.848,424.960,782.510,89.980
807,38329.545000,240.185,15.591,-78.693,446.520,235.661,-150.139,121.960,757.510,90.980
808,38329.585000,232.278,20.621,-58.770,451.460,242.849,-134.278,47.960,596.510,59.980
809,38329.625000,234.255,26.656,-60.763,460.135,238.231,-127.498,256.960,473.510,85.980
810,38329.645000,245.127,25.650,-39.844,464.887,228.656,-123.778,273.960,275.510,105.980
811,38329.685000,241.174,42.750,-74.708,464.884,225.980,-113.050,-55.040,167.510,130.980
812,38329.725000,248.093,0.503,-55.782,468.737,224.098,-112.103,-647.040,124.510,252.980
813,38329.765000,245.127,-0.503,-65.743,464.892,225.182,-105.222,-144.040,30.510,20.980
814,38329.805000,249.081,22.633,-81.681,468.764,225.241,-104.232,45.960,41.510,-28.020
815,38329.852000,247.104,33.697,-93.634,472.697,230.284,-97.247,-497.040,152.510,68.980
816,38329.882000,247.104,-13.580,-67.735,471.708,227.427,-94.371,-218.040,139.510,3.980
817,38329.922000,235.243,-2.515,-53.790,471.747,230.447,-89.400,76.960,107.510,-45.020
818,38329.946000,214.486,-5.532,-63.751,470.712,223.620,-90.535,262.960,52.510,-66.020
819,38329.985000,248.093,-15.591,-36.856,467.918,235.199,-92.245,193.960,-55.490,-60.020
820,38330.26000,250.069,68.904,-43.829,466.923,234.046,-100.118,214.960,-227.490,-121.020
821,38330.60000,330.131,9.556,-14.942,463.951,228.948,-110.044,-200.040,-603.490,-23.020
822,38330.106000,362.749,38.727,-3.984,460.083,232.449,-125.665,-137.040,-846.490,-93.020
823,38330.142000,446.764,28.668,23.907,458.184,240.693,-147.061,-120.040,-1122.490,-93.020
824,38330.185000,231.290,-50.798,-128.498,458.167,239.658,-150.026,-734.040,-732.490,94.980
825,38330.224000,91.923,-38.727,15.938,461.086,240.721,-147.054,-247.040,-179.490,187.980
826,38330.264000,115.645,-91.033,97.619,475.552,229.860,-117.845,-159.040,1280.510,846.980
827,38330.285000,193.730,-12.574,-1.992,502.518,205.183,-60.477,301.960,2234.510,980.980
828,38330.322000,239.197,55.827,-55.782,522.730,179.728,8.628,353.960,2574.510,616.980
829,38330.366000,215.475,99.081,-118.537,518.936,174.253,70.280,350.960,2175.510,50.980
830,38330.401000,202.625,38.727,-198.226,515.272,187.635,106.854,1240.960,1276.510,-382.020
831,38330.446000,483.336,58.845,-110.568,520.121,189.559,103.965,1168.960,-587.490,366.980
832,38330.481000,186.811,-66.892,37.852,517.120,184.180,81.284,-539.040,-941.490,-352.020
833,38330.521000,278.734,192.629,-104.591,510.379,192.334,57.915,1071.960,-780.490,-126.020
834,38330.561000,248.093,62.868,-39.844,510.435,200.792,45.354,134.960,-512.490,-137.020
835,38330.586000,261.931,7.544,-30.879,512.347,199.710,39.450,-168.040,-327.490,104.980
836,38330.621000,256.988,-56.833,-33.868,511.307,193.725,32.450,81.960,-238.490,52.980
837,38330.662000,258.965,-11.568,-23.907,504.518,195.255,16.780,389.960,-494.490,-145.020
838,38330.704000,253.035,16.597,-53.790,503.598,201.869,9.079,512.960,-459.490,-284.020
839,38330.749000,244.139,24.644,-75.704,499.784,210.289,-3.491,347.960,-284.490,-278.020
840,38330.786000,259.954,51.804,-95.626,499.827,215.985,-9.248,110.960,-84.490,-120.020
841,38330.826000,289.606,109.139,-105.588,499.819,213.266,-0.482,-322.040,438.510,188.980
842,38330.866000,291.583,80.974,-81.681,508.479,203.211,23.829,-360.040,864.510,364.980
843,38330.886000,315.305,98.075,-42.833,519.095,191.621,65.763,-1000.040,1683.510,295.980
844,38330.921000,215.475,116.181,-213.167,514.323,193.084,90.302,254.960,1457.510,-479.020
845,38330.962000,176.927,69.910,-352.623,510.762,224.178,93.926,843.960,434.510,-881.020
846,38331.4000,193.730,94.051,-224.125,509.821,233.231,64.705,-1246.040,-1316.490,-859.020
847,38331.49000,190.764,42.750,-152.405,503.216,258.537,27.007,-1479.040,-1754.490,-1018.020
848,38331.82000,205.591,63.874,-153.401,486.021,290.406,-16.451,-1229.040,-1582.490,-1036.020
849,38331.127000,289.606,-10.562,-79.689,458.226,323.444,-46.177,-1171.040,-1437.490,-979.020
850,38331.164000,335.073,53.815,-56.778,433.216,338.668,-48.834,-1723.040,-806.490,-813.020
851,38331.204000,384.494,-66.892,-32.872,417.991,362.961,-40.481,-1684.040,-530.490,-779.020
852,38331.224000,351.876,-121.210,-49.805,392.098,384.260,-31.237,-1030.040,-779.490,-815.020
853,38331.269000,303.444,-74.939,-50.802,367.062,396.593,-32.978,-769.040,-1451.490,-630.020
854,38331.304000,324.201,-67.898,-39.844,336.171,409.258,-61.201,-401.040,-2530.490,-604.020
855,38331.346000,310.363,-37.721,-33.868,314.822,408.425,-89.703,-310.040,-2519.490,-308.020
856,38331.386000,271.815,-79.969,40.840,300.227,406.601,-122.136,498.960,-2205.490,237.980
857,38331.422000,193.730,-9.556,81.681,301.054,394.701,-134.167,204.960,-794.490,724.980
858,38331.467000,165.066,-8.550,71.720,317.282,373.394,-139.509,378.960,331.510,1104.980
859,38331.504000,218.440,20.621,28.887,347.012,343.892,-126.372,772.960,1600.510,1533.980
860,38331.524000,254.023,207.717,-125.510,385.530,320.537,-102.292,631.960,2109.510,1462.980
861,38331.564000,235.243,144.346,-447.253,396.102,310.284,-87.788,-249.040,-163.490,659.980
862,38331.605000,143.320,154.405,3.984,388.243,299.378,-94.911,-96.040,-17.490,298.980
863,38331.659000,333.097,47.780,-115.549,386.379,307.083,-96.705,801.960,285.510,48.980
864,38331.686000,234.255,36.715,-114.553,391.121,296.537,-93.007,-147.040,287.510,384.980
865,38331.726000,218.440,33.697,-119.533,395.002,296.683,-88.092,156.960,396.510,270.980
866,38331.766000,255.012,39.733,-81.681,402.736,294.061,-78.327,-93.040,410.510,289.980
867,38331.806000,243.151,29.674,-70.724,402.662,283.662,-65.810,-161.040,356.510,182.980
868,38331.826000,230.301,11.568,-58.770,402.651,280.922,-58.025,-225.040,155.510,33.980
869,38331.875000,229.313,41.745,-67.735,402.600,276.025,-60.095,1.960,-93.490,-76.020
870,38331.902000,226.347,22.633,-90.646,398.742,277.864,-63.005,131.960,-196.490,-158.020
871,38331.944000,232.278,40.739,-71.720,393.932,282.477,-71.738,321.960,-330.490,-305.020
872,38331.984000,244.139,49.792,-63.751,385.349,297.667,-83.187,120.960,-725.490,-490.020
873,38332.26000,295.537,48.786,-90.646,370.814,299.942,-105.723,-64.040,-956.490,-550.020
874,38332.72000,333.097,68.904,-68.732,358.343,314.922,-125.030,-236.040,-1275.490,-732.020
875,38332.119000,380.541,102.098,-41.837,336.245,336.431,-152.057,-103.040,-1702.490,-889.020
876,38332.175000,425.019,13.580,-20.918,320.831,348.341,-177.323,-871.040,-1610.490,-974.020
877,38332.189000,176.927,-99.081,-308.794,300.717,373.860,-199.354,175.960,-1564.490,-946.020
878,38332.227000,14.826,27.662,-70.724,280.371,376.014,-224.846,586.960,-699.490,-877.020
879,38332.276000,32.618,-89.022,-15.938,284.061,362.007,-245.743,2189.960,795.510,-328.020
880,38332.329000,39.537,-70.916,-13.946,314.380,305.114,-287.149,4515.960,1806.510,-89.020
881,38332.347000,52.386,51.804,-83.673,368.179,264.153,-276.177,1446.960,2698.510,375.980
882,38332.365000,118.610,315.348,-492.078,384.558,254.864,-264.581,113.960,963.510,-122.020
883,38332.407000,5.931,196.652,-164.358,381.817,269.593,-255.434,-900.040,-187.490,306.980
884,38332.427000,117.622,113.163,-229.105,387.496,255.237,-248.876,562.960,965.510,55.980
885,38332.462000,385.483,37.721,-100.607,402.914,244.234,-226.532,532.960,1576.510,501.980
886,38332.504000,205.591,14.585,-120.529,420.288,235.212,-203.160,47.960,1036.510,243.980
887,38332.544000,197.683,3.521,-153.401,431.918,232.003,-177.709,324.960,1132.510,258.980
888,38332.584000,246.116,23.639,-62.755,447.444,232.607,-157.069,-485.040,921.510,302.980
889,38332.624000,241.174,9.556,-63.751,455.177,229.101,-143.402,-207.040,793.510,240.980
890,38332.664000,234.255,-25.650,-48.809,460.005,224.660,-126.819,-59.040,509.510,82.980
891,38332.704000,225.359,0.503,-52.794,460.047,226.818,-116.964,269.960,369.510,39.980
892,38332.750000,255.012,11.568,-48.809,466.807,225.007,-114.048,-42.040,129.510,75.980
893,38332.765000,247.104,18.609,-88.654,464.884,225.980,-113.050,-61.040,68.510,33.980
894,38332.804000,249.081,17.603,-92.638,471.598,217.567,-101.455,-380.040,216.510,87.980
895,38332.847000,252.046,21.627,-71.720,470.637,216.738,-94.610,-476.040,226.510,101.980
896,38332.887000,239.197,-18.609,-56.778,470.650,216.867,-88.724,-190.040,125.510,-3.020
897,38332.926000,236.232,-5.532,-78.693,472.641,221.827,-84.687,-63.040,157.510,-32.020
898,38332.964000,236.232,6.538,-53.790,472.599,217.900,-86.735,252.960,169.510,-80.020
899,38333.4000,212.510,-25.650,-36.856,472.606,218.850,-87.695,271.960,8.510,-79.020
900,38333.47000,229.313,-28.668,-32.872,467.795,222.578,-92.525,378.960,-186.490,-88.020
901,38333.67000,262.919,-1.509,-28.887,462.924,220.438,-99.448,407.960,-387.490,-173.020
902,38333.107000,285.652,45.768,-40.840,457.078,219.993,-117.122,288.960,-552.490,-216.020
903,38333.149000,387.459,35.709,12.949,452.255,225.362,-135.646,79.960,-901.490,-198.020
904,38333.184000,447.753,9.556,28.887,449.424,237.458,-157.938,150.960,-1095.490,-186.020
905,38333.224000,189.776,-4.527,-159.377,446.532,240.170,-165.729,-327.040,-788.490,-116.020
906,38333.274000,141.344,-34.703,15.938,452.294,235.416,-163.861,295.960,-20.490,39.980
907,38333.306000,150.239,-106.122,64.747,475.483,225.674,-131.667,488.960,1445.510,517.980
908,38333.347000,168.031,-50.798,25.899,486.996,208.139,-95.747,405.960,2230.510,696.980
909,38333.367000,223.382,10.562,-89.650,511.205,195.386,-24.391,6.960,2533.510,628.980
910,38333.407000,218.440,77.957,-125.510,519.928,182.418,43.986,-43.040,2305.510,343.980
911,38333.447000,205.591,98.075,-188.265,514.204,179.621,95.887,455.960,1789.510,-230.020
912,38333.487000,465.544,-96.063,-44.825,508.542,191.495,108.887,256.960,186.510,-287.020
913,38333.526000,303.444,-24.644,8.965,509.550,200.696,85.557,-444.040,-1153.490,-167.020
914,38333.566000,184.834,7.544,-187.268,510.547,206.271,73.915,326.960,-771.490,-65.020
915,38333.604000,251.058,155.411,-71.720,506.661,208.715,54.348,-130.040,-727.490,-194.020
916,38333.645000,235.243,22.633,-50.802,506.565,201.639,41.442,-283.040,-546.490,59.980
917,38333.665000,271.815,0.503,-70.724,510.403,200.490,31.618,-92.040,-419.490,137.980
918,38333.705000,262.919,8.550,-39.844,507.478,199.361,25.703,-397.040,-272.490,92.980
919,38333.745000,258.965,-17.603,-27.891,510.312,193.456,20.674,-339.040,-256.490,80.980
920,38333.785000,257.977,-19.615,-45.821,507.391,191.486,20.625,-117.040,-259.490,-26.020
921,38333.825000,244.139,-18.609,-44.825,507.427,196.233,15.827,298.960,-180.490,-60.020
922,38333.865000,263.907,-2.515,-45.821,507.426,197.980,7.040,236.960,-186.490,-127.020
923,38333.905000,272.803,52.809,-81.681,505.515,200.831,5.137,191.960,63.510,-64.020
924,38333.945000,260.942,73.933,-88.654,512.319,202.084,14.986,-8.040,358.510,32.980
925,38333.965000,303.444,132.275,-77.696,517.172,198.765,38.459,-133.040,1014.510,190.980
926,38334.5000,284.664,168.487,-77.696,520.075,189.991,79.458,-204.040,1875.510,127.980
927,38334.45000,260.942,27.662,-220.140,513.504,207.702,93.566,2088.960,1594.510,-1200.020
928,38334.85000,96.865,112.157,-486.101,506.081,242.362,84.513,627.960,-41.490,-1118.020
929,38334.139000,201.637,62.868,-232.093,503.335,264.966,54.609,-2107.040,-1715.490,-732.020
930,38334.166000,229.313,75.945,-142.444,497.708,289.505,25.722,-2007.040,-1516.490,-937.020
931,38334.212000,397.344,-59.851,-55.782,477.552,310.213,5.545,-2414.040,-1354.490,-1040.020
932,38334.246000,385.483,-65.886,-35.860,449.778,341.697,-6.563,-1581.040,-934.490,-1082.020
933,38334.286000,362.749,-58.845,-51.798,427.714,360.876,-7.165,-1656.040,-1160.490,-1063.020
934,38334.310000,348.911,-128.251,-34.864,391.145,382.632,-16.565,-863.040,-1647.490,-1095.020
935,38334.345000,337.050,-142.334,-30.879,357.431,403.079,-42.661,-230.040,-2101.490,-978.020
936,38334.389000,346.934,-28.668,-33.868,328.438,412.764,-74.868,-396.040,-2846.490,-326.020
937,38334.457000,318.270,-110.145,56.778,310.860,403.101,-109.443,-196.040,-2681.490,19.980
938,38334.486000,221.405,-11.568,71.720,303.005,395.755,-131.197,77.960,-1571.490,526.980
939,38334.511000,212.510,-62.868,88.654,307.735,385.964,-137.289,216.960,-606.490,879.980
940,38334.545000,212.510,1.509,79.689,333.691,370.556,-143.460,415.960,801.510,1366.980
941,38334.602000,245.127,6.538,59.767,366.327,340.240,-124.451,248.960,1497.510,1631.980
942,38334.610000,248.093,97.069,-47.813,402.799,303.468,-91.848,-214.040,1887.510,1578.980
943,38334.649000,130.471,513.509,-492.078,407.515,289.146,-83.330,-494.040,-12.490,556.980
944,38334.690000,352.865,247.953,-86.661,405.605,290.249,-76.445,-1317.040,-67.490,431.980
945,38334.726000,374.610,46.774,-142.444,406.419,273.819,-73.866,681.960,807.510,328.980
946,38334.766000,276.757,104.110,-80.685,410.394,281.904,-60.929,-665.040,588.510,333.980
947,38334.807000,240.185,55.827,-120.529,414.234,277.260,-53.179,-234.040,437.510,150.980
948,38334.876000,224.371,2.515,-54.786,414.202,270.787,-38.613,-394.040,338.510,77.980
949,38334.890000,227.336,5.532,-37.852,414.272,275.857,-28.693,-184.040,58.510,-86.020
950,38334.911000,230.301,27.662,-85.665,415.282,280.678,-30.546,128.960,-37.490,-164.020
951,38334.947000,230.301,21.627,-48.809,410.400,277.567,-37.489,248.960,-146.490,-214.020
952,38334.987000,232.278,24.644,-57.774,404.646,284.156,-44.220,521.960,-336.490,-320.020
953,38335.27000,239.197,61.862,-77.696,395.903,283.726,-59.939,276.960,-614.490,-506.020
954,38335.66000,253.035,24.644,-74.708,381.486,297.694,-80.253,210.960,-882.490,-630.020
955,38335.106000,319.259,62.868,-63.751,370.886,306.803,-102.628,-2.040,-1086.490,-689.020
956,38335.146000,388.448,94.051,-44.825,359.447,329.451,-126.666,-267.040,-1378.490,-705.020
957,38335.191000,384.494,4.527,-53.790,337.260,340.410,-148.044,-569.040,-1635.490,-792.020
958,38335.206000,320.247,-24.644,-132.482,314.160,358.933,-178.082,-266.040,-1670.490,-1003.020
959,38335.246000,189.776,41.745,-108.576,302.696,376.058,-188.514,-43.040,-954.490,-819.020
960,38335.290000,63.259,0.503,-89.650,296.740,363.984,-205.465,1480.960,359.510,-272.020
961,38335.330000,41.514,-13.580,-49.805,316.671,332.317,-242.411,3647.960,1166.510,16.980
962,38335.370000,57.328,92.039,-112.560,350.941,280.639,-268.983,2887.960,1870.510,113.980
963,38335.410000,137.390,-138.310,-492.078,390.333,249.354,-252.923,901.960,2041.510,390.980
964,38335.450000,70.178,-37.721,-339.673,393.277,253.309,-250.868,-1727.040,-736.490,495.980
965,38335.486000,42.502,126.240,-175.315,394.322,259.338,-241.906,-1347.040,-14.490,701.980
966,38335.526000,94.888,189.611,-215.160,405.833,246.182,-227.463,165.960,1037.510,274.980
967,38335.546000,448.741,-14.585,-114.553,414.481,235.134,-204.155,859.960,1695.510,322.980
968,38335.587000,199.660,56.833,-90.646,430.013,234.918,-176.668,-353.040,866.510,464.980
969,38335.627000,222.394,-2.515,-132.482,441.545,222.842,-157.299,30.960,917.510,356.980
970,38335.672000,230.301,-22.633,-64.747,452.257,225.383,-134.664,-284.040,734.510,239.980
971,38335.707000,245.127,27.662,-38.848,458.059,223.649,-127.826,75.960,377.510,89.980
972,38335.747000,236.232,12.574,-61.759,460.967,222.857,-120.973,-159.040,172.510,131.980
973,38335.786000,236.232,-37.721,-24.903,461.904,219.933,-122.016,32.960,-159.490,97.980
974,38335.831000,248.093,13.580,-121.525,463.755,212.098,-126.109,-141.040,-204.490,73.980
975,38335.846000,253.035,19.615,-104.591,460.876,214.055,-124.110,-358.040,-42.490,64.980
976,38335.887000,244.139,-1.509,-104.591,464.832,221.967,-119.023,-362.040,69.510,0.980
977,38335.929000,225.359,13.580,-109.572,466.762,220.174,-113.175,-215.040,136.510,-69.020
978,38335.969000,229.313,5.532,-95.626,467.701,216.386,-109.334,65.960,248.510,-79.020
979,38336.9000,250.069,3.521,-68.732,470.675,222.391,-102.330,-245.040,187.510,-5.020
980,38336.52000,232.278,-11.568,-78.693,468.712,219.459,-102.399,82.960,94.510,-92.020
981,38336.87000,222.394,9.556,-103.595,470.715,226.296,-101.263,83.960,153.510,-112.020
982,38336.126000,219.429,19.615,-73.712,469.768,227.365,-96.338,97.960,113.510,-97.020
983,38336.152000,195.707,-51.804,-85.665,470.717,225.433,-96.379,234.960,3.510,-85.020
984,38336.190000,241.174,6.538,-80.685,465.925,231.103,-101.166,238.960,51.510,-3.020
985,38336.227000,240.185,28.668,-71.720,464.863,221.385,-101.384,425.960,27.510,-74.020
986,38336.266000,328.154,23.639,-11.953,462.016,228.929,-110.049,25.960,-312.490,-84.020
987,38336.307000,450.718,50.798,31.875,458.178,234.479,-120.721,-14.040,-627.490,-212.020
988,38336.347000,356.819,-49.792,-5.977,459.229,244.090,-125.409,-916.040,-744.490,-276.020
989,38336.387000,170.996,20.621,-137.463,456.269,241.753,-142.138,604.960,-656.490,-340.020
990,38336.430000,96.865,-58.845,8.965,456.335,247.664,-138.084,402.960,269.510,-76.020
991,38336.450000,108.726,-63.874,66.739,471.684,228.959,-112.970,579.960,1637.510,280.980
992,38336.490000,159.135,-25.650,-6.973,494.888,217.599,-66.101,953.960,2288.510,364.980
993,38336.531000,232.278,25.650,-104.591,507.562,215.132,-7.289,1290.960,2670.510,184.980
994,38336.571000,280.710,76.951,-144.436,513.384,204.790,49.372,1104.960,2453.510,-18.020
995,38336.612000,288.618,-20.621,-223.128,513.511,209.536,88.704,294.960,1268.510,-189.020
996,38336.647000,317.282,95.057,95.626,517.353,206.661,88.648,-1070.040,-653.490,232.980
997,38336.697000,225.359,-7.544,-2.988,516.353,205.465,78.813,-206.040,-660.490,-60.020
998,38336.731000,248.093,-114.169,-55.782,517.294,206.100,63.138,885.960,-575.490,94.980
999,38336.771000,265.884,95.057,-52.794,512.426,205.751,49.391,314.960,-401.490,51.980
1000,38336.791000,256.000,-16.597,-61.759,516.187,194.182,51.103,-728.040,-231.490,80.980
1001,38336.831000,260.942,-14.585,-37.852,518.146,197.954,45.307,442.960,-51.490,69.980
1002,38336.871000,255.012,-4.527,22.911,517.201,201.678,38.523,26.960,-193.490,-31.020
1003,38336.911000,253.035,-18.609,9.961,514.266,199.578,32.587,108.960,-403.490,-87.020
1004,38336.950000,251.058,17.603,-43.829,510.430,205.150,22.896,149.960,-341.490,-88.020
1005,38336.989000,260.942,25.650,-50.802,508.468,203.988,15.020,246.960,-125.490,-152.020
1006,38337.37000,269.838,-3.521,-3.984,506.585,209.751,13.183,323.960,-115.490,-248.020
1007,38337.71000,290.595,65.886,-25.899,506.593,212.469,4.417,296.960,-137.490,-162.020
1008,38337.91000,271.815,60.857,-53.790,511.507,219.420,9.485,13.960,132.510,76.980
1009,38337.131000,263.907,122.216,-44.825,516.315,213.017,25.044,-590.040,437.510,165.980
1010,38337.167000,238.208,128.251,-0.996,518.309,216.250,38.849,-263.040,1090.510,-77.020
1011,38337.207000,216.463,115.175,-39.844,512.677,224.888,81.197,1186.960,2022.510,-758.020
1012,38337.249000,215.475,124.228,-130.490,496.552,247.187,131.672,86.960,2306.510,-1092.020
1013,38337.289000,274.780,150.381,-274.926,491.869,250.375,190.573,-2972.040,1232.510,-659.020
1014,38337.329000,198.672,121.210,-199.222,488.907,234.813,234.351,-4320.040,104.510,-592.020
1015,38337.374000,264.896,41.745,-152.405,489.041,251.943,219.041,-1145.040,-1098.490,-1510.020
1016,38337.434000,340.015,54.821,-169.339,481.568,288.761,175.713,931.960,-1711.490,-1925.020
1017,38337.451000,364.726,-27.662,-64.747,456.654,329.552,100.074,716.960,-1917.490,-1408.020
1018,38337.481000,327.166,-23.639,-66.739,430.767,362.350,58.579,-1022.040,-1983.490,-1011.020
1019,38337.544000,328.154,-42.750,-70.724,412.570,386.831,32.606,-1672.040,-2203.490,-835.020
1020,38337.560000,336.062,-59.851,-29.883,378.751,394.829,14.080,-1224.040,-2261.490,-928.020
1021,38337.592000,323.212,-56.833,-26.895,347.874,408.508,-12.160,-701.040,-2342.490,-798.020
1022,38337.632000,336.062,-52.809,-1.992,329.486,414.434,-43.448,-23.040,-2493.490,-506.020
1023,38337.672000,285.652,-44.762,-1.992,314.003,418.642,-65.942,192.960,-2270.490,-220.020
1024,38337.692000,279.722,-37.721,15.938,302.157,402.175,-103.598,808.960,-1653.490,209.980
1025,38337.731000,247.104,-47.780,81.681,302.940,390.728,-139.154,1264.960,-838.490,540.980
1026,38337.772000,221.405,18.609,33.868,320.089,366.346,-152.408,900.960,257.510,972.980
1027,38337.849000,254.023,21.627,74.708,342.056,335.668,-145.197,485.960,998.510,1263.980
1028,38337.876000,264.896,95.057,1.992,376.793,318.402,-107.262,-643.040,1795.510,1294.980
1029,38337.892000,218.440,81.980,-125.510,396.150,312.506,-74.990,-883.040,2133.510,1288.980
1030,38337.950000,203.614,313.336,-407.409,410.546,296.575,-55.700,257.960,85.510,425.980
1031,38337.990000,159.135,238.900,70.724,413.371,287.930,-52.944,-211.040,317.510,409.980
1032,38338.126000,359.784,-83.992,-133.479,408.508,285.876,-55.942,1241.960,587.510,48.980
1033,38338.174000,262.919,103.104,-74.708,413.318,280.379,-43.305,-453.040,540.510,226.980
1034,38338.190000,255.012,89.022,-50.802,420.046,273.864,-33.629,474.960,553.510,141.980
1035,38338.197000,220.417,-13.580,-52.794,419.994,268.082,-31.796,-16.040,326.510,153.980
1036,38338.205000,237.220,37.721,-60.763,418.997,263.391,-24.057,-94.040,156.510,106.980
1037,38338.226000,248.093,54.821,-64.747,421.876,260.550,-22.152,245.960,143.510,119.980
1038,38338.242000,244.139,38.727,-77.696,423.856,265.401,-23.021,290.960,182.510,146.980
1039,38338.291000,249.081,29.674,-74.708,427.695,261.620,-20.155,75.960,191.510,148.980
1040,38338.335000,239.197,20.621,-54.786,426.701,257.835,-15.338,37.960,148.510,136.980
1041,38338.365000,250.069,18.609,-55.782,429.591,256.871,-16.334,22.960,91.510,108.980
1042,38338.401000,248.093,19.615,-61.759,432.498,256.058,-10.462,-127.040,86.510,85.980
1043,38338.432000,250.069,22.633,-56.778,430.464,245.403,-8.741,-104.040,79.510,76.980
1044,38338.449000,246.116,21.627,-61.759,429.508,246.386,-7.741,-117.040,63.510,60.980
1045,38338.490000,244.139,24.644,-61.759,433.453,253.306,-3.656,-135.040,51.510,52.980
1046,38338.534000,245.127,23.639,-63.751,433.431,250.458,-0.778,-145.040,49.510,46.980
