Sample, Time, ACCX, ACCY, ACCZ, MAGX, MAGY, MAGZ, GYRX, GYRY, GYRZ
0,38156.85000,242.189,59.077,-6.513,368.624,282.847,-79.644,326.800,81.290,29.420
1,38156.104000,240.216,64.126,-1.503,369.510,285.480,-78.563,254.800,44.290,23.420
2,38156.146000,243.175,68.166,-7.515,371.264,282.821,-80.630,177.800,33.290,12.420
3,38156.184000,241.202,66.146,-15.530,372.147,281.982,-79.661,154.800,48.290,17.420
4,38156.221000,236.270,70.185,-13.526,369.505,287.160,-80.495,-14.200,59.290,-13.580
5,38156.265000,247.121,55.037,-7.515,368.639,288.168,-75.500,-226.200,18.290,-35.580
6,38156.301000,250.081,48.978,-15.530,367.761,288.195,-74.509,-109.200,22.290,-22.580
7,38156.345000,257.973,31.811,-19.538,366.886,281.363,-70.761,-167.200,19.290,-19.580
8,38156.361000,254.027,48.978,-12.524,369.523,288.197,-74.503,139.800,76.290,18.420
9,38156.405000,244.162,61.097,-4.509,368.660,289.233,-68.514,114.800,47.290,26.420
10,38156.445000,240.216,66.146,-2.505,372.162,282.991,-74.664,76.800,17.290,25.420
11,38156.481000,246.135,55.037,-8.517,368.637,285.564,-75.584,-20.200,-8.710,19.420
12,38156.524000,246.135,58.067,-7.515,372.166,288.199,-74.495,-34.200,-7.710,10.420
13,38156.563000,244.162,63.116,-2.505,371.277,281.226,-75.717,-104.200,-32.710,3.420
14,38156.584000,245.148,50.998,-7.515,369.532,285.705,-70.612,-209.200,-77.710,-9.580
15,38156.621000,252.054,45.949,-17.534,371.298,287.471,-69.556,-20.200,-37.710,0.420
16,38156.661000,246.135,56.047,-8.517,368.646,282.204,-71.721,-16.200,-23.710,1.420
17,38156.701000,246.135,60.087,-5.511,368.646,286.516,-72.574,-95.200,-57.710,-0.580
18,38156.741000,246.135,54.028,-12.524,370.410,289.122,-72.484,-143.200,-66.710,-10.580
19,38156.781000,248.108,54.028,-12.524,366.894,288.336,-69.542,-149.200,-67.710,-11.580
20,38156.822000,249.094,50.998,-14.528,368.659,288.365,-68.542,-97.200,-51.710,-4.580
21,38156.842000,245.148,58.067,-6.513,367.782,290.129,-67.495,-91.200,-55.710,3.420
22,38156.882000,248.108,54.028,-8.517,365.131,290.042,-70.485,-115.200,-92.710,2.420
23,38156.922000,246.135,53.018,-17.534,365.135,287.494,-68.582,-118.200,-87.710,4.420
24,38156.966000,247.121,53.018,-12.524,366.019,291.835,-68.438,-70.200,-64.710,2.420
25,38157.6000,246.135,55.037,-10.521,366.897,288.364,-68.548,-80.200,-61.710,-12.580
26,38157.46000,245.148,54.028,-17.534,366.892,284.864,-69.655,-102.200,-74.710,-16.580
27,38157.66000,249.094,53.018,-18.536,367.782,297.016,-69.257,-95.200,-62.710,-22.580
28,38157.106000,254.027,43.929,-21.542,366.900,292.704,-68.407,21.800,-21.710,-13.580
29,38157.146000,246.135,57.057,-16.532,364.256,294.410,-69.353,95.800,0.290,-6.580
30,38157.186000,247.121,56.047,-13.526,364.243,292.561,-73.385,81.800,-11.710,-3.580
31,38157.230000,245.148,60.087,-16.532,361.596,283.039,-72.710,32.800,-13.710,-3.580
32,38157.265000,246.135,56.047,-18.536,364.244,285.673,-71.623,76.800,13.290,-0.580
33,38157.305000,245.148,58.067,-11.523,364.243,288.249,-72.532,8.800,-2.710,-6.580
34,38157.325000,248.108,56.047,-17.534,362.480,286.512,-72.594,-66.200,-18.710,-16.580
35,38157.361000,245.148,58.067,-14.528,362.472,288.163,-75.520,-33.200,-3.710,-13.580
36,38157.415000,245.148,57.057,-15.530,360.720,289.115,-72.516,-64.200,-11.710,-19.580
37,38157.445000,250.081,47.968,-15.530,360.719,288.247,-72.544,16.800,-11.710,-15.580
38,38157.482000,248.108,56.047,-18.536,363.355,290.768,-75.432,21.800,-20.710,-15.580
39,38157.525000,248.108,57.057,-18.536,364.241,289.957,-73.470,49.800,-12.710,-13.580
40,38157.542000,248.108,58.067,-15.530,363.366,294.324,-72.338,86.800,-0.710,-13.580
41,38157.585000,248.108,59.077,-14.528,363.358,290.796,-74.438,70.800,-1.710,-18.580
42,38157.622000,245.148,62.107,-15.530,361.594,288.191,-74.529,50.800,-5.710,-19.580
43,38157.667000,245.148,60.087,-21.542,359.834,294.237,-75.331,29.800,0.290,-12.580
44,38157.702000,245.148,60.087,-22.544,361.604,293.455,-72.372,1.800,7.290,-9.580
45,38157.742000,242.189,61.097,-20.540,358.072,289.924,-74.484,-66.200,6.290,-11.580
46,38157.782000,250.081,52.008,-18.536,359.827,288.133,-76.522,-16.200,14.290,-6.580
47,38157.802000,242.189,59.077,-15.530,361.598,296.843,-75.241,-13.200,11.290,-3.580
48,38157.847000,247.121,60.087,-16.532,360.729,297.823,-71.240,-46.200,0.290,-6.580
49,38157.885000,246.135,56.047,-17.534,360.723,296.898,-73.256,-54.200,2.290,-4.580
50,38157.925000,246.135,58.067,-15.530,362.487,296.060,-72.284,-3.200,9.290,1.420
51,38157.965000,245.148,59.077,-16.532,359.846,290.906,-70.474,-35.200,-0.710,0.420
52,38158.5000,247.121,61.097,-16.532,362.482,289.984,-72.482,-46.200,3.290,-0.580
53,38158.44000,245.148,58.067,-16.532,360.723,293.455,-72.375,-35.200,11.290,-0.580
54,38158.64000,245.148,60.087,-12.524,362.488,290.040,-70.494,-26.200,3.290,4.420
55,38158.104000,248.108,56.047,-16.532,360.734,292.699,-68.427,-36.200,1.290,3.420
56,38158.142000,248.108,58.067,-16.532,360.736,295.303,-68.343,-17.200,4.290,6.420
57,38158.182000,245.148,58.067,-15.530,360.733,296.143,-69.308,-16.200,-3.710,8.420
58,38158.235000,247.121,56.047,-16.532,359.854,294.435,-68.374,-13.200,1.290,7.420
59,38158.265000,246.135,58.067,-13.526,358.977,295.330,-67.354,5.800,5.290,9.420
60,38158.287000,247.121,58.067,-13.526,362.487,292.616,-71.403,-6.200,-11.710,10.420
61,38158.327000,247.121,58.067,-16.532,363.372,294.381,-70.350,-9.200,-6.710,9.420
62,38158.367000,244.162,57.057,-17.534,363.378,297.881,-69.244,6.800,1.290,9.420
63,38158.407000,245.148,59.077,-15.530,364.270,294.550,-64.384,-6.200,-10.710,8.420
64,38158.446000,245.148,58.067,-15.530,359.858,291.887,-66.470,-4.200,-15.710,6.420
65,38158.483000,246.135,56.047,-15.530,359.852,295.274,-69.339,-12.200,-18.710,6.420
66,38158.524000,246.135,56.047,-16.532,359.848,294.378,-70.362,-8.200,-16.710,5.420
67,38158.543000,246.135,57.057,-14.528,362.494,290.964,-68.478,-2.200,-15.710,6.420
68,38158.583000,247.121,53.018,-20.540,360.738,295.331,-67.349,-17.200,-4.710,1.420
69,38158.624000,245.148,57.057,-16.532,362.502,297.937,-67.259,3.800,9.290,0.420
70,38158.664000,245.148,57.057,-16.532,364.261,297.910,-68.247,-6.200,4.290,1.420
71,38158.709000,245.148,57.057,-15.530,361.618,297.040,-68.283,-14.200,1.290,-1.580
72,38158.746000,245.148,57.057,-16.532,361.616,298.748,-69.221,-7.200,6.290,-2.580
73,38158.764000,246.135,54.028,-15.530,362.494,290.964,-68.478,2.800,11.290,-1.580
74,38158.806000,246.135,59.077,-15.530,359.854,294.435,-68.374,-0.200,2.290,1.420
75,38158.850000,247.121,55.037,-15.530,360.743,297.964,-66.270,-8.200,5.290,-1.580
76,38158.884000,244.162,57.057,-15.530,364.264,294.494,-66.372,8.800,15.290,-2.580
77,38158.930000,243.175,58.067,-13.526,364.254,296.117,-70.291,8.800,8.290,-1.580
78,38158.963000,247.121,56.047,-13.526,360.744,295.388,-65.361,-11.200,-1.710,-7.580
79,38159.4000,248.108,56.047,-17.534,362.500,295.333,-67.343,19.800,9.290,-2.580
80,38159.24000,245.148,60.087,-12.524,362.503,298.805,-67.230,51.800,17.290,1.420
81,38159.63000,245.148,58.067,-13.526,361.620,292.756,-66.437,19.800,5.290,0.420
82,38159.108000,246.135,56.047,-14.528,361.611,295.247,-70.328,15.800,3.290,0.420
83,38159.148000,246.135,58.067,-13.526,362.494,290.964,-68.478,8.800,0.290,1.420
84,38159.189000,245.148,58.067,-14.528,362.492,291.804,-69.444,10.800,-0.710,2.420
85,38159.229000,246.135,59.077,-14.528,360.732,290.963,-68.484,-5.200,-5.710,1.420
86,38159.249000,246.135,58.067,-14.528,360.733,295.275,-69.337,1.800,-3.710,5.420
87,38159.289000,246.135,57.057,-14.528,360.742,292.784,-65.445,4.800,-2.710,4.420
88,38159.324000,245.148,58.067,-14.528,360.733,291.831,-68.455,-6.200,-10.710,6.420
89,38159.364000,247.121,57.057,-12.524,358.096,288.442,-65.595,-15.200,-19.710,5.420
90,38159.404000,248.108,55.037,-17.534,362.503,294.493,-66.377,-22.200,-12.710,7.420
91,38159.443000,247.121,57.057,-14.528,363.379,288.417,-66.572,3.800,-1.710,10.420
92,38159.464000,247.121,56.047,-15.530,362.496,293.568,-68.393,5.800,-7.710,10.420
93,38159.516000,248.108,57.057,-11.523,362.501,296.201,-67.315,-23.200,-17.710,8.420
94,38159.547000,247.121,57.057,-17.534,362.504,296.229,-66.321,6.800,-5.710,8.420
95,38159.592000,246.135,56.047,-13.526,364.262,295.334,-67.337,8.800,-12.710,10.420
96,38159.627000,246.135,59.077,-15.530,362.496,293.568,-68.393,0.800,-19.710,6.420
97,38159.667000,246.135,56.047,-16.532,360.735,290.991,-67.490,7.800,-5.710,5.420
98,38159.704000,244.162,55.037,-17.534,362.491,290.068,-69.500,15.800,-9.710,5.420
99,38159.730000,245.148,57.057,-13.526,362.497,295.304,-68.337,17.800,-26.710,7.420
100,38159.770000,246.135,55.037,-16.532,363.378,295.305,-68.334,-8.200,-42.710,4.420
101,38159.809000,243.175,58.067,-18.536,362.491,290.936,-69.472,35.800,-27.710,3.420
102,38159.849000,247.121,55.037,-16.532,363.377,293.569,-68.390,25.800,-46.710,-2.580
103,38159.889000,247.121,59.077,-16.532,363.364,295.164,-73.304,-18.200,-50.710,-15.580
104,38159.926000,244.162,57.057,-21.542,359.838,288.246,-72.547,20.800,-17.710,-10.580
105,38159.969000,245.148,55.037,-18.536,359.835,288.218,-73.540,15.800,-4.710,-14.580
106,38159.989000,244.162,59.077,-18.536,361.596,289.927,-74.472,-2.200,-18.710,-18.580
107,38160.29000,248.108,56.047,-20.540,360.719,291.690,-73.425,-33.200,-25.710,-22.580
108,38160.69000,246.135,57.057,-20.540,362.478,295.107,-75.294,23.800,-1.710,-18.580
109,38160.109000,247.121,56.047,-15.530,362.469,287.267,-76.542,26.800,-6.710,-9.580
110,38160.149000,252.054,55.037,-28.556,361.602,295.163,-73.309,36.800,27.290,-9.580
111,38160.187000,244.162,61.097,-24.548,361.602,295.163,-73.309,126.800,110.290,2.420
112,38160.205000,245.148,57.057,-17.534,360.732,298.719,-70.218,90.800,119.290,-0.580
113,38160.245000,244.162,57.057,-13.526,365.128,294.326,-72.332,52.800,104.290,-9.580
114,38160.285000,243.175,61.097,-6.513,363.371,292.645,-70.406,-35.200,45.290,-17.580
115,38160.326000,244.162,62.107,-6.513,363.376,296.145,-69.300,-100.200,-8.710,-21.580
116,38160.369000,246.135,57.057,-15.530,360.738,294.463,-67.377,-104.200,-35.710,-17.580
117,38160.414000,246.135,59.077,-14.528,359.850,292.670,-69.424,-67.200,-30.710,-14.580
118,38160.449000,243.175,60.087,-15.530,359.859,293.623,-66.414,-59.200,-30.710,-7.580
119,38160.469000,246.135,58.067,-14.528,360.745,297.124,-65.305,-39.200,-24.710,-2.580
120,38160.508000,246.135,59.077,-14.528,359.849,295.246,-70.333,0.800,-9.710,2.420
121,38160.547000,249.094,59.077,-14.528,363.378,290.993,-67.481,9.800,-9.710,8.420
122,38160.585000,245.148,58.067,-17.534,359.852,296.142,-69.311,7.800,-3.710,15.420
123,38160.625000,245.148,59.077,-12.524,361.617,296.172,-68.312,10.800,-4.710,16.420
124,38160.665000,247.121,58.067,-14.528,363.375,298.721,-70.209,-25.200,-18.710,11.420
125,38160.689000,246.135,59.077,-14.528,361.620,291.888,-66.465,-19.200,-16.710,11.420
126,38160.725000,247.121,58.067,-14.528,358.975,300.482,-69.173,-22.200,-15.710,4.420
127,38160.765000,246.135,58.067,-15.530,359.858,296.199,-67.323,-9.200,-11.710,-3.580
128,38160.807000,247.121,58.067,-16.532,358.975,293.594,-67.411,-22.200,-7.710,-17.580
129,38160.848000,246.135,62.107,-16.532,361.618,297.908,-68.255,1.800,10.290,-10.580
130,38160.889000,245.148,57.057,-13.526,359.850,296.114,-70.305,31.800,3.290,-6.580
131,38160.929000,246.135,61.097,-13.526,359.860,298.803,-67.239,-14.200,-16.710,-4.580
132,38160.949000,246.135,59.077,-19.538,358.977,299.642,-68.208,-2.200,-9.710,-2.580
133,38160.986000,244.162,59.077,-15.530,359.857,295.331,-67.352,1.800,-3.710,0.420
134,38161.25000,247.121,60.087,-13.526,359.857,295.331,-67.352,-7.200,-4.710,1.420
135,38161.65000,246.135,58.067,-15.530,358.970,293.538,-69.399,-1.200,-2.710,1.420
136,38161.111000,244.162,61.097,-15.530,358.090,291.829,-68.464,11.800,-4.710,6.420
137,38161.146000,247.121,58.067,-14.528,361.616,298.748,-69.221,3.800,-7.710,2.420
138,38161.166000,245.148,58.067,-13.526,362.500,295.333,-67.343,5.800,-7.710,4.420
139,38161.206000,245.148,61.097,-15.530,359.858,300.511,-68.177,-0.200,-17.710,7.420
140,38161.246000,246.135,57.057,-16.532,361.618,297.908,-68.255,-16.200,-22.710,4.420
141,38161.286000,246.135,59.077,-15.530,358.971,298.718,-70.224,-2.200,-22.710,7.420
142,38161.326000,246.135,59.077,-13.526,356.322,291.772,-70.457,-15.200,-37.710,10.420
143,38161.367000,246.135,59.077,-16.532,357.215,295.329,-67.360,-53.200,-51.710,7.420
144,38161.415000,247.121,57.057,-19.538,360.732,290.963,-68.484,-60.200,-55.710,9.420
145,38161.434000,245.148,58.067,-20.540,359.851,290.963,-68.486,-17.200,-37.710,12.420
146,38161.468000,247.121,54.028,-17.534,358.969,292.670,-69.427,-23.200,-27.710,10.420
147,38161.510000,247.121,60.087,-18.536,359.853,300.454,-70.164,-5.200,-25.710,11.420
148,38161.548000,245.148,57.057,-16.532,361.612,300.427,-71.153,-8.200,-37.710,14.420
149,38161.588000,247.121,57.057,-19.538,360.735,297.879,-69.252,-34.200,-45.710,12.420
150,38161.629000,247.121,57.057,-19.538,358.084,290.905,-70.480,1.800,-33.710,16.420
151,38161.669000,243.175,58.067,-15.530,358.956,290.821,-73.459,-0.200,-58.710,13.420
152,38161.688000,245.148,58.067,-18.536,360.728,296.087,-71.296,-24.200,-86.710,9.420
153,38161.734000,245.148,56.047,-22.544,361.594,295.078,-76.291,-18.200,-83.710,13.420
154,38161.769000,244.162,55.037,-20.540,361.594,295.947,-76.263,-5.200,-83.710,11.420
155,38161.809000,244.162,57.057,-19.538,357.180,294.991,-79.287,9.800,-99.710,4.420
156,38161.852000,247.121,53.018,-20.540,355.428,295.942,-76.283,16.800,-129.710,10.420
157,38161.886000,243.175,55.037,-22.544,354.523,290.536,-83.412,-15.200,-152.710,6.420
158,38161.906000,248.108,63.116,-21.542,355.407,290.565,-82.415,-11.200,-171.710,5.420
159,38161.951000,244.162,54.028,-21.542,354.514,293.896,-87.275,-113.200,-211.710,9.420
160,38161.986000,238.243,64.126,-19.538,354.515,294.763,-87.247,-197.200,-297.710,23.420
161,38162.26000,252.054,45.949,-23.546,350.974,291.148,-92.341,-161.200,-348.710,24.420
162,38162.85000,255.013,42.919,-46.591,348.322,297.081,-97.121,-103.200,-346.710,19.420
163,38162.112000,253.040,53.018,-39.577,345.669,290.947,-99.315,90.800,-318.710,2.420
164,38162.126000,292.501,26.761,-50.599,344.750,289.712,-112.267,229.800,-243.710,-34.580
165,38162.167000,254.027,28.781,-76.650,342.975,286.994,-116.333,207.800,-1.710,-102.580
166,38162.207000,226.405,-35.850,-164.822,344.737,294.751,-118.061,-56.200,-342.710,9.420
167,38162.250000,226.405,28.781,-331.147,344.672,282.904,-138.306,328.800,-663.710,190.420
168,38162.290000,236.270,53.018,-307.100,345.443,275.786,-175.275,3346.800,-1039.710,-26.580
169,38162.330000,232.324,29.791,-234.959,333.772,232.255,-242.262,3051.800,-1683.710,-26.580
170,38162.370000,211.607,6.564,-162.818,311.541,200.028,-307.924,2338.800,-2059.710,181.420
171,38162.390000,200.755,7.574,-128.751,286.715,156.211,-354.110,2070.800,-1695.710,346.420
172,38162.430000,164.254,59.077,-112.720,267.249,126.065,-376.996,1610.800,-1231.710,305.420
173,38162.474000,167.214,59.077,-65.628,254.841,96.877,-396.850,942.800,-533.710,184.420
174,38162.509000,170.173,71.195,-22.544,249.546,88.165,-398.143,73.800,26.290,179.420
175,38162.548000,155.376,86.343,-149.793,253.098,103.960,-391.661,-829.200,543.290,253.420
176,38162.590000,227.391,129.767,5.511,261.074,125.976,-379.998,-2131.200,686.290,231.420
177,38162.613000,255.013,122.698,-95.687,275.246,153.457,-359.201,-1182.200,708.290,524.420
178,38162.651000,281.649,-10.604,-61.620,282.345,168.613,-344.784,-1207.200,455.290,296.420
179,38162.691000,358.597,-0.505,-15.530,285.877,173.012,-342.644,132.800,239.290,-58.580
180,38162.730000,373.395,74.225,35.569,286.751,166.908,-343.833,555.800,-126.710,-107.580
181,38162.774000,375.368,70.185,29.558,277.889,149.147,-358.339,900.800,-660.710,-219.580
182,38162.808000,277.703,50.998,-158.810,265.499,137.376,-375.642,670.800,-990.710,57.420
183,38162.850000,-27.129,-135.826,-379.241,253.140,125.914,-382.011,816.800,-524.710,-170.580
184,38162.871000,-98.158,-173.191,-339.162,261.076,124.268,-379.060,69.800,204.290,42.420
185,38162.911000,127.753,-2.525,-177.847,269.034,138.359,-371.626,-1977.200,584.290,633.420
186,38162.951000,280.663,37.870,-100.697,281.444,161.527,-349.982,-1578.200,737.290,810.420
187,38162.991000,398.058,5.554,66.630,291.179,172.317,-336.692,-936.200,434.290,312.420
188,38163.31000,374.382,83.314,96.689,283.214,157.301,-346.142,791.800,-520.710,-238.580
189,38163.71000,413.842,128.757,-13.526,271.695,147.153,-367.361,1064.800,-1303.710,-567.580
190,38163.90000,383.260,60.087,-154.802,241.674,142.144,-390.458,601.800,-1933.710,-366.580
191,38163.131000,310.258,90.383,-145.785,213.423,132.908,-409.715,36.800,-1213.710,31.420
192,38163.171000,126.767,65.136,15.530,216.138,168.949,-392.649,-1742.200,-1.710,-262.580
193,38163.212000,85.333,13.633,-15.530,229.431,199.902,-371.742,-1949.200,1704.290,-222.580
194,38163.252000,64.617,7.574,-136.767,270.148,238.889,-312.753,-2242.200,2847.290,-11.580
195,38163.292000,181.025,-27.771,-237.965,310.057,270.852,-226.191,-2357.200,3591.290,151.420
196,38163.357000,318.150,34.840,-400.282,336.748,285.530,-137.253,-2579.200,3071.290,416.420
197,38163.367000,292.501,46.959,-397.276,349.200,293.610,-97.231,-904.200,1795.290,345.420
198,38163.389000,174.119,47.968,-416.313,350.114,295.656,-86.239,45.800,539.290,-75.580
199,38163.429000,271.784,127.748,67.632,344.803,296.267,-95.173,788.800,197.290,-97.580
200,38163.471000,292.501,-3.535,-11.523,344.813,298.088,-92.135,-559.200,-297.710,-90.580
201,38163.512000,229.364,36.860,-61.620,341.258,290.888,-101.317,95.800,-232.710,-62.580
202,38163.547000,216.540,49.988,-79.656,337.745,293.573,-98.262,-267.200,-161.710,-96.580
203,38163.567000,218.513,72.205,-48.595,335.987,299.648,-98.071,-81.200,-119.710,-110.580
204,38163.607000,260.933,36.860,-12.524,333.339,299.590,-100.067,-124.200,-176.710,-108.580
205,38163.649000,259.946,43.929,-64.626,328.933,297.851,-100.138,-59.200,-87.710,-171.580
206,38163.689000,212.593,109.570,-66.630,328.948,310.927,-97.727,19.800,49.290,-176.580
207,38163.731000,252.054,81.294,-75.648,327.197,310.170,-93.785,-167.200,254.290,-115.580
208,38163.768000,256.000,63.116,-33.566,330.754,313.087,-82.757,-92.200,388.290,-48.580
209,38163.812000,243.175,82.304,-5.511,327.256,314.206,-73.795,-90.200,276.290,-11.580
210,38163.832000,230.351,83.314,-29.558,332.564,310.123,-64.973,-246.200,179.290,48.420
211,38163.875000,232.324,75.235,-4.509,337.869,312.032,-58.936,-211.200,80.290,47.420
212,38163.910000,239.229,64.126,-1.503,341.399,306.071,-55.146,-297.200,-89.710,-0.580
213,38163.952000,242.189,27.771,-9.519,340.510,313.742,-59.865,-132.200,-278.710,-114.580
214,38163.989000,225.418,115.629,-42.583,337.851,311.863,-64.900,-44.200,-354.710,-86.580
215,38164.29000,255.013,56.047,-92.681,333.451,310.180,-62.982,-357.200,-100.710,29.420
216,38164.54000,240.216,50.998,-53.605,333.476,313.009,-54.947,-282.200,247.290,58.420
217,38164.95000,248.108,50.998,-3.507,333.483,311.358,-52.021,75.800,280.290,11.420
218,38164.128000,242.189,86.343,-6.513,330.846,312.280,-50.014,-61.200,96.290,9.420
219,38164.175000,248.108,50.998,-43.585,330.830,320.735,-57.683,-42.200,106.290,17.420
220,38164.208000,249.094,57.057,-30.560,329.947,321.574,-58.652,56.800,162.290,-9.580
221,38164.248000,225.418,129.767,-9.519,335.224,320.626,-61.645,398.800,227.290,0.420
222,38164.297000,242.189,71.195,1.503,342.270,318.895,-61.678,-204.200,-22.710,23.420
223,38164.313000,239.229,64.126,-3.507,341.393,312.903,-58.897,-246.200,-135.710,17.420
224,38164.353000,245.148,55.037,-28.556,342.269,309.403,-60.000,-127.200,-92.710,-4.580
225,38164.394000,234.297,95.432,-7.515,339.629,309.429,-59.015,-245.200,-45.710,-50.580
226,38164.433000,248.108,38.880,-13.526,340.507,309.402,-60.006,-19.200,-228.710,-79.580
227,38164.473000,239.229,71.195,-28.556,340.498,316.205,-64.750,23.800,-279.710,-111.580
228,38164.513000,243.175,76.245,18.536,334.309,320.287,-73.575,153.800,-420.710,-72.580
229,38164.531000,232.324,62.107,-52.603,329.882,321.794,-81.484,27.800,-441.710,-114.580
230,38164.572000,245.148,81.294,-44.587,329.857,322.409,-90.401,-55.200,-444.710,-80.580
231,38164.610000,240.216,69.176,-47.593,322.791,319.631,-96.472,144.800,-394.710,-32.580
232,38164.651000,251.067,54.028,-76.650,323.649,312.518,-102.658,264.800,-108.710,-93.580
233,38164.692000,239.229,62.107,-68.634,322.761,314.169,-105.586,333.800,14.290,-173.580
234,38164.732000,232.324,102.501,-63.624,321.875,318.424,-108.430,235.800,57.290,-122.580
235,38164.770000,233.310,85.333,-61.620,320.991,318.395,-109.426,71.800,32.290,-12.580
236,38164.791000,228.378,90.383,-50.599,318.351,318.421,-108.441,54.800,61.290,15.420
237,38164.832000,222.459,99.471,-42.583,317.465,315.789,-109.522,-89.200,31.290,23.420
238,38164.872000,239.229,75.235,-50.599,318.358,315.902,-105.544,-159.200,24.290,72.420
239,38164.913000,237.256,65.136,-66.630,321.901,315.234,-98.603,-127.200,55.290,74.420
240,38164.953000,243.175,72.205,-60.618,321.011,314.281,-101.616,-98.200,210.290,-1.580
241,38164.995000,240.216,101.491,-71.640,322.805,316.328,-90.621,-86.200,348.290,26.420
242,38165.8000,246.135,66.146,-52.603,330.768,320.983,-79.521,-230.200,550.290,139.420
243,38165.55000,247.121,44.939,-44.587,332.557,319.530,-69.633,60.800,695.290,93.420
244,38165.93000,225.418,111.590,-10.521,337.002,319.928,-55.704,-112.200,617.290,96.420
245,38165.133000,233.310,60.087,-5.511,337.910,321.918,-46.699,-43.200,604.290,119.420
246,38165.175000,235.283,67.156,17.534,341.449,319.486,-40.809,38.800,451.290,70.420
247,38165.215000,231.337,83.314,29.558,342.336,312.655,-37.056,-20.200,200.290,45.420
248,38165.250000,243.175,64.126,7.515,341.461,313.579,-35.043,-42.200,-21.710,67.420
249,38165.272000,241.202,63.116,1.503,339.695,319.569,-37.833,12.800,-81.710,68.420
250,38165.313000,233.310,81.294,7.515,337.063,318.812,-33.894,-39.200,-204.710,39.420
251,38165.353000,248.108,55.037,-3.507,332.662,319.704,-32.886,33.800,-242.710,51.420
252,38165.393000,234.297,71.195,21.542,328.240,311.777,-37.130,30.800,-358.710,9.420
253,38165.433000,244.162,67.156,-36.571,333.529,311.809,-36.119,-219.200,-539.710,-13.580
254,38165.475000,248.108,72.205,-43.585,331.752,311.667,-41.094,-181.200,-419.710,1.420
255,38165.495000,251.067,19.692,-48.595,335.261,309.792,-46.108,-175.200,-266.710,-11.580
256,38165.535000,253.040,68.166,-13.526,332.598,313.037,-53.956,581.800,-100.710,-96.580
257,38165.575000,242.189,94.422,-31.562,329.942,314.630,-58.877,558.800,-132.710,-16.580
258,38165.613000,255.013,72.205,16.532,333.424,315.078,-73.746,415.800,-301.710,35.420
259,38165.653000,276.717,59.077,21.542,328.086,312.831,-91.710,736.800,-713.710,30.420
260,38165.695000,383.260,66.146,12.524,324.460,297.171,-124.006,973.800,-851.710,159.420
261,38165.735000,267.838,121.688,-75.648,325.278,299.996,-146.750,617.800,-670.710,34.420
262,38165.755000,186.944,59.077,-220.932,321.722,298.816,-157.723,175.800,-661.710,-163.580
263,38165.792000,131.699,68.166,-177.847,318.139,290.466,-176.872,999.800,-437.710,-2.580
264,38165.833000,121.834,57.057,-121.738,314.565,283.937,-192.983,317.800,-428.710,5.420
265,38165.875000,104.077,15.653,-95.687,314.570,283.993,-190.995,-471.200,-410.710,159.420
266,38165.925000,21.210,-69.176,-6.513,318.995,291.081,-185.786,-531.200,221.290,377.420
267,38165.955000,389.179,38.880,-18.536,321.695,292.514,-165.871,-1358.200,-135.710,251.420
268,38165.975000,370.435,-47.968,-68.634,327.013,291.120,-153.984,-97.200,517.290,31.420
269,38166.15000,318.150,-47.968,-100.697,330.573,297.509,-142.842,553.800,948.290,-167.580
270,38166.55000,165.241,42.919,-167.828,336.759,293.399,-135.012,583.800,1257.290,-211.580
271,38166.95000,159.322,76.245,-346.176,343.840,296.318,-123.971,378.800,730.290,131.420
272,38166.135000,202.728,86.343,-348.180,349.037,279.069,-151.325,2701.800,-445.710,0.420
273,38166.175000,294.474,53.018,-311.108,340.888,252.759,-222.707,3078.800,-1800.710,-92.580
274,38166.215000,267.838,47.968,-209.910,308.911,218.254,-307.341,3134.800,-2677.710,-64.580
275,38166.242000,233.310,57.057,-159.812,275.263,160.514,-355.000,3250.800,-2483.710,47.420
276,38166.273000,176.092,22.722,-84.665,236.328,99.326,-401.795,2995.800,-1661.710,288.420
277,38166.314000,137.618,126.738,-17.534,211.566,42.353,-422.590,2001.800,-952.710,282.420
278,38166.353000,179.052,104.521,65.628,208.064,48.596,-416.440,24.800,130.290,256.420
279,38166.393000,232.324,188.339,-39.577,228.355,57.516,-408.142,-959.200,1668.290,675.420
280,38166.430000,433.572,179.250,-441.362,253.999,92.090,-382.113,-2560.200,1301.290,629.420
281,38166.457000,242.189,105.531,184.861,262.018,135.220,-359.835,-2803.200,605.290,619.420
282,38166.493000,276.717,-76.245,-84.665,273.504,142.454,-349.634,128.800,694.290,-4.580
283,38166.533000,276.717,-16.663,-36.571,277.023,132.068,-348.966,907.800,474.290,-73.580
284,38166.573000,265.865,3.535,-118.732,277.030,132.993,-346.950,-149.200,69.290,43.420
285,38166.613000,259.946,-1.515,-121.738,278.808,140.051,-342.744,-826.200,-20.710,103.420
286,38166.655000,242.189,-27.771,-123.742,284.111,143.667,-337.644,-212.200,138.290,88.420
287,38166.695000,211.607,40.899,-128.751,283.234,146.299,-336.569,-74.200,154.290,49.420
288,38166.713000,181.025,25.751,-119.734,281.491,155.958,-332.289,-396.200,-79.710,11.420
289,38166.753000,204.701,-25.751,-140.775,281.493,155.119,-331.323,-82.200,-100.710,37.420
290,38166.795000,204.701,-11.613,-123.742,278.842,155.032,-334.313,159.800,-80.710,33.420
291,38166.835000,235.283,-2.525,-73.644,273.532,153.067,-342.338,-49.200,-352.710,72.420
292,38166.875000,300.393,6.564,-32.564,270.870,146.848,-347.513,-102.200,-665.710,79.420
293,38166.915000,361.557,33.830,8.517,249.684,142.098,-361.637,156.800,-1295.710,-42.580
294,38166.936000,407.923,126.738,-62.622,225.813,133.480,-389.797,513.800,-1812.710,-137.580
295,38166.976000,414.829,114.619,-141.777,192.273,131.100,-411.828,123.800,-2051.710,-48.580
296,38167.16000,262.906,71.195,-159.812,173.746,128.229,-420.917,-164.200,-1256.710,7.420
297,38167.56000,152.416,78.264,-39.577,171.097,123.859,-422.060,-260.200,-50.710,-123.580
298,38167.96000,87.306,74.225,-49.597,192.277,143.196,-413.421,-665.200,932.290,-269.580
299,38167.135000,99.145,26.761,-66.630,232.048,183.271,-377.239,-1475.200,2148.290,-546.580
300,38167.175000,116.902,-29.791,-149.793,263.015,214.772,-337.391,-2281.200,2964.290,-549.580
301,38167.200000,167.214,-45.949,-198.888,304.700,265.832,-250.203,-2701.200,3446.290,-211.580
302,38167.236000,260.933,53.018,-337.159,333.177,290.229,-154.986,-2599.200,3192.290,390.420
303,38167.273000,218.513,161.073,-503.483,345.654,294.250,-105.166,-930.200,2169.290,469.420
304,38167.315000,305.326,-167.132,-263.014,335.973,298.639,-103.068,-511.200,-170.710,-325.580
305,38167.355000,371.422,115.629,-82.661,334.187,300.989,-111.935,-29.200,-408.710,-192.580
306,38167.395000,306.312,-22.722,-34.568,332.408,300.818,-117.904,319.800,-420.710,17.420
307,38167.412000,283.622,72.205,-14.528,327.953,294.288,-134.018,318.800,-558.710,-55.580
308,38167.456000,210.620,43.929,-136.767,322.633,297.390,-146.843,-18.200,-651.710,-90.580
309,38167.496000,186.944,91.393,-95.687,321.733,302.372,-154.628,-4.200,-823.710,-184.580
310,38167.537000,119.861,27.771,-29.558,315.546,305.614,-162.487,-238.200,-579.710,16.420
311,38167.571000,102.104,41.909,-112.720,311.138,296.959,-161.789,-382.200,-200.710,88.420
312,38167.611000,118.875,-12.623,-63.624,317.324,300.605,-155.693,-242.200,161.290,308.420
313,38167.651000,329.988,163.093,-258.004,318.252,299.348,-138.850,-1559.200,-233.710,96.420
314,38167.671000,356.624,80.284,-36.571,311.235,302.229,-128.849,-400.200,504.290,-667.580
315,38167.711000,315.191,134.817,-39.577,310.401,315.615,-115.508,197.800,707.290,-295.580
316,38167.755000,290.528,23.732,-52.603,310.463,323.122,-95.405,-187.200,564.290,-123.580
317,38167.795000,257.973,91.393,-32.564,311.348,317.999,-92.589,201.800,516.290,22.420
318,38167.832000,252.054,47.968,-68.634,319.283,325.817,-92.310,110.800,637.290,147.420
319,38167.877000,226.405,80.284,-38.575,324.575,323.301,-89.396,326.800,625.290,155.420
320,38167.897000,223.445,93.412,3.507,334.266,319.864,-88.483,258.800,514.290,150.420
321,38167.932000,231.337,89.373,-3.507,339.576,314.074,-78.724,-132.200,309.290,130.420
322,38167.975000,230.351,75.235,-14.528,340.452,304.555,-78.037,-285.200,102.290,122.420
323,38168.17000,245.148,25.751,2.505,341.349,302.988,-72.127,-375.200,-40.710,65.420
324,38168.57000,226.405,81.294,16.532,342.239,311.697,-70.849,-367.200,-257.710,-22.580
325,38168.95000,256.987,57.057,-18.536,339.603,313.488,-68.813,-506.200,-523.710,-40.580
326,38168.135000,221.472,108.560,-29.558,336.953,315.137,-71.747,-273.200,-464.710,-106.580
327,38168.152000,225.418,105.531,-57.613,332.553,317.766,-70.683,-566.200,-348.710,-91.580
328,38168.198000,268.825,34.840,-38.575,336.079,316.061,-69.734,-364.200,-287.710,73.420
329,38168.232000,245.148,39.890,-43.585,331.663,313.369,-72.815,-107.200,-282.710,-107.580
330,38168.276000,238.243,97.452,-49.597,334.304,321.967,-75.506,-89.200,-174.710,-93.580
331,38168.317000,245.148,59.077,-46.591,330.782,323.700,-75.461,-58.200,-141.710,-39.580
332,38168.357000,241.202,66.146,-54.607,329.885,317.511,-79.637,129.800,11.290,-40.580
333,38168.377000,240.216,80.284,-58.614,329.006,320.982,-79.527,159.800,186.290,-43.580
334,38168.417000,245.148,70.185,-64.626,331.651,323.588,-79.434,275.800,378.290,-19.580
335,38168.475000,245.148,77.254,-42.583,330.782,316.812,-73.699,232.800,333.290,-9.580
336,38168.492000,239.229,88.363,-41.581,329.025,315.999,-71.745,56.800,367.290,28.420
337,38168.533000,242.189,75.235,-34.568,330.804,316.170,-65.776,178.800,413.290,87.420
338,38168.572000,237.256,79.274,-16.532,336.086,314.409,-66.809,351.800,423.290,85.420
339,38168.616000,215.553,111.590,5.511,337.871,319.816,-59.677,-80.200,155.290,167.420
340,38168.636000,220.486,118.659,-9.519,340.537,320.043,-51.717,-759.200,-17.710,98.420
341,38168.676000,256.987,3.535,8.517,336.145,318.445,-46.818,-333.200,-35.710,151.420
342,38168.713000,231.337,95.432,17.534,332.631,319.395,-43.819,-451.200,-302.710,-6.580
343,38168.756000,242.189,62.107,-20.540,329.996,318.609,-40.874,84.800,-278.710,16.420
344,38168.797000,252.054,55.037,-31.562,332.641,310.016,-38.166,-91.200,-285.710,15.420
345,38168.833000,238.243,95.432,-32.564,336.166,311.754,-38.098,-80.200,-273.710,-17.580
346,38168.853000,242.189,78.264,-41.581,335.280,312.565,-40.060,-84.200,-213.710,9.420
347,38168.896000,245.148,68.166,-52.603,330.867,313.346,-43.028,-145.200,-132.710,31.420
348,38168.937000,251.067,55.037,-38.575,328.230,313.400,-41.049,45.800,-23.710,66.420
349,38168.977000,233.310,102.501,6.513,322.041,310.594,-48.111,362.800,-60.710,50.420
350,38169.17000,235.283,71.195,-40.579,328.205,317.458,-50.847,11.800,-180.710,82.420
351,38169.57000,243.175,33.830,-10.521,329.957,308.751,-52.117,-121.200,-272.710,42.420
352,38169.98000,242.189,41.909,-0.501,330.820,311.159,-58.987,131.800,-495.710,-35.580
353,38169.120000,235.283,82.304,-36.571,328.128,312.386,-76.830,108.800,-649.710,-80.580
354,38169.153000,243.175,52.008,-119.734,325.459,312.130,-85.784,177.800,-412.710,-45.580
355,38169.193000,286.582,59.077,-124.744,322.789,310.139,-94.794,535.800,81.290,-81.580
356,38169.233000,264.879,69.176,-108.712,325.435,313.613,-94.672,463.800,696.290,-198.580
357,38169.273000,244.162,26.761,-172.838,329.844,308.493,-91.845,386.800,622.290,4.420
358,38169.313000,176.092,101.491,-373.229,328.932,303.870,-101.928,608.800,-182.710,164.420
359,38169.336000,243.175,108.560,-484.446,320.816,291.674,-164.908,2926.800,-2193.710,-500.580
360,38169.376000,229.364,64.126,-302.090,301.246,276.865,-228.010,3565.800,-2980.710,-590.580
361,38169.415000,171.160,41.909,-129.753,265.717,230.008,-320.007,3057.800,-2965.710,-217.580
362,38169.456000,146.497,9.594,-51.601,222.349,187.491,-381.105,2628.800,-2051.710,51.420
363,38169.493000,140.578,20.702,-28.556,197.555,132.784,-413.742,2426.800,-1117.710,197.420
364,38169.533000,130.713,32.821,14.528,191.325,85.626,-425.222,1966.800,-79.710,203.420
365,38169.576000,188.917,22.722,-4.509,209.827,70.156,-420.700,845.800,1609.290,406.420
366,38169.596000,417.788,273.168,-503.483,246.017,74.330,-396.617,-995.200,1902.290,360.420
367,38169.636000,314.204,-109.570,169.832,253.173,128.827,-370.994,-3838.200,358.290,956.420
368,38169.676000,383.260,124.718,39.577,280.558,142.515,-347.623,-986.200,1226.290,616.420
369,38169.717000,267.838,-24.742,28.556,289.401,150.615,-337.402,61.800,748.290,119.420
370,38169.755000,224.432,65.136,-81.659,293.797,138.467,-337.782,485.800,21.290,-32.580
371,38169.798000,205.688,22.722,-168.830,292.909,140.117,-340.710,-500.200,-149.710,30.420
372,38169.817000,195.823,-44.939,-152.798,289.422,159.436,-332.151,-902.200,-69.710,112.420
373,38169.857000,185.958,-24.742,-132.759,290.293,154.172,-334.305,5.800,133.290,4.420
374,38169.897000,194.836,24.742,-109.714,292.939,149.891,-332.449,139.800,-8.710,-20.580
375,38169.937000,240.216,3.535,-59.616,287.637,150.586,-338.401,-20.200,-355.710,-12.580
376,38169.975000,287.568,-12.623,-32.564,275.264,151.051,-352.328,132.800,-898.710,-83.580
377,38170.21000,370.435,23.732,-21.542,254.084,142.913,-363.583,379.800,-1271.710,-134.580
378,38170.55000,411.869,124.718,-123.742,234.632,134.439,-386.759,787.800,-1543.710,-130.580
379,38170.75000,360.570,169.152,-129.753,206.372,120.807,-408.145,135.800,-1850.710,-43.580
380,38170.120000,239.229,66.146,-104.704,188.721,126.504,-420.925,-289.200,-1057.710,41.420
381,38170.153000,115.915,60.087,-61.620,190.519,144.959,-412.377,-798.200,-8.710,-251.580
382,38170.193000,114.929,15.653,-22.544,209.073,172.218,-399.517,-1553.200,1237.290,-499.580
383,38170.240000,124.794,-19.692,-101.699,246.224,209.073,-354.510,-1502.200,2485.290,-499.580
384,38170.273000,112.956,-47.968,-125.746,295.795,251.093,-280.499,-2051.200,3275.290,-334.580
385,38170.313000,212.593,6.564,-292.070,325.152,286.689,-187.895,-2807.200,3299.290,65.420
386,38170.340000,286.582,16.663,-415.311,334.967,286.200,-144.188,-1305.200,2546.290,564.420
387,38170.375000,178.066,188.339,-503.483,341.212,286.125,-116.367,-916.200,263.290,-299.580
388,38170.417000,296.447,21.712,57.613,332.368,289.224,-129.203,848.800,-542.710,-203.580
389,38170.461000,458.235,63.116,-68.634,323.522,288.852,-142.153,-277.200,-793.710,-196.580
390,38170.500000,348.732,77.254,26.552,325.250,292.827,-154.927,921.800,-184.710,-215.580
391,38170.540000,169.187,98.462,-137.769,317.282,293.295,-168.839,-60.200,-533.710,-312.580
392,38170.560000,139.592,71.195,-154.802,314.619,299.983,-177.568,-83.200,-508.710,-172.580
393,38170.600000,127.753,62.107,-108.712,310.204,301.603,-181.501,-139.200,-421.710,9.420
394,38170.635000,110.983,59.077,-77.652,308.447,299.922,-179.575,-400.200,-251.710,154.420
395,38170.681000,121.834,33.830,-124.744,306.702,300.958,-173.589,-623.200,-97.710,192.420
396,38170.715000,113.942,-21.712,-87.671,315.524,297.633,-168.704,-259.200,294.290,401.420
397,38170.755000,366.489,179.250,23.546,311.156,297.996,-155.797,-284.200,-15.710,176.420
398,38170.776000,313.218,-6.564,-94.685,306.804,312.304,-140.452,-685.200,260.290,-662.580
399,38170.817000,383.260,49.988,-30.560,303.310,315.187,-130.440,-686.200,459.290,-176.580
400,38170.857000,253.040,17.673,-109.714,301.599,321.712,-114.346,-406.200,490.290,-145.580
401,38170.901000,250.081,85.333,-71.640,308.689,318.696,-98.533,-357.200,667.290,20.420
402,38170.935000,251.067,65.136,-51.601,309.606,317.327,-85.666,-161.200,557.290,221.420
403,38170.975000,247.121,57.057,-53.605,320.186,317.419,-82.650,90.800,609.290,220.420
404,38171.32000,210.620,101.491,-10.521,322.828,316.553,-82.669,187.800,625.290,161.420
405,38171.38000,229.364,85.333,-20.540,332.521,315.720,-81.672,-99.200,367.290,170.420
406,38171.80000,230.351,78.264,-3.507,338.727,315.251,-67.766,-524.200,178.290,129.420
407,38171.120000,235.283,59.077,0.501,339.612,314.440,-65.803,-355.200,85.290,80.420
408,38171.160000,248.108,48.978,11.523,340.501,313.657,-62.847,-272.200,-142.710,17.420
409,38171.201000,231.337,59.077,-14.528,344.026,314.528,-62.807,29.800,-211.710,-86.580
410,38171.238000,243.175,71.195,-32.564,340.497,315.337,-64.778,-195.200,-312.710,-99.580
411,38171.260000,229.364,91.393,-36.571,334.317,312.616,-68.859,-121.200,-258.710,-105.580
412,38171.296000,245.148,83.314,-74.646,334.316,319.503,-70.621,-174.200,-247.710,-53.580
413,38171.335000,256.987,52.008,-26.552,334.312,317.739,-71.671,164.800,-9.710,-64.580
414,38171.380000,234.297,91.393,-37.573,333.419,320.202,-76.559,111.800,-175.710,-48.580
415,38171.415000,241.202,70.185,-55.609,329.893,321.039,-77.536,143.800,-56.710,-38.580
416,38171.455000,235.283,79.274,-50.599,333.406,318.353,-80.591,3.800,4.290,7.420
417,38171.501000,235.283,89.373,-32.564,330.771,321.011,-78.527,-157.200,-63.710,63.420
418,38171.521000,244.162,56.047,-53.605,332.536,314.153,-75.765,-277.200,-46.710,92.420
419,38171.561000,248.108,60.087,-60.618,332.556,314.350,-68.808,-27.200,194.290,-10.580
420,38171.605000,244.162,62.107,-51.601,335.214,322.249,-65.564,180.800,352.290,-34.580
421,38171.640000,243.175,74.225,-27.554,336.978,321.410,-64.593,206.800,359.290,-13.580
422,38171.676000,228.378,97.452,-7.515,338.741,319.704,-63.649,172.800,241.290,77.420
423,38171.716000,233.310,80.284,-8.517,336.105,317.182,-60.761,30.800,105.290,116.420
424,38171.736000,233.310,78.264,-19.538,339.632,318.081,-59.727,-113.200,17.290,123.420
425,38171.776000,235.283,69.176,9.519,340.518,313.826,-56.883,-148.200,-73.710,51.420
426,38171.818000,235.283,64.126,31.562,335.233,314.690,-56.872,-276.200,-330.710,14.420
427,38171.862000,239.229,61.097,-38.575,326.434,317.372,-53.835,-181.200,-476.710,-21.580
428,38171.896000,256.987,36.860,-40.579,325.551,314.768,-53.922,106.800,-359.710,-73.580
429,38171.936000,256.000,56.047,-69.636,328.180,318.073,-59.764,586.800,-79.710,-163.580
430,38171.977000,245.148,82.304,-64.626,329.026,316.867,-71.717,550.800,180.290,-174.580
431,38171.998000,253.040,76.245,-55.609,324.612,319.355,-75.622,382.800,138.290,-83.580
432,38172.38000,259.946,80.284,-22.544,323.710,317.422,-82.638,610.800,66.290,-5.580
433,38172.78000,310.258,58.067,63.624,325.434,308.433,-93.847,1114.800,-175.710,109.420
434,38172.121000,326.042,70.185,43.585,326.226,299.805,-122.922,750.800,-889.710,99.420
435,38172.161000,254.027,117.649,-179.851,318.243,301.840,-142.741,-170.200,-1230.710,78.420
436,38172.201000,182.012,229.744,-135.765,312.913,307.433,-159.457,-465.200,-1088.710,-147.580
437,38172.241000,59.684,3.535,-79.656,311.101,296.593,-174.710,784.800,-151.710,84.420
438,38172.261000,-31.075,9.594,-38.575,317.277,294.106,-170.799,371.800,424.290,329.420
439,38172.313000,185.958,311.542,-294.074,319.091,298.927,-153.756,-348.200,313.290,-130.580
440,38172.342000,477.965,-104.521,-3.507,313.817,299.903,-149.769,9.800,272.290,-325.580
441,38172.376000,349.719,-38.880,-69.636,312.048,298.110,-151.819,-266.200,-109.710,177.420
442,38172.416000,348.732,-43.929,-112.720,319.114,303.464,-146.658,573.800,462.290,-202.580
443,38172.456000,194.836,8.584,-223.937,322.644,304.391,-144.630,525.800,731.290,-190.580
444,38172.482000,171.160,85.333,-359.202,329.691,300.084,-143.754,893.800,645.290,3.420
445,38172.516000,221.472,60.087,-503.483,318.949,278.563,-199.102,3349.800,-1351.710,-386.580
446,38172.556000,278.690,14.643,-419.319,302.903,249.114,-258.695,3675.800,-2871.710,-61.580
447,38172.597000,214.566,18.682,-204.900,261.224,194.666,-343.014,2579.800,-3359.710,454.420
448,38172.637000,105.064,63.116,-79.656,212.585,145.397,-397.397,2040.800,-2572.710,442.420
449,38172.677000,133.672,47.968,22.544,186.049,98.642,-424.817,1923.800,-1362.710,527.420
450,38172.717000,119.861,140.876,88.673,183.383,76.016,-427.545,995.800,410.290,450.420
451,38172.743000,212.593,128.757,22.544,208.074,70.239,-417.724,-333.200,1845.290,391.420
452,38172.783000,379.314,170.162,-11.523,254.875,89.459,-383.189,-1180.200,2790.290,130.420
453,38172.818000,321.110,155.014,376.235,255.797,118.301,-375.299,-1630.200,741.290,348.420
454,38172.861000,370.435,19.692,-62.622,281.417,131.959,-352.928,-65.200,1095.290,496.420
455,38172.896000,278.690,-73.215,-22.544,285.849,127.932,-342.121,-186.200,779.290,47.420
456,38172.942000,256.987,-41.909,-126.748,296.404,112.259,-344.582,734.800,417.290,-34.580
457,38172.962000,247.121,-12.623,-131.757,299.063,111.562,-338.638,-152.200,287.290,109.420
458,38172.997000,229.364,-19.692,-86.669,303.493,115.263,-330.560,-506.200,215.290,176.420
459,38173.40000,223.445,12.623,-76.650,305.264,120.529,-328.397,-24.200,37.290,149.420
460,38173.80000,236.270,36.860,-66.630,301.729,116.102,-331.531,113.800,-216.710,93.420
461,38173.120000,280.663,63.116,-17.534,292.007,114.917,-342.524,32.800,-619.710,31.420
462,38173.157000,318.150,80.284,21.542,271.694,110.951,-359.598,265.800,-1412.710,-89.580
463,38173.203000,400.031,137.846,-64.626,255.757,94.639,-384.011,570.800,-1954.710,-177.580
464,38173.217000,392.139,116.639,-135.765,216.920,93.011,-410.006,-119.200,-2354.710,-170.580
465,38173.257000,277.703,96.442,-29.558,189.571,96.908,-424.862,23.800,-1214.710,-90.580
466,38173.297000,131.699,36.860,-53.605,192.244,125.639,-420.942,-1383.200,-185.710,-427.580
467,38173.343000,127.753,3.535,-24.548,212.607,170.597,-395.586,-1679.200,1399.290,-598.580
468,38173.382000,115.915,-18.682,-71.640,240.910,204.475,-363.613,-1949.200,2514.290,-465.580
469,38173.422000,126.767,-93.412,-185.863,284.339,253.632,-282.440,-3176.200,3125.290,-181.580
470,38173.442000,198.782,36.860,-345.174,319.841,282.988,-195.976,-2424.200,3069.290,222.420
471,38173.482000,211.607,50.998,-437.354,331.453,288.886,-141.133,-1363.200,1960.290,446.420
472,38173.522000,208.647,10.604,-300.086,331.488,296.979,-130.940,-1144.200,387.290,32.420
473,38173.562000,169.187,146.935,-288.063,325.352,304.172,-121.790,-577.200,-320.710,-435.580
474,38173.601000,205.688,111.590,-164.822,320.937,302.349,-124.842,551.800,252.290,-46.580
475,38173.642000,396.085,2.525,10.521,325.383,301.038,-109.975,-598.200,292.290,175.420
476,38173.683000,235.283,30.801,-64.626,328.926,296.926,-102.154,-109.200,408.290,-116.580
477,38173.697000,241.202,105.531,-40.579,328.965,306.784,-90.911,-242.200,214.290,-56.580
478,38173.737000,227.391,117.649,-44.587,326.346,308.744,-82.912,-257.200,152.290,72.420
479,38173.777000,256.000,45.949,-26.552,330.755,302.755,-80.113,-285.200,113.290,103.420
480,38173.818000,228.378,58.067,4.509,326.360,312.328,-78.823,-316.200,-1.710,3.420
481,38173.863000,228.378,64.126,11.523,325.478,311.460,-78.854,-382.200,-272.710,-30.580
482,38173.903000,251.067,23.732,-25.550,325.474,309.695,-79.905,-269.200,-599.710,-79.580
483,38173.920000,253.040,36.860,-59.616,321.917,314.535,-92.668,137.800,-506.710,-187.580
484,38173.961000,242.189,101.491,-128.751,318.393,314.532,-92.679,-33.200,-147.710,-93.580
485,38174.2000,256.000,48.978,-89.675,315.755,308.539,-89.903,-195.200,308.290,-13.580
486,38174.41000,243.175,69.176,-37.573,315.776,311.340,-82.861,70.800,455.290,-16.580
487,38174.78000,254.027,26.761,-46.591,321.944,313.080,-82.785,553.800,600.290,32.420
488,38174.118000,232.324,79.274,-20.540,324.575,311.234,-86.808,506.800,418.290,-46.580
489,38174.158000,231.337,69.176,-2.505,328.969,311.992,-90.742,-123.200,131.290,-84.580
490,38174.178000,237.256,76.245,-8.517,332.498,318.939,-90.505,2.800,-94.710,-87.580
491,38174.218000,234.297,71.195,-8.517,335.134,318.016,-92.512,52.800,-206.710,-50.580
492,38174.258000,225.418,78.264,-42.583,330.723,317.089,-94.543,372.800,-206.710,-173.580
493,38174.298000,223.445,76.245,-50.599,323.656,316.887,-101.523,30.800,-257.710,-182.580
494,38174.342000,238.243,97.452,-3.507,321.870,315.792,-109.508,-42.200,-551.710,-171.580
495,38174.383000,226.405,102.501,-116.728,318.337,318.281,-113.411,-154.200,-327.710,-24.580
496,38174.403000,253.040,69.176,-69.636,320.109,320.970,-110.339,-10.200,47.290,44.420
497,38174.443000,238.243,56.047,-63.624,319.230,322.706,-110.285,63.800,141.290,19.420
498,38174.483000,242.189,85.333,-57.613,319.231,320.130,-109.376,407.800,295.290,-50.580
499,38174.523000,231.337,98.462,-79.656,318.343,311.449,-109.660,253.800,366.290,105.420
500,38174.563000,242.189,64.126,-46.591,326.289,315.068,-104.552,186.800,420.290,168.420
501,38174.603000,244.162,72.205,-52.603,328.945,310.899,-98.721,317.800,570.290,89.420
502,38174.643000,237.256,64.126,-35.569,331.599,314.457,-95.618,494.800,686.290,108.420
503,38174.663000,230.351,106.540,-20.540,338.660,312.867,-90.682,398.800,668.290,141.420
504,38174.698000,236.270,73.215,-5.511,345.723,307.862,-83.871,318.800,618.290,144.420
505,38174.738000,233.310,88.363,33.566,345.731,306.210,-80.946,398.800,558.290,126.420
506,38174.778000,216.540,97.452,14.528,346.627,308.088,-75.917,47.800,397.290,94.420
507,38174.821000,233.310,55.037,56.611,346.648,309.153,-68.931,-17.200,34.290,104.420
508,38174.861000,219.499,89.373,119.734,343.122,306.546,-69.027,-162.200,-500.710,14.420
509,38174.878000,211.607,108.560,70.638,338.702,305.534,-74.039,-752.200,-983.710,-108.580
510,38174.922000,240.216,28.781,-30.560,328.118,307.122,-78.987,-680.200,-1027.710,-141.580
511,38174.962000,247.121,58.067,-67.632,327.230,308.772,-81.915,-264.200,-815.710,-151.580
512,38175.2000,253.040,91.393,-61.620,318.393,314.532,-92.679,-236.200,-595.710,-196.580
513,38175.42000,314.204,-1.515,-90.677,315.727,316.881,-101.548,259.800,-364.710,53.420
514,38175.80000,331.961,32.821,-41.581,319.212,313.913,-114.542,524.800,-247.710,147.420
515,38175.120000,334.921,58.067,27.554,321.809,304.841,-128.730,1089.800,-328.710,213.420
516,38175.140000,222.459,156.024,-82.661,322.634,299.126,-146.787,40.800,-433.710,128.420
517,38175.178000,100.131,218.635,-66.630,323.520,298.315,-144.824,-509.200,-384.710,154.420
518,38175.218000,91.252,-29.791,-27.554,329.700,293.281,-139.010,-75.200,364.290,199.420
519,38175.258000,82.374,35.850,-74.646,338.533,294.381,-131.002,299.800,1241.290,349.420
520,38175.302000,136.632,138.856,-446.372,345.637,290.637,-110.248,-1601.200,332.290,-115.580
521,38175.342000,424.694,64.126,18.536,343.006,290.748,-106.281,1235.800,599.290,-215.580
522,38175.362000,315.191,-40.899,-51.601,346.523,293.270,-109.167,915.800,424.290,-138.580
523,38175.403000,201.742,-0.505,-355.194,347.382,293.913,-117.087,348.800,54.290,-65.580
524,38175.443000,187.931,70.185,-321.127,338.499,282.843,-140.314,1898.800,-1284.710,-275.580
525,38175.478000,204.701,38.880,-305.096,325.111,264.736,-197.545,2857.800,-1889.710,-147.580
526,38175.525000,197.796,6.564,-274.035,310.803,236.770,-266.021,2458.800,-2505.710,131.420
527,38175.560000,158.335,0.505,-203.898,282.405,192.471,-329.115,1987.800,-2543.710,500.420
528,38175.600000,152.416,16.663,-97.691,258.503,168.900,-364.711,1799.800,-2092.710,498.420
529,38175.620000,139.592,50.998,-85.667,231.061,124.494,-400.995,1581.800,-1366.710,385.420
530,38175.660000,173.133,9.594,-15.530,217.774,91.022,-419.004,1227.800,-198.710,454.420
531,38175.706000,215.553,89.373,41.581,236.303,80.118,-406.390,287.800,1183.290,629.420
532,38175.740000,345.773,164.103,-184.861,256.609,82.291,-391.359,-966.200,1847.290,963.420
533,38175.780000,425.680,-10.604,34.568,269.941,135.169,-361.797,-3176.200,1189.290,736.420
534,38175.820000,336.894,10.604,32.564,290.273,145.352,-339.556,-84.200,1154.290,157.420
535,38175.860000,288.555,25.751,52.603,301.727,128.141,-335.113,1228.800,673.290,34.420
536,38175.880000,237.256,25.751,-82.661,304.373,129.039,-334.082,137.800,51.290,-0.580
537,38175.920000,211.607,-21.712,-124.744,297.327,131.638,-334.020,-623.200,-53.710,69.420
538,38175.960000,188.917,-13.633,-144.783,300.868,136.121,-328.898,-313.200,34.290,83.420
539,38176.0,196.809,42.919,-133.761,299.106,135.252,-328.932,168.800,78.290,-13.580
540,38176.45000,223.445,-17.673,-119.734,303.499,134.274,-332.922,-129.200,-38.710,-5.580
541,38176.83000,243.175,-50.998,-82.661,304.388,137.803,-330.819,4.800,-133.710,68.420
542,38176.105000,284.609,-2.525,-18.536,300.843,139.311,-338.725,134.800,-367.710,39.420
543,38176.156000,311.245,62.107,22.544,289.347,130.257,-351.965,423.800,-776.710,-68.580
544,38176.181000,372.408,101.491,-26.552,269.012,120.046,-375.200,903.800,-1568.710,-293.580
545,38176.223000,374.382,142.895,-149.793,244.283,103.897,-393.677,959.800,-1949.710,-170.580
546,38176.263000,341.827,40.899,-155.804,217.780,91.078,-417.017,301.800,-1733.710,-61.580
547,38176.301000,197.796,102.501,-37.573,204.564,103.976,-420.612,-1249.200,-579.710,-229.580
548,38176.341000,123.807,39.890,-56.611,213.441,146.012,-406.311,-1884.200,408.290,-410.580
549,38176.361000,113.942,-1.515,-70.638,241.776,192.268,-365.993,-2087.200,1503.290,-442.580
550,38176.400000,102.104,-70.185,-155.804,267.475,232.557,-321.904,-2733.200,2625.290,-88.580
551,38176.440000,126.767,-70.185,-212.916,302.087,268.716,-240.188,-2496.200,3074.290,217.420
552,38176.480000,211.607,54.028,-347.178,328.763,293.585,-158.863,-3091.200,2519.290,553.420
553,38176.521000,168.200,63.116,-385.252,339.444,288.643,-119.270,-1173.200,1110.290,566.420
554,38176.561000,296.447,63.116,-354.192,336.836,301.047,-109.938,-1414.200,-792.710,-527.580
555,38176.580000,447.383,90.383,-86.669,323.577,298.879,-124.946,1065.800,-115.710,-323.580
556,38176.621000,299.407,-38.880,-83.663,320.024,296.858,-134.953,-31.200,-657.710,51.420
557,38176.661000,89.279,79.274,-216.924,314.747,305.563,-133.695,-399.200,-210.710,-136.580
558,38176.701000,207.661,161.073,-105.706,318.294,302.347,-124.851,-0.200,568.290,-153.580
559,38176.745000,307.299,42.919,19.538,324.526,302.999,-101.971,-239.200,538.290,270.420
560,38176.783000,250.081,63.116,-55.609,325.440,301.602,-90.097,-358.200,136.290,84.420
561,38176.823000,234.297,64.126,-76.650,326.343,312.159,-84.787,-298.200,40.290,96.420
562,38176.846000,249.094,65.136,-13.526,328.095,306.896,-86.938,-115.200,-130.710,47.420
563,38176.886000,231.337,49.988,-12.524,325.435,306.725,-92.910,-74.200,-324.710,-11.580
564,38176.926000,257.973,62.107,-65.628,321.871,302.017,-105.983,-7.200,-451.710,-140.580
565,38176.961000,226.405,99.471,-115.726,320.108,307.167,-107.808,-64.200,-177.710,-79.580
566,38177.1000,239.229,43.929,-108.712,320.124,306.468,-101.872,-90.200,262.290,-39.580
567,38177.46000,233.310,78.264,-93.683,326.322,314.538,-92.654,-377.200,480.290,43.420
568,38177.66000,227.391,91.393,-41.581,327.229,314.792,-83.705,-149.200,510.290,179.420
569,38177.106000,256.000,2.525,-56.611,334.295,313.258,-76.782,-38.200,487.290,175.420
570,38177.146000,236.270,44.939,-1.503,338.693,315.781,-79.665,495.800,489.290,-8.580
571,38177.183000,223.445,71.195,22.544,338.689,310.573,-79.834,-109.200,72.290,-145.580
572,38177.226000,216.540,81.294,-5.511,338.675,306.120,-83.950,-158.200,-306.710,-124.580
573,38177.261000,231.337,85.333,-23.546,338.675,306.988,-83.922,-243.200,-493.710,-49.580
574,38177.306000,234.297,68.166,-56.611,336.010,311.073,-92.735,-199.200,-488.710,-47.580
575,38177.323000,251.067,64.126,-18.536,332.486,317.958,-94.509,-237.200,-537.710,-70.580
576,38177.365000,227.391,92.402,-123.742,326.296,316.860,-102.508,-241.200,-452.710,-31.580
577,38177.402000,232.324,47.968,-98.693,324.536,316.887,-101.520,-169.200,-112.710,-22.580
578,38177.448000,244.162,79.274,-79.656,325.417,316.888,-101.517,248.800,171.290,-89.580
579,38177.483000,223.445,73.215,-69.636,328.956,313.587,-95.655,224.800,397.290,-85.580
580,38177.528000,246.135,67.156,-62.622,327.193,319.606,-97.451,158.800,224.290,-79.580
581,38177.541000,235.283,71.195,-49.597,328.079,319.663,-95.461,197.800,205.290,-5.580
582,38177.585000,241.202,78.264,-36.571,330.727,318.853,-93.492,166.800,225.290,9.420
583,38177.627000,236.270,67.156,-73.644,329.851,318.041,-91.536,127.800,249.290,38.420
584,38177.668000,237.256,81.294,-31.562,327.211,313.755,-89.697,111.800,307.290,44.420
585,38177.706000,222.459,113.609,-37.573,332.514,314.796,-83.688,-144.200,283.290,66.420
586,38177.741000,244.162,90.383,-47.593,335.180,311.579,-74.847,-514.200,214.290,97.420
587,38177.781000,256.000,23.732,-51.601,336.098,311.946,-61.924,-404.200,271.290,202.420
588,38177.801000,256.000,40.899,-25.550,337.878,313.852,-55.898,120.800,472.290,94.420
589,38177.841000,241.202,60.087,-23.546,344.058,320.017,-52.699,290.800,662.290,63.420
590,38177.886000,233.310,50.998,22.544,339.660,320.939,-50.698,806.800,411.290,-23.580
591,38177.926000,222.459,60.087,99.695,335.231,318.974,-58.719,631.800,-205.710,-63.580
592,38177.966000,223.445,99.471,-2.505,327.281,321.347,-66.612,262.800,-609.710,-200.580
593,38178.6000,239.229,70.185,-45.589,321.987,317.815,-68.729,128.800,-708.710,-160.580
594,38178.21000,253.040,63.116,-72.642,321.064,313.948,-82.760,-70.200,-721.710,-45.580
595,38178.61000,255.013,80.284,-96.689,318.400,316.324,-90.635,28.800,-540.710,-69.580
596,38178.106000,274.744,57.057,-122.740,315.732,316.069,-99.589,78.800,-124.710,14.420
597,38178.147000,329.988,-22.722,-111.718,318.382,314.419,-96.655,558.800,382.290,62.420
598,38178.187000,289.541,4.544,-115.726,324.531,313.387,-102.627,687.800,289.290,86.420
599,38178.227000,182.998,155.014,-320.125,326.224,307.532,-125.650,1382.800,-501.710,103.420
600,38178.267000,190.890,147.945,-478.434,311.044,291.718,-193.735,2962.800,-2008.710,-499.580
601,38178.282000,174.119,65.136,-284.055,292.358,269.183,-254.106,3028.800,-3117.710,-299.580
602,38178.326000,103.091,64.126,-112.720,256.859,226.079,-336.050,2321.800,-2969.710,39.420
603,38178.366000,80.401,32.821,-79.656,213.522,186.447,-387.125,1763.800,-2305.710,183.420
604,38178.407000,109.010,15.653,17.534,192.270,141.404,-415.465,1756.800,-734.710,448.420
605,38178.446000,119.861,108.560,-23.546,198.390,120.266,-427.054,1010.800,342.290,482.420
606,38178.487000,229.364,132.797,-63.624,208.111,128.339,-417.824,-893.200,1133.290,356.420
607,38178.507000,444.424,31.811,-72.642,224.028,154.785,-403.013,-687.200,1044.290,-38.580
608,38178.547000,413.842,-119.669,-101.699,246.090,149.147,-388.231,914.800,1503.290,-197.580
609,38178.587000,264.879,-33.830,-189.871,264.627,138.327,-372.635,744.800,1544.290,-599.580
610,38178.627000,132.686,96.442,-269.025,276.945,109.749,-371.537,2222.800,793.290,40.420
611,38178.667000,154.389,44.939,-125.746,272.525,86.338,-371.317,1670.800,-36.710,-107.580
612,38178.721000,128.740,78.264,4.509,259.275,72.187,-380.756,1077.800,-502.710,239.420
613,38178.761000,83.360,-59.077,-5.511,255.780,91.421,-375.178,-1593.200,209.290,559.420
614,38178.768000,211.607,207.527,-94.685,265.504,99.522,-364.954,-1337.200,861.290,424.420
615,38178.802000,294.474,-54.028,-119.734,270.835,125.819,-355.147,-1541.200,430.290,65.420
616,38178.852000,334.921,-63.116,-68.634,276.155,138.228,-345.790,-706.200,387.290,40.420
617,38178.887000,295.461,57.057,-10.521,281.460,136.693,-338.872,-108.200,375.290,128.420
618,38178.927000,264.879,60.087,-4.509,283.233,136.807,-334.891,-24.200,121.290,151.420
619,38178.967000,248.108,64.126,-14.528,284.985,134.988,-337.923,265.800,-394.710,114.420
620,38178.987000,262.906,49.988,-35.569,277.881,124.088,-355.180,604.800,-804.710,20.420
621,38179.27000,312.231,39.890,-31.562,261.071,102.681,-375.789,1050.800,-1237.710,-75.580
622,38179.67000,341.827,149.964,-93.683,238.971,76.061,-396.583,1181.800,-1519.710,127.420
623,38179.106000,302.366,122.698,-170.834,216.888,60.810,-414.030,358.800,-1861.710,254.420
624,38179.147000,241.202,43.929,-206.904,192.174,62.049,-430.949,-592.200,-1415.710,429.420
625,38179.187000,143.538,114.619,-43.585,184.266,93.263,-430.955,-2051.200,-473.710,56.420
626,38179.227000,109.996,16.663,-75.648,198.468,157.229,-407.981,-3095.200,363.290,-127.580
627,38179.247000,131.699,-104.521,-162.818,222.357,197.907,-380.767,-2316.200,1709.290,4.420
628,38179.288000,144.524,-35.850,-270.027,262.149,223.535,-334.130,-764.200,2189.290,128.420
629,38179.325000,167.214,-0.505,-269.025,295.791,250.197,-281.521,-1202.200,2083.290,-32.580
630,38179.362000,201.742,-49.988,-325.135,310.892,265.222,-241.266,-1404.200,1490.290,57.420
631,38179.403000,180.039,-12.623,-288.063,318.006,264.167,-217.446,-527.200,1008.290,162.420
632,38179.443000,149.457,7.574,-250.990,314.511,268.758,-208.371,-653.200,470.290,4.420
633,38179.463000,108.023,3.535,-154.802,318.081,276.967,-194.191,-701.200,271.290,66.420
634,38179.503000,26.143,40.899,-91.679,326.938,276.585,-177.294,-536.200,336.290,353.420
635,38179.550000,4.439,131.787,-422.325,329.658,285.971,-152.156,-955.200,943.290,224.420
636,38179.586000,410.882,231.763,106.708,325.294,298.429,-140.843,296.800,567.290,-518.580
637,38179.631000,359.584,36.860,8.517,323.510,299.071,-148.772,615.800,-204.710,116.420
638,38179.666000,302.366,22.722,-75.648,318.171,289.068,-165.002,363.800,-562.710,-43.580
639,38179.706000,177.079,112.600,-121.738,309.322,292.111,-179.826,595.800,-384.710,-218.580
640,38179.726000,154.389,94.422,-138.771,310.200,296.395,-181.670,-145.200,-360.710,-142.580
641,38179.766000,107.037,98.462,-32.564,311.984,294.886,-173.769,-1032.200,296.290,78.420
642,38179.808000,167.214,12.623,-150.795,312.039,304.913,-156.563,-252.200,11.290,-73.580
643,38179.843000,169.187,125.728,-130.755,310.318,310.486,-143.479,-734.200,219.290,-226.580
644,38179.883000,384.247,61.097,11.523,313.900,317.100,-124.386,-555.200,694.290,-26.580
645,38179.928000,382.274,-24.742,-15.530,309.521,320.794,-116.336,-225.200,412.290,50.420
646,38179.948000,222.459,68.166,-95.687,308.655,326.114,-112.194,-282.200,239.290,-76.580
647,38180.2000,259.946,144.915,27.554,319.224,319.206,-111.392,-209.200,254.290,216.420
648,38180.23000,231.337,37.870,-44.587,323.639,313.274,-106.605,-417.200,-4.710,249.420
649,38180.66000,231.337,54.028,-76.650,326.287,316.776,-105.490,-436.200,-107.710,148.420
650,38180.106000,250.081,61.097,-44.587,330.704,314.316,-100.591,-192.200,-63.710,54.420
651,38180.146000,239.229,71.195,-43.585,330.703,316.024,-101.528,-128.200,-87.710,30.420
652,38180.190000,228.378,78.264,-75.648,332.473,316.109,-98.541,-9.200,-63.710,3.420
653,38180.203000,242.189,83.314,-63.624,337.760,314.405,-97.586,-145.200,50.290,57.420
654,38180.247000,253.040,48.978,-90.677,332.495,319.779,-91.471,-135.200,299.290,73.420
655,38180.283000,239.229,80.284,-75.648,337.801,319.980,-84.496,-281.200,454.290,65.420
656,38180.325000,225.418,74.225,-25.550,342.249,313.518,-67.811,-372.200,450.290,157.420
657,38180.365000,236.270,49.988,-13.526,346.677,318.058,-60.698,-271.200,285.290,109.420
658,38180.405000,249.094,25.751,2.505,346.685,317.275,-57.745,42.800,144.290,-39.580
659,38180.425000,225.418,90.383,8.517,346.673,317.162,-61.720,91.800,-264.710,-68.580
660,38180.467000,240.216,44.939,-68.634,345.783,315.341,-64.761,-189.200,-465.710,-13.580
661,38180.507000,240.216,71.195,-71.640,341.367,311.781,-67.870,-341.200,-326.710,-7.580
662,38180.547000,245.148,64.126,-46.591,337.840,311.750,-68.875,49.800,-121.710,-8.580
663,38180.593000,252.054,36.860,-52.603,339.599,315.167,-70.745,41.800,-99.710,-107.580
664,38180.628000,241.202,87.353,-80.658,337.822,313.289,-75.776,149.800,100.290,-100.580
665,38180.667000,257.973,37.870,-68.634,338.718,315.167,-70.748,189.800,330.290,-53.580
666,38180.685000,256.000,49.988,-65.628,337.837,318.610,-71.632,522.800,689.290,-108.580
667,38180.725000,237.256,110.580,-28.556,338.729,322.167,-68.534,590.800,649.290,-90.580
668,38180.771000,227.391,93.412,-6.513,344.032,322.340,-62.554,36.800,335.290,85.420
669,38180.806000,240.216,77.254,-30.560,344.044,319.877,-57.669,-27.200,166.290,146.420
670,38180.845000,237.256,62.107,-13.526,345.798,313.774,-58.854,-72.200,157.290,119.420
671,38180.885000,231.337,73.215,15.530,343.170,314.781,-53.865,-17.200,13.290,69.420
672,38180.905000,229.364,59.077,18.536,338.763,318.193,-55.754,-116.200,-206.710,41.420
673,38180.945000,234.297,55.037,-4.509,330.827,320.707,-58.677,45.800,-580.710,7.420
674,38180.985000,248.108,31.811,-29.558,330.813,320.566,-63.647,480.800,-586.710,-81.580
675,38181.25000,240.216,78.264,-64.626,327.249,314.989,-76.748,521.800,-496.710,-214.580
676,38181.71000,239.229,90.383,-55.609,324.571,318.093,-89.565,133.800,-592.710,-135.580
677,38181.105000,241.202,78.264,-92.681,321.010,313.413,-101.644,315.800,-396.710,-50.580
678,38181.147000,268.825,70.185,-95.687,320.105,311.451,-109.655,150.800,-229.710,45.420
679,38181.168000,282.636,49.988,-64.626,320.990,313.215,-108.601,406.800,336.290,60.420
680,38181.210000,276.717,37.870,-25.550,324.496,312.181,-114.582,257.800,-73.710,65.420
681,38181.245000,302.366,76.245,-21.542,324.453,307.447,-128.637,218.800,-456.710,97.420
682,38181.287000,247.121,125.728,-161.816,318.229,301.699,-147.711,161.800,-1024.710,11.420
683,38181.328000,189.904,50.998,-67.632,314.670,303.934,-160.558,64.800,-964.710,-40.580
684,38181.368000,124.794,38.880,-61.620,310.227,298.385,-172.669,549.800,-95.710,-20.580
685,38181.388000,106.050,12.623,-22.544,313.753,296.680,-171.720,102.800,302.290,192.420
686,38181.433000,244.162,41.909,-321.127,324.366,292.798,-155.924,-379.200,643.290,343.420
687,38181.467000,359.584,134.817,3.507,320.835,293.579,-158.889,-12.200,121.290,-87.580
688,38181.508000,407.923,-97.452,-48.595,326.124,295.347,-157.821,788.800,430.290,-59.580
689,38181.548000,205.688,67.156,-181.855,327.012,300.584,-156.656,262.800,513.290,-272.580
690,38181.588000,149.457,7.574,-394.270,326.135,298.904,-154.727,488.800,323.290,-176.580
691,38181.628000,200.755,84.323,-359.202,326.079,295.764,-173.696,2419.800,-407.710,-267.580
692,38181.648000,203.715,65.136,-373.229,316.206,265.508,-231.310,3089.800,-1338.710,-202.580
693,38181.685000,198.782,-35.850,-316.117,291.291,220.817,-308.307,3210.800,-2399.710,-75.580
694,38181.725000,163.268,-6.564,-210.912,253.169,158.086,-378.981,3208.800,-2494.710,207.420
695,38181.766000,107.037,29.791,-70.638,210.749,105.885,-414.573,2383.800,-2081.710,327.420
696,38181.806000,87.306,2.525,53.605,193.087,82.183,-424.335,1608.800,-594.710,284.420
697,38181.846000,105.064,44.939,91.679,200.116,44.949,-422.542,1182.800,949.290,481.420
698,38181.873000,316.177,214.596,-122.740,233.662,56.009,-400.230,-204.200,2123.290,440.420
699,38181.908000,383.260,-23.732,-365.213,239.054,115.656,-376.431,-3599.200,-396.710,522.420
700,38181.950000,443.437,31.811,20.540,260.256,130.907,-358.988,-1303.200,1675.290,768.420
701,38181.986000,309.272,-80.284,44.587,273.511,136.490,-345.855,-31.200,916.290,-78.580
702,38182.31000,256.987,15.653,-33.566,280.544,116.532,-346.480,1300.800,535.290,-163.580
703,38182.67000,247.121,7.574,-118.732,286.725,113.233,-340.609,35.800,249.290,57.420
704,38182.110000,232.324,-40.899,-96.689,285.859,125.441,-338.230,-309.200,125.290,71.420
705,38182.130000,233.310,-11.613,-77.652,284.973,115.052,-337.577,255.800,40.290,44.420
706,38182.170000,229.364,28.781,-88.673,286.730,115.865,-339.531,114.800,-153.710,46.420
707,38182.211000,237.256,31.811,-82.661,280.548,114.852,-344.549,-249.200,-516.710,46.420
708,38182.246000,269.811,-0.505,-59.616,275.246,115.547,-350.501,209.800,-730.710,15.420
709,38182.286000,306.312,50.998,-62.622,259.329,106.320,-369.718,650.800,-1109.710,-106.580
710,38182.331000,335.908,134.817,-95.687,230.180,89.159,-393.207,556.800,-1871.710,-228.580
711,38182.351000,315.191,62.107,-123.742,198.403,88.516,-415.176,-89.200,-1781.710,-288.580
712,38182.390000,234.297,113.609,-30.560,179.004,94.353,-422.992,-461.200,-1172.710,-83.580
713,38182.430000,193.850,35.850,-45.589,179.897,115.157,-423.308,-1732.200,31.290,-272.580
714,38182.470000,144.524,-4.544,-54.607,204.632,153.762,-408.074,-1543.200,1132.290,-379.580
715,38182.510000,148.470,-6.564,-85.667,249.702,192.245,-366.961,-1348.200,2260.290,-365.580
716,38182.565000,189.904,-35.850,-157.808,302.822,242.277,-285.728,-3188.200,3128.290,-271.580
717,38182.595000,249.094,26.761,-343.170,326.829,278.090,-215.973,-3346.200,3123.290,144.420
718,38182.611000,242.189,68.166,-396.274,345.567,295.113,-135.921,-2474.200,2308.290,657.420
719,38182.651000,161.295,43.929,-391.264,347.407,289.855,-107.289,-946.200,391.290,71.420
720,38182.691000,94.212,203.487,-287.061,335.959,299.366,-108.010,10.800,-378.710,-512.580
721,38182.730000,315.191,103.511,-133.761,329.785,304.457,-111.836,113.800,-245.710,-333.580
722,38182.770000,340.840,3.535,-71.640,322.738,306.188,-111.803,-352.200,-171.710,-25.580
723,38182.810000,300.393,-4.544,-66.630,321.861,307.084,-110.784,-133.200,-136.710,-113.580
724,38182.830000,281.649,79.274,-63.624,322.716,305.963,-119.754,397.800,-107.710,-65.580
725,38182.870000,227.391,93.412,0.501,321.816,310.945,-127.539,587.800,58.290,-32.580
726,38182.910000,132.686,77.254,-104.704,320.048,310.019,-129.561,33.800,-221.710,-92.580
727,38182.950000,19.237,96.442,-187.867,315.647,311.780,-128.525,-554.200,-194.710,-84.580
728,38182.990000,92.239,110.580,-121.738,313.044,319.928,-116.353,-610.200,86.290,-96.580
729,38183.26000,511.507,-148.955,139.773,316.604,319.429,-103.449,-688.200,-39.710,418.420
730,38183.73000,271.784,36.860,-72.642,313.978,315.284,-96.641,-422.200,-150.710,-69.580
731,38183.87000,244.162,100.481,-106.708,313.979,323.908,-98.347,-178.200,146.290,77.420
732,38183.127000,235.283,75.235,-62.622,316.644,324.135,-90.387,-520.200,180.290,197.420
733,38183.167000,236.270,62.107,-45.589,326.362,322.688,-80.473,-333.200,314.290,154.420
734,38183.211000,247.121,48.978,-49.597,324.612,319.355,-75.622,-121.200,363.290,44.420
735,38183.246000,241.202,81.294,-48.595,325.524,316.222,-63.805,-243.200,413.290,125.420
736,38183.291000,236.270,63.116,-33.566,332.592,312.981,-55.943,-273.200,439.290,208.420
737,38183.312000,234.297,75.235,-26.552,333.493,313.178,-48.983,-35.200,413.290,138.420
738,38183.350000,232.324,54.028,12.524,339.672,318.475,-45.812,-254.200,224.290,106.420
739,38183.387000,239.229,41.909,20.540,344.944,314.895,-49.884,-6.200,-30.710,13.420
740,38183.427000,239.229,65.136,-21.542,348.460,316.549,-52.798,-215.200,-218.710,-4.580
741,38183.467000,242.189,39.890,-21.542,352.871,316.608,-50.796,-160.200,-261.710,6.420
742,38183.513000,234.297,91.393,-9.519,347.566,313.831,-56.861,81.800,-386.710,-92.580
743,38183.550000,235.283,75.235,-3.507,344.026,315.396,-62.779,-86.200,-538.710,-101.580
744,38183.571000,237.256,76.245,-69.636,339.597,312.563,-70.829,-174.200,-595.710,-22.580
745,38183.611000,254.027,60.087,-87.671,337.829,315.949,-73.704,-109.200,-223.710,-40.580
746,38183.650000,247.121,42.919,-62.622,335.174,314.967,-77.716,63.800,-0.710,-149.580
747,38183.690000,237.256,86.343,-58.614,333.414,321.013,-78.519,225.800,181.290,-119.580
748,38183.730000,246.135,69.176,-69.636,334.303,320.231,-75.562,132.800,173.290,-58.580
749,38183.770000,248.108,75.235,-78.654,337.836,321.186,-72.541,102.800,268.290,-34.580
750,38183.788000,238.243,89.373,-60.618,337.847,320.430,-68.594,114.800,454.290,52.420
751,38183.838000,251.067,59.077,-32.564,340.503,315.393,-62.791,179.800,621.290,85.420
752,38183.867000,238.243,66.146,-22.544,346.690,319.907,-56.666,416.800,604.290,21.420
753,38183.907000,238.243,70.185,-14.528,347.575,318.228,-54.732,469.800,562.290,-1.580
754,38183.947000,234.297,76.245,-13.526,347.576,315.652,-53.823,648.800,500.290,46.420
755,38183.993000,239.229,85.333,-4.509,346.689,319.039,-56.695,439.800,401.290,65.420
756,38184.30000,225.418,83.314,15.530,347.577,313.944,-52.885,181.800,105.290,58.420
757,38184.50000,217.526,78.264,62.622,344.043,314.697,-56.844,215.800,-188.710,22.420
758,38184.90000,207.661,108.560,37.573,334.351,316.398,-57.813,-276.200,-639.710,-48.580
759,38184.128000,240.216,33.830,-7.515,329.063,320.677,-59.677,-295.200,-975.710,-30.580
760,38184.168000,239.229,55.037,-55.609,329.913,313.481,-68.845,23.800,-939.710,-111.580
761,38184.208000,242.189,80.284,-71.640,322.830,315.713,-81.704,36.800,-785.710,-183.580
762,38184.251000,267.838,43.929,-123.742,317.508,319.655,-95.495,210.800,-447.710,-100.580
763,38184.271000,269.811,79.274,-117.730,314.858,322.173,-98.401,122.800,-260.710,-53.580
764,38184.311000,272.771,55.037,-99.695,313.947,315.842,-107.546,471.800,262.290,41.420
765,38184.351000,273.757,40.899,-101.699,322.757,311.537,-106.664,718.800,291.290,179.420
766,38184.391000,244.162,82.304,-153.800,325.350,305.880,-122.727,1111.800,24.290,191.420
767,38184.431000,184.971,167.132,-422.325,319.037,294.948,-171.759,2019.800,-1700.710,-459.580
768,38184.471000,177.079,65.136,-213.918,302.160,290.111,-219.633,2335.800,-2468.710,-474.580
769,38184.510000,6.412,90.383,99.695,280.838,270.234,-277.940,1269.800,-2172.710,-38.580
770,38184.531000,1.480,79.274,181.855,273.738,271.430,-296.791,-472.200,-122.710,90.420
771,38184.572000,200.755,-15.653,-65.628,300.234,270.389,-272.908,-558.200,1403.290,706.420
772,38184.613000,350.705,94.422,25.550,314.369,279.417,-260.654,-524.200,975.290,294.420
773,38184.652000,309.272,5.554,-117.730,318.787,270.070,-253.992,1611.800,1170.290,-381.580
774,38184.693000,173.133,-7.574,-354.192,322.302,269.120,-256.991,803.800,779.290,-319.580
775,38184.733000,164.254,2.525,-373.229,321.333,241.535,-281.721,2931.800,370.290,-279.580
776,38184.751000,191.877,-32.821,-304.094,305.329,199.573,-323.846,2762.800,-713.710,-194.580
777,38184.788000,217.526,-27.771,-214.920,292.005,170.046,-355.630,3087.800,-1107.710,14.420
778,38184.828000,187.931,21.712,-119.734,265.430,102.233,-391.677,3412.800,-949.710,187.420
779,38184.868000,177.079,-23.732,-32.564,248.626,47.283,-402.451,2231.800,-494.710,452.420
780,38184.911000,170.173,16.663,30.560,248.608,7.468,-399.771,1507.800,280.290,683.420
781,38184.951000,135.645,124.718,62.622,262.732,4.316,-388.905,-493.200,1182.290,850.420
782,38184.992000,207.661,328.710,-404.290,275.133,35.156,-371.977,-2851.200,247.290,592.420
783,38185.12000,324.069,-125.728,-52.603,281.379,88.503,-356.324,-2766.200,887.290,972.420
784,38185.52000,316.177,21.712,49.597,291.983,98.312,-347.035,-269.200,761.290,345.420
785,38185.91000,312.231,30.801,54.607,296.365,83.446,-351.475,1239.800,135.290,44.420
786,38185.130000,359.584,52.008,13.526,292.833,71.292,-351.881,168.800,-447.710,145.420
787,38185.173000,322.096,88.363,-31.562,275.188,82.225,-363.498,-754.200,-961.710,193.420
788,38185.208000,276.717,-54.028,-151.796,262.817,81.850,-376.459,-500.200,-1036.710,401.420
789,38185.228000,237.256,-10.604,-171.836,252.210,67.701,-385.889,352.800,-806.710,216.420
790,38185.283000,261.919,4.544,-130.755,245.126,63.886,-397.952,502.800,-927.710,104.420
791,38185.308000,214.566,72.205,-124.744,227.474,54.071,-407.263,104.800,-1184.710,-16.580
792,38185.348000,221.472,137.846,-36.571,208.954,76.260,-419.512,-1178.200,-1065.710,38.420
793,38185.395000,161.295,56.047,-59.616,198.434,130.180,-413.824,-2602.200,-467.710,-509.580
794,38185.430000,182.998,-45.949,-68.634,197.593,162.465,-406.821,-1917.200,273.290,-589.580
795,38185.470000,166.227,-10.604,-103.703,223.221,183.095,-383.231,-575.200,1492.290,-398.580
796,38185.488000,180.039,4.544,-169.832,267.385,202.369,-346.716,-1017.200,2235.290,-420.580
797,38185.530000,183.985,-34.840,-237.965,298.411,237.906,-286.877,-2086.200,2290.290,-366.580
798,38185.570000,220.486,19.692,-302.090,314.405,265.980,-245.202,-1939.200,2118.290,-13.580
799,38185.615000,241.202,33.830,-300.086,326.914,286.691,-187.889,-1731.200,1347.290,94.420
800,38185.648000,139.592,98.462,-286.059,331.413,298.823,-157.692,-778.200,723.290,-69.580
801,38185.690000,125.780,-13.633,-385.252,331.411,296.219,-157.776,432.800,335.290,-140.580
802,38185.710000,94.212,55.037,-153.800,329.676,302.519,-149.633,-417.200,96.290,-26.580
803,38185.750000,222.459,131.787,-56.611,329.749,309.271,-125.582,-1731.200,133.290,-111.580
804,38185.790000,385.233,21.712,9.519,334.224,313.422,-101.601,-790.200,365.290,-52.580
805,38185.832000,259.946,30.801,-68.634,332.502,320.703,-89.455,-404.200,-161.710,31.420
806,38185.875000,216.540,117.649,-74.646,323.692,319.829,-89.511,-132.200,-5.710,-21.580
807,38185.910000,230.351,73.215,-34.568,323.694,315.545,-87.664,-237.200,110.290,81.420
808,38185.930000,242.189,36.860,-25.550,323.705,319.101,-84.570,-215.200,-106.710,25.420
809,38185.970000,231.337,71.195,-18.536,323.672,320.499,-96.441,127.800,-278.710,-64.580
810,38186.10000,241.202,94.422,-66.630,314.829,321.023,-108.368,241.800,-425.710,-128.580
811,38186.50000,229.364,88.363,-111.718,312.170,321.720,-114.312,14.800,-172.710,-63.580
812,38186.96000,242.189,56.047,-121.738,314.822,319.231,-110.412,-33.200,243.290,-27.580
813,38186.132000,221.472,109.570,-47.593,317.477,316.769,-105.518,-259.200,318.290,91.420
814,38186.170000,229.364,95.432,-35.569,319.256,319.515,-100.459,-95.200,240.290,179.420
815,38186.197000,253.040,56.047,-63.624,321.906,325.622,-99.259,-243.200,122.290,205.420
816,38186.236000,241.202,45.949,-58.614,326.296,324.616,-104.243,-235.200,89.290,54.420
817,38186.288000,232.324,63.116,-20.540,328.941,316.022,-101.534,-206.200,-83.710,-45.580
818,38186.312000,222.459,69.176,-25.550,332.452,322.800,-107.261,-83.200,-288.710,-14.580
819,38186.356000,239.229,55.037,-30.560,329.803,321.874,-109.285,-138.200,-510.710,35.420
820,38186.412000,238.243,49.988,-38.575,328.900,313.892,-115.505,-114.200,-648.710,-57.580
821,38186.421000,244.162,79.274,-82.661,320.053,313.519,-128.454,71.800,-725.710,-168.580
822,38186.453000,208.647,72.205,-123.742,314.740,318.414,-139.235,-15.200,-563.710,-94.580
823,38186.500000,226.405,84.323,-112.720,312.083,319.139,-144.185,116.800,-303.710,-7.580
824,38186.533000,247.121,80.284,-94.685,311.187,321.573,-150.067,253.800,-120.710,-76.580
825,38186.575000,218.513,93.412,-127.750,308.539,322.383,-152.035,43.800,66.290,-164.580
826,38186.610000,222.459,96.442,-104.704,305.906,323.334,-149.034,16.800,293.290,-87.580
827,38186.653000,216.540,94.422,-100.697,312.104,323.648,-138.081,-93.200,395.290,25.420
828,38186.673000,238.243,61.097,-112.720,317.400,319.453,-133.235,-15.200,625.290,106.420
829,38186.713000,234.297,73.215,-74.646,322.719,322.370,-122.201,321.800,876.290,74.420
830,38186.750000,232.324,92.402,-65.628,329.804,322.742,-109.257,-140.200,876.290,90.420
831,38186.791000,244.162,65.136,-51.601,336.027,325.885,-90.268,59.800,1015.290,131.420
832,38186.831000,239.229,61.097,-34.568,336.937,320.148,-78.536,253.800,1030.290,120.420
833,38186.871000,218.513,96.442,10.521,343.132,320.434,-68.577,-106.200,691.290,154.420
834,38186.891000,237.256,54.028,-3.507,346.670,316.266,-62.743,149.800,581.290,107.420
835,38186.931000,226.405,103.511,8.517,343.176,314.837,-51.877,67.800,435.290,84.420
836,38186.971000,249.094,40.899,-3.507,342.343,314.447,-35.012,-217.200,295.290,127.420
837,38187.11000,243.175,41.909,25.550,347.654,322.460,-27.784,139.800,157.290,56.420
838,38187.51000,231.337,57.057,74.646,352.944,319.916,-25.863,156.800,-174.710,5.420
839,38187.91000,245.148,73.215,61.620,352.001,315.852,-46.851,505.800,-700.710,-35.580
840,38187.131000,291.514,10.604,49.597,345.751,314.163,-75.723,623.800,-1174.710,-90.580
841,38187.151000,450.343,42.919,50.599,335.088,305.498,-105.828,1478.800,-1382.710,-207.580
842,38187.192000,392.139,89.373,14.528,321.744,298.173,-149.800,639.800,-1334.710,-8.580
843,38187.231000,172.146,120.679,-235.961,316.414,299.455,-165.663,-610.200,-960.710,116.420
844,38187.271000,90.266,90.383,-142.779,319.922,296.712,-170.706,-299.200,-435.710,389.420
845,38187.316000,44.886,15.653,-131.757,319.940,297.749,-164.714,-311.200,172.290,359.420
846,38187.356000,61.657,-15.653,-103.703,328.774,297.141,-155.769,-258.200,408.290,322.420
847,38187.376000,133.672,32.821,-326.137,334.080,290.455,-147.032,-294.200,116.290,294.420
848,38187.416000,468.100,13.633,-29.558,337.642,295.135,-134.953,-788.200,134.290,-13.580
849,38187.456000,290.528,-50.998,-76.650,338.531,295.220,-131.968,888.800,727.290,-351.580
850,38187.491000,153.403,46.959,-183.859,337.634,295.919,-137.906,1094.800,611.290,-463.580
851,38187.531000,192.863,22.722,-453.386,333.176,293.672,-155.867,1243.800,-365.710,-351.580
852,38187.572000,207.661,129.767,-315.115,322.455,277.529,-205.082,2740.800,-1317.710,-287.580
853,38187.613000,225.418,84.323,-283.053,296.694,252.998,-274.477,2332.800,-2273.710,-328.580
854,38187.635000,173.133,89.373,-167.828,276.295,235.252,-318.810,1742.800,-2668.710,-0.580
855,38187.681000,123.807,33.830,-105.706,232.105,214.857,-364.298,824.800,-2211.710,-110.580
856,38187.716000,105.064,-33.830,0.501,204.678,174.036,-396.493,1842.800,-1270.710,-7.580
857,38187.756000,126.767,46.959,-5.511,202.823,124.863,-417.954,1921.800,283.290,310.420
858,38187.796000,189.904,97.452,-31.562,216.931,114.654,-411.289,472.800,1256.290,249.420
859,38187.836000,376.355,213.586,-197.886,229.320,136.758,-396.631,-1367.200,1090.290,-221.580
860,38187.856000,462.181,-201.467,-136.767,250.530,151.224,-376.233,883.800,1652.290,317.420
861,38187.896000,286.582,152.994,-21.542,276.986,123.079,-360.181,1721.800,1801.290,-5.580
862,38187.940000,185.958,138.856,-142.779,290.215,120.653,-354.259,477.800,1049.290,360.420
863,38187.972000,170.173,92.402,-65.628,285.805,113.706,-354.499,221.800,-315.710,-166.580
864,38188.12000,152.416,2.525,-23.546,280.505,110.118,-358.604,404.800,-127.710,3.420
865,38188.52000,158.335,-80.284,-207.906,284.952,128.630,-348.059,-853.200,583.290,186.420
866,38188.95000,276.717,66.146,-127.750,284.971,138.291,-343.774,-1168.200,40.290,-155.580
867,38188.115000,269.811,25.751,-57.613,284.134,163.716,-334.015,-1120.200,159.290,-35.580
868,38188.155000,288.555,-34.840,-43.585,282.398,179.479,-328.544,-338.200,77.290,-35.580
869,38188.196000,303.353,75.235,27.554,277.105,173.371,-329.752,-122.200,-310.710,-10.580
870,38188.242000,325.056,78.264,29.558,264.739,172.185,-340.753,-1.200,-805.710,-9.580
871,38188.271000,336.894,74.225,61.620,253.237,169.961,-357.743,894.800,-1391.710,-243.580
872,38188.322000,424.694,53.018,-36.571,230.229,143.928,-388.451,1582.800,-1703.710,-375.580
873,38188.331000,373.395,134.817,-152.798,208.088,92.779,-417.985,2114.800,-1608.710,121.420
874,38188.372000,247.121,42.919,-190.873,192.178,71.569,-431.634,608.800,-1401.710,302.420
875,38188.412000,132.686,125.728,-13.526,193.063,87.977,-434.077,-1154.200,-508.710,72.420
876,38188.460000,88.293,14.643,-79.656,200.197,147.429,-417.230,-2793.200,396.290,-72.580
877,38188.495000,48.832,-48.978,-115.726,233.861,214.802,-366.280,-3265.200,1800.290,-34.580
878,38188.538000,45.873,-109.570,-166.826,272.866,263.758,-292.078,-2859.200,2551.290,196.420
879,38188.572000,96.185,31.811,-307.100,299.431,272.885,-246.019,-1934.200,2702.290,586.420
880,38188.592000,190.890,24.742,-354.192,322.560,297.526,-172.657,-2943.200,1487.290,739.420
881,38188.635000,168.200,155.014,-420.321,334.122,300.341,-134.795,-1474.200,519.290,508.420
882,38188.675000,232.324,-0.505,-20.540,327.963,303.865,-132.714,-535.200,-568.710,-79.580
883,38188.715000,248.108,38.880,-138.771,325.332,308.287,-129.600,-320.200,54.290,-346.580
884,38188.755000,253.040,92.402,-125.746,326.247,316.381,-119.405,-534.200,436.290,-171.580
885,38188.795000,260.933,90.383,-50.599,328.967,320.588,-93.442,-754.200,623.290,37.420
886,38188.815000,300.393,16.663,-19.538,332.540,322.805,-76.478,-561.200,499.290,186.420
887,38188.858000,239.229,69.176,-16.532,333.454,324.852,-65.485,-335.200,287.290,117.420
888,38188.892000,236.270,63.116,-50.599,332.578,320.595,-62.647,-202.200,287.290,49.420
889,38188.951000,241.202,92.402,-42.583,333.461,324.068,-62.532,-329.200,237.290,70.420
890,38188.980000,248.108,40.899,-37.573,336.117,321.607,-57.638,-290.200,236.290,66.420
891,38189.15000,224.432,65.136,-13.526,338.780,322.674,-50.644,-221.200,193.290,12.420
892,38189.56000,227.391,68.166,3.507,341.408,325.979,-56.486,231.800,-33.710,-6.580
893,38189.76000,238.243,76.245,-18.536,340.530,325.138,-55.523,8.800,-149.710,-29.580
894,38189.116000,258.960,73.215,-31.562,340.519,322.450,-58.590,9.800,-102.710,-25.580
895,38189.156000,250.081,70.185,-104.704,342.291,317.384,-53.783,-145.200,209.290,25.420
896,38189.196000,258.960,58.067,-48.595,344.073,317.582,-46.820,-29.200,438.290,76.420
897,38189.235000,244.162,49.988,-17.534,344.082,318.535,-43.810,271.800,514.290,58.420
898,38189.276000,213.580,94.422,36.571,345.850,318.593,-41.817,614.800,526.290,-42.580
899,38189.292000,203.715,113.609,43.585,344.971,321.196,-41.735,-172.200,-55.710,-42.580
900,38189.333000,233.310,72.205,27.554,348.475,321.869,-48.653,-202.200,-541.710,-58.580
901,38189.378000,243.175,58.067,12.524,343.187,326.149,-50.517,-267.200,-833.710,-136.580
902,38189.412000,228.378,40.899,-50.599,340.511,330.121,-63.306,-100.200,-970.710,-172.580
903,38189.452000,231.337,72.205,-66.630,336.048,328.686,-83.226,23.800,-889.710,-153.580
904,38189.492000,226.405,113.609,-56.611,329.839,324.816,-97.274,447.800,-764.710,-169.580
905,38189.536000,221.472,101.491,-105.706,321.002,325.396,-107.213,-135.200,-746.710,-110.580
906,38189.557000,247.121,65.136,-109.714,317.462,326.960,-113.132,27.800,-415.710,-120.580
907,38189.597000,243.175,65.136,-105.706,314.814,330.346,-116.009,230.800,87.290,-283.580
908,38189.637000,237.256,88.363,-124.744,311.284,333.730,-118.890,190.800,278.290,-215.580
909,38189.676000,236.270,87.353,-110.716,310.421,327.011,-111.167,168.800,454.290,-41.580
910,38189.716000,242.189,72.205,-92.681,312.188,330.513,-110.054,349.800,656.290,19.420
911,38189.756000,228.378,86.343,-61.620,320.141,329.904,-101.112,472.800,883.290,3.420
912,38189.776000,234.297,79.274,-40.579,323.677,330.019,-97.125,569.800,933.290,18.420
913,38189.816000,225.418,95.432,-44.587,329.877,330.362,-85.178,312.800,940.290,13.420
914,38189.856000,233.310,68.166,-10.521,335.173,328.742,-81.241,412.800,876.290,112.420
915,38189.897000,220.486,82.304,16.532,338.706,329.697,-78.220,259.800,619.290,123.420
916,38189.937000,217.526,93.412,14.528,337.842,328.998,-72.288,172.800,316.290,102.420
917,38189.977000,241.202,45.949,18.536,337.828,329.725,-77.229,424.800,22.290,76.420
918,38190.17000,235.283,53.018,9.519,331.652,325.324,-79.378,420.800,-229.710,-1.580
919,38190.37000,234.297,99.471,-37.573,330.764,323.531,-81.425,89.800,-393.710,-52.580
920,38190.77000,235.283,89.373,-37.573,330.757,324.314,-84.378,-57.200,-398.710,-55.580
921,38190.117000,249.094,98.462,-43.585,334.273,321.657,-86.439,-120.200,-349.710,-7.580
922,38190.157000,257.973,126.738,-51.601,329.865,325.069,-88.329,-267.200,-237.710,165.420
923,38190.197000,336.894,-2.525,44.587,334.259,321.516,-91.409,312.800,-337.710,299.420
924,38190.235000,423.707,30.801,154.802,332.406,309.414,-120.604,1054.800,-742.710,325.420
925,38190.270000,341.827,98.462,55.609,333.188,294.653,-151.863,510.800,-932.710,420.420
926,38190.298000,155.376,150.974,-243.977,333.135,287.230,-168.985,11.800,-916.710,426.420
927,38190.338000,78.428,39.890,-174.841,326.935,280.000,-179.170,-98.200,-751.710,57.420
928,38190.378000,56.724,-16.663,-120.736,328.654,272.691,-192.310,962.800,-53.710,168.420
929,38190.413000,-19.237,44.939,-35.569,330.418,267.541,-190.486,-226.200,202.290,58.420
930,38190.453000,289.541,27.771,-271.029,331.391,281.378,-161.237,-1826.200,581.290,18.420
931,38190.493000,511.507,-44.939,90.677,337.601,293.873,-148.895,-313.200,292.290,-89.580
932,38190.520000,457.249,-14.643,24.548,333.215,295.775,-142.890,612.800,452.290,-276.580
933,38190.553000,235.283,22.722,-108.712,331.458,299.274,-141.789,609.800,586.290,-371.580
934,38190.593000,101.118,32.821,-250.990,332.333,294.906,-142.921,863.800,677.290,-368.580
935,38190.633000,184.971,104.521,-391.264,333.177,290.229,-154.986,1528.800,-36.710,-119.580
936,38190.673000,201.742,87.353,-381.245,329.505,273.250,-203.212,2125.800,-1303.710,-220.580
937,38190.715000,238.243,17.673,-352.188,303.727,247.683,-278.599,2566.800,-2733.710,-175.580
938,38190.733000,195.823,48.978,-207.906,257.679,203.929,-352.654,2323.800,-2985.710,31.420
939,38190.778000,132.686,12.623,-65.628,206.430,172.216,-399.525,1847.800,-2457.710,128.420
940,38190.813000,129.726,41.909,125.746,184.330,133.529,-417.732,1585.800,-910.710,241.420
941,38190.857000,144.524,39.890,164.822,189.592,109.173,-420.492,768.800,743.290,358.420
942,38190.900000,323.083,118.659,-380.243,226.641,102.791,-401.713,149.800,2176.290,630.420
943,38190.933000,364.516,69.176,165.824,232.040,149.588,-372.374,-3080.200,1030.290,204.420
944,38190.973000,301.380,77.254,4.509,246.164,157.635,-364.123,738.800,1261.290,73.420
945,38190.993000,203.715,58.067,-116.728,262.064,155.494,-348.254,579.800,976.290,232.420
946,38191.46000,154.389,187.329,-125.746,272.673,160.179,-336.152,-667.200,653.290,321.420
947,38191.75000,170.173,96.442,-123.742,278.005,172.701,-322.820,-876.200,436.290,114.420
948,38191.122000,205.688,-82.304,-161.816,282.418,172.789,-319.824,-98.200,452.290,21.420
949,38191.158000,239.229,-31.811,-88.673,287.717,172.066,-314.865,151.800,486.290,73.420
950,38191.198000,197.796,115.629,9.519,285.087,177.356,-311.723,-396.200,80.290,-15.580
951,38191.218000,234.297,9.594,51.601,274.516,189.416,-314.345,-472.200,-797.710,44.420
952,38191.257000,359.584,4.544,17.534,266.558,195.148,-326.100,102.800,-1236.710,100.420
953,38191.296000,432.586,38.880,-23.546,248.861,182.307,-350.405,656.800,-1277.710,-37.580
954,38191.337000,361.557,89.373,-3.507,231.172,163.503,-370.932,1034.800,-1276.710,-336.580
955,38191.377000,356.624,114.619,-175.843,202.000,141.805,-401.519,885.800,-1959.710,-303.580
956,38191.418000,260.933,73.215,-143.781,177.260,119.524,-422.181,874.800,-1771.710,0.420
957,38191.458000,222.459,81.294,-62.622,169.300,102.829,-429.699,487.800,-568.710,27.420
958,38191.478000,84.347,50.998,-54.607,182.523,110.679,-428.409,-582.200,270.290,-59.580
959,38191.522000,69.549,8.584,-103.703,212.572,150.436,-403.191,-1694.200,1108.290,-154.580
960,38191.557000,68.563,-29.791,-131.757,252.387,203.869,-354.659,-2887.200,2001.290,-65.580
961,38191.597000,134.659,5.554,-237.965,279.868,247.801,-304.489,-3117.200,2381.290,201.420
962,38191.637000,185.958,50.998,-293.072,315.357,285.640,-224.701,-2992.200,2335.290,566.420
963,38191.677000,195.823,61.097,-344.172,332.265,295.098,-166.747,-1453.200,1558.290,471.420
964,38191.697000,176.092,19.692,-253.996,334.977,295.776,-142.884,-631.200,790.290,66.420
965,38191.737000,172.146,145.925,-291.068,335.885,298.634,-133.852,-646.200,540.290,-281.580
966,38191.777000,228.378,62.107,-66.630,333.265,302.301,-126.790,-142.200,-176.710,-179.580
967,38191.817000,279.676,49.988,-145.785,330.657,312.129,-116.550,-338.200,334.290,-227.580
968,38191.857000,311.245,64.126,-54.607,337.772,315.386,-93.582,-738.200,497.290,58.420
969,38191.897000,254.027,53.018,-48.595,339.566,312.253,-81.762,-719.200,391.290,41.420
970,38191.936000,250.081,70.185,-29.558,345.790,317.133,-62.717,-436.200,377.290,18.420
971,38191.955000,239.229,64.126,-17.534,348.462,315.709,-51.832,-241.200,283.290,31.420
972,38191.996000,250.081,54.028,-27.554,355.532,311.628,-43.005,16.800,240.290,20.420
973,38192.38000,237.256,66.146,-22.544,360.799,307.990,-49.064,-13.200,169.290,-14.580
974,38192.78000,233.310,54.028,-11.523,363.446,314.068,-48.858,159.800,93.290,-80.580
975,38192.118000,228.378,105.531,-15.530,359.904,315.605,-55.771,84.800,-109.710,-101.580
976,38192.158000,246.135,57.057,-38.575,359.012,320.671,-60.574,-48.200,-187.710,-50.580
977,38192.178000,248.108,84.323,-48.595,355.492,321.565,-59.563,-82.200,-107.710,-59.580
978,38192.220000,239.229,79.274,-68.634,351.098,321.674,-55.602,-228.200,82.290,15.420
979,38192.255000,251.067,60.087,-57.613,350.237,321.003,-48.676,-225.200,217.290,85.420
980,38192.302000,242.189,67.156,-33.566,344.964,322.848,-44.661,-41.200,301.290,75.420
981,38192.342000,233.310,66.146,-3.507,334.380,320.991,-48.727,144.800,277.290,46.420
982,38192.378000,234.297,63.116,-19.538,338.777,322.646,-51.638,-144.200,80.290,42.420
983,38192.416000,239.229,71.195,-13.526,340.537,326.931,-53.479,-213.200,-64.710,20.420
984,38192.436000,240.216,67.156,-11.523,341.418,324.356,-52.567,-265.200,-194.710,2.420
985,38192.476000,240.216,60.087,-28.556,345.811,322.510,-56.585,-339.200,-240.710,-7.580
986,38192.516000,248.108,43.929,-22.544,344.912,318.029,-61.698,259.800,-146.710,-103.580
987,38192.561000,233.310,72.205,-10.521,342.254,319.594,-67.614,335.800,-262.710,-190.580
988,38192.600000,225.418,91.393,11.523,339.581,321.886,-78.471,26.800,-490.710,-180.580
989,38192.638000,228.378,79.274,-60.618,334.278,324.289,-85.361,5.800,-540.710,-141.580
990,38192.658000,244.162,56.047,-55.609,328.962,325.711,-96.255,-97.200,-548.710,-155.580
991,38192.698000,234.297,84.323,-81.659,325.437,331.728,-98.057,-5.200,-451.710,-211.580
992,38192.738000,240.216,77.254,-79.656,321.901,335.057,-102.925,89.800,-191.710,-213.580
993,38192.776000,238.243,83.314,-78.654,316.601,334.912,-107.911,60.800,-123.710,-180.580
994,38192.820000,226.405,93.412,-49.597,312.199,338.381,-107.813,20.800,-123.710,-104.580
995,38192.860000,239.229,75.235,-87.671,308.663,333.086,-110.975,71.800,-3.710,-82.580
996,38192.880000,226.405,91.393,-87.671,311.304,333.928,-111.932,4.800,117.290,-54.580
997,38192.916000,234.297,97.452,-74.646,313.079,333.202,-106.985,-5.200,263.290,69.420
998,38192.960000,235.283,92.402,-80.658,318.388,334.299,-98.989,-42.200,396.290,127.420
999,38193.2000,236.270,79.274,-82.661,321.040,338.697,-96.851,-43.200,561.290,158.420
1000,38193.36000,239.229,76.245,-64.626,329.888,333.918,-82.083,20.800,738.290,195.420
1001,38193.76000,232.324,77.254,-46.591,331.690,334.314,-68.163,-2.200,801.290,204.420
1002,38193.119000,231.337,70.185,-18.536,339.650,331.186,-56.323,-8.200,815.290,203.420
1003,38193.140000,235.283,66.146,-9.519,344.971,328.952,-43.470,-21.200,712.290,161.420
1004,38193.185000,235.283,63.116,-1.503,347.623,322.150,-38.717,-15.200,640.290,118.420
1005,38193.220000,236.270,73.215,13.526,349.428,326.886,-24.655,46.800,579.290,64.420
1006,38193.261000,234.297,71.195,33.566,349.447,329.659,-18.607,6.800,357.290,59.420
1007,38193.301000,241.202,68.166,25.550,343.289,329.739,-15.646,45.800,146.290,62.420
1008,38193.341000,246.135,56.047,-1.503,339.787,329.094,-7.734,55.800,29.290,53.420
1009,38193.361000,244.162,68.166,8.517,343.316,328.285,-5.763,196.800,21.290,56.420
1010,38193.401000,242.189,64.126,14.528,347.712,323.892,-7.877,132.800,-85.710,41.420
1011,38193.441000,237.256,65.136,1.503,353.873,320.396,-8.964,111.800,-128.710,8.420
1012,38193.481000,244.162,80.284,7.515,355.641,329.077,-8.677,-147.200,-187.710,-15.580
1013,38193.521000,253.040,76.245,-31.562,356.518,326.446,-9.752,41.800,-64.710,30.420
1014,38193.556000,251.067,80.284,-23.546,357.389,325.494,-12.759,191.800,118.290,112.420
1015,38193.597000,237.256,64.126,20.540,360.020,324.515,-16.755,323.800,91.290,117.420
1016,38193.620000,240.216,67.156,12.524,359.138,322.778,-16.814,29.800,-75.710,76.420
1017,38193.660000,240.216,71.195,9.519,359.127,315.778,-19.027,42.800,-117.710,71.420
1018,38193.700000,246.135,60.087,-8.517,359.112,313.901,-24.053,61.800,-123.710,73.420
1019,38193.740000,245.148,58.067,-9.519,359.988,315.582,-25.981,21.800,-150.710,63.420
1020,38193.777000,241.202,64.126,-8.517,364.386,313.792,-28.011,141.800,-133.710,58.420
1021,38193.817000,239.229,65.136,6.513,356.436,315.297,-35.932,183.800,-144.710,82.420
1022,38193.857000,236.270,60.087,-2.505,358.182,313.422,-40.952,183.800,-170.710,52.420
1023,38193.877000,246.135,64.126,-36.571,359.057,309.054,-42.084,3.800,-283.710,34.420
1024,38193.917000,244.162,64.126,-22.544,358.147,311.348,-52.935,202.800,-160.710,36.420
1025,38193.957000,248.108,43.929,-35.569,359.022,306.980,-54.067,421.800,-73.710,30.420
1026,38194.3000,247.121,52.008,-19.538,360.756,307.568,-63.973,655.800,15.290,26.420
1027,38194.42000,239.229,90.383,-25.550,361.617,303.927,-70.046,249.800,6.290,-3.580
1028,38194.88000,248.108,55.037,-33.566,358.978,300.510,-68.179,45.800,-64.710,2.420
1029,38194.102000,246.135,68.166,-30.560,360.739,308.267,-69.908,-15.200,-68.710,2.420
1030,38194.137000,246.135,62.107,-32.564,358.097,309.133,-69.888,67.800,5.290,7.420
1031,38194.183000,249.094,54.028,-38.575,361.624,305.720,-68.002,63.800,113.290,11.420
1032,38194.217000,245.148,57.057,-31.562,359.868,309.219,-66.901,81.800,197.290,24.420
