Sample, Time, ACCX, ACCY, ACCZ, MAGX, MAGY, MAGZ, GYRX, GYRY, GYRZ
0,38299.161000,241.029,-19.538,72.434,451.679,-268.045,146.469,-6.150,28.630,-11.930
1,38299.199000,240.031,-22.544,71.442,450.610,-274.705,145.298,-10.150,21.630,-10.930
2,38299.239000,240.031,-21.542,73.426,449.722,-269.045,145.454,-22.150,16.630,-4.930
3,38299.259000,241.029,-20.540,69.457,449.738,-268.073,146.465,-33.150,18.630,-1.930
4,38299.299000,240.031,-23.546,70.450,449.683,-271.855,146.359,-46.150,26.630,-5.930
5,38299.339000,237.037,-31.562,71.442,447.801,-268.048,148.429,-32.150,27.630,4.070
6,38299.381000,239.033,-36.571,70.450,447.677,-276.558,148.192,14.850,11.630,23.070
7,38299.424000,240.031,-32.564,69.457,446.791,-270.872,149.333,52.850,-25.370,30.070
8,38299.464000,240.031,-31.562,73.426,451.542,-277.502,146.205,70.850,-25.370,42.070
9,38299.504000,240.031,-32.564,72.434,443.930,-267.183,147.463,106.850,-37.370,49.070
10,38299.541000,241.029,-28.556,71.442,445.820,-270.886,149.331,124.850,-42.370,44.070
11,38299.560000,244.023,-23.546,74.419,448.655,-276.439,152.132,110.850,-31.370,42.070
12,38299.600000,243.025,-29.558,72.434,449.658,-274.482,154.155,110.850,-24.370,38.070
13,38299.644000,242.027,-25.550,73.426,445.769,-274.616,151.194,103.850,-16.370,42.070
14,38299.678000,238.035,-25.550,75.411,447.785,-269.781,154.283,77.850,-5.370,26.070
15,38299.718000,246.020,-26.552,68.465,444.879,-269.743,157.230,51.850,7.630,22.070
16,38299.760000,239.033,-24.548,71.442,447.805,-268.756,157.262,31.850,20.630,22.070
17,38299.800000,241.029,-28.556,75.411,448.675,-275.415,155.111,26.850,7.630,12.070
18,38299.820000,238.035,-23.546,75.411,447.791,-269.702,157.236,33.850,3.630,7.070
19,38299.860000,238.035,-22.544,72.434,443.852,-273.566,156.138,6.850,0.630,0.070
20,38299.898000,240.031,-25.550,71.442,444.883,-269.690,159.198,-3.150,-1.370,-0.930
21,38299.939000,238.035,-23.546,73.426,444.852,-271.634,157.177,-16.150,-4.370,2.070
22,38299.979000,239.033,-23.546,71.442,448.760,-269.714,156.253,-31.150,-9.370,3.070
23,38300.18000,240.031,-27.554,72.434,447.760,-271.646,155.214,-50.150,-17.370,1.070
24,38300.64000,244.023,-28.556,71.442,444.787,-275.549,152.150,-68.150,-18.370,-14.930
25,38300.98000,241.029,-31.562,70.450,445.803,-272.645,154.200,-64.150,-12.370,-15.930
26,38300.125000,243.025,-32.564,68.465,444.763,-277.387,154.066,-35.150,-8.370,-0.930
27,38300.165000,239.033,-32.564,68.465,447.710,-274.588,151.198,-6.150,0.630,3.070
28,38300.199000,241.029,-29.558,73.426,447.765,-270.805,151.303,19.850,5.630,6.070
29,38300.240000,241.029,-25.550,71.442,446.755,-273.630,152.207,18.850,2.630,3.070
30,38300.280000,241.029,-27.554,70.450,443.928,-267.971,153.343,-0.150,0.630,4.070
31,38300.319000,241.029,-28.556,68.465,445.855,-268.889,153.321,-0.150,9.630,2.070
32,38300.360000,235.041,-24.548,70.450,443.900,-269.862,153.290,-9.150,-9.370,4.070
33,38300.400000,240.031,-30.560,68.465,448.756,-269.767,154.285,-6.150,-20.370,15.070
34,38300.428000,242.027,-26.552,68.465,446.753,-273.656,151.222,-10.150,-17.370,23.070
35,38300.461000,243.025,-28.556,69.457,446.755,-273.630,152.207,-20.150,-25.370,7.070
36,38300.503000,242.027,-26.552,68.465,444.798,-274.629,151.192,-34.150,-17.370,5.070
37,38300.539000,246.020,-31.562,71.442,446.751,-273.682,150.238,-21.150,14.630,9.070
38,38300.585000,237.037,-30.560,76.403,445.847,-268.994,149.383,9.850,38.630,7.070
39,38300.625000,238.035,-27.554,75.411,445.836,-269.914,150.341,20.850,20.630,10.070
40,38300.665000,237.037,-31.562,71.442,444.777,-276.442,154.092,31.850,1.630,5.070
41,38300.705000,241.029,-33.566,69.457,439.988,-271.835,152.245,43.850,-47.370,15.070
42,38300.725000,239.033,-33.566,68.465,443.857,-272.725,152.227,42.850,-35.370,15.070
43,38300.765000,239.033,-35.569,69.457,448.699,-273.576,153.195,53.850,-39.370,20.070
44,38300.803000,240.031,-33.566,70.450,445.751,-275.614,149.199,71.850,-37.370,34.070
45,38300.845000,241.029,-28.556,70.450,445.775,-274.537,154.147,67.850,-20.370,28.070
46,38300.885000,242.027,-21.542,74.419,446.618,-283.086,151.943,7.850,2.630,11.070
47,38300.925000,242.027,-28.556,69.457,446.651,-281.116,154.949,-24.150,7.630,-4.930
48,38300.965000,242.027,-26.552,68.465,441.910,-272.832,149.270,-39.150,2.630,-9.930
49,38301.5000,240.031,-33.566,69.457,443.761,-279.345,152.043,-31.150,6.630,-10.930
50,38301.25000,242.027,-33.566,68.465,442.804,-278.413,152.067,-9.150,-8.370,-5.930
51,38301.59000,240.031,-32.564,68.465,442.877,-273.632,154.167,5.850,-7.370,-0.930
52,38301.99000,243.025,-27.554,72.434,442.804,-278.413,152.067,-0.150,-3.370,-0.930
53,38301.139000,241.029,-28.556,70.450,442.855,-274.683,150.204,-22.150,5.630,-4.930
54,38301.180000,241.029,-30.560,73.426,447.710,-274.588,151.198,-28.150,16.630,-5.930
55,38301.220000,242.027,-28.556,69.457,444.838,-271.819,150.287,-10.150,20.630,-5.930
56,38301.268000,243.025,-26.552,73.426,444.836,-272.606,156.166,-5.150,35.630,-1.930
57,38301.300000,245.021,-15.530,77.395,443.836,-274.538,155.127,-49.150,81.630,-18.930
58,38301.326000,246.020,-26.552,72.434,440.961,-271.795,153.232,-32.150,86.630,-9.930
59,38301.359000,232.047,-33.566,70.450,442.883,-273.553,157.120,-9.150,73.630,-13.930
60,38301.399000,239.033,-19.538,70.450,442.912,-271.636,158.157,-58.150,52.630,-18.930
61,38301.446000,240.031,-27.554,74.419,442.798,-279.253,155.978,-115.150,40.630,-26.930
62,38301.486000,236.039,-34.568,71.442,443.757,-280.159,156.938,-127.150,31.630,-34.930
63,38301.520000,241.029,-37.573,68.465,443.769,-279.240,155.980,-107.150,3.630,-26.930
64,38301.560000,234.043,-36.571,73.426,447.726,-273.616,152.209,-72.150,-6.370,-15.930
65,38301.608000,241.029,-36.571,74.419,444.743,-278.412,151.087,-38.150,-32.370,-6.930
66,38301.633000,239.033,-30.560,73.426,444.798,-274.629,151.192,-24.150,-34.370,-4.930
67,38301.663000,243.025,-31.562,74.419,443.767,-278.505,148.132,-17.150,-40.370,-0.930
68,38301.703000,241.029,-28.556,74.419,442.912,-270.874,151.293,-3.150,-30.370,-4.930
69,38301.743000,240.031,-29.558,75.411,446.683,-278.411,150.106,-8.150,-22.370,-0.930
70,38301.786000,238.035,-30.560,70.450,441.955,-269.942,151.318,14.850,-12.370,4.070
71,38301.820000,240.031,-28.556,73.426,442.796,-278.518,148.130,14.850,-15.370,7.070
72,38301.864000,238.035,-27.554,72.434,445.767,-274.642,150.210,21.850,-2.370,0.070
73,38301.900000,242.027,-27.554,70.450,445.720,-278.319,154.042,2.850,-4.370,7.070
74,38301.920000,242.027,-24.548,71.442,443.867,-271.832,150.285,-14.150,-5.370,-4.930
75,38301.963000,240.031,-34.568,75.411,444.822,-272.791,149.276,-0.150,3.630,1.070
76,38302.3000,238.035,-29.558,70.450,446.681,-278.437,149.122,11.850,-0.370,2.070
77,38302.43000,240.031,-30.560,71.442,447.702,-274.693,147.261,24.850,-11.370,1.070
78,38302.86000,239.033,-29.558,72.434,443.788,-277.454,152.095,36.850,-22.370,19.070
79,38302.126000,244.023,-27.554,65.488,446.793,-270.846,150.317,37.850,-16.370,15.070
80,38302.166000,242.027,-24.548,68.465,443.729,-281.289,150.021,11.850,8.630,4.070
81,38302.180000,242.027,-25.550,66.481,443.843,-273.671,152.201,-12.150,-2.370,1.070
82,38302.220000,239.033,-29.558,70.450,442.827,-276.574,150.151,-27.150,-9.370,-5.930
83,38302.260000,242.027,-32.564,69.457,445.783,-273.670,151.220,-15.150,-6.370,-5.930
84,38302.300000,242.027,-37.573,75.411,442.768,-280.410,148.077,19.850,-14.370,8.070
85,38302.348000,240.031,-25.550,76.403,446.789,-270.898,148.348,31.850,-12.370,7.070
86,38302.380000,242.027,-27.554,73.426,444.659,-284.112,149.944,18.850,1.630,2.070
87,38302.420000,242.027,-29.558,71.442,444.810,-273.710,150.234,0.850,8.630,1.070
88,38302.466000,242.027,-29.558,72.434,439.914,-276.642,149.161,-8.150,18.630,-2.930
89,38302.486000,239.033,-30.560,70.450,445.730,-277.426,152.099,-0.150,20.630,6.070
90,38302.526000,241.029,-29.558,71.442,445.733,-276.612,147.204,-1.150,18.630,4.070
91,38302.566000,239.033,-26.552,71.442,442.889,-272.713,153.209,-8.150,11.630,5.070
92,38302.600000,241.029,-27.554,72.434,449.585,-279.262,152.055,-23.150,8.630,1.070
93,38302.649000,242.027,-29.558,66.481,442.898,-271.820,151.267,-28.150,4.630,0.070
94,38302.681000,240.031,-25.550,73.426,445.661,-282.154,151.968,-45.150,7.630,-5.930
95,38302.721000,241.029,-25.550,74.419,445.769,-274.616,151.194,-94.150,14.630,-26.930
96,38302.761000,239.033,-33.566,71.442,445.779,-273.723,149.252,-102.150,34.630,-26.930
97,38302.781000,240.031,-32.564,73.426,445.808,-271.805,150.289,-102.150,29.630,-27.930
98,38302.821000,234.043,-35.569,75.411,445.806,-271.831,149.304,-64.150,12.630,-15.930
99,38302.861000,237.037,-35.569,72.434,441.886,-274.671,151.186,-16.150,-9.370,-2.930
100,38302.901000,239.033,-31.562,72.434,443.822,-274.722,148.237,45.850,-21.370,14.070
101,38302.943000,239.033,-25.550,72.434,445.714,-278.398,151.089,54.850,-17.370,23.070
102,38302.983000,243.025,-23.546,69.457,447.706,-274.641,149.229,22.850,-17.370,5.070
103,38303.24000,242.027,-24.548,71.442,443.812,-275.615,150.179,-5.150,-0.370,2.070
104,38303.64000,241.029,-24.548,73.426,446.747,-273.735,148.269,-33.150,6.630,-6.930
105,38303.84000,237.037,-29.558,71.442,444.834,-271.871,148.318,-49.150,5.630,-9.930
106,38303.128000,240.031,-32.564,73.426,445.733,-276.612,147.204,-40.150,1.630,-11.930
107,38303.168000,240.031,-38.575,73.426,445.761,-274.721,147.257,8.850,-5.370,5.070
108,38303.208000,239.033,-33.566,73.426,443.790,-276.666,146.216,39.850,-8.370,14.070
109,38303.241000,240.031,-32.564,75.411,442.798,-278.492,149.114,57.850,-6.370,19.070
110,38303.281000,240.031,-29.558,72.434,441.882,-274.723,149.217,71.850,-8.370,22.070
111,38303.321000,240.031,-29.558,75.411,443.759,-279.371,151.058,76.850,-11.370,20.070
112,38303.363000,239.033,-30.560,74.419,445.789,-273.591,154.173,89.850,-5.370,21.070
113,38303.383000,240.031,-31.562,74.419,443.859,-272.699,153.211,104.850,-11.370,29.070
114,38303.424000,239.033,-30.560,73.426,441.820,-279.372,152.039,129.850,-22.370,36.070
115,38303.464000,240.031,-28.556,73.426,442.877,-273.632,154.167,125.850,-25.370,35.070
116,38303.504000,240.031,-27.554,74.419,442.781,-280.252,153.983,109.850,-23.370,35.070
117,38303.544000,239.033,-23.546,72.434,444.724,-280.198,154.971,59.850,-11.370,20.070
118,38303.584000,242.027,-26.552,71.442,443.820,-275.510,154.117,32.850,-13.370,10.070
119,38303.624000,240.031,-28.556,72.434,442.787,-280.173,156.936,12.850,-5.370,8.070
120,38303.664000,240.031,-28.556,72.434,443.785,-278.268,156.991,5.850,-2.370,4.070
121,38303.684000,239.033,-29.558,72.434,441.828,-279.267,155.976,1.850,-5.370,5.070
122,38303.724000,240.031,-31.562,70.450,446.765,-273.498,157.128,0.850,-21.370,3.070
123,38303.764000,243.025,-29.558,69.457,445.710,-279.212,155.984,-0.150,-11.370,2.070
124,38303.803000,241.029,-28.556,69.457,443.863,-272.646,155.180,-15.150,-2.370,-1.930
125,38303.849000,240.031,-29.558,71.442,444.765,-277.361,155.050,-20.150,-5.370,1.070
126,38303.881000,241.029,-28.556,70.450,441.863,-276.509,153.102,-22.150,-11.370,-0.930
127,38303.923000,242.027,-29.558,72.434,442.932,-269.850,154.273,-26.150,-11.370,-4.930
128,38303.943000,242.027,-30.560,70.450,440.965,-271.742,155.200,-28.150,3.630,-3.930
129,38303.984000,239.033,-29.558,72.434,442.877,-273.632,154.167,-27.150,5.630,0.070
130,38304.24000,240.031,-32.564,72.434,441.888,-274.644,152.170,-11.150,-5.370,0.070
131,38304.64000,240.031,-29.558,74.419,446.704,-277.360,154.070,-4.150,-11.370,-0.930
132,38304.113000,240.031,-26.552,72.434,444.722,-280.224,153.987,-9.150,-12.370,-1.930
133,38304.155000,240.031,-28.556,71.442,445.773,-274.563,153.163,-12.150,-10.370,3.070
134,38304.193000,239.033,-30.560,70.450,441.902,-273.699,152.197,-12.150,-10.370,-3.930
135,38304.225000,241.029,-30.560,70.450,440.963,-271.768,154.216,-9.150,-10.370,-2.930
136,38304.245000,240.031,-30.560,71.442,441.822,-279.346,153.023,2.850,-11.370,4.070
137,38304.285000,240.031,-29.558,71.442,444.855,-270.820,152.282,11.850,-16.370,-0.930
138,38304.325000,241.029,-30.560,69.457,441.849,-277.455,153.076,9.850,-22.370,1.070
139,38304.365000,241.029,-30.560,68.465,443.853,-272.778,150.258,7.850,-15.370,0.070
140,38304.405000,242.027,-31.562,70.450,445.746,-276.454,153.110,8.850,-7.370,4.070
141,38304.445000,242.027,-30.560,70.450,445.789,-273.591,154.173,9.850,-8.370,0.070
142,38304.489000,240.031,-30.560,72.434,442.818,-277.467,152.093,9.850,-7.370,4.070
143,38304.529000,240.031,-29.558,70.450,445.781,-273.696,150.236,3.850,-7.370,2.070
144,38304.545000,245.021,-31.562,68.465,443.898,-269.889,152.306,8.850,3.630,3.070
145,38304.585000,238.035,-28.556,70.450,445.838,-269.887,151.326,12.850,13.630,3.070
146,38304.625000,240.031,-28.556,69.457,443.806,-276.455,154.090,3.850,6.630,-1.930
147,38304.669000,240.031,-29.558,69.457,443.926,-267.997,152.359,-0.150,-1.370,2.070
148,38304.710000,241.029,-27.554,69.457,441.831,-278.453,151.081,-1.150,1.630,3.070
149,38304.744000,240.031,-26.552,70.450,443.845,-273.645,153.185,-17.150,10.630,-1.930
150,38304.785000,239.033,-28.556,70.450,446.696,-277.465,150.133,-23.150,8.630,-4.930
151,38304.829000,240.031,-31.562,70.450,445.796,-272.724,151.247,-6.150,0.630,-2.930
152,38304.849000,242.027,-28.556,69.457,446.677,-279.251,154.017,-6.150,6.630,1.070
153,38304.889000,243.025,-27.554,70.450,438.908,-279.414,152.033,-13.150,5.630,-3.930
154,38304.923000,241.029,-31.562,70.450,443.875,-271.727,154.222,-12.150,-1.370,1.070
155,38304.963000,240.031,-27.554,70.450,441.920,-272.700,154.192,-7.150,0.630,-2.930
156,38305.3000,243.025,-29.558,72.434,443.859,-272.699,153.211,-7.150,-4.370,-3.930
157,38305.44000,240.031,-30.560,70.450,443.761,-279.345,152.043,-0.150,-2.370,1.070
158,38305.84000,240.031,-27.554,70.450,447.738,-272.697,151.251,0.850,-2.370,2.070
159,38305.124000,241.029,-29.558,72.434,443.777,-278.373,153.053,-0.150,-0.370,3.070
160,38305.144000,239.033,-29.558,72.434,444.840,-271.792,151.271,3.850,-2.370,5.070
161,38305.184000,240.031,-31.562,70.450,445.673,-281.235,151.010,7.850,2.630,0.070
162,38305.229000,242.027,-32.564,69.457,445.812,-271.752,152.257,22.850,5.630,1.070
163,38305.269000,240.031,-32.564,71.442,443.845,-273.645,153.185,32.850,-2.370,9.070
164,38305.314000,240.031,-30.560,70.450,443.889,-270.781,154.248,35.850,-0.370,14.070
165,38305.349000,239.033,-28.556,70.450,439.898,-278.375,155.014,27.850,-8.370,8.070
166,38305.386000,239.033,-30.560,71.442,446.775,-272.605,155.186,19.850,-18.370,4.070
167,38305.433000,242.027,-29.558,69.457,442.832,-276.522,152.120,21.850,-21.370,2.070
168,38305.450000,241.029,-35.569,69.457,443.889,-270.781,154.248,46.850,-19.370,13.070
169,38305.493000,239.033,-30.560,68.465,443.820,-275.510,154.117,66.850,-36.370,13.070
170,38305.525000,240.031,-34.568,72.434,440.957,-272.609,158.127,84.850,-42.370,14.070
171,38305.564000,241.029,-28.556,67.473,445.816,-271.700,154.226,54.850,-62.370,18.070
172,38305.604000,239.033,-33.566,65.488,443.889,-270.781,154.248,37.850,-46.370,16.070
173,38305.644000,248.016,-31.562,65.488,449.573,-280.182,153.013,38.850,-38.370,6.070
174,38305.684000,244.023,-22.544,66.481,442.895,-272.634,156.162,7.850,26.630,5.070
175,38305.724000,245.021,-21.542,68.465,446.801,-270.740,154.254,-22.150,30.630,-16.930
176,38305.744000,238.035,-28.556,71.442,444.814,-273.657,152.203,-1.150,15.630,-25.930
177,38305.786000,241.029,-34.568,72.434,447.801,-268.809,155.293,38.850,22.630,-21.930
178,38305.826000,240.031,-31.562,79.380,446.818,-269.742,156.249,10.850,15.630,-57.930
179,38305.870000,204.101,-27.554,84.341,449.636,-276.294,157.055,-58.150,-153.370,-65.930
180,38305.910000,220.070,-61.620,64.496,452.595,-271.814,146.365,-38.150,-338.370,-58.930
181,38305.944000,231.049,-61.620,69.457,454.591,-268.004,146.475,180.850,-35.370,252.070
182,38305.993000,237.037,39.577,36.713,435.889,-286.206,146.921,71.850,110.630,741.070
183,38306.5000,336.842,-50.599,10.915,429.957,-293.827,147.682,-69.150,-93.370,569.070
184,38306.51000,230.051,-40.579,12.899,428.881,-301.353,149.438,67.850,-24.370,-9.930
185,38306.84000,236.039,-36.571,5.953,434.797,-294.704,147.666,82.850,-275.370,-74.930
186,38306.124000,231.049,-5.511,32.744,430.847,-298.700,141.647,-18.150,-212.370,84.070
187,38306.165000,266.979,-26.552,45.643,433.747,-299.578,142.611,146.850,-9.370,353.070
188,38306.205000,207.096,-79.656,56.558,427.782,-309.930,147.231,119.850,14.630,169.070
189,38306.245000,235.041,-62.622,33.736,425.876,-307.200,144.353,87.850,-327.370,165.070
190,38306.285000,315.883,-15.530,27.783,423.866,-311.956,144.217,-47.150,-16.370,-28.930
191,38306.305000,267.977,-8.517,51.597,427.843,-305.307,143.425,-235.150,69.630,-180.930
192,38306.353000,260.990,-49.597,24.806,426.864,-305.427,139.486,-363.150,41.630,-307.930
193,38306.385000,220.070,-39.577,29.767,428.754,-308.368,134.489,-410.150,97.630,-251.930
194,38306.426000,221.068,-30.560,30.760,432.643,-307.472,130.586,-383.150,53.630,-159.930
195,38306.466000,235.041,-29.558,28.775,435.627,-301.889,125.828,-428.150,55.630,-213.930
196,38306.508000,306.901,-78.654,92.279,438.470,-306.576,125.703,-190.150,-75.370,-291.930
197,38306.550000,298.916,-5.511,81.364,439.488,-302.885,121.872,-14.150,-91.370,-207.930
198,38306.584000,261.988,-9.519,98.233,443.341,-304.747,120.844,-169.150,88.630,-128.930
199,38306.604000,226.058,-50.599,94.264,446.437,-291.573,117.281,-308.150,59.630,-290.930
200,38306.651000,184.140,-58.614,80.372,447.385,-293.397,119.199,-161.150,41.630,-321.930
201,38306.714000,240.031,-63.624,68.465,450.369,-287.814,114.441,-171.150,-148.370,-73.930
202,38306.734000,232.047,-46.591,51.597,447.396,-291.717,111.377,-189.150,32.630,26.070
203,38306.766000,191.127,-42.583,47.628,448.368,-290.915,105.499,-210.150,-241.370,20.070
204,38306.806000,204.101,-16.532,55.566,456.084,-292.986,94.635,-294.150,-255.370,-160.930
205,38306.853000,207.096,-2.505,47.628,456.062,-294.037,90.671,-514.150,-123.370,-440.930
206,38306.885000,216.078,-41.581,65.488,466.972,-276.288,77.413,-494.150,-260.370,-487.930
207,38306.913000,277.957,-49.597,91.287,472.821,-272.817,62.765,-398.150,-417.370,-466.930
208,38306.954000,304.904,-38.575,90.295,475.776,-268.390,50.106,-224.150,-201.370,86.070
209,38306.986000,280.951,-66.630,82.357,467.808,-282.632,51.664,41.850,-32.370,571.070
210,38307.26000,306.901,-27.554,29.767,458.886,-295.916,54.230,-22.150,366.630,685.070
211,38307.66000,249.014,-7.515,7.938,450.952,-308.949,65.657,-67.150,363.630,294.070
212,38307.108000,229.053,-35.569,4.961,450.015,-306.231,61.797,-51.150,-180.370,112.070
213,38307.151000,245.021,-40.579,21.829,448.014,-310.093,59.719,88.850,-110.370,22.070
214,38307.188000,255.002,-55.609,123.039,451.031,-303.327,63.847,66.850,232.630,-134.930
215,38307.208000,204.101,-39.577,100.217,453.023,-300.331,68.851,172.850,164.630,-402.930
216,38307.251000,276.959,-61.620,88.310,454.022,-299.188,75.770,341.850,-25.370,-129.930
217,38307.300000,268.975,-115.726,113.116,456.060,-294.064,89.687,769.850,204.630,23.070
218,38307.326000,237.037,-138.771,71.442,455.230,-286.117,104.660,1195.850,334.630,73.070
219,38307.368000,197.115,-13.526,26.791,451.398,-286.276,136.125,1463.850,445.630,91.070
220,38307.408000,268.975,71.640,9.922,453.611,-270.433,162.143,1096.850,142.630,79.070
221,38307.448000,230.051,-43.585,-6.946,452.690,-268.266,173.022,896.850,161.630,-4.930
222,38307.488000,233.045,14.528,21.829,449.840,-265.207,182.938,734.850,127.630,78.070
223,38307.508000,243.025,35.569,32.744,446.982,-263.015,195.781,659.850,120.630,214.070
224,38307.548000,237.037,36.571,71.442,440.309,-255.388,201.884,530.850,65.630,251.070
225,38307.585000,259.992,15.530,79.380,439.310,-258.842,214.573,614.850,145.630,130.070
226,38307.634000,229.053,17.534,69.457,438.374,-256.860,218.561,359.850,35.630,143.070
227,38307.668000,203.103,11.523,95.256,439.392,-253.930,221.595,200.850,-154.370,239.070
228,38307.708000,210.090,-51.601,92.279,437.351,-260.630,219.438,346.850,-328.370,237.070
229,38307.746000,241.029,-35.569,92.279,431.552,-258.847,218.494,480.850,-385.370,355.070
230,38307.788000,214.082,37.573,70.450,430.597,-257.889,219.503,454.850,-181.370,304.070
231,38307.808000,214.082,-11.523,48.620,430.613,-256.917,220.513,-3.150,-35.370,111.070
232,38307.851000,273.965,-58.614,25.798,428.566,-263.695,215.403,-155.150,-210.370,128.070
233,38307.885000,236.039,-93.683,25.798,426.561,-267.611,211.357,-78.150,-36.370,67.070
234,38307.928000,370.776,-78.654,-13.891,430.526,-261.121,204.659,-4.150,-269.370,91.070
235,38307.970000,334.846,-33.566,-17.860,432.422,-263.983,202.615,-190.150,137.630,-268.930
236,38308.6000,191.127,-31.562,30.760,432.424,-263.956,203.599,-271.150,9.630,-155.930
237,38308.53000,216.078,-102.701,10.915,441.154,-263.150,193.800,-196.150,-198.370,-202.930
238,38308.73000,252.008,-46.591,-20.837,444.081,-261.376,187.953,-78.150,-209.370,-80.930
239,38308.106000,285.942,-86.669,2.977,445.195,-251.827,191.171,158.850,-114.370,-130.930
240,38308.146000,277.957,-70.638,-8.930,442.218,-256.543,193.002,321.850,-102.370,98.070
241,38308.189000,316.881,-30.560,22.822,441.140,-264.096,193.774,165.850,50.630,498.070
242,38308.229000,275.961,-49.597,68.465,431.178,-282.121,196.207,53.850,14.630,497.070
243,38308.273000,237.037,-74.646,56.558,428.292,-281.059,202.133,320.850,-70.370,261.070
244,38308.309000,258.994,23.546,79.380,426.331,-282.873,206.014,344.850,34.630,279.070
245,38308.349000,199.111,-14.528,95.256,424.406,-282.689,213.884,263.850,186.630,193.070
246,38308.378000,206.097,-30.560,86.326,419.518,-286.277,223.612,462.850,91.630,249.070
247,38308.414000,238.035,-15.530,76.403,414.730,-282.432,228.629,435.850,6.630,423.070
248,38308.448000,255.002,-5.511,65.488,416.605,-287.868,236.350,251.850,-92.370,49.070
249,38308.496000,211.088,6.513,52.589,412.726,-287.109,231.447,-11.150,-187.370,-44.930
250,38308.529000,195.119,43.585,40.682,419.445,-291.058,221.512,-280.150,-478.370,-35.930
251,38308.579000,197.115,-42.583,38.698,426.280,-285.841,201.013,-401.150,-667.370,-63.930
252,38308.606000,264.982,-47.593,80.372,432.881,-296.700,180.066,-240.150,-929.370,128.070
253,38308.646000,300.912,-47.593,70.450,432.928,-292.261,169.370,-53.150,-659.370,245.070
254,38308.666000,328.858,2.505,103.194,440.557,-300.820,163.243,-77.150,-282.370,-73.930
255,38308.716000,335.844,19.538,138.915,435.717,-299.943,163.260,-155.150,271.630,68.070
256,38308.753000,310.893,-50.599,49.612,436.614,-305.498,167.041,-471.150,568.630,-112.930
257,38308.793000,164.179,-32.564,-16.868,432.776,-302.663,169.081,-438.150,667.630,-118.930
258,38308.833000,233.045,-83.663,-31.752,431.812,-302.598,172.032,-364.150,202.630,142.070
259,38308.873000,289.934,-66.630,-26.791,420.983,-313.151,171.720,-367.150,533.630,215.070
260,38308.913000,199.111,-28.556,-11.907,417.117,-312.995,179.587,-510.150,720.630,-62.930
261,38308.946000,196.117,-49.597,22.822,410.249,-317.872,177.472,-612.150,532.630,-162.930
262,38308.966000,249.014,-74.646,56.558,412.230,-315.034,176.571,-732.150,407.630,-349.930
263,38309.14000,239.033,-98.693,74.419,418.032,-316.003,172.619,-718.150,684.630,-517.930
264,38309.46000,211.088,-100.697,86.326,417.158,-309.397,172.801,-428.150,431.630,-390.930
265,38309.86000,191.127,-26.552,91.287,421.140,-302.670,174.962,-302.150,264.630,-420.930
266,38309.126000,202.105,-8.517,92.279,427.013,-298.884,172.127,-534.150,180.630,-526.930
267,38309.166000,237.037,-4.509,94.264,437.704,-297.026,165.311,-879.150,359.630,-738.930
268,38309.206000,195.119,-18.536,106.171,445.624,-285.700,160.722,-852.150,425.630,-796.930
269,38309.277000,237.037,11.523,91.287,448.612,-279.302,151.068,-1119.150,168.630,-471.930
270,38309.286000,350.815,-93.683,111.132,449.649,-273.826,143.354,-894.150,194.630,-239.930
271,38309.314000,290.932,-73.644,94.264,442.660,-287.948,148.851,-602.150,1044.630,342.070
272,38309.348000,205.099,-5.511,23.814,435.809,-292.615,154.611,-560.150,466.630,282.070
273,38309.390000,327.860,-24.548,19.845,428.928,-299.199,159.334,-359.150,301.630,106.070
274,38309.434000,260.990,-37.573,16.868,430.958,-293.418,162.449,65.850,257.630,14.070
275,38309.478000,220.070,-29.558,9.922,429.876,-301.024,161.252,75.850,-46.370,8.070
276,38309.514000,191.127,-42.583,6.946,424.032,-302.892,165.125,125.850,-16.370,385.070
277,38309.549000,254.004,-23.546,14.884,416.173,-309.595,165.909,89.850,-14.370,413.070
278,38309.571000,278.955,-51.601,10.915,413.161,-316.308,163.750,107.850,-263.370,288.070
279,38309.610000,278.955,-55.609,98.233,415.112,-315.388,161.812,359.850,-239.370,-183.930
280,38309.648000,240.031,18.536,71.442,424.111,-297.271,163.314,449.850,-483.370,-399.930
281,38309.688000,290.932,46.591,95.256,438.709,-293.493,155.575,124.850,-643.370,-339.930
282,38309.728000,323.867,-137.769,147.845,442.731,-283.194,149.967,507.850,-667.370,-167.930
283,38309.784000,250.012,-64.626,153.798,447.636,-279.395,148.113,394.850,-302.370,-252.930
284,38309.810000,193.123,15.530,98.233,446.720,-275.626,148.217,180.850,-39.370,-203.930
285,38309.830000,221.068,-86.669,76.403,455.422,-277.473,145.229,226.850,-364.370,54.070
286,38309.870000,223.064,-45.589,57.550,449.604,-277.476,148.170,352.850,-158.370,262.070
287,38309.911000,169.170,5.511,57.550,451.495,-281.179,150.037,241.850,-330.370,92.070
288,38309.954000,198.113,-75.648,63.504,455.355,-281.413,139.218,240.850,-498.370,108.070
289,38310.0,210.090,24.548,81.364,455.337,-281.650,130.359,213.850,-533.370,-15.930
290,38310.28000,256.000,9.519,127.008,460.298,-273.281,122.731,26.850,-553.370,-159.930
291,38310.74000,337.840,-128.751,108.155,464.125,-275.486,108.906,183.850,-496.370,145.070
292,38310.114000,341.832,-161.816,114.109,465.925,-285.729,113.542,902.850,-216.370,197.070
293,38310.134000,256.000,-18.536,93.271,458.409,-271.863,141.456,1351.850,570.630,170.070
294,38310.186000,184.140,19.538,70.450,451.689,-270.985,177.862,1059.850,618.630,115.070
295,38310.208000,181.146,20.540,11.907,449.023,-255.554,191.074,1027.850,15.630,97.070
296,38310.250000,212.086,-48.595,6.946,450.909,-260.071,197.837,856.850,-48.370,190.070
297,38310.290000,275.961,11.523,4.961,451.073,-250.272,210.897,838.850,175.630,230.070
298,38310.340000,241.029,33.566,45.643,445.236,-252.823,224.586,618.850,238.630,218.070
299,38310.368000,211.088,13.526,50.605,440.429,-250.763,233.488,506.850,-90.370,194.070
300,38310.414000,258.994,8.517,74.419,443.356,-249.750,234.505,461.850,-90.370,28.070
301,38310.441000,242.027,48.595,79.380,439.603,-241.215,237.687,329.850,-71.370,86.070
302,38310.469000,270.971,2.505,82.357,439.598,-242.056,241.598,376.850,54.630,114.070
303,38310.509000,227.057,6.513,95.256,438.696,-238.103,248.591,456.850,79.630,246.070
304,38310.568000,208.094,5.511,86.326,434.765,-241.861,251.431,292.850,-95.370,255.070
305,38310.589000,234.043,-15.530,92.279,429.955,-239.067,252.484,249.850,-65.370,302.070
306,38310.630000,230.051,-17.534,79.380,427.833,-252.175,258.018,150.850,-27.370,419.070
307,38310.669000,266.979,-69.636,40.682,427.885,-247.658,250.275,-19.150,-59.370,32.070
308,38310.709000,233.045,-40.579,12.899,428.945,-242.652,260.252,119.850,176.630,-363.930
309,38310.729000,281.949,-60.618,4.961,425.078,-240.974,254.390,51.850,-161.370,29.070
310,38310.769000,237.037,-49.597,0.992,424.142,-238.230,251.514,-222.150,-87.370,127.070
311,38310.810000,227.057,-44.587,-4.961,430.856,-243.020,245.491,-343.150,-162.370,-255.930
312,38310.850000,229.053,-41.581,-7.938,437.703,-238.406,237.762,-383.150,-130.370,-407.930
313,38310.896000,220.070,-58.614,3.969,446.486,-234.605,233.948,-183.150,-123.370,-425.930
314,38310.935000,257.996,-58.614,-11.907,450.432,-229.901,231.134,-97.150,-115.370,-335.930
315,38310.969000,316.881,-19.538,34.729,450.473,-227.064,231.213,54.850,129.630,-25.930
316,38311.9000,267.977,-38.575,25.798,450.406,-231.766,232.066,-279.150,-170.370,308.070
317,38311.29000,316.881,-66.630,20.837,451.162,-245.281,220.872,-370.150,-440.370,267.070
318,38311.69000,315.883,-43.585,58.543,446.187,-253.072,214.745,-110.150,84.630,351.070
319,38311.109000,229.053,27.554,98.233,437.209,-270.139,217.206,-113.150,109.630,398.070
320,38311.149000,196.117,28.556,88.310,430.380,-272.993,220.066,-294.150,185.630,297.070
321,38311.189000,245.021,-19.538,59.535,428.422,-273.992,219.051,-399.150,26.630,150.070
322,38311.230000,257.996,-2.505,61.519,429.253,-282.700,210.941,-476.150,-29.370,21.070
323,38311.270000,200.109,-24.548,75.411,431.149,-285.562,208.898,-339.150,45.630,-50.930
324,38311.290000,203.103,-42.583,86.326,429.194,-285.773,202.003,-265.150,-50.370,59.070
325,38311.330000,226.058,32.564,103.194,431.964,-294.480,192.913,-333.150,-237.370,108.070
326,38311.370000,230.051,7.515,107.163,426.112,-295.692,185.985,-681.150,-380.370,65.070
327,38311.410000,307.899,-12.524,98.233,432.695,-307.549,163.043,-982.150,-300.370,-66.930
328,38311.449000,413.692,-13.526,67.473,437.388,-315.704,138.234,-1247.150,-64.370,-119.930
329,38311.496000,339.836,-46.591,88.310,434.372,-321.708,127.242,-1229.150,615.630,-93.930
330,38311.529000,270.971,-79.656,65.488,429.536,-320.779,129.227,-1189.150,933.630,-235.930
331,38311.578000,167.173,-48.595,-1.984,433.427,-319.857,126.308,-1059.150,538.630,-32.930
332,38311.603000,174.160,-63.624,3.969,418.695,-330.729,116.145,-843.150,296.630,227.070
333,38311.629000,240.031,-57.613,5.953,417.585,-340.225,114.895,-648.150,593.630,148.070
334,38311.669000,205.099,-80.658,37.705,412.722,-341.187,116.828,-622.150,652.630,-50.930
335,38311.710000,206.097,-84.665,62.512,407.871,-341.229,117.802,-442.150,367.630,-17.930
336,38311.750000,216.078,-86.669,62.512,412.543,-353.480,116.485,-420.150,314.630,-166.930
337,38311.790000,213.084,-91.679,63.504,417.623,-338.202,119.870,-316.150,421.630,-316.930
338,38311.842000,199.111,-90.677,95.256,421.606,-331.475,122.031,26.850,300.630,-406.930
339,38311.874000,200.109,-27.554,100.217,423.633,-325.721,124.161,-9.150,171.630,-526.930
340,38311.893000,200.109,-22.544,108.155,432.454,-319.897,125.322,-169.150,194.630,-605.930
341,38311.933000,228.055,-13.526,132.961,443.379,-302.725,125.818,-615.150,323.630,-605.930
342,38311.975000,216.078,-2.505,130.977,450.279,-294.354,117.210,-693.150,235.630,-745.930
343,38312.10000,331.852,-90.677,76.403,449.363,-290.586,117.313,-385.150,433.630,152.070
344,38312.56000,214.082,-62.622,55.566,447.267,-301.829,121.915,-113.150,345.630,350.070
345,38312.93000,265.980,-34.568,15.876,438.510,-303.765,124.797,67.850,185.630,355.070
346,38312.136000,244.023,-24.548,10.915,428.701,-311.362,128.504,231.850,98.630,175.070
347,38312.170000,229.053,-18.536,13.891,429.711,-309.299,134.465,319.850,-50.370,120.070
348,38312.190000,186.136,-4.509,21.829,428.778,-307.290,139.437,224.850,92.630,119.070
349,38312.230000,182.144,-35.569,21.829,423.899,-309.224,140.358,205.850,-217.370,292.070
350,38312.271000,288.936,-41.581,26.791,419.844,-321.493,142.961,186.850,75.630,429.070
351,38312.311000,268.975,-7.515,52.589,418.954,-316.621,148.997,34.850,66.630,-32.930
352,38312.351000,327.860,-137.769,57.550,420.901,-315.753,145.090,617.850,-781.370,106.070
353,38312.401000,366.784,7.515,106.171,424.856,-310.156,140.334,600.850,-866.370,-114.930
354,38312.431000,319.875,8.517,141.891,437.598,-300.705,133.733,675.850,-761.370,-373.930
355,38312.472000,256.998,-15.530,145.860,445.511,-290.246,132.070,275.850,-295.370,-551.930
356,38312.491000,135.236,-32.564,101.209,454.294,-286.445,128.256,97.850,17.630,-391.930
357,38312.531000,265.980,-88.673,67.473,451.501,-278.028,126.519,352.850,-298.370,61.070
358,38312.571000,184.140,-55.609,68.465,452.529,-274.967,134.474,418.850,-42.370,118.070
359,38312.613000,188.133,-3.507,45.643,450.464,-283.505,134.233,350.850,-268.370,120.070
360,38312.652000,218.074,-40.579,62.512,452.447,-279.879,127.452,327.850,-405.370,117.070
361,38312.691000,241.029,-24.548,63.504,455.299,-283.673,125.384,331.850,-503.370,9.070
362,38312.731000,281.949,-34.568,103.194,462.111,-281.817,120.529,322.850,-650.370,-6.930
363,38312.770000,329.856,-71.640,106.171,464.097,-277.378,108.853,370.850,-534.370,-8.930
364,38312.808000,351.813,-104.704,84.341,466.060,-276.299,112.821,615.850,-291.370,170.070
365,38312.835000,343.828,-51.601,116.093,461.198,-278.784,128.481,1238.850,285.630,200.070
366,38312.875000,292.928,-8.517,70.450,456.544,-267.819,152.385,1306.850,508.630,253.070
367,38312.911000,169.170,-36.571,17.860,450.716,-271.787,183.740,1348.850,346.630,240.070
368,38312.953000,149.209,24.548,8.930,450.831,-265.692,199.648,1102.850,2.630,196.070
369,38313.0,218.074,-19.538,16.868,443.137,-262.570,214.476,948.850,213.630,202.070
370,38313.35000,199.111,13.526,32.744,442.389,-248.950,229.607,972.850,195.630,156.070
371,38313.54000,261.988,35.569,32.744,438.568,-245.905,239.522,852.850,36.630,124.070
372,38313.114000,256.000,29.558,56.558,438.722,-236.999,254.524,771.850,73.630,114.070
373,38313.133000,241.029,-0.501,70.450,433.932,-233.941,265.420,669.850,97.630,130.070
374,38313.180000,258.994,-9.519,77.395,432.111,-226.272,270.549,667.850,74.630,162.070
375,38313.214000,237.037,-5.511,87.318,431.137,-227.861,282.306,675.850,169.630,65.070
376,38313.259000,220.070,-7.515,83.349,430.402,-212.534,290.600,684.850,-3.370,49.070
377,38313.293000,222.066,33.566,78.388,430.442,-210.485,296.559,627.850,-67.370,43.070
378,38313.333000,218.074,39.577,69.457,432.468,-204.757,297.705,409.850,-160.370,93.070
379,38313.353000,225.060,-1.503,52.589,433.511,-199.963,299.808,332.850,-222.370,208.070
380,38313.411000,202.105,53.605,54.574,434.450,-201.132,290.924,85.850,-349.370,327.070
381,38313.438000,209.092,11.523,62.512,438.204,-208.879,281.862,-154.150,-501.370,343.070
382,38313.473000,285.942,-23.546,74.419,438.153,-211.086,269.998,-140.150,-292.370,120.070
383,38313.513000,315.883,-8.517,85.333,441.026,-213.855,270.909,-135.150,-0.370,37.070
384,38313.561000,250.012,20.540,67.473,439.890,-224.455,263.727,-480.150,31.630,-90.930
385,38313.591000,211.088,-58.614,23.814,437.895,-227.478,257.738,-856.150,248.630,-203.930
386,38313.631000,252.008,-74.646,9.922,435.847,-234.256,252.628,-639.150,246.630,-111.930
387,38313.656000,233.045,-61.620,17.860,430.825,-245.725,250.333,-511.150,178.630,245.070
388,38313.699000,240.031,-52.603,-2.977,427.763,-255.381,244.158,-585.150,0.630,129.070
389,38313.734000,245.021,-26.552,8.930,434.662,-247.037,234.566,-500.150,-41.370,-288.930
390,38313.778000,238.035,-40.579,15.876,437.467,-253.747,229.466,-466.150,74.630,-420.930
391,38313.816000,193.123,-76.650,31.752,444.427,-242.303,229.796,-345.150,103.630,-593.930
392,38313.856000,290.932,-40.579,46.636,453.272,-233.853,223.160,-95.150,-125.370,-422.930
393,38313.896000,264.982,37.573,54.574,454.288,-230.188,218.346,-355.150,-102.370,59.070
394,38313.936000,241.029,-58.614,10.915,452.126,-243.823,204.192,-528.150,-423.370,135.070
395,38313.954000,248.016,-87.671,8.930,455.894,-249.863,188.293,-237.150,-437.370,200.070
396,38313.994000,250.012,-42.583,-17.860,451.905,-256.669,183.179,-7.150,-381.370,352.070
397,38314.36000,218.074,-9.519,-1.984,452.834,-258.731,176.238,-134.150,-148.370,186.070
398,38314.76000,247.018,-26.552,-14.884,454.714,-262.565,173.184,-228.150,-180.370,-36.930
399,38314.114000,282.947,-18.536,8.930,455.693,-261.685,170.259,-191.150,-55.370,-194.930
400,38314.151000,305.903,-14.528,-1.984,458.659,-257.099,163.506,-396.150,-110.370,-121.930
401,38314.193000,313.887,-49.597,-18.853,460.537,-260.198,152.603,-638.150,-256.370,67.070
402,38314.233000,334.846,-98.693,-0.992,455.362,-282.096,149.035,-82.150,-204.370,565.070
403,38314.253000,331.852,-51.601,46.636,446.508,-290.651,151.733,-47.150,122.630,649.070
404,38314.293000,272.967,-51.601,68.465,437.768,-291.589,156.610,65.850,598.630,202.070
405,38314.333000,190.129,5.511,83.349,431.817,-301.757,168.121,-71.150,402.630,86.070
406,38314.394000,220.070,5.511,61.519,430.898,-298.803,173.119,-314.150,319.630,-27.930
407,38314.413000,255.002,-55.609,59.535,427.947,-301.655,174.019,-240.150,234.630,-159.930
408,38314.453000,216.078,-70.638,77.395,428.920,-302.376,181.869,32.850,390.630,-96.930
409,38314.493000,187.135,-3.507,77.395,428.898,-304.188,184.769,36.850,202.630,-45.930
410,38314.518000,238.035,-14.528,64.496,430.940,-297.488,186.926,-60.150,91.630,-56.930
411,38314.556000,234.043,-23.546,75.411,427.997,-300.235,191.763,-53.150,103.630,-139.930
412,38314.598000,277.957,-39.577,69.457,430.021,-294.534,191.925,67.850,53.630,-196.930
413,38314.638000,234.043,-31.562,68.465,429.068,-293.549,193.918,-21.150,-31.370,-156.930
414,38314.684000,226.058,28.556,42.667,434.943,-289.737,192.067,-354.150,81.630,-147.930
415,38314.718000,273.965,-20.540,23.814,435.839,-294.530,188.984,-326.150,227.630,-244.930
416,38314.758000,214.082,-2.505,32.744,435.974,-285.100,188.263,-328.150,143.630,-194.930
417,38314.797000,233.045,29.558,37.705,434.876,-293.677,186.055,-609.150,-0.370,-102.930
418,38314.817000,242.027,-17.534,34.729,438.758,-292.100,172.335,-742.150,-81.370,-217.930
419,38314.865000,228.055,11.523,42.667,440.568,-299.139,155.421,-896.150,-150.370,-159.930
420,38314.895000,238.035,46.591,48.620,441.365,-309.056,137.442,-1122.150,-114.370,6.070
421,38314.940000,319.875,-43.585,112.124,438.413,-310.385,124.613,-1212.150,141.630,37.070
422,38314.975000,257.996,-167.828,89.302,440.396,-306.759,117.832,-939.150,708.630,-556.930
423,38315.15000,211.088,-8.517,23.814,443.276,-308.662,115.817,-787.150,356.630,-216.930
424,38315.55000,250.012,-49.597,32.744,437.399,-311.739,109.819,-780.150,228.630,88.070
425,38315.95000,265.980,-105.706,45.643,437.284,-318.595,100.776,-762.150,249.630,-171.930
426,38315.130000,239.033,-44.587,31.752,435.307,-320.619,96.782,-584.150,331.630,-84.930
427,38315.158000,195.119,-63.624,47.628,434.431,-314.040,95.980,-476.150,184.630,-59.930
428,38315.196000,213.084,-83.663,44.651,436.276,-319.871,88.936,-369.150,96.630,-105.930
429,38315.239000,196.117,-52.603,55.566,439.184,-319.882,86.973,-275.150,4.630,-221.930
430,38315.273000,175.158,-28.556,70.450,444.194,-308.571,83.362,-232.150,-43.370,-295.930
431,38315.313000,213.084,-32.564,97.240,448.137,-303.893,79.564,-203.150,-169.370,-310.930
432,38315.358000,335.844,5.511,70.450,452.066,-299.400,68.876,-522.150,-189.370,-90.930
433,38315.398000,294.924,-73.644,49.612,454.913,-302.511,56.991,-535.150,-43.370,-59.930
434,38315.419000,267.977,-56.611,60.527,454.034,-295.958,55.204,-240.150,104.630,-65.930
435,38315.453000,213.084,-41.581,51.597,449.167,-296.972,55.168,-182.150,89.630,-54.930
436,38315.493000,207.096,-42.583,50.605,449.093,-301.780,52.083,-253.150,-42.370,-87.930
437,38315.533000,250.012,-45.589,45.643,456.934,-295.313,42.440,-182.150,-329.370,-37.930
438,38315.573000,241.029,-45.589,45.643,454.037,-293.621,36.581,-93.150,-186.370,-25.930
439,38315.613000,230.051,-46.591,59.535,458.895,-293.500,38.559,36.850,-217.370,-147.930
440,38315.653000,227.057,-63.624,56.558,459.847,-293.723,29.702,167.850,-340.370,-213.930
441,38315.698000,246.020,-49.597,43.659,466.801,-282.358,27.079,352.850,-219.370,-135.930
442,38315.718000,285.942,-43.585,64.496,466.752,-286.062,29.927,434.850,-218.370,-93.930
443,38315.759000,316.881,-26.552,38.698,465.858,-281.242,33.994,458.850,-37.370,-7.930
444,38315.799000,256.998,-15.530,51.597,461.991,-281.087,41.861,344.850,55.630,179.070
445,38315.839000,285.942,-32.564,61.519,461.835,-292.329,45.482,172.850,51.630,120.070
446,38315.876000,256.998,-39.577,48.620,460.956,-286.537,50.560,212.850,157.630,114.070
447,38315.916000,243.025,-89.675,47.628,457.931,-295.719,62.103,460.850,240.630,230.070
448,38315.956000,222.066,-9.519,74.419,458.885,-298.226,73.838,724.850,301.630,240.070
449,38315.975000,204.101,43.585,37.705,455.072,-295.076,87.690,471.850,-4.370,244.070
450,38316.15000,169.170,3.507,25.798,455.970,-300.604,92.455,383.850,-7.370,115.070
451,38316.54000,234.043,5.511,2.977,454.050,-298.819,89.551,-86.150,-185.370,29.070
452,38316.95000,226.058,29.558,3.969,451.022,-306.504,86.381,-202.150,9.630,25.070
453,38316.135000,279.953,-142.779,156.775,452.975,-305.558,85.427,379.850,-197.370,78.070
454,38316.175000,275.961,-89.675,92.279,451.038,-306.294,94.256,599.850,19.630,162.070
455,38316.215000,197.115,109.714,56.558,445.281,-302.436,100.255,330.850,119.630,320.070
456,38316.255000,330.854,-31.562,8.930,442.287,-308.151,100.091,-181.150,-84.370,210.070
457,38316.275000,268.975,-67.632,-1.984,440.318,-310.070,100.035,104.850,158.630,-173.930
458,38316.315000,228.055,-6.513,36.713,445.242,-306.008,108.025,306.850,138.630,124.070
459,38316.355000,203.103,-2.505,42.667,437.422,-310.662,114.767,109.850,131.630,228.070
460,38316.396000,222.066,-44.587,21.829,434.330,-323.022,113.435,-19.150,9.630,282.070
461,38316.435000,233.045,-46.591,18.853,432.404,-322.078,114.441,31.850,-147.370,110.070
462,38316.484000,241.029,-18.536,8.930,433.383,-321.198,111.517,49.850,-214.370,221.070
463,38316.519000,237.037,-32.564,7.938,428.464,-325.181,106.480,-18.150,-209.370,251.070
464,38316.559000,270.971,-49.597,23.814,426.480,-328.071,105.412,2.850,-68.370,90.070
465,38316.579000,306.901,-62.622,61.519,427.448,-328.084,104.430,101.850,-85.370,-102.930
466,38316.619000,244.023,17.534,50.605,431.401,-322.513,98.690,-223.150,-13.370,-319.930
467,38316.656000,224.062,24.548,66.481,434.232,-327.358,92.658,-479.150,13.630,-415.930
468,38316.696000,226.058,-138.771,75.411,446.141,-308.465,86.319,-261.150,-125.370,-552.930
469,38316.738000,257.996,-62.622,47.628,449.057,-307.609,81.429,-149.150,-331.370,-382.930
470,38316.779000,244.023,-44.587,36.713,454.929,-303.062,71.729,-87.150,-253.370,93.070
471,38316.819000,199.111,-66.630,61.519,450.047,-305.048,70.682,-97.150,-79.370,-3.930
472,38316.854000,175.158,-43.585,46.636,454.017,-298.479,66.937,-23.150,-164.370,-105.930
473,38316.874000,181.146,-23.546,49.612,453.962,-301.500,59.968,-39.150,-259.370,-221.930
474,38316.914000,229.053,-37.573,79.380,461.894,-289.255,54.420,-50.150,-279.370,-332.930
475,38316.956000,265.980,-16.532,102.202,466.802,-284.642,47.672,-127.150,-277.370,-297.930
476,38316.994000,322.869,-17.534,110.140,470.806,-275.342,40.068,-313.150,-171.370,-334.930
477,38317.34000,352.811,-69.636,104.186,472.704,-277.416,32.145,-170.150,-93.370,-215.930
478,38317.80000,320.873,-118.732,126.016,473.736,-274.302,42.069,631.850,365.630,321.070
479,38317.125000,215.080,-57.613,84.341,465.807,-288.805,69.194,854.850,582.630,511.070
480,38317.155000,218.074,13.526,4.961,454.135,-293.880,97.557,676.850,833.630,690.070
481,38317.175000,235.041,71.640,-7.938,442.408,-301.977,118.952,500.850,409.630,293.070
482,38317.215000,204.101,-43.585,-38.698,441.425,-302.910,119.908,284.850,-182.370,293.070
483,38317.255000,231.049,-148.791,45.643,438.443,-308.467,125.650,598.850,68.630,277.070
484,38317.301000,286.940,-156.806,60.527,433.688,-303.413,140.537,1095.850,-46.370,225.070
485,38317.341000,272.967,-28.556,-2.977,432.768,-302.007,158.279,1209.850,-3.370,103.070
486,38317.376000,263.984,101.699,25.798,432.857,-297.777,175.118,758.850,103.630,39.070
487,38317.416000,263.984,11.523,39.690,433.977,-288.149,181.290,473.850,-50.370,-84.930
488,38317.456000,237.037,-29.558,34.729,435.936,-287.123,183.289,429.850,29.630,-52.930
489,38317.476000,232.047,7.515,56.558,436.903,-287.923,188.186,406.850,-58.370,62.070
490,38317.518000,221.068,-8.517,56.558,434.011,-286.940,191.159,351.850,-89.370,98.070
491,38317.556000,208.094,2.505,53.581,436.102,-277.298,197.333,375.850,-163.370,-58.930
492,38317.596000,204.101,1.503,56.558,432.265,-274.464,199.372,299.850,-126.370,68.070
493,38317.638000,155.197,-4.509,82.357,429.303,-277.447,195.350,247.850,-294.370,399.070
494,38317.685000,290.932,-106.708,141.891,431.294,-273.716,192.506,296.850,-294.370,58.070
495,38317.719000,429.661,-16.532,32.744,439.096,-270.822,190.633,487.850,-251.370,-188.930
496,38317.739000,270.971,1.503,30.760,438.106,-272.622,194.515,192.850,118.630,-38.930
497,38317.780000,210.090,-47.593,15.876,442.061,-267.024,189.760,-145.150,-334.370,-30.930
498,38317.819000,290.932,-77.652,1.984,441.095,-266.985,191.726,117.850,166.630,115.070
499,38317.860000,215.080,-29.558,0.992,439.059,-273.606,192.522,-8.150,45.630,200.070
500,38317.895000,176.156,-52.603,7.938,435.047,-282.251,189.324,-144.150,3.630,75.070
501,38317.941000,186.136,-41.581,3.969,440.028,-273.619,191.540,-54.150,34.630,-50.930
502,38317.975000,212.086,-21.542,-10.915,440.069,-270.782,191.619,-114.150,90.630,-514.930
503,38318.16000,229.053,-0.501,-7.938,449.007,-255.765,183.199,-471.150,44.630,-590.930
504,38318.36000,334.846,-103.703,-0.992,454.832,-254.895,177.332,-538.150,-178.370,-614.930
505,38318.76000,358.799,-60.618,26.791,461.762,-245.368,176.625,-46.150,270.630,-93.930
506,38318.116000,256.000,-70.638,13.891,452.783,-262.461,178.101,138.850,-120.370,634.070
507,38318.156000,278.955,-74.646,56.558,445.894,-269.150,178.887,384.850,-150.370,610.070
508,38318.195000,250.012,-24.548,100.217,438.023,-277.534,187.493,444.850,124.630,426.070
509,38318.235000,192.125,91.679,73.426,435.112,-278.337,194.351,371.850,47.630,512.070
510,38318.276000,212.086,6.513,58.543,426.180,-292.513,198.860,186.850,-193.370,562.070
511,38318.318000,270.971,-12.524,46.636,427.148,-291.764,191.014,-133.150,-537.370,116.070
512,38318.338000,220.070,9.519,65.488,431.916,-296.634,183.017,-90.150,-268.370,-43.930
513,38318.379000,163.181,-57.613,80.372,426.016,-301.550,178.936,175.850,-388.370,312.070
514,38318.417000,188.133,-32.564,94.264,427.856,-307.434,169.923,294.850,-614.370,393.070
515,38318.459000,282.947,-22.544,122.047,424.879,-311.389,164.890,199.850,-530.370,237.070
516,38318.503000,419.680,-11.523,114.109,428.742,-311.597,155.055,14.850,-421.370,87.070
517,38318.537000,425.669,11.523,83.349,432.634,-310.649,153.120,-353.150,213.630,-137.930
518,38318.578000,318.877,-45.589,34.729,426.851,-307.895,153.187,-554.150,756.630,-90.930
519,38318.618000,223.064,-112.720,-5.953,426.903,-305.688,165.052,-563.150,907.630,-178.930
520,38318.636000,227.057,-58.614,-34.729,423.948,-309.354,170.847,-394.150,634.630,-43.930
521,38318.676000,187.135,-40.579,-16.868,413.189,-315.940,177.531,-198.150,640.630,265.070
522,38318.725000,190.129,-46.591,-8.930,404.436,-318.585,189.246,-397.150,781.630,13.070
523,38318.759000,184.140,-61.620,5.953,400.486,-323.341,190.090,-470.150,706.630,-213.930
524,38318.798000,233.045,-52.603,44.651,402.460,-322.131,198.980,-432.150,519.630,-213.930
525,38318.838000,249.014,-68.634,44.651,389.660,-334.630,197.627,-664.150,635.630,-101.930
526,38318.878000,228.055,-60.618,73.426,396.573,-326.102,194.925,-657.150,540.630,-170.930
527,38318.918000,245.021,-25.550,126.016,394.449,-338.475,192.610,-732.150,376.630,-132.930
528,38318.942000,228.055,-43.585,129.984,389.617,-336.732,189.700,-791.150,544.630,-112.930
529,38318.976000,162.183,-86.669,88.310,386.563,-346.282,187.462,-921.150,704.630,-163.930
530,38319.16000,207.096,-68.634,80.372,387.612,-339.886,178.789,-474.150,169.630,-398.930
531,38319.59000,257.996,-52.603,76.403,394.389,-340.788,176.808,-396.150,102.630,-407.930
532,38319.99000,228.055,-71.640,83.349,401.366,-327.584,172.269,-326.150,148.630,-461.930
533,38319.139000,171.166,-69.636,78.388,408.205,-323.837,167.467,-289.150,49.630,-456.930
534,38319.181000,151.205,-26.552,77.395,416.086,-315.322,163.782,-328.150,-67.370,-577.930
535,38319.201000,172.164,-27.554,85.333,428.759,-310.599,157.050,-332.150,-190.370,-804.930
536,38319.246000,265.980,21.542,117.085,448.510,-285.239,141.067,-508.150,-421.370,-1034.930
537,38319.281000,320.873,-102.701,88.310,462.153,-279.742,127.472,-104.150,-341.370,-286.930
538,38319.325000,294.924,-100.697,77.395,450.401,-286.631,123.327,115.850,-294.370,553.070
539,38319.359000,288.936,-43.585,61.519,445.373,-298.941,124.943,285.850,-13.370,613.070
540,38319.399000,293.926,9.519,18.853,435.700,-297.869,134.793,401.850,172.630,434.070
541,38319.438000,256.000,-9.519,25.798,433.651,-306.197,142.426,391.850,95.630,245.070
542,38319.478000,246.020,-28.556,17.860,431.781,-302.231,150.402,524.850,-23.370,8.070
543,38319.516000,189.131,-9.519,23.814,429.883,-300.157,158.326,498.850,93.630,155.070
544,38319.544000,194.121,-2.505,22.822,425.956,-303.863,163.134,360.850,-81.370,425.070
545,38319.578000,212.086,-15.530,13.891,420.999,-311.418,165.866,156.850,-148.370,522.070
546,38319.620000,267.977,-29.558,5.953,411.160,-320.171,161.672,-16.150,-103.370,397.070
547,38319.660000,307.899,-44.587,88.310,416.992,-319.222,158.757,261.850,-356.370,-84.930
548,38319.698000,243.025,-26.552,42.667,427.750,-313.423,157.953,209.850,-526.370,-515.930
549,38319.740000,282.947,81.659,44.651,437.628,-299.549,141.634,-194.150,-594.370,-500.930
550,38319.780000,342.830,-100.697,125.023,448.434,-289.285,131.118,5.850,-448.370,-343.930
551,38319.800000,187.135,-43.585,102.202,456.258,-284.579,126.344,-100.150,-43.370,-401.930
552,38319.840000,180.148,-57.613,71.442,453.260,-290.346,124.212,-177.150,-212.370,-289.930
553,38319.879000,231.049,-47.593,47.628,460.227,-277.275,114.751,30.850,-592.370,-13.930
554,38319.926000,196.117,-4.509,39.690,460.018,-289.963,99.643,-87.150,-433.370,113.070
555,38319.960000,192.125,-23.546,49.612,464.008,-280.846,85.150,-192.150,-518.370,-79.930
556,38320.3000,208.094,-21.542,44.651,464.947,-282.015,76.266,-181.150,-642.370,-111.930
557,38320.50000,237.037,-31.562,89.302,472.607,-287.107,58.433,-169.150,-731.370,-163.930
558,38320.78000,324.866,3.507,116.093,470.694,-282.933,38.873,-314.150,-645.370,-119.930
559,38320.98000,421.676,-126.748,101.209,476.449,-287.579,38.754,248.850,116.630,123.070
560,38320.139000,347.821,-158.810,116.093,466.878,-282.119,71.349,924.850,974.630,210.070
561,38320.178000,258.994,-4.509,37.705,461.069,-284.302,98.819,827.850,1030.630,271.070
562,38320.224000,228.055,-31.562,-30.760,454.264,-288.362,127.219,804.850,780.630,192.070
563,38320.259000,235.041,6.513,-18.853,453.489,-277.395,149.162,599.850,587.630,-84.930
564,38320.299000,186.136,18.536,-18.853,450.498,-285.368,170.575,576.850,584.630,-48.930
565,38320.339000,187.135,-18.536,14.884,449.683,-275.688,179.695,592.850,229.630,53.070
566,38320.379000,250.012,-53.605,79.380,447.793,-273.509,191.556,611.850,37.630,100.070
567,38320.404000,257.996,11.523,65.488,447.886,-268.465,203.500,873.850,22.630,-62.930
568,38320.438000,246.020,52.603,60.527,448.071,-256.854,213.659,883.850,-12.370,26.070
569,38320.479000,224.062,38.575,84.341,445.289,-249.067,223.707,509.850,34.630,138.070
570,38320.519000,264.982,27.554,58.543,443.395,-246.178,226.735,361.850,-79.370,53.070
571,38320.559000,230.051,14.528,64.496,443.427,-244.234,228.757,306.850,83.630,78.070
572,38320.605000,254.004,-29.558,68.465,444.384,-245.928,235.596,346.850,2.630,77.070
573,38320.640000,217.076,-47.593,76.403,437.700,-239.220,242.657,621.850,43.630,182.070
574,38320.686000,205.099,15.530,96.248,436.745,-239.023,250.530,666.850,-39.370,334.070
575,38320.700000,174.160,40.579,90.295,433.832,-239.852,256.403,513.850,-159.370,404.070
576,38320.740000,188.133,-11.523,86.326,433.772,-243.687,254.329,276.850,-423.370,505.070
577,38320.780000,270.971,-36.571,67.473,429.750,-252.464,246.210,203.850,-444.370,546.070
578,38320.820000,326.862,-40.579,73.426,430.724,-251.636,241.316,161.850,-445.370,306.070
579,38320.861000,325.864,8.517,69.457,431.671,-252.699,236.370,-94.150,-151.370,-190.930
580,38320.898000,256.000,-10.521,45.643,431.653,-253.698,234.375,-151.150,190.630,111.070
581,38320.939000,209.092,-79.656,3.969,429.665,-256.641,231.339,-287.150,-104.370,60.070
582,38320.984000,232.047,-55.609,12.899,430.502,-266.031,233.047,-181.150,167.630,186.070
583,38321.10000,189.131,-29.558,12.899,422.548,-278.566,227.767,-257.150,1.630,290.070
584,38321.39000,209.092,-39.577,-1.984,425.487,-275.872,220.961,-329.150,-86.370,-35.930
585,38321.79000,227.057,-53.605,3.969,426.406,-278.827,215.962,-397.150,72.630,-372.930
586,38321.119000,222.066,-74.646,0.992,438.237,-265.555,211.433,-309.150,-79.370,-468.930
587,38321.165000,317.879,-91.679,-28.775,442.082,-267.522,206.467,-91.150,-269.370,-525.930
588,38321.199000,338.838,-90.677,0.992,447.204,-248.620,204.051,324.850,-19.370,-287.930
589,38321.250000,298.916,-47.593,46.636,448.141,-251.338,207.911,351.850,18.630,185.070
590,38321.259000,260.990,-73.644,23.814,443.133,-262.623,212.507,195.850,-261.370,550.070
591,38321.299000,247.018,-28.556,84.341,441.223,-260.706,214.524,582.850,-102.370,445.070
592,38321.339000,229.053,76.650,87.318,431.391,-270.142,220.147,304.850,54.630,435.070
593,38321.386000,201.107,54.607,59.535,426.483,-273.993,220.031,21.850,-2.370,554.070
594,38321.420000,200.109,-2.505,61.519,423.361,-287.510,210.798,-242.150,-461.370,481.070
595,38321.464000,263.984,-10.521,33.736,425.174,-295.285,201.732,-353.150,-364.370,30.070
596,38321.501000,200.109,-10.521,68.465,426.128,-295.482,193.859,-349.150,-226.370,66.070
597,38321.556000,229.053,-73.644,106.171,428.963,-299.513,182.932,-217.150,-291.370,189.070
598,38321.564000,266.979,-42.583,136.930,426.006,-302.443,180.879,-10.150,-167.370,107.070
599,38321.604000,363.789,8.517,128.000,425.915,-308.222,176.783,-92.150,-147.370,120.070
600,38321.644000,429.661,-23.546,101.209,422.034,-307.490,170.895,-488.150,109.630,-39.930
601,38321.684000,331.852,-49.597,69.457,420.095,-307.491,171.876,-728.150,878.630,-227.930
602,38321.724000,193.123,-104.704,23.814,417.132,-312.023,180.597,-690.150,785.630,-160.930
603,38321.770000,223.064,-23.546,-26.791,418.010,-317.815,175.520,-590.150,437.630,-161.930
604,38321.799000,219.072,-9.519,-26.791,412.148,-321.469,183.277,-557.150,596.630,-10.930
605,38321.839000,193.123,-38.575,-15.876,413.120,-320.668,177.399,-556.150,565.630,-156.930
606,38321.859000,199.111,-77.652,-11.907,413.111,-322.322,186.206,-458.150,607.630,-281.930
607,38321.899000,202.105,-80.658,39.690,409.319,-316.598,190.293,-370.150,456.630,-306.930
608,38321.939000,218.074,-52.603,73.426,405.353,-322.327,190.127,-519.150,516.630,-149.930
609,38321.979000,259.992,-31.562,99.225,402.410,-324.312,188.099,-688.150,567.630,35.070
610,38322.24000,228.055,-41.581,117.085,391.596,-334.681,194.678,-755.150,841.630,-83.930
611,38322.86000,212.086,-54.607,123.039,391.562,-336.651,191.672,-815.150,610.630,-155.930
612,38322.102000,181.146,-68.634,87.318,388.555,-342.524,185.602,-724.150,540.630,-208.930
613,38322.144000,227.057,-92.681,64.496,394.424,-338.791,180.798,-536.150,226.630,-287.930
614,38322.169000,209.092,-82.661,86.326,396.350,-339.735,179.791,-243.150,-12.370,-330.930
615,38322.199000,205.099,-59.616,95.256,405.206,-331.154,178.078,-307.150,170.630,-448.930
616,38322.243000,175.158,-20.540,84.341,408.131,-329.405,171.246,-394.150,240.630,-485.930
617,38322.281000,163.181,-44.587,89.302,415.114,-316.123,169.660,-307.150,151.630,-519.930
618,38322.321000,174.160,1.503,83.349,427.817,-309.483,163.964,-492.150,-120.370,-851.930
619,38322.366000,243.025,17.534,111.132,438.727,-291.733,150.706,-543.150,-163.370,-709.930
620,38322.403000,334.846,-135.765,119.070,447.543,-285.201,143.034,-164.150,-42.370,-422.930
621,38322.442000,319.875,-87.671,108.155,446.547,-287.079,143.963,20.850,-30.370,221.070
622,38322.462000,232.047,-84.665,83.349,439.645,-295.476,151.587,236.850,138.630,487.070
623,38322.501000,265.980,21.542,18.853,435.786,-294.453,156.527,355.850,3.630,284.070
624,38322.541000,239.033,19.538,31.752,432.746,-303.819,161.179,408.850,41.630,262.070
625,38322.581000,226.058,7.515,27.783,434.810,-296.069,167.300,246.850,-109.370,-59.930
626,38322.621000,183.142,-39.577,19.845,433.861,-294.270,164.398,188.850,-151.370,104.070
627,38322.665000,197.115,-63.624,-1.984,426.035,-299.003,168.187,343.850,-194.370,456.070
628,38322.703000,236.039,-50.599,7.938,422.973,-309.420,168.876,403.850,-175.370,647.070
629,38322.744000,292.928,-12.524,25.798,414.122,-317.949,172.558,279.850,-255.370,409.070
630,38322.767000,302.908,-22.544,52.589,414.206,-312.249,173.701,301.850,-353.370,-61.930
631,38322.805000,303.906,46.591,62.512,424.914,-308.631,162.016,-81.150,-535.370,-532.930
632,38322.845000,313.887,-44.587,128.000,438.664,-296.382,153.527,138.850,-519.370,-327.930
633,38322.883000,225.060,-55.609,133.953,443.572,-291.770,146.779,123.850,-498.370,-340.930
634,38322.923000,190.129,-27.554,100.217,453.371,-284.304,138.150,-53.150,-444.370,-344.930
635,38322.962000,202.105,-78.654,75.411,458.247,-281.635,129.380,105.850,-647.370,-287.930
636,38323.4000,235.041,-39.577,71.442,461.123,-282.829,118.532,312.850,-620.370,160.070
637,38323.45000,189.131,-20.540,83.349,464.966,-284.824,112.582,258.850,-356.370,159.070
638,38323.65000,175.158,-10.521,90.295,463.130,-276.577,103.955,68.850,-364.370,4.070
639,38323.105000,229.053,-4.509,107.163,462.071,-282.344,100.842,41.850,-564.370,-237.930
640,38323.157000,306.901,-62.622,138.915,468.877,-280.567,93.034,427.850,-392.370,72.070
641,38323.185000,387.743,-127.750,115.101,467.013,-276.522,103.964,944.850,-81.370,133.070
642,38323.230000,410.698,-116.728,97.240,461.414,-264.467,133.798,1516.850,701.630,101.070
643,38323.265000,270.971,-9.519,61.519,462.324,-272.148,164.077,1511.850,943.630,234.070
644,38323.305000,157.193,-5.511,-17.860,451.955,-255.250,200.924,1371.850,641.630,197.070
645,38323.325000,165.177,15.530,2.977,448.252,-245.296,221.850,1024.850,282.630,-164.930
646,38323.364000,229.053,-14.528,-6.946,451.399,-231.463,242.896,819.850,238.630,-85.930
647,38323.405000,203.103,-15.530,3.969,441.782,-227.370,259.715,1025.850,330.630,155.070
648,38323.445000,210.090,35.569,39.690,439.051,-215.853,267.899,768.850,131.630,316.070
649,38323.484000,240.031,60.618,55.566,433.097,-225.286,271.561,533.850,-27.370,410.070
650,38323.524000,280.951,25.550,78.388,432.070,-229.870,277.334,216.850,-15.370,205.070
651,38323.564000,279.953,-4.509,86.326,430.207,-225.038,282.383,203.850,89.630,63.070
652,38323.604000,263.984,-1.503,88.310,435.086,-223.104,281.462,280.850,19.630,-129.930
653,38323.624000,228.055,19.538,84.341,436.220,-212.531,287.659,239.850,93.630,-83.930
654,38323.664000,222.066,-2.505,93.271,434.305,-211.455,293.588,186.850,105.630,38.070
655,38323.706000,219.072,-6.513,81.364,428.542,-207.676,296.634,157.850,144.630,139.070
656,38323.749000,222.066,-14.528,76.403,423.612,-213.339,299.419,188.850,109.630,191.070
657,38323.789000,239.033,-7.515,71.442,421.757,-207.640,301.541,255.850,-41.370,212.070
658,38323.831000,201.107,17.534,67.473,421.610,-217.990,303.221,200.850,-103.370,235.070
659,38323.864000,176.156,9.519,90.295,420.690,-214.273,301.355,79.850,-217.370,319.070
660,38323.911000,167.173,-20.540,86.326,416.605,-227.699,296.057,-43.150,-239.370,356.070
661,38323.926000,284.943,-9.519,36.713,427.319,-224.002,287.325,-162.150,-503.370,225.070
662,38323.966000,315.883,42.583,69.457,425.169,-236.718,272.214,-531.150,-284.370,218.070
663,38324.6000,322.869,-33.566,75.411,429.916,-242.639,260.254,-694.150,-63.370,-120.930
664,38324.49000,249.014,-79.656,29.767,434.509,-258.988,247.020,-649.150,-367.370,-31.930
665,38324.83000,290.932,-79.656,-16.868,438.501,-249.845,233.510,-521.150,-330.370,-193.930
666,38324.126000,205.099,-59.616,4.961,439.295,-261.337,227.290,-365.150,-44.370,207.070
667,38324.162000,222.066,-43.585,-15.876,435.353,-264.466,218.344,-457.150,-183.370,155.070
668,38324.203000,198.113,-49.597,-10.915,436.240,-269.365,211.324,-312.150,-86.370,-184.930
669,38324.223000,265.980,-74.646,-34.729,440.239,-260.904,207.632,-207.150,-74.370,-385.930
670,38324.264000,258.994,-73.644,-41.674,446.055,-260.927,203.706,-40.150,-70.370,-278.930
671,38324.303000,337.840,-46.591,-18.853,447.055,-258.996,204.745,121.850,-291.370,-87.930
672,38324.342000,299.914,-11.523,34.729,446.010,-264.578,208.523,93.850,178.630,497.070
673,38324.382000,235.041,-143.781,11.907,437.053,-279.070,201.219,-77.150,-151.370,597.070
674,38324.427000,275.961,-51.601,101.209,438.071,-276.141,204.253,315.850,-137.370,256.070
675,38324.463000,304.904,64.626,97.240,432.240,-277.090,207.168,196.850,138.630,261.070
676,38324.503000,200.109,-0.501,114.109,427.304,-283.594,213.864,224.850,116.630,290.070
677,38324.523000,211.088,18.536,87.318,420.433,-289.285,216.645,109.850,-81.370,388.070
678,38324.562000,247.018,-1.503,72.434,422.296,-294.117,211.596,-76.150,-105.370,72.070
679,38324.601000,200.109,-15.530,74.419,419.321,-298.046,207.547,-203.150,-55.370,-41.930
680,38324.664000,204.101,6.513,97.240,420.254,-300.055,202.575,-317.150,-77.370,96.070
681,38324.686000,252.008,-47.593,119.070,414.235,-312.642,194.346,-442.150,-102.370,10.070
682,38324.726000,355.805,-18.536,141.891,421.141,-304.193,188.691,-484.150,45.630,53.070
683,38324.766000,404.710,31.562,81.364,419.084,-311.864,185.523,-804.150,348.630,-226.930
684,38324.805000,319.875,-87.671,82.357,418.139,-310.013,184.589,-969.150,997.630,-544.930
685,38324.825000,229.053,-42.583,-14.884,420.027,-313.742,185.472,-991.150,816.630,-502.930
686,38324.865000,222.066,-14.528,-2.977,419.066,-312.863,183.528,-730.150,520.630,-15.930
687,38324.905000,228.055,-33.566,-5.953,414.101,-320.523,182.323,-798.150,537.630,19.070
688,38324.946000,189.131,-48.595,-1.984,408.232,-323.495,180.263,-841.150,570.630,-111.930
689,38324.982000,197.115,-60.618,5.953,409.082,-331.178,175.133,-868.150,481.630,-294.930
690,38325.26000,184.140,-75.648,22.822,409.023,-334.252,166.195,-660.150,333.630,-241.930
691,38325.65000,177.154,-94.685,49.612,409.978,-335.210,165.186,-549.150,281.630,-213.930
692,38325.105000,213.084,-50.599,106.171,415.927,-325.829,159.555,-581.150,230.630,-491.930
693,38325.124000,337.840,-36.571,130.977,419.705,-332.499,155.442,-664.150,182.630,-111.930
694,38325.163000,205.099,-48.595,101.209,412.893,-333.593,153.433,-1025.150,913.630,-0.930
695,38325.203000,160.187,-72.642,90.295,410.829,-341.344,147.312,-838.150,330.630,-264.930
696,38325.244000,196.117,-66.630,81.364,414.863,-330.125,140.746,-378.150,5.630,-386.930
697,38325.282000,256.998,-48.595,55.566,421.610,-332.184,130.864,-385.150,-110.370,-443.930
698,38325.326000,174.160,-59.616,81.364,428.587,-318.980,126.324,-380.150,-17.370,-369.930
699,38325.367000,158.191,-74.646,79.380,440.246,-317.135,118.527,-80.150,-261.370,-380.930
700,38325.388000,149.209,-63.624,68.465,442.331,-306.810,114.883,-30.150,-90.370,-420.930
701,38325.428000,207.096,22.544,70.450,451.263,-292.634,110.374,-14.150,-408.370,-544.930
702,38325.463000,307.899,-44.587,71.442,455.245,-285.145,105.671,91.850,-130.370,-149.930
703,38325.502000,297.918,-66.630,88.310,451.262,-291.872,103.510,42.850,-169.370,367.070
704,38325.547000,287.938,-52.603,62.512,447.244,-300.596,97.359,106.850,-421.370,478.070
705,38325.587000,328.858,-60.618,-0.992,445.218,-305.562,89.349,389.850,-522.370,530.070
706,38325.626000,314.885,-5.511,25.798,435.343,-317.861,93.908,304.850,-55.370,442.070
707,38325.667000,300.912,-27.554,25.798,437.255,-320.513,99.739,306.850,9.630,28.070
708,38325.687000,232.047,-44.587,32.744,440.161,-322.073,110.520,510.850,147.630,-112.930
709,38325.725000,225.060,-7.515,25.798,440.384,-307.678,118.790,487.850,168.630,-99.930
710,38325.765000,208.094,13.526,12.899,436.525,-307.417,130.594,323.850,151.630,-20.930
711,38325.808000,194.121,-0.501,5.953,437.496,-308.165,137.460,149.850,130.630,192.070
712,38325.846000,217.076,-56.611,2.977,430.667,-311.019,140.320,73.850,177.630,286.070
713,38325.888000,274.963,-39.577,11.907,427.674,-316.708,141.140,77.850,28.630,334.070
714,38325.927000,281.949,-62.622,74.419,422.703,-325.208,143.846,339.850,-11.370,-65.930
715,38325.969000,275.961,15.530,54.574,431.655,-310.007,142.317,153.850,-254.370,-408.930
716,38325.984000,260.990,68.634,51.597,441.410,-305.405,132.625,-323.150,-348.370,-425.930
717,38326.25000,285.942,-88.673,115.101,442.502,-296.145,125.016,-203.150,-413.370,-299.930
718,38326.64000,188.133,-76.650,105.178,449.261,-298.046,121.040,-76.150,-298.370,-318.930
719,38326.105000,163.181,-33.566,87.318,453.198,-292.685,107.425,-42.150,-422.370,-295.930
720,38326.146000,209.092,-69.636,73.426,461.985,-288.070,98.716,94.850,-510.370,-219.930
721,38326.189000,162.183,-27.554,65.488,461.078,-282.647,90.013,174.850,-498.370,63.070
722,38326.229000,170.168,-26.552,63.504,463.978,-282.003,77.249,25.850,-595.370,27.070
723,38326.266000,239.033,-5.511,83.349,467.732,-288.988,61.323,-13.150,-785.370,-148.930
724,38326.286000,337.840,-50.599,150.822,476.650,-274.996,49.924,189.850,-405.370,-224.930
725,38326.332000,317.879,-157.808,130.977,472.709,-280.409,61.570,688.850,-28.370,127.070
726,38326.366000,270.971,-100.697,45.643,463.933,-284.892,75.201,1195.850,163.630,445.070
727,38326.405000,415.688,99.695,-3.969,460.075,-286.154,100.733,827.850,502.630,368.070
728,38326.444000,217.076,-83.663,-23.814,455.296,-284.487,130.280,1076.850,652.630,24.070
729,38326.489000,235.041,-13.526,-17.860,452.499,-278.433,146.181,881.850,128.630,47.070
730,38326.534000,248.016,-33.566,-33.736,457.410,-276.079,161.009,901.850,247.630,74.070
731,38326.567000,218.074,-22.544,11.907,451.486,-285.117,179.436,909.850,361.630,172.070
732,38326.586000,236.039,-19.538,33.736,446.940,-265.852,195.702,828.850,116.630,122.070
733,38326.626000,262.986,41.581,44.651,445.013,-266.457,209.453,603.850,195.630,94.070
734,38326.669000,265.980,27.554,49.612,445.155,-257.709,218.549,374.850,315.630,-118.930
735,38326.709000,220.070,-4.509,66.481,445.272,-250.826,228.576,402.850,163.630,-179.930
736,38326.749000,243.025,-7.515,53.581,444.496,-238.336,236.791,553.850,74.630,-15.930
737,38326.789000,220.070,-5.511,74.419,439.580,-243.815,246.467,546.850,63.630,38.070
738,38326.829000,243.025,34.568,72.434,439.746,-233.229,253.647,395.850,90.630,124.070
739,38326.869000,228.055,-2.505,78.388,439.679,-237.931,254.499,348.850,-52.370,167.070
740,38326.889000,229.053,-19.538,74.419,438.714,-237.866,257.450,457.850,-153.370,310.070
741,38326.929000,196.117,-0.501,55.566,436.799,-236.790,263.379,368.850,-85.370,303.070
742,38326.967000,189.131,-3.507,77.395,433.838,-239.773,259.356,231.850,-132.370,67.070
743,38327.4000,245.021,-27.554,111.132,431.896,-239.801,259.352,195.850,-203.370,540.070
744,38327.44000,319.875,-30.560,66.481,428.880,-246.567,255.225,95.850,-358.370,629.070
745,38327.87000,299.914,-24.548,34.729,428.760,-254.263,250.092,-70.150,-69.370,-122.930
746,38327.125000,268.975,-31.562,28.775,432.803,-242.913,248.448,15.850,40.630,-266.930
747,38327.151000,228.055,-69.636,-3.969,433.682,-249.466,250.234,33.850,-30.370,21.070
748,38327.196000,239.033,-46.591,-9.922,433.690,-248.600,247.307,-224.150,-75.370,182.070
749,38327.229000,208.094,-57.613,-2.977,432.638,-254.261,248.132,-146.150,-80.370,246.070
750,38327.264000,202.105,-47.593,-11.907,428.754,-254.342,247.139,-80.150,187.630,-133.930
751,38327.309000,150.207,-32.564,-0.992,435.582,-251.514,243.295,-272.150,-102.370,-343.930
752,38327.344000,332.850,-58.614,13.891,440.431,-250.737,234.472,-249.150,-337.370,-379.930
753,38327.384000,345.825,-8.517,18.853,439.519,-246.154,229.680,-436.150,87.630,97.070
754,38327.428000,272.967,-181.855,48.620,440.291,-259.458,226.361,81.850,-385.370,330.070
755,38327.448000,335.844,19.538,86.326,430.464,-268.054,228.072,179.850,-27.370,437.070
756,38327.488000,235.041,7.515,84.341,426.486,-274.728,227.880,110.850,119.630,378.070
757,38327.528000,219.072,-0.501,83.349,422.652,-271.841,231.888,82.850,-67.370,299.070
758,38327.573000,244.023,7.515,74.419,417.569,-287.933,233.399,46.850,22.630,340.070
759,38327.606000,211.088,10.521,66.481,419.551,-284.307,226.618,-208.150,-97.370,61.070
760,38327.645000,219.072,-7.515,65.488,419.420,-292.923,222.444,-275.150,-12.370,-10.930
761,38327.686000,173.162,-23.546,102.202,418.529,-287.289,221.615,-115.150,-73.370,15.070
762,38327.728000,217.076,-28.556,92.279,421.352,-292.240,211.646,-257.150,-311.370,75.070
763,38327.748000,283.945,-10.521,131.969,421.270,-297.152,204.624,-306.150,-180.370,54.070
764,38327.786000,419.680,-0.501,125.023,420.169,-304.994,194.568,-581.150,62.630,12.070
765,38327.825000,419.680,4.509,88.310,420.137,-306.938,192.547,-904.150,607.630,-415.930
766,38327.870000,262.986,-78.654,66.481,421.126,-305.926,194.544,-975.150,963.630,-391.930
767,38327.925000,186.136,-92.681,4.961,417.186,-309.790,193.446,-836.150,558.630,-342.930
768,38327.946000,212.086,11.523,-25.798,415.180,-314.493,195.279,-683.150,406.630,-40.930
769,38327.986000,185.138,-28.556,-18.853,413.237,-314.547,194.291,-651.150,491.630,63.070
770,38328.29000,222.066,-59.616,-21.829,410.187,-323.283,187.158,-763.150,425.630,-259.930
771,38328.50000,214.082,-87.671,11.907,408.248,-323.284,188.138,-605.150,470.630,-234.930
772,38328.87000,174.160,-64.626,49.612,409.143,-328.078,185.055,-506.150,396.630,-160.930
773,38328.126000,188.133,-54.607,73.426,412.112,-323.466,179.287,-684.150,101.630,-266.930
774,38328.167000,296.920,-48.595,111.132,411.159,-321.720,174.416,-631.150,192.630,-277.930
775,38328.207000,270.971,-27.554,125.023,414.037,-323.649,171.416,-777.150,596.630,-115.930
776,38328.248000,177.154,-62.622,92.279,407.119,-331.495,164.301,-956.150,556.630,18.070
777,38328.290000,210.090,-106.708,80.372,408.036,-334.476,158.318,-496.150,223.630,-212.930
778,38328.330000,248.016,-72.642,83.349,412.013,-327.828,157.526,-283.150,230.630,-253.930
779,38328.350000,212.086,-62.622,81.364,413.860,-334.393,158.330,-275.150,190.630,-162.930
780,38328.390000,174.160,-53.605,88.310,414.936,-326.867,156.574,-200.150,177.630,-208.930
781,38328.425000,200.109,-53.605,86.326,422.771,-322.029,156.722,-170.150,-2.370,-363.930
782,38328.476000,179.150,-69.636,84.341,426.842,-309.549,161.994,30.850,318.630,-361.930
783,38328.505000,123.259,-3.507,86.326,427.830,-307.776,157.127,-49.150,-166.370,-469.930
784,38328.546000,342.830,0.501,69.457,442.598,-292.597,151.672,12.850,-280.370,-489.930
785,38328.586000,283.945,-15.530,103.194,440.611,-295.514,149.620,6.850,8.630,80.070
786,38328.635000,302.908,-80.658,106.171,435.719,-298.394,150.516,-14.150,137.630,598.070
787,38328.654000,257.996,-65.628,58.543,431.677,-309.717,153.145,152.850,-76.370,256.070
788,38328.686000,261.988,32.564,26.791,428.799,-307.788,156.144,328.850,78.630,161.070
789,38328.732000,256.000,1.503,22.822,430.707,-310.493,160.007,191.850,-175.370,-49.930
790,38328.766000,194.121,-40.579,15.876,428.884,-302.850,164.151,203.850,-84.370,-97.930
791,38328.806000,186.136,-27.554,6.946,428.797,-308.576,162.024,255.850,-65.370,174.070
792,38328.846000,221.068,-17.534,7.938,418.112,-309.594,164.929,128.850,-87.370,504.070
793,38328.886000,317.879,-56.611,-15.876,414.009,-324.779,164.499,159.850,-198.370,618.070
794,38328.935000,317.879,-42.583,-2.977,411.129,-322.876,166.515,140.850,-200.370,181.070
795,38328.949000,295.922,-48.595,88.310,417.004,-319.064,164.663,418.850,-337.370,-373.930
796,38328.987000,283.945,22.544,48.620,429.771,-307.748,157.131,130.850,-614.370,-644.930
797,38329.28000,323.867,12.524,116.093,436.660,-300.298,149.481,284.850,-422.370,-304.930
798,38329.66000,237.037,-102.701,122.047,446.457,-293.620,146.732,159.850,-247.370,-249.930
799,38329.107000,180.148,-19.538,87.318,445.552,-288.170,139.013,81.850,-358.370,-153.930
800,38329.149000,188.133,-73.644,85.333,447.433,-292.004,135.959,237.850,-491.370,-56.930
801,38329.189000,208.094,-47.593,74.419,451.260,-294.970,128.998,275.850,-553.370,201.070
802,38329.209000,157.193,-16.532,86.326,450.263,-296.088,123.063,208.850,-400.370,155.070
803,38329.249000,203.103,-31.562,104.186,458.138,-287.651,116.426,275.850,-547.370,8.070
804,38329.289000,252.008,-29.558,141.891,455.080,-296.493,105.355,153.850,-577.370,15.070
805,38329.330000,342.830,-43.585,126.016,458.013,-293.878,95.597,170.850,-543.370,-35.930
806,38329.366000,350.815,-123.742,117.085,457.063,-292.867,98.574,929.850,-386.370,217.070
807,38329.406000,383.750,-146.787,105.178,455.270,-285.591,124.347,1353.850,434.630,238.070
808,38329.447000,266.979,-34.568,69.457,453.320,-289.557,153.742,1341.850,999.630,259.070
809,38329.489000,212.086,-20.540,-30.760,442.845,-279.409,185.482,1325.850,471.630,113.070
810,38329.509000,203.103,17.534,-20.837,443.936,-273.221,204.345,846.850,233.630,-176.930
811,38329.554000,255.002,3.507,-21.829,441.261,-258.683,219.499,744.850,377.630,-18.930
812,38329.587000,205.099,-43.585,-2.977,439.374,-257.239,239.208,652.850,243.630,44.070
813,38329.627000,222.066,-25.550,31.752,434.658,-248.612,246.325,575.850,-5.370,120.070
814,38329.667000,258.994,36.571,34.729,436.535,-253.260,248.166,338.850,7.630,-48.930
815,38329.707000,262.986,52.603,42.667,434.780,-240.889,252.442,-32.150,173.630,-126.930
816,38329.757000,256.998,-30.560,79.380,437.669,-242.687,254.364,-89.150,210.630,-206.930
817,38329.787000,234.043,-4.509,80.372,438.710,-237.918,255.482,42.850,80.630,-275.930
818,38329.807000,237.037,0.501,72.434,443.697,-229.207,260.650,209.850,34.630,-177.930
819,38329.846000,245.021,16.532,79.380,442.688,-232.032,261.554,105.850,160.630,43.070
820,38329.892000,236.039,-0.501,81.364,435.913,-231.103,264.519,34.850,158.630,106.070
821,38329.940000,210.090,-37.573,76.403,431.016,-234.797,270.310,246.850,135.630,124.070
822,38329.966000,188.133,-23.546,84.341,429.058,-236.584,275.175,362.850,-13.370,253.070
823,38330.7000,200.109,4.509,94.264,421.267,-238.559,276.090,302.850,-103.370,364.070
824,38330.49000,197.115,-1.503,102.202,420.285,-239.492,277.046,318.850,-220.370,562.070
825,38330.95000,251.010,-33.566,68.465,418.147,-252.811,274.705,191.850,-329.370,547.070
826,38330.109000,311.891,47.593,51.597,421.086,-250.117,267.900,-159.150,-269.370,268.070
827,38330.152000,267.977,-36.571,35.721,423.868,-257.904,257.852,-512.150,-5.370,-171.930
828,38330.187000,218.074,-101.699,12.899,428.719,-257.100,250.013,-345.150,-25.370,-218.930
829,38330.234000,251.010,-87.671,6.946,424.706,-265.745,246.815,-228.150,-91.370,84.070
830,38330.274000,237.037,-70.638,9.922,421.824,-263.869,247.846,-221.150,10.630,222.070
831,38330.310000,225.060,-39.577,-14.884,421.692,-272.485,243.672,-173.150,142.630,18.070
832,38330.356000,168.172,-30.560,-2.977,421.729,-269.700,241.782,-300.150,85.630,-350.930
833,38330.389000,207.096,-95.687,-9.922,433.483,-261.262,233.184,-189.150,-237.370,-399.930
834,38330.409000,405.708,-131.757,-48.620,431.600,-256.693,228.390,156.850,-264.370,-525.930
835,38330.449000,253.006,51.601,113.116,440.496,-246.823,239.499,346.850,272.630,125.070
836,38330.489000,220.070,-174.841,30.760,434.335,-268.918,229.038,97.850,-652.370,755.070
837,38330.529000,401.715,-0.501,89.302,429.460,-270.038,225.065,141.850,-212.370,442.070
838,38330.569000,238.035,35.569,84.341,423.470,-282.256,230.616,104.850,244.630,296.070
839,38330.609000,194.121,27.554,84.341,424.411,-284.159,229.581,-141.150,-246.370,80.070
840,38330.650000,214.082,9.519,89.302,421.439,-287.275,220.637,-366.150,-108.370,-16.930
841,38330.677000,209.092,-22.544,95.256,427.318,-282.648,213.890,-269.150,-100.370,-52.930
842,38330.712000,198.113,-46.591,108.155,424.292,-290.307,211.705,-9.150,-148.370,125.070
843,38330.759000,237.037,7.515,98.233,428.160,-290.436,204.823,-139.150,-367.370,92.070
844,38330.789000,271.969,19.538,129.984,428.044,-297.319,194.795,-376.150,-296.370,-45.930
845,38330.829000,378.760,-17.534,86.326,430.853,-303.215,184.800,-622.150,-25.370,37.070
846,38330.869000,380.756,-16.532,88.310,424.057,-303.337,183.801,-736.150,759.630,-246.930
847,38330.909000,310.893,-133.761,61.519,425.150,-295.601,189.920,-509.150,902.630,-392.930
848,38330.950000,202.105,-12.524,-15.876,423.116,-302.956,198.564,-471.150,519.630,-170.930
849,38330.970000,214.082,-32.564,4.961,416.273,-306.756,201.398,-323.150,416.630,121.070
850,38331.11000,200.109,-42.583,-12.899,409.402,-312.447,204.179,-327.150,440.630,176.070
851,38331.51000,193.123,-38.575,-6.946,400.599,-318.034,211.878,-290.150,456.630,100.070
852,38331.90000,199.111,-35.569,28.775,400.538,-321.896,208.819,-496.150,447.630,-173.930
853,38331.130000,207.096,-45.589,39.690,400.682,-312.360,212.036,-491.150,372.630,-320.930
854,38331.172000,201.107,-73.644,55.566,401.544,-319.124,205.947,-461.150,200.630,-429.930
855,38331.212000,214.082,-70.638,94.264,408.472,-309.624,204.256,-342.150,240.630,-417.930
856,38331.252000,265.980,-20.540,118.078,413.310,-310.527,203.255,-473.150,217.630,-258.930
857,38331.271000,274.963,-47.593,123.039,409.447,-308.796,199.363,-615.150,337.630,-160.930
858,38331.311000,175.158,-73.644,109.147,411.297,-314.548,195.271,-635.150,340.630,-82.930
859,38331.349000,240.031,-76.650,82.357,407.440,-312.738,194.332,-486.150,236.630,-176.930
860,38331.396000,245.021,-25.550,98.233,408.389,-313.775,190.370,-371.150,278.630,-223.930
861,38331.430000,198.113,-53.605,91.287,408.259,-322.365,187.180,-397.150,157.630,-278.930
862,38331.485000,168.172,-44.587,89.302,412.344,-308.178,185.614,-367.150,213.630,-318.930
863,38331.511000,147.212,-39.577,76.403,421.047,-310.025,182.627,-427.150,288.630,-410.930
864,38331.550000,147.212,-4.509,94.264,429.006,-295.888,177.132,-344.150,43.630,-552.930
865,38331.572000,191.127,16.532,93.271,433.776,-300.732,170.120,-489.150,-193.370,-499.930
866,38331.614000,395.727,-84.665,101.209,440.692,-291.390,162.522,-98.150,-195.370,-503.930
867,38331.652000,328.858,-81.659,145.860,442.742,-283.823,161.752,-7.150,-12.370,17.070
868,38331.689000,236.039,-70.638,117.085,437.761,-293.217,166.401,155.850,179.630,264.070
869,38331.729000,198.113,-27.554,57.550,436.824,-291.260,169.405,178.850,46.630,167.070
870,38331.769000,270.971,34.568,10.915,434.891,-291.183,173.338,221.850,138.630,207.070
871,38331.809000,245.021,-21.542,19.845,427.012,-299.672,178.007,257.850,31.630,221.070
872,38331.849000,215.080,-31.562,15.876,429.020,-295.704,184.022,344.850,-31.370,156.070
873,38331.869000,204.101,-3.507,4.961,427.028,-299.461,185.881,275.850,-89.370,364.070
874,38331.910000,199.111,-2.505,10.915,420.090,-309.854,189.515,136.850,-197.370,645.070
875,38331.951000,271.969,-52.603,-6.946,411.171,-321.562,180.322,-98.150,-371.370,632.070
876,38331.997000,315.883,-53.605,9.922,411.129,-323.638,173.379,-54.150,-306.370,241.070
877,38332.36000,306.901,-32.564,75.411,417.943,-321.756,169.508,233.850,-329.370,-235.930
878,38332.75000,262.986,7.515,65.488,424.804,-316.196,161.805,71.850,-689.370,-506.930
879,38332.109000,284.943,61.620,62.512,435.583,-307.062,144.373,-140.150,-721.370,-343.930
880,38332.150000,269.973,-121.738,143.876,444.501,-293.070,132.974,10.850,-578.370,-535.930
881,38332.169000,176.156,-78.654,108.155,452.236,-293.355,118.225,-81.150,-555.370,-412.930
882,38332.211000,212.086,-65.628,87.318,457.207,-284.093,108.654,-13.150,-660.370,-26.930
883,38332.261000,195.119,-51.601,89.302,455.186,-288.981,103.597,359.850,-563.370,169.070
884,38332.314000,185.138,-5.511,92.279,457.033,-294.023,90.673,199.850,-628.370,8.070
885,38332.331000,225.060,-2.505,115.101,463.929,-285.706,80.096,123.850,-496.370,-50.930
886,38332.375000,343.828,-52.603,133.953,463.848,-290.592,74.059,163.850,-485.370,40.070
887,38332.410000,398.721,-144.783,111.132,467.811,-284.890,73.240,493.850,-238.370,-27.930
888,38332.450000,390.737,-61.620,87.318,464.861,-290.026,94.732,1131.850,531.630,158.070
889,38332.471000,319.875,-21.542,84.341,455.369,-279.706,132.380,1094.850,949.630,197.070
890,38332.511000,255.002,13.526,-1.984,447.631,-281.758,165.753,924.850,813.630,129.070
891,38332.551000,165.177,-36.571,-6.946,449.748,-271.774,184.722,779.850,705.630,-210.930
892,38332.591000,225.060,42.583,-23.814,444.942,-270.450,201.473,367.850,433.630,-0.930
893,38332.631000,217.076,-34.568,-18.853,440.165,-267.234,218.275,272.850,526.630,-9.930
894,38332.671000,191.127,-54.607,15.876,432.402,-268.079,226.108,309.850,260.630,25.070
895,38332.711000,227.057,-7.515,61.519,441.252,-261.099,235.169,284.850,88.630,23.070
896,38332.731000,264.982,15.530,78.388,436.485,-255.441,237.286,449.850,166.630,-101.930
897,38332.772000,230.051,1.503,56.558,438.616,-243.750,249.418,427.850,23.630,-141.930
898,38332.811000,247.018,-0.501,81.364,438.620,-243.698,251.386,438.850,11.630,-60.930
899,38332.850000,243.025,0.501,94.264,433.934,-233.154,259.541,469.850,68.630,134.070
900,38332.890000,196.117,24.548,72.434,432.897,-238.631,267.255,446.850,68.630,137.070
901,38332.935000,205.099,12.524,68.465,432.052,-230.107,268.475,334.850,-88.370,118.070
902,38332.971000,251.010,-4.509,79.380,430.022,-236.649,272.224,362.850,-32.370,286.070
903,38333.11000,202.105,-24.548,72.434,425.191,-235.667,276.177,464.850,-56.370,319.070
904,38333.36000,181.146,8.517,81.364,430.087,-232.735,277.251,287.850,-210.370,215.070
905,38333.70000,217.076,-3.507,109.147,422.279,-235.708,276.171,263.850,-143.370,505.070
906,38333.110000,252.008,-55.609,88.310,423.996,-250.863,273.785,235.850,-405.370,590.070
907,38333.151000,319.875,3.507,73.426,423.078,-246.360,266.040,48.850,-357.370,64.070
908,38333.191000,277.957,4.509,55.566,427.971,-243.480,265.145,-129.150,93.630,-189.930
909,38333.231000,200.109,-81.659,24.806,425.000,-247.357,263.065,-160.150,-19.370,-30.930
910,38333.276000,260.990,-84.665,10.915,427.913,-246.528,257.191,-51.150,-153.370,61.070
911,38333.316000,219.072,-42.583,15.876,423.980,-250.313,259.047,-17.150,-37.370,353.070
912,38333.330000,217.076,-39.577,-3.969,422.899,-257.891,258.834,-55.150,-58.370,195.070
913,38333.370000,189.131,-18.536,-5.953,424.714,-265.640,250.753,-262.150,-36.370,-138.930
914,38333.410000,203.103,-41.581,-23.814,432.575,-258.149,244.089,-342.150,-229.370,-350.930
915,38333.450000,241.029,-106.708,-22.822,436.499,-254.496,237.312,-86.150,-350.370,-223.930
916,38333.490000,316.881,-128.751,34.729,436.556,-251.448,245.266,654.850,-134.370,285.070
917,38333.535000,309.895,34.568,-16.868,428.671,-259.255,240.117,85.850,-390.370,686.070
918,38333.575000,305.903,-156.806,48.620,428.669,-259.281,239.133,561.850,-366.370,262.070
919,38333.612000,320.873,27.554,85.333,421.784,-265.918,241.888,327.850,-109.370,378.070
920,38333.632000,237.037,-19.538,94.264,421.661,-275.190,248.515,281.850,69.630,306.070
921,38333.672000,218.074,23.546,131.969,419.684,-277.975,251.385,277.850,-6.370,257.070
922,38333.712000,243.025,28.556,105.178,411.925,-278.006,254.322,213.850,139.630,423.070
923,38333.752000,225.060,5.511,80.372,408.946,-282.749,255.168,-101.150,-66.370,88.070
924,38333.792000,225.060,7.515,80.372,413.835,-279.923,252.304,-338.150,-38.370,-28.930
925,38333.832000,223.064,10.521,79.380,414.636,-290.548,243.158,-459.150,-58.370,0.070
926,38333.872000,209.092,6.513,98.233,413.671,-288.960,232.381,-569.150,-182.370,-69.930
927,38333.912000,260.990,-13.526,138.915,415.497,-295.027,216.477,-768.150,-66.370,-189.930
928,38333.932000,324.866,-1.503,97.240,417.287,-303.879,202.463,-993.150,31.630,-238.930
929,38333.972000,405.708,0.501,62.512,421.132,-305.847,197.497,-1188.150,622.630,-527.930
930,38334.12000,277.957,-57.613,92.279,422.164,-301.972,200.557,-985.150,1161.630,-377.930
931,38334.52000,195.119,-116.728,0.000,420.155,-306.701,201.406,-991.150,977.630,-362.930
932,38334.92000,224.062,0.501,-40.682,412.306,-312.511,200.248,-723.150,548.630,78.070
933,38334.132000,212.086,-66.630,-14.884,406.396,-319.082,204.973,-621.150,598.630,113.070
934,38334.174000,194.121,-71.640,-8.930,396.516,-330.672,200.700,-522.150,608.630,-45.930
935,38334.215000,188.133,-61.620,48.620,400.530,-322.001,204.882,-595.150,519.630,-342.930
936,38334.234000,214.082,-55.609,89.302,399.489,-326.769,203.764,-456.150,256.630,-325.930
937,38334.274000,212.086,-68.634,96.248,403.444,-321.172,199.008,-475.150,194.630,-259.930
938,38334.312000,241.029,-73.644,113.116,398.457,-329.883,193.840,-515.150,302.630,-133.930
939,38334.352000,249.014,-46.591,100.217,402.434,-323.235,193.048,-525.150,153.630,-171.930
940,38334.391000,221.068,-63.624,93.271,407.208,-328.026,188.004,-319.150,126.630,-201.930
941,38334.436000,219.072,-68.634,104.186,409.222,-322.456,183.244,-368.150,122.630,-169.930
942,38334.480000,228.055,-65.628,80.372,409.194,-324.348,183.192,-300.150,171.630,-183.930
943,38334.514000,200.109,-26.552,85.333,411.173,-321.536,181.306,-283.150,147.630,-222.930
944,38334.534000,201.107,-29.558,88.310,416.987,-321.585,176.397,-344.150,148.630,-347.930
945,38334.579000,160.187,-46.591,88.310,423.921,-311.245,170.794,-331.150,39.630,-421.930
946,38334.612000,171.166,-39.577,96.248,432.680,-309.282,168.896,-299.150,-13.370,-442.930
947,38334.659000,229.053,38.575,61.519,436.733,-296.278,158.445,-555.150,-9.370,-521.930
948,38334.692000,304.904,-91.679,74.419,440.647,-293.518,153.610,-284.150,-344.370,-242.930
949,38334.732000,380.756,-100.697,103.194,434.738,-299.301,152.456,-85.150,251.630,495.070
950,38334.774000,302.908,-41.581,67.473,425.822,-312.505,157.975,-123.150,444.630,524.070
951,38334.816000,278.955,-43.585,40.682,419.977,-314.400,160.864,196.850,-56.370,217.070
952,38334.836000,235.041,29.558,51.597,420.053,-309.566,164.933,135.850,155.630,-162.930
953,38334.884000,230.051,-5.511,10.915,429.620,-318.912,163.705,-20.150,-81.370,-260.930
954,38334.920000,186.136,-66.630,15.876,423.920,-310.483,163.930,210.850,-123.370,106.070
955,38334.956000,215.080,-29.558,14.884,420.018,-312.324,167.807,170.850,32.630,458.070
956,38334.994000,238.035,-23.546,10.915,417.979,-318.998,166.634,80.850,-127.370,497.070
957,38335.34000,283.945,-25.550,-7.938,406.136,-332.428,165.257,-61.150,-235.370,337.070
958,38335.74000,301.910,-44.587,104.186,409.020,-333.517,158.346,1.850,-235.370,-159.930
959,38335.114000,238.035,-42.583,79.380,416.927,-323.136,153.730,282.850,-571.370,-551.930
960,38335.134000,318.877,61.620,79.380,431.737,-303.572,135.611,-40.150,-917.370,-536.930
961,38335.174000,309.895,-37.573,144.868,443.343,-305.482,128.692,131.850,-505.370,-423.930
962,38335.214000,224.062,-86.669,115.101,451.287,-292.318,122.186,-35.150,-385.370,-525.930
963,38335.254000,148.211,-33.566,102.202,455.159,-291.633,110.409,36.850,-494.370,-170.930
964,38335.292000,252.008,-84.665,83.349,457.167,-286.142,102.696,250.850,-769.370,82.070
965,38335.332000,191.127,-48.595,78.388,458.964,-294.889,92.619,316.850,-503.370,208.070
966,38335.372000,172.164,-9.519,89.302,458.946,-295.126,83.760,184.850,-624.370,-10.930
967,38335.392000,202.105,15.530,85.333,460.936,-290.633,74.053,-44.150,-548.370,-17.930
968,38335.439000,298.916,-65.628,116.093,460.994,-285.276,62.398,107.850,-596.370,80.070
969,38335.480000,362.791,-154.802,100.217,465.688,-295.714,58.181,504.850,-491.370,260.070
970,38335.514000,394.729,-73.644,79.380,455.022,-296.495,69.945,896.850,70.630,257.070
971,38335.554000,262.986,-20.540,95.256,452.058,-304.099,105.138,1115.850,811.630,402.070
972,38335.595000,291.930,-47.593,-48.620,444.335,-303.656,125.794,775.850,227.630,441.070
973,38335.635000,209.092,-98.693,-28.775,446.333,-302.130,146.495,758.850,602.630,-331.930
974,38335.675000,209.092,43.585,-18.853,445.561,-289.588,156.679,483.850,278.630,-234.930
975,38335.695000,242.027,-6.513,-32.744,445.690,-282.547,172.613,438.850,468.630,-30.930
976,38335.735000,189.131,-58.614,0.000,436.078,-278.375,192.385,385.850,516.630,66.070
977,38335.772000,210.090,-50.599,47.628,439.004,-278.150,199.281,424.850,0.630,-15.930
978,38335.814000,277.957,3.507,35.721,439.983,-278.031,203.221,368.850,13.630,-248.930
979,38335.860000,270.971,52.603,48.620,442.133,-263.793,204.604,194.850,-55.370,-234.930
980,38335.897000,271.969,-45.589,73.426,443.161,-260.731,212.560,228.850,163.630,-131.930
981,38335.937000,228.055,-26.552,74.419,448.118,-253.938,216.691,437.850,31.630,-120.930
982,38335.977000,211.088,14.528,72.434,443.311,-251.878,225.593,476.850,112.630,52.070
983,38335.996000,243.025,30.560,78.388,441.438,-247.939,232.585,368.850,89.630,190.070
984,38336.41000,235.041,14.528,69.457,442.337,-253.467,237.350,247.850,0.630,195.070
985,38336.75000,211.088,-26.552,69.457,438.452,-253.549,236.358,320.850,-121.370,161.070
986,38336.115000,238.035,-6.513,70.450,433.593,-254.458,240.259,334.850,-65.370,290.070
987,38336.155000,198.113,-7.515,61.519,430.781,-247.827,242.406,304.850,-16.370,232.070
988,38336.192000,176.156,-22.544,72.434,437.489,-253.457,240.293,180.850,-201.370,57.070
989,38336.235000,223.064,-37.573,91.287,433.636,-251.595,241.322,258.850,-255.370,407.070
990,38336.281000,293.926,-19.538,92.279,433.536,-258.267,239.169,381.850,-339.370,351.070
991,38336.295000,328.858,19.538,85.333,431.626,-256.350,241.187,306.850,-56.370,142.070
992,38336.335000,212.086,2.505,38.698,433.566,-257.110,247.070,60.850,219.630,-160.930
993,38336.390000,198.113,-85.667,12.899,434.613,-251.502,244.277,17.850,15.630,-333.930
994,38336.412000,266.979,-76.650,5.953,433.666,-250.438,249.223,195.850,130.630,143.070
995,38336.452000,251.010,-59.616,-1.984,426.901,-248.617,250.246,22.850,58.630,310.070
996,38336.492000,226.058,-52.603,-0.992,426.868,-251.349,254.105,26.850,-31.370,124.070
997,38336.534000,235.041,-28.556,-9.922,424.938,-249.695,246.279,-108.150,-82.370,-116.930
998,38336.574000,251.010,-63.624,4.961,423.999,-247.765,248.298,-133.150,119.630,-178.930
999,38336.595000,227.057,-87.671,11.907,430.850,-243.099,242.538,-46.150,-90.370,-105.930
1000,38336.635000,344.827,4.509,40.682,433.668,-249.651,243.344,-111.150,-42.370,133.070
1001,38336.674000,225.060,-48.595,14.884,431.424,-269.721,235.896,-524.150,-233.370,267.070
1002,38336.714000,263.984,-135.765,24.806,432.443,-265.242,226.187,-112.150,-459.370,226.070
1003,38336.754000,313.887,-1.503,48.620,431.252,-279.625,218.899,-242.150,-147.370,251.070
1004,38336.794000,261.988,-52.603,97.240,430.334,-275.882,218.018,-96.150,161.630,172.070
1005,38336.834000,208.094,4.509,110.140,423.493,-279.656,221.836,125.850,72.630,105.070
1006,38336.860000,204.101,22.544,77.395,421.536,-281.416,227.686,189.850,71.630,263.070
1007,38336.894000,273.965,39.577,31.752,423.333,-290.163,217.609,-216.150,-190.370,5.070
1008,38336.940000,248.016,25.550,34.729,433.128,-282.750,207.012,-668.150,-304.370,-400.930
1009,38336.974000,242.027,-49.597,78.388,435.012,-285.770,199.062,-395.150,-122.370,-43.930
1010,38337.20000,231.049,-86.669,110.140,432.999,-289.791,191.078,-82.150,-216.370,195.070
1011,38337.54000,208.094,-4.509,130.977,431.942,-295.531,188.950,38.850,-218.370,104.070
1012,38337.94000,281.949,25.550,95.256,428.929,-300.721,173.063,-602.150,-253.370,121.070
1013,38337.134000,336.842,-16.532,84.341,434.627,-308.415,164.989,-746.150,85.630,-86.930
1014,38337.155000,293.926,-75.648,88.310,428.748,-312.280,164.872,-612.150,685.630,-19.930
1015,38337.195000,243.025,-35.569,20.837,423.858,-315.894,173.616,-562.150,666.630,-182.930
1016,38337.236000,222.066,-36.571,8.930,424.005,-306.306,178.801,-411.150,725.630,-173.930
1017,38337.276000,255.002,-80.658,23.814,419.102,-310.866,187.518,-188.150,747.630,-41.930
1018,38337.316000,225.060,-14.528,46.636,410.366,-312.512,201.228,-236.150,668.630,62.070
1019,38337.356000,216.078,15.530,44.651,406.433,-316.297,203.083,-508.150,663.630,-9.930
1020,38337.395000,224.062,-46.591,42.667,396.591,-325.865,203.784,-510.150,557.630,28.070
1021,38337.436000,239.033,-122.740,40.682,394.634,-326.864,202.770,-462.150,356.630,38.070
1022,38337.454000,213.084,-78.654,67.473,387.686,-337.389,201.481,-323.150,415.630,1.070
1023,38337.497000,197.115,-52.603,78.388,391.686,-329.663,205.638,-237.150,115.630,-104.930
1024,38337.534000,232.047,-49.597,94.264,391.498,-342.088,200.374,-293.150,35.630,-190.930
1025,38337.575000,239.033,-30.560,90.295,396.506,-330.804,195.778,-477.150,178.630,-247.930
1026,38337.615000,227.057,-61.620,104.186,394.566,-330.043,189.894,-563.150,277.630,-293.930
1027,38337.655000,228.055,-64.626,98.233,398.498,-326.285,187.054,-562.150,185.630,-328.930
1028,38337.695000,225.060,-61.620,98.233,402.234,-335.030,175.998,-509.150,176.630,-268.930
1029,38337.734000,220.070,-56.611,104.186,407.196,-327.423,175.234,-426.150,133.630,-206.930
1030,38337.754000,221.068,-46.591,96.248,412.913,-334.091,170.140,-442.150,87.630,-205.930
1031,38337.795000,218.074,-43.585,102.202,414.968,-325.685,165.459,-451.150,154.630,-235.930
1032,38337.834000,201.107,-57.613,103.194,415.933,-325.750,162.508,-296.150,20.630,-314.930
1033,38337.879000,157.193,-54.607,93.271,423.763,-320.203,153.823,-337.150,-52.370,-266.930
1034,38337.917000,104.296,-0.501,72.434,426.735,-315.539,150.024,-344.150,-147.370,-275.930
1035,38337.957000,281.949,-8.517,35.721,431.525,-317.835,132.263,-463.150,-639.370,-150.930
1036,38337.997000,347.821,-140.775,91.287,430.572,-316.089,127.392,119.850,-44.370,-27.930
1037,38338.41000,309.895,-60.618,71.442,429.499,-323.563,131.117,146.850,64.630,319.070
1038,38338.59000,282.947,-20.540,85.333,430.564,-317.717,137.183,287.850,54.630,-32.930
1039,38338.95000,208.094,-24.548,94.264,433.551,-312.869,140.273,246.850,35.630,-175.930
1040,38338.144000,216.078,-30.560,77.395,434.610,-307.103,143.386,62.850,67.630,-117.930
1041,38338.176000,216.078,-63.624,56.558,433.647,-306.250,140.458,40.850,-126.370,-60.930
1042,38338.221000,258.994,-43.585,63.504,438.532,-304.237,142.489,211.850,-15.370,111.070
1043,38338.265000,243.025,-26.552,77.395,431.629,-311.872,143.249,92.850,58.630,125.070
1044,38338.301000,247.018,-21.542,76.403,430.763,-305.161,147.368,-43.150,21.630,-31.930
1045,38338.337000,241.029,-9.519,70.450,430.682,-310.047,141.331,-179.150,10.630,-100.930
1046,38338.359000,240.031,-29.558,60.527,435.541,-309.138,137.430,-246.150,-40.370,-81.930
1047,38338.395000,241.029,-25.550,57.550,435.586,-305.487,132.613,-259.150,-63.370,-76.930
1048,38338.451000,254.004,-26.552,66.481,440.408,-307.362,130.602,-304.150,-51.370,-90.930
1049,38338.477000,233.045,-36.571,68.465,437.441,-310.425,123.627,-343.150,-37.370,-125.930
1050,38338.517000,234.043,-33.566,74.419,444.319,-303.867,117.919,-334.150,-40.370,-113.930
1051,38338.561000,232.047,-47.593,81.364,443.276,-307.900,108.952,-299.150,-54.370,-108.930
