Sample, Time, ACCX, ACCY, ACCZ, MAGX, MAGY, MAGZ, GYRX, GYRY, GYRZ
0,38009.675000,231.049,-53.605,73.426,441.002,-268.958,153.311,116.850,21.630,75.070
1,38009.714000,218.074,-36.571,64.496,443.804,-276.482,153.106,163.850,16.630,143.070
2,38009.761000,229.053,-6.513,58.543,440.973,-270.875,152.274,89.850,-88.370,152.070
3,38009.777000,278.955,8.517,41.674,438.006,-274.699,152.162,-96.150,-158.370,99.070
4,38009.812000,272.967,-10.521,45.643,439.852,-280.503,146.102,-139.150,-100.370,-42.930
5,38009.852000,252.008,-26.552,45.643,442.821,-276.653,147.198,-106.150,30.630,-83.930
6,38009.894000,231.049,-35.569,57.550,439.874,-278.691,143.202,-110.150,12.630,-23.930
7,38009.932000,237.037,-53.605,67.473,437.884,-282.422,146.046,-3.150,-33.370,63.070
8,38009.972000,254.004,-33.566,74.419,438.868,-281.463,146.074,144.850,-40.370,45.070
9,38010.12000,258.994,-22.544,79.380,440.908,-274.790,147.247,139.850,-31.370,-30.930
10,38010.32000,233.045,-20.540,80.372,440.839,-279.518,147.115,143.850,-48.370,-46.930
11,38010.72000,226.058,-40.579,72.434,440.974,-270.088,146.394,101.850,-79.370,-28.930
12,38010.112000,236.039,-53.605,56.558,442.823,-276.627,148.182,90.850,-164.370,7.070
13,38010.159000,246.020,-60.618,42.667,442.896,-271.085,143.419,77.850,-143.370,102.070
14,38010.193000,245.021,-39.577,38.698,439.876,-278.665,144.186,75.850,-99.370,94.070
15,38010.234000,256.998,-54.607,52.589,438.017,-273.018,144.340,75.850,17.630,23.070
16,38010.274000,251.010,-38.575,55.566,436.937,-281.359,150.992,-9.150,242.630,-28.930
17,38010.317000,232.047,-34.568,67.473,440.971,-270.902,151.289,-107.150,290.630,-115.930
18,38010.337000,239.033,-48.595,72.434,440.910,-275.525,155.095,-70.150,124.630,-79.930
19,38010.372000,229.053,-41.581,83.349,441.914,-273.541,158.103,-112.150,140.630,-27.930
20,38010.412000,233.045,-23.546,73.426,439.939,-275.538,155.093,-145.150,5.630,-63.930
21,38010.452000,246.020,-26.552,65.488,438.116,-267.134,152.373,-203.150,21.630,-61.930
22,38010.492000,242.027,-42.583,65.488,439.876,-279.426,151.050,-148.150,1.630,-76.930
23,38010.532000,240.031,-41.581,69.457,442.959,-267.197,147.461,-109.150,18.630,-54.930
24,38010.573000,242.027,-34.568,67.473,441.853,-276.641,148.180,-64.150,-4.370,-37.930
25,38010.613000,244.023,-27.554,69.457,441.961,-269.102,147.407,-61.150,3.630,-33.930
26,38010.633000,247.018,-40.579,57.550,445.834,-269.940,149.357,-58.150,41.630,-9.930
27,38010.676000,243.025,-43.585,51.597,442.937,-269.009,150.362,-25.150,36.630,-12.930
28,38010.716000,245.021,-41.581,54.574,446.791,-270.872,149.333,26.850,53.630,12.070
29,38010.756000,240.031,-39.577,57.550,440.014,-269.970,151.314,69.850,70.630,27.070
30,38010.796000,236.039,-27.554,69.457,440.034,-268.945,154.293,65.850,25.630,11.070
31,38010.837000,247.018,-19.538,74.419,440.032,-268.972,153.309,5.850,36.630,-18.930
32,38010.877000,236.039,-28.556,73.426,439.045,-269.957,152.296,-46.150,17.630,-20.930
33,38010.918000,240.031,-33.566,67.473,441.004,-268.931,154.295,-67.150,-34.370,-15.930
34,38010.943000,239.033,-38.575,66.481,442.981,-266.146,151.425,-39.150,-42.370,-3.930
35,38010.978000,248.016,-36.571,61.519,443.794,-276.613,148.184,12.850,-15.370,2.070
36,38011.18000,241.029,-36.571,69.457,443.932,-267.157,148.448,41.850,21.630,13.070
37,38011.53000,242.027,-22.544,72.434,444.853,-270.847,151.297,6.850,32.630,-4.930
38,38011.93000,242.027,-25.550,70.450,447.796,-268.100,146.461,-51.150,45.630,-6.930
39,38011.133000,244.023,-34.568,67.473,441.869,-275.669,149.191,-61.150,32.630,-17.930
40,38011.173000,233.045,-33.566,69.457,440.035,-268.158,148.413,-30.150,29.630,-24.930
41,38011.213000,237.037,-37.573,72.434,441.886,-274.671,151.186,-15.150,-0.370,-15.930
42,38011.233000,243.025,-39.577,70.450,440.059,-267.080,153.361,41.850,22.630,7.070
43,38011.273000,237.037,-36.571,75.411,441.865,-276.483,154.086,60.850,22.630,-1.930
44,38011.313000,239.033,-35.569,77.395,440.942,-273.581,157.116,70.850,27.630,15.070
45,38011.353000,235.041,-40.579,76.403,443.881,-271.648,157.175,118.850,-8.370,29.070
46,38011.393000,246.020,-30.560,73.426,439.002,-273.582,158.097,122.850,-9.370,25.070
47,38011.433000,233.045,-34.568,72.434,439.981,-272.701,155.172,112.850,27.630,16.070
48,38011.473000,248.016,-35.569,69.457,441.034,-267.775,162.196,124.850,19.630,38.070
49,38011.493000,243.025,-20.540,71.442,441.942,-272.411,165.019,96.850,67.630,28.070
50,38011.533000,234.043,-22.544,83.349,439.087,-268.643,166.103,46.850,81.630,-2.930
51,38011.573000,239.033,-20.540,79.380,440.087,-266.712,167.142,1.850,63.630,11.070
52,38011.616000,236.039,-15.530,79.380,438.175,-264.822,168.175,-39.150,46.630,-25.930
53,38011.656000,233.045,-12.524,78.388,440.056,-268.656,165.121,-137.150,-11.370,-52.930
54,38011.694000,238.035,-36.571,77.395,442.029,-266.684,167.146,-125.150,-34.370,-49.930
55,38011.734000,238.035,-42.583,74.419,441.995,-268.654,164.140,-28.150,-27.370,-8.930
56,38011.774000,241.029,-33.566,73.426,441.924,-273.409,163.024,4.850,-21.370,-21.930
57,38011.794000,237.037,-36.571,73.426,443.034,-263.913,164.274,32.850,-19.370,4.070
58,38011.834000,239.033,-33.566,75.411,438.116,-268.657,166.101,50.850,-8.370,6.070
59,38011.876000,238.035,-29.558,75.411,446.892,-265.722,165.214,50.850,-4.370,1.070
60,38011.914000,239.033,-30.560,74.419,439.079,-268.748,162.166,43.850,-35.370,0.070
61,38011.954000,239.033,-31.562,71.442,441.109,-262.968,165.281,63.850,-30.370,7.070
62,38012.1000,241.029,-21.542,72.434,440.987,-271.452,166.028,31.850,-22.370,2.070
63,38012.34000,243.025,-26.552,74.419,441.054,-266.751,165.175,5.850,-19.370,3.070
64,38012.77000,238.035,-24.548,71.442,441.036,-267.749,163.180,-7.150,0.630,-5.930
65,38012.98000,235.041,-22.544,73.426,446.956,-261.047,163.377,-35.150,-15.370,-6.930
66,38012.138000,243.025,-27.554,74.419,444.864,-271.476,163.083,-36.150,-28.370,-5.930
67,38012.178000,240.031,-29.558,71.442,442.062,-263.953,163.288,-43.150,-26.370,-7.930
68,38012.218000,243.025,-32.564,69.457,444.930,-266.775,162.230,-34.150,-16.370,-3.930
69,38012.258000,237.037,-27.554,71.442,444.997,-262.073,161.378,-47.150,-0.370,1.070
70,38012.318000,240.031,-32.564,71.442,443.924,-268.785,158.238,-72.150,-23.370,-8.930
71,38012.334000,238.035,-34.568,73.426,443.005,-265.069,156.373,-63.150,-34.370,-5.930
72,38012.374000,240.031,-29.558,75.411,440.997,-269.798,157.222,-55.150,-33.370,-1.930
73,38012.394000,245.021,-29.558,73.426,441.045,-266.095,154.374,-61.150,-7.370,-9.930
74,38012.434000,242.027,-33.566,67.473,446.881,-265.093,153.428,-48.150,15.630,-2.930
75,38012.474000,243.025,-32.564,66.481,442.975,-266.986,155.336,-16.150,32.630,12.070
76,38012.517000,239.033,-30.560,70.450,443.916,-268.890,154.301,-13.150,48.630,5.070
77,38012.557000,237.037,-29.558,74.419,444.848,-271.687,155.208,-21.150,23.630,10.070
78,38012.597000,237.037,-27.554,74.419,446.887,-265.014,156.381,-27.150,-6.370,7.070
79,38012.637000,240.031,-29.558,72.434,442.963,-267.906,156.294,-24.150,-16.370,2.070
80,38012.677000,242.027,-32.564,68.465,447.785,-269.781,154.283,-19.150,-10.370,-0.930
81,38012.697000,245.021,-38.575,66.481,439.108,-266.069,156.339,17.850,2.630,1.070
82,38012.737000,236.039,-33.566,69.457,441.012,-268.826,158.232,31.850,10.630,17.070
83,38012.777000,241.029,-32.564,68.465,442.956,-268.772,159.221,39.850,-9.370,-1.930
84,38012.817000,241.029,-37.573,70.450,444.895,-268.771,158.240,51.850,-24.370,15.070
85,38012.857000,240.031,-32.564,72.434,441.040,-266.935,158.285,63.850,-53.370,9.070
86,38012.897000,238.035,-29.558,74.419,440.095,-265.084,157.351,59.850,-44.370,9.070
87,38012.937000,240.031,-31.562,71.442,441.957,-270.677,159.166,24.850,-16.370,21.070
88,38012.976000,240.031,-28.556,72.434,443.881,-271.648,157.175,31.850,-1.370,16.070
89,38012.996000,237.037,-28.556,74.419,440.016,-270.705,159.162,23.850,7.630,23.070
90,38013.36000,239.033,-31.562,77.395,443.020,-264.097,157.384,-1.150,-2.370,26.070
91,38013.76000,240.031,-29.558,71.442,438.000,-275.539,156.073,8.850,-6.370,23.070
92,38013.116000,242.027,-30.560,70.450,443.940,-267.813,159.249,18.850,-35.370,21.070
93,38013.156000,239.033,-25.550,67.473,437.022,-276.420,158.998,3.850,-44.370,19.070
94,38013.196000,247.018,-31.562,69.457,442.920,-270.769,155.231,6.850,-47.370,6.070
95,38013.236000,236.039,-32.564,72.434,440.959,-272.582,159.111,35.850,-23.370,21.070
96,38013.282000,235.041,-30.560,79.380,442.952,-268.825,157.252,45.850,-89.370,7.070
97,38013.302000,241.029,-36.571,83.349,439.000,-273.608,157.112,92.850,-83.370,29.070
98,38013.336000,232.047,-21.542,73.426,441.955,-269.942,151.318,91.850,-168.370,90.070
99,38013.376000,235.041,-27.554,60.527,436.031,-276.697,149.153,98.850,-185.370,134.070
100,38013.416000,255.002,-30.560,65.488,438.915,-278.547,149.106,149.850,-229.370,118.070
101,38013.456000,266.979,-42.583,66.481,440.847,-279.412,151.052,133.850,-105.370,139.070
102,38013.496000,257.996,-46.591,64.496,436.974,-278.574,149.102,122.850,-49.370,106.070
103,38013.536000,235.041,-55.609,57.550,433.011,-284.277,149.920,142.850,-98.370,54.070
104,38013.556000,250.012,-63.624,48.620,437.978,-276.590,152.110,33.850,32.630,108.070
105,38013.603000,232.047,-48.595,51.597,436.856,-287.006,151.818,91.850,99.630,42.070
106,38013.638000,223.064,-18.536,61.519,433.123,-277.447,157.979,-5.150,161.630,-87.930
107,38013.678000,245.021,-32.564,63.504,436.923,-283.066,157.829,-141.150,136.630,-171.930
108,38013.719000,245.021,-38.575,64.496,435.120,-273.637,158.089,-177.150,75.630,-123.930
109,38013.758000,236.039,-49.597,72.434,436.961,-280.281,155.940,-174.150,81.630,-38.930
110,38013.796000,233.045,-38.575,63.504,433.229,-269.934,156.221,-132.150,34.630,-72.930
111,38013.836000,246.020,-30.560,59.535,436.002,-279.376,154.980,-130.150,-29.370,-104.930
112,38013.856000,242.027,-47.593,67.473,438.061,-270.917,152.268,-94.150,-31.370,-40.930
113,38013.901000,248.016,-36.571,66.481,443.828,-274.643,151.190,-42.150,-16.370,-21.930
114,38013.939000,244.023,-29.558,65.488,439.071,-268.092,151.364,-26.150,32.630,-33.930
115,38013.979000,244.023,-31.562,58.543,444.826,-272.738,151.245,-36.150,21.630,-18.930
116,38014.19000,239.033,-33.566,57.550,442.912,-270.874,151.293,-50.150,2.630,-14.930
117,38014.59000,243.025,-32.564,63.504,439.049,-269.143,147.400,-55.150,26.630,-41.930
118,38014.99000,244.023,-34.568,60.527,439.929,-275.670,150.171,-62.150,30.630,-17.930
119,38014.141000,241.029,-36.571,61.519,441.020,-267.198,148.441,-45.150,1.630,-20.930
120,38014.161000,240.031,-33.566,64.496,440.978,-270.035,148.363,-33.150,-2.370,-28.930
121,38014.201000,242.027,-33.566,64.496,443.875,-270.966,147.358,-44.150,5.630,-13.930
122,38014.241000,245.021,-32.564,64.496,444.792,-274.708,148.239,-44.150,9.630,-21.930
123,38014.281000,240.031,-30.560,69.457,442.924,-269.955,150.335,-38.150,44.630,-17.930
124,38014.324000,245.021,-29.558,64.496,438.947,-275.842,144.263,-64.150,13.630,-19.930
125,38014.359000,243.025,-38.575,68.465,444.834,-271.871,148.318,-41.150,60.630,-19.930
126,38014.397000,241.029,-31.562,71.442,441.827,-278.506,149.112,-26.150,58.630,-14.930
127,38014.437000,239.033,-33.566,73.426,442.953,-268.037,151.372,6.850,29.630,-2.930
128,38014.457000,238.035,-29.558,71.442,440.843,-279.465,149.084,-0.150,5.630,3.070
129,38014.497000,242.027,-29.558,68.465,441.981,-268.077,150.386,-2.150,-24.370,-11.930
130,38014.539000,239.033,-34.568,67.473,441.890,-273.857,146.291,7.850,0.630,6.070
131,38014.581000,244.023,-32.564,69.457,445.836,-269.914,150.341,27.850,-3.370,0.070
132,38014.621000,237.037,-28.556,74.419,444.771,-276.521,151.139,5.850,18.630,1.070
133,38014.661000,242.027,-35.569,69.457,444.887,-268.876,154.303,6.850,-11.370,9.070
134,38014.699000,241.029,-31.562,72.434,442.878,-272.844,148.288,26.850,9.630,0.070
135,38014.739000,239.033,-32.564,72.434,441.981,-268.077,150.386,6.850,-4.370,-3.930
136,38014.759000,243.025,-35.569,68.465,444.771,-276.521,151.139,4.850,-1.370,5.070
137,38014.799000,241.029,-32.564,70.450,440.963,-271.768,154.216,12.850,-0.370,3.070
138,38014.837000,241.029,-33.566,71.442,445.783,-273.670,151.220,14.850,2.630,-2.930
139,38014.886000,236.039,-32.564,70.450,444.914,-266.985,154.356,23.850,-4.370,3.070
140,38014.921000,243.025,-32.564,69.457,442.946,-268.904,154.299,29.850,-16.370,4.070
141,38014.959000,239.033,-27.554,71.442,441.971,-268.970,152.328,12.850,1.630,-2.930
142,38015.1000,241.029,-33.566,68.465,444.895,-268.010,151.376,-2.150,-25.370,4.070
143,38015.41000,243.025,-34.568,65.488,444.708,-281.170,153.961,15.850,-8.370,2.070
144,38015.61000,240.031,-30.560,70.450,444.816,-273.631,153.187,8.850,-9.370,-0.930
145,38015.101000,242.027,-32.564,67.473,444.848,-271.687,155.208,-1.150,-11.370,0.070
146,38015.141000,241.029,-34.568,67.473,443.930,-267.945,154.327,16.850,-3.370,3.070
147,38015.181000,239.033,-31.562,69.457,440.929,-273.739,151.210,5.850,-2.370,3.070
148,38015.219000,239.033,-31.562,68.465,443.975,-264.294,149.511,5.850,-3.370,2.070
149,38015.257000,241.029,-32.564,67.473,440.955,-271.874,150.279,-15.150,-18.370,1.070
150,38015.297000,241.029,-34.568,66.481,442.920,-270.008,148.367,-7.150,-15.370,-2.930
151,38015.317000,241.029,-32.564,69.457,441.896,-273.778,149.244,-13.150,-6.370,-0.930
152,38015.357000,242.027,-32.564,66.481,444.879,-268.982,150.366,-9.150,-0.370,-9.930
153,38015.397000,240.031,-36.571,68.465,444.759,-277.440,152.097,-9.150,-0.370,2.070
154,38015.439000,241.029,-31.562,67.473,446.806,-269.900,150.343,-3.150,-7.370,-3.930
155,38015.479000,241.029,-32.564,65.488,444.810,-273.710,150.234,3.850,-11.370,0.070
156,38015.519000,241.029,-32.564,69.457,441.037,-266.200,150.437,6.850,-2.370,2.070
157,38015.559000,241.029,-31.562,68.465,442.916,-270.822,153.262,5.850,-22.370,1.070
158,38015.602000,244.023,-32.564,67.473,440.039,-268.105,150.382,-9.150,-15.370,-5.930
159,38015.622000,243.025,-35.569,63.504,441.928,-271.834,151.265,-7.150,-3.370,-2.930
160,38015.659000,241.029,-32.564,67.473,445.828,-270.019,146.404,5.850,-3.370,-0.930
161,38015.702000,242.027,-34.568,66.481,442.863,-273.816,147.277,4.850,-9.370,-1.930
162,38015.748000,242.027,-34.568,66.481,446.834,-268.009,150.396,15.850,-6.370,6.070
163,38015.782000,240.031,-26.552,67.473,447.734,-272.749,149.282,-10.150,-16.370,4.070
164,38015.822000,243.025,-28.556,62.512,445.857,-268.101,147.441,-62.150,-12.370,2.070
165,38015.862000,237.037,-37.573,68.465,442.874,-272.897,146.319,-65.150,-21.370,-18.930
166,38015.902000,244.023,-39.577,64.496,443.928,-267.210,146.479,-36.150,-14.370,-17.930
167,38015.922000,246.020,-32.564,68.465,445.773,-273.802,146.299,-50.150,39.630,-8.930
168,38015.962000,240.031,-37.573,63.504,446.753,-272.895,144.358,-45.150,49.630,-16.930
169,38016.1000,241.029,-37.573,69.457,444.898,-267.196,146.481,3.850,24.630,-8.930
170,38016.42000,238.035,-32.564,69.457,444.857,-270.033,146.402,22.850,15.630,-13.930
171,38016.82000,242.027,-35.569,70.450,447.826,-266.183,147.498,45.850,-28.370,-8.930
172,38016.122000,240.031,-34.568,62.512,446.826,-268.114,146.459,45.850,-14.370,4.070
173,38016.158000,243.025,-25.550,64.496,447.828,-266.156,148.482,45.850,-27.370,-6.930
174,38016.203000,242.027,-33.566,67.473,445.828,-270.019,146.404,29.850,-11.370,-22.930
175,38016.223000,244.023,-32.564,68.465,449.775,-265.288,144.575,29.850,6.630,-24.930
176,38016.258000,245.021,-27.554,71.442,447.816,-267.076,149.440,34.850,33.630,-13.930
177,38016.298000,257.996,-37.573,94.264,449.846,-261.295,152.555,145.850,132.630,-99.930
178,38016.338000,258.994,-55.609,139.907,448.860,-263.042,158.406,352.850,181.630,-201.930
179,38016.378000,142.222,-80.658,80.372,451.057,-246.650,169.686,914.850,37.630,-45.930
180,38016.418000,189.131,-11.523,0.992,455.863,-249.497,166.664,424.850,-492.370,128.070
181,38016.458000,325.864,85.667,-16.868,458.818,-245.070,154.005,-8.150,-560.370,99.070
182,38016.504000,269.973,-5.511,13.891,460.722,-247.065,149.035,-6.150,-385.370,-262.930
183,38016.518000,206.097,-23.546,19.845,468.651,-234.846,142.503,159.850,-386.370,-188.930
184,38016.558000,207.096,37.573,18.853,470.490,-240.756,132.505,-125.150,-484.370,180.070
185,38016.598000,280.951,2.505,97.240,472.281,-248.820,112.612,-493.150,-476.370,481.070
186,38016.644000,299.914,-74.646,85.333,466.341,-256.546,109.436,-192.150,-175.370,105.070
187,38016.681000,284.943,-31.562,66.481,465.417,-252.883,105.602,-114.150,-66.370,-325.930
188,38016.721000,293.926,-36.571,74.419,470.314,-249.951,106.675,51.850,114.630,-92.930
189,38016.762000,258.994,-22.544,49.612,467.452,-247.811,117.550,159.850,350.630,136.070
190,38016.802000,231.049,19.538,30.760,461.620,-248.760,120.464,80.850,252.630,151.070
191,38016.822000,261.988,-20.540,20.837,462.552,-252.318,128.236,100.850,169.630,-77.930
192,38016.863000,257.996,0.501,37.705,466.533,-245.618,129.413,38.850,87.630,-145.930
193,38016.903000,245.021,-2.505,33.736,464.542,-249.349,132.256,-58.150,-39.370,-73.930
194,38016.943000,210.090,-14.528,31.752,464.558,-248.377,133.267,-147.150,1.630,199.070
195,38016.982000,208.094,-5.511,38.698,457.685,-253.333,128.199,-386.150,-33.370,384.070
196,38017.22000,237.037,-69.636,94.264,452.686,-262.963,123.989,-238.150,-103.370,405.070
197,38017.59000,311.891,-53.605,78.388,452.703,-261.204,119.120,216.850,-374.370,-212.930
198,38017.79000,245.021,44.587,74.419,455.661,-258.273,121.173,183.850,-36.370,-84.930
199,38017.119000,251.010,-82.661,47.628,455.578,-263.947,121.015,-273.150,6.630,-104.930
200,38017.158000,279.953,-136.767,47.628,459.531,-258.376,115.275,-122.150,-62.370,-11.930
201,38017.204000,274.963,-59.616,-1.984,451.518,-275.507,114.785,103.850,-47.370,486.070
202,38017.241000,218.074,-23.546,0.000,449.630,-272.540,120.766,-94.150,119.630,197.070
203,38017.283000,196.117,-41.581,-3.969,448.680,-271.529,123.744,-29.150,365.630,-86.930
204,38017.324000,133.240,-63.624,94.264,449.737,-266.550,132.736,216.850,172.630,-398.930
205,38017.363000,449.622,118.732,95.256,452.660,-264.828,124.920,-551.150,-540.370,-52.930
206,38017.384000,230.051,-50.599,53.581,451.538,-274.482,117.765,-608.150,500.630,204.070
207,38017.422000,190.129,-99.695,49.612,443.741,-276.536,115.727,-211.150,-20.370,263.070
208,38017.461000,248.016,-33.566,28.775,447.589,-279.239,118.609,16.850,-159.370,263.070
209,38017.499000,272.967,-21.542,18.853,440.635,-289.843,114.368,-154.150,220.630,296.070
210,38017.542000,230.051,-70.638,27.783,437.670,-293.640,115.241,-98.150,120.630,303.070
211,38017.582000,223.064,-62.622,38.698,430.726,-304.112,115.922,-53.150,-22.370,182.070
212,38017.622000,221.068,-71.640,38.698,433.640,-304.045,116.912,34.850,166.630,-94.930
213,38017.662000,180.148,-124.744,29.767,436.635,-299.091,123.940,91.850,240.630,-274.930
214,38017.682000,212.086,-89.675,96.248,439.820,-280.925,130.353,494.850,-162.370,-271.930
215,38017.724000,318.877,64.626,71.442,434.837,-289.583,127.153,195.850,-114.370,411.070
216,38017.764000,287.938,52.603,45.643,431.874,-293.354,129.010,30.850,77.630,303.070
217,38017.804000,292.928,-14.528,76.403,433.733,-299.000,128.856,-2.150,36.630,-57.930
218,38017.844000,205.099,-76.650,81.364,433.892,-288.493,133.083,78.850,249.630,16.070
219,38017.882000,234.043,-86.669,63.504,432.824,-295.914,138.777,-102.150,173.630,1.070
220,38017.919000,252.008,-67.632,33.736,427.973,-295.956,139.751,-88.150,106.630,213.070
221,38017.959000,210.090,-81.659,51.597,427.953,-296.981,136.771,62.850,-123.370,196.070
222,38017.982000,225.060,-42.583,40.682,431.715,-304.623,131.647,126.850,-234.370,-52.930
223,38018.22000,178.152,-37.573,23.814,436.722,-294.126,132.931,-333.150,117.630,-204.930
224,38018.62000,206.097,-45.589,64.496,439.830,-280.032,128.410,-64.150,-236.370,-564.930
225,38018.102000,267.977,4.509,57.550,445.711,-275.379,122.648,-62.150,-145.370,-399.930
226,38018.142000,332.850,-61.620,117.085,448.656,-273.367,125.660,123.850,296.630,-151.930
227,38018.181000,269.973,-61.620,73.426,446.845,-266.328,142.574,239.850,418.630,-104.930
228,38018.219000,205.099,-50.599,33.736,451.767,-261.531,142.716,286.850,-5.370,-261.930
229,38018.259000,273.965,-3.507,33.736,454.754,-256.683,145.806,453.850,-67.370,-78.930
230,38018.279000,258.994,8.517,30.760,458.753,-248.984,148.978,279.850,116.630,-324.930
231,38018.319000,225.060,-10.521,37.705,461.816,-239.302,156.138,231.850,66.630,-352.930
232,38018.359000,221.068,-0.501,35.721,460.822,-241.154,158.052,187.850,-88.370,-67.930
233,38018.399000,218.074,25.550,40.682,467.664,-237.381,154.234,-43.150,-137.370,107.070
234,38018.439000,196.117,4.509,77.395,459.835,-241.379,150.175,-222.150,-186.370,48.070
235,38018.479000,261.988,-85.667,81.364,466.692,-235.872,140.504,-181.150,-378.370,-172.930
236,38018.521000,335.844,-78.654,85.333,468.620,-236.029,133.617,223.850,-263.370,-220.930
237,38018.563000,310.893,-43.585,82.357,468.795,-225.311,145.719,496.850,202.630,-50.930
238,38018.583000,210.090,-28.556,52.589,466.819,-228.857,155.453,519.850,334.630,197.070
239,38018.621000,211.088,17.534,36.713,469.747,-227.844,156.470,74.850,-87.370,86.070
240,38018.663000,253.006,16.532,19.845,469.692,-231.627,156.364,-0.150,-194.370,-114.930
241,38018.702000,262.986,-11.523,26.791,472.778,-218.584,147.880,66.850,-291.370,-237.930
242,38018.742000,243.025,19.538,36.713,476.645,-219.501,146.877,129.850,-177.370,-185.930
243,38018.781000,223.064,44.587,24.806,476.721,-213.906,144.082,-1.150,-125.370,-121.930
244,38018.821000,210.090,39.577,26.791,479.525,-220.642,137.998,-190.150,-325.370,14.070
245,38018.841000,198.113,39.577,45.643,480.387,-226.644,125.046,-257.150,-466.370,145.070
246,38018.884000,256.998,-16.532,61.519,480.311,-229.929,108.233,-343.150,-579.370,163.070
247,38018.924000,296.920,-106.708,56.558,481.335,-225.397,100.492,-479.150,-246.370,-248.930
248,38018.964000,342.830,-94.685,55.566,489.166,-219.824,92.791,-212.150,-181.370,-354.930
249,38019.4000,331.852,-67.632,53.581,484.346,-217.923,95.787,202.850,229.630,125.070
250,38019.42000,271.969,28.556,45.643,482.270,-228.903,110.232,236.850,499.630,299.070
251,38019.83000,225.060,63.624,30.760,475.519,-226.897,118.145,-11.150,430.630,288.070
252,38019.123000,262.986,3.507,26.791,474.584,-224.914,122.133,-104.150,149.630,-8.930
253,38019.143000,257.996,-2.505,25.798,471.561,-233.308,127.796,-18.150,140.630,66.070
254,38019.183000,233.045,6.513,34.729,471.461,-240.742,132.507,-83.150,223.630,184.070
255,38019.224000,204.101,-10.521,34.729,466.513,-247.404,133.297,-27.150,155.630,167.070
256,38019.264000,192.125,-4.509,37.705,464.540,-249.375,131.272,-128.150,10.630,371.070
257,38019.306000,226.058,-33.566,68.465,460.455,-262.801,125.974,-260.150,-158.370,399.070
258,38019.346000,302.908,-70.638,76.403,453.568,-268.702,120.880,-108.150,-225.370,293.070
259,38019.386000,346.823,-15.530,88.310,455.476,-270.645,117.878,68.850,-145.370,285.070
260,38019.423000,251.010,32.564,46.636,443.696,-280.187,120.544,-259.150,365.630,221.070
261,38019.443000,184.140,5.511,39.690,445.481,-291.402,124.169,-384.150,445.630,65.070
262,38019.483000,193.123,-97.691,55.566,443.602,-286.780,121.344,-353.150,-80.370,113.070
263,38019.531000,306.901,-84.665,14.884,435.666,-298.317,118.059,-316.150,324.630,500.070
264,38019.566000,187.135,-42.583,30.760,424.908,-304.116,118.863,-366.150,246.630,375.070
265,38019.604000,224.062,-63.624,20.837,424.741,-315.490,117.563,-302.150,119.630,144.070
266,38019.644000,196.117,-82.661,36.713,425.802,-309.697,121.660,-165.150,204.630,-87.930
267,38019.682000,237.037,-58.614,91.287,428.736,-307.843,118.766,-126.150,65.630,-357.930
268,38019.724000,278.955,-14.528,77.395,430.722,-304.165,113.953,-185.150,-79.370,52.070
269,38019.744000,256.998,-64.626,69.457,428.700,-309.840,114.776,-164.150,-64.370,141.070
270,38019.782000,239.033,-40.579,66.481,424.743,-314.702,111.683,-137.150,154.630,184.070
271,38019.829000,196.117,-36.571,39.690,424.690,-318.458,112.562,-309.150,229.630,2.070
272,38019.863000,257.996,-73.644,30.760,424.623,-322.399,106.551,-237.150,6.630,29.070
273,38019.906000,229.053,-80.658,28.775,417.936,-314.956,105.763,-139.150,-26.370,195.070
274,38019.946000,213.084,-71.640,33.736,414.938,-320.724,103.630,-111.150,-22.370,90.070
275,38019.994000,227.057,-55.609,25.798,422.685,-321.612,101.651,-139.150,0.630,-14.930
276,38020.23000,203.103,-99.695,25.798,418.873,-316.913,102.759,41.850,-6.370,-111.930
277,38020.47000,169.170,-138.771,69.457,430.568,-313.832,105.815,361.850,5.630,-469.930
278,38020.82000,218.074,-67.632,105.178,432.746,-298.464,114.115,539.850,-12.370,-435.930
279,38020.122000,271.969,35.569,68.465,432.750,-299.172,122.948,461.850,66.630,503.070
280,38020.162000,391.735,-10.521,47.628,421.975,-305.969,121.757,207.850,-266.370,357.070
281,38020.208000,327.860,43.585,75.411,426.858,-303.983,122.804,248.850,-116.370,-104.930
282,38020.242000,231.049,-37.573,61.519,424.865,-306.979,117.800,-273.150,23.630,-36.930
283,38020.282000,203.103,-115.726,50.605,428.816,-302.196,117.939,-282.150,113.630,-52.930
284,38020.322000,230.051,-93.683,41.674,423.851,-309.856,116.734,3.850,-73.370,103.070
285,38020.342000,266.979,-51.601,40.682,424.829,-308.975,113.810,-34.150,-158.370,86.070
286,38020.382000,258.994,-50.599,54.574,426.578,-322.187,113.445,-221.150,13.630,41.070
287,38020.428000,219.072,-45.589,55.566,424.751,-313.835,108.756,-357.150,70.630,-22.930
288,38020.464000,208.094,-81.659,51.597,423.685,-319.681,102.690,-270.150,-72.370,-94.930
289,38020.507000,222.066,-62.622,43.659,428.593,-315.068,95.941,-181.150,-11.370,-156.930
290,38020.546000,236.039,-59.616,45.643,431.503,-315.053,94.963,-65.150,-18.370,-187.930
291,38020.587000,220.070,-60.618,45.643,431.672,-303.653,97.248,-13.150,-26.370,-214.930
292,38020.627000,204.101,-64.626,40.682,435.547,-303.703,93.318,-7.150,-77.370,-230.930
293,38020.647000,217.076,-67.632,24.806,443.516,-289.435,92.745,89.850,-166.370,-291.930
294,38020.686000,231.049,-62.622,50.605,446.487,-285.559,94.825,256.850,-37.370,-426.930
295,38020.724000,255.002,-46.591,58.543,452.496,-273.104,98.133,342.850,32.630,-286.930
296,38020.763000,289.934,-43.585,78.388,454.408,-275.755,103.964,328.850,57.630,122.070
297,38020.803000,306.901,-35.569,63.504,452.422,-279.434,108.776,281.850,220.630,121.070
298,38020.843000,260.990,-49.597,47.628,448.573,-278.280,118.638,433.850,87.630,159.070
299,38020.883000,256.000,-37.573,49.612,449.613,-274.299,125.635,506.850,-75.370,83.070
300,38020.922000,268.975,-6.513,50.605,448.721,-269.453,130.687,458.850,20.630,-91.930
301,38020.942000,241.029,7.515,49.612,446.886,-262.730,135.789,357.850,65.630,-89.930
302,38020.982000,221.068,-4.509,49.612,456.542,-266.322,137.672,213.850,-33.370,-63.930
303,38021.22000,227.057,-1.503,45.643,453.710,-260.716,136.840,143.850,-112.370,-66.930
304,38021.62000,204.101,-0.501,43.659,456.613,-261.568,138.788,-4.150,-144.370,-43.930
305,38021.108000,188.133,-17.534,47.628,459.573,-257.823,135.947,-71.150,-66.370,-71.930
306,38021.148000,187.135,-37.573,75.411,459.614,-254.225,129.161,9.850,-241.370,-300.930
307,38021.188000,299.914,-62.622,57.550,462.646,-245.725,127.436,211.850,-284.370,-140.930
308,38021.228000,351.813,-60.618,89.302,464.587,-245.698,127.440,271.850,112.630,73.070
309,38021.248000,314.885,-74.646,78.388,462.593,-250.243,135.179,333.850,282.630,52.070
310,38021.288000,172.164,-37.573,60.527,457.859,-244.164,153.045,524.850,490.630,2.070
311,38021.328000,177.154,-7.515,45.643,457.005,-237.295,163.071,419.850,125.630,-21.930
312,38021.366000,261.988,-5.511,17.860,460.933,-234.350,165.126,380.850,-81.370,-115.930
313,38021.406000,252.008,-2.505,26.791,462.896,-233.272,169.094,333.850,-174.370,-247.930
314,38021.446000,239.033,16.532,36.713,467.945,-219.150,164.577,277.850,-214.370,-226.930
315,38021.492000,205.099,21.542,33.736,469.873,-220.069,164.555,213.850,-251.370,-116.930
316,38021.507000,207.096,36.571,22.822,474.706,-220.263,154.722,46.850,-432.370,115.070
317,38021.548000,224.062,41.581,25.798,472.636,-228.093,145.648,-98.150,-579.370,282.070
318,38021.593000,282.947,-28.556,77.395,473.585,-228.368,134.822,-256.150,-442.370,273.070
319,38021.628000,307.899,-43.585,65.488,472.524,-234.161,130.725,-105.150,-129.370,-87.930
320,38021.668000,274.963,-68.634,55.566,471.663,-226.610,130.933,61.850,-11.370,-130.930
321,38021.707000,256.000,-35.569,44.651,470.671,-227.675,126.968,71.850,-31.370,92.070
322,38021.747000,248.016,-3.507,51.597,466.768,-229.516,130.844,39.850,50.630,119.070
323,38021.787000,243.025,-9.519,53.581,468.651,-234.085,135.639,-90.150,155.630,41.070
324,38021.807000,205.099,-29.558,60.527,470.655,-229.408,132.821,-260.150,76.630,-170.930
325,38021.848000,225.060,-47.593,55.566,472.549,-232.296,129.793,-281.150,-24.370,-147.930
326,38021.888000,278.955,-49.597,50.605,473.569,-228.579,126.947,-51.150,29.630,97.070
327,38021.927000,307.899,1.503,33.736,468.580,-238.839,134.523,133.850,276.630,255.070
328,38021.968000,289.934,6.513,34.729,466.669,-237.710,142.420,177.850,269.630,251.070
329,38022.8000,267.977,15.530,33.736,464.639,-244.252,146.169,39.850,182.630,-44.930
330,38022.48000,245.021,5.511,29.767,462.855,-233.799,149.407,31.850,288.630,-84.930
331,38022.87000,218.074,-0.501,38.698,462.803,-238.316,157.150,-6.150,285.630,-8.930
332,38022.107000,206.097,-13.526,36.713,459.009,-233.380,167.117,20.850,162.630,24.070
333,38022.147000,198.113,-12.524,43.659,458.920,-239.132,164.006,-12.150,82.630,103.070
334,38022.188000,209.092,-19.538,43.659,455.945,-243.062,159.958,-128.150,-101.370,251.070
335,38022.228000,216.078,-16.532,32.744,455.776,-254.462,157.673,-266.150,-267.370,315.070
336,38022.268000,246.020,-18.536,45.643,450.748,-265.248,145.561,-397.150,-457.370,221.070
337,38022.303000,315.883,-46.591,59.535,455.595,-264.497,135.754,-76.150,-363.370,-36.930
338,38022.351000,332.850,-6.513,91.287,458.503,-264.509,133.792,44.850,-146.370,-172.930
339,38022.384000,222.066,0.501,71.442,453.749,-257.905,135.934,-205.150,310.630,-12.930
340,38022.404000,165.177,-64.626,50.605,454.640,-263.539,136.763,-246.150,148.630,-14.930
341,38022.444000,301.910,-73.644,20.837,453.618,-266.521,131.760,-128.150,-207.370,91.070
342,38022.484000,237.037,-35.569,19.845,449.774,-263.766,130.847,-72.150,52.630,164.070
343,38022.524000,219.072,-40.579,23.814,450.702,-266.615,129.785,-91.150,54.630,161.070
344,38022.568000,220.070,-44.587,24.806,444.840,-269.482,131.663,-6.150,11.630,63.070
345,38022.608000,196.117,-28.556,48.620,452.620,-268.426,131.706,-16.150,64.630,-106.930
346,38022.649000,244.023,-33.566,65.488,448.798,-264.620,134.756,38.850,-17.370,-59.930
347,38022.689000,247.018,-20.540,68.465,448.672,-273.157,133.535,-28.150,-25.370,250.070
348,38022.704000,260.990,-27.554,59.535,440.877,-275.184,132.481,-165.150,-51.370,175.070
349,38022.744000,313.887,-40.579,54.574,444.736,-276.207,127.541,-136.150,-80.370,57.070
350,38022.784000,320.873,-41.581,79.380,437.890,-279.271,122.527,-217.150,10.630,69.070
351,38022.824000,289.934,-26.552,76.403,438.851,-280.151,124.471,-372.150,440.630,251.070
352,38022.864000,195.119,-18.536,48.620,430.902,-293.394,128.024,-404.150,451.630,465.070
353,38022.907000,215.080,-56.611,26.791,421.110,-299.232,126.861,-382.150,290.630,438.070
354,38022.947000,242.027,-62.622,24.806,417.923,-318.186,126.329,-347.150,118.630,263.070
355,38022.988000,200.109,-61.620,29.767,415.037,-316.362,125.391,-266.150,210.630,309.070
356,38023.8000,192.125,-59.616,29.767,408.034,-330.669,123.998,-222.150,109.630,273.070
357,38023.47000,202.105,-113.722,20.837,405.165,-327.847,125.055,-121.150,18.630,74.070
358,38023.87000,208.094,-111.718,44.651,403.179,-330.764,123.003,26.850,40.630,-136.930
359,38023.127000,267.977,-27.554,117.085,412.121,-317.217,130.280,311.850,-11.370,-323.930
360,38023.164000,288.936,-35.569,119.070,411.035,-325.636,133.979,-56.150,245.630,-109.930
361,38023.207000,250.012,-38.575,63.504,406.374,-312.466,134.337,-324.150,147.630,-17.930
362,38023.247000,272.967,-57.613,38.698,409.221,-316.339,129.316,-109.150,-168.370,-56.930
363,38023.267000,239.033,-65.628,57.550,413.107,-315.470,124.429,-85.150,-0.370,-100.930
364,38023.304000,238.035,-51.601,48.620,413.074,-318.202,128.287,-126.150,93.630,-26.930
365,38023.344000,230.051,-47.593,61.519,413.111,-315.418,126.398,-3.150,-15.370,14.070
366,38023.391000,234.043,-26.552,73.426,412.040,-322.103,124.243,-137.150,-60.370,-104.930
367,38023.424000,249.014,-61.620,62.512,416.915,-320.222,121.352,-227.150,-106.370,-186.930
368,38023.464000,249.014,-104.704,69.457,420.935,-309.950,114.759,-185.150,-57.370,-150.930
369,38023.506000,234.043,-94.685,55.566,418.035,-309.072,113.795,-84.150,-60.370,-80.930
370,38023.546000,253.006,-75.648,55.566,422.831,-312.812,112.716,-9.150,-214.370,-61.930
371,38023.566000,253.006,-53.605,44.651,425.827,-306.309,107.000,-98.150,-102.370,-14.930
372,38023.608000,249.014,-61.620,45.643,421.840,-313.089,102.870,-150.150,-22.370,20.070
373,38023.649000,223.064,-63.624,42.667,424.860,-305.509,102.103,-50.150,-107.370,-93.930
374,38023.689000,219.072,-48.595,50.605,433.608,-304.466,101.163,15.850,-38.370,-182.930
375,38023.728000,184.140,-56.611,36.713,430.798,-297.809,104.294,116.850,70.630,-230.930
376,38023.767000,174.160,-32.564,36.713,437.581,-297.870,98.402,81.850,-241.370,-356.930
377,38023.808000,216.078,-30.560,29.767,447.405,-289.301,95.706,106.850,-239.370,-408.930
378,38023.851000,286.940,-38.575,46.636,445.650,-276.169,93.118,121.850,-263.370,-354.930
379,38023.871000,325.864,-72.642,78.388,450.594,-270.321,97.223,216.850,85.630,-46.930
380,38023.911000,250.012,-69.636,105.178,445.718,-272.990,105.993,358.850,232.630,230.070
381,38023.951000,259.992,-40.579,68.465,441.843,-273.701,116.787,424.850,196.630,191.070
382,38023.991000,256.000,-10.521,24.806,446.667,-276.311,122.624,370.850,36.630,56.070
383,38024.31000,272.967,-0.501,25.798,445.614,-281.998,122.464,284.850,-87.370,-63.930
384,38024.71000,239.033,-16.532,38.698,449.678,-269.624,123.798,208.850,-47.370,-172.930
385,38024.111000,232.047,-16.532,35.721,452.653,-265.695,127.847,103.850,30.630,-226.930
386,38024.149000,220.070,-0.501,37.705,455.669,-258.167,125.111,-30.150,-19.370,-181.930
387,38024.169000,208.094,-10.521,33.736,453.680,-261.111,122.075,-179.150,-76.370,-197.930
388,38024.206000,200.109,-10.521,50.605,459.580,-255.434,119.292,-208.150,-169.370,-113.930
389,38024.249000,240.031,-48.595,81.364,459.527,-258.428,113.307,-19.150,-136.370,-100.930
390,38024.288000,266.979,-58.614,75.411,461.517,-254.697,110.463,119.850,-207.370,-119.930
391,38024.329000,329.856,-48.595,73.426,466.318,-258.385,111.352,115.850,-70.370,74.070
392,38024.373000,324.866,-89.675,90.295,461.596,-249.838,115.516,323.850,314.630,68.070
393,38024.408000,194.121,-59.616,56.558,456.744,-252.190,136.099,613.850,620.630,45.070
394,38024.448000,155.197,9.519,15.876,457.819,-246.213,147.086,530.850,140.630,141.070
395,38024.469000,277.957,15.530,-5.953,460.670,-250.033,144.034,249.850,-281.370,-68.930
396,38024.509000,256.998,-6.513,17.860,461.753,-242.428,145.231,283.850,-227.370,-240.930
397,38024.548000,230.051,-4.509,23.814,469.716,-228.239,141.705,346.850,-243.370,-315.930
398,38024.587000,207.096,11.523,21.829,473.689,-221.644,138.944,337.850,-366.370,-248.930
399,38024.627000,202.105,43.585,13.891,474.567,-226.674,127.002,22.850,-608.370,10.070
400,38024.683000,244.023,74.646,24.806,476.527,-224.099,116.257,-143.150,-550.370,309.070
401,38024.709000,247.018,-31.562,78.388,474.456,-232.716,113.063,-124.150,-29.370,158.070
402,38024.751000,265.980,-47.593,88.310,467.744,-227.139,113.207,-11.150,26.630,-204.930
403,38024.771000,291.930,-34.568,40.682,475.443,-231.731,114.076,20.850,-57.370,-132.930
404,38024.809000,309.895,-83.663,37.705,476.450,-228.171,105.324,-10.150,-265.370,58.070
405,38024.849000,307.899,-43.585,32.744,477.435,-227.212,105.353,156.850,-110.370,47.070
406,38024.887000,245.021,-12.524,41.674,474.590,-223.313,111.358,208.850,314.630,37.070
407,38024.927000,187.135,-11.523,52.589,473.606,-225.033,118.194,61.850,215.630,-16.930
408,38024.966000,213.084,-13.526,35.721,474.535,-227.857,118.117,-87.150,44.630,68.070
409,38025.7000,240.031,-23.546,34.729,469.636,-230.815,116.059,-174.150,-22.370,247.070
410,38025.47000,275.961,-65.628,56.558,463.726,-236.624,113.920,-34.150,16.630,256.070
411,38025.67000,307.899,-9.519,50.605,464.679,-238.370,118.791,184.850,243.630,26.070
412,38025.116000,279.953,35.569,33.736,461.817,-236.230,129.666,124.850,233.630,64.070
413,38025.147000,283.945,1.503,27.783,468.492,-244.592,131.412,86.850,193.630,-36.930
414,38025.188000,259.992,-4.509,25.798,461.766,-240.721,138.393,50.850,267.630,-93.930
415,38025.228000,238.035,-12.524,25.798,461.841,-236.676,148.342,130.850,330.630,38.070
416,38025.269000,203.103,-9.519,31.752,458.898,-239.422,153.179,93.850,92.630,92.070
417,38025.309000,199.111,-18.536,14.884,459.904,-237.412,157.171,39.850,-80.370,96.070
418,38025.353000,198.113,-21.542,29.767,454.864,-249.879,152.881,-164.150,-150.370,341.070
419,38025.367000,235.041,-12.524,79.380,451.950,-249.185,145.026,-358.150,-205.370,348.070
420,38025.407000,317.879,-59.616,93.271,450.753,-263.647,134.786,-251.150,-260.370,155.070
421,38025.447000,311.891,-42.583,98.233,450.851,-257.001,135.955,-71.150,84.630,-239.930
422,38025.489000,253.006,10.521,56.558,456.616,-260.754,133.893,-290.150,137.630,-11.930
423,38025.529000,223.064,-34.568,49.612,453.688,-261.767,132.876,-418.150,93.630,93.070
424,38025.569000,300.912,-74.646,29.767,444.846,-268.642,127.752,-426.150,103.630,380.070
425,38025.607000,210.090,-61.620,29.767,441.732,-282.815,129.320,-188.150,265.630,463.070
426,38025.632000,230.051,-66.630,19.845,433.969,-282.898,130.288,-127.150,159.630,281.070
427,38025.672000,215.080,-29.558,21.829,433.879,-289.439,133.057,-14.150,253.630,60.070
428,38025.707000,189.131,-23.546,41.674,432.908,-290.214,139.919,-31.150,151.630,-136.930
429,38025.749000,284.943,-33.566,78.388,432.961,-286.458,139.040,-113.150,-9.370,-289.930
430,38025.789000,278.955,-39.577,80.372,436.816,-288.294,138.995,-203.150,128.630,-132.930
431,38025.831000,236.039,-69.636,82.357,437.742,-291.170,136.950,-223.150,25.630,112.070
432,38025.874000,249.014,-46.591,72.434,433.828,-293.169,134.920,-148.150,6.630,144.070
433,38025.907000,235.041,-43.585,64.496,429.949,-293.171,136.881,-114.150,159.630,230.070
434,38025.927000,246.020,-45.589,53.581,424.898,-307.319,140.413,-129.150,178.630,342.070
435,38025.968000,237.037,-33.566,55.566,414.244,-305.632,138.475,-270.150,201.630,349.070
436,38026.8000,215.080,-36.571,51.597,413.179,-312.238,139.273,-393.150,311.630,209.070
437,38026.47000,215.080,-70.638,42.667,404.321,-320.847,140.002,-272.150,273.630,218.070
438,38026.92000,197.115,-81.659,37.705,400.307,-330.279,142.684,-194.150,259.630,306.070
439,38026.137000,171.166,-65.628,35.721,394.440,-333.225,141.609,-136.150,127.630,261.070
440,38026.172000,190.129,-86.669,24.806,390.551,-333.359,138.647,-23.150,-48.370,135.070
441,38026.212000,213.084,-106.708,63.504,397.387,-330.425,138.741,154.850,-165.370,-228.930
442,38026.233000,281.949,-41.581,122.047,399.474,-320.836,142.945,264.850,-33.370,-301.930
443,38026.267000,262.986,-70.638,113.116,397.448,-326.564,141.799,20.850,90.630,11.070
444,38026.308000,325.864,-52.603,58.543,397.444,-326.617,139.830,-170.150,-164.370,50.070
445,38026.351000,271.969,-79.656,65.488,400.326,-327.732,131.935,-95.150,-176.370,-79.930
446,38026.411000,256.998,-95.687,68.465,402.338,-322.950,133.055,-53.150,-71.370,-138.930
447,38026.432000,256.000,-58.614,64.496,401.295,-327.744,130.953,-6.150,44.630,-15.930
448,38026.472000,200.109,-72.642,70.450,405.351,-316.236,135.214,85.850,-43.370,-76.930
449,38026.511000,204.101,-73.644,66.481,405.317,-318.207,132.209,118.850,-179.370,-174.930
450,38026.532000,224.062,-59.616,67.473,411.323,-305.017,127.667,52.850,-328.370,-296.930
451,38026.573000,249.014,-67.632,57.550,418.017,-310.831,118.664,-153.150,-311.370,-217.930
452,38026.613000,269.973,-76.650,51.597,424.955,-300.438,115.031,-155.150,-189.370,-202.930
453,38026.653000,268.975,-63.624,55.566,426.829,-304.351,109.023,-94.150,21.630,-210.930
454,38026.693000,254.004,-65.628,44.651,430.822,-296.731,109.242,-137.150,117.630,-72.930
455,38026.733000,226.058,-53.605,46.636,429.745,-304.258,110.998,44.850,4.630,9.070
456,38026.773000,210.090,-48.595,46.636,429.828,-298.584,111.156,-95.150,-7.370,-3.930
457,38026.813000,209.092,-47.593,38.698,432.761,-296.730,108.262,-25.150,-27.370,-37.930
458,38026.833000,200.109,-39.577,41.674,437.628,-295.716,108.298,30.850,-34.370,-178.930
459,38026.868000,204.101,-35.569,40.682,443.472,-293.847,104.426,43.850,-101.370,-215.930
460,38026.913000,196.117,-53.605,33.736,440.690,-285.299,107.610,134.850,-105.370,-163.930
461,38026.953000,189.131,-40.579,30.760,449.374,-288.144,102.627,147.850,-175.370,-173.930
462,38026.988000,311.891,-46.591,62.512,451.398,-282.442,102.789,106.850,-190.370,-196.930
463,38027.28000,311.891,-45.589,92.279,447.604,-276.745,105.892,228.850,120.630,252.070
464,38027.71000,272.967,-66.630,84.341,439.798,-280.453,112.661,289.850,141.630,315.070
465,38027.111000,262.986,-54.607,66.481,440.761,-281.306,115.590,379.850,90.630,-59.930
466,38027.128000,255.002,-0.501,40.682,442.826,-273.529,122.695,327.850,78.630,-184.930
467,38027.168000,259.992,-21.542,37.705,446.847,-264.779,129.830,282.850,121.630,-200.930
468,38027.208000,235.041,-13.526,40.682,447.890,-260.746,138.796,269.850,113.630,-277.930
469,38027.248000,207.096,-8.517,33.736,456.683,-256.813,139.904,133.850,6.630,-284.930
470,38027.289000,217.076,14.528,34.729,454.791,-253.137,137.052,-1.150,-67.370,-240.930
471,38027.332000,217.076,22.544,26.791,457.683,-254.120,134.079,-190.150,-87.370,-20.930
472,38027.372000,225.060,-25.550,78.388,460.617,-252.267,131.185,-102.150,-159.370,156.070
473,38027.409000,285.942,-98.693,99.225,465.448,-253.249,127.231,270.850,-207.370,-122.930
474,38027.429000,292.928,-61.620,99.225,461.503,-257.953,130.045,510.850,31.630,-174.930
475,38027.469000,222.066,-26.552,58.543,460.814,-240.498,147.250,645.850,359.630,-79.930
476,38027.509000,218.074,10.521,26.791,462.685,-245.986,153.002,357.850,89.630,-27.930
477,38027.552000,238.035,2.505,15.876,464.856,-230.697,158.349,186.850,-85.370,-77.930
478,38027.592000,233.045,-7.515,17.860,465.854,-228.031,151.540,144.850,-287.370,-249.930
479,38027.638000,220.070,-7.515,11.907,473.735,-219.515,147.856,188.850,-423.370,-317.930
480,38027.686000,220.070,-5.511,18.853,478.588,-218.685,141.002,312.850,-450.370,-207.930
481,38027.711000,225.060,11.523,17.860,483.590,-207.480,133.453,320.850,-383.370,-95.930
482,38027.734000,226.058,4.509,11.907,481.615,-209.477,130.443,303.850,-351.370,-61.930
483,38027.777000,249.014,1.503,24.806,481.611,-209.530,128.474,249.850,-292.370,457.070
484,38027.818000,281.949,18.536,54.574,473.578,-227.686,125.005,50.850,-5.370,526.070
485,38027.858000,270.971,38.575,58.543,468.857,-219.139,129.169,-229.150,75.630,-31.930
486,38027.893000,306.901,-45.589,55.566,468.717,-228.621,127.922,-97.150,-11.370,-55.930
487,38027.934000,276.959,-77.652,64.496,471.706,-222.985,125.133,-153.150,-59.370,45.070
488,38027.974000,280.951,-53.605,59.535,468.694,-229.699,122.974,-80.150,-10.370,41.070
489,38028.14000,257.996,-43.585,72.434,468.711,-228.700,124.969,27.850,137.630,117.070
490,38028.34000,239.033,-40.579,67.473,468.680,-231.406,129.811,29.850,140.630,64.070
491,38028.74000,267.977,13.526,34.729,466.783,-229.331,137.735,109.850,266.630,128.070
492,38028.114000,240.031,28.556,39.690,463.808,-234.022,140.550,69.850,336.630,225.070
493,38028.154000,291.930,-18.536,26.791,458.912,-237.715,146.341,-19.150,180.630,39.070
494,38028.194000,286.940,-7.515,27.783,461.771,-242.191,154.090,9.850,217.630,-71.930
495,38028.234000,250.012,-15.530,48.620,453.992,-244.008,160.912,39.850,428.630,29.070
496,38028.274000,237.037,-19.538,50.605,453.105,-239.110,167.932,65.850,364.630,81.070
497,38028.294000,228.055,-33.566,47.628,451.079,-245.599,173.649,43.850,163.630,44.070
498,38028.334000,223.064,-11.523,49.612,450.160,-242.644,178.648,142.850,151.630,133.070
499,38028.374000,212.086,-5.511,48.620,444.364,-241.596,185.553,-11.150,150.630,65.070
500,38028.409000,205.099,-0.501,40.682,447.268,-241.660,181.621,-237.150,39.630,55.070
501,38028.449000,187.135,-25.550,36.713,444.208,-251.290,176.430,-276.150,-161.370,155.070
502,38028.489000,225.060,-1.503,57.550,446.086,-254.389,165.528,-368.150,-302.370,161.070
503,38028.529000,294.924,-37.573,89.302,445.085,-255.559,157.625,-221.150,-354.370,-81.930
504,38028.569000,312.889,-26.552,86.326,448.938,-256.660,149.732,-62.150,-207.370,-194.930
505,38028.589000,263.984,4.509,71.442,446.944,-260.444,150.607,-253.150,-3.370,37.070
506,38028.629000,237.037,-56.611,56.558,449.859,-259.588,145.717,-476.150,62.630,-12.930
507,38028.669000,265.980,-73.644,38.698,445.900,-264.477,141.640,-328.150,-42.370,148.070
508,38028.714000,247.018,-59.616,33.736,442.925,-268.406,137.591,-246.150,-43.370,222.070
509,38028.753000,213.084,-46.591,35.721,442.746,-280.699,137.249,-190.150,0.630,162.070
510,38028.793000,222.066,-62.622,28.775,439.863,-278.061,131.416,-44.150,-54.370,183.070
511,38028.834000,203.103,-51.601,29.767,441.681,-286.545,131.183,19.850,0.630,154.070
512,38028.874000,195.119,-50.599,47.628,439.866,-278.796,139.264,95.850,31.630,-16.930
513,38028.893000,249.014,-29.558,73.426,436.912,-280.913,132.315,75.850,-38.370,-102.930
514,38028.932000,290.932,-10.521,78.388,440.875,-275.211,131.497,-116.150,-74.370,-5.930
515,38028.973000,285.942,-55.609,76.403,434.871,-287.613,130.158,-274.150,80.630,195.070
516,38029.14000,316.881,-52.603,71.442,430.006,-288.601,131.106,-234.150,216.630,293.070
517,38029.51000,208.094,-32.564,42.667,422.115,-298.009,136.733,-175.150,304.630,458.070
518,38029.98000,212.086,-38.575,18.853,418.118,-305.682,134.546,-377.150,281.630,469.070
519,38029.133000,246.020,-57.613,17.860,409.094,-325.664,133.975,-345.150,120.630,407.070
520,38029.174000,231.049,-63.624,21.829,404.099,-335.242,131.733,-302.150,125.630,319.070
521,38029.194000,209.092,-63.624,31.752,396.275,-339.187,129.643,-292.150,168.630,241.070
522,38029.238000,179.150,-56.611,32.744,391.458,-336.471,127.743,-317.150,142.630,152.070
523,38029.273000,206.097,-103.703,35.721,394.272,-343.076,126.580,-124.150,70.630,-72.930
524,38029.314000,200.109,-141.777,55.566,397.346,-332.501,131.797,143.850,181.630,-151.930
525,38029.354000,239.033,-16.532,93.271,395.424,-331.504,134.773,221.850,70.630,17.070
526,38029.394000,284.943,-104.704,112.124,391.581,-329.510,140.723,-47.150,314.630,61.070
527,38029.434000,255.002,-42.583,70.450,391.451,-338.099,137.534,-180.150,224.630,23.070
528,38029.473000,295.922,-59.616,59.535,390.602,-329.629,136.784,-131.150,-79.370,-16.930
529,38029.493000,250.012,-73.644,82.357,393.404,-337.153,136.580,-161.150,1.630,-69.930
530,38029.531000,243.025,-87.671,63.504,394.367,-337.244,132.644,-209.150,105.630,-103.930
531,38029.571000,224.062,-74.646,72.434,397.383,-330.478,136.772,9.850,-59.370,-22.930
532,38029.611000,220.070,-66.630,73.426,396.398,-330.676,129.879,13.850,-67.370,-13.930
533,38029.651000,227.057,-74.646,67.473,399.269,-333.472,129.807,-37.150,-102.370,-167.930
534,38029.692000,246.020,-84.665,71.442,401.360,-323.069,129.116,16.850,-148.370,-241.930
535,38029.733000,247.018,-73.644,76.403,408.162,-322.106,126.203,-48.150,-125.370,-131.930
536,38029.771000,257.996,-88.673,56.558,409.193,-317.469,122.399,-107.150,-133.370,-39.930
537,38029.798000,249.014,-94.685,53.581,410.168,-316.641,117.506,-86.150,-122.370,-89.930
538,38029.836000,247.018,-70.638,42.667,410.217,-313.699,121.522,159.850,50.630,-119.930
539,38029.876000,203.103,-53.605,40.682,413.121,-314.525,124.455,184.850,147.630,-167.930
540,38029.916000,198.113,-51.601,31.752,420.920,-312.444,127.477,229.850,34.630,-208.930
541,38029.956000,203.103,-63.624,41.674,425.911,-302.919,127.750,169.850,-41.370,-283.930
542,38029.996000,186.136,-55.609,43.659,431.841,-296.086,132.868,300.850,-74.370,-252.930
543,38030.34000,207.096,-22.544,31.752,432.894,-290.398,133.028,251.850,-206.370,-253.930
544,38030.72000,277.957,-29.558,44.651,435.855,-286.653,130.187,158.850,-230.370,-398.930
545,38030.92000,293.926,-43.585,56.558,441.879,-272.465,127.641,145.850,-175.370,-363.930
546,38030.132000,269.973,-66.630,95.256,447.782,-266.762,125.842,107.850,-4.370,-65.930
547,38030.172000,238.035,-78.654,108.155,446.809,-267.563,131.720,202.850,164.630,66.070
548,38030.223000,272.967,-19.538,73.426,443.831,-273.068,139.431,391.850,121.630,146.070
549,38030.256000,232.047,-0.501,34.729,444.872,-268.299,140.548,260.850,56.630,164.070
550,38030.297000,262.986,-23.546,22.822,447.729,-272.041,140.449,73.850,-178.370,-122.930
551,38030.337000,252.008,-20.540,32.744,449.853,-258.906,135.900,110.850,-148.370,-286.930
552,38030.356000,240.031,-9.519,34.729,452.702,-263.514,138.728,169.850,-71.370,-202.930
553,38030.396000,230.051,1.503,41.674,456.736,-253.057,139.025,62.850,-88.370,-126.930
554,38030.436000,214.082,10.521,30.760,458.636,-255.105,132.086,-111.150,-164.370,-153.930
555,38030.474000,226.058,-17.534,79.380,459.669,-250.442,129.267,-206.150,-148.370,-23.930
556,38030.516000,280.951,-104.704,102.202,459.553,-258.086,126.103,15.850,-88.370,-116.930
557,38030.557000,304.904,-94.685,94.264,462.564,-251.399,127.278,339.850,-160.370,-222.930
558,38030.597000,281.949,-46.591,94.264,465.558,-246.445,134.306,673.850,192.630,1.070
559,38030.642000,194.121,-9.519,49.612,462.791,-238.474,151.244,654.850,395.630,104.070
560,38030.657000,231.049,6.513,24.806,463.783,-237.409,155.210,329.850,-84.370,-72.930
561,38030.692000,237.037,6.513,11.907,469.628,-235.515,152.322,199.850,-271.370,-270.930
562,38030.732000,234.043,-3.507,15.876,468.827,-223.367,147.740,195.850,-395.370,-462.930
563,38030.774000,227.057,-5.511,18.853,477.768,-208.297,141.289,308.850,-268.370,-336.930
564,38030.814000,207.096,24.548,11.907,480.812,-198.879,138.605,330.850,-303.370,-134.930
565,38030.854000,210.090,46.591,15.876,479.679,-208.665,126.528,39.850,-480.370,47.070
566,38030.896000,239.033,20.540,39.690,483.583,-206.797,123.636,-154.150,-473.370,307.070
567,38030.938000,298.916,-29.558,78.388,477.555,-219.515,110.485,-219.150,-434.370,366.070
568,38030.952000,345.825,-57.613,72.434,481.386,-222.429,105.492,-375.150,22.630,-322.930
569,38030.992000,299.914,-44.587,43.659,485.390,-213.889,104.753,-184.150,24.630,-410.930
570,38031.32000,280.951,-47.593,37.705,482.543,-209.255,102.910,17.850,3.630,200.070
571,38031.72000,257.996,-37.573,35.721,476.643,-214.932,105.693,3.850,12.630,201.070
572,38031.112000,259.992,-29.558,47.628,481.494,-214.890,104.719,-20.150,126.630,52.070
573,38031.159000,237.037,-10.521,55.566,480.486,-217.688,106.606,-101.150,65.630,98.070
574,38031.193000,256.000,-4.509,49.612,481.343,-226.053,111.293,40.850,139.630,207.070
575,38031.233000,243.025,23.546,34.729,470.566,-233.638,115.982,107.850,375.630,282.070
576,38031.253000,296.920,30.560,16.868,471.629,-227.819,121.064,16.850,144.630,124.070
577,38031.292000,285.942,0.501,19.845,471.564,-232.494,122.901,-70.150,146.630,38.070
578,38031.332000,260.990,-20.540,24.806,468.618,-236.055,132.633,0.850,279.630,131.070
579,38031.372000,236.039,-27.554,23.814,465.625,-242.505,140.317,77.850,347.630,159.070
580,38031.412000,198.113,-10.521,39.690,466.630,-240.521,143.325,86.850,171.630,159.070
581,38031.457000,189.131,-17.534,46.636,455.825,-249.997,147.961,129.850,125.630,249.070
582,38031.497000,152.203,-13.526,23.814,457.782,-248.997,148.976,213.850,-117.370,326.070
583,38031.537000,175.158,-27.554,18.853,449.908,-255.885,142.870,-11.150,-482.370,303.070
584,38031.557000,288.936,-4.509,34.729,448.806,-263.753,131.829,-158.150,-523.370,401.070
585,38031.597000,344.827,-49.597,46.636,447.760,-267.813,121.878,-175.150,-208.370,59.070
586,38031.637000,336.842,-46.591,78.388,453.676,-261.163,120.106,-54.150,-43.370,-261.930
587,38031.677000,300.912,6.513,78.388,451.786,-258.222,125.103,20.850,150.630,-196.930
588,38031.717000,227.057,-0.501,31.752,452.788,-256.265,127.126,-219.150,326.630,-134.930
589,38031.754000,178.152,-124.744,49.612,455.630,-261.739,132.880,-136.150,305.630,-143.930
590,38031.794000,254.004,-67.632,22.822,452.747,-259.863,133.911,67.850,-54.370,307.070
591,38031.837000,209.092,-10.521,9.922,451.637,-269.359,132.662,41.850,23.630,337.070
592,38031.857000,232.047,-53.605,18.853,440.984,-268.433,137.587,46.850,131.630,158.070
593,38031.897000,208.094,-36.571,18.853,441.852,-275.879,141.316,68.850,140.630,26.070
594,38031.937000,191.127,-12.524,23.814,438.982,-273.084,141.389,-22.150,89.630,-142.930
595,38031.977000,253.006,-20.540,78.388,443.869,-271.045,144.405,-112.150,42.630,-139.930
596,38032.17000,268.975,-36.571,81.364,441.988,-266.449,140.595,-263.150,122.630,185.070
597,38032.57000,263.984,-46.591,70.450,439.917,-275.067,137.401,-514.150,-71.370,146.070
598,38032.97000,328.858,-61.620,76.403,437.924,-278.063,132.396,-405.150,58.630,31.070
599,38032.117000,236.039,-34.568,58.543,434.912,-285.537,137.101,-174.150,447.630,143.070
600,38032.157000,210.090,-38.575,27.783,425.113,-292.242,138.866,-367.150,435.630,288.070
601,38032.198000,244.023,-56.611,25.798,422.125,-297.878,141.655,-371.150,191.630,396.070
602,38032.241000,222.066,-54.607,31.752,412.251,-309.389,140.334,-342.150,246.630,316.070
603,38032.277000,192.125,-76.650,42.667,409.236,-316.916,143.071,-229.150,263.630,295.070
604,38032.316000,169.170,-72.642,29.767,399.438,-322.833,138.955,-221.150,83.630,333.070
605,38032.357000,216.078,-106.708,50.605,400.334,-327.626,135.873,-212.150,-23.370,174.070
606,38032.396000,244.023,-84.665,58.543,395.414,-332.397,136.715,1.850,56.630,49.070
607,38032.414000,241.029,-27.554,95.256,391.506,-334.317,137.639,-154.150,174.630,298.070
608,38032.454000,238.035,-112.720,111.132,387.571,-338.128,138.510,-275.150,254.630,93.070
609,38032.494000,248.016,-53.605,65.488,387.558,-338.286,132.604,-496.150,216.630,-13.930
610,38032.534000,267.977,-56.611,59.535,386.580,-338.405,128.664,-217.150,-124.370,-121.930
611,38032.578000,273.965,-96.689,76.403,387.584,-335.660,124.808,-146.150,9.630,-86.930
612,38032.618000,256.998,-97.691,78.388,390.486,-336.511,126.756,61.850,-36.370,-127.930
613,38032.658000,253.006,-67.632,76.403,392.486,-332.649,128.834,126.850,-22.370,-60.930
614,38032.694000,224.062,-80.658,72.434,396.216,-343.022,127.569,74.850,-15.370,-118.930
615,38032.719000,224.062,-100.697,72.434,400.373,-324.054,128.103,106.850,-87.370,-294.930
616,38032.753000,255.002,-87.671,65.488,404.228,-325.891,128.059,111.850,-143.370,-241.930
617,38032.798000,255.002,-95.687,48.620,406.246,-320.268,125.267,90.850,-116.370,-47.930
618,38032.838000,236.039,-86.669,51.597,408.121,-324.943,126.124,25.850,-75.370,-106.930
619,38032.878000,245.021,-59.616,42.667,411.170,-315.445,126.394,-4.150,-10.370,-93.930
620,38032.918000,202.105,-69.636,41.674,415.998,-317.241,127.335,103.850,-36.370,-58.930
621,38032.958000,193.123,-59.616,38.698,418.006,-312.512,126.487,68.850,9.630,-82.930
622,38032.996000,194.121,-44.587,27.783,416.998,-315.310,128.374,63.850,-91.370,-181.930
623,38033.23000,208.094,-46.591,37.705,421.944,-308.674,126.600,110.850,-177.370,-260.930
624,38033.58000,190.129,-55.609,39.690,427.915,-298.243,124.933,167.850,-211.370,-253.930
625,38033.98000,217.076,-31.562,26.791,433.780,-294.562,118.160,147.850,-335.370,-174.930
626,38033.144000,297.918,-34.568,47.628,438.678,-290.842,113.354,30.850,-267.370,-270.930
627,38033.179000,310.893,-79.656,96.248,441.688,-284.155,114.528,92.850,3.630,-113.930
628,38033.219000,260.990,-73.644,102.202,438.696,-290.605,122.213,284.850,208.630,61.070
629,38033.254000,233.045,-43.585,83.349,438.879,-279.021,131.388,366.850,313.630,-3.930
630,38033.294000,253.006,-15.530,61.519,434.922,-285.406,142.023,393.850,175.630,120.070
631,38033.314000,261.988,-16.532,37.705,440.741,-286.163,145.946,295.850,154.630,-75.930
632,38033.354000,249.014,-21.542,32.744,441.006,-268.144,148.415,205.850,-144.370,-360.930
633,38033.401000,249.014,-29.558,28.775,444.059,-258.594,150.653,252.850,-57.370,-342.930
634,38033.439000,229.053,6.513,33.736,450.850,-258.550,148.699,153.850,-98.370,-265.930
635,38033.479000,209.092,9.519,32.744,453.811,-254.805,145.857,-140.150,-90.370,-110.930
636,38033.522000,200.109,-17.534,58.543,455.803,-251.048,143.998,-234.150,-198.370,20.070
637,38033.556000,296.920,-86.669,96.248,453.749,-257.905,135.934,105.850,-155.370,-36.930
638,38033.597000,304.904,-49.597,90.295,459.705,-249.207,140.121,287.850,-47.370,-167.930
639,38033.617000,248.016,-48.595,80.372,454.960,-242.498,146.201,292.850,228.630,-147.930
640,38033.658000,179.150,-17.534,41.674,455.994,-239.358,157.110,347.850,368.630,-61.930
641,38033.698000,214.082,-5.511,22.822,453.067,-241.133,162.957,324.850,110.630,-16.930
642,38033.738000,225.060,-2.505,20.837,459.011,-232.592,161.238,202.850,-325.370,-194.930
643,38033.778000,272.967,-5.511,19.845,464.941,-224.997,159.492,297.850,-355.370,-386.930
644,38033.818000,229.053,7.515,27.783,472.849,-215.352,162.724,411.850,-157.370,-279.930
645,38033.854000,190.129,24.548,22.822,471.878,-214.604,155.858,270.850,-334.370,-161.930
646,38033.874000,201.107,38.575,25.798,471.898,-212.818,151.973,123.850,-353.370,195.070
647,38033.914000,241.029,34.568,53.581,464.875,-228.150,147.601,94.850,-86.370,676.070
648,38033.954000,232.047,-23.546,101.209,458.063,-230.006,152.456,-153.150,257.630,468.070
649,38034.1000,262.986,9.519,60.527,455.970,-239.674,145.298,-390.150,-70.370,16.070
650,38034.36000,396.725,-196.885,51.597,458.966,-233.171,139.582,-393.150,-23.370,-203.930
651,38034.83000,306.901,-90.677,78.388,459.947,-232.264,137.642,81.850,-86.370,-138.930
652,38034.116000,280.951,-0.501,59.535,458.039,-231.083,147.507,138.850,106.630,125.070
653,38034.161000,220.070,-53.605,74.419,457.900,-240.566,146.260,-100.150,232.630,-3.930
654,38034.181000,236.039,-28.556,57.550,458.917,-236.875,142.430,-172.150,41.630,-1.930
655,38034.220000,250.012,-11.523,52.589,458.811,-244.387,144.188,74.850,96.630,265.070
656,38034.260000,242.027,29.558,51.597,452.968,-246.256,148.061,105.850,175.630,329.070
657,38034.316000,287.938,-0.501,37.705,451.913,-251.969,146.916,-90.150,40.630,73.070
658,38034.338000,264.982,-5.511,30.760,449.025,-250.933,151.858,-11.150,237.630,35.070
659,38034.378000,228.055,-10.521,41.674,447.999,-255.491,158.615,-27.150,310.630,28.070
660,38034.418000,214.082,-29.558,30.760,448.072,-250.710,160.715,-121.150,235.630,-22.930
661,38034.459000,205.099,-48.595,39.690,445.990,-261.008,165.343,17.850,39.630,109.070
662,38034.479000,213.084,-19.538,44.651,441.072,-265.752,167.170,10.850,41.630,362.070
663,38034.519000,217.076,-6.513,34.729,438.105,-269.576,167.059,-134.150,-76.370,274.070
664,38034.559000,233.045,-35.569,29.767,436.027,-277.511,154.048,-317.150,-280.370,45.070
665,38034.599000,260.990,-32.564,74.419,439.862,-279.610,144.160,-316.150,-333.370,-38.930
666,38034.639000,316.881,-61.620,94.264,443.865,-271.097,142.436,-97.150,-261.370,-260.930
667,38034.679000,300.912,-57.613,93.271,446.937,-259.761,140.789,127.850,8.630,-337.930
668,38034.719000,264.982,-7.515,60.527,447.926,-258.749,142.786,14.850,-25.370,54.070
669,38034.759000,225.060,-38.575,45.643,447.861,-262.663,137.759,-173.150,15.630,-127.930
670,38034.779000,256.000,-67.632,46.636,447.812,-266.367,140.607,-54.150,16.630,133.070
671,38034.818000,245.021,-56.611,33.736,446.880,-263.570,139.700,-40.150,-0.370,170.070
672,38034.859000,222.066,-52.603,36.713,440.978,-269.274,141.498,-15.150,88.630,144.070
673,38034.899000,230.051,-38.575,25.798,439.956,-273.017,143.360,5.850,59.630,189.070
674,38034.939000,212.086,-46.591,36.713,436.968,-278.653,146.149,12.850,79.630,58.070
675,38034.979000,185.138,-35.569,51.597,438.872,-281.410,148.043,55.850,43.630,-48.930
676,38035.19000,208.094,-1.503,76.403,438.921,-277.707,145.195,17.850,-117.370,-57.930
677,38035.59000,283.945,-32.564,61.519,439.834,-280.740,137.243,-358.150,-210.370,237.070
678,38035.79000,279.953,-55.609,43.659,435.760,-292.485,124.123,-508.150,-99.370,199.070
679,38035.119000,283.945,-61.620,52.589,435.860,-285.052,119.412,-483.150,-174.370,66.070
680,38035.159000,319.875,-71.640,92.279,429.857,-296.666,112.193,-224.150,84.630,89.070
681,38035.197000,262.986,-31.562,86.326,426.001,-295.618,118.118,-221.150,581.630,234.070
682,38035.241000,187.135,-14.528,9.922,420.010,-307.835,123.669,-389.150,424.630,325.070
683,38035.281000,243.025,-70.638,6.946,417.039,-311.712,121.589,-313.150,28.630,299.070
684,38035.319000,254.004,-73.644,10.915,415.882,-324.124,117.308,-68.150,78.630,262.070
685,38035.367000,167.173,-68.634,23.814,408.109,-325.101,120.218,7.850,209.630,316.070
686,38035.383000,142.222,-60.618,14.884,396.355,-332.778,121.952,-22.150,38.630,249.070
687,38035.417000,191.127,-113.722,42.667,401.198,-333.602,123.904,7.850,-23.370,63.070
688,38035.457000,246.020,-90.677,93.271,401.267,-329.635,130.900,362.850,126.630,-193.930
689,38035.497000,273.965,-17.534,116.093,399.478,-320.022,138.050,47.850,504.630,-73.930
690,38035.538000,269.973,-44.587,72.434,394.550,-325.660,141.819,-424.150,460.630,43.070
691,38035.579000,292.928,-34.568,58.543,396.509,-323.872,136.954,-306.150,-7.370,20.070
692,38035.619000,319.875,-40.579,62.512,400.350,-325.893,130.019,-392.150,-48.370,-75.930
693,38035.659000,270.971,-103.703,62.512,399.396,-324.147,125.148,-229.150,119.630,-39.930
694,38035.680000,254.004,-69.636,75.411,395.390,-332.713,124.903,-15.150,-25.370,52.070
695,38035.720000,236.039,-40.579,82.357,400.338,-326.051,124.113,-139.150,-34.370,-77.930
696,38035.761000,241.029,-90.677,65.488,404.226,-325.156,120.210,-152.150,-105.370,-255.930
697,38035.799000,256.998,-131.757,66.481,404.275,-321.452,117.362,-10.150,2.630,-201.930
698,38035.839000,239.033,-101.699,61.519,407.283,-314.791,117.553,64.850,-111.370,-97.930
699,38035.877000,234.043,-67.632,51.597,411.166,-314.736,117.561,51.850,-60.370,-20.930
700,38035.919000,238.035,-67.632,45.643,410.103,-321.317,119.343,28.850,34.630,-80.930
701,38035.959000,220.070,-68.634,36.713,408.138,-323.183,121.255,59.850,105.630,-80.930
702,38035.979000,206.097,-65.628,51.597,413.092,-316.442,123.418,154.850,-58.370,10.070
703,38036.19000,194.121,-36.571,38.698,414.141,-311.569,128.474,139.850,48.630,-35.930
704,38036.59000,193.123,-39.577,35.721,420.973,-308.688,126.598,110.850,-116.370,-199.930
705,38036.99000,208.094,-65.628,51.597,421.883,-312.536,123.542,192.850,-144.370,-254.930
706,38036.139000,194.121,-49.597,45.643,428.858,-300.120,124.882,276.850,-154.370,-242.930
707,38036.179000,192.125,-39.577,33.736,432.770,-298.148,125.927,220.850,-134.370,-240.930
708,38036.219000,273.965,-37.573,54.574,435.892,-283.108,121.433,-8.150,-181.370,-301.930
709,38036.237000,306.901,-75.648,102.202,439.700,-287.860,118.356,30.850,-33.370,12.070
710,38036.279000,250.012,-66.630,107.163,433.862,-289.649,125.182,171.850,142.630,274.070
711,38036.318000,273.965,-41.581,71.442,438.795,-284.721,130.245,328.850,178.630,-30.930
712,38036.358000,245.021,-3.507,41.674,438.858,-280.833,134.288,217.850,37.630,9.070
713,38036.398000,284.943,-23.546,29.767,437.940,-277.091,133.407,3.850,17.630,-143.930
714,38036.438000,233.045,-35.569,42.667,442.843,-274.080,137.433,25.850,51.630,-337.930
715,38036.478000,238.035,-23.546,39.690,445.780,-272.174,136.508,97.850,7.630,-302.930
716,38036.517000,239.033,-16.532,38.698,454.706,-258.837,135.910,98.850,-7.370,-237.930
717,38036.537000,228.055,-4.509,40.682,453.681,-262.634,135.803,-34.150,-85.370,-132.930
718,38036.578000,212.086,2.505,33.736,448.880,-258.946,134.914,-186.150,-108.370,-68.930
719,38036.618000,208.094,-15.530,70.450,451.818,-256.279,127.124,-276.150,-216.370,-20.930
720,38036.661000,263.984,-92.681,94.264,456.572,-262.094,119.101,11.850,-348.370,-188.930
721,38036.701000,334.846,-112.720,104.186,458.740,-246.858,122.480,406.850,-178.370,-157.930
722,38036.742000,268.975,-58.614,87.318,462.607,-249.297,135.205,781.850,431.630,-22.930
723,38036.782000,148.211,-13.526,38.698,458.851,-242.338,150.147,737.850,496.630,47.070
724,38036.822000,250.012,9.519,-2.977,456.953,-240.264,158.070,358.850,-104.370,-36.930
725,38036.842000,246.020,-16.532,10.915,462.862,-234.481,159.224,329.850,-247.370,-135.930
726,38036.882000,233.045,-12.524,24.806,468.799,-226.019,154.552,407.850,-399.370,-276.930
727,38036.922000,215.080,22.544,22.822,474.594,-227.854,153.527,447.850,-318.370,-179.930
728,38036.961000,201.107,28.556,16.868,468.913,-217.640,149.867,323.850,-356.370,-98.930
729,38037.2000,222.066,46.591,14.884,477.601,-219.671,139.989,49.850,-484.370,42.070
730,38037.42000,198.113,34.568,24.806,473.698,-219.989,130.137,-67.150,-475.370,105.070
731,38037.81000,253.006,-28.556,79.380,477.601,-218.148,126.261,-203.150,-190.370,135.070
732,38037.121000,330.854,-57.613,73.426,474.633,-221.211,119.285,-121.150,-112.370,-214.930
733,38037.139000,299.914,-93.683,53.581,481.591,-209.793,118.631,23.850,40.630,-297.930
734,38037.181000,302.908,-68.634,57.550,481.444,-220.143,120.310,254.850,-47.370,124.070
735,38037.219000,292.928,-3.507,52.589,473.773,-214.421,126.358,257.850,61.630,222.070
736,38037.262000,275.961,-3.507,57.550,474.661,-220.081,126.202,125.850,155.630,162.070
737,38037.302000,265.980,31.562,43.659,473.659,-222.800,131.043,-9.150,197.630,116.070
738,38037.341000,248.016,32.564,40.682,470.716,-225.546,135.880,-55.150,355.630,177.070
739,38037.382000,264.982,6.513,30.760,466.755,-231.984,144.546,-153.150,344.630,46.070
740,38037.423000,278.955,1.503,26.791,466.840,-226.284,145.689,-256.150,293.630,-52.930
741,38037.443000,235.041,-10.521,40.682,464.889,-227.966,154.491,-201.150,425.630,22.070
742,38037.483000,223.064,-31.562,39.690,463.750,-240.141,159.068,-131.150,302.630,143.070
743,38037.518000,219.072,-29.558,51.597,456.871,-246.699,164.776,-56.150,258.630,151.070
744,38037.558000,244.023,-9.519,41.674,457.034,-235.377,164.108,-76.150,113.630,54.070
745,38037.598000,228.055,-16.532,52.589,456.962,-240.920,168.871,-11.150,134.630,106.070
746,38037.638000,229.053,11.523,54.574,454.008,-243.798,168.786,-144.150,14.630,50.070
747,38037.678000,211.088,1.503,43.659,449.131,-244.944,163.828,-286.150,-70.370,-2.930
748,38037.719000,201.107,-31.562,42.667,449.058,-248.963,154.864,-279.150,-160.370,45.070
749,38037.739000,237.037,-9.519,41.674,452.778,-259.468,148.676,-269.150,-263.370,171.070
750,38037.778000,271.969,-37.573,58.543,452.801,-256.868,139.896,-205.150,-338.370,214.070
751,38037.818000,313.887,-38.575,86.326,446.819,-267.432,136.641,-112.150,-170.370,56.070
752,38037.863000,293.926,-4.509,95.256,448.898,-257.948,136.909,14.850,-10.370,-31.930
753,38037.901000,256.000,-3.507,76.403,448.804,-264.541,137.709,-112.150,125.630,122.070
754,38037.939000,194.121,-56.611,56.558,446.890,-262.677,137.757,-182.150,-12.370,-12.930
755,38037.979000,228.055,-86.669,51.597,445.808,-270.282,136.560,20.850,-197.370,130.070
756,38037.999000,260.990,-42.583,27.783,443.848,-271.308,134.561,77.850,-109.370,304.070
757,38038.39000,215.080,-39.577,25.798,441.781,-279.873,133.336,9.850,-18.370,186.070
758,38038.79000,246.020,-59.616,19.845,436.912,-280.913,132.315,11.850,-59.370,56.070
759,38038.122000,225.060,-47.593,30.760,436.999,-275.187,134.442,33.850,-13.370,49.070
760,38038.162000,213.084,-56.611,35.721,437.861,-282.712,135.218,67.850,73.630,18.070
761,38038.202000,212.086,-53.605,65.488,438.897,-278.784,140.247,121.850,66.630,-173.930
762,38038.239000,307.899,-12.524,74.419,444.721,-277.940,133.395,-185.150,-190.370,-50.930
763,38038.282000,316.881,-51.601,71.442,438.875,-279.073,129.419,-303.150,23.630,196.070
764,38038.303000,262.986,-41.581,75.411,431.051,-283.780,134.193,-205.150,533.630,105.070
765,38038.343000,240.031,-44.587,55.566,430.018,-289.204,143.876,-227.150,536.630,277.070
766,38038.390000,222.066,-34.568,33.736,419.203,-298.812,143.591,-273.150,268.630,375.070
767,38038.419000,223.064,-36.571,28.775,417.123,-308.322,142.339,-290.150,150.630,334.070
768,38038.464000,224.062,-66.630,36.713,407.294,-316.944,143.067,-246.150,212.630,365.070
769,38038.503000,201.107,-80.658,39.690,399.492,-319.838,144.940,-135.150,163.630,387.070
770,38038.543000,187.135,-80.658,34.729,395.472,-329.349,144.669,-92.150,126.630,296.070
771,38038.583000,169.170,-89.675,48.620,394.495,-330.203,148.578,-51.150,23.630,39.070
772,38038.603000,207.096,-82.661,78.388,394.442,-333.198,142.593,32.850,-18.370,-158.930
773,38038.643000,273.965,-43.585,74.419,404.341,-319.822,142.982,10.850,-33.370,-242.930
774,38038.697000,292.928,-56.611,86.326,400.276,-332.223,140.663,-181.150,218.630,-48.930
775,38038.723000,277.957,-39.577,74.419,394.662,-318.068,143.014,-268.150,155.630,-15.930
776,38038.762000,274.963,-34.568,69.457,394.577,-323.007,135.008,-419.150,-4.370,-95.930
777,38038.800000,272.967,-72.642,72.434,400.422,-321.112,132.119,-286.150,102.630,-98.930
778,38038.840000,247.018,-95.687,74.419,395.487,-326.855,131.951,-129.150,40.630,-52.930
779,38038.881000,237.037,-79.656,75.411,401.366,-322.990,132.069,38.850,-31.370,-64.930
780,38038.900000,213.084,-85.667,64.496,403.207,-329.634,129.920,92.850,-19.370,-67.930
781,38038.941000,222.066,-81.659,54.574,408.259,-316.248,133.252,132.850,-226.370,-167.930
782,38038.981000,254.004,-68.634,52.589,413.005,-322.930,128.156,47.850,-298.370,-144.930
783,38039.21000,255.002,-69.636,48.620,411.196,-313.580,125.462,-14.150,-169.370,-103.930
784,38039.60000,232.047,-71.640,59.535,416.047,-313.538,124.488,-81.150,55.630,-170.930
785,38039.100000,207.096,-78.654,44.651,414.159,-309.809,123.604,14.850,22.630,-95.930
786,38039.148000,210.090,-65.628,48.620,417.027,-312.631,122.547,155.850,-178.370,-103.930
787,38039.184000,197.115,-44.587,45.643,424.877,-306.821,123.706,152.850,-130.370,-256.930
788,38039.204000,201.107,-44.587,40.682,432.807,-295.363,124.038,209.850,-120.370,-295.930
789,38039.245000,197.115,-34.568,35.721,434.843,-288.743,123.242,114.850,-270.370,-323.930
790,38039.279000,232.047,-15.530,32.744,446.579,-281.302,112.649,32.850,-390.370,-381.930
791,38039.324000,303.906,-32.564,58.543,446.621,-277.678,106.848,11.850,-307.370,-266.930
792,38039.363000,303.906,-61.620,79.380,451.596,-269.125,106.111,-15.150,157.630,-27.930
793,38039.403000,256.998,-71.640,83.349,447.643,-274.695,111.851,9.850,287.630,55.070
794,38039.443000,246.020,-80.658,96.248,447.703,-271.622,120.789,223.850,322.630,-56.930
795,38039.481000,240.031,10.521,53.581,446.750,-271.398,129.646,342.850,251.630,122.070
796,38039.500000,255.002,24.548,31.752,441.948,-268.499,134.636,-32.150,121.630,75.070
797,38039.544000,252.008,-59.616,32.744,441.889,-272.334,132.562,18.850,25.630,-231.930
798,38039.585000,243.025,-11.523,26.791,447.774,-268.390,135.633,102.850,20.630,-225.930
799,38039.625000,226.058,-3.507,33.736,449.843,-259.799,137.842,87.850,25.630,-70.930
800,38039.666000,204.101,-33.566,34.729,450.826,-258.866,136.886,63.850,-113.370,-33.930
801,38039.701000,201.107,-16.532,33.736,453.700,-260.848,131.918,-10.150,-234.370,116.070
802,38039.741000,268.975,-57.613,85.333,450.711,-265.722,127.843,161.850,-206.370,109.070
803,38039.761000,279.953,-84.665,87.318,452.714,-261.833,130.905,420.850,-187.370,-246.930
804,38039.805000,278.955,-65.628,61.519,457.723,-252.071,140.038,677.850,124.630,2.070
805,38039.845000,229.053,-3.507,45.643,450.909,-254.715,150.773,634.850,291.630,108.070
806,38039.885000,225.060,-1.503,28.775,454.002,-243.115,158.969,379.850,36.630,-71.930
807,38039.920000,248.016,-1.503,21.829,456.914,-243.074,158.975,269.850,-221.370,-234.930
808,38039.961000,253.006,-35.569,32.744,462.932,-229.726,160.340,347.850,-236.370,-238.930
809,38040.6000,231.049,1.503,37.705,463.901,-229.739,159.358,367.850,-107.370,-119.930
810,38040.45000,212.086,32.564,29.767,461.076,-224.054,161.479,265.850,-143.370,-75.930
811,38040.66000,237.037,21.542,19.845,467.823,-226.873,158.461,129.850,-149.370,17.070
812,38040.105000,212.086,29.558,23.814,463.925,-227.900,157.442,67.850,-218.370,92.070
813,38040.144000,239.033,-14.528,79.380,466.687,-237.473,151.279,-12.150,-328.370,213.070
814,38040.182000,242.027,-19.538,85.333,460.969,-230.044,149.509,-121.150,-149.370,101.070
815,38040.222000,261.988,-34.568,76.403,465.853,-227.270,144.676,-123.150,-163.370,-253.930
816,38040.262000,325.864,-77.652,63.504,465.885,-224.564,139.833,-107.150,-169.370,-44.930
817,38040.300000,287.938,-65.628,70.450,466.842,-225.496,139.809,-4.150,51.630,48.070
818,38040.340000,231.049,-42.583,65.488,467.673,-234.965,138.563,-4.150,89.630,16.070
819,38040.360000,242.027,-25.550,74.419,467.777,-228.240,142.685,-86.150,77.630,40.070
820,38040.400000,236.039,-36.571,63.504,466.718,-234.007,139.572,-117.150,-4.370,15.070
821,38040.440000,286.940,-4.509,48.620,466.700,-235.005,137.577,-25.150,48.630,159.070
822,38040.481000,269.973,12.524,39.690,458.894,-238.713,144.346,46.850,269.630,282.070
823,38040.524000,279.953,14.528,30.760,458.843,-242.443,146.209,-34.150,192.630,73.070
824,38040.566000,262.986,-12.524,36.713,459.794,-244.215,150.096,-79.150,201.630,-62.930
825,38040.606000,226.058,-11.523,42.667,453.021,-243.261,154.046,-69.150,343.630,6.070
826,38040.645000,222.066,-13.526,44.651,453.067,-241.133,162.957,-3.150,278.630,29.070
827,38040.666000,208.094,-27.554,40.682,453.079,-240.213,161.999,-63.150,132.630,24.070
828,38040.706000,206.097,-26.552,40.682,453.048,-242.918,166.842,58.850,92.630,296.070
829,38040.747000,199.111,-23.546,36.713,446.072,-255.334,165.501,-128.150,-74.370,319.070
830,38040.787000,210.090,-0.501,22.822,446.917,-263.096,157.418,-263.150,-247.370,270.070
831,38040.827000,242.027,-14.528,17.860,441.988,-267.211,147.459,-494.150,-413.370,256.070
832,38040.867000,304.904,-39.577,51.597,447.672,-275.088,132.495,-348.150,-333.370,87.070
833,38040.907000,293.926,-27.554,67.473,445.732,-274.328,126.612,-3.150,-266.370,-236.930
834,38040.945000,281.949,-5.511,69.457,446.738,-271.556,123.740,31.850,-190.370,-158.930
835,38040.966000,270.971,-9.519,67.473,448.781,-264.069,120.017,-131.150,-49.370,-53.930
836,38041.6000,232.047,-56.611,54.574,449.729,-265.894,121.935,-280.150,224.630,-38.930
837,38041.45000,212.086,-85.667,60.527,448.821,-262.020,125.976,-217.150,250.630,-55.930
838,38041.84000,250.012,-68.634,53.581,448.670,-272.422,125.686,-118.150,-47.370,221.070
839,38041.124000,255.002,-56.611,33.736,444.771,-273.449,124.667,-141.150,35.630,154.070
840,38041.164000,233.045,-56.611,30.760,443.773,-275.354,124.613,-72.150,99.630,139.070
841,38041.204000,223.064,-46.591,25.798,434.941,-282.097,124.410,12.850,126.630,95.070
842,38041.244000,208.094,-35.569,23.814,438.879,-279.021,131.388,40.850,227.630,30.070
843,38041.264000,176.156,-44.587,71.442,435.987,-278.037,134.361,63.850,151.630,-183.930
844,38041.309000,346.823,-33.566,90.295,438.909,-277.103,132.425,-178.150,-71.370,-51.930
845,38041.344000,303.906,-23.546,64.496,434.981,-280.048,130.369,-434.150,124.630,141.070
846,38041.384000,239.033,-62.622,68.465,430.039,-286.631,134.112,-268.150,425.630,345.070
847,38041.425000,219.072,-66.630,49.612,425.947,-301.684,138.604,-177.150,343.630,349.070
848,38041.465000,236.039,-19.538,28.775,416.213,-303.713,138.532,-237.150,210.630,367.070
849,38041.503000,224.062,-55.609,33.736,413.100,-317.860,141.084,-345.150,120.630,384.070
850,38041.542000,207.096,-65.628,38.698,406.294,-318.114,135.164,-329.150,126.630,343.070
851,38041.562000,195.119,-60.618,34.729,400.236,-334.272,134.704,-289.150,182.630,230.070
852,38041.602000,194.121,-74.646,34.729,398.367,-328.757,129.936,-275.150,36.630,117.070
853,38041.643000,197.115,-92.681,42.667,391.557,-329.826,128.911,-74.150,-84.370,2.070
854,38041.688000,210.090,-99.695,47.628,393.547,-326.095,126.068,131.850,-4.370,-94.930
855,38041.723000,220.070,-94.685,68.465,402.366,-321.058,133.108,270.850,20.630,-322.930
856,38041.763000,278.955,-34.568,91.287,403.448,-313.453,134.305,208.850,-24.370,-275.930
857,38041.803000,289.934,-69.636,84.341,407.351,-312.374,137.292,137.850,91.630,18.070
858,38041.845000,293.926,-41.581,71.442,410.204,-316.168,135.224,-210.150,-48.370,-32.930
859,38041.866000,296.920,-23.546,73.426,411.213,-312.582,127.457,-319.150,-58.370,-135.930
860,38041.907000,269.973,-73.644,76.403,408.268,-314.593,124.445,-324.150,-1.370,-86.930
861,38041.952000,233.045,-113.722,63.504,410.164,-317.455,122.401,-245.150,36.630,-45.930
862,38041.984000,228.055,-84.665,51.597,408.177,-320.372,120.350,-95.150,-34.370,-9.930
863,38042.24000,234.043,-77.652,48.620,411.236,-309.982,118.677,98.850,-100.370,31.070
864,38042.65000,227.057,-62.622,44.651,413.029,-320.330,119.375,67.850,-32.370,3.070
865,38042.106000,206.097,-62.622,48.620,414.137,-310.860,119.641,29.850,20.630,-68.930
866,38042.143000,203.103,-64.626,49.612,417.029,-312.605,123.532,198.850,-23.370,-31.930
867,38042.163000,191.127,-46.591,42.667,414.994,-319.225,124.328,112.850,62.630,-108.930
868,38042.205000,215.080,-62.622,40.682,422.938,-306.822,124.686,199.850,-250.370,-332.930
869,38042.246000,245.021,-66.630,47.628,433.746,-297.294,122.018,275.850,-255.370,-292.930
870,38042.283000,230.051,-39.577,50.605,438.611,-296.305,121.070,314.850,-200.370,-197.930
871,38042.323000,227.057,-39.577,57.550,436.865,-283.068,122.419,231.850,-134.370,-191.930
872,38042.368000,235.041,-54.607,66.481,438.780,-284.905,123.355,215.850,-58.370,-209.930
873,38042.403000,232.047,-42.583,69.457,441.818,-276.327,124.582,128.850,-25.370,-52.930
874,38042.424000,293.926,-61.620,71.442,445.630,-281.026,123.474,134.850,-84.370,21.070
875,38042.465000,318.877,-59.616,69.457,442.775,-277.259,124.558,174.850,-16.370,54.070
876,38042.505000,269.973,-65.628,75.411,444.780,-274.105,135.469,407.850,237.630,-30.930
877,38042.547000,214.082,-13.526,51.597,443.780,-276.798,141.294,450.850,207.630,9.070
878,38042.585000,256.000,21.542,40.682,443.914,-268.155,146.453,170.850,-97.370,-29.930
879,38042.625000,242.027,-6.513,42.667,447.792,-268.153,144.492,64.850,-146.370,-171.930
880,38042.665000,226.058,-14.528,27.783,445.890,-265.370,143.583,-24.150,-148.370,-170.930
881,38042.712000,228.055,-22.544,27.783,450.810,-259.838,135.876,-67.150,-53.370,-128.930
882,38042.727000,220.070,-9.519,28.775,449.810,-261.769,134.837,-90.150,-73.370,6.070
883,38042.767000,256.000,-46.591,83.349,448.764,-266.590,131.750,42.850,-124.370,198.070
884,38042.807000,289.934,-76.650,102.202,454.643,-262.725,131.868,287.850,-176.370,-125.930
885,38042.844000,266.979,-74.646,82.357,453.726,-259.744,137.851,502.850,28.630,-187.930
886,38042.887000,213.084,-18.536,35.721,456.811,-249.011,148.974,593.850,241.630,-68.930
887,38042.927000,226.058,-2.505,26.791,455.859,-248.788,157.831,457.850,20.630,-23.930
888,38042.967000,245.021,6.513,16.868,457.879,-243.139,156.024,315.850,-151.370,-186.930
889,38043.7000,245.021,-36.571,19.845,464.801,-234.480,158.244,329.850,-292.370,-336.930
890,38043.38000,243.025,-23.546,27.783,466.970,-218.455,155.743,429.850,-251.370,-245.930
891,38043.69000,220.070,9.519,36.713,469.845,-221.198,157.638,518.850,-198.370,-48.930
892,38043.103000,195.119,36.571,27.783,471.772,-222.117,157.616,507.850,-281.370,17.070
893,38043.147000,186.136,60.618,23.814,477.596,-221.273,150.764,252.850,-648.370,115.070
894,38043.188000,249.014,-9.519,50.605,474.668,-221.525,142.883,194.850,-366.370,94.070
895,38043.227000,239.033,-32.564,55.566,473.803,-214.787,147.987,-14.150,89.630,-182.930
896,38043.264000,308.897,-22.544,52.589,476.788,-209.204,143.230,39.850,-227.370,-128.930
897,38043.304000,323.867,-55.609,59.535,476.735,-212.960,144.109,99.850,-25.370,106.070
898,38043.324000,312.889,-63.624,65.488,472.933,-207.368,143.274,227.850,-46.370,24.070
899,38043.364000,301.910,-3.507,47.628,475.821,-209.165,145.196,221.850,42.630,21.070
900,38043.404000,275.961,-5.511,55.566,475.747,-214.733,148.976,18.850,123.630,52.070
901,38043.444000,247.018,-35.569,56.558,468.127,-205.282,153.160,4.850,126.630,83.070
902,38043.487000,245.021,-9.519,43.659,468.986,-212.859,151.967,41.850,111.630,169.070
903,38043.527000,265.980,22.544,40.682,465.025,-219.297,160.634,9.850,301.630,285.070
904,38043.566000,281.949,14.528,36.713,462.111,-220.126,166.508,-67.150,380.630,118.070
905,38043.607000,272.967,15.530,30.760,463.045,-222.896,168.399,-206.150,222.630,12.070
906,38043.627000,248.016,-15.530,44.651,459.139,-225.551,177.171,-139.150,385.630,25.070
907,38043.665000,224.062,-2.505,39.690,458.206,-223.542,182.144,-162.150,384.630,-89.930
908,38043.707000,217.076,-4.509,37.705,455.237,-228.154,187.912,-239.150,344.630,-43.930
909,38043.747000,214.082,-17.534,44.651,456.257,-225.198,191.931,-239.150,156.630,-1.930
910,38043.787000,198.113,-25.550,50.605,449.292,-236.721,188.648,-195.150,121.630,74.070
911,38043.824000,199.111,4.509,52.589,452.249,-233.790,190.701,-209.150,55.630,198.070
912,38043.864000,216.078,-3.507,51.597,447.158,-249.987,188.275,-395.150,-52.370,232.070
913,38043.904000,230.051,-16.532,36.713,446.163,-250.317,176.461,-604.150,-155.370,125.070
914,38043.924000,275.961,-16.532,68.465,445.019,-261.022,165.341,-501.150,-217.370,100.070
915,38043.967000,316.881,-34.568,96.248,445.056,-258.238,163.452,-127.150,-81.370,-144.930
916,38044.7000,226.058,-28.556,65.488,451.797,-261.136,157.481,-126.150,-136.370,-180.930
917,38044.52000,209.092,-43.585,45.643,449.933,-255.569,154.682,-200.150,-164.370,-71.930
918,38044.84000,291.930,-65.628,36.713,450.930,-252.903,147.872,-156.150,-245.370,64.070
919,38044.124000,245.021,-52.603,32.744,446.918,-261.547,144.674,-185.150,-28.370,214.070
920,38044.164000,222.066,-46.591,30.760,442.937,-268.248,143.497,-195.150,-11.370,255.070
921,38044.205000,247.018,-61.620,28.775,437.068,-271.220,141.438,-65.150,15.630,108.070
922,38044.225000,232.047,-14.528,38.698,441.949,-269.260,141.500,-125.150,11.630,27.070
923,38044.265000,212.086,-17.534,44.651,443.670,-284.363,141.083,-212.150,0.630,102.070
924,38044.317000,209.092,-38.575,42.667,434.014,-280.770,139.200,-256.150,85.630,44.070
925,38044.348000,194.121,-64.626,66.481,437.846,-284.445,141.071,-142.150,109.630,-172.930
926,38044.389000,318.877,-35.569,86.326,436.871,-283.750,132.236,-317.150,-151.370,131.070
927,38044.428000,282.947,-52.603,63.504,435.853,-286.680,129.202,-431.150,118.630,32.070
928,38044.469000,289.934,-94.685,82.357,432.978,-283.937,127.307,-262.150,108.630,96.070
929,38044.509000,284.943,-13.526,97.240,429.907,-295.247,129.938,-185.150,343.630,223.070
930,38044.528000,170.168,35.569,35.721,422.056,-301.844,134.659,-461.150,589.630,337.070
931,38044.568000,189.131,-63.624,24.806,420.979,-309.371,136.415,-461.150,187.630,217.070
932,38044.605000,274.963,-91.679,18.853,416.080,-311.568,127.493,-327.150,-103.370,187.070
933,38044.645000,211.088,-54.607,27.783,409.137,-322.039,128.174,-82.150,196.630,320.070
934,38044.685000,176.156,-76.650,29.767,404.266,-323.868,133.033,-32.150,169.630,226.070
935,38044.728000,174.160,-115.726,32.744,398.336,-331.463,134.779,109.850,-54.370,95.070
936,38044.768000,214.082,-127.750,63.504,401.427,-319.128,135.127,325.850,-133.370,-85.930
937,38044.789000,246.020,-73.644,90.295,407.302,-316.077,140.140,455.850,-26.370,-294.930
938,38044.829000,270.971,18.536,111.132,402.551,-310.209,150.131,14.850,473.630,190.070
939,38044.870000,240.031,-87.671,88.310,394.637,-320.694,150.810,-255.150,401.630,108.070
940,38044.910000,327.860,-20.540,52.589,398.643,-312.129,151.055,-148.150,-229.370,-194.930
941,38044.950000,319.875,-45.589,75.411,403.488,-311.404,140.264,-278.150,-32.370,-55.930
942,38044.991000,271.969,-115.726,78.388,402.531,-310.472,140.288,-332.150,112.630,-93.930
943,38045.30000,231.049,-107.710,81.364,404.315,-320.926,137.049,-35.150,34.630,-22.930
944,38045.65000,214.082,-66.630,73.426,406.312,-317.116,137.159,44.850,-114.370,18.070
945,38045.85000,232.047,-74.646,50.605,406.329,-315.356,132.290,2.850,-287.370,-21.930
946,38045.125000,220.070,-66.630,53.581,404.319,-320.112,132.154,5.850,-102.370,-138.930
947,38045.165000,200.109,-54.607,48.620,410.258,-311.624,128.465,-18.150,-8.370,-87.930
948,38045.209000,204.101,-47.593,49.612,413.204,-309.612,131.477,131.850,33.630,-156.930
949,38045.249000,206.097,-46.591,53.581,420.152,-299.088,132.765,-29.150,-106.370,-332.930
950,38045.289000,245.021,-53.605,44.651,422.062,-301.004,130.748,119.850,-137.370,-330.930
951,38045.330000,255.002,-47.593,51.597,432.888,-290.477,130.075,9.850,-74.370,-238.930
952,38045.370000,239.033,-64.626,53.581,431.927,-289.598,128.131,50.850,-58.370,-193.930
953,38045.390000,229.053,-59.616,52.589,439.720,-287.597,128.200,229.850,-67.370,-55.930
954,38045.430000,205.099,-42.583,48.620,437.810,-285.680,130.217,208.850,-109.370,-78.930
955,38045.477000,205.099,-37.573,41.674,441.781,-279.111,126.472,215.850,-140.370,-113.930
956,38045.505000,212.086,-62.622,47.628,444.744,-276.101,131.479,252.850,-168.370,-181.930
957,38045.545000,294.924,-34.568,59.535,445.713,-275.353,123.632,97.850,-245.370,-191.930
958,38045.602000,303.906,-44.587,79.380,449.648,-271.541,122.761,67.850,-44.370,48.070
959,38045.630000,216.078,-68.634,81.364,443.885,-267.762,125.808,162.850,164.630,226.070
960,38045.670000,237.037,-38.575,74.419,441.856,-275.065,136.421,283.850,185.630,91.070
961,38045.688000,259.992,6.513,58.543,442.860,-273.081,139.428,164.850,139.630,77.070
962,38045.730000,261.988,5.511,42.667,445.794,-271.989,143.398,43.850,90.630,22.070
963,38045.768000,252.008,-36.571,51.597,441.949,-269.260,141.500,4.850,-44.370,-126.930
964,38045.809000,239.033,-27.554,44.651,449.659,-272.932,141.411,83.850,-30.370,-198.930
965,38045.850000,228.055,-4.509,45.643,455.675,-259.611,141.792,24.850,-48.370,-156.930
966,38045.885000,226.058,14.528,39.690,452.728,-261.649,137.796,-117.150,-91.370,-26.930
967,38045.930000,259.992,-76.650,100.217,450.741,-264.566,135.744,-64.150,-104.370,-6.930
968,38045.977000,269.973,-109.714,96.248,454.791,-253.137,137.052,407.850,66.630,-303.930
969,38045.992000,198.113,-20.540,63.504,454.931,-245.177,152.028,619.850,261.630,-75.930
970,38046.30000,246.020,-4.509,27.783,453.004,-245.020,158.915,431.850,41.630,22.070
971,38046.72000,252.008,-10.521,20.837,456.877,-245.858,160.865,316.850,-76.370,-124.930
972,38046.112000,260.990,-31.562,29.767,461.864,-236.386,159.170,322.850,-221.370,-210.930
973,38046.152000,253.006,-19.538,32.744,464.872,-229.725,159.360,408.850,-233.370,-209.930
974,38046.192000,202.105,-1.503,39.690,469.825,-222.984,161.523,471.850,-189.370,-237.930
975,38046.230000,198.113,31.562,27.783,474.859,-209.835,155.996,365.850,-393.370,-122.930
976,38046.270000,209.092,51.601,27.783,471.947,-209.115,149.126,164.850,-431.370,3.070
977,38046.297000,194.121,18.536,31.752,476.731,-213.013,142.140,66.850,-413.370,-116.930
978,38046.330000,220.070,13.526,84.341,478.776,-204.738,132.537,-74.150,-325.370,-67.930
979,38046.370000,276.959,11.523,68.465,477.707,-211.397,131.367,-264.150,-49.370,70.070
980,38046.412000,326.862,-96.689,60.527,477.858,-200.234,124.792,-435.150,-96.370,-250.930
981,38046.447000,381.754,-129.753,65.488,480.597,-211.646,120.545,-137.150,-161.370,13.070
982,38046.487000,344.827,-37.573,65.488,474.875,-205.030,123.670,309.850,1.630,250.070
983,38046.527000,298.916,41.581,46.636,476.648,-217.925,135.118,409.850,257.630,224.070
984,38046.567000,237.037,50.599,46.636,471.903,-211.217,141.198,129.850,364.630,124.070
985,38046.587000,229.053,35.569,45.643,473.717,-220.514,145.861,-145.150,291.630,39.070
986,38046.627000,272.967,-0.501,34.729,468.939,-215.775,148.935,-161.150,289.630,101.070
987,38046.672000,230.051,-14.528,34.729,465.870,-227.820,159.415,-110.150,351.630,200.070
988,38046.712000,227.057,-26.552,39.690,461.982,-228.716,163.318,-114.150,407.630,244.070
989,38046.752000,204.101,-7.515,39.690,458.040,-233.367,168.100,-117.150,236.630,205.070
990,38046.789000,207.096,4.509,35.721,456.001,-240.040,166.927,-366.150,77.630,116.070
991,38046.830000,192.125,-15.530,42.667,454.900,-248.644,163.735,-423.150,60.630,224.070
992,38046.850000,249.014,-16.532,45.643,450.856,-259.232,158.516,-576.150,-47.370,144.070
993,38046.898000,242.027,-19.538,45.643,448.883,-260.442,149.626,-600.150,40.630,59.070
994,38046.929000,246.020,-53.605,57.550,446.753,-272.895,144.358,-479.150,-24.370,17.070
995,38046.970000,301.910,-77.652,73.426,450.708,-267.298,139.603,-60.150,-54.370,-141.930
996,38047.10000,257.996,-10.521,55.566,451.820,-257.775,141.837,81.850,94.630,-227.930
997,38047.57000,216.078,2.505,50.605,449.889,-257.671,146.754,-49.150,145.630,-98.930
998,38047.92000,219.072,-15.530,56.558,448.879,-260.495,147.658,-189.150,146.630,-19.930
999,38047.132000,256.000,-63.624,58.543,447.930,-259.458,151.619,-142.150,292.630,-25.930
1000,38047.154000,218.074,-43.585,74.419,443.979,-265.002,158.344,-45.150,212.630,32.070
1001,38047.188000,239.033,-37.573,68.465,445.028,-259.367,156.535,24.850,149.630,80.070
1002,38047.228000,233.045,-21.542,76.403,443.985,-264.923,161.297,11.850,99.630,73.070
1003,38047.270000,229.053,-26.552,71.442,442.119,-260.144,164.377,-56.150,32.630,20.070
1004,38047.310000,240.031,-44.587,64.496,441.117,-262.101,162.354,-43.150,-2.370,12.070
1005,38047.350000,239.033,-42.583,70.450,439.161,-263.075,162.324,53.850,-7.370,44.070
1006,38047.389000,242.027,-32.564,69.457,438.136,-266.871,162.216,49.850,-14.370,30.070
1007,38047.430000,247.018,-34.568,71.442,438.205,-262.143,162.348,5.850,-2.370,25.070
1008,38047.452000,232.047,-34.568,71.442,435.173,-270.642,164.074,-3.150,20.630,32.070
1009,38047.490000,242.027,-32.564,72.434,441.081,-264.859,165.228,-47.150,4.630,7.070
1010,38047.528000,244.023,-35.569,70.450,442.936,-270.558,163.105,-97.150,-41.370,-18.930
1011,38047.568000,234.043,-38.575,75.411,437.136,-268.802,161.177,-102.150,-51.370,-8.930
1012,38047.608000,234.043,-36.571,71.442,441.904,-273.672,153.181,-132.150,-99.370,9.070
