Sample, Time, ACCX, ACCY, ACCZ, MAGX, MAGY, MAGZ, GYRX, GYRY, GYRZ
0,77520.558000,249.081,48.786,-16.934,470.170,229.457,87.093,7.960,7.510,1.980
1,77520.597000,248.093,47.780,-16.934,467.265,229.407,86.105,3.960,8.510,-0.020
2,77520.637000,249.081,48.786,-14.942,468.301,236.234,87.240,4.960,8.510,-1.020
3,77520.677000,250.069,47.780,-17.930,469.304,240.105,86.347,-4.040,7.510,-2.020
4,77520.717000,248.093,49.792,-14.942,468.254,231.380,87.132,-4.040,6.510,-3.020
5,77520.757000,248.093,49.792,-15.938,468.332,239.168,88.286,-3.040,0.510,-0.020
6,77520.797000,248.093,47.780,-15.938,471.203,236.262,87.247,-1.040,-2.490,2.980
7,77520.837000,249.081,48.786,-17.930,468.258,231.423,89.094,7.960,-1.490,1.980
8,77520.864000,247.104,47.780,-13.946,466.298,229.397,86.103,4.960,-3.490,-0.020
9,77520.897000,248.093,47.780,-14.942,465.408,237.176,87.255,-0.040,-5.490,-0.020
10,77520.937000,246.116,47.780,-15.938,469.160,225.521,85.042,-2.040,-6.490,-1.020
11,77520.977000,247.104,49.792,-15.938,468.297,236.191,85.277,-0.040,-5.490,-1.020
12,77521.18000,249.081,48.786,-15.938,469.276,237.193,86.282,-2.040,-3.490,-1.020
13,77521.56000,249.081,49.792,-17.930,469.219,231.367,86.153,-9.040,-3.490,-2.020
14,77521.96000,247.104,49.792,-18.926,468.308,237.183,86.280,-2.040,-2.490,-0.020
15,77521.136000,247.104,48.786,-17.930,467.294,232.319,86.170,-2.040,1.510,-0.020
16,77521.156000,249.081,48.786,-14.942,467.360,239.115,86.321,-1.040,1.510,-1.020
17,77521.196000,249.081,48.786,-18.926,466.378,237.207,88.238,-3.040,0.510,1.980
18,77521.236000,248.093,49.792,-17.930,470.248,237.245,88.247,-6.040,1.510,2.980
19,77521.276000,248.093,48.786,-17.930,466.310,230.390,87.106,-9.040,4.510,0.980
20,77521.316000,250.069,48.786,-15.938,470.214,233.405,90.123,-5.040,5.510,0.980
21,77521.356000,246.116,48.786,-15.938,467.289,231.392,88.111,-7.040,4.510,-0.020
22,77521.396000,248.093,49.792,-14.942,468.350,241.110,88.329,-2.040,3.510,0.980
23,77521.437000,250.069,49.792,-16.934,468.344,241.045,85.385,-5.040,4.510,1.980
24,77521.477000,246.116,49.792,-14.942,469.242,233.352,88.158,-5.040,2.510,2.980
25,77521.497000,249.081,47.780,-13.946,467.345,237.217,88.240,-8.040,0.510,2.980
26,77521.537000,247.104,48.786,-15.938,470.214,233.405,90.123,-4.040,-1.490,4.980
27,77521.577000,247.104,48.786,-14.942,467.364,239.159,88.283,3.960,-2.490,5.980
28,77521.617000,250.069,47.780,-15.938,468.271,233.300,86.194,9.960,-3.490,8.980
29,77521.657000,248.093,48.786,-18.926,468.254,231.380,87.132,5.960,1.510,5.980
30,77521.697000,251.058,48.786,-14.942,468.275,233.343,88.156,0.960,9.510,-1.020
31,77521.737000,251.058,51.804,-16.934,468.268,232.394,89.116,0.960,23.510,-2.020
32,77521.777000,247.104,48.786,-15.938,466.389,238.200,89.241,6.960,26.510,-2.020
33,77521.797000,249.081,48.786,-15.938,468.275,233.343,88.156,5.960,31.510,-3.020
34,77521.837000,249.081,50.798,-11.953,468.322,238.197,88.264,3.960,27.510,-0.020
35,77521.877000,248.093,49.792,-13.946,465.417,237.263,91.179,2.960,16.510,4.980
36,77521.917000,249.081,48.786,-10.957,467.357,238.209,89.243,3.960,7.510,10.980
37,77521.957000,251.058,49.792,-14.942,467.359,238.231,90.224,2.960,0.510,15.980
38,77521.997000,248.093,49.792,-13.946,468.329,238.262,91.207,0.960,2.510,15.980
39,77522.37000,249.081,47.780,-13.946,467.295,231.456,91.054,-2.040,2.510,13.980
40,77522.77000,248.093,47.780,-12.949,465.398,235.321,91.136,-1.040,-1.490,14.980
41,77522.117000,249.081,48.786,-13.946,465.393,234.393,93.077,-2.040,-2.490,13.980
42,77522.137000,249.081,47.780,-12.949,469.304,239.221,90.250,-3.040,-4.490,12.980
43,77522.177000,248.093,47.780,-13.946,470.231,235.325,89.185,-3.040,-8.490,14.980
44,77522.217000,249.081,48.786,-11.953,468.237,229.459,88.070,-0.040,-10.490,13.980
45,77522.257000,247.104,49.792,-14.942,464.426,235.268,89.172,-3.040,-13.490,15.980
46,77522.297000,247.104,47.780,-12.949,468.306,236.277,89.202,3.960,-16.490,14.980
47,77522.338000,249.081,47.780,-12.949,467.345,237.217,88.240,1.960,-18.490,15.980
48,77522.378000,249.081,46.774,-14.942,467.343,236.311,91.162,5.960,-15.490,15.980
49,77522.418000,248.093,47.780,-14.942,468.284,234.314,88.178,3.960,-14.490,16.980
50,77522.438000,251.058,46.774,-15.938,467.284,231.349,86.149,6.960,-8.490,14.980
51,77522.478000,248.093,48.786,-14.942,468.308,236.299,90.183,7.960,-5.490,13.980
52,77522.518000,249.081,45.768,-12.949,471.213,237.233,87.268,11.960,-3.490,12.980
53,77522.558000,248.093,47.780,-15.938,467.348,237.238,89.221,18.960,-0.490,9.980
54,77522.598000,249.081,47.780,-16.934,471.206,236.284,88.228,9.960,-3.490,12.980
55,77522.638000,245.127,48.786,-14.942,469.214,230.440,88.094,10.960,-3.490,13.980
56,77522.678000,250.069,46.774,-14.942,469.229,232.338,86.175,3.960,-0.490,16.980
57,77522.718000,251.058,46.774,-11.953,471.203,236.262,87.247,28.960,-2.490,14.980
58,77522.758000,253.035,45.768,-12.949,474.082,233.421,89.151,-3.040,-9.490,11.980
59,77522.778000,248.093,47.780,-13.946,471.161,232.336,85.198,5.960,-12.490,11.980
60,77522.819000,247.104,45.768,-14.942,472.107,229.497,88.079,19.960,-12.490,18.980
61,77522.859000,247.104,43.756,-16.934,468.223,228.445,86.086,46.960,-14.490,18.980
62,77522.899000,249.081,43.756,-14.942,473.127,235.289,86.248,77.960,-16.490,16.980
63,77522.939000,248.093,49.792,-15.938,470.184,231.355,85.174,67.960,-25.490,19.980
64,77522.979000,248.093,38.727,-14.942,472.054,225.463,81.125,114.960,-20.490,32.980
65,77523.19000,247.104,48.786,-16.934,469.170,227.376,81.161,61.960,-36.490,33.980
66,77523.59000,248.093,45.768,-14.942,473.010,225.364,76.221,167.960,-46.490,54.980
67,77523.79000,251.058,45.768,-15.938,470.119,226.328,77.217,123.960,-75.490,70.980
68,77523.119000,253.035,47.780,-16.934,472.057,227.253,74.300,131.960,-84.490,73.980
69,77523.159000,251.058,44.762,-23.907,475.925,228.154,69.425,115.960,-102.490,84.980
70,77523.198000,249.081,43.756,-17.930,476.848,224.215,66.397,65.960,-150.490,88.980
71,77523.241000,248.093,38.727,-17.930,473.976,228.006,63.533,3.960,-196.490,96.980
72,77523.281000,251.058,42.750,-28.887,475.891,226.946,58.610,-16.040,-221.490,92.980
73,77523.321000,267.861,35.709,-6.973,477.795,224.915,53.666,141.960,-207.490,120.980
74,77523.361000,258.965,52.809,-20.918,481.630,221.976,50.667,90.960,-260.490,138.980
75,77523.401000,266.873,37.721,-20.918,477.648,212.057,42.593,211.960,-265.490,132.980
76,77523.421000,256.000,51.804,-12.949,481.483,210.002,35.691,109.960,-383.490,150.980
77,77523.461000,193.730,21.627,-105.588,479.517,209.681,21.950,552.960,-419.490,120.980
78,77523.501000,171.985,-40.739,-94.630,481.441,210.477,13.146,643.960,-175.490,35.980
79,77523.541000,268.849,-26.656,-78.693,483.387,211.488,14.153,172.960,173.510,-238.020
80,77523.593000,270.826,20.621,-53.790,481.559,222.170,15.367,-48.040,378.510,-489.020
81,77523.618000,270.826,126.240,-71.720,470.035,228.162,28.225,-282.040,515.510,-541.020
82,77523.658000,290.595,130.263,-56.778,462.513,246.900,45.296,-994.040,547.510,-558.020
83,77523.699000,279.722,32.692,-50.802,458.758,253.248,70.926,-975.040,830.510,-576.020
84,77523.719000,232.278,-110.145,-45.821,453.889,246.729,85.481,-1822.040,-176.490,-115.020
85,77523.759000,421.066,-468.244,-396.451,485.216,185.832,82.234,-5354.040,-2130.490,1746.980
86,77523.799000,501.127,-251.976,-281.899,511.358,105.709,1.077,-2309.040,-4085.490,3001.980
87,77523.839000,217.452,-80.974,-106.584,504.929,55.643,-66.733,-1046.040,-4274.490,2932.980
88,77523.879000,70.178,8.550,20.918,484.791,-7.587,-153.496,-368.040,-3254.490,2526.980
89,77523.919000,50.409,30.680,50.802,453.318,-49.808,-206.475,-361.040,-2152.490,2006.980
90,77523.959000,91.923,15.591,74.708,438.506,-77.479,-222.811,166.960,-437.490,999.980
91,77523.999000,181.869,20.621,172.327,441.394,-83.751,-200.389,333.960,1032.510,198.980
92,77524.56000,269.838,-24.644,-326.724,461.015,-63.347,-163.610,-418.040,1952.510,-811.020
93,77524.63000,374.610,119.198,53.790,467.022,-46.376,-144.588,405.960,1615.510,-818.020
94,77524.98000,424.031,67.898,-55.782,480.734,-38.477,-100.254,1281.960,1601.510,-460.020
95,77524.142000,316.293,5.532,0.000,486.676,-30.934,-68.693,-63.040,1112.510,-476.020
96,77524.189000,286.641,-69.910,-10.957,487.833,-14.140,-55.569,-500.040,722.510,-266.020
97,77524.218000,275.768,-28.668,-38.848,488.884,-8.046,-43.664,27.960,269.510,-206.020
98,77524.258000,267.861,29.674,-48.809,488.896,-7.054,-42.661,27.960,-69.490,-42.020
99,77524.298000,293.560,24.644,-6.973,489.724,-18.069,-58.594,72.960,-703.490,305.980
100,77524.338000,404.263,95.057,18.926,483.826,-24.296,-74.435,-257.040,-1272.490,645.980
101,77524.358000,512.988,125.234,-14.942,472.874,-46.751,-120.067,-772.040,-1858.490,825.980
102,77524.398000,388.448,-72.927,-111.564,458.141,-59.578,-167.455,547.960,-1953.490,330.980
103,77524.443000,297.514,-77.957,-193.245,445.370,-72.127,-203.064,1447.960,-1782.490,-50.020
104,77524.478000,80.062,-109.139,-103.595,434.480,-93.978,-221.224,2378.960,-1003.490,-668.020
105,77524.518000,50.409,60.857,-19.922,439.518,-73.521,-219.779,1422.960,-323.490,-1570.020
106,77524.558000,40.525,-30.680,-35.860,447.547,-44.255,-216.170,939.960,465.510,-2539.020
107,77524.598000,50.409,-50.798,-31.875,465.508,8.708,-198.286,1462.960,1042.510,-2915.020
108,77524.638000,130.471,-31.686,-74.708,475.809,67.636,-170.478,1482.960,1687.510,-3258.020
109,77524.658000,196.695,-176.534,-122.521,480.399,134.448,-134.662,2053.960,1864.510,-3287.020
110,77524.703000,261.931,-178.546,-106.584,476.071,183.311,-116.915,3977.960,1859.510,-3049.020
111,77524.738000,241.174,-274.106,-492.078,455.267,235.249,-128.555,3390.960,645.510,-2659.020
112,77524.783000,334.085,-383.749,78.693,460.755,210.258,-164.402,4084.960,295.510,-282.020
113,77524.819000,309.375,98.075,-52.794,467.496,204.736,-153.723,-1114.040,444.510,690.980
114,77524.879000,304.432,18.609,-100.607,475.299,208.069,-137.942,-999.040,324.510,281.980
115,77524.909000,263.907,54.821,-93.634,484.892,196.815,-124.442,671.960,714.510,307.980
116,77524.942000,248.093,-26.656,-29.883,484.860,191.227,-113.779,63.960,677.510,313.980
117,77525.71000,236.232,-26.656,-45.821,492.573,185.758,-101.136,391.960,487.510,233.980
118,77525.113000,250.069,-1.509,-52.794,496.392,179.150,-94.410,567.960,483.510,157.980
119,77525.139000,250.069,1.509,-53.790,499.209,168.672,-86.791,250.960,496.510,92.980
120,77525.156000,247.104,-15.591,-26.895,503.052,164.934,-81.963,564.960,496.510,71.980
121,77525.163000,271.815,0.503,-11.953,500.159,164.992,-78.045,575.960,386.510,86.980
122,77525.172000,223.382,-17.603,-30.879,506.923,163.224,-73.167,583.960,211.510,177.980
123,77525.199000,259.954,18.609,-19.922,507.806,155.380,-77.261,825.960,171.510,261.980
124,77525.233000,244.139,-6.538,3.984,510.572,141.773,-79.519,50.960,-51.490,302.980
125,77525.286000,256.000,-36.715,-34.864,511.551,141.890,-74.611,53.960,-107.490,200.980
126,77525.314000,246.116,-59.851,-34.864,511.438,131.125,-78.773,315.960,89.510,-4.020
127,77525.349000,260.942,-4.527,-30.879,508.672,144.732,-76.515,7.960,163.510,-116.020
128,77525.391000,256.988,-19.615,-23.907,506.749,144.821,-71.614,-14.040,209.510,-106.020
129,77525.431000,254.023,-21.627,-16.934,508.749,150.751,-67.556,-79.040,217.510,-151.020
130,77525.451000,262.919,5.532,0.996,506.797,147.927,-62.719,-91.040,153.510,-151.020
131,77525.491000,273.792,19.615,25.899,505.924,157.627,-62.506,-167.040,-129.490,-26.020
132,77525.533000,326.178,36.715,35.860,507.760,148.778,-68.582,-275.040,-382.490,102.980
133,77525.574000,375.598,27.662,11.953,503.891,149.625,-72.494,-613.040,-523.490,244.980
134,77525.609000,232.278,-109.139,-33.868,497.089,147.510,-77.459,-347.040,-433.490,361.980
135,77525.652000,143.320,-120.204,-2.988,496.930,130.142,-72.941,-1067.040,-79.490,587.980
136,77525.692000,147.274,-54.821,-3.984,498.861,126.601,-58.306,-1697.040,315.510,660.980
137,77525.732000,147.274,-22.633,-38.848,503.637,114.609,-32.084,-1376.040,675.510,511.980
138,77525.773000,150.239,38.727,-38.848,510.330,100.716,-4.920,-1304.040,727.510,327.980
139,77525.793000,128.494,-70.916,-350.630,517.191,107.794,5.058,-887.040,-45.490,-114.020
140,77525.831000,366.703,-92.039,44.825,517.167,105.809,3.053,318.960,46.510,-286.020
141,77525.871000,314.317,58.845,-23.907,519.208,116.529,4.276,677.960,223.510,-243.020
142,77525.911000,273.792,-62.868,-21.914,518.332,125.322,7.411,-245.040,220.510,-343.020
143,77525.952000,267.861,-16.597,-3.984,518.393,129.421,17.309,-139.040,325.510,-312.020
144,77525.993000,263.907,-17.603,14.942,516.500,132.444,23.256,-309.040,147.510,-346.020
145,77526.33000,255.012,-18.609,-3.984,518.576,147.026,23.584,-227.040,72.510,-353.020
146,77526.73000,257.977,-4.527,-4.981,512.785,147.983,25.554,-311.040,-10.490,-363.020
147,77526.93000,255.012,-18.609,-9.961,511.900,156.690,24.765,-277.040,-19.490,-374.020
148,77526.138000,247.104,-17.603,-18.926,504.226,162.526,28.801,-308.040,43.510,-412.020
149,77526.171000,253.035,-7.544,-16.934,502.482,181.062,34.112,-331.040,89.510,-490.020
150,77526.211000,242.162,14.585,-8.965,497.651,181.079,37.044,-352.040,106.510,-539.020
151,77526.251000,243.151,7.544,-2.988,493.998,202.487,41.434,-566.040,8.510,-554.020
152,77526.291000,259.954,22.633,2.988,490.169,207.239,38.590,-523.040,-107.490,-577.020
153,77526.331000,260.942,33.697,40.840,487.431,223.758,40.912,-481.040,-431.490,-490.020
154,77526.372000,263.907,44.762,40.840,484.525,225.456,31.137,-450.040,-750.490,-339.020
155,77526.412000,318.270,82.986,1.992,482.613,230.939,16.545,-815.040,-970.490,-53.020
156,77526.432000,278.734,45.768,-36.856,474.865,230.777,12.602,-1477.040,-824.490,-139.020
157,77526.472000,219.429,-79.969,-41.837,474.892,232.805,16.570,-1357.040,-424.490,-99.020
158,77526.512000,197.683,-69.910,-62.755,471.035,231.128,30.254,-1348.040,-157.490,-88.020
159,77526.552000,151.228,-39.733,-89.650,470.078,229.457,42.963,-1844.040,164.510,-216.020
160,77526.592000,180.880,-52.809,-109.572,468.125,220.463,76.102,-1799.040,807.510,-293.020
161,77526.632000,324.201,-1.509,-123.518,464.260,211.665,119.048,-1632.040,1257.510,130.980
162,77526.673000,341.992,151.387,-183.284,478.472,174.590,147.675,-4332.040,-581.490,772.980
163,77526.711000,423.042,-244.935,-252.016,499.047,108.132,116.823,-4328.040,-2261.490,1506.980
164,77526.731000,425.019,-7.544,-207.191,513.700,40.495,34.938,-1534.040,-3497.490,2152.980
165,77526.771000,296.525,-77.957,-153.401,499.492,-9.151,-54.453,-1779.040,-3758.490,2180.980
166,77526.811000,176.927,-44.762,-57.774,484.589,-39.453,-102.229,-891.040,-3007.490,2078.980
167,77526.856000,77.097,18.609,-22.911,459.023,-70.075,-159.841,-1097.040,-2387.490,1801.980
168,77526.891000,52.386,-33.697,-35.860,442.328,-87.582,-198.510,-1056.040,-1326.490,1392.980
169,77526.933000,121.575,-6.538,2.988,431.513,-103.435,-208.692,-756.040,-338.490,967.980
170,77526.977000,197.683,15.591,87.658,440.233,-104.990,-194.978,-578.040,726.510,365.980
171,77527.12000,307.398,-155.411,-178.303,461.740,-91.190,-150.497,150.960,1959.510,-559.020
172,77527.52000,498.162,-169.493,-150.412,475.317,-93.389,-124.039,582.960,1487.510,-428.020
173,77527.72000,426.996,-2.515,-34.864,491.997,-77.781,-83.451,-306.040,1526.510,-132.020
174,77527.112000,354.842,59.851,-44.825,499.794,-78.029,-54.020,1.960,1246.510,-272.020
175,77527.152000,298.502,-23.639,-38.848,505.787,-63.841,-29.176,-8.040,880.510,-267.020
176,77527.192000,273.792,-4.527,-60.763,508.657,-70.286,-14.603,-158.040,659.510,-204.020
177,77527.232000,267.861,-12.574,-39.844,504.909,-60.356,-2.622,41.960,349.510,-143.020
178,77527.271000,253.035,-2.515,-45.821,504.968,-54.509,-1.512,-57.040,50.510,-73.020
179,77527.311000,256.000,2.515,-42.833,506.915,-51.729,-8.311,31.960,-275.490,84.980
180,77527.351000,269.838,6.538,-45.821,507.816,-55.883,-21.150,255.960,-747.490,206.980
181,77527.371000,315.305,9.556,-13.946,501.863,-66.166,-44.926,339.960,-1144.490,378.980
182,77527.442000,431.938,79.969,6.973,489.975,-86.559,-84.630,60.960,-1804.490,721.980
183,77527.457000,502.116,72.927,-2.988,470.415,-96.693,-139.814,-288.040,-2334.490,734.980
184,77527.501000,364.726,-52.809,-102.599,443.130,-105.889,-193.031,621.960,-2382.490,-181.020
185,77527.537000,193.730,-115.175,-185.276,430.537,-102.646,-216.521,1712.960,-1949.490,-617.020
186,77527.572000,109.714,-24.644,-121.525,419.774,-111.833,-232.439,2559.960,-1081.490,-1400.020
187,77527.612000,65.236,15.591,-41.837,417.929,-102.186,-234.190,2095.960,-395.490,-2109.020
188,77527.652000,30.641,-52.809,-55.782,432.775,-68.906,-227.536,1750.960,360.510,-2790.020
189,77527.677000,46.456,-11.568,-33.868,448.743,-21.808,-210.766,1618.960,942.510,-3165.020
190,77527.712000,84.015,-36.715,-52.794,470.638,35.335,-181.012,1442.960,1425.510,-3371.020
191,77527.752000,158.147,-103.104,-81.681,480.106,106.983,-148.021,1887.960,2045.510,-3313.020
192,77527.792000,240.185,-141.328,-184.280,487.241,139.584,-124.727,3205.960,2366.510,-3113.020
193,77527.832000,372.633,-362.625,-492.078,475.172,193.636,-132.379,4110.960,96.510,-2250.020
194,77527.872000,167.042,-479.308,109.572,468.312,192.728,-170.659,4062.960,326.510,-761.020
195,77527.917000,413.158,-133.281,131.486,476.889,178.358,-166.057,-431.040,667.510,556.980
196,77527.952000,249.081,115.175,-161.370,485.592,172.251,-138.715,-1797.040,603.510,742.980
197,77527.994000,307.398,-26.656,-65.743,493.330,167.903,-119.182,636.960,963.510,472.980
198,77528.14000,216.463,-3.521,-38.848,495.150,153.618,-107.728,202.960,768.510,425.980
199,77528.56000,229.313,-55.827,-60.763,501.909,149.153,-93.103,10.960,578.510,294.980
200,77528.96000,236.232,-18.609,-58.770,508.670,145.595,-81.399,327.960,626.510,199.980
201,77528.136000,269.838,-14.585,-20.918,513.445,136.235,-67.868,273.960,492.510,125.980
202,77528.177000,280.710,-7.544,-22.911,511.549,139.237,-62.902,321.960,331.510,138.980
203,77528.216000,209.544,-24.644,-39.844,517.293,132.540,-61.077,393.960,290.510,169.980
204,77528.262000,264.896,-13.580,-15.938,517.181,120.027,-56.452,260.960,224.510,257.980
205,77528.302000,248.093,-15.591,-24.903,517.138,115.216,-54.597,341.960,90.510,257.980
206,77528.322000,252.046,-30.680,-19.922,520.976,112.298,-56.615,11.960,-75.490,283.980
207,77528.357000,253.035,-25.650,-32.872,519.843,95.740,-58.947,-26.040,-127.490,257.980
208,77528.412000,242.162,-39.733,-42.833,518.892,97.651,-59.887,197.960,-65.490,194.980
209,77528.449000,251.058,-58.845,-25.899,522.798,101.551,-60.773,237.960,66.510,68.980
210,77528.484000,255.012,-23.639,-29.883,523.685,92.866,-59.002,204.960,48.510,24.980
211,77528.514000,256.988,-40.739,-34.864,524.702,98.636,-61.814,334.960,5.510,-6.020
212,77528.554000,252.046,-43.756,-39.844,523.674,92.758,-63.908,422.960,64.510,-102.020
213,77528.594000,257.977,-50.798,-16.934,519.921,103.529,-57.793,532.960,136.510,-151.020
214,77528.617000,284.664,-24.644,-5.977,519.933,104.521,-56.790,550.960,85.510,-168.020
215,77528.652000,322.224,27.662,20.918,517.029,106.241,-65.584,402.960,-234.490,-79.020
216,77528.696000,318.270,45.768,27.891,513.059,97.314,-72.655,499.960,-438.490,105.980
217,77528.733000,244.139,-80.974,-46.817,505.326,101.705,-90.226,206.960,-824.490,-23.020
218,77528.774000,178.903,-92.039,-37.852,499.426,94.572,-103.145,1162.960,-539.490,-105.020
219,77528.841000,96.865,-60.857,52.794,500.500,106.167,-105.828,747.960,122.510,-246.020
220,77528.856000,174.950,-52.809,-41.837,505.382,106.645,-86.194,0.960,905.510,-305.020
221,77528.896000,175.938,-2.515,-52.794,514.260,118.057,-56.502,-1075.040,888.510,-348.020
222,77528.936000,302.456,-17.603,-188.265,516.175,113.480,-44.831,397.960,316.510,57.980
223,77528.956000,386.471,-52.809,5.977,517.257,124.277,-39.686,533.960,381.510,-169.020
224,77528.997000,245.127,48.786,-35.860,518.217,123.337,-38.724,-61.040,121.510,-239.020
225,77529.34000,256.988,-21.627,-12.949,518.362,136.174,-28.632,-139.040,259.510,-215.020
226,77529.74000,269.838,-20.621,14.942,515.497,138.260,-20.747,-112.040,353.510,-223.020
227,77529.114000,254.023,-27.662,12.949,513.599,141.240,-16.762,-302.040,191.510,-280.020
228,77529.153000,257.977,-12.574,5.977,512.747,152.018,-11.621,-272.040,133.510,-326.020
229,77529.194000,251.058,-3.521,8.965,511.887,161.847,-5.521,-500.040,56.510,-342.020
230,77529.234000,254.023,-11.568,9.961,507.142,170.602,-2.395,-529.040,27.510,-361.020
231,77529.253000,250.069,-3.521,10.957,505.214,171.533,-3.359,-404.040,43.510,-386.020
232,77529.298000,241.174,19.615,14.942,501.468,183.253,1.797,-483.040,-47.490,-365.020
233,77529.338000,245.127,5.532,17.930,501.501,186.209,3.824,-648.040,-227.490,-287.020
234,77529.373000,247.104,1.509,20.918,500.570,190.946,-0.976,-397.040,-308.490,-242.020
235,77529.413000,255.012,25.650,3.984,499.709,203.407,-7.566,-530.040,-468.490,-249.020
236,77529.453000,260.942,3.521,10.957,492.990,210.892,-17.221,-505.040,-566.490,-321.020
237,77529.493000,266.873,9.556,20.918,491.992,208.833,-22.172,-532.040,-678.490,-324.020
238,77529.533000,265.884,38.727,2.988,488.183,218.180,-36.682,-506.040,-826.490,-181.020
239,77529.573000,288.618,81.980,-17.930,483.312,216.925,-47.508,-709.040,-881.490,-19.020
240,77529.593000,287.629,23.639,-14.942,480.415,219.594,-57.261,-1148.040,-904.490,-44.020
241,77529.633000,243.151,-41.745,-69.728,477.610,229.296,-56.071,-314.040,-266.490,-130.020
242,77529.674000,129.483,-152.393,-148.420,471.902,235.452,-38.295,-1182.040,258.510,-462.020
243,77529.714000,137.390,-108.134,-9.961,472.107,247.103,6.094,-2094.040,996.510,-555.020
244,77529.758000,429.961,513.509,-392.467,470.326,254.721,44.505,-4715.040,-111.490,-1162.020
245,77529.794000,227.336,-57.839,-60.763,457.881,260.272,81.867,-1993.040,-407.490,152.980
246,77529.834000,472.463,-304.283,-239.066,481.644,218.588,73.147,-6642.040,-2642.490,1806.980
247,77529.874000,396.355,-257.006,-229.105,501.196,148.949,30.455,-4365.040,-3724.490,1882.980
248,77529.894000,287.629,-204.699,-177.307,506.228,87.000,-53.285,-466.040,-3618.490,2234.980
249,77529.934000,113.668,22.633,-46.817,486.220,33.824,-124.135,480.960,-2947.490,2263.980
250,77529.974000,-58.317,-20.621,-69.728,467.323,-8.274,-177.084,-603.040,-2407.490,1918.980
251,77530.17000,19.768,-89.022,-67.735,452.569,-28.351,-201.097,68.960,-1574.490,1592.980
252,77530.57000,85.992,-20.621,-17.930,442.559,-60.721,-212.624,491.960,-610.490,1248.980
253,77530.97000,139.367,-6.538,47.813,444.308,-81.845,-203.282,285.960,640.510,360.980
254,77530.137000,175.938,-74.939,-90.646,455.112,-72.271,-169.704,-483.040,1714.510,-315.020
255,77530.177000,411.181,64.880,-329.712,473.899,-39.147,-127.742,-1679.040,1598.510,-861.020
256,77530.217000,420.077,-27.662,3.984,485.778,-21.472,-79.272,1302.960,1890.510,-749.020
257,77530.238000,332.108,182.570,-103.595,490.780,-9.279,-56.436,-22.040,1506.510,-570.020
258,77530.278000,304.432,-49.792,9.961,498.707,3.159,-23.781,-388.040,1045.510,-429.020
259,77530.318000,253.035,-5.532,-26.895,494.874,3.466,-8.092,-441.040,622.510,-289.020
260,77530.354000,257.977,21.627,-38.848,494.972,12.334,-2.011,-89.040,179.510,-131.020
261,77530.397000,251.058,-4.527,-7.969,496.912,14.165,-7.850,204.960,-227.490,33.980
262,77530.437000,274.780,5.532,-19.922,495.828,5.116,-21.782,386.960,-800.490,308.980
263,77530.477000,321.236,27.662,-24.903,490.773,-11.112,-51.573,331.960,-1168.490,463.980
264,77530.517000,419.089,90.028,7.969,487.748,-18.476,-76.259,-27.040,-1645.490,707.980
265,77530.537000,501.127,42.750,36.856,473.915,-37.227,-128.680,-532.040,-2128.490,803.980
266,77530.577000,398.332,-50.798,-71.720,458.048,-67.517,-175.477,1007.960,-1892.490,387.980
267,77530.617000,231.290,-119.198,-184.280,435.546,-85.102,-215.141,1463.960,-1982.490,-92.020
268,77530.656000,70.178,66.892,-43.829,430.649,-89.248,-225.050,2318.960,-1039.490,-615.020
269,77530.697000,46.456,78.963,-43.829,438.478,-80.392,-222.875,1115.960,-83.490,-1764.020
270,77530.737000,-9.884,-14.585,-31.875,447.469,-52.044,-217.324,1001.960,673.510,-2368.020
271,77530.777000,10.873,-27.662,-39.844,466.413,0.195,-188.666,1044.960,1590.510,-2850.020
272,77530.817000,76.108,-65.886,-86.661,482.680,73.053,-147.788,707.960,2002.510,-3073.020
273,77530.837000,210.533,-99.081,-141.447,491.170,141.952,-107.014,1799.960,2298.510,-3188.020
274,77530.878000,296.525,-225.823,-291.860,484.988,196.858,-78.350,3742.960,2524.510,-2851.020
275,77530.914000,512.988,-515.521,85.665,471.540,213.490,-110.371,3566.960,-45.490,-496.020
276,77530.956000,166.054,-131.269,304.809,484.943,200.828,-118.469,1749.960,886.510,507.980
277,77530.996000,254.023,176.534,-147.424,484.986,201.238,-99.828,-2152.040,289.510,433.980
278,77531.36000,303.444,-41.745,-81.681,493.593,188.032,-86.373,271.960,581.510,327.980
279,77531.86000,247.104,67.898,-46.817,494.477,177.556,-77.778,651.960,697.510,387.980
280,77531.119000,231.290,-59.851,-22.911,502.172,170.167,-64.196,-227.040,420.510,352.980
281,77531.239000,234.255,-23.639,-59.767,501.185,167.331,-60.339,397.960,364.510,257.980
282,77531.258000,260.942,5.532,-35.860,508.903,164.559,-57.442,406.960,412.510,175.980
283,77531.296000,271.815,2.515,-30.879,509.844,159.023,-44.814,203.960,368.510,169.980
284,77531.311000,270.826,-15.591,-28.887,511.745,155.202,-42.934,317.960,355.510,140.980
285,77531.327000,232.278,-14.585,-46.817,512.646,146.646,-35.277,172.960,396.510,120.980
286,77531.336000,266.873,-0.503,-8.965,510.759,148.849,-22.483,162.960,397.510,171.980
287,77531.368000,239.197,-27.662,-5.977,513.638,146.008,-20.579,321.960,262.510,200.980
288,77531.408000,253.035,-13.580,-3.984,517.485,142.313,-13.788,145.960,218.510,151.980
289,77531.448000,258.965,-28.668,-31.875,516.442,133.653,-10.060,-156.040,183.510,61.980
290,77531.487000,246.116,-38.727,-25.899,513.577,136.623,-6.077,199.960,284.510,5.980
291,77531.524000,258.965,-12.574,-2.988,514.569,137.754,0.815,95.960,298.510,-105.020
292,77531.604000,255.012,-12.574,4.981,514.628,142.717,5.828,-85.040,257.510,-122.020
293,77531.656000,259.954,-10.562,0.996,512.744,146.711,11.797,-66.040,243.510,-90.020
294,77531.669000,255.012,-4.527,10.957,511.835,151.663,16.808,-146.040,186.510,-89.020
295,77531.688000,258.965,0.503,29.883,510.766,140.996,17.550,-98.040,-5.490,-14.020
296,77531.709000,287.629,26.656,33.868,510.802,144.858,16.655,-83.040,-242.490,50.980
297,77531.749000,313.328,50.798,33.868,508.844,144.623,6.839,-228.040,-468.490,144.980
298,77531.789000,293.560,39.733,20.918,506.819,137.571,-4.109,-144.040,-514.490,97.980
299,77531.829000,243.151,-102.098,-30.879,505.888,144.077,-16.715,197.960,-620.490,39.980
300,77531.866000,200.649,-58.845,0.996,504.834,137.078,-25.699,850.960,-322.490,103.980
301,77531.906000,149.251,-48.786,-0.996,505.771,134.153,-26.742,843.960,58.510,174.980
302,77531.956000,157.158,45.768,19.922,507.757,138.185,-20.765,477.960,424.510,-171.020
303,77531.969000,204.602,-252.982,-229.105,505.880,142.243,-11.853,-699.040,357.510,-168.020
304,77532.12000,256.988,72.927,-91.642,509.661,134.385,-17.903,-483.040,-257.490,-163.020
305,77532.48000,313.328,-40.739,-43.829,515.555,143.222,-15.733,142.960,121.510,-6.020
306,77532.88000,304.432,-2.515,13.946,512.605,137.455,-11.945,525.960,452.510,-136.020
307,77532.128000,282.687,9.556,-0.996,512.666,142.439,-5.950,-236.040,275.510,-235.020
308,77532.171000,255.012,-20.621,11.953,509.907,156.111,-0.749,-134.040,247.510,-229.020
309,77532.206000,254.023,-6.538,14.942,510.888,156.249,5.140,-244.040,84.510,-255.020
310,77532.251000,256.000,-5.532,0.996,507.120,166.870,4.387,-322.040,2.510,-283.020
311,77532.266000,246.116,-1.509,-0.996,504.248,169.775,5.426,-244.040,-17.490,-265.020
312,77532.309000,246.116,-6.538,-3.984,504.311,175.665,8.499,-354.040,-2.490,-279.020
313,77532.359000,256.000,-2.515,1.992,498.634,188.273,10.728,-339.040,-6.490,-319.020
314,77532.387000,252.046,0.503,3.984,497.739,196.009,9.917,-298.040,-32.490,-359.020
315,77532.427000,248.093,5.532,-0.996,492.921,197.904,9.949,-255.040,-65.490,-393.020
316,77532.467000,258.965,17.603,2.988,492.064,208.639,13.128,-299.040,-129.490,-421.020
317,77532.508000,256.000,33.697,19.922,485.313,211.420,10.233,-390.040,-237.490,-446.020
318,77532.567000,254.023,27.662,27.891,481.602,228.750,5.707,-560.040,-558.490,-410.020
319,77532.596000,266.873,33.697,53.790,477.743,232.337,-5.990,-555.040,-830.490,-271.020
320,77532.612000,303.444,101.092,-0.996,480.609,232.020,-21.681,-546.040,-996.490,-13.020
321,77532.647000,302.456,84.998,-22.911,474.801,232.805,-27.560,-1107.040,-969.490,-18.020
322,77532.687000,259.954,-51.804,-15.938,471.934,237.524,-32.365,-1047.040,-700.490,-19.020
323,77532.728000,175.938,-41.745,-97.619,470.948,234.688,-28.507,-1247.040,-425.490,-29.020
324,77532.768000,113.668,-98.075,-173.323,470.008,233.190,-7.948,-2041.040,37.510,-156.020
325,77532.813000,103.784,-65.886,-156.389,469.182,241.573,20.675,-1820.040,524.510,-309.020
326,77532.849000,233.266,-70.916,-115.549,473.110,238.654,62.787,-1316.040,1266.510,-25.020
327,77532.886000,304.432,271.088,-102.599,471.138,226.834,99.786,-2711.040,367.510,128.980
328,77532.911000,363.737,-179.552,-192.249,486.337,193.479,120.652,-5860.040,-1219.490,-35.020
329,77532.951000,452.695,-95.057,-339.673,502.242,143.543,93.099,-2049.040,-3168.490,2052.980
330,77532.989000,357.807,-89.022,-112.560,511.272,97.834,-4.001,-708.040,-3943.490,1758.980
331,77533.29000,190.764,44.762,-22.911,501.869,44.417,-90.524,1009.960,-3253.490,1929.980
332,77533.69000,105.761,82.986,18.926,478.099,0.157,-151.377,291.960,-2701.490,1622.980
333,77533.111000,-31.629,8.550,-8.965,455.584,-17.557,-196.928,-332.040,-1689.490,997.980
334,77533.151000,47.444,-31.686,-15.938,444.717,-37.423,-213.083,63.960,-844.490,673.980
335,77533.191000,138.378,-13.580,0.996,443.703,-42.287,-213.193,9.960,312.510,140.980
336,77533.231000,132.448,-123.222,-27.891,448.712,-29.144,-191.316,-195.040,1237.510,-295.020
337,77533.252000,511.012,-135.293,-240.062,468.220,-19.506,-158.699,532.960,1555.510,-922.020
338,77533.287000,392.402,4.527,-79.689,477.180,-1.147,-121.988,1081.960,1578.510,-771.020
339,77533.327000,392.402,101.092,-44.825,484.141,10.418,-84.452,365.960,1537.510,-328.020
340,77533.367000,329.143,11.568,-42.833,489.182,24.748,-52.742,-260.040,1235.510,-463.020
341,77533.407000,245.127,-40.739,-5.977,491.207,29.146,-30.085,-237.040,964.510,-438.020
342,77533.447000,279.722,38.727,-65.743,493.300,42.131,-14.101,-62.040,554.510,-273.020
343,77533.487000,264.896,26.656,-30.879,495.232,40.359,-7.272,159.960,225.510,-166.020
344,77533.585000,261.931,-1.509,-7.969,487.566,49.798,-15.905,266.960,-401.490,63.980
345,77533.585000,300.479,14.585,-39.844,490.327,38.781,-32.815,578.960,-822.490,210.980
346,77533.588000,317.282,18.609,-34.864,486.347,33.285,-60.403,549.960,-1200.490,400.980
347,77533.628000,383.506,49.792,-19.922,480.205,7.101,-101.205,554.960,-1705.490,645.980
348,77533.668000,494.208,98.075,14.942,465.451,-7.689,-149.617,131.960,-2076.490,787.980
349,77533.711000,420.077,8.550,-13.946,456.493,-26.026,-185.346,-122.040,-2345.490,367.980
350,77533.747000,245.127,-92.039,-185.276,434.118,-29.199,-231.555,491.960,-1929.490,7.980
351,77533.787000,107.737,14.585,-85.665,424.227,-46.337,-256.473,2087.960,-949.490,-528.020
352,77533.836000,11.861,35.709,-29.883,426.090,-54.926,-250.775,1835.960,91.510,-1160.020
353,77533.868000,-9.884,-1.509,-52.794,440.864,-32.024,-230.623,1099.960,1062.510,-1836.020
354,77533.888000,-7.907,4.527,-64.747,462.646,12.585,-197.225,745.960,1617.510,-2344.020
355,77533.941000,37.560,-34.703,-130.490,483.382,47.626,-157.177,1295.960,2189.510,-2730.020
356,77533.968000,171.985,-141.328,-212.171,493.723,111.344,-132.205,1216.960,1958.510,-2907.020
357,77534.8000,310.363,-154.405,-151.409,490.409,162.417,-102.639,2559.960,1732.510,-2573.020
358,77534.48000,512.988,-515.521,-212.171,481.971,193.960,-120.589,1270.960,-491.490,-1019.020
359,77534.88000,242.162,-289.195,297.837,483.796,185.004,-131.572,3171.960,718.510,-44.020
360,77534.139000,246.116,146.358,-151.409,494.287,166.057,-115.299,-1045.040,383.510,401.980
361,77534.167000,297.514,-39.733,-93.634,497.242,168.351,-100.532,-204.040,663.510,233.980
362,77534.187000,277.745,46.774,-57.774,503.886,153.099,-91.050,599.960,844.510,302.980
363,77534.232000,275.768,-20.621,-11.953,511.635,150.628,-74.417,-221.040,635.510,310.980
364,77534.268000,257.977,5.532,-52.794,509.683,146.035,-61.774,-197.040,446.510,325.980
365,77534.308000,254.023,-32.692,-21.914,514.423,134.583,-55.154,-56.040,382.510,318.980
366,77534.348000,226.347,-13.580,-48.809,514.421,131.929,-43.445,-378.040,283.510,236.980
367,77534.392000,265.884,-43.756,-14.942,518.264,127.307,-34.713,-131.040,300.510,161.980
368,77534.432000,220.417,-39.733,-23.907,515.350,125.402,-31.820,142.960,254.510,185.980
369,77534.472000,259.954,-27.662,-37.852,518.263,124.653,-23.004,159.960,303.510,180.980
370,77534.492000,260.942,-11.568,-16.934,518.237,121.762,-22.088,107.960,329.510,114.980
371,77534.532000,264.896,-11.568,-18.926,519.130,112.257,-13.471,-313.040,182.510,97.980
372,77534.618000,234.255,-52.809,-28.887,521.156,120.194,-6.426,-74.040,196.510,72.980
373,77534.647000,237.220,-60.857,-14.942,521.080,111.542,-2.696,73.960,286.510,-42.020
374,77534.662000,257.977,-19.615,-7.969,517.297,118.495,6.277,-171.040,250.510,-86.020
375,77534.689000,255.012,-29.674,-6.973,518.264,117.620,10.182,-40.040,222.510,-71.020
376,77534.728000,255.012,-25.650,3.984,520.279,125.449,12.321,-56.040,166.510,-71.020
377,77534.771000,249.081,-31.686,-1.992,521.286,128.478,17.294,0.960,102.510,-76.020
378,77534.811000,267.861,-16.597,6.973,514.487,125.521,18.195,96.960,43.510,-95.020
379,77534.831000,312.340,19.615,31.875,514.488,126.406,14.292,18.960,-133.490,-98.020
380,77534.871000,326.178,41.745,50.802,512.568,129.170,8.465,-526.040,-500.490,75.980
381,77534.911000,301.467,14.585,26.895,509.607,125.064,-0.458,-117.040,-286.490,137.980
382,77534.951000,255.012,-112.157,-55.782,512.487,124.877,-10.263,755.960,-478.490,108.980
383,77534.991000,170.996,-48.786,-45.821,508.602,125.573,-21.043,429.960,-351.490,-38.020
384,77535.31000,153.205,12.574,-38.848,504.741,128.254,-29.818,694.960,-226.490,-450.020
385,77535.71000,161.112,-27.662,-54.786,500.026,141.712,-33.451,289.960,-94.490,-458.020
386,77535.127000,132.448,-246.947,-64.747,502.100,156.273,-34.105,-141.040,51.510,-453.020
387,77535.134000,191.753,-156.417,-70.724,508.816,150.513,-34.218,418.960,215.510,82.980
388,77535.169000,408.216,42.750,-11.953,511.725,149.722,-27.365,-364.040,347.510,178.980
389,77535.209000,313.328,-16.597,-17.930,507.828,145.909,-22.555,432.960,251.510,-354.020
390,77535.248000,254.023,-2.515,-3.984,505.962,152.707,-21.427,510.960,221.510,-353.020
391,77535.288000,270.826,10.562,-9.961,506.159,172.211,-17.071,-113.040,87.510,-319.020
392,77535.328000,258.965,-9.556,9.961,502.337,177.912,-20.875,82.960,-5.490,-317.020
393,77535.368000,248.093,-1.509,-16.934,499.481,181.854,-16.871,-140.040,-118.490,-364.020
394,77535.408000,251.058,-9.556,-22.911,493.776,193.318,-22.513,-28.040,-69.490,-393.020
395,77535.428000,250.069,9.556,-21.914,490.945,200.129,-20.406,-258.040,-64.490,-435.020
396,77535.468000,241.174,8.550,-11.953,489.142,214.587,-24.012,-220.040,-87.490,-500.020
397,77535.513000,251.058,32.692,-10.957,482.485,226.193,-22.787,-397.040,-212.490,-551.020
398,77535.553000,258.965,53.815,-2.988,477.764,238.702,-25.462,-527.040,-421.490,-564.020
399,77535.593000,265.884,29.674,23.907,471.019,243.296,-34.200,-479.040,-621.490,-438.020
400,77535.633000,318.270,74.939,29.883,467.229,254.585,-48.667,-531.040,-978.490,-223.020
401,77535.669000,381.529,130.263,5.977,464.297,253.392,-57.526,-601.040,-1017.490,-177.020
402,77535.709000,319.259,45.768,-5.977,457.589,260.985,-62.275,-910.040,-807.490,-36.020
403,77535.749000,213.498,-70.916,-44.825,455.653,260.082,-58.376,-1435.040,-618.490,200.980
404,77535.774000,172.973,-86.004,-105.588,458.492,248.934,-37.043,-2390.040,-408.490,374.980
405,77535.809000,21.745,-19.615,-116.545,461.380,241.778,-10.718,-1909.040,241.510,205.980
406,77535.851000,112.680,46.774,-183.284,469.166,237.020,34.303,-1757.040,925.510,15.980
407,77535.889000,433.915,123.222,-151.409,468.310,241.606,66.765,-2216.040,1196.510,-41.020
408,77535.929000,366.703,87.010,-114.553,465.349,225.159,114.446,-2105.040,1162.510,261.980
409,77535.969000,426.996,-213.752,-290.864,482.378,184.660,118.487,-3523.040,-2058.490,1133.980
410,77536.9000,512.988,-123.222,-262.973,504.851,121.392,55.348,-2514.040,-3660.490,2319.980
411,77536.49000,390.425,-84.998,-108.576,504.077,62.904,-44.999,-286.040,-4098.490,2290.980
412,77536.69000,148.263,24.644,9.961,486.005,10.631,-119.747,388.960,-3419.490,2245.980
413,77536.109000,6.919,77.957,51.798,465.199,-28.595,-173.617,-173.040,-2584.490,1874.980
414,77536.150000,-2.965,22.633,32.872,450.579,-35.058,-196.346,-617.040,-1403.490,1055.980
415,77536.193000,84.015,-38.727,15.938,443.629,-50.917,-208.481,-147.040,-433.490,645.980
416,77536.231000,180.880,-46.774,65.743,448.489,-51.538,-194.755,-85.040,887.510,29.980
417,77536.271000,262.919,-77.957,-81.681,469.024,-36.907,-156.141,613.960,1744.510,-536.020
418,77536.309000,512.988,-63.874,-47.813,479.917,-17.667,-124.310,11.960,1312.510,-527.020
419,77536.352000,435.892,146.358,-39.844,486.812,-13.782,-83.022,912.960,1577.510,-396.020
420,77536.387000,353.853,50.798,-34.864,491.826,0.289,-63.086,166.960,1143.510,-449.020
421,77536.414000,291.583,-30.680,-4.981,496.751,5.578,-45.306,-50.040,787.510,-291.020
422,77536.449000,262.919,-24.644,-52.794,493.946,12.648,-31.426,-103.040,460.510,-212.020
423,77536.489000,278.734,13.580,-63.751,501.812,23.619,-21.359,249.960,240.510,-152.020
424,77536.544000,266.873,0.503,-43.829,501.800,22.626,-22.362,189.960,-36.490,-58.020
425,77536.572000,267.861,-7.544,-27.891,500.665,7.795,-34.461,222.960,-512.490,134.980
426,77536.613000,290.595,15.591,-27.891,495.759,5.332,-56.101,246.960,-928.490,316.980
427,77536.649000,387.459,62.868,-13.946,493.711,-1.936,-76.860,189.960,-1453.490,581.980
428,77536.689000,452.695,119.198,18.926,479.908,-18.637,-124.332,-361.040,-1919.490,785.980
429,77536.709000,509.035,30.680,11.953,461.235,-37.457,-177.745,-72.040,-2266.490,581.980
430,77536.749000,328.154,-54.821,-176.311,435.813,-57.011,-217.459,745.960,-1942.490,192.980
431,77536.789000,123.552,-78.963,-143.440,418.185,-73.319,-245.316,2013.960,-1443.490,-208.020
432,77536.834000,67.212,70.916,-50.802,423.940,-78.138,-246.392,1987.960,-270.490,-1164.020
433,77536.874000,7.907,-6.538,-50.802,426.066,-59.565,-241.072,921.960,322.510,-1832.020
434,77536.916000,17.792,-38.727,-57.774,445.794,-24.037,-222.590,904.960,1292.510,-2570.020
435,77536.951000,42.502,-30.680,-52.794,469.591,28.400,-187.053,988.960,1796.510,-2950.020
436,77536.993000,120.587,-88.016,-120.529,479.969,92.463,-146.382,1036.960,2174.510,-3088.020
437,77537.13000,254.023,-193.635,-200.218,482.633,160.227,-110.549,1874.960,2037.510,-2905.020
438,77537.53000,347.923,-212.747,-144.436,475.385,209.773,-104.562,3033.960,1551.510,-2375.020
439,77537.93000,512.988,-340.495,-224.125,465.726,216.864,-130.902,1812.960,-539.490,-787.020
440,77537.133000,305.421,-165.470,58.770,463.719,212.638,-145.710,2936.960,674.510,-187.020
441,77537.172000,234.255,131.269,-108.576,478.116,197.590,-130.323,-1082.040,638.510,542.980
442,77537.213000,290.595,96.063,-126.506,484.977,201.151,-103.752,-1122.040,690.510,327.980
443,77537.253000,252.046,-3.521,-52.794,489.717,188.815,-93.229,1170.960,800.510,252.980
444,77537.291000,211.521,-23.639,-23.907,496.431,181.286,-85.536,480.960,606.510,235.980
445,77537.312000,307.398,54.821,-26.895,499.264,171.843,-74.953,328.960,419.510,179.980
446,77537.353000,260.942,10.562,-28.887,501.152,167.008,-75.056,430.960,269.510,284.980
447,77537.392000,238.208,-14.585,-35.860,500.137,161.259,-71.263,10.960,181.510,280.980
448,77537.432000,257.977,-12.574,-42.833,503.036,159.497,-64.432,-85.040,236.510,229.980
449,77537.471000,250.069,-27.662,-40.840,509.779,155.766,-60.577,93.960,247.510,121.980
450,77537.511000,231.290,-21.627,-39.844,507.776,148.045,-57.811,307.960,301.510,79.980
451,77537.551000,277.745,-3.521,-19.922,506.801,146.201,-52.951,224.960,298.510,108.980
452,77537.591000,249.081,-6.538,-26.895,509.744,148.387,-43.089,-64.040,229.510,102.980
453,77537.611000,253.035,-23.639,-22.911,508.788,148.485,-38.186,-192.040,238.510,32.980
454,77537.676000,251.058,-25.650,-28.887,511.737,151.599,-30.265,-213.040,299.510,-66.020
455,77537.693000,249.081,-32.692,-0.996,508.848,151.700,-24.385,166.960,359.510,-130.020
456,77537.742000,246.116,-20.621,9.961,508.892,154.764,-17.452,29.960,261.510,-188.020
457,77537.774000,259.954,1.509,-5.977,507.027,160.699,-11.441,-177.040,169.510,-140.020
458,77537.813000,250.069,-5.532,6.973,504.127,159.808,-6.563,-166.040,83.510,-86.020
459,77537.853000,258.965,-13.580,0.996,505.113,162.644,-10.421,-170.040,-44.490,-97.020
460,77537.898000,282.687,14.585,13.946,509.021,166.565,-10.326,-252.040,-112.490,-116.020
461,77537.932000,307.398,24.644,21.914,505.111,162.622,-11.402,-365.040,-254.490,-10.020
462,77537.953000,340.015,77.957,21.914,502.223,164.492,-13.328,-703.040,-340.490,85.980
463,77537.993000,269.838,-37.721,0.000,499.335,166.363,-15.254,-309.040,-228.490,124.980
464,77538.33000,208.556,-86.004,-12.949,498.285,157.637,-14.469,20.960,-168.490,197.980
465,77538.77000,193.730,-70.916,-34.864,498.160,144.994,-15.731,-557.040,-102.490,176.980
466,77538.112000,158.147,-23.639,-46.817,502.091,150.900,-13.630,-39.040,5.510,90.980
467,77538.152000,171.985,-4.527,-20.918,502.076,148.117,-7.808,209.960,154.510,23.980
468,77538.196000,175.938,-156.417,-22.911,503.079,151.104,-4.797,-197.040,125.510,-24.020
469,77538.236000,322.224,-25.650,-53.790,508.919,155.022,-5.679,-67.040,-125.490,-167.020
470,77538.256000,301.467,-7.544,3.984,510.849,154.998,-7.637,-61.040,35.510,-31.020
471,77538.294000,333.097,15.591,-10.957,510.811,150.230,-3.820,498.960,290.510,-130.020
472,77538.343000,289.606,14.585,-8.965,510.893,158.062,-0.704,90.960,260.510,-327.020
473,77538.376000,254.023,-19.615,-5.977,507.122,166.891,5.368,77.960,253.510,-315.020
474,77538.416000,256.000,8.550,10.957,505.262,173.755,9.439,35.960,196.510,-339.020
475,77538.454000,260.942,6.538,-1.992,501.526,187.331,10.713,-96.040,100.510,-362.020
476,77538.493000,251.058,15.591,-5.977,497.682,188.415,17.594,-23.040,69.510,-365.020
477,77538.533000,254.023,15.591,0.996,492.946,199.026,16.839,-144.040,57.510,-353.020
478,77538.574000,253.035,10.562,0.000,491.119,209.729,19.034,-224.040,4.510,-361.020
479,77538.594000,245.127,14.585,14.942,489.262,217.499,20.183,-202.040,-100.490,-364.020
480,77538.634000,251.058,27.662,9.961,483.505,223.181,16.374,-187.040,-232.490,-375.020
481,77538.674000,256.000,44.762,17.930,482.626,233.700,9.741,-403.040,-500.490,-382.020
482,77538.716000,256.000,44.762,29.883,477.780,235.336,-2.000,-449.040,-768.490,-307.020
483,77538.756000,260.942,52.809,36.856,481.648,239.754,-23.469,-443.040,-1327.490,-41.020
484,77538.796000,354.842,62.868,56.778,481.549,234.403,-46.143,-235.040,-1387.490,317.980
485,77538.836000,370.656,90.028,15.938,474.727,232.978,-63.841,-1064.040,-1348.490,240.980
486,77538.876000,266.873,-131.269,-61.759,475.552,220.172,-72.949,-428.040,-894.490,574.980
487,77538.896000,165.066,-57.839,-91.642,475.315,198.533,-86.179,-305.040,-616.490,527.980
488,77538.944000,9.884,-16.597,-3.984,472.463,201.633,-76.309,-763.040,-62.490,30.980
489,77538.986000,6.919,51.804,57.774,482.183,198.642,-40.071,289.960,1383.510,-352.020
490,77539.14000,46.456,-29.674,-455.222,478.570,215.152,6.379,-1505.040,1354.510,-671.020
491,77539.54000,512.988,165.470,-159.377,480.535,212.819,31.829,-1818.040,188.510,-18.020
492,77539.96000,299.490,238.900,8.965,482.543,216.181,51.521,-1266.040,634.510,443.980
493,77539.132000,380.541,-318.365,-346.646,490.878,174.843,65.331,-4203.040,-1211.490,1410.980
494,77539.172000,413.158,-187.599,-238.070,504.728,115.805,21.881,-2905.040,-2852.490,2397.980
495,77539.192000,155.181,-74.939,-163.362,504.937,52.191,-47.196,-934.040,-2959.490,2475.980
496,77539.233000,43.490,8.550,-106.584,491.797,7.926,-112.930,-788.040,-2813.490,2089.980
497,77539.276000,-3.954,23.639,-86.661,466.176,-28.499,-169.690,-627.040,-2493.490,1595.980
498,77539.316000,-2.965,-9.556,-57.774,451.443,-45.728,-196.581,-486.040,-1934.490,1093.980
499,77539.368000,62.270,-36.715,-50.802,435.814,-55.242,-225.265,-168.040,-909.490,580.980
500,77539.396000,135.413,-73.933,-31.875,431.973,-51.483,-229.112,-56.040,-18.490,225.980
501,77539.436000,181.869,-114.169,-100.607,446.613,-43.941,-201.455,-273.040,1473.510,-380.020
502,77539.473000,512.988,-123.222,-129.494,464.223,-32.208,-160.951,867.960,1806.510,-816.020
503,77539.514000,384.494,84.998,-48.809,479.034,-10.707,-116.312,890.960,1639.510,-834.020
504,77539.534000,390.425,122.216,-76.700,488.959,7.639,-80.580,126.960,1455.510,-531.020
505,77539.574000,342.981,23.639,-28.887,491.029,17.755,-62.700,-37.040,1188.510,-477.020
506,77539.614000,270.826,-38.727,2.988,495.979,25.051,-41.933,-583.040,757.510,-310.020
507,77539.656000,277.745,52.809,-43.829,497.035,31.187,-28.066,-220.040,403.510,-179.020
508,77539.706000,267.861,-1.509,-3.984,494.053,24.234,-34.110,291.960,-228.490,110.980
509,77539.733000,296.525,5.532,-16.934,496.919,23.917,-49.802,309.960,-726.490,367.980
510,77539.773000,344.958,33.697,-41.837,491.809,1.001,-74.838,412.960,-1183.490,592.980
511,77539.813000,375.598,74.939,-29.883,483.902,-11.243,-98.662,-57.040,-1438.490,739.980
512,77539.833000,498.162,89.022,7.969,474.016,-23.937,-142.114,-963.040,-2004.490,890.980
513,77539.874000,425.019,-24.644,-73.712,453.318,-53.325,-189.882,250.960,-1941.490,693.980
514,77539.916000,248.093,-89.022,-172.327,431.823,-68.764,-220.670,1529.960,-1658.490,-4.020
515,77539.956000,115.645,-5.532,-74.708,427.785,-83.624,-232.776,2055.960,-787.490,-653.020
516,77539.996000,14.826,27.662,-60.763,430.843,-68.018,-230.462,1360.960,-57.490,-1458.020
517,77540.36000,-4.942,-33.697,-47.813,444.727,-36.452,-213.061,672.960,841.510,-2266.020
518,77540.76000,2.965,-30.680,-37.852,462.497,-2.928,-196.589,510.960,1456.510,-2652.020
519,77540.116000,46.456,-42.750,-77.696,477.703,61.096,-159.832,561.960,2174.510,-2969.020
520,77540.136000,174.950,-140.322,-144.436,494.004,136.047,-112.043,737.960,2399.510,-2905.020
521,77540.176000,312.340,-212.747,-261.977,491.701,189.308,-71.639,2216.960,2365.510,-2282.020
522,77540.217000,512.988,-490.373,-233.089,485.009,201.453,-90.016,2629.960,-50.490,-178.020
523,77540.253000,309.375,3.521,-93.634,493.607,189.046,-84.389,87.960,800.510,786.980
524,77540.307000,252.046,16.597,-107.580,500.315,178.821,-66.950,-1025.040,336.510,308.980
525,77540.334000,279.722,-37.721,-79.689,501.326,181.010,-56.112,309.960,747.510,399.980
526,77540.374000,271.815,36.715,-10.957,505.129,171.597,-44.545,194.960,685.510,403.980
527,77540.419000,250.069,-35.709,-14.942,512.803,161.360,-28.085,-85.040,485.510,331.980
528,77540.454000,245.127,-0.503,-32.872,512.722,151.781,-22.414,258.960,344.510,241.980
529,77540.474000,235.243,-16.597,-38.848,512.747,152.903,-15.524,197.960,272.510,203.980
530,77540.533000,269.838,21.627,-33.868,515.524,139.404,-12.876,4.960,262.510,209.980
531,77540.558000,246.116,-39.733,-13.946,515.589,144.430,-4.919,-13.040,208.510,210.980
532,77540.596000,234.255,-43.756,-10.957,516.503,138.636,-4.065,392.960,212.510,188.980
533,77540.639000,254.023,-5.532,-39.844,518.374,131.881,-3.230,266.960,230.510,166.980
534,77540.689000,261.931,-8.550,-19.922,516.474,133.954,3.676,1.960,239.510,131.980
535,77540.714000,257.977,-11.568,-12.949,517.351,123.414,9.328,-226.040,168.510,134.980
536,77540.759000,243.151,-39.733,-28.887,519.316,125.482,14.281,-67.040,202.510,103.980
537,77540.774000,251.058,-35.709,10.957,515.414,120.741,21.033,97.960,231.510,-20.020
538,77540.814000,253.035,-15.591,-1.992,517.375,122.767,24.024,-87.040,161.510,-19.020
539,77540.861000,260.942,-25.650,6.973,515.447,122.812,26.963,-21.040,85.510,23.980
540,77540.897000,250.069,-31.686,-6.973,513.519,122.858,29.902,-26.040,46.510,-23.020
541,77540.934000,261.931,-27.662,-2.988,517.469,131.591,28.142,31.960,70.510,-113.020
542,77540.988000,292.571,-6.538,34.864,515.527,130.622,29.097,110.960,-16.490,-128.020
543,77541.16000,375.598,69.910,36.856,511.695,135.353,25.272,-345.040,-272.490,-97.020
544,77541.56000,262.919,-12.574,6.973,510.688,131.438,24.202,-390.040,-115.490,-70.020
545,77541.96000,204.602,-110.145,-37.852,510.724,137.069,15.501,168.960,-397.490,60.980
546,77541.116000,193.730,-39.733,-21.914,508.752,134.052,11.507,159.960,-245.490,49.980
547,77541.156000,158.147,-48.786,-10.957,505.758,125.221,8.363,527.960,12.510,51.980
548,77541.196000,129.483,-44.762,-15.938,501.925,128.182,12.343,806.960,326.510,-19.020
549,77541.236000,161.112,30.680,-24.903,506.863,136.233,23.320,-6.040,356.510,-175.020
550,77541.278000,203.614,-169.493,-184.280,513.621,134.401,25.255,-221.040,96.510,204.980
551,77541.318000,308.386,101.092,4.981,512.578,126.624,25.080,225.960,50.510,26.980
552,77541.358000,368.680,47.780,7.969,514.579,133.439,25.235,387.960,-20.490,-230.020
553,77541.406000,305.421,8.550,-16.934,513.670,139.277,26.344,299.960,34.510,-300.020
554,77541.418000,205.591,-35.709,-14.942,513.804,152.890,27.627,86.960,256.510,-339.020
555,77541.458000,295.537,16.597,12.949,509.993,157.815,32.631,107.960,271.510,-299.020
556,77541.498000,246.116,-1.509,11.953,511.073,167.705,40.698,12.960,118.510,-269.020
557,77541.537000,258.965,-6.538,4.981,503.357,171.384,34.880,-39.040,0.510,-278.020
558,77541.577000,246.116,2.515,-3.984,504.320,170.466,36.823,-96.040,-20.490,-302.020
559,77541.617000,253.035,-2.515,-1.992,498.616,180.183,39.968,-236.040,-27.490,-342.020
560,77541.657000,250.069,0.503,-0.996,499.716,193.784,40.273,-125.040,-20.490,-377.020
561,77541.697000,248.093,3.521,1.992,493.045,204.376,39.513,-119.040,-57.490,-439.020
562,77541.738000,258.965,30.680,11.953,491.167,211.067,35.735,-271.040,-176.490,-485.020
563,77541.758000,248.093,35.709,20.918,485.476,223.545,32.077,-331.040,-440.490,-415.020
564,77541.798000,253.035,50.798,46.817,483.504,221.412,24.180,-325.040,-774.490,-266.020
565,77541.838000,320.247,44.762,71.720,485.355,217.979,-0.408,-169.040,-1183.490,153.980
566,77541.882000,384.494,113.163,39.844,487.250,220.264,-29.773,48.960,-1424.490,285.980
567,77541.917000,369.668,82.986,27.891,482.244,208.027,-54.572,-680.040,-1476.490,192.980
568,77541.956000,264.896,-141.328,-65.743,477.296,200.752,-74.357,552.960,-1028.490,274.980
569,77541.996000,134.425,-80.974,-88.654,472.340,192.528,-93.183,535.960,-807.490,147.980
570,77542.38000,-70.178,14.585,22.911,468.576,201.423,-84.167,-11.040,353.510,-605.020
571,77542.58000,56.340,15.591,33.868,467.796,214.660,-55.436,-6.040,1825.510,-1043.020
572,77542.98000,488.278,51.804,-192.249,465.341,246.217,12.925,-736.040,2629.510,-1102.020
573,77542.137000,512.988,35.709,-333.697,453.059,263.008,76.034,-1439.040,1787.510,-727.020
574,77542.177000,476.417,208.723,-160.374,454.885,247.019,98.238,-3227.040,-347.490,67.980
575,77542.216000,501.127,-292.212,-248.031,486.255,194.450,76.544,-3727.040,-2765.490,2081.980
576,77542.256000,492.232,12.574,-287.875,502.838,125.905,-3.396,-1669.040,-3748.490,2055.980
577,77542.296000,198.672,-71.921,-107.580,498.600,100.323,-61.832,-361.040,-3534.490,2305.980
578,77542.336000,86.981,48.786,-41.837,484.364,44.248,-134.695,126.960,-2938.490,2164.980
579,77542.376000,-35.583,16.597,-27.891,459.762,12.729,-189.382,-712.040,-2216.490,1691.980
580,77542.396000,-26.687,-15.591,-28.887,444.950,-11.425,-222.312,-592.040,-1405.490,1283.980
581,77542.436000,50.409,-87.010,-59.767,434.168,-23.438,-234.369,-31.040,-351.490,928.980
582,77542.477000,167.042,-55.827,5.977,439.924,-30.890,-222.754,143.960,633.510,349.980
583,77542.518000,246.116,-109.139,-46.817,455.521,-26.963,-183.408,1038.960,1883.510,-254.020
584,77542.558000,512.988,-36.715,-137.463,462.496,-10.867,-160.481,-1011.040,1401.510,-541.020
585,77542.598000,471.475,113.163,-45.821,477.289,10.460,-123.692,769.960,1651.510,-761.020
586,77542.638000,333.097,77.957,-43.829,485.171,18.065,-90.164,640.960,1567.510,-627.020
587,77542.678000,302.456,0.503,-17.930,486.346,32.400,-56.500,-426.040,1188.510,-504.020
588,77542.698000,260.942,-49.792,-11.953,489.383,42.525,-38.617,-459.040,692.510,-269.020
589,77542.738000,267.861,16.597,-32.872,492.306,42.748,-29.780,96.960,318.510,-115.020
590,77542.778000,261.931,1.509,-18.926,484.654,51.431,-28.623,291.960,-268.490,126.980
591,77542.821000,302.456,4.527,-28.887,489.358,41.403,-45.507,411.960,-642.490,322.980
592,77542.856000,337.050,25.650,-21.914,485.338,30.233,-66.357,195.960,-1091.490,555.980
593,77542.895000,426.996,98.075,10.957,480.193,5.224,-98.304,-124.040,-1395.490,792.980
594,77542.936000,468.510,139.316,25.899,468.348,-10.358,-139.863,-1182.040,-1899.490,1003.980
595,77542.977000,391.413,-7.544,-61.759,458.357,-33.731,-183.552,-459.040,-1762.490,796.980
596,77543.17000,245.127,-64.880,-199.222,439.827,-41.504,-220.048,-215.040,-1613.490,330.980
597,77543.38000,86.981,-73.933,-129.494,435.876,-47.605,-230.979,1280.960,-748.490,-193.020
598,77543.79000,24.710,65.886,-44.825,437.737,-55.331,-230.166,1246.960,117.510,-902.020
599,77543.116000,-15.815,-27.662,-67.735,449.640,-28.638,-212.877,738.960,985.510,-1700.020
600,77543.157000,11.861,-4.527,-33.868,468.463,11.001,-183.518,630.960,1533.510,-2146.020
601,77543.197000,51.398,-10.562,-50.802,486.497,65.539,-138.140,466.960,2208.510,-2596.020
602,77543.238000,171.985,-98.075,-117.541,493.957,126.791,-91.654,864.960,2438.510,-2736.020
603,77543.279000,331.120,-212.747,-217.152,490.744,187.637,-58.929,2516.960,2069.510,-2465.020
604,77543.318000,468.510,-515.521,-492.078,485.089,204.862,-67.385,2988.960,349.510,-1071.020
605,77543.338000,124.541,91.033,113.556,491.787,199.815,-79.251,2597.960,758.510,145.980
606,77543.378000,271.815,86.004,-138.459,499.453,188.628,-61.831,-1385.040,341.510,232.980
607,77543.448000,292.571,62.868,-64.747,506.156,178.338,-47.335,88.960,656.510,247.980
608,77543.517000,268.849,71.921,-41.837,505.142,170.842,-34.755,181.960,534.510,464.980
609,77543.533000,230.301,-66.892,3.984,509.842,155.485,-29.202,-178.040,289.510,474.980
610,77543.576000,250.069,-18.609,-42.833,512.739,154.586,-27.255,282.960,127.510,345.980
611,77543.592000,248.093,-15.591,-37.852,514.617,148.779,-27.380,218.960,127.510,260.980
612,77543.617000,260.942,-9.556,-45.821,519.388,141.146,-23.617,158.960,199.510,206.980
613,77543.638000,258.965,-25.650,-30.879,520.239,127.714,-17.048,33.960,244.510,138.980
614,77543.678000,231.290,-29.674,-33.868,512.619,138.469,-9.961,307.960,278.510,30.980
615,77543.719000,238.208,-16.597,-36.856,519.417,140.542,-6.959,301.960,295.510,11.980
616,77543.759000,261.931,6.538,-29.883,521.288,132.901,-2.221,289.960,332.510,46.980
617,77543.799000,256.000,-3.521,-4.981,519.395,136.809,-0.177,161.960,231.510,85.980
618,77543.839000,252.046,-24.644,-3.984,519.343,130.142,5.559,78.960,128.510,117.980
619,77543.879000,249.081,-42.750,-17.930,517.387,128.160,4.530,404.960,173.510,26.980
620,77543.919000,262.919,-10.562,-8.965,522.317,136.147,12.563,367.960,244.510,9.980
621,77543.958000,250.069,-19.615,7.969,519.408,135.169,13.516,152.960,177.510,-15.020
622,77543.979000,255.012,-6.538,0.000,517.409,127.491,18.245,-2.040,84.510,-16.020
623,77544.19000,257.977,-24.644,-8.965,520.372,134.273,16.440,40.960,69.510,-21.020
624,77544.71000,261.931,-7.544,2.988,516.491,132.358,19.331,17.960,34.510,-44.020
625,77544.101000,267.861,-12.574,20.918,517.555,142.098,20.530,-26.040,-68.490,-37.020
626,77544.141000,321.236,32.692,14.942,516.465,130.351,16.345,-244.040,-274.490,14.980
627,77544.181000,330.131,77.957,41.837,515.449,127.235,7.448,-886.040,-499.490,114.980
628,77544.221000,240.185,-83.992,-49.805,511.552,126.054,-0.432,-165.040,-474.490,150.980
629,77544.260000,194.718,-90.028,-59.767,509.594,125.820,-10.248,217.960,-435.490,108.980
630,77544.281000,142.332,-61.862,-26.895,507.693,129.641,-12.129,-43.040,-162.490,-18.020
631,77544.319000,118.610,-33.697,-7.969,510.576,127.728,-12.165,910.960,271.510,-73.020
632,77544.361000,185.822,-167.481,-24.903,515.422,126.976,-4.326,268.960,448.510,-48.020
633,77544.401000,266.873,88.016,-5.977,514.405,122.091,-5.417,64.960,-195.490,28.980
634,77544.441000,394.378,-7.544,-3.984,519.299,127.963,-5.277,-722.040,-150.490,73.980
635,77544.481000,284.664,-9.556,-47.813,521.246,129.859,-8.173,514.960,-15.490,-98.020
636,77544.521000,254.023,-27.662,-33.868,520.330,134.747,-6.105,328.960,177.510,-164.020
637,77544.561000,269.838,-13.580,-5.977,521.352,139.676,-3.051,-31.040,195.510,-262.020
638,77544.601000,252.046,-18.609,-4.981,516.517,139.650,-2.081,254.960,127.510,-239.020
639,77544.621000,251.058,-7.544,-5.977,513.708,149.331,-1.872,77.960,13.510,-278.020
640,77544.661000,260.942,4.527,-14.942,515.721,157.138,-0.714,-54.040,-45.490,-273.020
641,77544.702000,250.069,-10.562,-11.953,510.962,165.764,-3.475,-24.040,-101.490,-256.020
642,77544.738000,247.104,-11.568,-17.930,508.076,167.656,-4.419,-109.040,-76.490,-302.020
643,77544.778000,254.023,1.509,-14.942,505.198,170.497,-6.324,-247.040,-85.490,-368.020
644,77544.818000,247.104,4.527,-8.965,504.308,179.161,-9.075,-292.040,-182.490,-383.020
645,77544.858000,256.000,31.686,12.949,500.580,194.570,-12.664,-406.040,-388.490,-364.020
646,77544.898000,281.699,26.656,3.984,500.626,201.172,-21.343,-279.040,-663.490,-226.020
647,77544.918000,283.676,45.768,8.965,495.725,197.868,-37.117,-420.040,-875.490,-122.020
648,77544.958000,381.529,103.104,13.946,491.808,197.377,-57.730,-813.040,-1139.490,6.980
649,77544.998000,331.120,26.656,22.911,485.984,198.895,-74.380,-885.040,-1242.490,103.980
650,77545.38000,257.977,-96.063,-33.868,485.909,192.013,-78.456,34.960,-825.490,415.980
651,77545.83000,210.533,-80.974,-86.661,480.972,184.846,-93.335,-72.040,-740.490,417.980
652,77545.118000,-51.398,44.762,18.926,476.119,181.131,-83.621,-706.040,447.510,-448.020
653,77545.158000,54.363,4.527,22.911,481.227,199.625,-39.070,-677.040,1908.510,-933.020
654,77545.202000,460.602,112.157,-22.911,472.070,235.301,43.097,-1006.040,2880.510,-1216.020
655,77545.222000,311.351,60.857,-492.078,455.833,239.800,122.596,-2900.040,1999.510,-1102.020
656,77545.262000,270.826,102.098,-98.615,453.804,230.073,122.376,-1408.040,-881.490,13.980
657,77545.302000,412.170,-86.004,-244.047,477.552,190.007,98.982,-3559.040,-2635.490,2123.980
658,77545.354000,423.042,16.597,-278.910,498.157,133.516,35.990,-2294.040,-3703.490,1457.980
659,77545.378000,247.104,-148.369,-135.471,497.532,87.908,-52.303,-235.040,-3595.490,2069.980
660,77545.418000,96.865,20.621,-58.770,479.516,41.460,-126.921,361.960,-3046.490,1998.980
661,77545.458000,-39.537,-12.574,-44.825,458.796,10.972,-180.598,-719.040,-2405.490,1785.980
662,77545.502000,-7.907,-35.709,-69.728,441.945,-22.996,-217.671,-455.040,-1685.490,1548.980
663,77545.542000,34.595,-36.715,-72.716,432.159,-31.202,-233.565,-449.040,-1034.490,1187.980
664,77545.562000,65.236,-59.851,-77.696,425.249,-43.156,-244.632,-543.040,-92.490,806.980
665,77545.602000,144.309,-65.886,-44.825,432.048,-44.600,-225.036,-194.040,864.510,514.980
666,77545.642000,259.954,-208.723,-257.992,449.609,-36.858,-189.524,-101.040,1836.510,-259.020
667,77545.682000,381.529,4.527,-53.790,473.992,-25.921,-144.119,1373.960,1898.510,-1008.020
668,77545.722000,425.019,98.075,-15.938,483.806,-20.089,-103.762,1070.960,1703.510,-600.020
669,77545.762000,316.293,124.228,-85.665,492.671,-7.922,-83.860,72.960,1455.510,-518.020
670,77545.802000,303.444,29.674,-49.805,496.728,4.478,-51.214,-446.040,1064.510,-408.020
671,77545.842000,284.664,-67.898,3.984,499.803,18.487,-33.245,-243.040,711.510,-302.020
672,77545.862000,273.792,13.580,-21.914,501.834,26.467,-24.238,15.960,124.510,-110.020
673,77545.901000,270.826,10.562,5.977,503.640,15.569,-35.263,335.960,-378.490,163.980
674,77545.941000,334.085,32.692,3.984,500.636,8.399,-51.119,407.960,-919.490,480.980
675,77545.981000,429.961,92.039,2.988,490.713,-9.926,-85.870,4.960,-1472.490,846.980
676,77546.22000,512.988,132.275,21.914,480.825,-26.158,-113.710,-1009.040,-1831.490,1022.980
677,77546.63000,459.614,-50.798,-12.949,462.129,-46.962,-169.128,-806.040,-1969.490,758.980
678,77546.99000,290.595,-57.839,-185.276,441.534,-67.440,-208.852,58.960,-1701.490,378.980
679,77546.139000,90.934,-107.128,-162.366,428.797,-80.551,-225.841,1213.960,-714.490,-254.020
680,77546.179000,29.653,79.969,-68.732,434.695,-71.670,-221.709,1391.960,70.510,-1099.020
681,77546.199000,-26.687,-24.644,-76.700,450.465,-44.961,-205.392,1114.960,880.510,-1928.020
682,77546.239000,-19.768,-52.809,-65.743,468.158,-21.857,-177.384,1056.960,1428.510,-2319.020
683,77546.279000,51.398,-48.786,-112.560,481.220,22.537,-149.893,1299.960,1861.510,-2608.020
684,77546.319000,109.714,-90.028,-149.416,492.436,73.924,-112.444,1595.960,1904.510,-2826.020
685,77546.359000,228.324,-180.558,-177.307,495.084,141.536,-83.480,2534.960,1822.510,-2727.020
686,77546.399000,362.749,-317.360,-492.078,485.861,189.791,-91.254,2937.960,98.510,-2060.020
687,77546.439000,213.498,-223.811,185.276,487.672,183.337,-120.813,4331.960,467.510,-636.020
688,77546.479000,328.154,113.163,-17.930,492.453,174.927,-108.241,-318.040,622.510,388.980
689,77546.499000,278.734,82.986,-133.479,499.240,172.490,-89.648,-1583.040,552.510,235.980
690,77546.543000,299.490,56.833,-22.911,503.197,177.771,-71.871,465.960,869.510,208.980
691,77546.582000,278.734,21.627,10.957,505.060,167.412,-58.368,42.960,617.510,240.980
692,77546.632000,234.255,-9.556,-33.868,507.968,165.736,-47.611,247.960,396.510,214.980
693,77546.663000,249.081,1.509,-34.864,508.869,158.065,-43.857,219.960,282.510,250.980
694,77546.699000,263.907,-20.621,-38.848,513.665,152.438,-37.107,92.960,285.510,244.980
695,77546.739000,239.197,-35.709,-28.887,517.544,153.446,-37.077,145.960,283.510,166.980
696,77546.779000,275.768,-13.580,-3.984,514.641,151.649,-29.277,276.960,253.510,105.980
697,77546.799000,229.313,-11.568,-34.864,513.669,150.712,-27.339,319.960,211.510,31.980
698,77546.839000,253.035,-6.538,-30.879,517.507,146.046,-20.570,358.960,406.510,21.980
699,77546.879000,259.954,5.532,-8.965,514.559,139.416,-11.897,105.960,290.510,128.980
700,77546.919000,249.081,-8.550,-21.914,518.508,146.379,-5.850,149.960,306.510,132.980
701,77546.959000,250.069,-21.627,-20.918,520.393,139.753,0.871,-76.040,226.510,101.980
702,77546.999000,256.988,-40.739,-2.988,520.405,140.745,1.874,40.960,263.510,16.980
703,77547.41000,256.988,-17.603,-9.961,520.423,140.918,9.723,218.960,307.510,-58.020
704,77547.82000,256.000,-11.568,2.988,517.512,138.171,18.482,82.960,337.510,-147.020
705,77547.122000,257.977,-12.574,0.000,513.769,149.913,24.619,-85.040,296.510,-193.020
706,77547.142000,257.977,-7.544,0.000,516.732,154.925,30.620,-181.040,247.510,-224.020
707,77547.181000,254.023,5.532,15.938,512.900,157.886,34.600,-159.040,209.510,-205.020
708,77547.221000,262.919,22.633,44.825,507.081,156.816,32.603,-160.040,-100.490,-74.020
709,77547.261000,291.583,49.792,64.747,509.941,152.917,30.561,-423.040,-520.490,105.980
710,77547.304000,354.842,75.945,44.825,509.888,149.767,19.704,-503.040,-631.490,227.980
711,77547.342000,247.104,-101.092,-62.755,510.758,142.679,5.819,-277.040,-750.490,26.980
712,77547.383000,234.255,-111.151,-55.782,501.133,151.862,-13.611,942.960,-653.490,-119.020
713,77547.423000,138.378,-112.157,-36.856,504.886,142.860,-27.532,1278.960,-104.490,126.980
714,77547.444000,103.784,60.857,15.938,506.847,145.770,-28.444,1007.960,210.510,-13.020
715,77547.481000,169.019,-249.965,-186.272,507.852,147.893,-20.549,-245.040,232.510,32.980
716,77547.521000,337.050,67.898,35.860,512.696,148.890,-21.497,-91.040,83.510,-67.020
717,77547.561000,405.251,128.251,-28.887,510.789,150.899,-17.534,191.960,155.510,-237.020
718,77547.601000,214.486,-40.739,-16.934,514.690,154.755,-20.382,201.960,42.510,-111.020
719,77547.642000,218.440,-25.650,0.000,512.740,151.953,-14.565,-72.040,257.510,-158.020
720,77547.684000,279.722,-14.585,0.996,509.997,166.661,-6.399,-258.040,167.510,-197.020
721,77547.724000,253.035,-19.615,7.969,507.163,173.450,-5.273,166.960,70.510,-303.020
722,77547.761000,248.093,26.656,-1.992,506.238,178.252,-7.130,-183.040,-35.490,-267.020
723,77547.781000,251.058,-0.503,-9.961,502.401,181.170,-5.112,-79.040,-68.490,-211.020
724,77547.822000,248.093,0.503,-12.949,503.449,189.874,-6.878,-358.040,-88.490,-296.020
725,77547.863000,249.081,-0.503,-9.961,500.615,196.663,-5.753,-350.040,-78.490,-373.020
726,77547.916000,248.093,16.597,3.984,499.735,205.413,-4.580,-258.040,-146.490,-425.020
727,77547.944000,258.965,22.633,14.942,490.111,211.964,-11.319,-234.040,-342.490,-418.020
728,77547.984000,261.931,48.786,21.914,490.201,222.514,-16.969,-577.040,-719.490,-326.020
729,77548.26000,263.907,50.798,39.844,489.247,227.035,-31.580,-581.040,-1061.490,-126.020
730,77548.61000,369.668,118.193,59.767,482.357,220.562,-58.216,-628.040,-1422.490,279.980
731,77548.80000,364.726,40.739,24.903,480.338,216.206,-78.911,-1059.040,-1465.490,348.980
732,77548.121000,267.861,-111.151,-68.732,477.327,206.340,-85.020,-802.040,-897.490,473.980
733,77548.161000,216.463,-145.352,-88.654,475.193,186.796,-90.362,-495.040,-705.490,518.980
734,77548.201000,-77.097,35.709,35.860,476.243,191.120,-70.651,-226.040,426.510,-84.020
735,77548.244000,8.896,17.603,11.953,483.169,199.708,-36.122,-392.040,2397.510,-896.020
736,77548.284000,510.023,118.193,-17.930,473.954,228.675,49.819,-543.040,3399.510,-1133.020
737,77548.324000,512.988,268.071,-492.078,460.680,244.335,106.036,-2826.040,-736.490,-1321.020
738,77548.364000,144.309,96.063,-364.576,463.427,229.671,99.832,-1496.040,-762.490,499.980
739,77548.384000,512.988,-179.552,-222.132,487.973,173.024,72.149,-3698.040,-2890.490,1376.980
740,77548.424000,465.544,-186.593,-231.097,494.143,127.697,-6.316,-1705.040,-3728.490,1901.980
741,77548.464000,216.463,-39.733,-150.412,488.833,90.541,-61.089,1445.960,-3148.490,1966.980
742,77548.504000,30.641,1.509,-51.798,480.576,52.042,-131.588,-600.040,-2904.490,1944.980
743,77548.544000,-62.270,-18.609,-42.833,459.924,28.370,-184.132,-950.040,-2470.490,1592.980
744,77548.586000,-20.757,-46.774,-50.802,438.287,1.001,-227.934,-397.040,-1610.490,1114.980
745,77548.626000,44.479,-77.957,-71.720,425.542,-12.175,-247.866,23.960,-904.490,829.980
746,77548.666000,84.015,-89.022,-79.689,427.446,-15.974,-245.005,178.960,159.510,475.980
747,77548.706000,158.147,-49.792,-37.852,436.222,-12.589,-227.259,-214.040,1055.510,138.980
748,77548.726000,268.849,-250.971,-289.868,450.893,-2.113,-198.557,-253.040,1611.510,-331.020
749,77548.766000,352.865,26.656,-67.735,466.557,9.494,-162.962,853.960,1873.510,-1225.020
750,77548.806000,461.591,163.458,-31.875,474.528,24.995,-123.375,328.960,1709.510,-767.020
751,77548.846000,301.467,114.169,-70.724,483.502,46.137,-92.486,245.960,1400.510,-499.020
752,77548.886000,279.722,-52.809,30.879,488.396,46.723,-67.946,-257.040,972.510,-316.020
753,77548.926000,274.780,-32.692,9.961,483.656,54.658,-57.973,-215.040,296.510,-28.020
754,77548.973000,284.664,-10.562,-41.837,485.615,57.547,-59.867,384.960,-0.490,31.980
755,77549.6000,273.792,27.662,-61.759,489.398,49.710,-64.936,361.960,-340.490,135.980
756,77549.26000,302.456,10.562,-45.821,483.536,46.460,-77.769,304.960,-644.490,264.980
757,77549.66000,337.050,50.798,-8.965,479.440,28.408,-102.695,-49.040,-1219.490,500.980
758,77549.106000,485.313,156.417,45.821,468.574,12.943,-139.345,-382.040,-1665.490,764.980
759,77549.146000,511.012,-43.756,-42.833,450.870,-7.615,-183.969,-28.040,-2093.490,892.980
760,77549.194000,402.286,-75.945,-141.447,433.008,-45.540,-224.075,1045.960,-1659.490,660.980
761,77549.224000,217.452,-62.868,-158.381,423.204,-54.804,-243.914,1264.960,-1511.490,124.980
762,77549.264000,66.224,50.798,-94.630,418.316,-57.979,-253.802,1367.960,-475.490,-895.020
763,77549.304000,-15.815,13.580,-56.778,422.381,-37.575,-254.321,343.960,80.510,-1664.020
764,77549.324000,-19.768,-25.650,-46.817,437.292,-0.152,-235.807,345.960,1115.510,-2337.020
765,77549.364000,19.768,-9.556,-43.829,461.084,52.242,-202.232,281.960,1753.510,-2708.020
766,77549.404000,115.645,-97.069,-151.409,472.454,118.321,-158.573,882.960,2330.510,-2846.020
767,77549.444000,199.660,-165.470,-178.303,476.673,148.995,-133.366,1913.960,2371.510,-2663.020
768,77549.484000,334.085,-219.788,-169.339,477.193,197.128,-106.800,2882.960,1435.510,-2075.020
769,77549.524000,512.988,-441.085,-81.681,471.443,208.161,-132.064,1525.960,-265.490,-10.020
770,77549.566000,468.510,-100.086,-9.961,483.794,184.983,-132.553,1217.960,887.510,685.980
771,77549.606000,243.151,113.163,-130.490,488.617,179.614,-114.029,-923.040,416.510,357.980
772,77549.646000,261.931,1.509,-74.708,500.265,180.979,-101.226,205.960,664.510,285.980
773,77549.673000,217.452,-20.621,-37.852,501.142,169.554,-91.671,492.960,673.510,272.980
774,77549.706000,243.151,-36.715,-24.903,503.966,160.024,-85.012,123.960,545.510,194.980
775,77549.746000,281.699,25.650,-35.860,504.967,161.242,-74.195,296.960,468.510,110.980
776,77549.786000,270.826,0.503,-32.872,507.812,153.676,-66.512,306.960,358.510,161.980
777,77549.826000,237.220,-4.527,-37.852,507.818,152.856,-59.666,-136.040,306.510,204.980
778,77549.866000,253.035,-32.692,-27.891,511.645,146.313,-49.996,-4.040,344.510,121.980
779,77549.914000,247.104,-28.668,-21.914,510.653,142.550,-44.198,195.960,353.510,24.980
780,77549.947000,264.896,12.574,-15.938,513.623,148.511,-39.156,383.960,356.510,17.980
781,77549.967000,260.942,5.532,-22.911,515.590,150.601,-33.221,129.960,293.510,63.980
782,77550.7000,247.104,-19.615,-1.992,510.679,141.924,-28.521,-80.040,248.510,35.980
783,77550.47000,256.000,-14.585,-23.907,515.641,152.845,-19.442,-196.040,242.510,-7.020
784,77550.87000,244.139,-26.656,-8.965,513.644,145.188,-13.732,139.960,327.510,-123.020
785,77550.127000,256.988,-3.521,-1.992,508.888,152.088,-6.725,-142.040,306.510,-198.020
786,77550.163000,257.977,-10.562,13.946,506.075,159.956,-0.672,-162.040,233.510,-188.020
787,77550.203000,255.012,-6.538,15.938,507.007,156.104,0.225,-187.040,123.510,-161.020
788,77550.243000,261.931,-14.585,7.969,508.127,169.899,9.360,-19.040,49.510,-181.020
789,77550.283000,267.861,4.527,7.969,508.144,172.704,4.519,-62.040,-6.490,-210.020
790,77550.303000,285.652,27.662,48.809,505.196,167.843,5.385,-214.040,-140.490,-125.020
791,77550.343000,345.946,81.980,48.809,501.336,168.776,5.398,-781.040,-347.490,-12.020
792,77550.383000,274.780,-75.945,-6.973,498.404,166.698,0.442,-381.040,-257.490,51.980
793,77550.423000,184.834,-65.886,-35.860,497.451,169.472,-5.382,-193.040,-342.490,214.980
794,77550.476000,170.996,-81.980,-29.883,501.184,154.990,-3.734,-170.040,-142.490,561.980
795,77550.504000,152.216,-32.692,3.984,504.947,143.442,-1.041,-241.040,-2.490,514.980
796,77550.545000,126.517,-8.550,-63.751,506.733,127.064,3.503,-840.040,-38.490,353.980
797,77550.585000,88.958,-24.644,-114.553,512.594,132.061,7.549,-1327.040,-201.490,-130.020
798,77550.607000,426.996,86.004,7.969,519.275,124.209,0.524,290.960,-141.490,-148.020
799,77550.647000,318.270,37.721,-33.868,520.327,132.957,0.720,748.960,10.510,-183.020
800,77550.691000,243.151,-29.674,-17.930,520.323,132.913,-1.242,166.960,68.510,-250.020
801,77550.727000,282.687,9.556,-11.953,516.509,137.816,2.781,138.960,220.510,-253.020
802,77550.767000,274.780,5.532,-2.988,516.608,147.568,4.959,63.960,88.510,-255.020
803,77550.807000,248.093,-18.609,-0.996,515.739,157.311,7.135,-7.040,-6.490,-280.020
804,77550.843000,256.000,-2.515,-5.977,513.882,165.965,4.381,-159.040,-49.490,-302.020
805,77550.883000,244.139,-2.515,-23.907,511.029,170.812,5.463,-102.040,-27.490,-316.020
806,77550.903000,246.116,-11.568,-17.930,505.326,181.414,4.706,-118.040,34.510,-407.020
807,77550.943000,252.046,16.597,-2.988,501.477,183.339,5.721,-252.040,32.510,-475.020
808,77550.983000,257.977,23.639,12.949,500.644,196.059,10.905,-382.040,-86.490,-495.020
809,77551.23000,257.977,31.686,14.942,493.950,205.551,4.237,-382.040,-367.490,-481.020
810,77551.63000,263.907,40.739,22.911,490.202,219.882,-4.279,-473.040,-625.490,-411.020
811,77551.104000,269.838,57.839,23.907,488.163,212.700,-21.114,-477.040,-961.490,-218.020
812,77551.148000,344.958,135.293,-3.984,479.486,219.066,-36.681,-609.040,-1090.490,-75.020
813,77551.184000,315.305,11.568,-3.984,482.419,223.798,-43.434,-898.040,-853.490,-36.020
814,77551.224000,185.822,-91.033,-34.864,474.732,230.389,-49.188,-1063.040,-758.490,-51.020
815,77551.244000,127.506,-129.257,-46.817,474.722,226.764,-37.501,-1830.040,-70.490,66.980
816,77551.286000,30.641,-68.904,-8.965,471.844,221.688,-2.316,-1406.040,1041.510,-258.020
817,77551.329000,160.124,-8.550,-27.891,471.153,233.134,77.370,-2342.040,2497.510,-386.020
818,77551.364000,387.459,513.509,-492.078,456.737,227.749,147.828,-2521.040,1269.510,-842.020
819,77551.404000,225.359,146.358,-62.755,454.669,212.369,155.328,-1062.040,-70.490,-92.020
820,77551.448000,483.336,-143.340,-185.276,475.515,167.874,152.423,-7069.040,-2310.490,1423.980
821,77551.488000,487.290,-205.705,-290.864,497.860,85.771,115.344,-5849.040,-3500.490,1141.980
822,77551.527000,379.552,-269.077,-184.280,505.910,36.407,28.947,136.960,-3509.490,2035.980
823,77551.547000,150.239,68.904,-116.545,496.675,-3.073,-41.576,753.960,-3099.490,1797.980
824,77551.587000,12.849,-15.591,-47.813,481.693,-36.785,-111.982,-1195.040,-2796.490,1491.980
825,77551.634000,5.931,-33.697,-46.817,462.005,-62.237,-157.699,-789.040,-2173.490,1160.980
826,77551.667000,63.259,-61.862,-42.833,452.225,-68.631,-179.436,-224.040,-1284.490,781.980
827,77551.734000,136.402,-106.122,-31.875,443.330,-85.479,-191.597,334.960,-480.490,585.980
828,77551.765000,172.973,-77.957,29.883,447.185,-89.109,-181.863,456.960,401.510,246.980
829,77551.787000,187.799,-193.635,-115.549,466.641,-84.369,-151.316,405.960,1433.510,-386.020
830,77551.827000,384.494,68.904,-40.840,487.133,-73.686,-115.732,1112.960,1567.510,-1231.020
831,77551.847000,497.174,-2.515,31.875,496.024,-62.145,-80.153,489.960,1389.510,-747.020
832,77551.887000,325.189,189.611,-84.669,503.954,-48.801,-50.420,192.960,1238.510,-408.020
833,77551.927000,328.154,-24.644,-3.984,506.901,-47.457,-34.694,57.960,927.510,-394.020
834,77551.967000,256.988,-3.521,-45.821,513.829,-35.331,-15.777,-380.040,534.510,-292.020
835,77552.6000,280.710,20.621,-58.770,513.871,-32.289,-9.826,253.960,237.510,-223.020
836,77552.47000,270.826,25.650,-43.829,510.037,-28.464,-10.730,184.960,-99.490,-114.020
837,77552.87000,255.012,24.644,-20.918,510.057,-23.869,-22.396,145.960,-554.490,84.980
838,77552.128000,316.293,31.686,5.977,509.870,-36.231,-55.032,337.960,-1283.490,473.980
839,77552.184000,463.568,140.322,40.840,499.068,-47.554,-79.823,87.960,-1805.490,668.980
840,77552.192000,512.988,16.597,12.949,482.342,-64.477,-136.131,-460.040,-2524.490,620.980
841,77552.228000,381.529,-94.051,-137.463,457.960,-73.644,-189.342,1161.960,-2383.490,-69.020
842,77552.268000,147.274,-96.063,-110.568,431.588,-93.036,-221.209,2696.960,-1746.490,-538.020
843,77552.307000,121.575,-27.662,-72.716,424.795,-94.180,-226.152,3013.960,-924.490,-1383.020
844,77552.346000,53.375,44.762,-48.809,430.843,-68.018,-230.462,1370.960,-282.490,-2619.020
845,77552.385000,24.710,-25.650,-32.872,442.913,-22.102,-221.572,1570.960,445.510,-3237.020
846,77552.425000,40.525,-22.633,-32.872,449.153,20.867,-211.779,1427.960,1083.510,-3675.020
847,77552.465000,106.749,-4.527,-63.751,463.394,86.672,-181.850,1569.960,1851.510,-3847.020
848,77552.491000,221.405,-168.487,-81.681,465.172,164.006,-151.690,2412.960,2381.510,-3830.020
849,77552.525000,268.849,-271.088,-470.163,461.770,210.720,-143.796,5678.960,2597.510,-3449.020
850,77552.566000,512.988,-314.342,-351.626,442.528,231.805,-191.421,5600.960,645.510,-2814.020
851,77552.605000,312.340,-151.387,209.183,444.952,188.511,-219.835,3449.960,916.510,-104.020
852,77552.651000,337.050,17.603,30.879,453.712,190.861,-205.055,-1536.040,551.510,712.980
853,77552.685000,282.687,55.827,-135.471,460.557,194.271,-185.351,-115.040,612.510,252.980
854,77552.729000,274.780,93.045,-83.673,473.105,188.827,-173.678,937.960,867.510,221.980
855,77552.769000,244.139,-11.568,-38.848,481.723,177.499,-163.124,211.960,692.510,428.980
856,77552.809000,234.255,-43.756,-51.798,487.394,161.310,-151.703,449.960,520.510,260.980
857,77552.829000,250.069,0.503,-41.837,491.207,153.753,-144.018,486.960,486.510,165.980
858,77552.869000,282.687,-20.621,-25.899,498.002,154.919,-138.093,377.960,375.510,154.980
859,77552.908000,223.382,-9.556,-40.840,493.096,147.170,-135.334,745.960,451.510,118.980
860,77552.948000,271.815,20.621,-30.879,503.714,143.520,-129.508,209.960,302.510,180.980
861,77552.988000,247.104,-21.627,-21.914,506.549,135.867,-125.750,360.960,215.510,202.980
862,77553.37000,241.174,-14.585,-9.961,504.508,124.263,-123.070,342.960,70.510,222.980
863,77553.66000,251.058,-20.621,-30.879,504.485,122.278,-125.075,-84.040,-73.490,229.980
864,77553.105000,253.035,-35.709,-30.879,509.305,120.405,-124.126,244.960,-28.490,164.980
865,77553.127000,247.104,-31.686,-45.821,507.338,117.430,-126.157,386.960,88.510,68.980
866,77553.167000,256.000,-17.603,-31.875,506.276,107.712,-126.375,171.960,132.510,10.980
867,77553.207000,253.035,-20.621,-25.899,512.177,116.614,-121.262,133.960,131.510,8.980
868,77553.248000,256.988,-26.656,-24.903,510.206,111.849,-116.468,54.960,126.510,-13.020
869,77553.288000,256.988,-17.603,-26.895,510.229,113.834,-114.463,38.960,139.510,-47.020
870,77553.329000,282.687,-2.515,0.996,509.266,113.868,-112.503,-81.040,104.510,-76.020
871,77553.369000,306.409,3.521,20.918,510.258,116.747,-114.398,-100.040,-175.490,-58.020
872,77553.405000,345.946,84.998,19.922,506.405,119.514,-119.248,-538.040,-402.490,141.980
873,77553.425000,308.386,41.745,4.981,500.570,117.408,-124.211,-572.040,-522.490,109.980
874,77553.467000,216.463,-118.193,-90.646,492.876,123.049,-129.005,-187.040,-506.490,97.980
875,77553.509000,153.205,-36.715,-10.957,494.734,116.164,-134.057,195.960,-377.490,132.980
876,77553.562000,112.680,-61.862,-2.988,489.816,108.307,-136.203,248.960,186.510,49.980
877,77553.589000,114.656,14.585,-20.918,490.860,113.451,-123.338,31.960,542.510,-19.020
878,77553.625000,132.448,50.798,-30.879,499.666,119.771,-104.547,-1855.040,664.510,-309.020
879,77553.665000,220.417,-380.731,-322.739,505.608,129.946,-85.676,-971.040,367.510,405.980
880,77553.710000,279.722,7.544,-14.942,511.410,129.097,-82.741,174.960,345.510,-64.020
881,77553.750000,384.494,39.733,56.778,511.452,133.023,-80.692,691.960,414.510,-280.020
882,77553.770000,249.081,-18.609,-31.875,511.471,134.080,-76.746,37.960,140.510,-258.020
883,77553.807000,275.768,9.556,-12.949,513.468,138.220,-65.862,113.960,250.510,-142.020
884,77553.847000,254.023,-31.686,2.988,508.709,146.846,-68.623,-383.040,36.510,-258.020
885,77553.887000,256.988,-30.680,-17.930,506.873,156.579,-66.450,-145.040,26.510,-357.020
886,77553.927000,249.081,0.503,-10.957,504.983,161.393,-67.327,-72.040,63.510,-369.020
887,77553.967000,254.023,-2.515,-11.953,502.139,166.327,-62.320,-294.040,13.510,-369.020
888,77554.9000,251.058,0.503,-10.957,499.308,174.022,-64.117,-290.040,-31.490,-389.020
889,77554.49000,246.116,0.503,-9.961,495.607,190.575,-59.835,-440.040,-106.490,-425.020
890,77554.69000,249.081,20.621,-5.977,492.830,204.075,-62.483,-369.040,-147.490,-435.020
891,77554.109000,256.000,34.703,10.957,488.033,207.932,-61.427,-474.040,-360.490,-414.020
892,77554.149000,259.954,47.780,18.926,483.288,219.342,-70.009,-653.040,-659.490,-344.020
893,77554.189000,258.965,30.680,27.891,478.446,221.883,-84.673,-638.040,-1040.490,-189.020
894,77554.229000,322.224,70.916,17.930,471.737,232.109,-102.112,-685.040,-1159.490,25.980
895,77554.268000,353.853,61.862,5.977,467.891,235.825,-107.922,-1247.040,-1037.490,185.980
896,77554.316000,232.278,-80.974,-16.934,467.831,227.324,-97.323,-1825.040,-547.490,575.980
897,77554.348000,147.274,-29.674,-44.825,470.691,218.140,-74.966,-2604.040,-435.490,603.980
898,77554.368000,69.189,12.574,-19.922,476.570,219.793,-46.478,-3069.040,610.510,-133.020
899,77554.408000,82.039,17.603,-19.922,470.059,231.917,22.424,-2433.040,1873.510,-633.020
900,77554.448000,447.753,-12.574,-114.553,461.662,247.128,100.216,-1066.040,2541.510,-775.020
901,77554.488000,512.988,220.794,-9.961,443.421,255.341,128.799,-2406.040,-165.490,-1265.020
902,77554.528000,351.876,240.912,-185.276,448.107,234.568,152.865,-4712.040,-1095.490,293.980
903,77554.568000,392.402,-148.369,-210.179,471.583,161.083,154.225,-7050.040,-2568.490,912.980
904,77554.608000,475.429,-247.953,-239.066,495.271,122.204,96.534,-5208.040,-3606.490,1183.980
905,77554.648000,433.915,-224.817,-164.358,502.494,82.108,34.858,776.960,-3592.490,1774.980
906,77554.688000,127.506,5.532,-79.689,498.973,34.766,-42.692,350.960,-3255.490,1932.980
907,77554.708000,30.641,-54.821,-39.844,484.885,-7.566,-108.385,-1253.040,-2799.490,1723.980
908,77554.748000,19.768,-28.668,-42.833,466.113,-37.022,-160.073,-866.040,-2204.490,1364.980
909,77554.788000,59.305,-32.692,-27.891,448.554,-45.627,-190.701,-195.040,-1358.490,855.980
910,77554.828000,105.761,-69.910,-7.969,445.461,-64.209,-196.024,510.960,-502.490,622.980
911,77554.868000,195.707,-54.821,14.942,451.239,-68.813,-187.288,768.960,790.510,22.980
912,77554.913000,183.846,-107.128,-165.354,465.860,-64.098,-155.771,56.960,1448.510,-523.020
913,77554.948000,472.463,-25.650,-17.930,482.505,-53.237,-110.384,1593.960,1712.510,-1266.020
914,77554.988000,502.116,29.674,38.848,497.218,-38.835,-79.633,-19.040,1422.510,-582.020
915,77555.8000,335.073,184.582,-65.743,504.211,-22.566,-48.857,-109.040,1297.510,-342.020
916,77555.53000,310.363,-47.780,-9.961,505.300,-15.221,-24.175,403.960,1006.510,-370.020
917,77555.88000,244.139,-15.591,-38.848,507.295,-11.988,-10.370,-272.040,598.510,-231.020
918,77555.142000,280.710,-0.503,-44.825,507.353,-7.910,-1.453,377.960,303.510,-187.020
919,77555.172000,269.838,30.680,-42.833,504.446,-8.866,0.481,462.960,-8.490,-86.020
920,77555.212000,261.931,7.544,-25.899,508.333,-5.139,-8.254,217.960,-569.490,182.980
921,77555.252000,297.514,25.650,0.000,506.276,-12.493,-32.938,285.960,-1070.490,415.980
922,77555.290000,432.927,141.328,10.957,501.160,-33.705,-68.724,-178.040,-1759.490,789.980
923,77555.330000,477.405,77.957,22.911,479.556,-55.466,-122.208,-608.040,-2209.490,794.980
924,77555.350000,391.413,-88.016,-116.545,467.760,-67.056,-158.775,833.960,-2180.490,466.980
925,77555.391000,224.371,-75.945,-135.471,443.331,-84.595,-195.500,1777.960,-1804.490,-41.020
926,77555.433000,109.714,-116.181,-136.467,431.584,-95.711,-210.481,2351.960,-1101.490,-675.020
927,77555.468000,34.595,114.169,-45.821,435.593,-80.247,-215.033,919.960,-326.490,-1996.020
928,77555.508000,5.931,-29.674,-43.829,444.717,-37.423,-213.083,808.960,318.510,-2655.020
929,77555.548000,23.722,-36.715,-31.875,458.873,22.277,-196.037,1170.960,1206.510,-3247.020
930,77555.593000,100.819,-34.703,-45.821,475.051,89.008,-169.025,1478.960,1752.510,-3456.020
931,77555.628000,214.486,-133.281,-88.654,477.516,138.130,-142.432,2356.960,2304.510,-3411.020
932,77555.652000,323.212,-274.106,-492.078,475.205,193.959,-117.662,3662.960,2378.510,-2931.020
933,77555.692000,512.988,-248.959,-474.148,459.073,231.145,-140.406,3484.960,623.510,-2115.020
934,77555.728000,256.000,-65.886,192.249,459.739,207.142,-173.299,3203.960,651.510,-105.020
935,77555.768000,387.459,-40.739,64.747,469.325,194.054,-154.937,-796.040,503.510,840.980
936,77555.808000,237.220,75.945,-161.370,480.007,194.546,-137.252,-816.040,418.510,499.980
937,77555.848000,276.757,44.762,-73.712,485.733,185.045,-130.586,876.960,759.510,478.980
938,77555.893000,249.081,-54.821,-15.938,492.386,170.763,-121.082,453.960,493.510,394.980
939,77555.928000,237.220,10.562,-79.689,493.256,159.273,-114.471,199.960,340.510,352.980
940,77555.948000,248.093,-9.556,-60.763,501.935,155.561,-110.612,353.960,331.510,199.980
941,77555.988000,241.174,-41.745,-57.774,501.915,151.850,-102.849,542.960,328.510,98.980
942,77556.28000,244.139,-9.556,-40.840,504.765,146.096,-101.010,482.960,366.510,98.980
943,77556.68000,268.849,-3.521,-27.891,503.715,136.486,-96.322,311.960,215.510,158.980
944,77556.108000,230.301,-7.544,-48.809,508.526,133.642,-95.394,225.960,99.510,193.980
945,77556.148000,253.035,-37.721,-30.879,506.563,130.711,-95.464,299.960,142.510,162.980
946,77556.188000,253.035,-22.633,-32.872,508.429,123.027,-92.688,246.960,131.510,120.980
947,77556.228000,250.069,-19.615,-41.837,512.320,125.029,-91.655,355.960,90.510,67.980
948,77556.273000,256.988,-31.686,-31.875,511.310,120.208,-89.803,507.960,139.510,27.980
949,77556.288000,248.093,-24.644,-35.860,509.367,119.240,-88.848,245.960,165.510,18.980
950,77556.333000,256.988,-21.627,-22.911,510.304,115.430,-85.988,177.960,146.510,12.980
951,77556.369000,253.035,-31.686,-28.887,510.351,119.400,-81.977,119.960,91.510,14.980
952,77556.409000,254.023,-24.644,-24.903,514.206,118.424,-83.952,147.960,75.510,-2.020
953,77556.449000,274.780,-3.521,-6.973,513.159,110.604,-86.089,76.960,8.510,0.980
954,77556.489000,294.548,6.538,2.988,510.259,111.482,-89.018,64.960,-254.490,81.980
955,77556.529000,354.842,50.798,47.813,507.332,111.217,-99.817,-41.040,-523.490,265.980
956,77556.569000,314.317,46.774,2.988,505.330,106.149,-108.760,26.960,-524.490,231.980
957,77556.589000,202.625,-173.517,-116.545,502.374,102.087,-115.721,89.960,-725.490,147.980
958,77556.635000,75.120,-45.768,29.883,498.404,93.160,-122.792,696.960,45.510,67.980
959,77556.669000,109.714,-30.680,2.988,499.386,91.551,-108.116,798.960,733.510,-41.020
960,77556.709000,161.112,41.745,-0.996,509.126,93.156,-83.543,173.960,1032.510,-302.020
961,77556.749000,212.510,-409.902,-237.074,515.100,104.517,-54.839,-1202.040,753.510,132.980
962,77556.789000,229.313,199.670,-1.992,517.075,108.441,-53.767,-845.040,-142.490,-270.020
963,77556.829000,454.672,-38.727,2.988,521.872,104.583,-54.823,892.960,271.510,-319.020
964,77556.885000,268.849,46.774,-34.864,518.068,110.457,-50.778,490.960,209.510,-235.020
965,77556.893000,257.977,-2.515,-9.961,520.068,116.387,-46.720,-263.040,183.510,-107.020
966,77556.929000,257.977,-32.692,13.946,522.014,116.514,-41.810,-146.040,136.510,-37.020
967,77556.969000,255.012,-19.615,-12.949,521.113,123.301,-41.661,-405.040,-47.490,-105.020
968,77557.9000,255.012,-32.692,-14.942,518.208,123.251,-42.649,-361.040,-36.490,-140.020
969,77557.53000,250.069,-24.644,-31.875,514.430,132.016,-39.520,-384.040,42.510,-214.020
970,77557.93000,256.988,-24.644,-19.922,515.388,130.170,-35.637,-520.040,131.510,-292.020
971,77557.133000,257.977,-26.656,-18.926,509.787,149.681,-28.351,-539.040,177.510,-361.020
972,77557.173000,247.104,-16.597,-7.969,508.928,159.510,-22.250,-547.040,199.510,-459.020
973,77557.209000,253.035,-9.556,2.988,507.070,165.511,-13.295,-617.040,178.510,-505.020
974,77557.229000,247.104,-12.574,7.969,502.361,177.265,-6.180,-417.040,96.510,-486.020
975,77557.269000,251.058,22.633,24.903,498.668,195.652,-6.760,-362.040,-72.490,-415.020
976,77557.309000,238.208,21.627,38.848,496.725,195.547,-10.689,-223.040,-475.490,-280.020
977,77557.349000,256.988,38.727,18.926,492.887,201.097,-21.361,-328.040,-698.490,-118.020
978,77557.389000,285.652,62.868,3.984,493.811,199.812,-36.098,-448.040,-861.490,113.980
979,77557.429000,332.108,101.092,19.922,492.732,190.806,-48.068,-1196.040,-994.490,368.980
980,77557.473000,222.394,-108.134,-61.759,494.632,188.732,-54.974,-971.040,-638.490,345.980
981,77557.513000,165.066,-133.281,-165.354,491.666,181.929,-54.151,-1052.040,-279.490,-9.020
982,77557.533000,23.722,-149.375,-171.331,493.767,192.347,-22.534,-2650.040,284.510,-307.020
983,77557.573000,361.761,-34.703,-51.798,493.950,205.551,4.237,-2360.040,903.510,-287.020
984,77557.613000,329.143,343.513,-34.864,492.160,213.083,38.724,-2899.040,108.510,-949.020
985,77557.653000,286.641,-107.128,-269.946,486.361,211.322,49.460,-2939.040,-911.490,629.980
986,77557.693000,402.286,-289.195,-250.023,509.924,149.228,39.305,-6596.040,-2675.490,2095.980
987,77557.737000,315.305,-68.904,-244.047,514.986,87.581,-30.699,-2093.040,-3510.490,2041.980
988,77557.773000,256.988,-70.916,-169.339,496.940,39.969,-114.169,-301.040,-3446.490,1722.980
989,77557.813000,78.085,6.538,-52.794,471.399,11.353,-168.795,147.960,-2730.490,1647.980
990,77557.852000,19.768,-30.680,-47.813,457.549,-14.604,-195.878,-462.040,-1752.490,1382.980
991,77557.870000,64.247,-57.839,-44.825,444.721,-35.632,-219.907,-265.040,-1111.490,1115.980
992,77557.913000,124.541,-35.709,2.988,437.703,-60.941,-220.484,355.960,111.510,738.980
993,77557.953000,173.961,1.509,65.743,447.398,-64.169,-195.038,178.960,1040.510,216.980
994,77557.997000,322.224,-83.992,-217.152,460.193,-49.635,-157.423,-363.040,1854.510,-423.020
995,77558.33000,491.243,-19.615,-216.156,473.017,-32.166,-118.763,-403.040,1553.510,-891.020
996,77558.73000,360.772,0.503,-68.732,479.010,-17.978,-93.919,644.960,1390.510,-569.020
997,77558.113000,330.131,146.358,-69.728,489.804,-9.374,-60.362,57.960,1259.510,-434.020
998,77558.159000,274.780,-1.509,-39.844,492.824,-2.054,-37.638,-106.040,1028.510,-341.020
999,77558.174000,241.174,-26.656,-40.840,496.821,7.132,-18.793,-383.040,676.510,-206.020
1000,77558.213000,242.162,-33.697,-44.825,494.031,16.100,-6.832,140.960,470.510,-189.020
1001,77558.253000,258.965,18.609,-48.809,497.954,20.172,0.131,279.960,183.510,-158.020
1002,77558.294000,261.931,0.503,-48.809,495.984,16.291,1.021,318.960,-49.490,-86.020
1003,77558.334000,266.873,5.532,-56.778,495.072,23.855,-7.639,200.960,-294.490,-17.020
1004,77558.374000,269.838,4.527,-42.833,493.001,11.970,-17.713,0.960,-501.490,14.980
1005,77558.414000,284.664,20.621,-53.790,491.136,22.307,-32.198,-241.040,-770.490,75.980
1006,77558.454000,269.838,4.527,-31.875,488.112,14.943,-56.884,-302.040,-975.490,122.980
1007,77558.474000,303.444,43.756,-26.895,487.985,7.565,-83.526,-201.040,-1141.490,157.980
1008,77558.514000,316.293,33.697,-49.805,479.155,2.777,-120.916,-708.040,-1425.490,244.980
1009,77558.554000,373.622,-22.633,-44.825,470.297,-7.556,-145.681,-306.040,-1610.490,383.980
1010,77558.594000,344.958,-32.692,-71.720,460.405,-22.062,-183.289,916.960,-1584.490,537.980
1011,77558.634000,316.293,10.562,-112.560,438.888,-38.601,-219.986,865.960,-1731.490,404.980
1012,77558.674000,247.104,-53.815,-204.202,422.235,-52.181,-256.607,306.960,-1732.490,76.980
1013,77558.714000,231.290,-82.986,-211.175,399.745,-70.542,-287.462,959.960,-1534.490,-66.020
1014,77558.754000,175.938,-83.992,-195.237,382.311,-69.137,-304.139,764.960,-1193.490,-211.020
1015,77558.790000,77.097,-125.234,-206.195,370.635,-73.414,-317.007,653.960,-868.490,-466.020
1016,77558.810000,36.571,-133.281,-200.218,364.889,-67.623,-315.910,893.960,-681.490,-806.020
1017,77558.850000,-6.919,-107.128,-169.339,361.051,-63.842,-318.776,773.960,-478.490,-1062.020
1018,77558.890000,-2.965,-113.163,-125.510,351.412,-59.190,-323.596,604.960,-367.490,-1282.020
1019,77558.943000,15.815,-129.257,-102.599,352.579,-39.656,-318.257,726.960,-84.490,-1580.020
1020,77558.975000,50.409,-119.198,-91.642,350.792,-25.931,-311.092,810.960,149.510,-1791.020
1021,77559.15000,80.062,-115.175,-115.549,359.762,-1.316,-298.758,738.960,475.510,-1961.020
1022,77559.55000,106.749,-99.081,-126.506,370.610,18.378,-290.453,614.960,697.510,-1961.020
1023,77559.92000,126.517,-115.175,-146.428,375.648,35.318,-272.415,580.960,1004.510,-1820.020
1024,77559.112000,155.181,-104.110,-165.354,384.687,64.118,-246.259,561.960,1165.510,-1615.020
1025,77559.152000,183.846,-98.075,-151.409,398.426,78.446,-218.454,477.960,1402.510,-1284.020
1026,77559.192000,182.857,-70.916,-141.447,409.345,99.693,-183.636,568.960,1651.510,-1084.020
1027,77559.232000,185.822,-54.821,-113.556,415.289,105.488,-143.287,609.960,1876.510,-910.020
1028,77559.272000,199.660,-60.857,-96.623,419.352,116.184,-99.892,779.960,2240.510,-665.020
1029,77559.312000,212.510,-49.792,-67.735,425.223,116.003,-66.542,757.960,2495.510,-551.020
1030,77559.352000,226.347,-43.756,-55.782,421.637,132.772,-8.318,287.960,2777.510,-529.020
1031,77559.393000,278.734,5.532,-53.790,414.122,142.771,52.689,-506.040,2830.510,-698.020
1032,77559.437000,357.807,-12.574,-63.751,391.038,143.839,111.504,-996.040,2730.510,-975.020
1033,77559.453000,335.073,46.774,-52.794,363.174,152.454,162.631,-1514.040,2451.510,-1090.020
1034,77559.493000,362.749,36.715,-47.813,339.158,160.007,207.858,-733.040,2182.510,-1033.020
1035,77559.534000,315.305,99.081,-66.739,322.768,162.155,224.543,-13.040,1825.510,-797.020
1036,77559.574000,229.313,58.845,-79.689,305.524,175.059,245.387,-220.040,1043.510,-593.020
1037,77559.614000,278.734,39.733,152.405,295.878,176.993,249.332,54.960,97.510,-38.020
1038,77559.654000,157.158,79.969,178.303,297.806,176.947,246.393,106.960,81.510,-88.020
1039,77559.694000,207.568,51.804,173.323,301.600,169.218,246.229,-582.040,-474.490,127.980
1040,77559.735000,221.405,46.774,146.428,312.166,164.187,233.391,-127.040,-693.490,312.980
1041,77559.755000,241.174,38.727,96.623,325.655,162.032,217.681,640.960,-830.490,535.980
1042,77559.795000,211.521,32.692,-76.700,336.308,165.761,206.019,851.960,-794.490,517.980
1043,77559.835000,202.625,111.151,-94.630,343.045,168.135,178.627,2127.960,-581.490,-16.020
1044,77559.875000,209.544,-21.627,32.872,337.370,186.935,153.535,2435.960,5.510,67.980
1045,77559.915000,186.811,147.363,34.864,335.456,187.110,162.361,-105.040,586.510,-294.020
1046,77559.955000,296.525,-11.568,98.615,331.607,184.635,183.873,-1914.040,307.510,-426.020
1047,77559.992000,271.815,39.733,51.798,329.551,169.362,196.278,-1355.040,213.510,-250.020
1048,77560.32000,239.197,95.057,76.700,326.700,175.116,194.438,377.960,86.510,261.980
1049,77560.57000,212.510,-0.503,140.451,332.343,158.646,193.104,249.960,-135.490,317.980
1050,77560.95000,216.463,2.515,123.518,334.323,165.267,184.429,530.960,-222.490,345.980
1051,77560.135000,242.162,58.845,51.798,342.078,169.010,174.722,620.960,-305.490,409.980
1052,77560.177000,260.942,63.874,40.840,345.833,159.145,165.685,651.960,-206.490,425.980
1053,77560.217000,236.232,19.615,54.786,351.629,159.116,161.774,673.960,-100.490,415.980
1054,77560.257000,249.081,25.650,46.817,354.584,165.811,156.045,926.960,46.510,378.980
1055,77560.297000,248.093,30.680,54.786,354.594,167.666,152.163,668.960,110.510,343.980
1056,77560.337000,248.093,22.633,74.708,357.465,164.760,151.124,454.960,114.510,254.980
1057,77560.377000,242.162,27.662,80.685,357.423,160.834,149.076,58.960,-82.490,83.980
1058,77560.397000,234.255,18.609,85.665,358.313,153.939,144.021,-60.040,-244.490,18.980
1059,77560.437000,248.093,30.680,57.774,362.264,163.556,138.359,-106.040,-351.490,-38.020
1060,77560.473000,248.093,31.686,42.833,364.178,161.612,137.339,-110.040,-297.490,-37.020
1061,77560.513000,248.093,30.680,40.840,366.089,159.646,135.338,-84.040,-169.490,-9.020
1062,77560.553000,250.069,33.697,44.825,364.136,158.570,131.387,-12.040,-67.490,4.980
1063,77560.593000,252.046,25.650,43.829,368.942,154.798,134.256,-76.040,8.510,-9.020
1064,77560.633000,251.058,23.639,51.798,364.147,158.677,136.293,-189.040,0.510,-83.020
1065,77560.673000,256.988,14.585,68.732,367.073,161.575,134.402,-291.040,-124.490,-165.020
1066,77560.693000,238.208,13.580,63.751,370.007,165.422,131.552,-206.040,-180.490,-112.020
1067,77560.734000,253.035,35.709,35.860,363.185,160.480,130.447,-199.040,-176.490,-158.020
1068,77560.774000,253.035,27.662,35.860,363.204,162.422,130.490,-412.040,-92.490,-222.020
1069,77560.814000,245.127,35.709,54.786,363.202,162.400,129.509,-420.040,-78.490,-257.020
1070,77560.854000,239.197,36.715,63.751,360.337,166.256,129.589,-320.040,-189.490,-221.020
1071,77560.894000,237.220,50.798,65.743,362.270,166.253,128.612,-251.040,-347.490,-127.020
1072,77560.934000,233.266,77.957,51.798,367.037,160.345,122.607,-545.040,-658.490,88.980
1073,77560.977000,251.058,89.022,36.856,373.683,150.401,108.671,-914.040,-942.490,334.980
1074,77560.997000,289.606,121.210,2.988,386.047,130.869,97.476,-1310.040,-1139.490,552.980
1075,77561.37000,264.896,171.505,-33.868,387.890,122.085,94.343,-2853.040,-1066.490,47.980
1076,77561.77000,272.803,71.921,-12.949,395.602,121.017,86.491,-2836.040,-925.490,-241.020
1077,77561.117000,242.162,81.980,-66.739,394.631,122.734,76.720,-725.040,-670.490,-649.020
1078,77561.157000,260.942,44.762,-100.607,390.909,141.725,59.482,922.960,-551.490,-785.020
1079,77561.197000,230.301,109.139,-63.751,382.360,161.640,42.254,1358.960,-588.490,-896.020
1080,77561.237000,217.452,58.845,-27.891,372.792,178.418,15.148,1544.960,-417.490,-964.020
1081,77561.273000,214.486,63.874,-27.891,364.294,202.345,3.893,1416.960,-267.490,-1085.020
1082,77561.313000,213.498,49.792,-13.946,355.742,222.239,-14.316,1194.960,-93.490,-1113.020
1083,77561.333000,230.301,-8.550,27.891,340.380,237.298,-28.724,1398.960,244.510,-1055.020
1084,77561.374000,326.178,-191.623,117.541,324.920,242.606,-45.310,1843.960,392.510,-924.020
1085,77561.414000,232.278,3.521,-7.969,324.018,253.794,-65.658,3154.960,1043.510,-403.020
1086,77561.454000,250.069,1.509,-34.864,324.988,253.825,-64.674,-485.040,244.510,75.980
1087,77561.494000,285.652,-8.550,-23.907,329.807,248.414,-48.113,-724.040,270.510,276.980
1088,77561.538000,258.965,155.411,-44.825,330.872,255.521,-34.224,-1429.040,340.510,203.980
1089,77561.578000,271.815,95.057,-32.872,331.872,254.085,-11.698,-1026.040,523.510,149.980
1090,77561.618000,245.127,103.104,-13.946,329.973,255.296,0.092,-136.040,683.510,117.980
1091,77561.638000,253.035,97.069,-5.977,338.698,254.669,11.865,-256.040,665.510,66.980
1092,77561.678000,221.405,79.969,18.926,335.794,251.987,23.567,-201.040,374.510,127.980
1093,77561.718000,217.452,64.880,31.875,337.668,245.253,25.383,-13.040,98.510,191.980
1094,77561.758000,274.780,51.804,9.961,340.558,244.288,24.387,208.960,123.510,208.980
1095,77561.798000,236.232,70.916,0.000,338.626,244.291,25.364,144.960,197.510,70.980
1096,77561.838000,240.185,75.945,3.984,339.624,247.235,26.412,325.960,201.510,45.980
1097,77561.877000,242.162,73.933,17.930,338.659,247.247,27.391,-83.040,39.510,-112.020
1098,77561.917000,242.162,80.974,17.930,338.663,247.290,29.353,-174.040,-29.490,-159.020
1099,77561.957000,237.220,81.980,8.965,335.782,249.225,30.370,-183.040,-123.490,-159.020
1100,77561.978000,239.197,84.998,-1.992,338.762,257.042,31.531,-216.040,-148.490,-149.020
1101,77562.18000,242.162,82.986,-0.996,331.025,256.988,32.494,-186.040,-140.490,-151.020
1102,77562.58000,237.220,87.010,-3.984,332.948,256.899,27.593,-219.040,-120.490,-158.020
1103,77562.98000,238.208,89.022,-2.988,327.162,257.899,31.526,-199.040,-94.490,-142.020
1104,77562.138000,236.232,91.033,-0.996,327.150,256.907,30.523,-129.040,-85.490,-109.020
1105,77562.178000,237.220,91.033,-3.984,327.237,265.666,31.698,-59.040,-72.490,-69.020
1106,77562.218000,236.232,93.045,-4.981,330.151,266.687,32.708,2.960,-48.490,-36.020
1107,77562.258000,234.255,92.039,-6.973,329.170,265.664,30.721,-49.040,-42.490,-35.020
1108,77562.278000,238.208,93.045,-5.977,326.293,267.642,33.701,-70.040,-19.490,-26.020
1109,77562.317000,236.232,91.033,-2.988,326.204,258.861,31.545,-35.040,-3.490,-6.020
1110,77562.357000,234.255,92.039,-0.996,323.363,265.586,29.727,32.960,10.510,29.980
1111,77562.397000,234.255,90.028,0.996,328.179,262.785,32.617,66.960,2.510,65.980
1112,77562.437000,236.232,84.998,-1.992,325.281,263.684,30.669,97.960,-28.490,86.980
1113,77562.477000,238.208,83.992,-2.988,330.046,256.871,27.586,100.960,-36.490,73.980
1114,77562.517000,239.197,84.998,-9.961,330.115,264.573,24.815,67.960,-21.490,50.980
1115,77562.557000,239.197,83.992,-8.965,330.995,255.823,23.642,31.960,12.510,8.980
1116,77562.597000,239.197,84.998,-6.973,326.221,261.666,26.704,-13.040,33.510,-24.020
1117,77562.617000,238.208,92.039,-1.992,329.173,266.570,27.800,-36.040,41.510,-38.020
1118,77562.657000,237.220,89.022,-0.996,331.029,257.916,30.553,-20.040,33.510,-33.020
1119,77562.697000,237.220,90.028,-0.996,325.244,259.801,30.583,-51.040,5.510,-41.020
1120,77562.738000,236.232,83.992,-0.996,325.326,268.517,29.796,-44.040,-3.490,-46.020
1121,77562.779000,236.232,89.022,-5.977,326.237,262.701,29.669,-71.040,-10.490,-55.020
1122,77562.819000,237.220,90.028,-4.981,329.170,265.664,30.721,-68.040,5.510,-62.020
1123,77562.855000,236.232,93.045,-2.988,328.224,267.618,31.743,-100.040,3.510,-72.020
1124,77562.895000,233.266,94.051,-0.996,327.244,265.731,34.642,-90.040,-2.490,-59.020
1125,77562.915000,235.243,92.039,-1.992,326.305,268.634,34.704,-83.040,0.510,-54.020
1126,77562.955000,236.232,93.045,0.996,324.377,269.565,33.740,-99.040,-4.490,-59.020
1127,77562.995000,234.255,96.063,0.000,322.473,272.480,34.781,-92.040,-10.490,-52.020
1128,77563.35000,235.243,93.045,0.000,325.345,269.574,33.742,-61.040,-10.490,-48.020
1129,77563.75000,236.232,95.057,-0.996,323.388,266.707,36.616,-68.040,-5.490,-52.020
1130,77563.119000,233.266,95.057,0.996,318.574,268.645,38.611,-87.040,-12.490,-54.020
1131,77563.159000,233.266,96.063,0.996,319.596,274.458,37.761,-59.040,-15.490,-44.020
1132,77563.199000,234.255,97.069,0.000,320.512,268.686,39.596,-39.040,-14.490,-50.020
1133,77563.239000,235.243,98.075,0.996,317.602,267.708,40.549,-74.040,-26.490,-60.020
1134,77563.270000,234.255,99.081,0.996,321.528,273.571,40.687,-79.040,-33.490,-64.020
1135,77563.295000,232.278,98.075,-0.996,317.640,271.591,40.635,-91.040,-33.490,-72.020
1136,77563.335000,234.255,100.086,-0.996,315.783,279.361,41.785,-90.040,-30.490,-76.020
1137,77563.375000,232.278,99.081,1.992,315.679,268.682,41.547,-77.040,-30.490,-74.020
1138,77563.415000,231.290,102.098,0.996,314.801,277.453,43.701,-75.040,-31.490,-76.020
1139,77563.455000,230.301,103.104,0.000,311.910,278.417,44.697,-86.040,-38.490,-84.020
1140,77563.495000,229.313,103.104,1.992,312.840,275.428,40.710,-103.040,-41.490,-86.020
1141,77563.535000,229.313,105.116,1.992,308.014,275.488,45.605,-93.040,-52.490,-85.020
1142,77563.555000,229.313,106.122,0.996,310.039,285.173,43.863,-83.040,-63.490,-83.020
1143,77563.595000,230.301,107.128,0.996,310.980,282.291,44.781,-69.040,-68.490,-76.020
1144,77563.635000,229.313,105.116,-1.992,310.950,279.357,43.736,-50.040,-70.490,-69.020
1145,77563.679000,229.313,110.145,-0.996,307.155,287.086,43.899,-63.040,-77.490,-63.020
1146,77563.719000,228.324,111.151,-1.992,310.056,287.093,42.925,-66.040,-69.490,-51.020
1147,77563.759000,229.313,110.145,-4.981,306.188,287.077,43.897,-72.040,-52.490,-38.020
1148,77563.799000,230.301,113.163,-3.984,307.191,290.948,43.004,-120.040,-37.490,-30.020
1149,77563.839000,227.336,112.157,-5.977,307.148,286.137,44.859,-140.040,-28.490,-21.020
1150,77563.859000,228.324,108.134,0.000,307.131,283.332,49.700,-127.040,4.510,-8.020
1151,77563.899000,229.313,113.163,-5.977,306.204,287.228,50.765,-188.040,18.510,-22.020
1152,77563.939000,232.278,109.139,0.000,306.227,289.213,52.770,-221.040,48.510,-42.020
1153,77563.979000,223.382,117.187,-0.996,304.233,282.462,55.558,-256.040,79.510,-46.020
1154,77564.19000,231.290,113.163,-0.996,304.299,288.374,59.612,-243.040,98.510,-39.020
