Sample, Time, ACCX, ACCY, ACCZ, MAGX, MAGY, MAGZ, GYRX, GYRY, GYRZ
0,77792.605000,256.000,49.792,-27.891,469.192,235.510,53.883,90.960,-530.490,288.980
1,77792.644000,251.058,47.780,-35.860,472.086,236.337,46.062,157.960,-536.490,321.980
2,77792.689000,254.023,44.762,-35.860,473.958,231.350,39.091,193.960,-508.490,342.980
3,77792.744000,248.093,27.662,-68.732,477.789,229.252,30.226,169.960,-402.490,310.980
4,77792.765000,238.208,11.568,-77.696,477.678,219.392,23.143,14.960,-137.490,146.980
5,77792.800000,259.954,-0.503,-71.720,480.592,219.528,28.055,-59.040,153.510,-42.020
6,77792.840000,266.873,12.574,-55.782,475.844,227.378,34.103,-26.040,473.510,-274.020
7,77792.885000,256.988,40.739,-47.813,474.030,236.442,49.991,-73.040,606.510,-353.020
8,77792.905000,239.197,52.809,-18.926,465.369,238.557,61.788,-401.040,597.510,-340.020
9,77792.945000,219.429,66.892,27.891,465.450,244.620,72.710,-441.040,394.510,-197.020
10,77792.985000,246.116,48.786,37.852,467.413,246.667,76.682,-144.040,74.510,76.980
11,77793.20000,244.139,51.804,23.907,466.337,235.935,74.480,-109.040,-293.490,188.980
12,77793.60000,251.058,42.750,-11.953,467.263,232.902,68.531,38.960,-384.490,274.980
13,77793.102000,243.151,42.750,-23.907,475.903,228.823,55.710,99.960,-426.490,327.980
14,77793.154000,259.954,30.680,-42.833,476.805,222.921,51.658,88.960,-347.490,311.980
15,77793.182000,251.058,17.603,-45.821,477.695,216.027,46.604,-20.040,-221.490,203.980
16,77793.225000,259.954,11.568,-42.833,482.469,210.184,43.542,36.960,-92.490,103.980
17,77793.247000,256.000,12.574,-47.813,479.592,213.046,42.619,42.960,82.510,-54.020
18,77793.287000,254.023,17.603,-49.805,478.702,219.941,47.674,57.960,232.510,-171.020
19,77793.322000,259.954,24.644,-48.809,478.772,225.011,57.593,-8.040,429.510,-293.020
20,77793.362000,253.035,44.762,-30.879,471.105,230.912,64.572,-83.040,505.510,-314.020
21,77793.402000,237.220,48.786,1.992,470.197,235.001,74.468,-179.040,431.510,-216.020
22,77793.442000,228.324,48.786,32.872,467.275,231.262,82.224,-19.040,102.510,-37.020
23,77793.482000,246.116,48.786,17.930,465.391,237.888,75.502,234.960,-149.490,116.980
24,77793.528000,253.035,36.715,-11.953,469.242,237.754,67.662,157.960,-339.490,179.980
25,77793.567000,247.104,36.715,-30.879,475.860,223.127,61.468,104.960,-351.490,173.980
26,77793.587000,249.081,32.692,-32.872,474.865,221.974,53.595,130.960,-282.490,168.980
27,77793.627000,253.035,28.668,-38.848,474.870,223.787,47.751,164.960,-206.490,137.980
28,77793.673000,253.035,25.650,-38.848,476.756,219.814,42.763,75.960,-127.490,81.980
29,77793.702000,252.046,25.650,-41.837,479.684,222.734,41.854,27.960,-69.490,39.980
30,77793.747000,250.069,26.656,-35.860,478.717,222.724,41.851,-20.040,-0.490,-7.020
31,77793.787000,252.046,30.680,-32.872,479.628,216.908,41.724,-35.040,37.510,-31.020
32,77793.827000,253.035,30.680,-27.891,472.926,223.682,43.822,-30.040,57.510,-40.020
33,77793.865000,250.069,32.692,-26.895,473.913,225.633,43.867,-31.040,47.510,-34.020
34,77793.885000,252.046,34.703,-28.887,477.768,223.772,45.795,-56.040,29.510,-24.020
35,77793.925000,249.081,34.703,-27.891,477.784,224.807,48.760,-81.040,5.510,-8.020
36,77793.965000,249.081,28.668,-26.895,475.845,224.745,46.794,-111.040,-22.490,0.980
37,77794.4000,249.081,28.668,-28.887,476.791,222.792,45.772,-75.040,-40.490,15.980
38,77794.42000,251.058,32.692,-29.883,472.950,225.666,45.827,-56.040,-43.490,20.980
39,77794.84000,251.058,30.680,-30.879,478.733,223.760,44.816,-37.040,-39.490,15.980
40,77794.124000,251.058,29.674,-33.868,477.775,223.837,48.739,-54.040,-31.490,6.980
41,77794.164000,247.104,26.656,-31.875,476.772,220.850,45.728,-45.040,-8.490,-7.020
42,77794.205000,250.069,29.674,-31.875,476.744,217.937,45.664,-65.040,8.510,-20.020
43,77794.225000,251.058,33.697,-32.872,472.897,219.884,47.660,-60.040,27.510,-36.020
44,77794.265000,249.081,29.674,-31.875,473.945,227.704,49.797,-87.040,42.510,-47.020
45,77794.305000,249.081,31.686,-27.891,474.839,219.968,50.608,-79.040,44.510,-51.020
46,77794.345000,249.081,33.697,-26.895,476.828,225.790,49.761,-70.040,34.510,-45.020
47,77794.385000,250.069,34.703,-25.899,472.866,215.181,54.420,-59.040,30.510,-39.020
48,77794.424000,250.069,34.703,-28.887,471.014,223.878,53.629,-49.040,29.510,-44.020
49,77794.467000,251.058,33.697,-26.895,469.157,231.648,54.778,-66.040,43.510,-53.020
50,77794.507000,251.058,38.727,-25.899,469.107,225.888,57.592,-50.040,54.510,-57.020
51,77794.547000,247.104,39.733,-21.914,470.136,232.650,55.783,-48.040,39.510,-45.020
52,77794.564000,248.093,39.733,-19.922,464.255,223.942,59.500,-13.040,0.510,-15.020
53,77794.605000,247.104,36.715,-21.914,469.156,230.763,58.681,-6.040,-25.490,3.980
54,77794.645000,251.058,38.727,-26.895,468.186,230.732,57.698,5.960,-35.490,10.980
55,77794.685000,248.093,36.715,-25.899,470.150,233.664,57.767,2.960,-22.490,3.980
56,77794.725000,251.058,35.709,-29.883,473.047,233.649,55.811,11.960,1.510,-7.020
57,77794.767000,251.058,36.715,-27.891,470.070,225.854,55.632,-15.040,29.510,-28.020
58,77794.807000,248.093,39.733,-26.895,469.144,229.771,57.678,-27.040,48.510,-39.020
59,77794.847000,249.081,37.721,-23.907,469.210,235.682,61.732,-42.040,63.510,-44.020
60,77794.867000,250.069,40.739,-23.907,470.161,233.772,62.673,-32.040,71.510,-42.020
61,77794.912000,253.035,39.733,-23.907,467.216,228.932,64.520,-49.040,83.510,-50.020
62,77794.958000,252.046,40.739,-21.914,466.322,236.668,63.709,-43.040,89.510,-53.020
63,77794.984000,247.104,40.739,-17.930,469.216,234.863,68.579,-41.040,78.510,-43.020
64,77795.25000,250.069,44.762,-18.926,463.428,236.726,67.627,-25.040,73.510,-38.020
65,77795.65000,247.104,40.739,-17.930,465.391,239.658,67.696,-40.040,59.510,-33.020
66,77795.105000,249.081,42.750,-17.930,467.323,237.886,74.526,-32.040,52.510,-27.020
67,77795.147000,254.023,45.768,-15.938,463.453,237.848,74.517,-18.040,57.510,-25.020
68,77795.187000,251.058,43.756,-16.934,464.470,242.733,75.608,-38.040,58.510,-30.020
69,77795.207000,247.104,46.774,-14.942,463.397,232.023,74.387,-73.040,46.510,-38.020
70,77795.247000,250.069,37.721,-12.949,458.597,234.975,78.365,-102.040,33.510,-37.020
71,77795.287000,246.116,43.756,-14.942,463.496,241.775,76.565,-47.040,30.510,-34.020
72,77795.327000,251.058,43.756,-11.953,460.598,241.790,78.521,3.960,34.510,-33.020
73,77795.367000,252.046,45.768,-10.957,462.549,242.844,81.490,-2.040,37.510,-45.020
74,77795.407000,247.104,46.774,-12.949,462.584,246.706,80.596,-10.040,35.510,-54.020
75,77795.444000,249.081,46.774,-12.949,456.733,241.795,80.474,-20.040,35.510,-61.020
76,77795.484000,248.093,45.768,-12.949,460.661,247.679,81.594,-31.040,33.510,-66.020
77,77795.524000,246.116,46.774,-10.957,456.817,249.648,84.571,-55.040,15.510,-65.020
78,77795.544000,248.093,52.809,-8.965,457.766,247.716,84.530,-57.040,-5.490,-53.020
79,77795.584000,248.093,50.798,-8.965,456.838,251.611,85.596,-43.040,-20.490,-43.020
80,77795.624000,248.093,54.821,-11.953,458.775,251.652,86.581,-72.040,-30.490,-36.020
81,77795.664000,248.093,53.815,-14.942,455.885,253.501,83.674,-71.040,-23.490,-27.020
82,77795.704000,248.093,51.804,-14.942,455.873,251.624,86.575,-51.040,-17.490,-18.020
83,77795.744000,248.093,51.804,-9.961,455.852,249.660,85.550,-24.040,-17.490,-9.020
84,77795.784000,248.093,52.809,-11.953,453.891,246.750,86.462,-21.040,-21.490,-5.020
85,77795.824000,244.139,50.798,-8.965,454.913,252.563,85.613,-2.040,-28.490,3.980
86,77795.844000,250.069,52.809,-13.946,457.832,254.512,84.681,10.960,-23.490,7.980
87,77795.884000,250.069,51.804,-14.942,456.826,250.619,84.593,14.960,-6.490,4.980
88,77795.924000,248.093,49.792,-11.953,456.852,253.510,83.676,13.960,6.510,-1.020
89,77795.964000,248.093,53.815,-11.953,459.708,248.684,83.575,3.960,5.510,-1.020
90,77796.23000,249.081,51.804,-11.953,454.880,249.608,83.586,-1.040,3.510,5.980
91,77796.48000,248.093,51.804,-13.946,453.938,251.605,86.570,-6.040,5.510,9.980
92,77796.89000,246.116,52.809,-10.957,456.857,253.553,85.639,-1.040,8.510,14.980
93,77796.129000,247.104,51.804,-11.953,456.798,247.706,84.528,9.960,9.510,20.980
94,77796.168000,248.093,50.798,-10.957,457.787,249.679,85.555,21.960,4.510,27.980
95,77796.188000,247.104,51.804,-14.942,455.807,244.827,86.424,21.960,1.510,30.980
96,77796.243000,249.081,50.798,-13.946,458.759,250.616,83.616,47.960,15.510,28.980
97,77796.264000,251.058,49.792,-12.949,458.759,250.616,83.616,33.960,20.510,20.980
98,77796.308000,246.116,50.798,-11.953,458.750,249.645,83.595,24.960,20.510,17.980
99,77796.348000,248.093,47.780,-10.957,458.761,250.638,84.597,2.960,18.510,14.980
100,77796.395000,247.104,50.798,-8.965,454.880,249.608,83.586,14.960,15.510,19.980
101,77796.429000,249.081,49.792,-11.953,460.687,249.686,84.580,12.960,12.510,24.980
102,77796.475000,248.093,48.786,-11.953,460.651,245.824,85.475,28.960,10.510,27.980
103,77796.489000,249.081,47.780,-10.957,455.823,246.748,85.486,30.960,9.510,22.980
104,77796.524000,249.081,47.780,-10.957,455.777,242.778,81.475,19.960,9.510,18.980
105,77796.564000,253.035,48.786,-10.957,457.761,247.673,82.568,20.960,17.510,12.980
106,77796.604000,247.104,48.786,-9.961,460.703,251.606,83.642,14.960,18.510,9.980
107,77796.644000,249.081,47.780,-8.965,461.647,248.746,85.542,26.960,9.510,17.980
108,77796.684000,249.081,48.786,-10.957,459.667,243.894,86.411,18.960,4.510,19.980
109,77796.728000,249.081,47.780,-8.965,462.619,248.799,87.507,10.960,2.510,18.980
110,77796.769000,249.081,48.786,-7.969,458.679,241.922,85.384,5.960,7.510,13.980
111,77796.809000,248.093,46.774,-9.961,458.766,250.681,86.560,5.960,10.510,15.980
112,77796.829000,251.058,48.786,-10.957,460.689,249.707,85.561,2.960,9.510,18.980
113,77796.869000,247.104,48.786,-8.965,460.668,247.744,84.537,12.960,11.510,15.980
114,77796.912000,247.104,44.762,-10.957,460.632,242.998,89.335,14.960,9.510,17.980
115,77796.948000,243.151,54.821,-17.930,462.565,243.880,84.455,37.960,33.510,9.980
116,77796.988000,256.000,36.715,-7.969,458.737,247.768,86.495,226.960,88.510,-8.020
117,77797.24000,250.069,35.709,-0.996,463.594,249.757,86.549,50.960,66.510,-61.020
118,77797.64000,250.069,42.750,-2.988,460.736,254.562,85.669,-36.040,32.510,-107.020
119,77797.104000,248.093,50.798,1.992,454.868,247.731,86.486,-60.040,-34.490,-96.020
120,77797.150000,245.127,46.774,2.988,455.887,253.522,84.655,1.960,-86.490,-66.020
121,77797.177000,242.162,52.809,-1.992,456.878,256.401,82.760,211.960,-63.490,-21.020
122,77797.210000,231.290,54.821,1.992,454.932,256.274,77.850,282.960,-167.490,76.980
123,77797.245000,245.127,53.815,1.992,462.647,256.112,67.075,278.960,-474.490,245.980
124,77797.293000,243.151,53.815,-36.856,466.408,248.060,52.194,488.960,-464.490,326.980
125,77797.328000,249.081,56.833,-37.852,466.268,236.151,40.162,274.960,-458.490,356.980
126,77797.370000,256.988,25.650,-36.856,475.931,237.022,31.376,378.960,-337.490,341.980
127,77797.410000,246.116,28.668,-53.790,478.670,223.156,17.344,392.960,-185.490,268.980
128,77797.457000,244.139,28.668,-71.720,478.614,217.331,17.215,170.960,-38.490,188.980
129,77797.469000,253.035,35.709,-60.763,480.610,223.218,19.311,-46.040,97.510,89.980
130,77797.518000,258.965,28.668,-38.848,480.531,213.660,25.963,-132.040,345.510,76.980
131,77797.554000,240.185,20.621,-46.817,481.599,222.558,33.028,-149.040,300.510,13.980
132,77797.588000,229.313,57.839,-38.848,479.668,220.813,42.792,-65.040,341.510,84.980
133,77797.628000,266.873,2.515,9.961,484.502,219.954,45.725,154.960,291.510,150.980
134,77797.670000,251.058,15.591,-10.957,482.484,210.335,50.410,-59.040,110.510,30.980
135,77797.710000,255.012,16.597,-2.988,482.548,217.109,49.580,-27.040,-38.490,-5.020
136,77797.750000,244.139,26.656,-5.977,479.585,211.213,47.482,-231.040,-289.490,9.980
137,77797.790000,255.012,20.621,-2.988,485.353,209.155,39.603,-167.040,-448.490,75.980
138,77797.810000,267.861,26.656,-17.930,480.512,210.834,29.823,50.960,-570.490,191.980
139,77797.850000,255.012,27.662,-49.805,484.288,203.817,17.908,193.960,-522.490,221.980
140,77797.885000,252.046,29.674,-74.708,490.932,192.081,10.797,-99.040,-398.490,168.980
141,77797.925000,228.324,-16.597,-79.689,485.111,190.989,7.818,-89.040,-201.490,44.980
142,77797.965000,230.301,-13.580,-79.689,488.079,197.813,7.976,-63.040,20.510,-80.020
143,77798.5000,237.220,10.562,-65.743,486.219,204.677,12.047,-361.040,250.510,-231.020
144,77798.45000,264.896,44.762,-53.790,484.394,213.633,23.029,-284.040,363.510,-318.020
145,77798.87000,258.965,44.762,-46.817,481.547,216.776,34.861,-155.040,489.510,-396.020
146,77798.107000,268.849,32.692,-31.875,474.871,224.671,43.848,-141.040,520.510,-447.020
147,77798.147000,255.012,32.692,-6.973,467.320,241.381,56.951,-251.040,394.510,-453.020
148,77798.187000,228.324,62.868,18.926,465.441,245.418,64.882,-359.040,100.510,-306.020
149,77798.227000,251.058,63.874,16.934,465.406,242.441,61.874,67.960,-208.490,-50.020
150,77798.267000,240.185,56.833,-29.883,465.388,242.268,54.025,31.960,-347.490,29.980
151,77798.307000,239.197,39.733,-31.875,464.393,241.115,46.152,43.960,-387.490,42.980
152,77798.347000,253.035,42.750,-34.864,466.313,241.868,35.386,108.960,-348.490,26.980
153,77798.387000,246.116,44.762,-35.860,464.391,244.611,28.578,-25.040,-354.490,21.980
154,77798.427000,257.977,46.774,-36.856,468.188,238.672,21.589,102.960,-347.490,26.980
155,77798.447000,242.162,38.727,-32.872,466.233,239.344,8.852,197.960,-421.490,68.980
156,77798.487000,257.977,54.821,-43.829,467.178,238.253,2.945,148.960,-510.490,114.980
157,77798.533000,269.838,47.780,-49.805,467.130,236.031,-9.853,136.960,-579.490,109.980
158,77798.572000,255.012,23.639,-24.903,468.045,233.775,-24.611,419.960,-727.490,79.980
159,77798.612000,319.259,10.562,5.977,466.944,226.322,-54.198,902.960,-832.490,192.980
160,77798.652000,360.772,67.898,24.903,455.138,212.876,-86.884,1046.960,-1367.490,128.980
161,77798.692000,427.985,-34.703,32.872,438.539,204.216,-120.453,912.960,-1644.490,217.980
162,77798.732000,416.124,-69.910,-9.961,426.692,187.727,-159.090,1802.960,-1251.490,152.980
163,77798.772000,316.293,-75.945,-158.381,413.896,169.655,-181.093,2175.960,-1254.490,19.980
164,77798.789000,215.475,-158.428,-42.833,401.973,141.883,-203.309,3060.960,-440.490,-99.020
165,77798.832000,84.015,-138.310,-53.790,399.621,100.009,-209.146,3715.960,831.510,-273.020
166,77798.872000,74.131,-62.868,-77.696,411.997,74.436,-186.152,3282.960,1730.510,-358.020
167,77798.912000,61.282,-54.821,-89.650,430.456,72.716,-140.060,1400.960,2341.510,-537.020
168,77798.952000,52.386,-59.851,-193.245,450.093,89.754,-79.820,88.960,2695.510,-382.020
169,77798.992000,60.293,132.275,-234.086,455.135,101.452,-35.420,-2746.040,2683.510,-56.020
170,77799.32000,169.019,315.348,-206.195,457.236,103.067,37.189,-4371.040,2437.510,-16.020
171,77799.72000,363.737,508.479,-361.588,443.670,85.998,105.428,-5538.040,1688.510,-921.020
172,77799.92000,512.988,-239.906,-473.152,423.596,104.850,133.262,990.960,1123.510,-1040.020
173,77799.132000,430.950,254.994,-306.802,419.069,143.875,100.777,3975.960,-653.490,-986.020
174,77799.172000,404.263,122.216,-162.366,412.307,154.468,55.887,-1753.040,-2310.490,-1363.020
175,77799.212000,340.015,23.639,-186.272,401.710,168.884,10.094,-1989.040,-2625.490,-1454.020
176,77799.252000,207.568,-19.615,-71.720,394.066,185.572,-21.914,-684.040,-2268.490,-1559.020
177,77799.292000,202.625,-49.792,-12.949,370.109,218.346,-65.367,-18.040,-1790.490,-1753.020
178,77799.332000,103.784,-31.686,101.603,342.286,250.241,-102.963,751.960,-851.490,-1901.020
179,77799.372000,184.834,-183.576,207.191,309.622,279.413,-129.843,2244.960,205.510,-2183.020
180,77799.407000,512.988,-124.228,90.646,282.333,271.059,-188.926,6095.960,864.510,-2630.020
181,77799.428000,309.375,158.428,219.144,266.744,266.335,-220.445,2782.960,742.510,-1607.020
182,77799.468000,482.347,139.316,236.078,276.619,283.322,-202.395,-2497.040,-780.490,1212.980
183,77799.508000,512.988,197.658,212.171,286.413,288.961,-170.868,-4368.040,-1296.490,1821.980
184,77799.548000,418.100,-26.656,-38.848,309.675,286.080,-135.579,-3428.040,-1159.490,2085.980
185,77799.587000,412.170,-147.363,34.864,340.191,242.520,-144.327,2190.960,-154.490,2810.980
186,77799.627000,157.158,31.686,-21.914,381.261,185.019,-129.826,1018.960,1021.510,2905.980
187,77799.667000,30.641,56.833,-202.210,412.851,140.735,-83.671,-1015.040,1879.510,2636.980
188,77799.707000,12.849,86.004,-239.066,438.646,96.480,-33.604,-1402.040,1803.510,2542.980
189,77799.753000,44.479,187.599,-332.700,449.975,59.571,3.846,-882.040,1142.510,1907.980
190,77799.773000,108.726,239.906,-327.720,452.775,46.287,16.306,-912.040,576.510,1077.980
191,77799.813000,130.471,64.880,-147.424,457.539,35.072,33.719,-1557.040,851.510,450.980
192,77799.852000,512.988,112.157,-196.233,457.631,38.589,61.256,61.960,1119.510,385.980
193,77799.890000,512.988,-138.310,195.237,456.983,65.418,90.289,809.960,1317.510,-445.020
194,77799.930000,264.896,-61.862,24.903,454.212,73.696,114.984,-487.040,965.510,-730.020
195,77799.970000,255.012,-37.721,-11.953,449.561,88.643,134.919,-618.040,738.510,-825.020
196,77800.10000,300.479,4.527,27.891,443.965,108.198,144.167,470.960,853.510,-620.020
197,77800.62000,269.838,67.898,-8.965,441.083,106.595,160.797,-759.040,425.510,-216.020
198,77800.70000,242.162,-40.739,48.809,440.119,105.744,166.660,-949.040,43.510,-107.020
199,77800.108000,256.000,-68.904,50.802,438.123,98.972,168.466,-1026.040,-91.490,-131.020
200,77800.150000,238.208,-22.633,33.868,440.029,96.079,168.406,-202.040,-79.490,-33.020
201,77800.190000,244.139,-25.650,-9.961,439.015,92.099,164.393,-13.040,-69.490,113.980
202,77800.230000,245.127,-58.845,-4.981,438.073,94.096,167.377,47.960,36.510,50.980
203,77800.275000,252.046,-2.515,3.984,437.986,84.452,170.105,-331.040,-54.490,82.980
204,77800.325000,246.116,-35.709,-8.965,439.947,88.247,165.290,28.960,-19.490,149.980
205,77800.357000,237.220,-57.839,13.946,443.730,79.525,164.124,0.960,-143.490,141.980
206,77800.399000,259.954,-2.515,-11.953,444.700,80.441,161.204,97.960,-154.490,79.980
207,77800.419000,254.023,-47.780,15.938,444.660,77.420,156.234,199.960,-206.490,86.980
208,77800.452000,248.093,-48.786,-9.961,442.764,82.170,152.413,92.960,-179.490,63.980
209,77800.515000,247.104,-36.715,1.992,449.520,81.200,149.463,-47.040,-191.490,59.980
210,77800.532000,258.965,-19.615,-4.981,448.538,80.177,147.477,-350.040,-219.490,123.980
211,77800.572000,235.243,-65.886,-3.984,450.429,76.247,144.452,91.960,-100.490,88.980
212,77800.613000,246.116,-68.904,10.957,448.452,73.186,138.496,295.960,-197.490,-5.020
213,77800.653000,250.069,-45.768,-9.961,449.486,81.761,130.843,476.960,-293.490,-104.020
214,77800.693000,258.965,-31.686,-7.969,452.437,89.297,119.249,553.960,-388.490,-117.020
215,77800.733000,241.174,-57.839,-42.833,457.327,96.011,113.524,677.960,-382.490,-134.020
216,77800.753000,232.278,-30.680,-33.868,455.397,97.805,107.676,620.960,-172.490,-155.020
217,77800.788000,268.849,13.580,-38.848,451.596,105.469,104.896,390.960,-94.490,-88.020
218,77800.829000,243.151,-3.521,-20.918,455.408,100.545,99.891,-38.040,-217.490,157.980
219,77800.869000,251.058,-30.680,-13.946,458.270,97.553,94.928,-322.040,-324.490,271.980
220,77800.909000,245.127,-43.756,-41.837,460.185,96.493,90.005,-120.040,-201.490,289.980
221,77800.949000,266.873,-59.851,-22.911,460.063,84.756,85.822,-266.040,-229.490,300.980
222,77800.989000,248.093,-65.886,-61.759,461.955,79.964,87.680,40.960,30.510,78.980
223,77801.32000,261.931,-16.597,-46.817,460.033,80.074,93.563,40.960,362.510,78.980
224,77801.57000,246.116,-25.650,-18.926,458.034,71.512,102.195,-230.040,373.510,186.980
225,77801.100000,247.104,-52.809,6.973,459.031,73.571,107.146,-323.040,186.510,232.980
226,77801.129000,246.116,-59.851,-24.903,454.111,63.923,111.824,-166.040,120.510,259.980
227,77801.169000,245.127,-53.815,-23.907,455.045,60.092,113.703,16.960,127.510,237.980
228,77801.209000,254.023,-41.745,-44.825,451.999,44.595,116.294,-211.040,92.510,224.980
229,77801.249000,245.127,-76.951,-20.918,458.749,40.928,123.092,-554.040,239.510,226.980
230,77801.289000,258.965,-76.951,6.973,452.935,39.016,126.960,-326.040,269.510,193.980
231,77801.335000,263.907,-52.809,-48.809,451.900,30.441,134.612,-534.040,272.510,0.980
232,77801.369000,313.328,-12.574,-47.813,450.977,33.496,141.543,-888.040,439.510,-166.020
233,77801.389000,338.039,178.546,-168.342,448.916,19.065,148.083,-2513.040,157.510,-532.020
234,77801.429000,295.537,129.257,-79.689,451.772,16.008,140.176,-1688.040,-430.490,-750.020
235,77801.469000,315.305,43.756,-20.918,449.023,35.936,120.999,2475.960,-569.490,-489.020
236,77801.509000,324.201,68.904,-356.607,470.218,37.935,70.094,830.960,-2145.490,74.980
237,77801.549000,444.788,56.833,-87.658,471.942,28.008,14.960,-1438.040,-3412.490,213.980
238,77801.589000,437.869,-20.621,10.957,470.820,35.313,-93.734,763.960,-4093.490,-167.020
239,77801.634000,512.988,-71.921,76.700,430.952,36.502,-198.722,1722.960,-4296.490,-677.020
240,77801.672000,449.730,-119.198,136.467,364.901,26.282,-281.464,2207.960,-3948.490,-1117.020
241,77801.693000,375.598,-264.047,174.319,306.762,27.464,-334.516,1283.960,-3241.490,-1333.020
242,77801.733000,291.583,-210.735,293.852,270.803,14.106,-352.540,1660.960,-1553.490,-1535.020
243,77801.773000,193.730,-338.483,227.113,259.177,12.072,-351.629,1134.960,-282.490,-1898.020
244,77801.813000,135.413,-351.560,125.510,274.645,6.830,-332.099,1974.960,1685.510,-2167.020
245,77801.854000,108.726,-369.666,72.716,320.067,-7.269,-287.206,2282.960,2727.510,-2172.020
246,77801.894000,78.085,-342.507,-56.778,370.565,-0.544,-224.188,1909.960,3574.510,-1654.020
247,77801.934000,65.236,-290.200,-211.175,416.419,22.078,-142.195,1144.960,3831.510,-1197.020
248,77801.974000,98.842,-180.558,-297.837,445.766,38.671,-62.331,523.960,3764.510,-553.020
249,77802.14000,156.170,-60.857,-281.899,455.609,39.498,15.181,-1198.040,3313.510,251.980
250,77802.34000,173.961,200.676,-258.988,456.665,38.601,62.235,-3076.040,2800.510,378.980
251,77802.74000,344.958,-196.652,-492.078,450.737,13.582,118.545,-6436.040,2525.510,-414.020
252,77802.114000,512.988,-515.521,-492.078,441.885,-6.373,141.620,1053.960,1137.510,1701.980
253,77802.154000,512.988,27.662,263.969,435.423,22.061,157.928,1154.960,701.510,301.980
254,77802.193000,512.988,409.902,168.342,431.215,-10.274,145.433,-3452.040,-534.490,29.980
255,77802.233000,490.255,19.615,-174.319,433.873,-28.433,112.674,440.960,-1195.490,-339.020
256,77802.274000,482.347,177.540,-253.012,437.816,-16.249,91.378,1622.960,-1747.490,-545.020
257,77802.314000,279.722,-15.591,-256.000,439.689,-9.779,31.705,-983.040,-2603.490,-1892.020
258,77802.333000,4.942,-39.733,-107.580,429.461,48.672,-41.549,-953.040,-2810.490,-2616.020
259,77802.373000,62.270,-144.346,-94.630,399.894,104.388,-98.234,-1221.040,-2370.490,-3009.020
260,77802.413000,-1.977,-215.764,18.926,361.689,163.320,-137.213,-565.040,-1516.490,-2808.020
261,77802.450000,10.873,-218.782,127.502,324.296,203.168,-161.905,1008.960,-516.490,-2642.020
262,77802.494000,148.263,-188.605,270.942,296.274,212.021,-188.245,3979.960,1127.510,-2748.020
263,77802.535000,512.988,-92.039,-401.432,276.801,206.245,-221.757,5611.960,737.510,-3474.020
264,77802.577000,512.988,31.686,147.424,264.161,203.749,-241.452,236.960,-159.490,515.980
265,77802.614000,512.988,245.941,193.245,277.852,214.970,-222.542,-3772.040,-789.490,1773.980
266,77802.653000,492.232,-41.745,87.658,304.165,224.113,-171.289,-4885.040,-776.490,2655.980
267,77802.673000,438.857,-365.642,45.821,333.861,190.770,-156.276,1.960,-51.490,2838.980
268,77802.713000,211.521,-63.874,-16.934,383.636,132.448,-138.833,1863.960,1151.510,2957.980
269,77802.754000,-14.826,39.733,-178.303,409.377,87.676,-112.314,1304.960,2110.510,2562.980
270,77802.794000,8.896,-61.862,-247.035,437.089,40.635,-57.402,-220.040,2002.510,2426.980
271,77802.839000,26.687,92.039,-326.724,448.401,0.037,-11.208,-21.040,1529.510,2531.980
272,77802.874000,56.340,283.159,-233.089,453.910,-37.080,19.361,-1336.040,1061.510,1843.980
273,77802.914000,68.201,269.077,-207.191,450.026,-42.533,37.865,-3322.040,1252.510,263.980
274,77802.954000,512.988,164.464,-67.735,447.365,-21.764,56.953,1274.960,1058.510,55.980
275,77802.974000,512.988,-151.387,383.502,444.871,16.460,75.448,2927.960,1144.510,-885.020
276,77803.14000,233.266,53.815,12.949,444.039,28.317,85.516,-1679.040,217.510,-948.020
277,77803.55000,246.116,-146.358,-55.782,445.105,38.078,87.696,-918.040,149.510,-805.020
278,77803.90000,210.533,26.656,-22.911,437.485,47.948,98.686,499.960,527.510,-751.020
279,77803.130000,226.347,-155.411,32.872,434.779,65.654,110.841,-1476.040,327.510,-417.020
280,77803.170000,220.417,-82.986,20.918,435.790,68.727,117.776,-646.040,270.510,-330.020
281,77803.217000,243.151,-26.656,2.988,432.947,74.546,118.880,-386.040,58.510,-302.020
282,77803.255000,280.710,-7.544,35.860,430.971,68.853,125.614,-454.040,115.510,-64.020
283,77803.295000,260.942,-6.538,-8.965,432.944,72.755,125.705,-637.040,59.510,36.980
284,77803.315000,256.000,-40.739,-10.957,431.884,62.174,130.371,-974.040,85.510,26.980
285,77803.354000,249.081,-57.839,4.981,430.928,62.272,135.275,-471.040,149.510,-77.020
286,77803.394000,242.162,-36.715,3.984,430.965,65.271,139.264,-553.040,114.510,-114.020
287,77803.435000,261.931,-5.532,-2.988,434.724,53.680,139.995,-865.040,82.510,-60.020
288,77803.474000,253.035,-45.768,12.949,425.058,53.672,143.897,-574.040,42.510,20.980
289,77803.514000,239.197,-54.821,-13.946,430.816,48.874,143.803,-323.040,-22.490,64.980
290,77803.583000,234.255,-70.916,28.887,426.913,45.881,141.767,5.960,-38.490,112.980
291,77803.609000,244.139,-29.674,8.965,428.839,45.814,137.847,405.960,-222.490,133.980
292,77803.615000,275.768,3.521,-42.833,431.789,51.581,134.059,249.960,-195.490,101.980
293,77803.657000,256.000,-30.680,-14.942,431.707,43.749,130.943,44.960,-131.490,61.980
294,77803.729000,253.035,-53.815,-3.984,430.759,46.566,127.081,293.960,-148.490,45.980
295,77803.744000,232.278,-106.122,-0.996,433.671,48.450,123.206,469.960,-101.490,-49.020
296,77803.772000,235.243,-81.980,-17.930,431.838,59.974,118.554,582.960,-58.490,-190.020
297,77803.818000,260.942,-19.615,-5.977,436.786,70.765,121.746,911.960,-72.490,-245.020
298,77803.852000,263.907,4.527,-15.938,439.743,78.366,113.095,579.960,-189.490,-126.020
299,77803.915000,233.266,-13.580,-17.930,439.713,76.316,108.147,558.960,-299.490,16.980
300,77803.923000,248.093,-8.550,-30.879,439.721,79.035,99.381,31.960,-284.490,123.980
301,77803.960000,256.988,-18.609,-18.926,444.528,76.148,98.346,11.960,-279.490,211.980
302,77804.3000,240.185,-52.809,-28.887,441.555,70.165,92.323,-148.040,-241.490,283.980
303,77804.43000,245.127,-49.792,-36.856,445.353,64.226,85.335,-167.040,-214.490,264.980
304,77804.77000,271.815,-20.621,-16.934,443.343,56.441,85.158,-95.040,-193.490,314.980
305,77804.115000,248.093,-75.945,-46.817,448.084,47.642,80.069,22.960,-55.490,215.980
306,77804.157000,241.174,-61.862,-35.860,443.269,48.695,85.966,195.960,252.510,149.980
307,77804.192000,243.151,-36.715,-28.887,444.246,48.791,89.893,8.960,229.510,169.980
308,77804.232000,257.977,-33.697,-11.953,444.189,42.081,93.667,-220.040,99.510,271.980
309,77804.254000,244.139,-58.845,-35.860,442.204,36.302,96.476,-57.040,132.510,261.980
310,77804.294000,245.127,-67.898,-30.879,446.036,32.456,96.399,32.960,139.510,228.980
311,77804.349000,249.081,-43.756,-50.802,441.090,19.917,101.994,-274.040,196.510,188.980
312,77804.377000,246.116,-78.963,-17.930,438.222,21.982,108.899,-219.040,347.510,217.980
313,77804.417000,251.058,-79.969,-26.895,437.263,21.174,116.724,-203.040,293.510,71.980
314,77804.469000,278.734,-40.739,-47.813,434.337,18.276,118.615,-642.040,335.510,-76.020
315,77804.497000,317.282,51.804,-100.607,433.357,15.505,125.416,-1599.040,393.510,-317.020
316,77804.537000,350.888,191.623,-108.576,430.344,3.848,126.131,-2504.040,23.510,-593.020
317,77804.557000,291.583,-28.668,-29.883,424.524,4.525,115.347,-1525.040,-488.490,-607.020
318,77804.597000,342.981,-17.603,-281.899,430.303,7.861,87.975,1580.960,-1629.490,243.980
319,77804.637000,495.197,89.022,-282.895,438.641,-14.966,16.878,-1797.040,-3429.490,799.980
320,77804.677000,492.232,-70.916,4.981,434.509,-20.160,-85.235,21.960,-4527.490,85.980
321,77804.717000,512.988,-104.110,48.809,407.209,-27.737,-153.126,2479.960,-4506.490,-254.020
322,77804.757000,411.181,-163.458,102.599,375.871,-49.289,-237.027,2869.960,-4009.490,-881.020
323,77804.797000,304.432,-106.122,148.420,314.674,-62.828,-296.296,1635.960,-3690.490,-1432.020
324,77804.837000,251.058,-176.534,187.268,271.218,-48.409,-327.449,777.960,-2459.490,-2185.020
325,77804.877000,225.359,-226.829,194.241,249.039,-38.248,-340.999,762.960,-1123.490,-2597.020
326,77804.898000,184.834,-325.407,124.514,256.912,-26.328,-331.892,372.960,103.510,-2767.020
327,77804.932000,111.691,-381.737,24.903,288.021,-14.894,-310.979,1196.960,1543.510,-2687.020
328,77804.978000,66.224,-360.613,-10.957,321.938,-14.909,-282.469,2315.960,2479.510,-2334.020
329,77805.13000,48.432,-296.236,-74.708,377.264,-8.223,-223.364,2337.960,3187.510,-1687.020
330,77805.53000,63.259,-259.018,-157.385,427.943,15.201,-151.149,1271.960,3262.510,-1190.020
331,77805.93000,98.842,-102.098,-237.074,454.407,36.361,-82.958,-721.040,3043.510,-455.020
332,77805.133000,107.737,48.786,-271.938,470.102,43.868,-13.131,-3355.040,2659.510,121.980
333,77805.185000,160.124,80.974,-192.249,473.960,28.825,51.267,-4655.040,2516.510,965.980
334,77805.199000,243.151,286.177,-184.280,467.958,-3.939,108.386,-4019.040,2563.510,1191.980
335,77805.233000,359.784,58.845,-492.078,457.923,-47.119,134.865,-3202.040,1975.510,1448.980
336,77805.273000,512.988,320.377,307.798,450.155,-54.508,155.278,5267.960,1006.510,454.980
337,77805.319000,512.988,72.927,227.113,450.174,-51.682,151.419,-1242.040,15.510,40.980
338,77805.353000,446.764,-33.697,44.825,453.852,-64.934,120.732,-1938.040,-1024.490,-373.020
339,77805.393000,383.506,308.306,-199.222,457.693,-59.006,79.684,166.960,-1220.490,-708.020
340,77805.433000,269.838,28.668,-149.416,459.873,-20.541,18.760,-1248.040,-1951.490,-2136.020
341,77805.473000,71.166,-16.597,-125.510,449.457,10.575,-17.836,-284.040,-1745.490,-2519.020
342,77805.493000,62.270,-16.597,-101.603,429.603,68.521,-65.625,-855.040,-1269.490,-2856.020
343,77805.533000,55.351,-81.980,-53.790,394.346,130.566,-96.684,-1055.040,-799.490,-3148.020
344,77805.573000,91.923,-240.912,18.926,349.289,177.221,-117.318,1430.960,282.510,-2972.020
345,77805.613000,340.015,-374.695,57.774,314.602,200.247,-158.068,5284.960,854.510,-2665.020
346,77805.653000,512.988,-37.721,353.619,288.235,186.185,-212.372,6478.960,357.510,-2959.020
347,77805.693000,512.988,11.568,-217.152,283.387,186.030,-217.289,47.960,-197.490,-487.020
348,77805.739000,475.429,196.652,133.479,287.345,193.080,-207.317,-2118.040,-633.490,1557.980
349,77805.773000,480.371,74.939,107.580,314.540,196.127,-168.946,-5158.040,-786.490,2581.980
350,77805.813000,438.857,-220.794,15.938,341.585,184.524,-134.824,-3499.040,-644.490,2497.980
351,77805.833000,282.687,-108.134,37.852,394.334,132.206,-110.377,-126.040,636.510,3228.980
352,77805.873000,43.490,22.633,-174.319,435.311,58.847,-66.808,970.960,1406.510,3233.980
353,77805.913000,18.780,114.169,-300.825,457.020,-6.006,-25.053,-1412.040,800.510,3107.980
354,77805.953000,59.305,121.210,-297.837,458.667,-36.925,-19.852,-1192.040,-5.490,2420.980
355,77805.993000,147.274,121.210,-193.245,461.208,-75.580,-13.840,-523.040,-101.490,1950.980
356,77806.33000,154.193,189.611,-97.619,456.223,-92.887,-4.428,134.960,411.510,1053.980
357,77806.73000,176.927,291.206,-227.113,460.212,-82.904,6.589,298.960,1057.510,-476.020
358,77806.113000,504.093,76.951,118.537,456.663,-53.449,23.907,2308.960,832.510,-1151.020
359,77806.133000,437.869,36.715,82.677,454.919,-38.430,45.811,714.960,920.510,-684.020
360,77806.173000,224.371,-186.593,15.938,455.046,-26.650,51.957,-1138.040,531.510,-663.020
361,77806.213000,233.266,-82.986,-31.875,449.325,-19.738,59.944,-383.040,632.510,-599.020
362,77806.258000,233.266,-9.556,-18.926,452.457,0.980,74.139,-821.040,480.510,-375.020
363,77806.299000,217.452,-55.827,-36.856,449.603,4.058,83.028,-685.040,419.510,-154.020
364,77806.339000,210.533,-94.051,6.973,446.710,4.116,86.945,-762.040,251.510,-160.020
365,77806.379000,233.266,-46.774,4.981,444.737,-0.671,90.758,20.960,50.510,-85.020
366,77806.419000,278.734,25.650,-45.821,444.876,12.986,94.003,90.960,149.510,-12.020
367,77806.459000,263.907,-9.556,-19.922,444.840,8.240,98.801,-63.040,320.510,-45.020
368,77806.479000,272.803,-48.786,14.942,442.024,16.086,103.873,-833.040,186.510,-75.020
369,77806.519000,253.035,-89.022,-7.969,441.040,13.272,108.711,-350.040,226.510,-70.020
370,77806.559000,246.116,-64.880,3.984,439.125,14.332,113.634,-206.040,264.510,-176.020
371,77806.594000,262.919,-9.556,15.938,436.228,14.347,115.590,75.960,164.510,-115.020
372,77806.634000,262.919,5.532,2.988,435.340,22.147,117.722,8.960,4.510,50.980
373,77806.674000,241.174,-47.780,-1.992,439.196,21.171,115.747,-177.040,-117.490,96.980
374,77806.714000,269.838,-49.792,1.992,438.137,12.359,112.608,-173.040,-60.490,67.980
375,77806.757000,260.942,-37.721,2.988,434.272,13.249,110.658,-83.040,-34.490,-7.020
376,77806.777000,255.012,-17.603,-25.899,438.137,13.244,108.705,-425.040,-146.490,-26.020
377,77806.817000,253.035,-28.668,-26.895,433.268,11.126,102.763,-512.040,-72.490,-26.020
378,77806.857000,241.174,-99.081,32.872,437.161,13.148,104.778,-165.040,-57.490,-83.020
379,77806.897000,216.463,-157.422,42.833,437.180,15.090,104.821,170.960,-7.490,-69.020
380,77806.937000,256.988,-20.621,-29.883,435.290,19.904,103.943,466.960,45.510,-215.020
381,77806.977000,265.884,3.521,-24.903,440.181,25.755,103.103,521.960,-22.490,-205.020
382,77807.17000,243.151,-16.597,-25.899,435.327,23.787,104.029,70.960,-40.490,-103.020
383,77807.58000,241.174,-17.603,-24.903,438.324,33.524,104.252,42.960,-16.490,-12.020
384,77807.78000,253.035,2.515,32.872,439.259,30.578,102.227,-67.040,-108.490,139.980
385,77807.118000,248.093,-31.686,-8.965,440.102,18.829,97.065,-350.040,-288.490,308.980
386,77807.158000,243.151,-50.798,-18.926,439.031,9.909,89.019,-271.040,-255.490,267.980
387,77807.199000,273.792,-44.762,-12.949,441.903,7.003,87.980,-59.040,-190.490,212.980
388,77807.239000,252.046,-73.933,-21.914,442.838,4.057,85.955,121.960,-81.490,169.980
389,77807.279000,252.046,-22.633,-53.790,438.015,5.909,84.025,41.960,144.510,51.980
390,77807.319000,237.220,-55.827,-11.953,440.905,3.175,90.835,148.960,298.510,100.980
391,77807.359000,249.081,-39.733,-0.996,438.904,-4.524,94.583,-24.040,105.510,136.980
392,77807.404000,251.058,-40.739,-23.907,436.999,-2.494,99.527,125.960,25.510,144.980
393,77807.430000,250.069,-41.745,-20.918,439.894,-3.415,100.493,136.960,175.510,137.980
394,77807.459000,259.954,-23.639,-22.911,436.019,-4.380,102.425,-133.040,139.510,169.980
395,77807.499000,241.174,-71.921,6.973,436.942,-9.203,103.300,-156.040,121.510,232.980
396,77807.539000,260.942,-45.768,-40.840,435.918,-15.038,103.169,-199.040,62.510,168.980
397,77807.579000,264.896,-68.904,-29.883,434.893,-21.757,106.940,-250.040,210.510,105.980
398,77807.619000,330.131,36.715,-57.774,428.173,-16.926,108.995,-877.040,353.510,-144.020
399,77807.659000,301.467,117.187,-102.599,429.105,-19.894,105.989,-1341.040,-120.490,-239.020
400,77807.703000,314.317,115.175,-62.755,428.075,-24.024,95.108,-154.040,-714.490,-265.020
401,77807.718000,302.456,-17.603,-212.171,426.221,-10.947,72.839,3046.960,-1176.490,-29.020
402,77807.755000,478.394,24.644,-372.545,428.049,-9.309,14.039,-460.040,-3703.490,674.980
403,77807.798000,512.988,-44.762,-80.685,420.864,-30.949,-84.522,-1365.040,-4969.490,581.980
404,77807.838000,512.988,-127.246,-44.825,389.704,-30.539,-184.606,1488.960,-4980.490,-294.020
405,77807.878000,471.475,-82.986,26.895,333.329,-39.780,-271.229,2612.960,-4878.490,-940.020
406,77807.918000,281.699,-76.951,127.502,285.733,-50.878,-313.744,1871.960,-4348.490,-1239.020
407,77807.963000,342.981,-127.246,109.572,225.591,-60.049,-351.339,1111.960,-3375.490,-1868.020
408,77807.998000,281.699,-121.210,233.089,178.131,-62.798,-367.191,698.960,-2112.490,-2057.020
409,77808.38000,220.417,-252.982,206.195,175.380,-46.408,-370.755,-487.040,-6.490,-2186.020
410,77808.58000,173.961,-328.424,102.599,209.347,-38.893,-352.865,128.960,1551.510,-2212.020
411,77808.98000,155.181,-326.413,49.805,272.367,-30.816,-322.153,1246.960,2967.510,-2166.020
412,77808.138000,121.575,-327.418,-34.864,346.006,-31.653,-260.234,1657.960,3589.510,-1941.020
413,77808.179000,69.189,-325.407,-121.525,396.557,-16.492,-210.758,1470.960,3909.510,-1310.020
414,77808.219000,79.073,-256.000,-214.163,447.232,3.372,-123.912,996.960,3806.510,-725.020
415,77808.259000,87.969,-72.927,-216.156,475.651,22.976,-39.080,-557.040,3587.510,-165.020
416,77808.299000,143.320,88.016,-166.350,487.460,25.009,48.269,-2638.040,3587.510,450.980
417,77808.339000,319.259,472.267,-229.105,476.677,-8.148,133.808,-4823.040,3566.510,464.980
418,77808.359000,512.988,-515.521,-492.078,463.334,-90.449,147.644,-3649.040,1159.510,3102.980
419,77808.400000,-10.873,513.509,349.634,460.690,-66.875,161.891,2167.960,601.510,-504.020
420,77808.440000,512.988,229.847,104.591,458.732,-68.878,159.881,665.960,-609.490,-688.020
421,77808.480000,444.788,-180.558,-206.195,468.316,-70.531,124.561,-1490.040,-1319.490,-408.020
422,77808.520000,335.073,96.063,-168.342,473.041,-70.678,71.612,-1902.040,-1765.490,-1293.020
423,77808.560000,131.459,-26.656,-175.315,470.256,-46.693,16.240,-564.040,-1747.490,-1749.020
424,77808.600000,-3.954,21.627,-117.541,455.958,-11.322,-45.767,-1083.040,-1617.490,-2178.020
425,77808.674000,-2.965,3.521,-93.634,427.480,55.255,-94.363,-1912.040,-1172.490,-2864.020
426,77808.689000,33.606,-28.668,-21.914,397.830,96.085,-121.958,-1067.040,-533.490,-3421.020
427,77808.697000,96.865,-173.517,78.693,353.849,155.241,-148.197,2747.960,762.510,-3503.020
428,77808.737000,506.069,-346.530,11.953,314.092,154.854,-192.419,7615.960,1151.510,-3346.020
429,77808.777000,512.988,-5.532,450.241,283.769,129.363,-235.217,5342.960,509.510,-2124.020
430,77808.817000,512.988,20.621,-129.494,285.887,146.987,-228.937,-2170.040,-557.490,1042.980
431,77808.857000,407.228,75.945,208.187,307.410,165.338,-198.084,-6134.040,-833.490,2869.980
432,77808.897000,451.707,-168.487,-82.677,330.725,169.124,-168.531,-4442.040,-854.490,2795.980
433,77808.942000,321.236,-90.028,114.553,379.661,122.594,-143.964,-277.040,237.510,3435.980
434,77808.981000,135.413,-49.792,-74.708,428.569,69.633,-102.868,-0.040,1045.510,3221.980
435,77809.2000,29.653,64.880,-267.953,462.906,8.031,-51.207,-136.040,1169.510,3273.980
436,77809.42000,85.004,-2.515,-305.805,473.915,-61.003,-18.393,-1044.040,337.510,3435.980
437,77809.82000,147.274,124.228,-243.051,463.711,-118.119,-7.914,-511.040,149.510,2741.980
438,77809.121000,79.073,354.578,-46.817,460.579,-143.239,-1.614,-1027.040,255.510,1342.980
439,77809.162000,32.618,320.377,-90.646,465.531,-132.405,3.541,-1596.040,1111.510,-420.020
440,77809.202000,512.988,-8.550,44.825,467.756,-106.712,23.729,4726.960,1394.510,-1332.020
441,77809.242000,512.988,22.633,243.051,464.347,-67.117,60.885,2493.960,1320.510,-905.020
442,77809.282000,220.417,-74.939,22.911,466.482,-47.573,66.227,-1088.040,461.510,-847.020
443,77809.301000,155.181,-184.582,-33.868,467.637,-29.915,74.466,117.960,496.510,-729.020
444,77809.340000,240.185,-1.509,-43.829,465.837,-18.068,84.532,-242.040,571.510,-606.020
445,77809.380000,255.012,-55.827,-0.996,462.998,-13.091,91.501,-1411.040,456.510,-251.020
446,77809.420000,226.347,-108.134,41.837,460.064,-17.823,98.255,-928.040,370.510,-200.020
447,77809.460000,263.907,-62.868,34.864,457.199,-14.852,102.237,-373.040,170.510,-199.020
448,77809.500000,289.606,27.662,-33.868,456.380,-1.118,109.405,248.960,217.510,-178.020
449,77809.540000,248.093,-6.538,-40.840,458.394,5.826,115.447,98.960,329.510,-183.020
450,77809.582000,219.429,-29.674,-13.946,456.446,3.045,122.246,-297.040,286.510,-171.020
451,77809.622000,271.815,14.585,-15.938,451.675,8.910,126.289,-444.040,269.510,-208.020
452,77809.642000,254.023,-40.739,22.911,452.626,6.999,127.229,-916.040,50.510,-215.020
453,77809.677000,249.081,-41.745,17.930,449.766,11.782,125.368,-953.040,59.510,-69.020
454,77809.717000,268.849,-97.069,35.860,449.712,6.863,122.317,-579.040,140.510,23.980
455,77809.757000,258.965,4.527,-3.984,452.593,4.043,125.202,-451.040,45.510,6.980
456,77809.803000,240.185,-1.509,-45.821,449.632,-0.947,120.182,-707.040,-64.490,35.980
457,77809.837000,212.510,-72.927,12.949,443.675,-15.675,114.939,-822.040,-199.490,120.980
458,77809.877000,237.220,-11.568,-38.848,447.467,-22.541,109.891,-696.040,-335.490,353.980
459,77809.917000,281.699,-30.680,16.934,449.347,-25.693,98.057,-857.040,-522.490,616.980
460,77809.936000,321.236,-79.969,49.805,449.183,-40.472,87.922,483.960,-256.490,513.980
461,77809.977000,235.243,-222.806,-12.949,454.004,-41.460,84.969,593.960,-136.490,-82.020
462,77810.17000,229.313,-47.780,-108.576,451.223,-30.637,93.048,443.960,223.510,-548.020
463,77810.58000,272.803,21.627,4.981,449.495,-11.950,105.227,608.960,458.510,-441.020
464,77810.104000,221.405,-64.880,34.864,453.458,-3.088,109.355,782.960,42.510,-173.020
465,77810.144000,246.116,-49.792,-12.949,453.484,-0.197,108.439,1110.960,-238.490,-80.020
466,77810.185000,261.931,13.580,-17.930,456.472,9.453,104.736,1101.960,-340.490,-52.020
467,77810.220000,254.023,-24.644,-34.864,459.283,1.564,97.703,424.960,-444.490,101.980
468,77810.260000,245.127,-60.857,-22.911,463.100,-1.549,86.854,135.960,-479.490,145.980
469,77810.280000,262.919,-54.821,-49.805,463.141,4.126,80.116,389.960,-267.490,74.980
470,77810.324000,247.104,-32.692,-38.848,462.124,-0.760,79.024,166.960,-91.490,107.980
471,77810.358000,250.069,-54.821,-49.805,464.084,1.266,82.015,368.960,107.510,66.980
472,77810.399000,252.046,-8.550,-38.848,467.031,4.358,88.955,227.960,305.510,19.980
473,77810.439000,247.104,-14.585,-14.942,463.090,-3.404,90.736,-76.040,251.510,144.980
474,77810.481000,250.069,-34.703,-13.946,459.210,-5.297,94.608,-203.040,152.510,306.980
475,77810.522000,244.139,-53.815,-24.903,460.059,-18.750,100.195,-47.040,204.510,337.980
476,77810.562000,259.954,-41.745,-25.899,458.054,-26.493,101.981,-501.040,262.510,363.980
477,77810.582000,251.058,-57.839,-48.809,452.187,-34.187,107.681,-647.040,372.510,303.980
478,77810.622000,266.873,-52.809,-38.848,454.997,-44.730,112.357,-675.040,455.510,71.980
479,77810.662000,323.212,88.016,-118.537,445.296,-48.600,117.154,-1641.040,501.510,-62.020
480,77810.702000,339.027,131.269,-125.510,442.397,-45.953,106.419,-2621.040,38.510,-250.020
481,77810.781000,334.085,28.668,-56.778,439.428,-49.261,89.668,-1685.040,-382.490,-373.020
482,77810.797000,354.842,-251.976,-300.825,436.444,-51.835,62.146,-361.040,-1133.490,69.980
483,77810.854000,512.988,-15.591,-429.323,429.324,-67.564,-32.362,-3739.040,-4797.490,943.980
484,77810.883000,499.151,-144.346,-134.475,420.471,-69.051,-96.156,1194.960,-4978.490,460.980
485,77810.890000,338.039,-175.528,40.840,388.064,-101.270,-179.315,2222.960,-4872.490,413.980
486,77810.918000,250.069,-91.033,91.642,339.368,-118.936,-255.321,1288.960,-4729.490,58.980
487,77810.958000,256.988,7.544,41.837,278.232,-127.491,-308.595,1765.960,-3993.490,-667.020
488,77810.998000,273.792,27.662,-7.969,219.871,-153.968,-339.707,1649.960,-3642.490,-1175.020
489,77811.39000,258.965,-12.574,-3.984,172.435,-153.847,-357.456,792.960,-3146.490,-2010.020
490,77811.79000,258.965,-88.016,57.774,156.121,-138.646,-364.998,319.960,-1940.490,-2897.020
491,77811.119000,211.521,-165.470,68.732,152.400,-123.172,-365.643,-67.040,-931.490,-3638.020
492,77811.159000,203.614,-202.688,111.564,178.768,-97.653,-364.040,-446.040,644.510,-3961.020
493,77811.199000,207.568,-298.248,48.809,226.589,-57.105,-350.291,-649.040,1947.510,-3912.020
494,77811.219000,208.556,-346.530,3.984,297.576,-27.399,-310.256,-98.040,3350.510,-3042.020
495,77811.259000,194.718,-429.014,-21.914,375.374,0.107,-240.835,1274.960,4234.510,-1980.020
496,77811.299000,162.100,-358.601,-133.479,441.500,14.577,-141.327,955.960,4683.510,-746.020
497,77811.339000,106.749,-203.694,-246.039,477.649,28.885,-36.003,-1051.040,4149.510,43.980
498,77811.381000,81.050,-61.862,-236.078,489.363,27.358,21.847,-2590.040,3712.510,783.980
499,77811.422000,163.089,161.446,-181.292,482.443,-8.458,117.142,-3534.040,3862.510,983.980
500,77811.462000,512.988,-285.171,-492.078,464.512,-72.576,165.695,-7283.040,2496.510,1054.980
501,77811.501000,385.483,513.509,445.261,452.895,-78.924,191.027,-169.040,852.510,-215.020
502,77811.522000,512.988,258.012,406.412,452.978,-70.208,190.240,1983.960,-165.490,-171.020
503,77811.562000,465.544,114.169,-158.381,461.248,-107.771,155.100,-2585.040,-1120.490,-112.020
504,77811.604000,352.865,-31.686,-315.767,464.198,-97.602,130.816,862.960,-1331.490,-419.020
505,77811.644000,250.069,45.768,-243.051,467.054,-90.972,78.013,-710.040,-2113.490,-1418.020
506,77811.684000,16.803,-46.774,-158.381,468.273,-48.934,3.438,-1295.040,-2314.490,-2135.020
507,77811.724000,7.907,-55.827,-97.619,441.508,-0.310,-68.108,-1068.040,-1830.490,-2543.020
508,77811.764000,12.849,-44.762,-60.763,409.144,65.195,-119.678,-1130.040,-1405.490,-2821.020
509,77811.804000,7.907,-202.688,31.875,366.087,121.297,-152.847,83.960,-692.490,-2772.020
510,77811.844000,120.587,-222.806,167.346,331.417,142.726,-177.941,3908.960,814.510,-2674.020
511,77811.864000,512.988,-142.334,6.973,313.938,141.046,-202.532,6365.960,770.510,-3306.020
512,77811.904000,512.988,-68.904,251.019,296.486,141.395,-223.155,428.960,-254.490,-561.020
513,77811.944000,512.988,252.982,171.331,311.993,142.689,-215.248,-2016.040,-511.490,1698.980
514,77811.984000,359.784,-78.963,112.560,338.225,146.654,-178.821,-6057.040,-776.490,2933.980
515,77812.19000,337.050,-220.794,-8.965,376.677,115.618,-150.989,-2611.040,-329.490,2795.980
516,77812.59000,195.707,-112.157,15.938,428.419,55.869,-111.019,577.960,1189.510,3006.980
517,77812.99000,-38.548,24.644,-235.082,455.178,13.350,-70.718,461.960,1681.510,2906.980
518,77812.139000,-38.548,95.057,-389.479,470.128,-51.440,-23.092,-1297.040,918.510,2637.980
519,77812.159000,23.722,101.092,-349.634,474.639,-87.099,-14.067,-710.040,-50.490,2124.980
520,77812.199000,85.992,160.440,-141.447,468.553,-117.144,-9.844,-462.040,58.510,1499.980
521,77812.239000,115.645,256.000,-290.864,471.571,-109.845,11.899,-85.040,1162.510,-3.020
522,77812.279000,512.988,134.287,-147.424,472.913,-75.424,32.279,1423.960,1012.510,-558.020
523,77812.319000,512.988,41.745,375.533,475.053,-58.469,52.274,780.960,825.510,-597.020
524,77812.360000,270.826,3.521,-78.693,471.259,-50.740,52.437,-1674.040,124.510,-544.020
525,77812.400000,152.216,-164.464,-63.751,474.248,-43.722,61.425,165.960,499.510,-416.020
526,77812.440000,224.371,9.556,-34.864,469.555,-30.932,71.506,193.960,707.510,-374.020
527,77812.460000,255.012,-37.721,-3.984,464.807,-23.967,81.457,-1078.040,373.510,-181.020
528,77812.500000,277.745,-37.721,34.864,465.793,-22.901,85.405,-131.040,280.510,-143.020
529,77812.540000,283.676,5.532,-10.957,461.948,-21.817,92.286,-149.040,326.510,-48.020
530,77812.580000,267.861,18.609,-44.825,460.980,-22.711,96.187,-447.040,206.510,135.980
531,77812.620000,240.185,-23.639,-41.837,463.776,-33.383,94.975,-870.040,155.510,169.980
532,77812.660000,237.220,-104.110,-49.805,455.053,-34.504,91.990,-1116.040,152.510,21.980
533,77812.700000,256.000,-99.081,6.973,456.027,-34.430,94.935,-770.040,317.510,-161.020
534,77812.740000,273.792,-27.662,20.918,455.128,-28.506,99.968,-807.040,343.510,-248.020
535,77812.780000,257.977,-29.674,-16.934,454.146,-31.299,105.788,-781.040,245.510,-236.020
536,77812.806000,240.185,-34.703,-8.965,452.298,-22.558,106.959,-542.040,165.510,-158.020
537,77812.840000,238.208,-70.916,15.938,448.346,-30.428,103.834,-469.040,104.510,-81.020
538,77812.885000,235.243,-76.951,19.922,449.325,-29.426,104.839,-192.040,55.510,3.980
539,77812.920000,247.104,-16.597,-31.875,453.218,-27.403,106.853,66.960,-11.490,-3.020
540,77812.960000,270.826,6.538,-2.988,452.187,-34.187,107.681,254.960,-37.490,83.980
541,77813.5000,254.023,-20.621,-32.872,451.173,-37.282,99.765,107.960,-184.490,104.980
542,77813.45000,236.232,-114.169,13.946,453.221,-26.497,103.932,583.960,-88.490,34.980
543,77813.85000,218.440,-112.157,-0.996,450.340,-23.677,101.046,166.960,-52.490,-164.020
544,77813.105000,256.000,-21.627,-22.911,455.184,-22.681,100.098,112.960,-2.490,-204.020
545,77813.145000,275.768,-6.538,4.981,456.216,-15.897,99.270,319.960,-160.490,-82.020
546,77813.185000,243.151,-58.845,-11.953,458.111,-18.899,94.304,250.960,-245.490,20.980
547,77813.225000,235.243,-76.951,-28.887,461.049,-15.008,93.416,86.960,-174.490,-23.020
548,77813.260000,257.977,-3.521,-39.844,461.051,-14.987,94.397,146.960,-32.490,-63.020
549,77813.300000,253.035,-0.503,-34.864,460.072,-15.989,93.392,-134.040,-29.490,-3.020
550,77813.340000,251.058,-21.627,-31.875,459.116,-15.006,94.392,-340.040,-80.490,83.980
551,77813.380000,241.174,-93.045,17.930,461.918,-23.866,87.337,-230.040,-163.490,114.980
552,77813.420000,231.290,-76.951,-44.825,458.985,-26.829,86.284,367.960,-106.490,-1.020
553,77813.440000,260.942,-34.703,-49.805,458.088,-19.999,88.395,566.960,201.510,-94.020
554,77813.480000,261.931,4.527,-20.918,455.284,-12.045,98.373,247.960,362.510,-15.020
555,77813.520000,242.162,-12.574,46.817,457.133,-22.533,105.989,47.960,227.510,188.980
556,77813.560000,244.139,-24.644,0.996,456.196,-19.608,107.033,92.960,-90.490,397.980
557,77813.600000,249.081,-21.627,-26.895,456.060,-32.359,100.865,118.960,-55.490,462.980
558,77813.640000,252.046,-42.750,-21.914,454.012,-44.028,100.602,-102.040,-34.490,455.980
559,77813.680000,255.012,-30.680,-63.751,454.930,-48.894,99.515,-462.040,88.510,357.980
560,77813.722000,248.093,-71.921,-25.899,452.903,-57.716,96.373,-620.040,92.510,297.980
561,77813.741000,266.873,-37.721,-76.700,450.910,-63.581,95.258,-692.040,113.510,9.980
562,77813.782000,341.992,98.075,-87.658,444.152,-60.864,89.420,-1612.040,121.510,-107.020
563,77813.822000,315.305,94.051,-53.790,441.166,-67.861,81.413,-1685.040,-144.490,-255.020
564,77813.864000,314.317,20.621,-49.805,441.290,-51.701,66.082,222.960,-498.490,-299.020
565,77813.939000,383.506,-57.839,-459.206,437.429,-42.850,29.005,187.960,-2754.490,378.980
566,77813.954000,425.019,111.151,-294.848,428.540,-44.682,-50.488,-2502.040,-4393.490,316.980
567,77813.982000,463.568,-11.568,-96.623,410.956,-44.722,-132.901,1082.960,-4407.490,-382.020
568,77814.22000,512.988,-66.892,-53.790,368.269,-39.246,-218.187,2356.960,-4838.490,-1058.020
569,77814.62000,423.042,-167.481,62.755,305.191,-42.599,-298.809,2193.960,-4833.490,-1437.020
570,77814.94000,347.923,-163.458,22.911,257.580,-57.365,-331.599,1876.960,-4320.490,-1378.020
571,77814.122000,378.564,-153.399,119.533,186.801,-66.596,-367.257,1247.960,-3801.490,-1679.020
572,77814.163000,305.421,-108.134,212.171,139.296,-75.063,-378.332,691.960,-2207.490,-2101.020
573,77814.204000,240.185,-199.670,192.249,132.530,-75.064,-375.404,434.960,-744.490,-2394.020
574,77814.244000,186.811,-254.994,149.416,164.422,-81.247,-361.745,494.960,1293.510,-2788.020
575,77814.284000,139.367,-264.047,74.708,238.067,-74.101,-333.973,947.960,2648.510,-2952.020
576,77814.324000,94.888,-323.395,-15.938,294.281,-69.930,-301.400,1583.960,3935.510,-2782.020
577,77814.364000,100.819,-347.536,-125.510,383.626,-50.832,-222.335,1318.960,4343.510,-2327.020
578,77814.384000,108.726,-317.360,-180.296,452.851,-15.083,-127.252,579.960,4335.510,-1609.020
579,77814.424000,102.795,-216.770,-267.953,487.275,22.355,-28.282,-1383.040,4004.510,-422.020
580,77814.465000,176.927,-123.222,-270.942,495.153,16.713,64.772,-2802.040,3680.510,659.980
581,77814.505000,251.058,199.670,-215.160,477.407,-35.949,148.883,-4471.040,3458.510,1323.980
582,77814.545000,491.243,-298.248,-492.078,456.306,-120.267,162.658,-8493.040,2529.510,931.980
583,77814.585000,309.375,498.420,325.728,446.352,-152.098,175.660,1775.960,1258.510,438.980
584,77814.625000,512.988,126.240,363.580,438.733,-143.090,191.534,1152.960,294.510,336.980
585,77814.670000,446.764,333.454,149.416,445.458,-143.477,170.946,-2409.040,-771.490,-151.020
586,77814.685000,391.413,-89.022,-132.482,448.087,-161.917,125.432,-938.040,-882.490,-118.020
587,77814.725000,318.270,172.511,-136.467,452.834,-160.100,73.507,-1492.040,-992.490,-731.020
588,77814.768000,241.174,-25.650,-72.716,452.055,-126.604,8.544,-1867.040,-1124.490,-1662.020
589,77814.801000,91.923,-25.650,-69.728,445.499,-96.421,-28.065,-2250.040,-681.490,-2236.020
590,77814.842000,130.471,36.715,-68.732,434.604,-14.852,-64.523,-1555.040,-26.490,-3132.020
591,77814.882000,67.212,-295.230,4.981,408.359,76.620,-85.103,177.960,440.510,-4188.020
592,77814.927000,175.938,-405.878,-75.704,365.290,130.845,-115.371,6573.960,778.510,-3823.020
593,77814.967000,428.973,-216.770,183.284,327.519,138.891,-174.112,9306.960,-30.490,-3334.020
594,77815.6000,512.988,-158.428,429.323,305.976,121.230,-217.699,3444.960,-556.490,-1510.020
595,77815.28000,512.988,-110.145,-34.864,313.689,118.415,-216.764,-1272.040,-652.490,649.980
596,77815.62000,389.436,-130.263,45.821,327.392,131.513,-200.754,-3877.040,-574.490,2293.980
597,77815.102000,304.432,-133.281,44.825,370.761,108.334,-170.777,-1713.040,234.510,2729.980
598,77815.142000,236.232,-48.786,-130.490,417.789,62.044,-134.440,549.960,601.510,3270.980
599,77815.187000,61.282,17.603,-139.455,457.072,12.096,-84.471,-1319.040,890.510,3444.980
600,77815.221000,-36.571,74.939,-199.222,475.945,-44.220,-50.378,-1508.040,610.510,3422.980
601,77815.262000,-54.363,140.322,-197.230,476.526,-89.302,-26.861,-1119.040,507.510,2474.980
602,77815.301000,28.664,205.705,-124.514,475.387,-110.325,-11.639,-966.040,1043.510,1954.980
603,77815.321000,143.320,33.697,-492.078,473.337,-129.050,20.303,-2208.040,1326.510,302.980
604,77815.363000,512.988,-135.293,179.300,478.366,-112.196,34.417,2688.960,833.510,-1240.020
605,77815.414000,329.143,115.175,58.770,474.926,-75.535,70.527,871.960,871.510,-535.020
606,77815.445000,178.903,-44.762,-121.525,475.953,-69.679,71.640,-1938.040,368.510,-601.020
607,77815.487000,210.533,-142.334,2.988,474.188,-55.739,88.617,-306.040,830.510,-885.020
608,77815.526000,244.139,-11.568,-1.992,472.501,-33.126,102.844,313.960,712.510,-750.020
609,77815.567000,289.606,-12.574,-42.833,469.727,-23.122,117.771,256.960,886.510,-604.020
610,77815.606000,247.104,-2.515,19.922,463.189,-3.339,137.809,-685.040,747.510,-525.020
611,77815.646000,298.502,7.544,40.840,462.272,0.664,143.780,-1559.040,353.510,-373.020
612,77815.667000,252.046,-75.945,79.689,462.228,-3.284,140.750,-754.040,34.510,-154.020
613,77815.707000,240.185,-54.821,34.864,460.244,-8.179,139.657,-435.040,-98.490,-39.020
614,77815.745000,235.243,-34.703,-60.763,456.421,-4.247,143.659,-255.040,150.510,-103.020
615,77815.785000,245.127,-4.527,-7.969,455.385,-11.074,142.524,-756.040,166.510,-156.020
616,77815.825000,258.965,-7.544,7.969,457.355,-7.193,141.634,-986.040,60.510,-83.020
617,77815.865000,262.919,-5.532,-7.969,458.248,-14.066,137.561,-838.040,-80.490,-5.020
618,77815.905000,247.104,-52.809,-3.984,460.079,-23.842,133.425,-900.040,-37.490,-20.020
619,77815.945000,241.174,-123.222,60.763,457.189,-22.878,134.421,-523.040,120.510,-3.020
620,77815.965000,221.405,-86.004,56.778,457.193,-22.835,136.383,-40.040,60.510,145.980
621,77816.5000,250.069,-11.568,-16.934,458.057,-33.505,136.148,403.960,-182.490,206.980
622,77816.47000,263.907,4.527,-30.879,460.969,-31.621,132.273,557.960,-198.490,152.980
623,77816.86000,265.884,11.568,-49.805,460.941,-33.649,128.306,-79.040,-314.490,137.980
624,77816.126000,258.965,-11.568,-62.755,461.825,-39.724,116.405,-183.040,-289.490,2.980
625,77816.166000,251.058,-128.251,29.883,461.875,-33.079,109.688,-275.040,-240.490,-219.020
626,77816.207000,226.347,-158.428,45.821,465.839,-24.217,113.815,159.960,99.510,-235.020
627,77816.248000,236.232,-72.927,11.953,463.967,-18.346,116.884,278.960,70.510,-200.020
628,77816.263000,262.919,9.556,-25.899,463.038,-13.587,113.065,343.960,-73.490,-132.020
629,77816.304000,249.081,-16.597,-21.914,464.928,-18.401,113.943,231.960,-147.490,-48.020
630,77816.344000,238.208,-23.639,-18.926,462.960,-21.376,111.911,140.960,-101.490,18.980
631,77816.384000,258.965,-9.556,-15.938,467.793,-21.372,109.960,68.960,-86.490,35.980
632,77816.425000,254.023,-15.591,-5.977,466.863,-17.498,110.044,-69.040,-136.490,202.980
633,77816.466000,261.931,-17.603,-4.981,468.648,-31.244,101.897,-246.040,-176.490,246.980
634,77816.506000,247.104,-35.709,-3.984,467.641,-35.158,100.828,-272.040,-192.490,297.980
635,77816.546000,256.988,-86.004,-36.856,469.498,-42.928,99.679,160.960,4.510,163.980
636,77816.586000,251.058,-37.721,-57.774,467.645,-36.000,106.693,246.960,268.510,12.980
637,77816.608000,253.035,-23.639,-12.949,468.621,-35.904,110.620,-44.040,302.510,73.980
638,77816.649000,246.116,-55.827,18.926,466.681,-37.735,116.459,-173.040,272.510,129.980
639,77816.689000,246.116,-37.721,-18.926,465.662,-43.526,118.290,200.960,136.510,168.980
640,77816.729000,247.104,-27.662,-19.922,458.861,-47.390,122.112,100.960,62.510,199.980
641,77816.769000,259.954,-34.703,-13.946,462.744,-46.338,124.105,28.960,76.510,229.980
642,77816.809000,247.104,-35.709,-23.907,461.685,-55.150,120.965,-273.040,77.510,254.980
643,77816.849000,239.197,-86.004,0.996,460.675,-59.970,122.818,-11.040,114.510,288.980
644,77816.889000,275.768,-42.750,-44.825,459.611,-70.595,125.521,-185.040,115.510,177.980
645,77816.909000,316.293,53.815,-94.630,453.816,-69.680,125.530,-686.040,231.510,-103.020
646,77816.947000,297.514,94.051,-108.576,453.803,-68.925,115.740,-1743.040,51.510,-114.020
647,77816.988000,343.969,42.750,-79.689,449.007,-61.529,101.184,-1379.040,-177.490,-373.020
648,77817.26000,264.896,36.715,-12.949,448.112,-51.161,87.683,399.960,-843.490,-255.020
649,77817.82000,424.031,56.833,-436.296,443.297,-37.788,35.994,883.960,-2846.490,368.980
650,77817.128000,512.988,90.028,-248.031,431.480,-40.770,-50.395,-1219.040,-5083.490,573.980
651,77817.149000,512.988,-27.662,-55.782,407.143,-35.418,-149.374,1986.960,-5425.490,-378.020
652,77817.208000,512.988,-128.251,74.708,352.623,-50.681,-245.933,3292.960,-5556.490,-977.020
653,77817.229000,390.425,-109.139,123.518,281.520,-85.910,-316.491,3120.960,-5048.490,-880.020
654,77817.249000,311.351,-113.163,77.696,206.665,-115.632,-355.555,1523.960,-4551.490,-1237.020
655,77817.289000,381.529,-86.004,191.253,167.884,-122.093,-367.548,1172.960,-3208.490,-1636.020
656,77817.329000,280.710,-89.022,233.089,139.893,-113.823,-376.249,-602.040,-1683.490,-2203.020
657,77817.364000,185.822,-312.330,152.405,158.443,-97.938,-368.012,177.960,768.510,-2810.020
658,77817.410000,133.436,-250.971,126.506,227.275,-87.970,-342.149,1003.960,2249.510,-3231.020
659,77817.444000,76.108,-310.318,66.739,317.510,-70.480,-292.537,1016.960,3656.510,-3258.020
660,77817.490000,72.154,-285.171,-34.864,407.020,-34.835,-211.143,1485.960,4451.510,-2908.020
661,77817.524000,55.351,-253.988,-113.556,454.945,4.073,-139.571,326.960,4776.510,-2007.020
662,77817.544000,74.131,-265.053,-254.008,492.363,48.573,-29.651,-941.040,4455.510,-1056.020
663,77817.584000,129.483,-84.998,-271.938,497.527,59.687,76.518,-2787.040,4043.510,249.980
664,77817.624000,210.533,290.200,-292.856,476.126,25.779,176.728,-4905.040,3741.510,431.980
665,77817.664000,512.988,39.733,-18.926,451.971,-76.755,201.860,-7330.040,1049.510,2857.980
666,77817.714000,512.988,59.851,219.144,449.135,-73.504,218.598,-1828.040,601.510,592.980
667,77817.749000,447.753,251.976,0.000,453.833,-84.481,202.673,-293.040,-294.490,-371.020
668,77817.789000,512.988,-52.809,-99.611,460.530,-87.781,182.020,366.960,-1213.490,-565.020
669,77817.829000,424.031,50.798,-290.864,472.120,-79.922,137.109,1418.960,-1732.490,-810.020
670,77817.849000,228.324,-115.175,-287.875,480.800,-66.892,63.867,245.960,-2833.490,-1207.020
671,77817.889000,-91.923,-120.204,-182.288,462.439,-44.870,-29.827,-686.040,-3179.490,-1410.020
672,77817.929000,-55.351,-100.086,-15.938,429.827,3.288,-120.028,-934.040,-2991.490,-1808.020
673,77817.973000,-71.166,-84.998,98.615,383.755,53.882,-181.765,-1067.040,-2252.490,-1944.020
674,77818.9000,63.259,-56.833,94.630,351.138,87.909,-208.537,-1019.040,-1147.490,-2171.020
675,77818.50000,165.066,-16.597,131.486,310.983,138.753,-217.299,140.960,594.510,-2675.020
676,77818.90000,512.988,-252.982,112.560,293.718,154.095,-217.976,3164.960,2084.510,-2674.020
677,77818.130000,512.988,-232.864,424.342,278.009,137.656,-252.697,4569.960,-298.490,-260.020
678,77818.170000,512.988,412.919,0.000,285.750,136.868,-247.795,-2502.040,-274.490,712.980
679,77818.190000,472.463,-37.721,38.848,298.722,170.712,-214.654,-5240.040,-826.490,1834.980
680,77818.230000,471.475,-229.847,141.447,328.355,131.479,-202.714,-720.040,-118.490,2086.980
681,77818.276000,260.942,37.721,53.790,364.829,99.130,-189.626,74.960,1366.510,2249.980
682,77818.309000,155.181,11.568,-36.856,417.749,58.138,-135.507,-968.040,2044.510,2075.980
683,77818.349000,-4.942,-60.857,-245.043,464.912,16.659,-56.895,-1052.040,2304.510,2360.980
684,77818.389000,4.942,-55.827,-370.553,482.897,-38.912,11.536,-614.040,1667.510,2542.980
685,77818.429000,62.270,97.069,-409.401,484.424,-88.580,46.722,-937.040,757.510,2264.980
686,77818.470000,140.355,68.904,-280.903,477.308,-123.640,43.967,-1878.040,-60.490,1992.980
687,77818.490000,96.865,208.723,-139.455,473.316,-135.414,39.775,-1587.040,85.510,1004.980
688,77818.530000,512.988,-35.709,-221.136,476.399,-119.572,52.881,215.960,971.510,-652.020
689,77818.570000,512.988,-2.515,304.809,480.703,-82.793,90.972,3485.960,1241.510,-924.020
690,77818.610000,380.541,66.892,88.654,481.797,-70.119,93.217,-1792.040,253.510,-747.020
691,77818.650000,252.046,-182.570,24.903,479.962,-59.501,91.487,-560.040,175.510,-724.020
692,77818.689000,201.637,-56.833,1.992,478.212,-42.778,102.642,8.960,398.510,-311.020
693,77818.730000,236.232,-86.004,-30.879,476.238,-48.450,110.357,-1293.040,428.510,-224.020
694,77818.769000,253.035,-15.591,6.973,477.253,-44.470,114.371,-213.040,435.510,-284.020
695,77818.810000,287.629,24.644,-0.996,472.534,-35.456,129.271,124.960,643.510,-342.020
696,77818.832000,270.826,43.756,-8.965,473.606,-26.515,138.297,-35.040,374.510,-183.020
697,77818.870000,249.081,-20.621,12.949,473.493,-38.165,138.038,-620.040,-23.490,2.980
698,77818.910000,225.359,-67.898,-5.977,466.731,-37.260,138.044,-408.040,14.510,31.980
699,77818.945000,276.757,-12.574,0.996,467.804,-26.550,139.265,-156.040,172.510,-52.020
700,77818.985000,270.826,3.521,1.992,471.638,-30.374,140.169,-112.040,45.510,-26.020
701,77819.25000,244.139,-49.792,-6.973,470.652,-32.325,140.123,-216.040,5.510,53.980
702,77819.65000,247.104,-44.762,-13.946,467.694,-37.294,136.084,-199.040,59.510,-20.020
703,77819.105000,256.000,-59.851,-4.981,468.717,-32.344,140.119,-61.040,149.510,-45.020
704,77819.125000,244.139,-29.674,5.977,468.722,-32.301,142.081,-54.040,62.510,-43.020
705,77819.165000,252.046,-29.674,-7.969,467.764,-31.340,142.101,-41.040,-71.490,-7.020
706,77819.205000,253.035,-6.538,-7.969,471.532,-41.075,138.950,-245.040,-187.490,49.980
707,77819.251000,256.000,-27.662,-43.829,470.571,-38.388,129.201,-513.040,-177.490,-16.020
708,77819.295000,243.151,-74.939,-0.996,468.615,-39.485,124.270,16.960,-64.490,-230.020
709,77819.330000,233.266,-102.098,22.911,470.710,-22.962,124.641,-277.040,66.510,-253.020
710,77819.370000,253.035,-51.804,27.891,471.652,-25.843,125.559,1.960,-22.490,-244.020
711,77819.410000,243.151,-29.674,1.992,469.719,-25.841,126.536,270.960,-162.490,-92.020
712,77819.430000,253.035,-9.556,-25.899,470.734,-20.092,122.743,192.960,-141.490,3.980
713,77819.470000,256.988,-19.615,-30.879,473.646,-19.093,122.772,205.960,-109.490,50.980
714,77819.510000,260.942,3.521,22.911,473.658,-17.216,119.871,177.960,-122.490,119.980
715,77819.550000,251.058,-26.656,-6.973,474.560,-23.118,115.819,49.960,-207.490,200.980
716,77819.590000,256.988,-53.815,-0.996,471.587,-29.101,109.796,-149.040,-220.490,255.980
717,77819.630000,261.931,-58.845,-23.907,474.417,-36.818,110.612,132.960,-112.490,156.980
718,77819.670000,258.965,-36.715,-69.728,475.431,-31.954,110.722,223.960,116.510,-4.020
719,77819.709000,257.977,-12.574,-19.922,471.570,-33.675,122.443,66.960,403.510,45.980
720,77819.750000,241.174,-19.615,15.938,470.559,-39.380,128.199,-199.040,374.510,132.980
721,77819.770000,247.104,-47.780,26.895,468.626,-39.377,129.175,-318.040,144.510,257.980
722,77819.810000,244.139,-54.821,-28.887,470.480,-48.938,134.851,63.960,230.510,281.980
723,77819.855000,255.012,-34.703,6.973,464.614,-56.632,140.552,138.960,223.510,237.980
724,77819.890000,250.069,-27.662,-37.852,461.721,-55.689,140.567,-322.040,235.510,183.980
725,77819.930000,260.942,-54.821,-19.922,463.580,-64.322,144.302,-579.040,206.510,114.980
726,77819.970000,274.780,-8.550,-44.825,460.681,-62.560,137.470,-1196.040,171.510,-130.020
727,77820.10000,316.293,40.739,-71.720,458.715,-65.513,136.420,-1831.040,305.510,-295.020
728,77820.49000,286.641,86.004,-35.860,454.802,-67.729,125.575,-1638.040,103.510,-355.020
729,77820.74000,269.838,49.792,18.926,453.942,-54.384,115.082,-316.040,-239.490,-311.020
730,77820.144000,227.336,38.727,-464.187,453.092,-33.897,76.309,1275.960,-2284.490,-159.020
731,77820.159000,430.950,86.004,-400.436,442.315,-31.778,0.822,222.960,-3721.490,683.980
732,77820.186000,472.463,75.945,-155.393,421.839,-28.222,-93.286,-834.040,-5003.490,-108.020
733,77820.226000,512.988,-33.697,52.794,401.509,-16.230,-156.805,1352.960,-5169.490,-777.020
734,77820.266000,512.988,-92.039,-7.969,348.040,-24.515,-245.362,3358.960,-4887.490,-1103.020
735,77820.306000,512.988,-80.974,79.689,282.790,-55.696,-310.915,3641.960,-4691.490,-1245.020
736,77820.346000,456.649,-39.733,197.230,212.809,-80.624,-354.765,2285.960,-4348.490,-1777.020
737,77820.386000,393.390,-113.163,209.183,157.542,-90.266,-371.766,941.960,-2817.490,-2190.020
738,77820.406000,300.479,-166.475,253.012,149.722,-99.921,-366.113,517.960,-1164.490,-2587.020
739,77820.446000,210.533,-240.912,213.167,184.693,-85.882,-360.825,49.960,1168.510,-2970.020
740,77820.486000,149.251,-294.224,132.482,236.102,-76.170,-338.926,298.960,2795.510,-3146.020
741,77820.531000,130.471,-371.678,35.860,334.170,-50.666,-281.275,984.960,4536.510,-2877.020
742,77820.573000,129.483,-351.560,-154.397,434.332,-16.578,-187.145,387.960,5114.510,-2146.020
743,77820.613000,147.274,-273.100,-325.728,492.015,20.590,-66.557,-922.040,4840.510,-1149.020
744,77820.653000,137.390,-166.475,-345.650,503.947,29.959,45.471,-2679.040,3958.510,438.980
745,77820.693000,121.575,28.668,-332.700,498.011,-1.296,127.141,-3852.040,3300.510,1131.980
746,77820.714000,177.915,322.389,-219.144,480.356,-36.352,173.397,-5296.040,3003.510,519.980
747,77820.748000,512.988,130.263,18.926,459.584,-88.459,195.733,-754.040,1195.510,2071.980
748,77820.788000,512.988,19.615,451.237,453.078,-67.490,225.604,1256.960,995.510,358.980
749,77820.828000,512.988,408.896,160.374,449.952,-89.028,218.255,-2486.040,-223.490,17.980
750,77820.868000,375.598,123.222,-223.128,451.419,-129.591,182.054,-1127.040,-736.490,-263.020
751,77820.908000,370.656,68.904,-201.214,466.205,-95.124,154.411,3188.960,-1409.490,-1020.020
752,77820.948000,343.969,91.033,-235.082,478.966,-61.539,87.517,3168.960,-2249.490,-1570.020
753,77820.988000,105.761,-78.963,-213.167,478.106,-34.989,15.536,-221.040,-3620.490,-2180.020
754,77821.28000,-34.595,-189.611,-37.852,447.246,-0.015,-101.432,-554.040,-3574.490,-2274.020
755,77821.48000,-15.815,-84.998,74.708,387.608,52.000,-180.818,321.960,-2628.490,-2437.020
756,77821.88000,93.900,-119.198,219.144,330.782,88.207,-230.147,1694.960,-1524.490,-2754.020
757,77821.128000,512.988,-270.083,-217.152,295.837,81.460,-256.849,5757.960,120.510,-2575.020
758,77821.168000,512.988,-2.515,-57.774,277.197,56.794,-267.242,4723.960,2.510,-2172.020
759,77821.208000,512.988,33.697,201.214,276.331,67.442,-267.988,-1356.040,9.510,1234.980
760,77821.248000,512.988,96.063,-21.914,292.882,75.650,-255.022,-3848.040,-381.490,2000.980
761,77821.294000,347.923,-134.287,-25.899,318.303,100.468,-240.689,-3534.040,-504.490,1898.980
762,77821.328000,225.359,-12.574,96.623,370.358,75.411,-211.715,-559.040,1129.510,2188.980
763,77821.348000,22.734,-8.550,-34.864,425.335,46.175,-153.409,-754.040,1964.510,1795.980
764,77821.388000,36.571,-38.727,-283.891,471.521,3.715,-74.820,-225.040,2834.510,1972.980
765,77821.428000,42.502,-55.827,-335.689,490.688,-29.538,-6.872,-1901.040,1932.510,2409.980
766,77821.468000,83.027,0.503,-408.405,489.465,-61.046,16.943,-1673.040,611.510,2465.980
767,77821.508000,138.378,24.644,-302.817,483.327,-96.874,22.999,-1969.040,-54.490,2378.980
768,77821.548000,126.517,146.358,-98.615,476.151,-136.918,14.250,-1371.040,150.510,1672.980
769,77821.588000,193.730,314.342,-82.677,476.166,-137.651,25.021,-809.040,1142.510,59.980
770,77821.628000,512.988,-121.210,197.230,478.484,-104.019,53.231,3213.960,1241.510,-1152.020
771,77821.648000,355.830,72.927,105.588,484.539,-83.078,76.264,553.960,1038.510,-701.020
772,77821.688000,272.803,-110.145,71.720,476.837,-79.270,76.332,-1822.040,519.510,-557.020
773,77821.728000,206.579,-145.352,-24.903,483.799,-61.535,85.566,318.960,463.510,-575.020
774,77821.768000,253.035,15.591,-8.965,480.058,-50.656,96.587,-799.040,358.510,-389.020
775,77821.811000,233.266,-57.839,-87.658,479.076,-51.679,94.601,-1290.040,254.510,-200.020
776,77821.854000,240.185,-121.210,33.868,478.142,-48.733,96.626,-1203.040,338.510,-243.020
777,77821.894000,305.421,-66.892,42.833,481.079,-46.612,103.544,-647.040,376.510,-204.020
778,77821.934000,283.676,18.609,-8.965,479.226,-39.684,110.558,235.960,230.510,-237.020
779,77821.974000,270.826,-8.550,-6.973,478.260,-39.671,111.537,285.960,-57.490,-39.020
780,77821.994000,248.093,5.532,-34.864,479.202,-42.553,112.456,75.960,-22.490,10.980
781,77822.34000,233.266,-28.668,-21.914,475.353,-41.512,117.374,335.960,253.510,29.980
782,77822.74000,234.255,-31.686,-28.887,475.420,-35.579,122.409,-142.040,122.510,-5.020
783,77822.114000,228.324,-48.786,-33.868,475.428,-34.630,121.450,-189.040,80.510,-19.020
784,77822.154000,232.278,-32.692,-16.934,474.424,-39.386,126.245,-98.040,224.510,-114.020
785,77822.194000,252.046,9.556,-25.899,470.634,-31.613,128.371,-512.040,152.510,-165.020
786,77822.234000,259.954,-41.745,20.918,471.534,-38.421,127.241,-307.040,104.510,13.980
787,77822.274000,238.208,-13.580,10.957,469.616,-35.636,122.396,-493.040,-175.490,108.980
788,77822.294000,271.815,-34.703,-1.992,474.371,-42.535,115.388,-179.040,-319.490,217.980
789,77822.334000,236.232,-53.815,-22.911,477.173,-50.511,104.430,-247.040,-346.490,232.980
790,77822.374000,285.652,-25.650,-52.794,476.171,-53.498,101.419,159.960,-107.490,91.980
791,77822.414000,241.174,-76.951,-11.953,479.118,-48.637,100.553,382.960,17.510,-263.020
792,77822.449000,237.220,-57.839,-13.946,475.312,-41.900,99.714,-182.040,99.510,-410.020
793,77822.489000,262.919,-31.686,15.938,475.354,-38.858,105.665,121.960,151.510,-259.020
794,77822.529000,255.012,-21.627,24.903,475.472,-26.280,103.983,176.960,-53.490,-91.020
795,77822.569000,243.151,-43.756,-10.957,480.255,-31.152,100.943,172.960,-230.490,26.980
796,77822.609000,250.069,-10.562,-43.829,479.279,-31.248,97.016,22.960,-154.490,29.980
797,77822.629000,254.023,-17.603,-37.852,483.163,-29.311,95.106,-80.040,-75.490,51.980
798,77822.669000,246.116,-25.650,-18.926,478.260,-35.270,91.041,-309.040,-88.490,110.980
799,77822.709000,242.162,-71.921,-7.969,481.155,-36.191,92.007,-377.040,-86.490,152.980
800,77822.755000,253.035,-64.880,-11.953,481.102,-41.110,88.956,-197.040,-47.490,142.980
801,77822.789000,262.919,-65.886,-23.907,480.096,-45.888,92.771,218.960,99.510,70.980
802,77822.829000,248.093,-27.662,-44.825,480.142,-42.802,100.684,465.960,319.510,-31.020
803,77822.874000,265.884,22.633,-39.844,479.244,-37.742,110.601,81.960,321.510,-106.020
804,77822.913000,248.093,-31.686,8.965,476.308,-42.495,116.374,-187.040,246.510,66.980
805,77822.930000,248.093,-58.845,11.953,473.448,-38.597,118.416,-49.040,198.510,90.980
806,77822.970000,251.058,-9.556,-4.981,471.428,-48.238,122.120,157.960,134.510,149.980
807,77823.10000,259.954,-19.615,-12.949,470.432,-52.045,125.956,-22.040,110.510,216.980
808,77823.50000,248.093,-22.633,-14.942,467.445,-60.811,125.755,-293.040,71.510,280.980
809,77823.94000,257.977,-46.774,-12.949,467.440,-60.854,123.793,-232.040,11.510,329.980
810,77823.133000,256.000,-26.656,-32.872,469.213,-76.477,118.547,-577.040,-33.490,186.980
811,77823.173000,285.652,6.538,-60.763,465.315,-78.542,114.570,-945.040,19.510,118.980
812,77823.213000,266.873,55.827,-104.591,465.246,-83.612,104.650,-1392.040,20.510,7.980
813,77823.255000,290.595,-6.538,-62.755,463.298,-82.876,94.856,-1448.040,62.510,-301.020
814,77823.275000,301.467,11.568,40.840,460.585,-60.833,83.572,-527.040,-158.490,-332.020
815,77823.315000,302.456,115.175,-492.078,453.875,-45.344,40.752,723.960,-2684.490,54.980
816,77823.371000,512.988,158.428,-383.502,436.216,-52.266,-45.737,110.960,-4369.490,743.980
817,77823.394000,512.988,-26.656,-86.661,401.125,-58.646,-144.018,1437.960,-5856.490,297.980
818,77823.434000,512.988,-78.963,16.934,369.960,-65.333,-213.860,2287.960,-6219.490,-415.020
819,77823.474000,456.649,-52.809,15.938,294.139,-84.493,-301.723,2928.960,-6188.490,-1134.020
820,77823.514000,461.591,-38.727,171.331,196.965,-118.617,-354.661,2800.960,-5624.490,-1580.020
821,77823.551000,404.263,15.591,200.218,122.202,-143.939,-370.090,1916.960,-4619.490,-1971.020
822,77823.573000,363.737,-104.110,289.868,88.290,-149.166,-372.239,41.960,-2346.490,-2771.020
823,77823.613000,262.919,-153.399,269.946,114.557,-134.305,-369.893,-276.040,-107.490,-3370.020
824,77823.653000,236.232,-272.094,168.342,191.335,-99.386,-360.130,-1198.040,2474.510,-3909.020
825,77823.693000,227.336,-332.448,50.802,259.337,-74.908,-335.907,-445.040,4027.510,-3817.020
826,77823.733000,165.066,-380.731,-40.840,376.006,-30.390,-260.143,388.960,5401.510,-2882.020
827,77823.773000,80.062,-254.994,-244.047,465.733,19.667,-141.163,-163.040,5547.510,-2011.020
828,77823.813000,45.467,-238.900,-333.697,503.172,61.729,-9.723,-1647.040,4813.510,-680.020
829,77823.853000,131.459,-137.305,-300.825,500.598,69.251,113.021,-2039.040,4505.510,325.980
830,77823.873000,261.931,373.690,-355.611,469.403,24.419,206.104,-3822.040,4126.510,310.980
831,77823.913000,512.988,513.509,488.093,459.246,-28.728,220.593,606.960,1082.510,1479.980
832,77823.951000,512.988,67.898,263.969,454.379,-34.342,232.227,-1077.040,311.510,716.980
833,77823.991000,512.988,2.515,-122.521,459.011,-51.230,212.248,-1827.040,-1139.490,-289.020
834,77824.31000,340.015,119.198,-372.545,473.389,-55.015,166.103,56.960,-1856.490,-410.020
835,77824.71000,256.988,28.668,-318.755,490.645,-52.839,80.871,-239.040,-2917.490,-1450.020
836,77824.111000,51.398,-145.352,-190.257,483.782,-41.448,-15.977,547.960,-3032.490,-1354.020
837,77824.151000,-41.514,-131.269,-76.700,445.149,-14.791,-110.590,-403.040,-2821.490,-1322.020
838,77824.191000,-29.653,-89.022,14.942,413.392,12.923,-160.056,-806.040,-2328.490,-1469.020
839,77824.211000,56.340,-33.697,57.774,357.661,62.689,-211.044,-814.040,-1195.490,-2022.020
840,77824.253000,330.131,-43.756,245.043,313.636,115.265,-227.622,509.960,134.510,-2646.020
841,77824.294000,512.988,-325.407,-44.825,282.729,122.493,-238.314,3662.960,943.510,-3145.020
842,77824.334000,512.988,49.792,200.218,282.255,78.329,-260.869,4727.960,327.510,-738.020
843,77824.374000,512.988,324.401,154.397,284.431,100.031,-245.673,-3683.040,-467.490,1052.980
844,77824.415000,474.440,-83.992,41.837,304.979,120.940,-230.456,-4577.040,-930.490,2181.980
845,77824.460000,431.938,-208.723,-18.926,323.459,129.102,-220.429,-2944.040,-542.490,1594.980
846,77824.495000,246.116,-73.933,59.767,377.231,81.734,-191.947,908.960,1274.510,2195.980
847,77824.515000,0.000,-67.898,-188.265,436.881,35.113,-132.055,928.960,2373.510,1989.980
848,77824.555000,-29.653,-26.656,-374.537,477.283,-6.325,-48.553,-1509.040,2033.510,2129.980
849,77824.591000,-15.815,-79.969,-398.444,490.597,-40.088,-1.222,-1358.040,1064.510,2337.980
850,77824.631000,40.525,68.904,-408.405,488.422,-68.823,16.768,-1133.040,463.510,2080.980
851,77824.671000,141.344,75.945,-236.078,489.239,-84.347,16.425,-1053.040,181.510,1627.980
852,77824.711000,85.004,437.061,97.619,485.301,-94.719,31.877,-225.040,946.510,614.980
853,77824.751000,512.988,43.756,190.257,489.348,-80.658,51.811,1015.960,1163.510,-789.020
854,77824.791000,435.892,-16.597,159.377,487.729,-52.996,74.977,909.960,1172.510,-589.020
855,77824.838000,231.290,-127.246,-35.860,489.776,-43.096,83.046,-1304.040,297.510,-647.020
856,77824.851000,233.266,-132.275,0.000,487.989,-29.372,90.212,-16.040,462.510,-680.020
857,77824.891000,227.336,4.527,-28.887,486.088,-28.183,101.021,-277.040,375.510,-238.020
858,77824.934000,205.591,-76.951,-29.883,483.265,-21.286,107.053,-85.040,401.510,-293.020
859,77824.973000,318.270,25.650,13.946,484.402,-5.570,115.249,691.960,328.510,-473.020
860,77825.11000,285.652,58.845,-0.996,482.596,7.097,118.468,684.960,78.510,-19.020
861,77825.56000,240.185,-71.921,-39.844,482.523,-0.648,119.277,-158.040,63.510,177.980
862,77825.96000,256.988,-66.892,4.981,480.568,-4.378,127.035,-329.040,409.510,-52.020
863,77825.136000,256.000,-51.804,11.953,476.783,2.553,135.027,-47.040,463.510,-182.020
864,77825.156000,255.012,-1.509,-10.957,475.876,7.527,141.019,-237.040,408.510,-144.020
865,77825.196000,256.988,26.656,-20.918,471.982,3.736,146.811,-1012.040,248.510,-59.020
866,77825.236000,249.081,-35.709,-6.973,474.792,-5.039,143.680,-1611.040,-27.490,-16.020
867,77825.276000,239.197,-75.945,23.907,474.722,-10.993,137.664,-1315.040,13.510,-67.020
868,77825.311000,248.093,-59.851,28.887,472.672,-22.684,136.419,-938.040,3.510,-63.020
869,77825.351000,262.919,-32.692,32.872,472.691,-20.742,136.462,-584.040,-20.490,-17.020
870,77825.391000,221.405,-69.910,-4.981,475.549,-23.778,129.536,-87.040,-120.490,33.980
871,77825.436000,267.861,17.603,-23.907,471.597,-31.647,126.411,-522.040,-261.490,57.980
872,77825.456000,257.977,-29.674,-34.864,478.415,-24.979,117.748,-7.040,-262.490,-34.020
873,77825.496000,247.104,-63.874,-10.957,476.479,-24.135,112.859,-98.040,-25.490,-275.020
874,77825.536000,231.290,-80.974,19.922,475.539,-22.116,116.824,-91.040,140.510,-281.020
875,77825.576000,263.907,-10.562,25.899,475.617,-14.328,117.978,138.960,37.510,-192.020
876,77825.616000,256.988,-42.750,26.895,473.768,-6.472,123.052,552.960,-77.490,-63.020
877,77825.654000,231.290,-64.880,8.965,478.615,-4.569,119.182,807.960,-127.490,91.980
878,77825.691000,261.931,37.721,-27.891,481.537,-2.599,119.232,464.960,-229.490,81.980
879,77825.731000,256.000,-2.515,17.930,484.355,-10.424,115.141,445.960,-263.490,228.980
880,77825.778000,234.255,-18.609,-26.895,481.455,-8.662,108.310,330.960,-296.490,271.980
881,77825.798000,264.896,-17.603,-22.911,488.108,-19.426,101.220,48.960,-311.490,274.980
882,77825.838000,262.919,-73.933,-29.883,485.189,-21.375,102.151,184.960,-187.490,209.980
883,77825.878000,248.093,-64.880,-56.778,486.119,-25.249,102.067,53.960,35.510,11.980
884,77825.918000,267.861,9.556,-52.794,485.177,-23.252,105.052,46.960,329.510,18.980
885,77825.958000,242.162,-19.615,0.996,482.258,-26.085,109.886,-259.040,339.510,141.980
886,77825.998000,240.185,-62.868,16.934,482.264,-26.905,116.732,-74.040,190.510,195.980
887,77826.38000,242.162,-35.709,-12.949,482.158,-38.490,119.417,85.960,153.510,210.980
888,77826.78000,258.965,-11.568,-23.907,478.228,-45.259,122.200,51.960,151.510,261.980
889,77826.98000,256.988,-53.815,-16.934,475.283,-50.099,124.048,-531.040,152.510,328.980
890,77826.138000,250.069,-87.010,0.000,476.161,-59.755,125.797,-254.040,190.510,250.980
891,77826.178000,273.792,-31.686,-49.805,472.317,-56.902,124.872,-625.040,213.510,-30.020
892,77826.218000,325.189,24.644,-119.533,472.348,-54.852,129.820,-1031.040,665.510,-399.020
893,77826.258000,301.467,27.662,-59.767,468.568,-45.224,128.065,-2027.040,286.510,-646.020
894,77826.297000,321.236,33.697,0.996,462.762,-42.649,115.361,-1381.040,-111.490,-639.020
895,77826.338000,297.514,-4.527,-492.078,456.972,-31.119,68.533,227.960,-2539.490,354.980
896,77826.384000,512.988,-16.597,-327.720,445.088,-39.150,-26.794,-777.040,-4580.490,1276.980
897,77826.418000,512.988,31.686,-142.444,423.583,-47.642,-94.694,954.960,-5807.490,939.980
898,77826.438000,508.046,21.627,30.879,380.683,-60.936,-195.107,1102.960,-5748.490,227.980
899,77826.478000,501.127,-66.892,83.673,319.381,-79.005,-283.897,1848.960,-5288.490,-621.020
900,77826.523000,316.293,-62.868,48.809,247.503,-99.185,-331.568,2428.960,-4382.490,-1390.020
901,77826.561000,423.042,-64.880,74.708,185.379,-115.861,-356.585,2258.960,-3894.490,-1891.020
902,77826.596000,312.340,-77.957,171.331,148.497,-126.165,-367.679,628.960,-2560.490,-2273.020
903,77826.636000,256.988,-195.646,150.412,144.715,-116.559,-370.416,-357.040,-953.490,-2613.020
904,77826.676000,226.347,-221.800,120.529,170.986,-102.540,-362.204,-385.040,1304.510,-2982.020
905,77826.716000,204.602,-254.994,77.696,241.866,-80.018,-339.980,-286.040,2745.510,-3259.020
906,77826.736000,129.483,-370.672,-9.961,329.301,-52.784,-287.216,617.960,4092.510,-2762.020
907,77826.778000,82.039,-336.472,-76.700,429.401,-24.564,-195.177,1039.960,4650.510,-1916.020
908,77826.818000,16.803,-191.623,-211.175,486.982,4.578,-86.537,132.960,4645.510,-1171.020
909,77826.858000,66.224,-144.346,-224.125,508.622,17.881,23.638,-1317.040,4190.510,-238.020
910,77826.898000,180.880,192.629,-201.214,502.983,19.420,96.230,-1799.040,4215.510,325.980
911,77826.938000,360.772,495.403,-271.938,479.531,-22.661,178.602,-7099.040,2154.510,216.980
912,77826.984000,512.988,126.240,136.467,473.420,-54.713,179.839,2493.960,38.510,1078.980
913,77827.14000,512.988,414.931,45.821,479.591,-15.046,171.907,3937.960,-548.490,-792.020
914,77827.54000,423.042,-27.662,-276.918,491.226,-3.239,130.025,50.960,-1577.490,-912.020
915,77827.74000,223.382,-29.674,-305.805,496.825,-8.683,56.366,-1617.040,-2597.490,-1240.020
916,77827.114000,90.934,-107.128,-210.179,487.531,-3.363,214.351,-664.040,-2955.490,-1283.020
917,77827.156000,39.537,-61.862,-126.506,464.737,7.058,-96.335,253.960,-2907.490,-1111.020
918,77827.201000,19.768,-78.963,-84.669,415.442,28.131,-175.405,-104.040,-2629.490,-1052.020
919,77827.236000,35.583,-62.868,-10.957,358.453,48.697,-229.985,9.960,-1982.490,-1165.020
920,77827.276000,110.703,-36.715,42.833,307.317,68.887,-260.045,530.960,-738.490,-1543.020
921,77827.316000,317.282,-18.609,243.051,273.636,87.888,-263.617,1487.960,638.510,-2018.020
922,77827.358000,512.988,32.692,-74.708,268.625,72.092,-273.785,5379.960,689.510,-2195.020
923,77827.378000,512.988,319.371,135.471,267.646,71.090,-274.790,875.960,300.510,49.980
924,77827.418000,512.988,80.974,47.813,275.597,90.798,-264.529,-4300.040,-673.490,1638.980
925,77827.458000,493.220,-14.585,-41.837,293.125,100.871,-255.443,-3216.040,-878.490,1912.980
926,77827.498000,389.436,-223.811,37.852,326.824,82.042,-244.022,-52.040,348.510,2030.980
927,77827.541000,208.556,-56.833,59.767,384.605,46.599,-204.480,279.960,1492.510,1835.980
928,77827.576000,-75.120,-50.798,-152.405,450.314,23.616,-131.302,-288.040,2519.510,1641.980
929,77827.616000,-48.432,-69.910,-306.802,485.148,8.162,-55.080,-1941.040,2330.510,2057.980
930,77827.656000,-7.907,35.709,-390.475,498.423,-28.621,-12.719,-1199.040,1636.510,2497.980
931,77827.676000,123.552,59.851,-319.751,495.180,-70.655,18.703,-1884.040,764.510,2341.980
932,77827.716000,152.216,108.134,-257.992,485.187,-104.622,22.831,-2033.040,479.510,1828.980
933,77827.756000,118.610,342.507,-37.852,484.303,-97.663,30.829,-1136.040,1131.510,-60.020
934,77827.796000,512.988,132.275,58.770,488.441,-75.684,57.804,2959.960,1287.510,-810.020
935,77827.835000,474.440,68.904,227.113,488.602,-62.696,74.763,-556.040,739.510,-334.020
936,77827.875000,277.745,-230.853,30.879,489.608,-57.918,70.949,-2269.040,351.510,-386.020
937,77827.915000,189.776,-31.686,-26.895,486.772,-53.783,83.783,259.960,534.510,-443.020
938,77827.955000,232.278,-31.686,-38.848,486.826,-48.864,86.835,-1146.040,193.510,-222.020
939,77827.995000,216.463,-102.098,-52.794,485.896,-45.874,90.822,-457.040,321.510,-129.020
940,77828.15000,218.440,-57.839,-19.922,487.884,-42.705,101.684,-160.040,345.510,-243.020
941,77828.55000,231.290,-11.568,-30.879,486.050,-33.836,108.741,-267.040,278.510,-267.020
942,77828.95000,312.340,20.621,2.988,479.362,-26.933,116.726,155.960,460.510,-219.020
943,77828.135000,290.595,-25.650,33.868,482.285,-25.826,121.660,-97.040,415.510,-78.020
944,77828.175000,249.081,-27.662,17.930,478.471,-20.923,125.683,-290.040,154.510,-32.020
945,77828.214000,262.919,-53.815,-2.988,482.305,-24.747,126.587,-154.040,95.510,-47.020
946,77828.258000,260.942,-18.609,-24.903,481.375,-21.758,130.574,-381.040,212.510,-176.020
947,77828.298000,250.069,-50.798,-13.946,477.543,-18.797,134.554,-346.040,289.510,-274.020
948,77828.318000,260.942,-16.597,26.895,475.697,-10.919,140.609,-537.040,210.510,-273.020
949,77828.358000,245.127,-27.662,42.833,474.659,-17.768,138.494,-264.040,56.510,-86.020
950,77828.398000,218.440,-44.762,-12.949,475.662,-13.896,137.601,40.960,-48.490,57.980
951,77828.438000,260.942,-11.568,-0.996,477.606,-12.907,137.627,194.960,-30.490,9.980
952,77828.478000,249.081,-9.556,23.907,476.604,-15.009,130.714,175.960,-174.490,50.980
953,77828.518000,252.046,-6.538,-16.934,476.538,-21.805,130.563,-146.040,-178.490,122.980
954,77828.558000,252.046,-55.827,-14.942,479.499,-15.045,127.777,55.960,-24.490,72.980
955,77828.598000,250.069,-57.839,34.864,481.464,-12.977,132.730,168.960,-84.490,-113.020
956,77828.638000,263.907,-22.633,-6.973,476.613,-14.038,130.735,339.960,-69.490,-204.020
957,77828.659000,256.988,-8.550,-8.965,478.647,-3.383,129.015,363.960,-114.490,-187.020
958,77828.699000,254.023,-2.515,-21.914,482.550,0.495,127.148,212.960,-74.490,-159.020
959,77828.739000,252.046,-5.532,-15.938,480.613,-0.430,130.065,-83.040,24.510,-139.020
960,77828.778000,259.954,1.509,9.961,479.728,7.392,133.179,-60.040,148.510,19.980
961,77828.818000,256.988,-17.603,18.926,481.618,3.463,130.154,-141.040,24.510,153.980
962,77828.856000,232.278,-24.644,-6.973,482.552,-0.368,132.032,-126.040,-125.490,119.980
963,77828.898000,253.035,-26.656,-17.930,484.398,-8.245,125.977,-232.040,-134.490,89.980
964,77828.938000,239.197,-44.762,-16.934,483.405,-10.261,122.988,-78.040,-219.490,32.980
965,77828.958000,249.081,-54.821,11.953,485.380,-5.453,120.157,159.960,-235.490,48.980
966,77828.998000,265.884,-54.821,-26.895,485.385,-5.409,122.119,485.960,-70.490,49.980
967,77829.38000,245.127,-38.727,-11.953,484.399,-7.361,122.074,928.960,90.510,27.980
968,77829.78000,259.954,22.633,-10.957,480.571,-3.472,124.114,364.960,25.510,36.980
969,77829.116000,261.931,-8.550,-11.953,486.338,-7.299,124.041,12.960,-89.490,132.980
970,77829.156000,254.023,-17.603,-35.860,480.567,-3.515,122.151,-49.040,69.510,131.980
971,77829.196000,258.965,-29.674,-19.922,484.429,-5.311,127.023,-176.040,263.510,74.980
972,77829.236000,258.965,-2.515,-24.903,483.442,-9.031,134.783,-193.040,308.510,67.980
973,77829.256000,238.208,-50.798,13.946,476.617,-15.764,140.504,-397.040,354.510,143.980
974,77829.296000,249.081,-62.868,21.914,476.616,-16.649,144.407,-98.040,301.510,125.980
975,77829.336000,249.081,-16.597,0.996,473.653,-23.430,146.211,-507.040,180.510,90.980
976,77829.376000,273.792,-2.515,-19.922,471.690,-25.477,142.239,-1014.040,65.510,105.980
977,77829.416000,256.988,-16.597,-64.747,473.544,-34.152,144.012,-832.040,291.510,124.980
978,77829.456000,297.514,-35.709,4.981,469.619,-39.131,139.970,-2535.040,331.510,-381.020
979,77829.496000,253.035,14.585,-27.891,465.651,-47.151,129.977,-1690.040,-105.490,-330.020
980,77829.543000,290.595,50.798,-492.078,467.516,-46.916,95.663,-1589.040,-1427.490,240.980
981,77829.575000,417.112,-131.269,-492.078,457.571,-56.654,10.109,-660.040,-3661.490,903.980
982,77829.595000,485.313,31.686,-211.175,437.098,-60.994,-45.929,1714.960,-4799.490,1041.980
983,77829.641000,444.788,146.358,40.840,409.786,-66.047,-131.416,909.960,-4918.490,432.980
984,77829.681000,473.452,-35.709,28.887,372.952,-55.639,-215.599,954.960,-4498.490,-781.020
985,77829.719000,396.355,-1.509,-0.996,324.343,-65.431,-286.527,1942.960,-4297.490,-1264.020
986,77829.760000,479.382,-60.857,-44.825,255.623,-58.484,-337.512,1304.960,-4047.490,-1733.020
987,77829.800000,374.610,-80.974,72.716,195.553,-61.679,-368.110,1122.960,-3209.490,-2064.020
988,77829.840000,353.853,-102.098,106.584,169.392,-64.069,-377.044,349.960,-2111.490,-2241.020
989,77829.880000,284.664,-225.823,80.685,157.856,-56.437,-377.880,90.960,-232.490,-2113.020
990,77829.900000,226.347,-233.870,77.696,179.175,-54.137,-370.919,9.960,1156.510,-2100.020
991,77829.938000,172.973,-319.371,51.798,240.213,-50.048,-344.222,660.960,2837.510,-2104.020
992,77829.979000,118.610,-307.301,-10.957,322.498,-55.784,-288.278,1381.960,3913.510,-1902.020
993,77830.19000,85.992,-313.336,-133.479,412.774,-42.308,-200.510,904.960,4579.510,-1418.020
994,77830.59000,100.819,-291.206,-185.276,478.914,-27.708,-95.115,-17.040,4420.510,-797.020
995,77830.99000,71.166,-165.470,-310.786,501.383,-20.113,-24.292,-1144.040,3984.510,-79.020
996,77830.139000,125.529,-109.139,-288.872,506.234,-37.542,63.591,-2890.040,3226.510,1112.980
997,77830.179000,196.695,39.733,-295.844,489.519,-78.134,122.475,-3603.040,2597.510,1669.980
998,77830.219000,245.127,236.888,-162.366,468.635,-141.891,144.552,-5007.040,1993.510,1265.980
999,77830.239000,512.988,-194.640,-271.938,450.797,-185.750,143.541,-3041.040,1042.510,1125.980
1000,77830.279000,512.988,-56.833,167.346,452.110,-155.126,167.759,2300.960,246.510,-402.020
1001,77830.319000,512.988,90.028,214.163,454.179,-141.494,169.047,2174.960,-630.490,-609.020
1002,77830.359000,312.340,-122.216,-12.949,466.968,-114.683,147.114,1046.960,-1365.490,-565.020
1003,77830.400000,254.023,-232.864,-157.385,476.715,-100.694,117.044,1118.960,-1564.490,-256.020
1004,77830.440000,111.691,-70.916,-123.518,486.289,-99.802,65.109,-512.040,-1984.490,14.980
1005,77830.480000,16.803,-94.051,-26.895,485.217,-99.056,11.187,-532.040,-1679.490,-146.020
1006,77830.520000,28.664,-26.656,83.673,481.361,-92.793,-11.237,33.960,-791.490,-7.020
1007,77830.540000,-17.792,-89.022,-158.381,488.271,-79.955,-4.073,-324.040,961.510,-476.020
1008,77830.580000,361.761,-515.521,-391.471,486.358,-78.011,-3.053,614.960,651.510,483.980
1009,77830.621000,439.846,-143.340,-6.973,490.448,-60.886,23.813,862.960,897.510,-327.020
1010,77830.656000,328.154,42.750,5.977,492.424,-60.479,41.478,69.960,861.510,-381.020
1011,77830.696000,313.328,-23.639,3.984,487.720,-48.681,50.556,-503.040,373.510,-379.020
1012,77830.736000,237.220,-38.727,-5.977,490.636,-47.639,52.547,-565.040,149.510,-162.020
1013,77830.793000,214.486,-31.686,-79.689,488.776,-40.776,56.618,-353.040,41.510,-129.020
1014,77830.816000,212.510,-28.668,-99.611,488.819,-35.964,54.763,135.960,188.510,-179.020
1015,77830.843000,218.440,-34.703,-87.658,488.896,-29.945,63.723,-159.040,338.510,-253.020
1016,77830.881000,237.220,-128.251,13.946,485.115,-22.086,69.774,88.960,459.510,-354.020
1017,77830.921000,262.919,-41.745,-37.852,485.215,-13.198,76.836,-178.040,377.510,-506.020
1018,77830.960000,264.896,2.515,-29.883,488.332,7.370,84.163,-324.040,320.510,-605.020
1019,77831.0,260.942,-48.786,30.879,481.674,17.206,93.194,8.960,490.510,-459.020
1020,77831.41000,243.151,-14.585,-21.914,479.816,23.207,102.149,50.960,410.510,-368.020
1021,77831.81000,253.035,6.538,-11.953,478.914,29.109,106.201,5.960,428.510,-332.020
1022,77831.121000,261.931,2.515,-4.981,473.236,39.948,116.236,-327.040,460.510,-310.020
1023,77831.161000,267.861,4.527,16.934,468.513,49.803,125.271,-341.040,463.510,-299.020
1024,77831.181000,268.849,12.574,18.926,469.519,51.949,134.146,-445.040,397.510,-258.020
1025,77831.220000,263.907,12.574,19.922,462.702,46.165,138.907,-360.040,295.510,-207.020
1026,77831.260000,251.058,0.503,21.914,463.751,53.122,145.928,-470.040,210.510,-182.020
1027,77831.300000,248.093,-14.585,24.903,461.771,48.270,146.797,-388.040,149.510,-136.020
1028,77831.341000,250.069,-6.538,14.942,457.989,56.992,147.963,-381.040,146.510,-139.020
1029,77831.381000,254.023,-8.550,11.953,457.063,60.024,153.913,-277.040,218.510,-142.020
1030,77831.421000,254.023,-2.515,30.879,456.096,60.015,153.910,-222.040,227.510,-150.020
1031,77831.460000,248.093,-23.639,46.817,449.313,57.209,161.679,-55.040,246.510,-96.020
1032,77831.480000,247.104,-3.521,35.860,449.433,68.039,168.784,134.960,252.510,-70.020
1033,77831.519000,250.069,17.603,24.903,446.537,68.076,171.721,75.960,222.510,-55.020
1034,77831.560000,256.000,10.562,29.883,444.612,69.028,171.738,54.960,213.510,-38.020
1035,77831.601000,256.000,5.532,35.860,441.732,70.100,177.640,-17.040,224.510,-48.020
1036,77831.643000,251.058,5.532,35.860,439.761,65.334,182.433,-69.040,240.510,-78.020
1037,77831.683000,256.000,6.538,45.821,433.015,67.275,185.404,-97.040,262.510,-61.020
1038,77831.723000,250.069,16.597,42.833,434.003,68.363,190.333,-91.040,299.510,-53.020
1039,77831.763000,257.977,19.615,31.875,430.210,74.345,199.284,-65.040,327.510,-70.020
1040,77831.783000,267.861,57.839,30.879,425.394,76.261,200.297,-400.040,310.510,-125.020
1041,77831.823000,278.734,93.045,5.977,420.541,72.546,210.011,-512.040,263.510,-188.020
1042,77831.863000,267.861,77.957,6.973,417.618,70.554,208.980,-888.040,138.510,-300.020
1043,77831.903000,248.093,25.650,14.942,410.882,75.235,204.167,-705.040,-73.490,-205.020
1044,77831.944000,329.143,-135.293,-45.821,412.851,81.748,190.586,881.960,-295.490,114.980
1045,77831.978000,290.595,89.022,-134.475,418.707,94.620,155.580,1293.960,-1432.490,241.980
1046,77832.24000,285.652,38.727,-137.463,418.578,91.621,107.461,1058.960,-1936.490,287.980
1047,77832.78000,240.185,53.815,-106.584,417.667,105.355,70.499,1649.960,-2269.490,84.980
1048,77832.99000,205.591,56.833,-77.696,407.979,115.703,15.791,1717.960,-2353.490,-69.020
1049,77832.119000,177.915,28.668,-51.798,402.192,128.139,-33.959,1109.960,-2211.490,-155.020
1050,77832.158000,166.054,36.715,-31.875,392.541,139.717,-76.871,1058.960,-1842.490,-312.020
1051,77832.198000,162.100,36.715,-12.949,384.817,147.710,-107.111,1046.960,-1309.490,-595.020
1052,77832.238000,201.637,38.727,19.922,373.341,164.728,-122.448,1057.960,-368.490,-820.020
1053,77832.284000,344.958,73.933,153.401,371.525,178.172,-128.037,416.960,329.510,-1170.020
1054,77832.324000,512.988,-201.682,64.747,370.875,205.864,-103.888,218.960,1849.510,-758.020
1055,77832.364000,300.479,228.841,49.805,380.718,216.379,-71.272,-412.040,1489.510,-243.020
1056,77832.404000,302.456,93.045,-12.949,378.947,224.968,-32.839,-2583.040,605.510,-128.020
1057,77832.424000,237.220,73.933,-54.786,383.756,219.470,-20.203,193.960,578.510,254.980
1058,77832.464000,219.429,37.721,12.949,385.689,218.583,-17.276,621.960,371.510,493.980
1059,77832.504000,245.127,29.674,-8.965,391.368,205.997,-18.524,321.960,141.510,557.980
1060,77832.544000,261.931,39.733,-56.778,393.223,198.206,-20.655,578.960,123.510,561.980
1061,77832.579000,249.081,1.509,-40.840,399.878,186.578,-22.860,458.960,184.510,493.980
1062,77832.619000,255.012,0.503,-31.875,404.590,173.098,-20.207,304.960,231.510,438.980
1063,77832.659000,255.012,2.515,-31.875,403.552,165.365,-18.420,408.960,269.510,368.980
1064,77832.701000,250.069,8.550,-31.875,408.339,159.651,-15.595,401.960,261.510,327.980
1065,77832.743000,255.012,-4.527,-16.934,410.262,157.793,-12.690,238.960,200.510,281.980
1066,77832.763000,256.000,-8.550,-22.911,414.037,147.238,-8.993,214.960,171.510,221.980
1067,77832.803000,250.069,-7.544,-25.899,416.009,151.140,-8.903,162.960,172.510,155.980
1068,77832.843000,255.012,-6.538,-20.918,414.004,143.397,-7.117,55.960,181.510,129.980
1069,77832.883000,252.046,-11.568,-13.946,412.104,146.356,-4.114,82.960,156.510,128.980
1070,77832.923000,255.012,-18.609,-6.973,413.005,139.569,-4.263,79.960,104.510,100.980
1071,77832.963000,254.023,-15.591,-8.965,413.061,144.510,-0.230,50.960,53.510,63.980
1072,77833.3000,258.965,-10.562,-10.957,415.893,137.699,-2.337,-78.040,3.510,32.980
1073,77833.43000,254.023,-15.591,-10.957,417.885,143.543,-2.203,-160.040,-27.490,15.980
1074,77833.63000,252.046,-17.603,-13.946,416.790,129.984,-0.545,-107.040,-34.490,5.980
1075,77833.104000,252.046,-12.574,-21.914,412.974,135.750,-1.405,-78.040,-23.490,7.980
1076,77833.144000,245.127,-18.609,-15.938,415.916,139.684,-0.331,-37.040,13.510,7.980
1077,77833.184000,249.081,-20.621,-18.926,416.881,138.787,2.593,11.960,50.510,7.980
1078,77833.224000,250.069,-19.615,-19.922,415.911,138.756,1.609,78.960,104.510,-1.020
1079,77833.264000,250.069,-12.574,-14.942,415.954,142.683,3.658,15.960,109.510,-6.020
1080,77833.299000,256.000,-8.550,-12.949,416.952,145.626,4.706,56.960,115.510,4.980
1081,77833.339000,250.069,-16.597,-4.981,418.863,142.776,6.608,29.960,95.510,1.980
1082,77833.383000,255.012,-14.585,-4.981,417.886,141.795,6.584,45.960,74.510,-2.020
1083,77833.403000,256.000,-11.568,-7.969,415.960,142.747,6.601,26.960,63.510,-33.020
1084,77833.443000,256.000,-13.580,-10.957,415.984,144.732,8.607,32.960,64.510,-42.020
1085,77833.483000,252.046,-11.568,-8.965,418.919,147.716,10.641,-16.040,79.510,-55.020
1086,77833.523000,254.023,-8.550,-5.977,417.933,145.765,10.595,13.960,93.510,-51.020
1087,77833.563000,255.012,-8.550,-6.973,416.030,148.702,12.618,26.960,102.510,-39.020
1088,77833.603000,253.035,-13.580,-8.965,414.034,141.046,18.328,39.960,121.510,-40.020
1089,77833.643000,256.000,-10.562,-4.981,415.987,143.006,18.375,71.960,173.510,-53.020
1090,77833.683000,254.023,-5.532,0.996,415.098,150.785,19.527,52.960,193.510,-57.020
1091,77833.703000,253.035,-9.556,12.949,414.184,154.810,26.479,-31.040,168.510,-61.020
1092,77833.743000,252.046,-9.556,15.938,415.094,148.994,26.352,-10.040,96.510,-42.020
1093,77833.783000,255.012,-5.532,13.946,413.225,154.887,30.401,19.960,45.510,-32.020
1094,77833.823000,255.012,-6.538,2.988,416.026,145.142,27.249,16.960,30.510,-32.020
1095,77833.863000,254.023,-9.556,-2.988,414.211,156.838,30.446,7.960,64.510,-46.020
1096,77833.903000,255.012,-8.550,-5.977,410.308,152.960,32.313,-17.040,167.510,-88.020
1097,77833.943000,263.907,0.503,0.996,410.369,157.944,38.308,-86.040,260.510,-116.020
1098,77833.983000,256.000,-5.532,20.918,405.536,157.055,44.162,-50.040,313.510,-118.020
1099,77834.3000,247.104,-2.515,36.856,411.420,164.037,50.214,71.960,225.510,-92.020
1100,77834.43000,241.174,8.550,43.829,410.422,161.094,49.165,13.960,39.510,14.980
1101,77834.83000,248.093,1.509,31.875,409.526,168.808,47.374,32.960,-91.490,62.980
1102,77834.123000,252.046,-4.527,12.949,411.430,165.893,46.332,18.960,-89.490,67.980
1103,77834.163000,256.000,-1.509,7.969,413.287,158.123,45.183,54.960,-30.490,64.980
1104,77834.204000,259.954,-4.527,7.969,410.409,160.964,43.279,96.960,48.510,52.980
1105,77834.244000,252.046,-9.556,16.934,412.402,165.945,48.297,100.960,129.510,14.980
1106,77834.284000,249.081,-6.538,21.914,410.427,162.021,47.225,-3.040,95.510,-9.020
1107,77834.324000,250.069,0.503,29.883,413.367,165.933,47.318,-51.040,-5.490,0.980
1108,77834.344000,250.069,0.503,22.911,412.402,165.945,48.297,-80.040,-83.490,22.980
1109,77834.384000,249.081,-1.509,17.930,413.278,157.152,45.161,-34.040,-111.490,65.980
1110,77834.424000,250.069,-10.562,16.934,410.409,160.964,43.279,-19.040,-111.490,81.980
1111,77834.464000,260.942,-3.521,13.946,411.312,154.199,44.111,7.960,-80.490,82.980
1112,77834.504000,253.035,-3.521,15.938,413.271,157.088,42.218,39.960,-59.490,76.980
1113,77834.544000,257.977,-11.568,18.926,414.222,156.061,39.255,-61.040,-79.490,39.980
1114,77834.584000,249.081,-6.538,20.918,413.248,155.987,36.310,-96.040,-141.490,18.980
1115,77834.635000,283.676,-26.656,60.763,415.134,151.130,35.225,-363.040,-246.490,28.980
1116,77834.644000,265.884,-11.568,6.973,414.209,155.932,33.368,23.960,-133.490,2.980
1117,77834.684000,259.954,-2.515,-12.949,412.260,154.899,31.380,-243.040,-102.490,-49.020
1118,77834.724000,251.058,-5.532,6.973,415.172,155.898,31.408,-336.040,-24.490,-75.020
1119,77834.765000,250.069,-17.603,13.946,414.168,151.142,36.204,-271.040,-31.490,-71.020
1120,77834.805000,255.012,-0.503,10.957,416.103,151.161,36.208,-221.040,-70.490,-52.020
1121,77834.845000,254.023,1.509,8.965,412.257,153.993,34.302,-263.040,-145.490,-4.020
1122,77834.885000,246.116,-15.591,16.934,411.305,156.767,28.477,-257.040,-222.490,7.980
1123,77834.925000,248.093,2.515,10.957,416.147,157.742,26.548,-431.040,-381.490,-2.020
1124,77834.965000,251.058,-10.562,11.953,416.044,148.831,18.505,-503.040,-532.490,10.980
1125,77834.985000,250.069,-1.509,20.918,413.120,149.472,4.783,-532.040,-783.490,38.980
1126,77835.25000,254.023,-0.503,2.988,417.932,148.397,-2.095,-469.040,-921.490,96.980
1127,77835.65000,264.896,4.527,-6.973,412.068,146.011,-19.812,-377.040,-1092.490,207.980
1128,77835.105000,276.757,17.603,-27.891,415.824,138.799,-40.558,-332.040,-1181.490,360.980
1129,77835.145000,280.710,31.686,-54.786,409.876,128.560,-62.373,-354.040,-1227.490,531.980
1130,77835.185000,284.664,15.591,-46.817,408.652,107.601,-88.338,-405.040,-1244.490,679.980
1131,77835.223000,310.363,10.562,-32.872,404.610,94.468,-110.212,-824.040,-1314.490,849.980
1132,77835.264000,315.305,-51.804,-74.708,401.483,74.677,-126.349,-1485.040,-1394.490,1052.980
1133,77835.285000,318.270,-80.974,-88.654,388.796,68.212,-150.055,-1592.040,-1361.490,1043.980
1134,77835.325000,243.151,-105.116,-124.514,380.952,60.973,-166.903,-1387.040,-1024.490,793.980
1135,77835.365000,165.066,-102.098,-154.397,373.110,52.872,-178.867,-732.040,-761.490,551.980
1136,77835.405000,69.189,-2.515,-56.778,370.967,33.242,-188.134,339.960,-169.490,131.980
1137,77835.445000,53.375,15.591,-22.911,372.938,35.375,-180.237,1118.960,559.510,-197.020
1138,77835.485000,75.120,33.697,-3.984,384.496,26.189,-161.784,1605.960,1415.510,-745.020
1139,77835.525000,131.459,-270.083,-492.078,388.430,28.600,-142.109,1339.960,1149.510,-900.020
1140,77835.566000,512.988,-111.151,-102.599,385.527,32.089,-158.709,-128.040,-601.490,180.980
1141,77835.606000,240.185,136.299,-118.537,381.576,25.989,-169.640,501.960,-588.490,-746.020
1142,77835.626000,356.819,117.187,-151.409,373.774,22.677,-184.440,2492.960,-618.490,-758.020
1143,77835.666000,185.822,-42.750,-176.311,366.997,25.200,-199.108,1511.960,-819.490,-1123.020
1144,77835.706000,104.772,-42.750,-105.588,358.157,15.040,-216.023,2517.960,-702.490,-1066.020
1145,77835.746000,89.946,39.733,-46.817,355.222,12.056,-218.057,1407.960,-298.490,-1413.020
1146,77835.786000,77.097,13.580,-50.802,350.520,26.507,-220.688,426.960,65.510,-1613.020
1147,77835.821000,80.062,36.715,-36.856,350.747,48.060,-211.383,-28.040,752.510,-2038.020
1148,77835.861000,149.251,-21.627,-22.911,353.037,82.297,-199.831,292.960,1485.510,-2125.020
1149,77835.918000,256.988,-53.815,-33.868,362.955,99.694,-163.140,1424.960,2356.510,-2257.020
1150,77835.926000,512.988,-263.041,-268.949,366.072,117.629,-143.122,2266.960,2160.510,-1851.020
1151,77835.961000,412.170,-235.882,-15.938,366.956,108.037,-138.429,2054.960,825.510,-575.020
1152,77836.1000,226.347,325.407,-48.809,369.902,110.245,-127.587,-1679.040,776.510,-387.020
