Sample, Time, ACCX, ACCY, ACCZ, MAGX, MAGY, MAGZ, GYRX, GYRY, GYRZ
0,77665.11000,257.977,90.028,18.926,381.002,193.573,171.426,-1045.040,-538.490,191.980
1,77665.50000,246.116,86.004,10.957,378.997,186.715,169.309,-1006.040,-471.490,79.980
2,77665.90000,247.104,65.886,-37.852,385.649,175.066,166.122,-1241.040,-552.490,25.980
3,77665.130000,257.977,-17.603,-98.615,389.476,170.292,167.986,-1293.040,-728.490,173.980
4,77665.170000,205.591,-3.521,-99.611,399.062,163.375,158.046,-677.040,-845.490,29.980
5,77665.210000,208.556,-14.585,-80.685,410.699,168.148,149.350,-117.040,-813.490,-3.020
6,77665.250000,210.533,-59.851,-42.833,415.603,177.645,137.803,252.960,-550.490,-71.020
7,77665.290000,253.035,64.880,152.405,423.431,188.249,131.191,1348.960,27.510,-397.020
8,77665.310000,359.784,132.275,323.735,413.019,209.720,141.452,648.960,1010.510,-682.020
9,77665.350000,309.375,18.609,-0.996,408.353,222.769,163.306,-255.040,605.510,-545.020
10,77665.390000,229.313,81.980,6.973,400.638,221.161,181.887,-1009.040,584.510,-489.020
11,77665.431000,232.278,50.798,42.833,396.725,214.543,191.538,-327.040,364.510,-140.020
12,77665.471000,239.197,45.768,60.763,395.849,223.336,194.674,339.960,291.510,25.980
13,77665.511000,239.197,39.733,56.778,392.028,228.175,195.754,-37.040,23.510,51.980
14,77665.551000,247.104,55.827,32.872,394.846,219.465,195.566,-54.040,-89.490,96.980
15,77665.591000,251.058,45.768,22.911,396.793,221.361,192.670,153.960,-104.490,192.980
16,77665.631000,246.116,45.768,20.918,399.592,211.594,188.537,384.960,-34.490,199.980
17,77665.651000,247.104,45.768,21.914,400.590,215.422,185.682,289.960,-21.490,170.980
18,77665.692000,250.069,50.798,19.922,402.481,211.493,182.657,46.960,-45.490,140.980
19,77665.732000,251.058,41.745,23.907,402.483,211.515,183.638,26.960,-48.490,143.980
20,77665.772000,249.081,39.733,23.907,404.383,208.556,180.634,78.960,-36.490,162.980
21,77665.812000,249.081,34.703,27.891,408.270,211.399,175.802,133.960,-33.490,172.980
22,77665.849000,249.081,35.709,23.907,408.215,205.595,176.654,185.960,-40.490,182.980
23,77665.890000,249.081,39.733,21.914,408.241,208.486,175.738,154.960,-40.490,187.980
24,77665.930000,245.127,44.762,13.946,412.092,206.582,175.703,135.960,-33.490,210.980
25,77665.950000,242.162,21.627,29.883,410.115,202.637,173.650,-6.040,-31.490,229.980
26,77665.990000,256.000,19.615,12.949,413.898,193.915,172.484,189.960,55.510,187.980
27,77666.30000,260.942,25.650,9.961,412.947,194.941,175.447,43.960,79.510,103.980
28,77666.70000,257.977,18.609,23.907,411.929,189.171,178.259,57.960,115.510,23.980
29,77666.110000,249.081,27.662,24.903,410.976,190.176,180.240,-79.040,55.510,-70.020
30,77666.150000,251.058,26.656,28.887,409.118,197.945,181.389,-203.040,-24.490,-99.020
31,77666.190000,240.185,35.709,36.856,414.813,187.258,178.222,-208.040,-181.490,-30.020
32,77666.230000,241.174,33.697,32.872,412.017,198.815,175.531,-140.040,-295.490,29.980
33,77666.270000,248.093,29.674,21.914,418.672,188.072,169.422,-404.040,-388.490,33.980
34,77666.290000,248.093,17.603,19.922,416.719,187.881,161.569,-397.040,-379.490,75.980
35,77666.330000,256.000,39.733,8.965,425.402,185.981,159.584,-138.040,-366.490,137.980
36,77666.370000,256.000,30.680,18.926,427.279,181.922,150.671,-119.040,-384.490,181.980
37,77666.410000,262.919,36.715,-2.988,432.040,175.950,141.723,165.960,-344.490,212.980
38,77666.450000,248.093,16.597,-13.946,430.104,177.679,132.931,519.960,-318.490,142.980
39,77666.490000,240.185,0.503,-20.918,431.988,174.569,123.060,1000.960,-256.490,91.980
40,77666.530000,244.139,-20.621,-14.942,433.001,181.181,114.383,771.960,-148.490,58.980
41,77666.570000,242.162,-41.745,-11.953,433.985,183.995,109.544,229.960,-25.490,68.980
42,77666.610000,274.780,51.804,-15.938,435.854,176.333,113.300,-288.040,105.510,-99.020
43,77666.630000,262.919,41.745,-17.930,432.993,179.347,119.245,-125.040,171.510,-123.020
44,77666.670000,251.058,23.639,-6.973,430.175,187.172,123.336,12.960,181.510,-38.020
45,77666.710000,249.081,2.515,7.969,431.100,181.485,129.095,-48.040,162.510,-52.020
46,77666.750000,254.023,18.609,-5.977,429.207,186.278,127.236,191.960,167.510,-47.020
47,77666.790000,252.046,46.774,8.965,429.240,189.233,129.263,-10.040,102.510,-16.020
48,77666.830000,258.965,6.538,-6.973,429.214,186.342,130.180,15.960,125.510,-6.020
49,77666.870000,256.000,20.621,-6.973,428.322,193.215,134.253,-132.040,167.510,-83.020
50,77666.910000,255.012,15.591,-1.992,427.391,195.320,142.143,-276.040,209.510,-135.020
51,77666.942000,258.965,18.609,5.977,426.407,192.506,146.982,-152.040,301.510,-161.020
52,77666.972000,247.104,23.639,15.938,423.520,192.629,153.843,-134.040,282.510,-164.020
53,77667.12000,246.116,18.609,22.911,421.601,192.761,160.707,-116.040,226.510,-128.020
54,77667.52000,250.069,35.709,19.922,415.852,197.645,164.726,-15.040,206.510,-91.020
55,77667.92000,248.093,30.680,29.883,413.939,199.589,165.745,-156.040,98.510,-51.020
56,77667.132000,246.116,19.615,35.860,416.810,195.799,168.609,50.960,69.510,16.980
57,77667.172000,255.012,40.739,21.914,415.814,192.877,168.542,39.960,-45.490,49.980
58,77667.212000,249.081,22.633,25.899,415.838,196.631,162.742,13.960,-86.490,74.980
59,77667.252000,248.093,31.686,19.922,415.852,197.645,164.726,74.960,-100.490,98.980
60,77667.272000,250.069,17.603,18.926,420.610,189.882,162.602,34.960,-138.490,90.980
61,77667.312000,256.988,21.627,10.957,420.617,190.831,161.642,-4.040,-126.490,75.980
62,77667.352000,255.012,19.615,1.992,419.676,194.597,156.821,-4.040,-69.490,26.980
63,77667.392000,250.069,17.603,2.988,418.642,186.907,160.571,-77.040,-21.490,-43.020
64,77667.432000,251.058,28.668,1.992,415.798,192.726,161.674,-123.040,50.510,-94.020
65,77667.472000,244.139,19.615,14.942,417.771,196.628,161.765,109.960,134.510,-100.020
66,77667.512000,242.162,21.627,50.802,416.842,201.387,157.946,391.960,-80.490,59.980
67,77667.552000,235.243,12.574,69.728,421.680,204.088,146.248,735.960,-404.490,210.980
68,77667.592000,239.197,13.580,65.743,425.430,195.927,126.462,1124.960,-929.490,450.980
69,77667.612000,251.058,67.898,86.661,437.881,191.325,88.140,1313.960,-1523.490,647.980
70,77667.652000,450.718,98.075,56.778,440.553,177.697,40.772,767.960,-1990.490,893.980
71,77667.692000,467.521,111.151,76.700,440.255,158.107,-11.639,74.960,-2316.490,746.980
72,77667.732000,389.436,-51.804,19.922,430.218,130.764,-59.339,547.960,-1941.490,474.980
73,77667.772000,249.081,-37.721,-34.864,426.160,116.595,-84.178,1090.960,-963.490,455.980
74,77667.812000,59.305,-76.951,101.603,423.068,96.265,-80.713,286.960,583.510,342.980
75,77667.852000,45.467,-16.597,58.770,422.128,91.228,-44.543,751.960,2244.510,7.980
76,77667.892000,107.737,25.650,-35.860,425.132,89.595,12.306,-28.040,2978.510,-266.020
77,77667.912000,256.000,32.692,-161.370,413.669,90.884,76.053,-2075.040,2959.510,-661.020
78,77667.952000,296.525,-3.521,-239.066,400.137,80.309,130.707,-2835.040,2474.510,-846.020
79,77667.992000,465.544,-515.521,-398.444,396.179,64.457,161.728,-2770.040,953.510,470.980
80,77668.32000,319.259,302.271,114.553,392.281,61.507,161.654,803.960,186.510,-172.020
81,77668.72000,434.903,43.756,32.872,392.364,71.108,156.964,1482.960,-67.490,-30.020
82,77668.112000,242.162,35.709,42.833,392.458,80.816,157.180,-139.040,-106.490,71.980
83,77668.152000,258.965,-28.668,21.914,396.206,68.233,156.908,-197.040,52.510,32.980
84,77668.192000,278.734,-17.603,49.805,394.325,73.133,159.955,-276.040,168.510,-152.020
85,77668.231000,272.803,54.821,54.786,392.462,79.090,166.948,-191.040,178.510,-178.020
86,77668.252000,326.178,141.328,69.728,393.340,69.434,168.697,-733.040,65.510,4.980
87,77668.292000,344.958,192.629,53.790,388.427,60.736,172.416,-1406.040,-188.490,125.980
88,77668.332000,379.552,285.171,-39.844,398.870,43.083,159.298,-1427.040,-674.490,-208.020
89,77668.372000,320.247,-10.562,-128.498,405.705,54.325,137.987,705.960,-976.490,-794.020
90,77668.411000,403.274,81.980,-202.210,406.934,88.531,104.426,1543.960,-1703.490,-1107.020
91,77668.451000,401.297,-228.841,-213.167,410.915,111.654,51.011,-668.040,-2763.490,-1046.020
92,77668.497000,210.533,-228.841,-196.233,407.969,121.766,-17.417,616.960,-3476.490,-565.020
93,77668.537000,133.436,-216.770,-130.490,402.227,139.034,-68.040,-539.040,-3785.490,100.980
94,77668.577000,99.830,-237.894,-83.673,387.480,129.594,-137.908,-731.040,-3739.490,617.980
95,77668.597000,53.375,-212.747,-23.907,372.791,123.348,-194.956,-287.040,-3145.490,1281.980
96,77668.637000,69.189,-174.523,28.887,361.866,103.805,-240.523,113.960,-2408.490,1593.980
97,77668.677000,100.819,-154.405,22.911,359.560,71.166,-267.730,521.960,-1157.490,1906.980
98,77668.716000,113.668,-108.134,-28.887,371.687,27.362,-279.464,776.960,-209.490,1809.980
99,77668.756000,177.915,-81.980,-10.957,393.635,-7.027,-264.491,934.960,1084.510,1444.980
100,77668.796000,265.884,9.556,-33.868,416.613,-36.402,-242.539,781.960,2109.510,1101.980
101,77668.855000,322.224,4.527,-44.825,455.376,-39.800,-193.500,-844.040,2640.510,161.980
102,77668.881000,385.483,125.234,-60.763,484.667,-23.747,-138.165,-1066.040,2669.510,-665.020
103,77668.895000,512.988,-88.016,-24.903,492.430,-24.319,-123.451,-197.040,1023.510,359.980
104,77668.935000,242.162,-22.633,-216.156,502.212,-20.557,-89.024,558.960,1306.510,-341.020
105,77668.975000,242.162,108.134,-87.658,506.261,-6.474,-68.109,726.960,774.510,-479.020
106,77669.15000,285.652,-27.662,-70.724,510.174,-5.142,-53.361,398.960,580.510,-299.020
107,77669.55000,230.301,-27.662,-55.782,508.285,-2.075,-45.452,342.960,535.510,-213.020
108,77669.101000,246.116,-81.980,-46.817,510.268,1.050,-36.552,175.960,388.510,-38.020
109,77669.135000,219.429,-54.821,-61.759,511.160,-8.477,-28.916,428.960,269.510,-9.020
110,77669.174000,255.012,-31.686,-43.829,510.282,0.295,-26.762,401.960,70.510,19.980
111,77669.214000,277.745,-20.621,-48.809,512.207,-0.657,-26.779,307.960,-166.490,60.980
112,77669.233000,279.722,-27.662,-57.774,504.344,-10.722,-39.768,294.960,-529.490,164.980
113,77669.274000,259.954,-62.868,-91.642,507.173,-14.922,-55.546,183.960,-647.490,171.980
114,77669.326000,257.977,-75.945,-60.763,501.329,-17.114,-64.433,184.960,-596.490,94.980
115,77669.369000,260.942,-56.833,-67.735,499.310,-23.217,-76.340,81.960,-671.490,166.980
116,77669.394000,341.992,23.639,-36.856,497.352,-21.704,-94.943,-403.040,-872.490,412.980
117,77669.433000,435.892,20.621,24.903,489.432,-34.077,-124.654,-1105.040,-1338.490,797.980
118,77669.473000,371.645,-156.417,-51.798,479.506,-54.193,-152.580,-1302.040,-1321.490,1080.980
119,77669.524000,141.344,-173.517,-182.288,460.004,-64.651,-178.351,-1248.040,-1387.490,1111.980
120,77669.552000,3.954,-22.633,-148.420,441.566,-67.138,-195.116,-1755.040,-1114.490,965.980
121,77669.572000,-43.490,-72.927,-130.490,436.677,-72.083,-197.198,501.960,145.510,328.980
122,77669.612000,-36.571,-93.045,-157.385,437.554,-86.140,-174.952,1631.960,936.510,238.980
123,77669.654000,-2.965,11.568,-219.144,447.222,-95.798,-132.978,870.960,1331.510,-39.020
124,77669.694000,57.328,-7.544,-206.195,455.116,-86.316,-102.350,210.960,1256.510,-536.020
125,77669.734000,116.633,-34.703,-124.514,470.807,-72.681,-62.788,-20.040,1630.510,-989.020
126,77669.774000,285.652,-515.521,-492.078,475.990,-42.904,-34.658,-1026.040,700.510,-1298.020
127,77669.814000,94.888,-164.464,-209.183,481.009,-29.675,-8.856,3255.960,1483.510,-839.020
128,77669.854000,345.946,163.458,-113.556,491.841,-16.303,20.883,-565.040,1057.510,-759.020
129,77669.879000,356.819,-6.538,-29.883,493.933,-5.087,44.672,1169.960,1193.510,-727.020
130,77669.919000,323.212,35.709,51.798,492.260,16.771,68.690,389.960,715.510,-628.020
131,77669.958000,258.965,-25.650,-33.868,493.396,32.487,76.886,-122.040,284.510,-468.020
132,77669.997000,252.046,-44.762,-36.856,492.546,43.286,83.008,290.960,259.510,-368.020
133,77670.45000,244.139,-39.733,-43.829,491.578,43.277,83.006,-57.040,212.510,-330.020
134,77670.77000,241.174,-34.703,-47.813,489.768,55.016,88.166,365.960,249.510,-278.020
135,77670.117000,240.185,-35.709,-19.922,487.877,58.946,91.191,306.960,247.510,-257.020
136,77670.157000,254.023,-33.697,-28.887,488.941,67.801,96.293,330.960,235.510,-178.020
137,77670.197000,244.139,-36.715,-22.911,488.048,74.674,100.367,493.960,214.510,-133.020
138,77670.217000,246.116,-17.603,-20.918,487.062,72.722,100.321,343.960,135.510,-73.020
139,77670.257000,243.151,-25.650,-27.891,485.139,73.696,101.319,223.960,58.510,-14.020
140,77670.299000,271.815,-1.509,-31.875,486.156,78.581,102.411,34.960,38.510,-14.020
141,77670.337000,261.931,-42.750,2.988,485.188,77.687,106.311,152.960,107.510,25.980
142,77670.377000,260.942,-18.609,-16.934,489.064,77.790,109.264,74.960,75.510,65.980
143,77670.417000,273.792,-5.532,-22.911,486.096,70.965,109.106,154.960,97.510,115.980
144,77670.457000,255.012,-17.603,-24.903,486.997,64.179,108.957,78.960,18.510,181.980
145,77670.504000,270.826,-13.580,-10.957,486.056,67.060,108.039,-238.040,-261.490,240.980
146,77670.533000,300.479,-9.556,66.739,488.790,52.267,95.948,-448.040,-545.490,375.980
147,77670.554000,425.019,5.532,158.381,492.538,44.969,71.278,-798.040,-1072.490,797.980
148,77670.594000,277.745,-83.992,-43.829,491.267,16.524,57.895,222.960,-940.490,708.980
149,77670.634000,254.023,-178.546,-21.914,488.224,7.219,33.165,479.960,-1149.490,596.980
150,77670.673000,172.973,-72.927,46.817,479.410,-0.935,19.237,668.960,-356.490,179.980
151,77670.714000,93.900,-83.992,113.556,473.762,11.953,34.221,1284.960,710.510,-245.020
152,77670.754000,110.703,24.644,89.650,462.445,34.019,71.952,1024.960,1680.510,-843.020
153,77670.799000,235.243,-37.721,-0.996,442.346,47.348,113.393,-506.040,1828.510,-947.020
154,77670.833000,265.884,-145.352,-55.782,428.946,57.399,135.162,-625.040,1795.510,-774.020
155,77670.854000,200.649,-43.756,-102.599,412.616,62.762,165.648,640.960,1681.510,-492.020
156,77670.894000,216.463,-515.521,-492.078,401.134,71.796,184.456,-1610.040,249.510,-73.020
157,77670.933000,483.336,-111.151,70.724,406.814,60.095,179.305,1026.960,-210.490,412.980
158,77670.974000,507.058,239.906,-83.673,410.722,64.901,175.498,537.960,-272.490,-80.020
159,77671.13000,276.757,-12.574,-10.957,414.593,67.592,163.798,1504.960,-245.490,82.980
160,77671.57000,246.116,-2.515,-4.981,411.785,77.272,164.007,172.960,-98.490,39.980
161,77671.97000,280.710,-52.809,21.914,415.606,72.434,162.927,-19.040,98.510,-44.020
162,77671.137000,261.931,-24.644,23.907,414.723,80.278,167.021,155.960,188.510,-156.020
163,77671.177000,261.931,-24.644,31.875,411.855,82.342,173.926,-55.040,235.510,-201.020
164,77671.197000,276.757,5.532,25.899,413.745,76.644,178.707,-235.040,314.510,-191.020
165,77671.237000,283.676,15.591,38.848,402.189,80.565,185.634,-337.040,382.510,-154.020
166,77671.277000,292.571,69.910,62.755,402.178,77.825,193.418,-519.040,294.510,-75.020
167,77671.317000,344.958,176.534,83.673,402.995,62.301,193.076,-880.040,-155.490,69.980
168,77671.357000,369.668,161.446,-4.981,406.753,54.226,177.214,-103.040,-758.490,-144.020
169,77671.397000,328.154,-111.151,-63.751,408.839,75.065,153.164,2792.960,-857.490,-738.020
170,77671.437000,387.459,54.821,-95.626,413.768,92.717,115.321,2029.960,-1574.490,-817.020
171,77671.477000,392.402,-181.564,-173.323,419.607,108.071,60.757,-510.040,-2622.490,-879.020
172,77671.517000,284.664,-149.375,-186.272,424.424,120.243,-5.648,375.960,-3055.490,-709.020
173,77671.537000,208.556,-199.670,-154.397,413.698,127.260,-79.065,271.960,-3219.490,-271.020
174,77671.577000,104.772,-172.511,-90.646,390.282,120.734,-144.963,-262.040,-3301.490,369.980
175,77671.617000,32.618,-161.446,-34.864,377.589,117.742,-187.225,-484.040,-3238.490,659.980
176,77671.657000,4.942,-134.287,28.887,353.166,104.670,-241.503,80.960,-2511.490,1195.980
177,77671.697000,30.641,-135.293,17.930,333.617,91.990,-280.071,-65.040,-2009.490,1429.980
178,77671.737000,49.421,-116.181,-32.872,325.640,72.907,-306.009,28.960,-1218.490,1564.980
179,77671.775000,61.282,-124.228,-52.794,324.363,44.397,-322.335,153.960,-538.490,1565.980
180,77671.832000,109.714,-109.139,-89.650,335.793,26.949,-326.621,-203.040,415.510,1478.980
181,77671.839000,175.938,-141.328,-112.560,364.695,11.978,-314.143,240.960,1162.510,1359.980
182,77671.875000,243.151,-92.039,-105.588,385.816,-8.742,-294.946,546.960,1876.510,1013.980
183,77671.915000,359.784,-45.768,-81.681,430.213,-27.812,-255.068,21.960,2528.510,513.980
184,77671.955000,371.645,34.703,-35.860,462.180,-35.031,-200.244,-432.040,2567.510,79.980
185,77671.995000,179.892,-235.882,-492.078,487.622,-15.283,-151.700,-2418.040,2248.510,-702.020
186,77672.35000,512.988,-263.041,-249.027,495.496,-5.995,-129.902,-753.040,1179.510,546.980
187,77672.76000,162.100,16.597,-214.163,502.322,-6.296,-102.436,1850.960,1114.510,60.980
188,77672.117000,252.046,76.951,-52.794,503.373,-0.202,-90.531,827.960,701.510,-507.020
189,77672.157000,340.015,14.585,16.934,506.349,4.055,-74.739,1419.960,646.510,-411.020
190,77672.177000,311.351,-14.585,11.953,509.318,9.131,-65.794,519.960,234.510,-332.020
191,77672.217000,298.502,15.591,-69.728,505.465,11.014,-66.741,904.960,-98.490,-75.020
192,77672.263000,289.606,-22.633,-45.821,506.395,8.024,-70.729,475.960,-315.490,90.980
193,77672.297000,275.768,-27.662,-68.732,504.379,1.943,-81.655,18.960,-479.490,192.980
194,77672.337000,289.606,-40.739,-48.809,500.457,-1.245,-92.521,296.960,-623.490,314.980
195,77672.386000,307.398,-20.621,-23.907,499.340,-13.249,-108.481,-166.040,-805.490,467.980
196,77672.421000,413.158,48.786,40.840,489.541,-20.701,-134.164,-1255.040,-1260.490,913.980
197,77672.456000,408.216,-51.804,12.949,480.583,-39.922,-165.991,-1968.040,-1340.490,1176.980
198,77672.496000,216.463,-216.770,-179.300,463.019,-48.571,-198.581,-1003.040,-1655.490,1180.980
199,77672.516000,22.734,-87.010,-159.377,443.522,-58.985,-222.390,-962.040,-1336.490,898.980
200,77672.556000,-86.981,28.668,-112.560,437.789,-51.318,-224.193,-852.040,-52.490,52.980
201,77672.600000,-82.039,-87.010,-118.537,449.458,-51.507,-193.772,663.960,1083.510,-257.020
202,77672.640000,2.965,-81.980,-220.140,462.147,-46.789,-161.279,1129.960,1950.510,-370.020
203,77672.680000,147.274,-14.585,-153.401,477.823,-37.707,-108.088,761.960,2010.510,-846.020
204,77672.720000,205.591,-249.965,-492.078,486.713,-25.303,-77.394,-484.040,819.510,-407.020
205,77672.760000,-0.988,-233.870,-259.984,495.580,-13.115,-56.511,434.960,1357.510,-805.020
206,77672.800000,307.398,57.839,-111.564,503.535,3.120,-27.694,806.960,1461.510,-391.020
207,77672.822000,279.722,14.585,-47.813,503.688,12.505,1.934,329.960,1222.510,-613.020
208,77672.856000,268.849,-18.609,-24.903,503.806,20.682,20.748,782.960,1099.510,-564.020
209,77672.896000,231.290,-20.621,-20.918,503.030,37.479,34.849,-72.040,657.510,-509.020
210,77672.940000,246.116,-6.538,-45.821,500.195,41.614,47.683,32.960,483.510,-523.020
211,77672.980000,273.792,-27.662,-7.969,497.471,58.263,55.892,205.960,467.510,-353.020
212,77673.20000,246.116,-6.538,-51.798,500.459,65.282,64.880,3.960,371.510,-313.020
213,77673.60000,246.116,-18.609,-15.938,497.583,67.260,67.860,145.960,256.510,-249.020
214,77673.100000,272.803,-45.768,20.918,496.690,73.248,75.837,260.960,371.510,-131.020
215,77673.140000,256.988,0.503,-4.981,493.839,78.117,77.900,71.960,209.510,-16.020
216,77673.160000,262.919,8.550,-15.938,495.739,74.274,78.799,93.960,-44.490,120.980
217,77673.200000,270.826,-51.804,0.996,496.673,71.328,76.775,278.960,-66.490,223.980
218,77673.240000,241.174,-41.745,-48.809,500.503,67.461,75.716,-19.040,-61.490,140.980
219,77673.280000,263.907,-29.674,-8.965,499.413,54.830,75.434,121.960,-9.490,98.980
220,77673.317000,263.907,-14.585,-29.883,495.626,63.509,74.638,-113.040,-58.490,106.980
221,77673.358000,263.907,-1.509,-25.899,502.341,57.749,74.524,-235.040,-91.490,147.980
222,77673.398000,256.988,-24.644,-33.868,499.423,56.686,71.552,-28.040,-39.490,187.980
223,77673.439000,248.093,-12.574,-23.907,502.264,50.846,69.467,-12.040,-108.490,201.980
224,77673.478000,243.151,-69.910,-26.895,502.154,40.101,66.286,166.960,-201.490,204.980
225,77673.498000,264.896,-46.774,7.969,504.089,41.005,62.388,146.960,-211.490,234.980
226,77673.538000,268.849,-81.980,-28.887,506.947,37.969,55.462,481.960,-301.490,215.980
227,77673.577000,331.120,31.686,50.802,506.852,30.008,46.459,202.960,-290.490,344.980
228,77673.617000,403.274,63.874,97.619,507.642,15.110,30.439,-655.040,-722.490,569.980
229,77673.661000,334.085,-5.532,-36.856,504.656,8.997,18.530,177.960,-855.490,380.980
230,77673.702000,280.710,-124.228,-93.634,497.760,-1.058,5.543,226.960,-845.490,374.980
231,77673.742000,260.942,-160.440,-56.778,489.987,-0.572,-13.095,1375.960,-870.490,319.980
232,77673.782000,59.305,82.986,128.498,488.046,0.229,-19.946,996.960,-196.490,-165.020
233,77673.822000,112.680,50.798,95.626,480.527,19.873,-5.796,38.960,863.510,-1051.020
234,77673.837000,187.799,-62.868,59.767,469.290,49.748,34.070,-39.040,1525.510,-1336.020
235,77673.877000,201.637,-98.075,8.965,445.548,83.708,88.710,779.960,2434.510,-1181.020
236,77673.917000,234.255,-71.921,-15.938,426.432,100.715,120.428,703.960,2619.510,-1247.020
237,77673.961000,307.398,-53.815,-90.646,401.504,114.083,165.783,-2032.040,1775.510,-1093.020
238,77674.1000,242.162,-113.163,-139.455,379.200,101.914,195.866,-2360.040,1238.510,-658.020
239,77674.41000,438.857,-318.365,-188.265,375.075,74.778,199.178,-1435.040,-288.490,930.980
240,77674.81000,343.969,13.580,69.728,375.229,92.103,192.698,998.960,-98.490,231.980
241,77674.121000,267.861,90.028,-24.903,381.054,95.870,184.949,552.960,-453.490,-3.020
242,77674.141000,280.710,8.550,35.860,384.002,102.500,176.276,776.960,-206.490,146.980
243,77674.181000,246.116,-15.591,37.852,382.985,97.615,175.185,-191.040,-142.490,83.980
244,77674.221000,273.792,-23.639,23.907,383.891,91.756,173.095,38.960,-26.490,-33.020
245,77674.261000,264.896,-24.644,22.911,381.999,95.664,175.139,60.960,89.510,-131.020
246,77674.301000,260.942,0.503,42.833,383.017,99.686,181.115,-181.040,163.510,-185.020
247,77674.355000,270.826,19.615,41.837,380.157,103.584,183.157,-254.040,186.510,-139.020
248,77674.381000,296.525,86.004,74.708,381.041,93.993,187.849,-316.040,59.510,9.980
249,77674.421000,359.784,183.576,79.689,382.901,87.130,183.778,-480.040,-236.490,105.980
250,77674.461000,408.216,214.758,21.914,389.613,83.096,173.896,-686.040,-507.490,-20.020
251,77674.477000,354.842,-0.503,-61.759,394.418,85.474,147.481,1709.960,-1000.490,-525.020
252,77674.517000,472.463,-0.503,-173.323,404.352,121.512,105.153,3650.960,-1473.490,-578.020
253,77674.557000,419.089,-67.898,-167.346,415.991,136.879,48.640,-207.040,-2990.490,-601.020
254,77674.597000,241.174,-120.204,-178.303,412.963,140.044,-26.807,-108.040,-3433.490,-607.020
255,77674.637000,148.263,-174.523,-126.506,400.340,151.809,-104.045,409.960,-3422.490,-232.020
256,77674.677000,68.201,-132.275,-56.778,380.792,145.300,-170.916,187.960,-3290.490,354.980
257,77674.717000,45.467,-137.305,-26.895,363.220,138.334,-215.237,10.960,-2985.490,849.980
258,77674.757000,35.583,-118.193,6.973,340.701,120.577,-262.750,49.960,-2564.490,1194.980
259,77674.797000,43.490,-134.287,18.926,318.126,95.248,-301.606,160.960,-1826.490,1453.980
260,77674.817000,51.398,-120.204,-10.957,307.263,78.057,-328.488,169.960,-1192.490,1539.980
261,77674.857000,69.189,-122.216,-49.805,305.070,53.551,-338.844,307.960,-484.490,1491.980
262,77674.899000,91.923,-121.210,-76.700,328.088,33.367,-340.224,219.960,514.510,1341.980
263,77674.939000,141.344,-98.075,-139.455,355.072,21.183,-332.592,268.960,1302.510,1222.980
264,77674.978000,201.637,-61.862,-117.541,381.986,-2.243,-306.577,152.960,2129.510,716.980
265,77675.19000,334.085,-47.780,-116.545,423.564,-13.488,-262.610,-141.040,2637.510,417.980
266,77675.60000,401.297,18.609,-85.665,462.504,0.654,-210.239,-1038.040,2770.510,-293.020
267,77675.100000,311.351,-134.287,-492.078,487.041,28.030,-167.411,-2276.040,1524.510,-650.020
268,77675.120000,172.973,-134.287,123.518,496.706,21.868,-143.011,977.960,1275.510,-219.020
269,77675.160000,512.988,38.727,-123.518,503.539,24.285,-124.310,601.960,979.510,-96.020
270,77675.201000,248.093,111.151,-86.661,503.554,22.667,-109.636,354.960,664.510,-387.020
271,77675.241000,273.792,-24.644,-89.650,507.592,37.527,-97.530,1125.960,655.510,-215.020
272,77675.281000,228.324,-9.556,-30.879,506.624,34.863,-85.823,668.960,467.510,-48.020
273,77675.321000,267.861,-65.886,-13.946,509.471,28.204,-81.061,546.960,208.510,-6.020
274,77675.381000,270.826,4.527,-64.747,510.389,22.452,-78.245,1066.960,57.510,34.980
275,77675.402000,293.560,8.550,-73.712,508.438,21.398,-81.215,626.960,-241.490,105.980
276,77675.445000,287.629,-15.591,-77.696,509.340,16.381,-89.169,209.960,-396.490,168.980
277,77675.458000,290.595,-32.692,-44.825,508.303,11.301,-99.091,7.960,-541.490,265.980
278,77675.500000,297.514,-42.750,-33.868,501.407,1.246,-112.077,136.960,-732.490,395.980
279,77675.540000,297.514,-14.585,-47.813,497.387,-9.924,-132.928,-520.040,-939.490,565.980
280,77675.585000,363.737,31.686,9.961,486.557,-23.275,-161.686,-1345.040,-1176.490,774.980
281,77675.618000,427.985,-83.992,55.782,472.962,-22.133,-192.090,-2095.040,-1474.490,1148.980
282,77675.661000,237.220,-199.670,-177.307,456.311,-36.576,-223.827,-1136.040,-1682.490,1194.980
283,77675.702000,27.676,-124.228,-247.035,432.022,-42.205,-248.519,-1399.040,-1472.490,1015.980
284,77675.742000,-59.305,-36.715,-81.681,428.146,-41.423,-255.375,-934.040,-315.490,420.980
285,77675.762000,-57.328,-69.910,-109.572,431.933,-55.388,-230.179,1131.960,883.510,200.980
286,77675.802000,-23.722,-79.969,-227.113,450.258,-69.836,-189.274,1167.960,1571.510,52.980
287,77675.842000,69.189,-26.656,-265.961,462.931,-68.786,-147.055,948.960,1567.510,-110.020
288,77675.878000,115.645,-19.615,-161.370,480.515,-59.059,-109.537,32.960,1474.510,-636.020
289,77675.920000,65.236,-263.041,-492.078,485.539,-43.133,-93.483,-1386.040,654.510,-1168.020
290,77675.960000,29.653,-308.306,-206.195,496.411,-26.741,-58.773,2676.960,1587.510,-902.020
291,77676.0,330.131,346.530,-129.494,497.500,-20.281,-30.188,1324.960,1578.510,-475.020
292,77676.40000,333.097,107.128,-62.755,506.467,2.544,-11.030,342.960,1276.510,-789.020
293,77676.80000,296.525,-24.644,13.946,503.761,16.733,17.719,956.960,1200.510,-684.020
294,77676.100000,253.035,-17.603,26.895,500.008,24.851,35.543,-29.040,751.510,-540.020
295,77676.142000,254.023,-42.750,-41.837,500.155,37.709,46.616,497.960,405.510,-431.020
296,77676.182000,256.988,17.603,-37.852,497.405,52.352,51.838,336.960,311.510,-345.020
297,77676.222000,253.035,-5.532,-43.829,498.423,55.490,61.717,125.960,343.510,-226.020
298,77676.263000,231.290,-13.580,-39.844,496.542,60.390,64.764,142.960,258.510,-174.020
299,77676.305000,243.151,-29.674,-11.953,496.530,58.513,67.664,-154.040,169.510,-53.020
300,77676.345000,243.151,-36.715,-16.934,495.650,66.378,72.740,176.960,306.510,-40.020
301,77676.385000,267.861,-15.591,-8.965,494.632,59.724,79.455,-206.040,66.510,31.980
302,77676.425000,258.965,-26.656,-10.957,497.535,60.636,75.558,-117.040,-18.490,97.980
303,77676.445000,250.069,-26.656,-16.934,497.436,50.885,73.381,-111.040,-195.490,217.980
304,77676.483000,252.046,-50.798,-21.914,503.173,45.008,68.359,21.960,-274.490,270.980
305,77676.520000,260.942,-34.703,-19.922,499.223,38.045,62.312,77.960,-332.490,274.980
306,77676.560000,249.081,-40.739,-48.809,500.208,41.744,53.570,257.960,-361.490,262.980
307,77676.600000,248.093,-35.709,-37.852,502.064,34.837,47.537,200.960,-353.490,251.980
308,77676.640000,255.012,-49.792,-47.813,504.798,20.044,35.446,283.960,-429.490,292.980
309,77676.680000,240.185,-73.933,-24.903,503.812,19.862,27.595,221.960,-387.490,303.980
310,77676.720000,241.174,-66.892,-76.700,506.600,9.987,18.556,65.960,-494.490,357.980
311,77676.760000,251.058,-102.098,-33.868,503.689,10.757,10.721,573.960,-293.490,257.980
312,77676.780000,327.166,39.733,2.988,507.470,2.899,4.671,-114.040,-491.490,406.980
313,77676.820000,350.888,28.668,-3.984,502.455,-12.941,-7.459,381.960,-598.490,459.980
314,77676.863000,410.193,26.656,20.918,501.411,-18.085,-20.324,-331.040,-688.490,532.980
315,77676.904000,402.286,-40.739,-13.946,492.548,-31.115,-35.342,-365.040,-729.490,419.980
316,77676.943000,266.873,-179.552,-115.549,484.740,-34.491,-53.085,1361.960,-888.490,232.980
317,77676.983000,69.189,-18.609,86.661,476.005,-35.720,-60.976,1227.960,-350.490,-90.020
318,77677.20000,98.842,40.739,85.665,471.339,-20.039,-51.812,-240.040,428.510,-833.020
319,77677.60000,121.575,-26.656,58.770,462.938,4.817,-20.878,171.960,1466.510,-1495.020
320,77677.80000,144.309,-63.874,16.934,452.802,46.546,28.080,625.960,2166.510,-1662.020
321,77677.124000,173.961,-69.910,-1.992,431.005,82.380,78.843,465.960,2791.510,-1791.020
322,77677.186000,294.548,-84.998,-88.654,400.321,99.684,129.176,-508.040,2696.510,-1807.020
323,77677.206000,394.378,-515.521,-492.078,381.937,93.312,156.454,-2049.040,826.510,18.980
324,77677.243000,109.714,169.493,236.078,392.381,73.028,156.026,-143.040,-342.490,395.980
325,77677.285000,512.988,147.363,-62.755,387.584,77.770,153.179,827.960,-226.490,12.980
326,77677.321000,242.162,8.550,12.949,393.489,90.232,143.662,1364.960,-205.490,13.980
327,77677.361000,234.255,-17.603,0.996,394.426,88.192,138.715,-114.040,-111.490,100.980
328,77677.401000,257.977,-50.798,20.918,389.577,86.268,141.604,-107.040,36.510,37.980
329,77677.421000,250.069,-38.727,-4.981,388.675,93.055,141.753,-18.040,132.510,-108.020
330,77677.461000,263.907,-35.709,21.914,388.667,90.336,150.519,-30.040,355.510,-313.020
331,77677.501000,265.884,11.568,21.914,380.053,97.306,162.423,-224.040,413.510,-341.020
332,77677.541000,278.734,28.668,47.813,380.128,104.189,166.499,-292.040,472.510,-319.020
333,77677.581000,294.548,80.974,66.739,376.239,100.440,174.253,-324.040,408.510,-287.020
334,77677.621000,327.166,171.505,63.751,374.275,96.624,178.086,-282.040,54.510,-213.020
335,77677.661000,350.888,232.864,26.895,378.242,108.161,171.486,-539.040,-271.490,-282.020
336,77677.701000,313.328,53.815,-76.700,387.987,119.496,153.126,1809.960,-863.490,-753.020
337,77677.741000,512.988,-126.240,-166.350,395.838,141.772,103.623,3207.960,-1663.490,-238.020
338,77677.761000,447.753,-80.974,-168.342,404.477,149.128,37.119,-374.040,-3310.490,-2.020
339,77677.801000,313.328,-136.299,-148.420,413.013,141.403,-9.125,-221.040,-3769.490,79.980
340,77677.841000,147.274,-151.387,-118.537,405.171,148.275,-90.384,-403.040,-3876.490,175.980
341,77677.881000,64.247,-136.299,-44.825,390.404,137.757,-165.179,153.960,-3463.490,772.980
342,77677.921000,42.502,-135.293,-6.973,365.810,108.956,-228.632,291.960,-3009.490,1249.980
343,77677.961000,34.595,-120.204,30.879,344.206,85.427,-274.311,-6.040,-2301.490,1634.980
344,77678.1000,54.363,-106.122,5.977,330.446,70.020,-307.043,-188.040,-1763.490,1707.980
345,77678.41000,60.293,-99.081,-23.907,321.559,54.121,-320.164,-341.040,-942.490,1577.980
346,77678.61000,98.842,-109.139,-69.728,319.456,39.280,-332.265,-231.040,-255.490,1499.980
347,77678.101000,134.425,-105.116,-126.506,334.794,25.753,-336.456,-292.040,533.510,1219.980
348,77678.147000,153.205,-61.862,-110.568,354.985,11.539,-329.864,-138.040,992.510,901.980
349,77678.181000,183.846,-67.898,-111.564,386.847,0.674,-308.464,398.960,1811.510,440.980
350,77678.221000,262.919,-13.580,-114.553,422.640,-6.917,-272.272,151.960,2229.510,92.980
351,77678.261000,317.282,50.798,-59.767,461.500,-0.585,-222.036,-422.040,2479.510,-255.020
352,77678.301000,214.486,-294.224,-492.078,477.219,18.594,-195.099,-2244.040,1286.510,-1062.020
353,77678.341000,102.795,-70.916,20.918,488.870,17.348,-168.625,2552.960,1401.510,-268.020
354,77678.381000,512.988,215.764,13.946,499.580,18.983,-143.069,642.960,1072.510,-130.020
355,77678.401000,328.154,69.910,-61.759,506.474,27.269,-122.276,356.960,871.510,-523.020
356,77678.441000,308.386,45.768,-32.872,508.497,33.415,-108.406,779.960,647.510,-237.020
357,77678.488000,277.745,-28.668,-16.934,511.427,34.587,-100.529,-26.040,218.510,-56.020
358,77678.551000,276.757,-39.733,-40.840,506.543,30.570,-104.551,332.960,-57.490,65.980
359,77678.567000,256.988,-37.721,-84.669,508.429,25.713,-105.635,519.960,-190.490,84.980
360,77678.601000,261.931,-27.662,-83.673,507.459,26.567,-110.522,57.960,-242.490,85.980
361,77678.641000,260.942,-46.774,-69.728,507.429,24.517,-115.471,87.960,-294.490,89.980
362,77678.681000,273.792,-38.727,-43.829,506.326,12.642,-125.543,32.960,-406.490,144.980
363,77678.722000,274.780,-29.674,-61.759,500.495,12.326,-137.330,-153.040,-684.490,262.980
364,77678.742000,292.571,-6.538,-59.767,494.645,11.838,-156.967,-529.040,-812.490,338.980
365,77678.782000,321.236,-3.521,-12.949,486.830,9.282,-181.557,-1224.040,-1096.490,523.980
366,77678.822000,383.506,-96.063,8.965,476.094,2.986,-198.390,-1421.040,-1442.490,761.980
367,77678.862000,273.792,-119.198,-135.471,458.489,-12.221,-220.339,-587.040,-1458.490,1148.980
368,77678.902000,131.459,-122.216,-241.058,439.000,-19.917,-252.913,-1901.040,-1666.490,1070.980
369,77678.942000,69.189,-21.627,-66.739,422.475,-24.349,-270.698,-882.040,-771.490,732.980
370,77678.982000,28.664,-35.709,-94.630,423.382,-33.725,-256.195,1036.960,300.510,372.980
371,77679.22000,-13.838,-18.609,-147.424,438.667,-60.090,-226.347,1275.960,1294.510,14.980
372,77679.42000,-13.838,19.615,-222.132,456.198,-57.029,-183.093,674.960,1565.510,-493.020
373,77679.82000,68.201,-27.662,-171.331,470.900,-44.504,-149.442,945.960,1843.510,-876.020
374,77679.122000,103.784,-69.910,-124.514,483.742,-28.632,-95.126,374.960,2208.510,-1090.020
375,77679.162000,474.440,-342.507,-308.794,493.709,-5.475,-61.248,-457.040,721.510,-727.020
376,77679.202000,205.591,-157.422,-141.447,503.602,10.801,-31.446,415.960,1291.510,-823.020
377,77679.243000,411.181,171.505,-43.829,502.780,19.227,-0.861,72.960,1303.510,-786.020
378,77679.290000,303.444,15.591,-39.844,507.920,45.077,25.221,576.960,1223.510,-631.020
379,77679.322000,279.722,-60.857,57.774,506.069,50.258,41.023,155.960,857.510,-596.020
380,77679.362000,249.081,-58.845,-0.996,500.456,67.892,51.209,381.960,413.510,-434.020
381,77679.382000,262.919,59.851,-30.879,501.520,76.747,56.311,612.960,248.510,-251.020
382,77679.422000,252.046,2.515,-35.860,500.526,73.847,57.225,365.960,83.510,-36.020
383,77679.462000,240.185,-33.697,-36.856,502.529,80.684,58.362,403.960,51.510,20.980
384,77679.502000,235.243,-38.727,-39.844,499.639,81.648,59.358,329.960,55.510,36.980
385,77679.542000,231.290,-32.692,-44.825,500.590,80.622,56.395,326.960,19.510,66.980
386,77679.582000,246.116,-20.621,-37.852,498.643,78.726,59.291,222.960,20.510,73.980
387,77679.622000,248.093,-40.739,-28.887,501.482,71.979,60.128,125.960,23.510,103.980
388,77679.662000,251.058,-43.756,-22.911,500.498,70.934,57.161,155.960,21.510,81.980
389,77679.702000,266.873,-15.591,-33.868,504.410,74.899,59.218,107.960,-18.490,76.980
390,77679.722000,255.012,-26.656,-22.911,504.349,69.030,57.127,156.960,-25.490,94.980
391,77679.765000,259.954,-46.774,-27.891,502.381,66.056,55.095,12.960,-86.490,133.980
392,77679.805000,255.012,-40.739,-28.887,501.369,61.214,55.966,49.960,-26.490,142.980
393,77679.843000,258.965,-19.615,-25.899,503.278,59.226,52.984,-88.040,-36.490,190.980
394,77679.883000,243.151,-58.845,-26.895,509.087,59.326,54.960,10.960,-38.490,205.980
395,77679.922000,252.046,-36.715,-9.961,510.003,54.438,52.892,-62.040,-66.490,221.980
396,77679.968000,254.023,-62.868,-23.907,507.958,43.675,49.707,229.960,-122.490,221.980
397,77680.3000,371.645,17.603,71.720,504.020,37.704,44.663,114.960,-202.490,317.980
398,77680.24000,438.857,69.910,95.626,504.887,29.709,33.700,-393.040,-796.490,616.980
399,77680.62000,356.819,56.833,40.840,499.904,19.457,10.906,-569.040,-910.490,643.980
400,77680.103000,263.907,-198.664,-98.615,497.816,7.400,-7.017,-139.040,-913.490,564.980
401,77680.143000,108.726,45.768,90.646,485.195,3.329,-10.076,374.960,-74.490,130.980
402,77680.183000,98.842,-25.650,53.790,482.430,14.304,4.871,-354.040,893.510,-729.020
403,77680.223000,111.691,-12.574,65.743,467.318,43.214,46.669,969.960,1862.510,-1011.020
404,77680.263000,223.382,-65.886,-28.887,447.357,68.431,99.162,1026.960,2610.510,-1298.020
405,77680.303000,294.548,-73.933,-118.537,413.913,101.153,145.909,785.960,2373.510,-1396.020
406,77680.343000,306.409,-117.187,-147.424,392.648,96.717,174.204,-1689.040,1440.510,-841.020
407,77680.363000,297.514,-515.521,-472.156,394.443,81.310,178.770,-1628.040,-427.490,926.980
408,77680.403000,170.008,-111.151,113.556,393.490,84.083,172.945,410.960,-214.490,-69.020
409,77680.443000,299.490,98.075,2.988,395.482,89.927,173.079,778.960,-252.490,-68.020
410,77680.483000,264.896,19.615,-40.840,395.518,95.559,164.378,763.960,-217.490,13.980
411,77680.523000,254.023,2.515,29.883,396.587,106.226,163.637,380.960,22.510,-25.020
412,77680.564000,275.768,-16.597,19.922,394.563,97.426,161.476,-144.040,37.510,-39.020
413,77680.603000,269.838,-28.668,18.926,392.672,101.355,164.501,212.960,172.510,-139.020
414,77680.643000,262.919,-0.503,30.879,390.888,115.986,168.744,-10.040,229.510,-249.020
415,77680.683000,303.444,47.780,61.759,390.918,118.035,173.693,-140.040,179.510,-217.020
416,77680.703000,288.618,132.275,60.763,392.740,106.404,173.439,-563.040,-32.490,-53.020
417,77680.743000,341.004,213.752,69.728,393.594,95.648,169.279,-1069.040,-356.490,123.980
418,77680.783000,333.097,108.134,-21.914,400.288,90.557,155.451,-824.040,-663.490,-135.020
419,77680.823000,280.710,-69.910,-135.471,400.394,106.544,132.270,1685.960,-506.490,-710.020
420,77680.863000,420.077,-68.904,-201.214,407.260,124.237,95.413,1537.960,-1532.490,-756.020
421,77680.905000,439.846,-141.328,-231.097,412.128,136.021,55.477,-854.040,-2781.490,-859.020
422,77680.943000,394.378,-189.611,-239.066,413.958,142.081,-22.837,1485.960,-3555.490,-538.020
423,77680.983000,183.846,-164.464,-134.475,400.315,150.688,-110.935,1231.960,-3787.490,80.980
424,77681.37000,72.154,-160.440,-49.805,380.589,128.385,-189.924,-74.040,-3676.490,958.980
425,77681.45000,39.537,-135.293,10.957,351.292,113.151,-252.106,-180.040,-3296.490,1350.980
426,77681.83000,47.444,-99.081,39.844,319.910,79.733,-301.947,411.960,-2502.490,1707.980
427,77681.123000,58.317,-93.045,32.872,307.079,58.683,-326.957,460.960,-1797.490,1833.980
428,77681.163000,69.189,-93.045,-12.949,294.236,35.756,-349.068,218.960,-930.490,1727.980
429,77681.205000,73.143,-95.057,-27.891,295.934,14.135,-362.293,231.960,-250.490,1528.980
430,77681.245000,90.934,-109.139,-44.825,306.323,-12.837,-357.966,261.960,623.510,1410.980
431,77681.285000,141.344,-90.028,-107.580,337.075,-37.412,-341.776,230.960,1636.510,1047.980
432,77681.325000,230.301,-47.780,-129.494,371.925,-41.258,-311.387,-150.040,2138.510,621.980
433,77681.345000,311.351,-41.745,-132.482,416.553,-36.099,-272.933,-866.040,2525.510,261.980
434,77681.385000,347.923,-68.904,-143.440,440.839,-32.261,-241.415,-742.040,2671.510,-43.020
435,77681.425000,339.027,55.827,-44.825,473.956,-21.865,-180.314,-889.040,2800.510,-637.020
436,77681.465000,206.579,-333.454,-492.078,493.559,-2.518,-147.481,-2347.040,881.510,-788.020
437,77681.505000,5.931,-64.880,44.825,496.456,-8.704,-121.135,2551.960,1211.510,-969.020
438,77681.545000,512.988,218.782,-22.911,500.445,-1.352,-97.427,1411.960,1045.510,-297.020
439,77681.586000,303.444,53.815,-91.642,503.579,18.503,-78.347,585.960,756.510,-538.020
440,77681.626000,238.208,23.639,-50.802,504.580,18.836,-63.628,661.960,619.510,-418.020
441,77681.666000,249.081,-49.792,-16.934,504.667,26.711,-58.549,-143.040,312.510,-239.020
442,77681.686000,268.849,-36.715,-19.922,503.609,17.036,-56.805,383.960,7.510,-88.020
443,77681.725000,271.815,-12.574,-54.786,504.624,22.784,-60.598,832.960,-107.490,-3.020
444,77681.766000,257.977,-31.686,-57.774,502.631,17.803,-65.616,474.960,-334.490,110.980
445,77681.805000,265.884,-45.768,-51.798,499.732,19.566,-72.448,347.960,-463.490,182.980
446,77681.848000,261.931,-46.774,-43.829,498.681,14.357,-88.256,354.960,-702.490,306.980
447,77681.888000,287.629,-3.521,-53.790,489.755,-3.678,-110.250,-122.040,-876.490,448.980
448,77681.928000,375.598,23.639,-7.969,489.682,-7.907,-126.034,-814.040,-1178.490,707.980
449,77681.968000,426.996,31.686,26.895,479.874,-15.444,-155.642,-1771.040,-1462.490,969.980
450,77682.5000,342.981,-205.705,-80.685,468.047,-30.854,-189.352,-1103.040,-1586.490,1255.980
451,77682.25000,103.784,-124.228,-193.245,450.384,-50.138,-220.217,-1198.040,-1506.490,1085.980
452,77682.65000,29.653,-21.627,-111.564,432.988,-44.850,-236.808,-1588.040,-917.490,925.980
453,77682.108000,-9.884,-72.927,-92.638,438.659,-61.924,-221.484,911.960,547.510,269.980
454,77682.149000,-11.861,-30.680,-178.303,456.099,-67.666,-181.368,1492.960,1390.510,-102.020
455,77682.202000,71.166,-0.503,-139.455,465.886,-62.976,-148.881,884.960,1920.510,-675.020
456,77682.231000,113.668,-49.792,-102.599,486.460,-47.978,-93.588,497.960,2222.510,-1221.020
457,77682.265000,108.726,-515.521,-492.078,492.594,-20.112,-64.518,-664.040,710.510,19.980
458,77682.318000,-2.965,-94.051,-210.179,502.531,0.112,-31.686,1574.960,1282.510,-1101.020
459,77682.327000,452.695,193.635,-65.743,506.600,13.504,1.962,-31.040,1427.510,-727.020
460,77682.368000,325.189,3.521,29.883,500.959,24.709,28.677,384.960,1262.510,-697.020
461,77682.408000,257.977,-22.633,30.879,494.431,46.347,44.834,-115.040,582.510,-633.020
462,77682.448000,245.127,-6.538,-43.829,498.342,49.427,50.795,74.960,328.510,-447.020
463,77682.488000,246.116,-0.503,-55.782,496.572,65.072,57.022,237.960,312.510,-317.020
464,77682.525000,215.475,-22.633,-52.794,497.623,72.050,65.025,130.960,408.510,-228.020
465,77682.566000,235.243,-11.568,-34.864,494.720,70.252,72.824,66.960,237.510,-167.020
466,77682.605000,258.965,-41.745,10.957,489.937,75.124,75.864,96.960,154.510,-90.020
467,77682.646000,270.826,-22.633,27.891,491.906,78.120,78.877,-5.040,76.510,63.980
468,77682.666000,270.826,-21.627,-12.949,497.594,67.368,72.766,50.960,-103.490,183.980
469,77682.706000,250.069,-37.721,-31.875,495.659,67.349,72.762,177.960,-176.490,209.980
470,77682.745000,247.104,-29.674,-32.872,498.515,63.407,68.757,-113.040,-187.490,187.980
471,77682.791000,251.058,-44.762,-32.872,496.458,51.652,64.570,25.960,-174.490,200.980
472,77682.831000,253.035,-25.650,-28.887,496.456,52.515,59.685,-78.040,-222.490,236.980
473,77682.871000,252.046,-32.692,-43.829,498.302,44.638,53.630,-6.040,-269.490,252.980
474,77682.911000,252.046,-59.851,-33.868,500.133,34.861,49.495,75.960,-209.490,271.980
475,77682.950000,246.116,-49.792,-53.790,498.178,33.764,44.563,63.960,-172.490,298.980
476,77682.990000,243.151,-54.821,-39.844,502.940,26.044,44.402,225.960,-110.490,298.980
477,77683.6000,262.919,-25.650,-10.957,501.909,20.145,41.326,117.960,-154.490,340.980
478,77683.46000,294.548,-30.680,1.992,503.736,10.326,35.228,107.960,-274.490,372.980
479,77683.86000,414.147,77.957,82.677,504.627,5.200,22.368,-561.040,-757.490,578.980
480,77683.126000,370.656,64.880,7.969,503.382,-18.606,-0.718,-483.040,-1095.490,588.980
481,77683.166000,301.467,-174.523,-96.623,496.622,-15.026,-11.440,708.960,-887.490,320.980
482,77683.206000,228.324,-190.617,73.712,490.716,-22.224,-27.303,2217.960,-759.490,185.980
483,77683.246000,22.734,22.633,156.389,484.065,-11.437,-19.233,-143.040,328.510,-791.020
484,77683.286000,34.595,-58.845,142.444,477.613,14.451,13.690,406.960,1618.510,-1246.020
485,77683.330000,111.691,26.656,83.673,460.694,52.490,74.319,50.960,2554.510,-1731.020
486,77683.350000,265.884,-103.104,-65.743,428.254,85.567,136.767,-657.040,3027.510,-1568.020
487,77683.390000,372.633,-49.792,-184.280,394.588,95.031,184.958,-1438.040,2260.510,-1568.020
488,77683.426000,512.000,-238.900,-144.436,395.368,76.508,180.626,-238.040,-568.490,1514.980
489,77683.466000,294.548,-87.010,48.809,393.522,85.270,182.778,1159.960,104.510,192.980
490,77683.506000,240.185,50.798,-43.829,393.506,85.119,175.910,393.960,-357.490,32.980
491,77683.546000,295.537,-30.680,6.973,396.490,94.727,170.246,1068.960,-88.490,113.980
492,77683.593000,248.093,-0.503,19.922,395.567,99.550,169.370,-76.040,-34.490,-35.020
493,77683.628000,297.514,-17.603,6.973,396.572,103.443,169.459,-25.040,7.510,-151.020
494,77683.648000,263.907,-17.603,28.887,394.670,105.495,175.384,137.960,313.510,-373.020
495,77683.688000,288.618,37.721,26.895,389.905,111.424,182.370,-372.040,380.510,-348.020
496,77683.728000,281.699,40.739,54.786,385.020,105.638,186.154,-486.040,398.510,-293.020
497,77683.768000,291.583,105.116,109.572,386.024,107.762,194.049,-689.040,109.510,-112.020
498,77683.808000,345.946,144.346,97.619,384.968,99.856,187.987,-325.040,-110.490,22.980
499,77683.848000,355.830,118.193,-75.704,396.492,95.633,167.324,790.960,-971.490,-350.020
500,77683.887000,416.124,-91.033,-73.712,402.476,122.938,126.755,2867.960,-1172.490,-535.020
501,77683.927000,419.089,21.627,-133.479,413.251,148.975,70.477,1036.960,-2379.490,-730.020
502,77683.967000,326.178,-66.892,-172.327,415.989,145.660,6.666,-55.040,-2977.490,-760.020
503,77683.987000,190.764,-166.475,-178.303,408.302,161.054,-40.080,-34.040,-3314.490,-621.020
504,77684.27000,80.062,-124.228,-135.471,390.807,168.910,-116.434,265.960,-3341.490,-176.020
505,77684.67000,57.328,-138.310,-108.576,370.328,166.275,-183.221,-13.040,-3305.490,411.980
506,77684.107000,49.421,-171.505,-56.778,340.014,145.271,-242.591,215.960,-3094.490,851.980
507,77684.147000,82.039,-143.340,-21.914,312.704,132.321,-290.007,158.960,-2793.490,1228.980
508,77684.187000,103.784,-125.234,0.000,288.296,117.631,-329.611,-10.040,-2161.490,1508.980
509,77684.227000,131.459,-139.316,-10.957,281.385,106.540,-345.563,22.960,-1415.490,1596.980
510,77684.267000,123.552,-140.322,-58.770,278.168,77.084,-359.952,439.960,-319.490,1719.980
511,77684.287000,167.042,-108.134,-76.700,293.329,45.131,-363.572,583.960,517.510,1686.980
512,77684.327000,184.834,-81.980,-96.623,327.998,27.219,-355.070,175.960,1397.510,1523.980
513,77684.378000,198.672,-65.886,-114.553,363.571,-0.976,-329.143,393.960,1947.510,1141.980
514,77684.411000,222.394,-14.585,-143.440,404.049,-24.960,-290.364,423.960,2552.510,443.980
515,77684.451000,395.367,-43.756,-152.405,446.697,-28.170,-234.448,-287.040,2794.510,119.980
516,77684.497000,365.714,44.762,-147.424,471.040,-19.391,-198.898,-1068.040,2462.510,-417.020
517,77684.531000,322.224,-79.969,-403.424,493.648,7.147,-149.228,-2068.040,1842.510,-694.020
518,77684.571000,207.568,-42.750,65.743,499.500,6.772,-124.707,461.960,950.510,253.980
519,77684.611000,347.923,-57.839,-215.160,506.349,9.341,-99.139,-293.040,905.510,-92.020
520,77684.631000,228.324,102.098,-148.420,507.315,6.696,-87.427,-217.040,516.510,-506.020
521,77684.671000,259.954,1.509,-99.611,504.611,22.655,-66.485,1928.960,746.510,-478.020
522,77684.711000,278.734,5.532,-0.996,507.541,23.826,-58.607,156.960,444.510,-289.020
523,77684.751000,282.687,-14.585,1.992,508.532,26.705,-60.503,310.960,-22.490,-88.020
524,77684.791000,288.618,8.550,-59.767,508.428,16.026,-60.740,671.960,-294.490,108.980
525,77684.831000,264.896,-30.680,-72.716,502.566,12.776,-73.573,261.960,-479.490,203.980
526,77684.886000,273.792,-42.750,-46.817,500.538,5.703,-85.502,112.960,-589.490,242.980
527,77684.907000,283.676,-46.774,-49.805,500.413,-3.424,-103.357,116.960,-825.490,337.980
528,77684.947000,278.734,-35.709,-55.782,496.503,-2.965,-124.930,-502.040,-952.490,439.980
529,77684.967000,377.575,47.780,5.977,488.557,-18.229,-153.724,-1361.040,-1166.490,752.980
530,77685.7000,459.614,-94.051,49.805,475.928,-18.847,-176.320,-2004.040,-1389.490,1242.980
531,77685.47000,245.127,-194.640,-172.327,458.202,-44.022,-210.259,-1003.040,-1832.490,1388.980
532,77685.87000,41.514,-69.910,-136.467,433.916,-48.745,-237.873,-1742.040,-1511.490,1148.980
533,77685.133000,-60.293,-120.204,-79.689,430.011,-50.876,-244.793,-648.040,-430.490,526.980
534,77685.175000,-57.328,-110.145,-108.576,439.477,-80.080,-209.137,2072.960,1280.510,204.980
535,77685.207000,-28.664,-20.621,-194.241,455.913,-92.347,-156.419,1766.960,1834.510,-130.020
536,77685.261000,75.120,29.674,-137.463,471.546,-83.675,-121.870,285.960,2047.510,-857.020
537,77685.333000,0.988,-319.371,-492.078,485.501,-53.187,-65.267,-287.040,2009.510,-1167.020
538,77685.348000,122.564,-316.354,2.988,491.441,-42.149,-51.280,2079.960,1429.510,-447.020
539,77685.365000,400.309,203.694,-24.903,500.347,-28.710,-17.620,1073.960,1459.510,-211.020
540,77685.391000,311.351,19.615,-31.875,499.572,-13.660,5.267,-338.040,1025.510,-876.020
541,77685.431000,307.398,12.574,13.946,499.862,11.129,29.354,1264.960,1014.510,-669.020
542,77685.471000,249.081,-40.739,13.946,499.920,14.322,42.174,-137.040,600.510,-485.020
543,77685.511000,257.977,-52.809,-34.864,500.075,29.015,48.384,399.960,395.510,-394.020
544,77685.548000,259.954,-5.532,-32.872,504.045,37.941,55.455,296.960,350.510,-343.020
545,77685.596000,258.965,-21.627,-44.825,498.288,40.107,68.240,199.960,500.510,-249.020
546,77685.610000,239.197,-25.650,-30.879,495.505,50.024,79.241,64.960,373.510,-232.020
547,77685.655000,230.301,-29.674,-39.844,495.465,46.119,78.174,-271.040,146.510,-220.020
548,77685.690000,256.000,-41.745,-9.961,494.617,57.825,81.374,-287.040,143.510,-161.020
549,77685.728000,242.162,-38.727,-5.977,494.584,53.985,83.250,-80.040,-18.490,-4.020
550,77685.768000,258.965,-38.727,8.965,494.573,52.992,82.247,-102.040,-91.490,124.980
551,77685.808000,235.243,-37.721,-25.899,492.556,45.142,79.127,24.960,-200.490,203.980
552,77685.853000,265.884,-39.733,-2.988,494.472,44.988,71.282,164.960,-240.490,300.980
553,77685.888000,240.185,-64.880,-38.848,501.162,37.222,68.182,318.960,-294.490,340.980
554,77685.908000,254.023,-48.786,-38.848,499.141,30.213,59.196,414.960,-298.490,330.980
555,77685.950000,258.965,-27.662,-62.755,498.075,21.337,53.113,366.960,-372.490,297.980
556,77685.990000,256.000,-59.851,-31.875,502.852,17.285,43.226,265.960,-307.490,300.980
557,77686.30000,270.826,-44.762,-29.883,502.826,14.394,44.143,275.960,-245.490,318.980
558,77686.70000,354.842,34.703,31.875,501.731,3.468,33.111,-39.040,-451.490,477.980
559,77686.110000,477.405,145.352,116.545,498.637,-11.598,11.195,-1106.040,-1182.490,727.980
560,77686.157000,390.425,-18.609,-72.716,494.575,-25.810,-15.607,-245.040,-1472.490,412.980
561,77686.191000,281.699,-210.735,-115.549,485.837,-24.428,-37.169,1777.960,-1190.490,66.980
562,77686.231000,205.591,-198.664,50.802,478.138,-19.714,-40.023,3260.960,-630.490,-374.020
563,77686.250000,-6.919,150.381,133.479,467.661,-3.270,-37.718,-726.040,244.510,-1600.020
564,77686.291000,73.143,24.644,76.700,462.410,48.647,-13.041,-645.040,1213.510,-2166.020
565,77686.331000,178.903,-52.809,51.798,439.644,86.220,28.933,-507.040,2276.510,-2147.020
566,77686.370000,264.896,-206.711,-80.685,414.883,114.388,85.403,-213.040,2897.510,-1606.020
567,77686.410000,348.911,-21.627,-113.556,388.153,142.214,127.152,302.960,2307.510,-1715.020
568,77686.451000,335.073,-515.521,-492.078,374.591,133.107,160.264,-2838.040,1514.510,-727.020
569,77686.491000,512.988,-72.927,162.366,377.248,107.893,159.710,710.960,39.510,409.980
570,77686.545000,477.405,143.340,-91.642,381.088,106.766,150.867,244.960,-541.490,312.980
571,77686.571000,263.907,65.886,39.844,384.901,104.495,134.154,1143.960,-329.490,378.980
572,77686.591000,254.023,26.656,-0.996,383.962,108.283,130.313,-495.040,-319.490,361.980
573,77686.631000,265.884,-61.862,2.988,388.738,101.577,132.136,-82.040,-34.490,167.980
574,77686.671000,272.803,-22.633,21.914,389.649,95.761,132.008,-170.040,187.510,-152.020
575,77686.711000,274.780,17.603,12.949,384.921,104.689,142.984,-270.040,340.510,-242.020
576,77686.751000,296.525,36.715,22.911,382.971,101.887,148.802,-390.040,515.510,-323.020
577,77686.792000,331.120,153.399,83.673,380.091,102.074,158.606,-925.040,395.510,-273.020
578,77686.832000,357.807,224.817,51.798,381.915,88.695,167.139,-1352.040,-79.490,-297.020
579,77686.872000,331.120,2.515,2.988,384.881,96.383,162.413,-557.040,-460.490,-487.020
580,77686.892000,343.969,156.417,79.689,381.246,123.249,150.253,1706.960,32.510,-1291.020
581,77686.931000,314.317,70.916,-85.665,376.703,156.837,135.298,267.960,-462.490,-1606.020
582,77686.971000,313.328,-38.727,-205.198,375.946,185.263,104.546,658.960,-1416.490,-1559.020
583,77687.11000,275.768,-78.963,-237.074,370.289,212.154,50.214,1392.960,-2139.490,-1213.020
584,77687.52000,239.197,-111.151,-236.078,366.459,224.824,10.280,274.960,-2885.490,-720.020
585,77687.92000,190.764,-181.564,-216.156,354.772,229.242,-48.486,-527.040,-3551.490,-184.020
586,77687.132000,161.112,-181.564,-166.350,340.154,232.488,-115.130,-11.040,-3697.490,288.980
587,77687.172000,166.054,-190.617,-89.650,327.445,231.093,-173.046,632.960,-3543.490,1027.980
588,77687.212000,162.100,-165.470,-38.848,314.477,204.325,-237.411,635.960,-3223.490,1621.980
589,77687.232000,167.042,-123.222,-33.868,303.395,169.185,-286.267,389.960,-2585.490,2134.980
590,77687.271000,174.950,-116.181,-27.891,297.368,153.789,-321.925,276.960,-1956.490,2199.980
591,77687.311000,180.880,-164.464,-34.864,305.600,107.941,-336.655,1128.960,-676.490,2407.980
592,77687.352000,198.672,-146.358,-61.759,321.503,54.466,-348.595,1514.960,349.510,2381.980
593,77687.392000,220.417,-71.921,-57.774,352.796,-13.809,-334.354,1729.960,1638.510,1936.980
594,77687.435000,266.873,-6.538,-61.759,392.155,-53.336,-295.922,814.960,2396.510,1410.980
595,77687.475000,418.100,14.585,-49.805,429.792,-73.227,-246.271,-591.040,2768.510,786.980
596,77687.510000,358.795,130.263,-66.739,463.021,-50.318,-189.794,-2129.040,2897.510,-153.020
597,77687.530000,355.830,170.499,-24.903,483.556,-36.571,-147.277,-2832.040,2978.510,-734.020
598,77687.570000,512.988,-257.006,-371.549,495.317,-25.326,-126.409,649.960,906.510,589.980
599,77687.610000,23.722,113.163,-328.716,498.377,-16.733,-89.928,1589.960,994.510,-778.020
600,77687.658000,196.695,95.057,-139.455,499.413,-14.307,-68.297,271.960,715.510,-644.020
601,77687.696000,244.139,-52.809,-78.693,499.581,-0.370,-52.297,433.960,783.510,-369.020
602,77687.730000,260.942,21.627,-41.837,502.533,1.018,-34.608,872.960,597.510,-349.020
603,77687.770000,285.652,-6.538,-24.903,502.662,12.819,-27.481,384.960,207.510,-194.020
604,77687.810000,273.792,24.644,-48.809,502.667,13.747,-29.422,517.960,-160.490,65.980
605,77687.863000,274.780,-37.721,-40.840,499.693,7.742,-36.426,589.960,-369.490,119.980
606,77687.870000,275.768,-35.709,-69.728,501.513,-1.257,-49.370,101.960,-481.490,173.980
607,77687.910000,255.012,-47.780,-49.805,498.577,-2.493,-60.191,259.960,-624.490,235.980
608,77687.950000,282.687,-23.639,-15.938,494.542,-14.678,-83.025,184.960,-931.490,418.980
609,77687.996000,342.981,22.633,-52.794,489.529,-26.979,-110.767,-292.040,-1346.490,711.980
610,77688.48000,477.405,51.804,81.681,476.622,-52.279,-152.544,-1234.040,-1624.490,1000.980
611,77688.76000,420.077,-106.122,-4.981,468.729,-63.509,-174.384,-920.040,-1916.490,1310.980
612,77688.115000,219.429,-142.334,-163.362,447.189,-81.148,-216.990,-638.040,-1947.490,1142.980
613,77688.155000,37.560,-42.750,-115.549,427.779,-81.919,-243.526,-746.040,-1132.490,612.980
614,77688.200000,-40.525,-159.434,-84.669,422.861,-91.546,-237.866,1142.960,132.510,135.980
615,77688.213000,-90.934,-62.868,-157.385,437.276,-111.706,-190.230,2168.960,1504.510,-419.020
616,77688.260000,-25.699,48.786,-210.179,456.798,-103.686,-142.940,698.960,1756.510,-837.020
617,77688.293000,56.340,-217.776,-470.163,472.559,-80.580,-113.954,-377.040,1839.510,-1376.020
618,77688.333000,127.506,-455.167,-492.078,477.689,-53.953,-96.681,-341.040,285.510,-148.020
619,77688.373000,-145.297,-189.611,-64.747,494.317,-41.495,-66.950,1387.960,1344.510,-991.020
620,77688.415000,325.189,144.346,-46.817,501.196,-36.877,-36.432,93.960,1308.510,-556.020
621,77688.455000,348.911,-0.503,-34.864,502.340,-23.729,-12.602,305.960,1212.510,-785.020
622,77688.495000,319.259,-16.597,-5.977,502.618,-0.816,14.385,762.960,1126.510,-689.020
623,77688.521000,250.069,-36.715,-22.911,507.625,13.190,31.377,-18.040,678.510,-683.020
624,77688.555000,254.023,-49.792,-54.786,499.974,20.126,41.322,22.960,628.510,-576.020
625,77688.595000,241.174,-58.845,-30.879,501.032,27.169,52.268,209.960,613.510,-573.020
626,77688.635000,256.000,-33.697,-16.934,498.305,42.027,67.302,-111.040,540.510,-425.020
627,77688.675000,254.023,-27.662,-18.926,493.549,48.042,78.213,65.960,448.510,-343.020
628,77688.716000,240.185,-37.721,-5.977,495.545,53.045,84.212,219.960,357.510,-233.020
629,77688.751000,254.023,-20.621,-19.922,494.741,68.699,90.441,135.960,301.510,-168.020
630,77688.791000,256.000,-17.603,-14.942,494.712,64.017,98.183,315.960,294.510,-133.020
631,77688.831000,248.093,-19.615,-18.926,488.034,72.775,102.286,107.960,189.510,-61.020
632,77688.851000,254.023,-28.668,-4.981,490.955,73.860,106.239,257.960,144.510,-26.020
633,77688.892000,251.058,-20.621,-12.949,488.076,76.702,104.334,230.960,69.510,-4.020
634,77688.935000,262.919,-22.633,-6.973,489.069,78.717,107.323,302.960,133.510,-52.020
635,77688.977000,256.000,-3.521,0.000,490.051,80.625,105.406,174.960,16.510,17.980
636,77689.12000,256.988,-19.615,-6.973,489.041,76.689,103.355,120.960,-61.490,74.980
637,77689.52000,258.965,-15.591,-12.949,490.936,72.803,102.293,55.960,-110.490,123.980
638,77689.92000,249.081,-41.745,-7.969,489.967,72.772,101.309,14.960,-127.490,128.980
639,77689.131000,261.931,-16.597,13.946,495.704,66.896,96.287,-137.040,-195.490,151.980
640,77689.176000,276.757,8.550,24.903,494.704,65.700,86.452,-56.040,-470.490,284.980
641,77689.191000,339.027,52.809,56.778,500.310,48.000,73.323,25.960,-810.490,448.980
642,77689.231000,402.286,17.603,113.556,502.045,33.780,43.591,-505.040,-1276.490,740.980
643,77689.272000,238.208,-24.644,-87.658,504.837,27.465,19.921,45.960,-1179.490,497.980
644,77689.312000,265.884,-189.611,-11.953,495.987,18.082,-5.804,544.960,-1056.490,418.980
645,77689.356000,43.490,47.780,105.588,493.033,13.156,-7.880,952.960,-127.490,124.980
646,77689.397000,84.015,-39.733,100.607,490.319,28.144,13.040,533.960,1245.510,-595.020
647,77689.436000,110.703,-0.503,87.658,474.164,47.509,62.469,1040.960,2152.510,-1062.020
648,77689.472000,260.942,19.615,51.798,443.796,95.124,123.282,459.960,2745.510,-1550.020
649,77689.492000,353.853,-24.644,-40.840,410.297,121.158,174.784,-534.040,2431.510,-1728.020
650,77689.532000,267.861,-64.880,-85.665,373.563,115.794,211.853,-1911.040,1875.510,-1512.020
651,77689.572000,512.988,-487.356,-254.008,373.412,98.491,219.314,-1602.040,-637.490,1077.980
652,77689.612000,223.382,16.597,15.938,377.240,96.372,209.468,614.960,-206.490,383.980
653,77689.652000,278.734,33.697,1.992,381.073,94.295,201.585,700.960,-413.490,557.980
654,77689.692000,266.873,-23.639,-5.977,390.692,91.218,189.769,1239.960,-405.490,496.980
655,77689.732000,290.595,60.857,-8.965,392.633,93.934,180.027,17.960,-396.490,233.980
656,77689.772000,276.757,-28.668,1.992,395.411,82.204,174.869,24.960,-197.490,122.980
657,77689.812000,278.734,-26.656,21.914,394.495,87.092,176.937,-139.040,38.510,-83.020
658,77689.832000,280.710,4.527,45.821,392.612,91.970,179.002,-72.040,165.510,-151.020
659,77689.872000,356.819,119.198,90.646,392.540,83.362,184.695,-352.040,93.510,-12.020
660,77689.912000,371.645,167.481,141.447,392.433,73.524,178.593,-842.040,-176.490,148.980
661,77689.955000,359.784,135.293,61.759,400.992,59.866,171.443,-811.040,-269.490,-40.020
662,77689.998000,265.884,19.615,-97.619,400.949,58.571,156.704,805.960,-439.490,-665.020
663,77690.35000,224.371,20.621,26.895,398.408,98.111,146.789,2401.960,177.510,-1401.020
664,77690.75000,305.421,30.680,-48.809,393.949,139.552,135.932,260.960,-244.490,-1903.020
665,77690.115000,341.992,-106.122,-182.288,388.271,154.792,125.471,-505.040,-970.490,-1586.020
666,77690.156000,311.351,-122.216,-230.101,388.414,178.180,85.783,1054.960,-1908.490,-1026.020
667,77690.176000,235.243,-131.269,-181.292,386.468,190.372,23.287,870.960,-2652.490,-576.020
668,77690.216000,190.764,-159.434,-168.342,384.563,206.492,-37.160,-137.040,-3251.490,-96.020
669,77690.256000,140.355,-163.458,-131.486,375.713,205.911,-103.877,112.960,-3336.490,280.980
670,77690.296000,118.610,-137.305,-86.661,360.979,195.716,-163.954,516.960,-3132.490,957.980
671,77690.332000,136.402,-144.346,-48.809,352.749,158.360,-226.583,614.960,-2744.490,1421.980
672,77690.375000,138.378,-126.240,-22.911,347.717,145.001,-258.271,615.960,-2258.490,1824.980
673,77690.412000,146.286,-100.086,-43.829,339.588,112.132,-293.341,684.960,-1383.490,2034.980
674,77690.456000,147.274,-104.110,-55.782,347.875,72.973,-312.825,423.960,-607.490,2092.980
675,77690.486000,161.112,-112.157,-63.751,363.006,38.086,-317.490,438.960,392.510,1885.980
676,77690.512000,178.903,-61.862,-104.591,385.874,-0.263,-306.525,597.960,1151.510,1605.980
677,77690.556000,275.768,-27.662,-73.712,417.643,-23.469,-272.650,306.960,2050.510,957.980
678,77690.596000,355.830,-1.509,-53.790,453.391,-37.662,-227.779,-436.040,2446.510,404.980
679,77690.636000,301.467,143.340,-155.393,472.919,-27.829,-186.332,-1776.040,2681.510,-490.020
680,77690.678000,512.988,-162.452,-38.848,486.706,-7.762,-162.322,-1863.040,1105.510,389.980
681,77690.717000,228.324,-117.187,-336.685,495.454,-9.037,-135.854,141.960,968.510,-389.020
682,77690.757000,380.541,156.417,-42.833,499.411,-4.641,-114.173,739.960,809.510,-603.020
683,77690.797000,325.189,1.509,-40.840,507.321,8.509,-93.271,1058.960,780.510,-386.020
684,77690.817000,275.768,39.733,-27.891,506.441,14.626,-79.408,227.960,516.510,-277.020
685,77690.857000,285.652,-69.910,1.992,508.340,9.899,-74.605,542.960,240.510,-189.020
686,77690.897000,277.745,14.585,-72.716,506.443,13.763,-74.524,1010.960,-82.490,-15.020
687,77690.937000,292.571,6.538,-66.739,503.450,5.817,-81.571,556.960,-349.490,87.980
688,77690.977000,288.618,-23.639,-44.825,500.532,6.522,-92.349,131.960,-647.490,260.980
689,77691.17000,299.490,-20.621,-21.914,499.379,-7.597,-116.200,-34.040,-917.490,469.980
690,77691.57000,338.039,15.591,-12.949,489.462,-25.857,-148.008,-566.040,-1384.490,786.980
691,77691.95000,434.903,75.945,49.805,475.738,-37.402,-181.636,-1509.040,-1447.490,1044.980
692,77691.135000,362.749,-233.870,-96.623,464.955,-46.782,-206.383,-1261.040,-1932.490,1321.980
693,77691.155000,74.131,-188.605,-169.339,443.510,-56.461,-239.986,-720.040,-1688.490,1031.980
694,77691.195000,-44.479,-45.768,-136.467,425.068,-58.107,-262.616,-1319.040,-1139.490,670.980
695,77691.235000,-64.247,-124.228,-110.568,419.189,-67.678,-254.015,799.960,332.510,235.980
696,77691.276000,-27.676,-114.169,-150.412,439.378,-88.947,-215.218,1898.960,1297.510,15.980
697,77691.316000,-3.954,-22.633,-238.070,452.981,-92.656,-169.181,958.960,1669.510,-432.020
698,77691.356000,103.784,-44.762,-192.249,474.543,-72.168,-129.454,-194.040,1588.510,-934.020
699,77691.396000,146.286,-313.336,-492.078,485.382,-53.446,-121.170,-623.040,647.510,-449.020
700,77691.442000,-32.618,-325.407,-216.156,491.280,-49.851,-92.639,1049.960,1438.510,-566.020
701,77691.456000,288.618,254.994,-141.447,498.120,-49.138,-63.189,-444.040,1186.510,-616.020
702,77691.496000,342.981,29.674,-5.977,500.247,-34.945,-36.391,761.960,1226.510,-791.020
703,77691.536000,243.151,-21.627,-27.891,503.416,-12.997,-10.400,1008.960,1111.510,-674.020
704,77691.576000,237.220,-52.809,-27.891,502.614,0.910,4.617,-35.040,702.510,-640.020
705,77691.616000,256.988,-53.815,-51.798,503.737,12.979,23.519,86.960,616.510,-622.020
706,77691.657000,267.861,-40.739,-14.942,499.034,25.661,28.694,-59.040,571.510,-522.020
707,77691.697000,271.815,-4.527,-24.903,498.079,24.897,38.482,-111.040,419.510,-375.020
708,77691.742000,254.023,-52.809,1.992,496.332,42.526,46.715,91.960,257.510,-169.020
709,77691.776000,247.104,-30.680,-31.875,498.293,44.551,49.706,-46.040,121.510,-113.020
710,77691.797000,250.069,-31.686,-38.848,496.339,41.706,53.561,122.960,159.510,-87.020
711,77691.847000,246.116,-39.733,-29.883,495.406,44.674,56.567,-181.040,128.510,-59.020
712,77691.880000,230.301,-50.798,-32.872,495.425,45.731,60.513,-29.040,58.510,-8.020
713,77691.917000,250.069,-26.656,-3.984,493.492,46.618,57.587,56.960,-110.490,91.980
714,77691.956000,254.023,-19.615,-28.887,497.330,44.585,51.666,171.960,-262.490,272.980
715,77692.0,253.035,-44.762,-23.907,504.032,38.696,45.665,291.960,-328.490,337.980
716,77692.38000,246.116,-54.821,-55.782,500.998,26.845,37.551,337.960,-327.490,336.980
717,77692.78000,237.220,-75.945,-61.759,506.752,23.773,27.688,460.960,-293.490,308.980
718,77692.118000,242.162,-87.010,-34.864,502.744,10.079,24.434,586.960,-229.490,249.980
719,77692.138000,261.931,-31.686,-40.840,504.705,13.873,19.619,399.960,-314.490,256.980
720,77692.178000,271.815,-56.833,-33.868,501.669,1.116,14.426,921.960,-202.490,226.980
721,77692.218000,261.931,-32.692,-27.891,501.693,3.985,12.528,1088.960,-181.490,186.980
722,77692.258000,319.259,27.662,15.938,497.713,-5.912,5.435,11.960,-351.490,312.980
723,77692.301000,427.985,64.880,35.860,501.387,-21.839,-14.524,-2149.040,-919.490,610.980
724,77692.352000,402.286,-1.509,-50.802,497.463,-23.279,-34.177,-527.040,-1021.490,410.980
725,77692.378000,308.386,-68.904,-135.471,494.430,-33.361,-50.098,1331.960,-1123.490,114.980
726,77692.418000,188.788,-138.310,-71.720,490.590,-26.948,-65.654,2108.960,-961.490,-167.020
727,77692.458000,-7.907,166.475,180.296,481.076,-11.422,-61.407,33.960,256.510,-1153.020
728,77692.478000,57.328,-7.544,53.790,478.571,24.061,-35.127,-799.040,1163.510,-1793.020
729,77692.518000,192.741,-57.839,52.794,466.600,75.524,16.003,-412.040,2095.510,-2006.020
730,77692.558000,351.876,-181.564,-0.996,443.878,112.643,81.503,344.960,2958.510,-1690.020
731,77692.596000,282.687,19.615,-54.786,401.706,142.433,131.108,384.960,2687.510,-1665.020
732,77692.642000,311.351,-314.342,-170.335,383.268,127.625,171.929,-3905.040,1272.510,-401.020
733,77692.677000,367.691,-86.004,35.860,387.839,100.467,170.355,-301.040,-318.490,1152.980
734,77692.717000,333.097,139.316,-38.848,391.697,99.512,169.361,1077.960,-55.490,361.980
735,77692.757000,280.710,4.527,20.918,390.747,103.192,160.615,996.960,-335.490,301.980
736,77692.777000,288.618,36.715,17.930,393.504,90.383,150.530,-13.040,-325.490,285.980
737,77692.817000,273.792,-40.739,3.984,395.470,94.221,147.677,-90.040,-212.490,144.980
738,77692.857000,254.023,-37.721,-2.988,399.385,99.091,146.813,-6.040,-25.490,-132.020
739,77692.897000,265.884,-31.686,15.938,398.434,100.118,149.776,-44.040,185.510,-260.020
740,77692.937000,267.861,5.532,14.942,393.648,104.083,155.738,-186.040,286.510,-266.020
741,77692.977000,300.479,52.809,41.837,392.626,97.386,160.490,-331.040,305.510,-190.020
742,77693.17000,335.073,94.051,102.599,391.625,93.536,162.364,-454.040,141.510,-112.020
743,77693.58000,361.761,151.387,34.864,393.520,89.650,161.301,-943.040,-172.490,-107.020
744,77693.98000,315.305,-8.550,-95.626,404.112,88.394,143.643,-480.040,-743.490,-299.020
745,77693.118000,360.772,50.798,-37.852,404.183,100.520,121.357,2055.960,-768.490,-659.020
746,77693.161000,313.328,96.063,-54.786,406.268,123.990,84.618,1109.960,-1254.490,-1010.020
747,77693.201000,316.293,-17.603,-166.350,408.258,135.983,55.468,203.960,-1968.490,-1371.020
748,77693.241000,231.290,-95.057,-205.198,400.746,170.665,3.266,641.960,-2370.490,-1315.020
749,77693.281000,172.973,-141.328,-203.206,390.146,188.577,-60.101,633.960,-2881.490,-780.020
750,77693.325000,120.587,-194.640,-177.307,371.675,192.821,-123.789,39.960,-3231.490,-232.020
751,77693.360000,103.784,-208.723,-117.541,345.408,191.164,-187.624,-154.040,-3387.490,529.980
752,77693.400000,101.807,-168.487,-53.790,324.861,179.942,-247.737,523.960,-3096.490,1059.980
753,77693.440000,101.807,-158.428,-29.883,306.117,152.514,-295.457,667.960,-2593.490,1573.980
754,77693.456000,116.633,-143.340,-21.914,300.098,135.435,-319.385,237.960,-1741.490,2014.980
755,77693.496000,165.066,-137.305,-46.817,302.642,103.856,-344.597,552.960,-904.490,2124.980
756,77693.540000,175.938,-127.246,-83.673,315.695,55.251,-354.474,1067.960,383.510,2140.980
757,77693.580000,205.591,-108.134,-56.778,338.469,7.193,-343.725,695.960,1183.510,1946.980
758,77693.620000,265.884,-60.857,-79.689,378.794,-31.462,-310.175,767.960,2248.510,1585.980
759,77693.660000,355.830,-15.591,-90.646,421.241,-53.334,-264.480,97.960,2689.510,1053.980
760,77693.700000,412.170,-25.650,-70.724,455.138,-60.577,-211.613,-910.040,2777.510,397.980
761,77693.740000,331.120,133.281,23.907,475.574,-56.582,-171.274,-2256.040,2793.510,-302.020
762,77693.756000,286.641,-170.499,-492.078,488.540,-21.034,-148.883,-3227.040,749.510,411.980
763,77693.796000,-29.653,-44.762,17.930,496.252,-30.904,-115.744,2459.960,1332.510,-674.020
764,77693.837000,383.506,183.576,-64.747,496.386,-22.577,-90.061,1970.960,969.510,-141.020
765,77693.877000,214.486,22.633,-87.658,498.402,-17.380,-75.232,262.960,674.510,-380.020
766,77693.917000,249.081,39.733,-63.751,499.492,-8.266,-58.356,1282.960,619.510,-404.020
767,77693.957000,294.548,-29.674,-2.988,499.558,-2.354,-54.302,114.960,253.510,-247.020
768,77693.997000,294.548,-4.527,-36.856,498.612,-0.401,-53.280,104.960,10.510,-118.020
769,77694.37000,277.745,-29.674,-37.852,501.542,2.540,-53.209,800.960,-214.490,-24.020
770,77694.77000,262.919,-38.727,-63.751,498.613,2.253,-64.989,329.960,-385.490,53.980
771,77694.97000,256.988,-47.780,-53.790,494.598,-10.621,-75.090,7.960,-455.490,127.980
772,77694.140000,266.873,-37.721,-51.798,494.628,-5.055,-86.734,-69.040,-654.490,236.980
773,77694.190000,310.363,7.544,-24.903,487.721,-14.333,-108.529,-741.040,-859.490,497.980
774,77694.233000,422.054,21.627,72.716,487.558,-27.343,-126.470,-1450.040,-1251.490,869.980
775,77694.260000,446.764,-98.075,70.724,472.874,-37.948,-161.060,-1806.040,-1411.490,1296.980
776,77694.296000,293.560,-167.481,-144.436,454.145,-65.225,-201.912,-1307.040,-1901.490,1508.980
777,77694.346000,86.981,-44.762,-78.693,434.675,-70.979,-234.442,-2099.040,-1430.490,1335.980
778,77694.380000,-43.490,-73.933,-43.829,435.490,-90.042,-219.173,1070.960,570.510,553.980
779,77694.420000,-38.548,-8.550,-138.459,449.967,-106.082,-160.659,2145.960,1838.510,-22.020
780,77694.440000,53.375,118.193,-186.272,473.438,-93.753,-95.612,982.960,2425.510,-941.020
781,77694.480000,70.178,-398.837,-492.078,477.635,-69.444,-50.934,-10.040,2438.510,-1691.020
782,77694.521000,490.255,-381.737,-492.078,485.598,-50.490,-30.883,1608.960,948.510,114.980
783,77694.562000,-131.459,-215.764,-263.969,494.552,-31.312,-1.019,438.960,1291.510,-673.020
784,77694.601000,425.019,94.051,-89.650,493.833,-13.091,33.707,-940.040,1240.510,-705.020
785,77694.641000,263.907,54.821,-39.844,499.819,0.148,59.511,-160.040,1248.510,-833.020
786,77694.691000,310.363,-2.515,55.782,496.196,20.973,81.540,491.960,1079.510,-731.020
787,77694.726000,271.815,-29.674,28.887,492.504,36.728,93.650,-173.040,541.510,-463.020
788,77694.740000,262.919,-1.509,-29.883,491.603,42.630,97.702,160.960,350.510,-323.020
789,77694.780000,251.058,-15.591,-31.875,493.615,49.552,102.763,109.960,256.510,-245.020
790,77694.821000,238.208,-16.597,-25.899,490.740,51.552,106.724,-10.040,264.510,-184.020
791,77694.861000,237.220,-25.650,-17.930,484.930,49.683,112.554,18.960,148.510,-85.020
792,77694.897000,234.255,-13.580,-25.899,485.991,58.517,116.675,-40.040,91.510,-47.020
793,77694.951000,256.000,-33.697,12.949,486.949,57.555,116.656,127.960,70.510,97.980
794,77694.977000,254.023,-0.503,-31.875,489.807,52.751,117.536,-57.040,-40.490,137.980
795,77695.17000,262.919,-38.727,-17.930,485.878,46.866,116.416,-0.040,-147.490,211.980
796,77695.57000,259.954,-32.692,-22.911,492.554,38.087,111.332,-34.040,-114.490,179.980
797,77695.78000,267.861,-34.703,-14.942,488.663,36.086,110.299,12.960,-58.490,141.980
798,77695.121000,249.081,-54.821,-19.922,492.550,38.043,109.370,88.960,17.510,139.980
799,77695.158000,255.012,-12.574,-36.856,492.509,33.254,112.205,83.960,31.510,78.980
800,77695.200000,253.035,-31.686,-19.922,491.523,31.303,112.160,47.960,52.510,58.980
801,77695.240000,252.046,-59.851,-16.934,492.516,33.319,115.149,138.960,66.510,107.980
802,77695.281000,246.116,-33.697,-9.961,492.431,24.581,114.955,3.960,44.510,174.980
803,77695.317000,261.931,-25.650,7.969,492.465,28.421,113.079,299.960,-70.490,248.980
804,77695.357000,300.479,-11.568,12.949,493.340,19.628,109.943,804.960,-301.490,268.980
805,77695.397000,361.761,55.827,63.751,491.334,15.402,95.135,493.960,-675.490,315.980
806,77695.417000,281.699,-22.633,0.996,495.060,4.372,77.246,410.960,-967.490,324.980
807,77695.461000,299.490,-82.986,8.965,497.957,8.759,54.795,356.960,-1076.490,351.980
808,77695.497000,223.382,-93.045,60.763,492.152,12.219,38.188,752.960,-831.490,137.980
809,77695.540000,126.517,-39.733,113.556,488.297,14.080,36.260,717.960,45.510,-500.020
810,77695.580000,103.784,6.538,107.580,476.994,41.561,55.479,523.960,911.510,-863.020
811,77695.620000,153.205,-54.821,80.685,457.891,57.812,96.987,378.960,1951.510,-1107.020
812,77695.660000,218.440,-63.874,-15.938,428.352,93.549,146.751,546.960,2434.510,-1125.020
813,77695.700000,324.201,-36.715,-100.607,401.497,108.732,187.238,-1054.040,1860.510,-1192.020
814,77695.720000,254.023,-515.521,-492.078,386.792,84.729,205.307,-2909.040,1002.510,-742.020
815,77695.760000,97.853,114.169,137.463,391.668,89.544,201.502,1873.960,-127.490,-110.020
816,77695.800000,407.228,96.063,15.938,386.866,93.359,200.596,919.960,4.510,389.980
817,77695.840000,224.371,61.862,-30.879,387.848,96.152,194.776,502.960,-216.490,246.980
818,77695.880000,317.282,26.656,19.922,392.726,100.989,191.951,312.960,-73.490,172.980
819,77695.920000,294.548,-10.562,33.868,389.793,98.026,190.899,-174.040,21.510,-32.020
820,77695.961000,268.849,-41.745,19.922,389.762,93.323,197.659,1.960,222.510,-168.020
821,77696.1000,250.069,1.509,40.840,385.955,99.175,200.723,-136.040,328.510,-244.020
822,77696.42000,290.595,36.715,72.716,383.036,96.342,205.557,-133.040,304.510,-124.020
823,77696.62000,303.444,65.886,113.556,383.045,96.428,209.482,-212.040,135.510,-23.020
824,77696.98000,340.015,119.198,139.455,385.832,85.669,204.345,-134.040,-221.490,90.980
825,77696.141000,362.749,125.234,74.708,391.643,89.307,190.709,284.960,-571.490,-75.020
826,77696.181000,323.212,-36.715,-26.895,393.694,107.168,163.651,2687.960,-536.490,-598.020
827,77696.221000,313.328,140.322,0.996,397.886,147.271,132.188,2536.960,-793.490,-1160.020
828,77696.261000,310.363,-9.556,-99.611,399.015,171.725,96.449,661.960,-1474.490,-1461.020
829,77696.302000,237.220,-32.692,-169.339,396.197,187.468,63.450,349.960,-1907.490,-1524.020
830,77696.342000,233.266,-133.281,-209.183,389.567,212.537,14.960,379.960,-2400.490,-1140.020
831,77696.390000,229.313,-158.428,-212.171,373.045,218.698,-50.643,570.960,-3073.490,-694.020
832,77696.400000,189.776,-193.635,-175.315,358.492,229.603,-122.020,468.960,-3424.490,-96.020
833,77696.440000,140.355,-187.599,-104.591,337.917,218.122,-193.906,387.960,-3516.490,749.980
834,77696.480000,124.541,-177.540,-38.848,318.162,188.506,-252.464,778.960,-3151.490,1372.980
835,77696.520000,125.529,-120.204,15.938,304.102,145.570,-301.499,1038.960,-2235.490,2121.980
836,77696.561000,133.436,-105.116,17.930,303.834,122.744,-324.562,772.960,-1390.490,2397.980
837,77696.601000,141.344,-128.251,-35.860,307.303,85.479,-344.014,724.960,-198.490,2474.980
838,77696.657000,169.019,-98.075,-48.809,330.054,37.205,-343.076,839.960,678.510,2272.980
839,77696.680000,195.707,-90.028,-61.759,363.479,-10.663,-328.378,560.960,1799.510,1951.980
840,77696.700000,280.710,-61.862,-84.669,401.885,-48.301,-291.867,62.960,2383.510,1509.980
841,77696.740000,369.668,-78.963,-76.700,436.793,-49.839,-244.756,-1297.040,2597.510,803.980
842,77696.787000,368.680,118.193,-29.883,460.064,-51.749,-209.446,-1708.040,2643.510,119.980
843,77696.821000,188.788,-176.534,-492.078,484.639,-21.373,-162.628,-3298.040,2480.510,-384.020
844,77696.861000,126.517,-229.847,52.794,493.443,-15.075,-144.818,1024.960,1228.510,84.980
845,77696.901000,504.093,136.299,32.872,499.260,-21.060,-110.616,1679.960,1097.510,-195.020
846,77696.941000,377.575,182.570,-65.743,501.341,-9.951,-91.732,-19.040,589.510,-510.020
847,77696.981000,348.911,-20.621,-10.957,502.420,-1.830,-75.859,1470.960,600.510,-531.020
848,77697.21000,271.815,-55.827,7.969,504.444,6.085,-69.795,695.960,130.510,-341.020
849,77697.41000,254.023,-63.874,-85.665,501.572,8.991,-68.756,1131.960,43.510,-275.020
850,77697.81000,257.977,54.821,-93.634,501.518,3.188,-67.904,429.960,-66.490,-209.020
851,77697.121000,274.780,-0.503,-52.794,498.661,8.877,-72.687,-53.040,-203.490,-63.020
852,77697.161000,288.618,-39.733,8.965,497.690,11.478,-86.361,44.960,-467.490,190.980
853,77697.235000,294.548,-36.715,-3.984,497.543,-0.496,-101.337,-23.040,-947.490,438.980
854,77697.248000,335.073,20.621,-10.957,487.643,-17.721,-130.179,-610.040,-1220.490,704.980
855,77697.292000,475.429,106.122,102.599,479.719,-30.137,-161.853,-1627.040,-1440.490,1146.980
856,77697.321000,340.015,-266.059,-148.420,464.107,-36.846,-195.377,-1700.040,-2120.490,1401.980
857,77697.361000,121.575,-172.511,-192.249,441.626,-53.352,-230.114,-1155.040,-1624.490,1297.980
858,77697.381000,-52.386,-40.739,-113.556,433.822,-56.685,-245.895,-1451.040,-443.490,749.980
859,77697.421000,-93.900,-120.204,-132.482,441.457,-73.459,-217.812,2054.960,1281.510,119.980
860,77697.461000,-77.097,-37.721,-186.272,464.679,-84.646,-163.094,1637.960,1992.510,-298.020
861,77697.507000,37.560,14.585,-249.027,480.504,-59.167,-114.443,-485.040,1962.510,-1133.020
862,77697.541000,96.865,-466.232,-492.078,494.390,-29.348,-88.255,-1756.040,768.510,-1110.020
863,77697.581000,0.000,-76.951,-85.665,495.429,-25.132,-73.449,1729.960,1202.510,-1305.020
864,77697.621000,374.610,116.181,-35.860,500.434,-14.664,-40.844,1059.960,1527.510,-674.020
865,77697.687000,279.722,18.609,-67.735,504.520,1.533,-12.037,-432.040,1257.510,-827.020
866,77697.697000,281.699,-14.585,-4.981,498.976,22.468,15.875,232.960,1204.510,-730.020
867,77697.727000,258.965,-44.762,17.930,499.142,35.499,34.797,-15.040,899.510,-635.020
868,77697.762000,249.081,-3.521,-38.848,497.429,55.221,49.941,-289.040,607.510,-582.020
869,77697.802000,260.942,3.521,-17.930,495.505,53.541,62.648,-290.040,499.510,-466.020
870,77697.842000,249.081,-57.839,23.907,495.591,61.416,67.726,-134.040,368.510,-192.020
871,77697.882000,239.197,-5.532,-10.957,492.731,64.430,73.671,-197.040,149.510,-62.020
872,77697.928000,239.197,-26.656,-4.981,490.843,69.265,73.775,266.960,3.510,50.980
873,77697.961000,263.907,-17.603,-38.848,494.715,69.324,74.765,174.960,-3.490,78.980
874,77698.2000,246.116,-20.621,-48.809,492.705,62.423,70.685,167.960,-0.490,40.980
875,77698.22000,248.093,-41.745,4.981,495.638,65.386,71.737,140.960,8.510,87.980
876,77698.67000,269.838,7.544,-19.922,495.586,60.488,69.667,77.960,-70.490,135.980
877,77698.102000,248.093,-31.686,-14.942,493.659,61.419,68.703,395.960,-155.490,160.980
878,77698.142000,262.919,-20.621,-10.957,494.582,57.480,65.676,253.960,-174.490,209.980
879,77698.183000,275.768,-55.827,42.833,497.402,50.561,58.663,862.960,31.510,390.980
880,77698.221000,260.942,-28.668,-42.833,497.329,43.700,55.569,-117.040,-155.490,168.980
881,77698.261000,268.849,-51.804,-24.903,495.386,43.595,51.640,358.960,-108.490,162.980
882,77698.301000,261.931,-38.727,-27.891,497.328,44.563,50.685,44.960,-114.490,201.980
883,77698.341000,240.185,-68.904,-49.805,501.200,44.623,51.675,83.960,22.510,143.980
884,77698.361000,224.371,-91.033,-63.751,500.194,40.730,51.586,186.960,178.510,81.980
885,77698.402000,227.336,-68.904,-20.918,499.240,39.965,61.374,453.960,316.510,-113.020
886,77698.442000,282.687,-1.509,-5.977,500.207,39.090,65.279,204.960,216.510,-13.020
887,77698.482000,343.969,59.851,76.700,494.358,35.085,62.236,279.960,-88.490,218.980
888,77698.523000,421.066,86.004,135.471,500.065,28.044,48.363,-639.040,-1042.490,673.980
889,77698.578000,366.703,46.774,75.704,497.820,3.042,15.441,-668.040,-1272.490,631.980
890,77698.608000,270.826,-133.281,-133.479,501.633,1.655,-5.176,-236.040,-1291.490,353.980
891,77698.645000,261.931,-148.369,50.802,497.639,-6.624,-26.942,1171.960,-1015.490,328.980
892,77698.670000,55.351,61.862,122.521,492.880,2.002,-29.703,380.960,33.510,-252.020
893,77698.705000,71.166,36.715,137.463,493.148,23.944,-2.737,206.960,973.510,-873.020
894,77698.741000,155.181,-4.527,116.545,481.924,52.179,50.821,640.960,2283.510,-1340.020
895,77698.785000,190.764,-16.597,77.696,450.571,96.096,120.376,672.960,3065.510,-1647.020
896,77698.827000,360.772,-24.644,-73.712,403.602,127.111,183.728,-542.040,2831.510,-1847.020
897,77698.861000,343.969,-260.024,-192.249,379.557,135.268,212.298,-2426.040,1786.510,-1252.020
898,77698.902000,412.170,-140.322,-165.354,383.261,117.873,213.881,-549.040,-651.490,1104.980
899,77698.953000,398.332,-52.809,62.755,381.375,125.363,202.275,1261.960,-107.490,476.980
900,77698.985000,239.197,55.827,-26.895,383.261,122.275,193.385,202.960,-504.490,95.980
901,77699.5000,282.687,21.627,41.837,390.109,130.992,189.670,909.960,-103.490,182.980
902,77699.45000,258.965,0.503,30.879,389.069,124.122,186.573,-292.040,-98.490,45.980
903,77699.85000,288.618,14.585,31.875,391.962,123.180,186.558,-108.040,35.510,-33.020
904,77699.121000,267.861,-9.556,50.802,388.165,130.003,189.644,-15.040,143.510,-123.020
905,77699.161000,273.792,14.585,31.875,386.203,126.208,194.459,-240.040,221.510,-168.020
906,77699.201000,269.838,31.686,51.798,381.403,129.160,198.437,-218.040,278.510,-184.020
907,77699.245000,291.583,94.051,69.728,384.310,129.231,200.406,-281.040,121.510,-123.020
908,77699.285000,343.969,183.576,69.728,383.291,124.324,198.333,-90.040,-8.490,-116.020
909,77699.321000,320.247,202.688,-25.899,383.348,134.551,177.967,885.960,-662.490,-480.020
910,77699.341000,358.795,-24.644,-45.821,386.496,165.992,150.232,3874.960,-954.490,-843.020
911,77699.381000,342.981,162.452,-129.494,387.552,187.987,90.902,1367.960,-2148.490,-1089.020
912,77699.422000,423.042,-92.039,-161.370,391.500,209.017,30.576,426.960,-3134.490,-1017.020
913,77699.462000,228.324,-80.974,-178.303,382.731,219.785,-49.618,647.960,-3516.490,-889.020
914,77699.502000,182.857,-118.193,-158.381,359.380,222.687,-128.055,90.960,-3825.490,-424.020
915,77699.541000,128.494,-163.458,-110.568,326.351,223.705,-199.691,250.960,-3847.490,-67.020
916,77699.582000,95.876,-142.334,-46.817,288.421,217.016,-266.604,535.960,-3570.490,568.980
917,77699.622000,102.795,-160.440,-20.918,263.038,201.367,-305.251,703.960,-3107.490,1011.980
918,77699.642000,120.587,-134.287,-2.988,233.727,179.833,-345.017,462.960,-2300.490,1508.980
919,77699.683000,149.251,-141.328,0.996,215.993,152.824,-374.093,739.960,-1450.490,1759.980
920,77699.723000,139.367,-91.033,-13.946,216.541,113.589,-393.595,936.960,-474.490,1952.980
921,77699.763000,161.112,-144.346,-51.798,238.533,87.550,-396.088,711.960,754.510,2185.980
922,77699.803000,188.788,-124.228,-47.813,284.516,38.747,-385.307,771.960,1612.510,2272.980
923,77699.843000,263.907,-94.051,-92.638,344.201,1.273,-350.709,1050.960,2809.510,1936.980
924,77699.883000,322.224,-71.921,-90.646,382.685,-27.691,-316.947,302.960,3272.510,1453.980
925,77699.923000,392.402,-43.756,-104.591,433.984,-37.526,-257.237,-1627.040,3238.510,825.980
926,77699.968000,388.448,32.692,-36.856,472.908,-27.937,-191.238,-2576.040,3109.510,359.980
927,77699.982000,150.239,-234.876,-492.078,495.497,-5.110,-133.805,-4407.040,1846.510,28.980
928,77700.26000,55.351,-60.857,176.311,497.414,-12.297,-108.464,868.960,1332.510,399.980
929,77700.66000,512.988,244.935,-28.887,503.282,-12.522,-77.075,1970.960,1154.510,-196.020
930,77700.106000,261.931,94.051,-62.755,500.517,-1.547,-62.127,1466.960,745.510,-689.020
931,77700.146000,322.224,62.868,-45.821,501.523,-0.286,-49.349,778.960,553.510,-466.020
932,77700.186000,301.467,-47.780,18.926,501.661,12.486,-42.200,-11.040,46.510,-181.020
933,77700.232000,299.490,-16.597,-34.864,503.583,12.376,-48.083,416.960,-261.490,10.980
934,77700.262000,264.896,-8.550,-62.755,501.526,2.389,-60.077,711.960,-511.490,94.980
935,77700.306000,248.093,-32.692,-66.739,500.504,-0.792,-71.917,183.960,-593.490,156.980
936,77700.326000,286.641,-45.768,-25.899,495.577,-6.103,-90.678,227.960,-793.490,242.980
937,77700.371000,305.421,-1.509,-37.852,492.587,-10.489,-112.356,-80.040,-1055.490,433.980
938,77700.405000,343.969,17.603,-15.938,487.627,-18.756,-133.144,-1189.040,-1410.490,759.980
939,77700.445000,476.417,0.503,85.665,474.883,-27.530,-173.573,-2000.040,-1665.490,1105.980
940,77700.485000,331.120,-216.770,-133.479,459.123,-48.867,-210.364,-722.040,-1966.490,1155.980
941,77700.525000,74.131,-133.281,-243.051,435.773,-56.515,-239.022,-918.040,-1704.490,933.980
942,77700.565000,-29.653,-66.892,-73.712,425.021,-65.594,-250.034,-679.040,-597.490,505.980
943,77700.605000,-53.375,-88.016,-123.518,436.520,-85.028,-212.195,1849.960,1110.510,266.980
944,77700.661000,-17.792,-21.627,-275.922,451.038,-94.509,-164.323,1676.960,1786.510,-99.020
945,77700.668000,25.699,-6.538,-254.008,464.629,-96.578,-131.978,729.960,1746.510,-565.020
946,77700.702000,40.525,-45.768,-290.864,477.491,-76.110,-89.328,-493.040,1414.510,-899.020
947,77700.743000,117.622,-468.244,-492.078,488.515,-39.761,-73.788,-591.040,270.510,-838.020
948,77700.782000,19.768,-274.106,-185.276,495.479,-26.405,-43.077,3186.960,1437.510,-1128.020
949,77700.822000,367.691,349.548,-79.689,501.504,-11.031,-8.399,120.960,1326.510,-827.020
950,77700.876000,337.050,-18.609,-26.895,498.837,7.927,16.532,175.960,1156.510,-834.020
951,77700.902000,280.710,0.503,22.911,499.892,13.179,34.303,1059.960,1002.510,-720.020
952,77700.946000,243.151,-5.532,0.000,501.103,35.777,46.575,-454.040,511.510,-603.020
953,77700.966000,267.861,-29.674,-38.848,502.202,46.725,58.588,11.960,468.510,-467.020
954,77701.6000,253.035,-6.538,-16.934,499.301,45.834,63.466,-212.040,337.510,-310.020
955,77701.46000,258.965,-0.503,-37.852,491.636,51.756,71.426,-381.040,266.510,-224.020
956,77701.86000,244.139,-56.833,16.934,496.496,52.903,77.346,30.960,141.510,-122.020
957,77701.126000,250.069,-28.668,-24.903,493.603,53.846,77.361,-23.040,23.510,-30.020
958,77701.166000,252.046,-41.745,-18.926,495.620,61.696,80.481,-15.040,-29.490,61.980
959,77701.206000,251.058,-29.674,-23.907,496.503,53.853,76.386,11.960,-109.490,116.980
960,77701.245000,239.197,-44.762,-41.837,496.447,48.912,72.354,-41.040,-124.490,183.980
961,77701.285000,248.093,-38.727,-22.911,497.420,49.849,70.415,61.960,-131.490,200.980
962,77701.308000,251.058,-41.745,-29.883,498.324,43.969,67.345,78.960,-138.490,177.980
963,77701.377000,263.907,-35.709,-40.840,499.251,40.073,66.280,54.960,-123.490,174.980
964,77701.397000,255.012,-43.756,-28.887,499.166,31.335,66.086,102.960,-64.490,154.980
965,77701.423000,254.023,-38.727,-43.829,501.081,30.275,61.163,63.960,-26.490,181.980
966,77701.467000,251.058,-50.798,-39.844,499.023,17.635,60.878,28.960,19.510,188.980
967,77701.513000,245.127,-66.892,-34.864,497.135,21.586,64.884,216.960,85.510,130.980
968,77701.543000,251.058,-42.750,-43.829,501.038,24.580,66.920,84.960,86.510,154.980
969,77701.583000,305.421,-1.509,0.000,500.945,14.893,67.686,215.960,-38.490,241.980
970,77701.625000,388.448,104.110,90.646,499.861,4.959,57.656,-458.040,-493.490,448.980
971,77701.645000,373.622,63.874,14.942,499.783,0.687,39.909,-430.040,-939.490,513.980
972,77701.687000,263.907,-119.198,-108.576,499.660,-9.302,26.939,336.960,-983.490,293.980
973,77701.727000,297.514,-155.411,-51.798,495.811,-2.975,7.458,1910.960,-731.490,-124.020
974,77701.767000,60.293,164.464,52.794,493.037,12.315,-2.015,294.960,-406.490,-1010.020
975,77701.816000,65.236,-53.815,48.809,481.751,42.600,12.363,-359.040,403.510,-1550.020
976,77701.843000,177.915,-60.857,73.712,466.790,88.792,45.718,501.960,1525.510,-1558.020
977,77701.883000,265.884,-146.358,27.891,449.734,115.828,91.393,495.960,2084.510,-1272.020
978,77701.926000,263.907,-15.591,-33.868,419.101,140.661,131.106,126.960,1975.510,-1318.020
979,77701.946000,512.988,-515.521,-358.599,412.254,128.426,151.414,-2983.040,641.510,202.980
980,77701.987000,90.934,-66.892,-88.654,412.919,96.483,154.629,-1265.040,27.510,452.980
981,77702.27000,512.988,122.216,-42.833,413.935,100.484,159.623,975.960,-6.490,225.980
982,77702.63000,274.780,4.527,21.914,412.011,103.205,151.834,1050.960,-131.490,240.980
983,77702.103000,261.931,8.550,0.000,417.832,106.067,147.007,-165.040,-221.490,198.980
984,77702.147000,262.919,-56.833,-30.879,416.792,99.196,143.910,311.960,-32.490,-17.020
985,77702.187000,262.919,-43.756,9.961,414.874,101.098,142.967,248.960,104.510,-211.020
986,77702.227000,273.792,13.580,13.946,409.128,106.888,144.064,225.960,205.510,-231.020
987,77702.267000,292.571,24.644,31.875,412.148,118.610,146.292,46.960,253.510,-155.020
988,77702.287000,303.444,54.821,59.767,411.173,116.766,151.153,-82.040,188.510,-56.020
989,77702.330000,340.015,144.346,85.665,411.018,101.189,148.845,-847.040,-147.490,148.980
990,77702.368000,379.552,143.340,73.712,413.740,84.519,139.655,-1103.040,-393.490,173.980
991,77702.408000,291.583,-6.538,-128.498,416.636,87.136,125.009,-51.040,-663.490,-359.020
992,77702.448000,245.127,29.674,-62.755,413.812,99.298,105.660,1818.960,-336.490,-905.020
993,77702.485000,262.919,58.845,-95.626,416.055,135.735,84.899,652.960,-696.490,-1663.020
994,77702.525000,284.664,-76.951,-229.105,404.666,165.029,54.144,278.960,-1216.490,-1683.020
995,77702.565000,296.525,-129.257,-257.992,395.111,188.084,3.641,1003.960,-2137.490,-1285.020
996,77702.611000,248.093,-114.169,-251.019,379.700,208.840,-60.654,743.960,-2906.490,-863.020
997,77702.624000,158.147,-188.605,-204.202,363.182,216.792,-133.081,131.960,-3448.490,-181.020
998,77702.665000,132.448,-187.599,-149.416,336.870,211.187,-199.946,224.960,-3640.490,389.980
999,77702.705000,145.297,-175.528,-73.712,318.263,197.395,-245.402,438.960,-3480.490,941.980
1000,77702.745000,177.915,-155.411,-15.938,290.810,170.745,-298.027,551.960,-2806.490,1696.980
1001,77702.792000,175.938,-143.340,-9.961,275.949,143.484,-339.851,523.960,-2047.490,2123.980
1002,77702.827000,169.019,-149.375,-12.949,274.515,100.261,-363.368,770.960,-852.490,2441.980
1003,77702.867000,171.985,-90.028,0.000,285.690,57.462,-373.121,826.960,168.510,2440.980
1004,77702.907000,172.973,-118.193,-30.879,324.896,7.665,-360.414,824.960,1545.510,2285.980
1005,77702.927000,262.919,-83.992,-18.926,369.991,-39.507,-319.198,1006.960,2546.510,2049.980
1006,77702.968000,331.120,-52.809,-38.848,405.563,-70.356,-281.562,-207.040,3358.510,1290.980
1007,77703.8000,449.730,8.550,-51.798,453.045,-77.079,-211.003,-711.040,3486.510,696.980
1008,77703.45000,388.448,233.870,47.813,485.194,-67.577,-146.001,-3375.040,3157.510,-210.020
1009,77703.88000,404.263,-170.499,-492.078,494.202,-43.480,-113.085,-6162.040,1694.510,-499.020
1010,77703.128000,304.432,-195.646,94.630,499.075,-46.604,-80.782,3052.960,1708.510,-124.020
1011,77703.168000,512.988,207.717,-32.872,504.132,-32.124,-42.205,3713.960,1249.510,-789.020
1012,77703.208000,236.232,40.739,-74.708,497.472,-23.193,-30.252,-40.040,660.510,-510.020
1013,77703.245000,286.641,-57.839,15.938,501.393,-19.143,-24.270,676.960,365.510,-394.020
1014,77703.265000,267.861,-19.615,-22.911,499.573,-8.374,-19.132,326.960,23.510,-251.020
1015,77703.305000,257.977,5.532,-76.700,502.433,-12.272,-21.174,1053.960,-140.490,-149.020
1016,77703.402000,268.849,31.686,-61.759,498.620,-5.600,-24.956,255.960,-345.490,-61.020
1017,77703.418000,275.768,-19.615,-35.860,504.431,-1.962,-38.593,106.960,-624.490,123.980
1018,77703.432000,271.815,-41.745,-23.907,499.478,-10.165,-56.437,222.960,-817.490,254.980
1019,77703.466000,304.432,-13.580,-22.911,492.485,-27.318,-83.310,-278.040,-1121.490,490.980
1020,77703.506000,404.263,51.804,44.825,489.441,-37.508,-104.137,-1295.040,-1453.490,791.980
1021,77703.545000,341.992,-161.446,-69.728,479.660,-41.269,-138.564,-1786.040,-1379.490,916.980
1022,77703.591000,168.031,-185.587,-181.292,464.891,-58.843,-181.154,-885.040,-1798.490,1004.980
1023,77703.606000,96.865,-135.293,-230.101,445.444,-63.497,-207.776,-1309.040,-1440.490,933.980
1024,77703.646000,-8.896,-41.745,-108.576,442.405,-78.045,-206.144,661.960,54.510,262.980
1025,77703.690000,-53.375,-43.756,-162.366,453.014,-88.816,-171.057,1560.960,973.510,-78.020
1026,77703.728000,-25.699,46.774,-206.195,465.667,-88.844,-133.766,808.960,1452.510,-591.020
1027,77703.782000,110.703,-132.275,-164.358,474.670,-64.790,-102.812,592.960,1557.510,-977.020
1028,77703.851000,235.243,-380.731,-492.078,486.556,-42.649,-71.895,-199.040,517.510,-885.020
1029,77703.867000,2.965,-63.874,-50.802,496.309,-38.283,-54.126,2289.960,1081.510,-831.020
1030,77703.897000,235.243,-260.024,-260.981,496.474,-26.137,-31.301,427.960,1175.510,-520.020
1031,77703.910000,336.062,48.786,-104.591,501.570,-5.119,-4.345,-313.040,1152.510,-915.020
1032,77703.957000,275.768,-20.621,-29.883,504.761,18.814,23.651,870.960,1331.510,-783.020
1033,77703.990000,249.081,-29.674,0.996,503.934,29.829,39.584,-469.040,970.510,-586.020
1034,77704.30000,267.861,-50.798,8.965,500.194,38.961,59.392,-137.040,760.510,-530.020
1035,77704.71000,258.965,0.503,-26.895,496.448,49.797,68.451,127.960,480.510,-407.020
1036,77704.106000,257.977,4.527,-8.965,493.693,62.627,79.517,-39.040,327.510,-261.020
1037,77704.146000,267.861,-2.515,-8.965,495.625,62.624,78.541,-34.040,165.510,-115.020
1038,77704.186000,250.069,-26.656,-23.907,493.723,64.676,84.466,-69.040,137.510,-54.020
1039,77704.226000,243.151,-35.709,-30.879,489.792,57.886,86.268,-52.040,96.510,-38.020
1040,77704.246000,247.104,-20.621,-25.899,492.717,59.899,88.281,-6.040,78.510,-18.020
1041,77704.287000,260.942,-35.709,-24.903,494.659,60.867,87.325,81.960,65.510,16.980
1042,77704.327000,244.139,-31.686,-21.914,488.847,59.861,88.272,-111.040,50.510,36.980
1043,77704.367000,252.046,-19.615,-38.848,493.686,59.045,93.167,-89.040,52.510,53.980
1044,77704.407000,258.965,-29.674,-7.969,495.591,56.130,92.126,-123.040,73.510,36.980
1045,77704.447000,253.035,-39.733,-13.946,491.737,57.128,95.082,-100.040,25.510,65.980
1046,77704.487000,249.081,-23.639,-14.942,494.600,53.251,94.021,-30.040,-48.490,115.980
1047,77704.527000,243.151,-37.721,-24.903,491.683,52.209,92.030,105.960,-103.490,143.980
1048,77704.566000,249.081,-48.786,-22.911,495.530,50.262,90.034,145.960,-99.490,140.980
1049,77704.587000,248.093,-45.768,-28.887,497.448,49.245,87.073,280.960,-107.490,124.980
1050,77704.627000,252.046,-29.674,-26.895,492.541,42.359,84.949,259.960,-122.490,144.980
1051,77704.666000,251.058,-62.868,-15.938,496.375,39.419,81.950,534.960,-122.490,150.980
1052,77704.706000,253.035,-29.674,-15.938,495.437,43.207,78.109,453.960,-148.490,162.980
