Sample, Time, ACCX, ACCY, ACCZ, MAGX, MAGY, MAGZ, GYRX, GYRY, GYRZ
0,77197.238000,254.023,-17.603,-65.743,482.338,98.414,35.177,-31.040,373.510,-145.020
1,77197.278000,247.104,-40.739,-56.778,485.280,101.463,40.154,-47.040,408.510,-172.020
2,77197.339000,253.035,-38.727,-48.809,483.427,109.276,43.266,12.960,453.510,-186.020
3,77197.379000,257.977,-9.556,-52.794,485.439,114.429,56.133,-111.040,462.510,-203.020
4,77197.409000,241.174,-38.727,-51.798,484.508,116.534,64.023,217.960,509.510,-230.020
5,77197.449000,237.220,-21.627,-29.883,479.809,128.375,75.063,215.960,519.510,-259.020
6,77197.480000,245.127,-17.603,-19.922,477.877,126.630,84.827,119.960,445.510,-225.020
7,77197.534000,261.931,7.544,-15.938,476.996,133.611,93.806,181.960,350.510,-212.020
8,77197.540000,259.954,11.568,0.000,479.016,141.483,97.908,-32.040,87.510,-114.020
9,77197.581000,253.035,10.562,24.903,481.883,138.534,94.906,-113.040,-195.490,28.980
10,77197.621000,258.965,17.603,6.973,481.806,133.399,82.044,-44.040,-500.490,226.980
11,77197.661000,267.861,17.603,-44.825,480.711,122.473,71.012,-98.040,-667.490,358.980
12,77197.700000,258.965,-17.603,-44.825,486.437,117.373,57.181,-212.040,-620.490,380.980
13,77197.744000,252.046,-31.686,-49.805,486.327,108.398,46.194,-224.040,-506.490,337.980
14,77197.780000,222.394,-58.845,-89.650,487.253,105.365,40.245,-125.040,-376.490,229.980
15,77197.835000,195.707,-90.028,-103.595,486.269,104.320,37.278,31.960,0.510,-49.020
16,77197.879000,221.405,-69.910,-83.673,489.232,109.332,43.279,-0.040,299.510,-246.020
17,77197.895000,257.977,-14.585,-64.747,485.460,117.277,53.254,-19.040,557.510,-387.020
18,77198.29000,274.780,12.574,-29.883,485.586,127.288,67.206,46.960,637.510,-386.020
19,77198.59000,267.861,12.574,-11.953,483.762,135.381,83.072,-19.040,515.510,-336.020
20,77198.89000,256.000,1.509,-5.977,479.937,139.291,86.093,-75.040,354.510,-273.020
21,77198.97000,254.023,2.515,-2.988,476.065,138.348,89.006,-33.040,211.510,-178.020
22,77198.103000,249.081,7.544,-1.992,477.065,141.313,91.035,56.960,-22.490,-17.020
23,77198.140000,246.116,11.568,-17.930,475.166,146.040,86.233,113.960,-165.490,107.980
24,77198.166000,257.977,-3.521,-36.856,477.059,142.133,84.189,166.960,-213.490,151.980
25,77198.189000,244.139,-16.597,-36.856,480.811,131.361,78.074,100.960,-198.490,112.980
26,77198.230000,246.116,-19.615,-51.798,478.893,134.147,73.228,138.960,-90.490,18.980
27,77198.271000,251.058,-18.609,-41.837,482.765,134.207,74.218,114.960,-2.490,-49.020
28,77198.309000,252.046,1.509,-34.864,479.922,140.025,75.322,88.960,-10.490,-43.020
29,77198.336000,249.081,-0.503,-22.911,480.925,143.896,74.430,127.960,-114.490,34.980
30,77198.371000,248.093,6.538,0.000,484.746,140.827,65.544,138.960,-362.490,201.980
31,77198.411000,293.560,22.633,-28.887,484.592,127.020,55.430,211.960,-498.490,372.980
32,77198.469000,319.259,52.809,-51.798,480.594,116.950,40.488,-140.040,-577.490,506.980
33,77198.491000,340.015,134.287,-103.595,481.362,99.203,27.347,-522.040,-567.490,638.980
34,77198.531000,286.641,109.139,-108.576,482.278,94.315,25.279,-521.040,-282.490,550.980
35,77198.571000,236.232,42.750,-211.175,476.406,92.727,-0.265,592.960,-1001.490,-122.020
36,77198.611000,186.811,14.585,-160.374,475.397,95.846,-34.521,1558.960,-786.490,-449.020
37,77198.659000,152.216,121.210,-178.303,460.065,117.356,-64.477,-448.040,-1299.490,-1389.020
38,77198.675000,158.147,-2.515,-77.696,442.027,160.090,-98.870,-303.040,-1045.490,-1763.020
39,77198.710000,193.730,-14.585,-27.891,426.871,197.371,-117.688,871.960,-311.490,-1656.020
40,77198.751000,244.139,-32.692,63.751,403.950,229.939,-126.820,558.960,-133.490,-1831.020
41,77198.793000,310.363,-330.436,11.953,402.034,235.378,-143.374,3758.960,1036.510,-1026.020
42,77198.835000,345.946,-54.821,18.926,401.919,225.475,-152.420,1025.960,761.510,-256.020
43,77198.875000,271.815,29.674,-77.696,410.668,224.201,-125.952,-1969.040,544.510,284.980
44,77198.916000,267.861,21.627,-88.654,413.793,243.970,-110.797,-99.040,531.510,45.980
45,77198.954000,247.104,36.715,-38.848,419.587,241.287,-102.999,133.960,454.510,82.980
46,77198.985000,254.023,19.615,-59.767,418.590,235.711,-91.357,-404.040,181.510,118.980
47,77199.23000,243.151,24.644,-72.716,422.462,235.770,-90.367,152.960,150.510,36.980
48,77199.84000,244.139,33.697,-71.720,424.406,236.760,-90.341,-72.040,113.510,-27.020
49,77199.124000,255.012,19.615,-62.755,423.495,241.691,-86.311,-21.040,134.510,-71.020
50,77199.139000,259.954,28.668,-54.786,424.493,244.635,-85.263,-14.040,36.510,-128.020
51,77199.171000,259.954,29.674,-47.813,423.554,247.538,-85.200,89.960,-38.490,-160.020
52,77199.211000,248.093,19.615,-62.755,418.696,246.412,-90.139,221.960,-132.490,-228.020
53,77199.251000,254.023,15.591,-57.774,411.953,251.028,-97.896,259.960,-177.490,-267.020
54,77199.291000,255.012,24.644,-48.809,412.921,251.922,-101.796,179.960,-262.490,-238.020
55,77199.318000,263.907,18.609,-41.837,410.022,253.684,-108.628,70.960,-444.490,-72.020
56,77199.351000,274.780,-15.591,-21.914,407.083,251.542,-116.527,-162.040,-592.490,167.980
57,77199.393000,277.745,-11.568,-21.914,408.071,253.514,-115.501,-1250.040,-714.490,411.980
58,77199.435000,247.104,-40.739,-16.934,409.955,246.004,-104.876,-2043.040,-615.490,502.980
59,77199.475000,250.069,-73.933,-70.724,416.690,237.785,-84.450,-2470.040,-596.490,777.980
60,77199.510000,279.722,-194.640,-86.661,435.882,219.743,-75.004,-1153.040,-289.490,1137.980
61,77199.550000,205.591,-0.503,-41.837,449.153,191.719,-75.598,3608.960,1230.510,1681.980
62,77199.591000,164.077,70.916,-89.650,469.084,146.848,-51.055,3407.960,1995.510,1238.980
63,77199.631000,230.301,227.835,-153.401,472.921,134.242,-8.177,-1347.040,1668.510,297.980
64,77199.653000,273.792,178.546,-234.086,472.925,128.999,18.184,-4992.040,-296.490,-160.020
65,77199.693000,314.317,38.727,-166.350,480.748,135.159,30.105,-929.040,291.510,-144.020
66,77199.735000,252.046,30.680,-70.724,479.827,138.235,38.017,2166.960,699.510,205.980
67,77199.776000,267.861,11.568,27.891,480.808,138.373,43.906,215.960,415.510,19.980
68,77199.816000,256.000,-22.633,-34.864,483.657,130.850,53.552,-1563.040,122.510,140.980
69,77199.858000,250.069,-12.574,-77.696,483.600,123.256,61.228,-533.040,150.510,63.980
70,77199.895000,248.093,-22.633,-38.848,482.677,127.195,64.256,306.960,188.510,-27.020
71,77199.935000,248.093,2.515,-38.848,478.842,130.134,67.255,-254.040,149.510,-40.020
72,77199.954000,258.965,-5.532,-52.794,480.776,128.384,75.066,-446.040,160.510,-38.020
73,77199.994000,256.988,-15.591,-36.856,477.826,122.617,78.854,-29.040,223.510,-60.020
74,77200.34000,244.139,-27.662,-33.868,477.899,129.478,81.948,-213.040,222.510,-158.020
75,77200.74000,251.058,-10.562,-38.848,477.915,129.629,88.816,-271.040,272.510,-204.020
76,77200.114000,254.023,-6.538,-24.903,476.094,139.513,97.858,5.960,325.510,-202.020
77,77200.154000,250.069,-2.515,-18.926,474.199,142.514,102.824,41.960,305.510,-182.020
78,77200.191000,252.046,-4.527,-20.918,472.318,147.414,105.871,-16.040,289.510,-197.020
79,77200.231000,251.058,-5.532,-15.938,467.489,146.569,113.687,135.960,302.510,-191.020
80,77200.271000,251.058,3.521,-10.957,465.669,157.337,118.826,179.960,285.510,-181.020
81,77200.291000,253.035,14.585,-7.969,466.622,155.448,120.747,16.960,215.510,-146.020
82,77200.331000,253.035,3.521,0.996,464.711,156.530,126.651,-0.040,159.510,-113.020
83,77200.371000,253.035,6.538,-3.984,461.926,169.080,124.962,33.960,107.510,-87.020
84,77200.411000,252.046,4.527,-2.988,461.872,162.391,129.717,19.960,86.510,-85.020
85,77200.450000,253.035,11.568,-4.981,459.000,165.297,130.756,35.960,72.510,-75.020
86,77200.491000,253.035,9.556,0.000,462.938,172.153,131.897,61.960,42.510,-45.020
87,77200.531000,249.081,12.574,1.992,460.022,171.110,129.907,66.960,-4.490,-17.020
88,77200.573000,251.058,10.562,3.984,462.948,174.008,128.016,76.960,-87.490,30.980
89,77200.613000,251.058,10.562,0.996,461.945,171.021,125.005,89.960,-152.490,71.980
90,77200.634000,251.058,9.556,-0.996,462.823,162.250,122.851,71.960,-244.490,125.980
91,77200.674000,247.104,9.556,-0.996,463.827,167.890,114.153,109.960,-312.490,180.980
92,77200.714000,253.035,4.527,-7.969,468.604,163.838,104.266,211.960,-361.490,241.980
93,77200.753000,257.977,5.532,-26.895,471.413,155.927,96.251,222.960,-359.490,270.980
94,77200.793000,256.000,0.503,-27.891,473.322,153.939,93.269,118.960,-302.490,249.980
95,77200.839000,257.977,-9.556,-43.829,477.094,145.110,87.197,74.960,-203.490,193.980
96,77200.896000,248.093,-17.603,-41.837,476.061,139.189,83.141,50.960,-88.490,97.980
97,77200.926000,257.977,-11.568,-38.848,477.061,142.154,85.170,68.960,51.510,20.980
98,77200.945000,256.988,-2.515,-35.860,474.217,147.973,86.274,35.960,114.510,-23.020
99,77200.974000,256.000,-5.532,-30.879,473.280,150.013,91.220,26.960,165.510,-48.020
100,77201.45000,254.023,-4.527,-23.907,471.284,143.241,93.027,3.960,170.510,-61.020
101,77201.61000,254.023,-3.521,-22.911,471.312,146.154,93.092,-0.040,184.510,-89.020
102,77201.96000,252.046,-8.550,-16.934,472.279,145.279,96.997,23.960,193.510,-96.020
103,77201.165000,254.023,-2.515,-14.942,473.385,158.060,104.148,64.960,194.510,-96.020
104,77201.199000,254.023,-3.521,-12.949,468.573,160.019,107.123,33.960,184.510,-91.020
105,77201.246000,256.000,-0.503,-10.957,466.652,160.130,113.006,11.960,188.510,-99.020
106,77201.274000,256.000,-0.503,-13.946,465.708,162.105,115.009,-14.040,198.510,-112.020
107,77201.281000,254.023,2.515,-7.969,463.833,167.070,120.999,-50.040,200.510,-117.020
108,77201.339000,253.035,5.532,0.996,463.772,160.317,122.810,-61.040,172.510,-110.020
109,77201.401000,252.046,6.538,4.981,462.882,168.097,123.962,-54.040,122.510,-81.020
110,77201.463000,245.127,9.556,13.946,463.885,171.083,126.972,-45.040,10.510,-25.020
111,77201.558000,247.104,9.556,12.949,465.744,164.220,122.901,-34.040,-110.490,43.980
112,77201.574000,248.093,9.556,13.946,459.959,166.990,119.028,-32.040,-258.490,126.980
113,77201.614000,255.012,4.527,-2.988,465.726,164.047,115.052,-9.040,-316.490,164.980
114,77201.622000,252.046,3.521,-10.957,470.505,159.132,110.050,-38.040,-311.490,183.980
115,77201.622000,256.000,-0.503,-24.903,469.498,156.102,105.077,-90.040,-263.490,171.980
116,77201.638000,254.023,-5.532,-26.895,471.405,154.093,101.114,-109.040,-151.490,132.980
117,77201.675000,256.000,-8.550,-28.887,470.313,141.441,99.850,-93.040,-79.490,89.980
118,77201.693000,256.988,-10.562,-27.891,470.327,143.340,97.931,-113.040,-24.490,26.980
119,77201.733000,254.023,-5.532,-27.891,471.332,146.348,101.922,-144.040,50.510,-20.020
120,77201.773000,252.046,-11.568,-19.922,474.248,147.390,103.913,-100.040,104.510,-67.020
121,77201.813000,255.012,-7.544,-14.942,470.416,151.236,103.990,-35.040,145.510,-108.020
122,77201.854000,255.012,-0.503,-20.918,473.332,151.394,109.884,-49.040,159.510,-124.020
123,77201.896000,251.058,-0.503,-15.938,468.504,151.433,113.797,-40.040,185.510,-147.020
124,77201.921000,254.023,2.515,-9.961,463.687,152.464,118.713,-34.040,197.510,-151.020
125,77201.955000,256.000,7.544,-5.977,466.700,163.237,121.901,-55.040,168.510,-131.020
126,77202.3000,255.012,7.544,-7.969,462.868,166.198,125.881,-56.040,139.510,-120.020
127,77202.209000,249.081,4.527,-4.981,463.757,157.534,128.632,-55.040,116.510,-107.020
128,77202.263000,250.069,8.550,-1.992,463.835,165.323,129.786,-49.040,94.510,-91.020
129,77202.310000,252.046,7.544,0.000,457.093,168.191,130.816,-11.040,73.510,-66.020
130,77202.310000,250.069,9.556,0.000,460.045,173.095,131.912,-8.040,17.510,-43.020
131,77202.310000,251.058,13.580,6.973,459.080,173.107,132.891,-0.040,-31.490,-13.020
132,77202.310000,249.081,14.585,6.973,461.945,170.137,128.908,19.960,-126.490,49.980
133,77202.340000,247.104,13.580,9.961,460.989,172.004,126.006,26.960,-233.490,113.980
134,77202.371000,255.012,9.556,3.984,464.782,166.023,117.055,124.960,-321.490,193.980
135,77202.386000,254.023,6.538,-17.930,462.746,156.230,113.891,134.960,-328.490,214.980
136,77202.403000,252.046,-0.503,-24.903,471.469,159.983,104.187,28.960,-268.490,201.980
137,77202.409000,258.965,-2.515,-32.872,471.419,155.107,103.098,50.960,-167.490,153.980
138,77202.446000,256.988,-6.538,-28.887,470.379,148.237,100.001,0.960,-55.490,80.980
139,77202.498000,256.000,-3.521,-27.891,469.475,154.117,103.071,-1.040,14.510,30.980
140,77202.525000,256.000,-4.527,-21.914,473.333,153.163,102.078,-8.040,69.510,-12.020
141,77202.565000,250.069,-0.503,-20.918,469.463,152.240,105.972,0.960,99.510,-23.020
142,77202.605000,253.035,-3.521,-13.946,473.338,153.206,104.040,28.960,98.510,-23.020
143,77202.679000,252.046,-2.515,-17.930,473.297,148.416,106.876,33.960,103.510,-41.020
144,77202.695000,254.023,-2.515,-21.914,467.551,154.206,107.973,82.960,138.510,-64.020
145,77202.725000,258.965,-0.503,-19.922,471.442,155.323,112.909,10.960,171.510,-93.020
146,77202.744000,256.000,-2.515,-12.949,467.628,160.226,116.932,-36.040,212.510,-132.020
147,77202.818000,255.012,5.532,-9.961,466.655,158.404,122.774,-24.040,248.510,-160.020
148,77202.834000,254.023,6.538,-6.973,464.821,168.159,125.929,-36.040,240.510,-152.020
149,77202.883000,251.058,8.550,0.996,461.874,162.413,130.698,-54.040,196.510,-118.020
150,77202.935000,250.069,7.544,1.992,457.142,172.182,135.808,-39.040,156.510,-96.020
151,77202.961000,249.081,9.556,11.953,458.105,171.264,137.751,-42.040,101.510,-57.020
152,77203.14000,246.116,15.591,16.934,457.152,173.153,135.830,-9.040,-28.490,4.980
153,77203.39000,246.116,12.574,21.914,459.937,162.372,129.712,22.960,-169.490,89.980
154,77203.59000,248.093,9.556,9.961,464.760,162.290,123.837,55.960,-357.490,186.980
155,77203.89000,255.012,6.538,-6.973,462.786,159.251,118.862,163.960,-409.490,236.980
156,77203.135000,254.023,5.532,-15.938,466.678,163.021,112.089,29.960,-392.490,248.980
157,77203.182000,258.965,-3.521,-30.879,473.380,157.132,106.089,62.960,-315.490,239.980
158,77203.227000,255.012,-4.527,-31.875,471.335,147.254,99.000,-5.040,-191.490,171.980
159,77203.254000,257.977,-10.562,-33.868,474.195,143.356,96.959,-30.040,-96.490,108.980
160,77203.314000,256.000,-12.574,-33.868,472.258,143.315,95.973,-43.040,40.510,15.980
161,77203.362000,255.012,-4.527,-23.907,477.184,152.143,98.141,-35.040,119.510,-44.020
162,77203.386000,254.023,-6.538,-15.938,471.339,146.413,104.866,-83.040,139.510,-78.020
163,77203.400000,255.012,-4.527,-11.953,473.344,153.271,106.983,-48.040,153.510,-98.020
164,77203.450000,255.012,-2.515,-13.946,471.355,146.563,111.734,-54.040,152.510,-108.020
165,77203.481000,256.000,-5.532,-13.946,465.597,150.477,115.731,-34.040,173.510,-137.020
166,77203.515000,255.012,-0.503,-15.938,464.711,158.299,118.845,-14.040,198.510,-157.020
167,77203.615000,255.012,1.509,-7.969,467.691,166.116,120.005,0.960,221.510,-166.020
168,77203.764000,256.000,9.556,-5.977,464.824,168.180,126.910,-21.040,224.510,-162.020
169,77203.806000,254.023,11.568,-2.988,462.943,173.080,129.956,-70.040,195.510,-145.020
170,77203.941000,250.069,9.556,2.988,457.121,170.219,134.784,-59.040,152.510,-117.020
171,77204.15000,249.081,13.580,9.961,460.035,171.240,135.793,-69.040,56.510,-71.020
172,77204.137000,246.116,12.574,16.934,459.117,176.106,136.880,-29.040,-47.490,-11.020
173,77204.137000,246.116,16.597,16.934,462.923,170.254,133.816,19.960,-177.490,61.980
174,77204.180000,248.093,10.562,9.961,461.879,164.225,124.854,76.960,-355.490,156.980
175,77204.266000,252.046,6.538,-8.965,463.789,163.122,117.969,156.960,-423.490,205.980
176,77204.266000,251.058,5.532,-15.938,464.694,159.011,107.093,151.960,-438.490,223.980
177,77204.266000,255.012,2.515,-25.899,470.499,160.837,99.300,129.960,-395.490,210.980
178,77204.285000,256.988,0.503,-30.879,474.325,157.811,92.376,87.960,-323.490,159.980
179,77204.325000,253.035,-12.574,-39.844,475.185,148.867,82.373,82.960,-261.490,110.980
180,77204.344000,252.046,-3.521,-28.887,478.111,151.764,80.482,28.960,-217.490,56.980
181,77204.416000,252.046,-5.532,-36.856,477.178,156.480,74.701,78.960,-207.490,50.980
182,77204.416000,252.046,-5.532,-37.852,473.308,156.442,74.692,35.960,-138.490,12.980
183,77204.416000,252.046,-6.538,-34.864,476.194,155.435,71.734,65.960,-102.490,-1.020
184,77204.441000,252.046,-1.509,-44.825,477.098,149.554,68.663,82.960,-55.490,-21.020
185,77204.441000,254.023,-2.515,-41.837,473.224,149.474,66.692,53.960,14.510,-34.020
186,77204.496000,257.977,0.503,-42.833,474.262,156.322,68.807,84.960,96.510,-41.020
187,77204.496000,253.035,-2.515,-41.837,474.301,158.458,77.681,43.960,173.510,-61.020
188,77204.531000,249.081,-5.532,-39.844,472.326,154.534,76.609,25.960,236.510,-78.020
189,77204.545000,252.046,-0.503,-26.895,474.357,163.399,81.713,-46.040,281.510,-90.020
190,77204.576000,250.069,7.544,-25.899,469.439,153.772,87.373,-166.040,254.510,-69.020
191,77204.576000,249.081,-3.521,-10.957,469.464,154.894,94.263,-130.040,188.510,-44.020
192,77204.611000,250.069,2.515,-9.961,466.590,156.894,98.224,-147.040,104.510,-10.020
193,77204.611000,249.081,3.521,-5.977,472.477,164.782,101.353,31.960,-29.490,46.980
194,77204.644000,275.768,37.721,-48.809,470.436,154.947,96.227,246.960,118.510,125.980
195,77204.667000,245.127,19.615,2.988,469.486,157.742,91.384,-379.040,-318.490,236.980
196,77204.691000,286.641,151.387,-74.708,475.119,141.186,86.125,-792.040,-526.490,516.980
197,77204.705000,280.710,172.511,-93.634,478.764,120.577,73.907,-1250.040,-892.490,509.980
198,77204.742000,293.560,44.762,-120.529,481.563,116.096,45.375,616.960,-1008.490,352.980
199,77204.766000,221.405,87.010,-256.000,480.573,121.157,11.162,797.960,-1209.490,-44.020
200,77204.800000,195.707,62.868,-161.370,475.776,133.818,-28.774,-1355.040,-1547.490,-934.020
201,77204.835000,190.764,-11.568,-104.591,463.477,169.811,-63.305,-92.040,-1275.490,-1157.020
202,77204.957000,192.741,38.727,-107.580,452.925,184.659,-89.476,910.960,-690.490,-1325.020
203,77204.982000,171.985,-73.933,-72.716,435.775,216.960,-113.312,813.960,-369.490,-1415.020
204,77205.245000,257.977,-213.752,177.307,424.267,231.906,-134.579,3923.960,603.510,-1169.020
205,77205.266000,495.197,-271.088,-49.805,424.067,215.013,-152.606,3431.960,838.510,-320.020
206,77205.305000,260.942,-7.544,5.977,429.006,222.201,-136.745,-642.040,708.510,78.980
207,77205.379000,268.849,81.980,-150.412,437.878,235.317,-117.803,-771.040,559.510,-57.020
208,77205.530000,273.792,29.674,-38.848,440.730,228.700,-111.079,874.960,739.510,-53.020
209,77205.530000,265.884,-12.574,-28.887,439.854,236.609,-104.041,-303.040,352.510,-76.020
210,77205.530000,259.954,42.750,-63.751,442.777,237.716,-99.107,-75.040,267.510,-161.020
211,77205.530000,267.861,23.639,-54.786,442.854,243.735,-90.147,-135.040,170.510,-291.020
212,77205.530000,253.035,22.633,-38.848,437.155,254.380,-88.942,-259.040,21.510,-326.020
213,77205.530000,251.058,22.633,-14.942,430.423,259.103,-91.793,-240.040,-309.490,-295.020
214,77205.567000,264.896,12.574,0.996,431.389,260.860,-100.578,-12.040,-673.490,-101.020
215,77205.599000,347.923,26.656,-37.852,426.492,257.598,-114.390,197.960,-876.490,169.980
216,77205.617000,308.386,8.550,-30.879,424.444,248.561,-127.344,-527.040,-838.490,326.980
217,77205.739000,266.873,-89.022,-5.977,421.501,243.744,-124.515,-1423.040,-852.490,508.980
218,77205.739000,257.977,-53.815,-52.794,425.349,240.933,-121.627,-2095.040,-1143.490,828.980
219,77205.739000,318.270,-150.381,-222.132,430.010,223.440,-124.948,-1172.040,-1250.490,980.980
220,77205.739000,202.625,-26.656,-105.588,439.154,173.546,-147.611,2221.960,-355.490,1357.980
221,77205.750000,137.390,83.992,-101.603,444.589,136.602,-153.322,1561.960,37.510,1134.980
222,77205.785000,111.691,78.963,-69.728,452.203,122.265,-146.760,197.960,515.510,714.980
223,77205.819000,76.108,149.375,-82.677,460.874,112.318,-117.543,59.960,1145.510,515.980
224,77205.862000,133.436,169.493,-61.759,472.532,107.619,-71.531,-254.040,1954.510,-86.020
225,77205.862000,161.112,-471.261,-492.078,477.600,121.323,-24.145,-1823.040,617.510,217.980
226,77205.863000,145.297,240.912,-48.809,482.399,116.602,-20.317,-1769.040,-25.490,-122.020
227,77205.885000,363.737,-23.639,-117.541,483.466,124.616,-9.349,-104.040,428.510,-185.020
228,77205.909000,296.525,-14.585,-27.891,487.325,121.029,2.347,602.960,555.510,-119.020
229,77205.932000,290.595,28.668,-23.907,489.359,129.915,8.433,-204.040,510.510,-54.020
230,77205.959000,262.919,-6.538,-71.720,489.378,128.340,25.069,-595.040,369.510,70.980
231,77206.7000,213.498,-25.650,-92.638,488.372,123.562,28.883,74.960,384.510,-47.020
232,77206.22000,217.452,-42.750,-51.798,483.557,122.846,42.587,246.960,585.510,14.980
233,77206.46000,258.965,-25.650,-19.922,485.524,124.052,52.424,-731.040,367.510,80.980
234,77206.226000,240.185,-41.745,-73.712,484.541,119.490,66.050,-342.040,340.510,-12.020
235,77206.250000,219.429,-52.809,-22.911,490.330,115.879,75.789,-224.040,353.510,-52.020
236,77206.452000,241.174,-42.750,-10.957,487.513,124.588,75.976,-186.040,121.510,-191.020
237,77206.452000,263.907,13.580,-21.914,485.576,124.548,74.991,-82.040,-5.490,-281.020
238,77206.504000,267.861,-13.580,-17.930,483.782,139.092,75.310,80.960,-115.490,-288.020
239,77206.515000,276.757,0.503,-25.899,484.802,144.883,73.479,33.960,-191.490,-343.020
240,77206.551000,253.035,-22.633,-40.840,481.992,156.311,64.901,-49.040,-171.490,-487.020
241,77206.706000,258.965,-6.538,-31.875,477.205,162.025,62.075,-75.040,-199.490,-622.020
242,77206.706000,258.965,7.544,-39.844,474.418,174.553,59.406,-180.040,-233.490,-740.020
243,77206.738000,260.942,45.768,-47.813,467.765,187.950,53.805,-314.040,-282.490,-750.020
244,77206.738000,261.931,24.644,-61.759,461.165,205.381,55.159,-193.040,-113.490,-666.020
245,77206.738000,253.035,13.580,-48.809,456.448,218.818,50.544,-341.040,-84.490,-362.020
246,77206.762000,233.266,23.639,-47.813,456.389,211.202,57.239,-1295.040,-191.490,59.980
247,77206.786000,214.486,55.827,-94.630,454.468,212.197,59.219,-1027.040,-353.490,52.980
248,77206.817000,222.394,97.069,-94.630,463.157,212.109,51.390,-424.040,-538.490,61.980
249,77206.817000,231.290,111.151,-93.634,459.267,212.762,38.647,377.960,-560.490,5.980
250,77206.885000,228.324,91.033,-94.630,463.974,203.640,18.842,408.960,-548.490,21.980
251,77206.885000,248.093,62.868,-94.630,467.799,203.247,-0.772,730.960,-508.490,148.980
252,77206.911000,239.197,10.562,-102.599,469.619,195.995,-22.504,1080.960,-511.490,306.980
253,77206.930000,236.232,23.639,-79.689,475.214,179.957,-48.345,1449.960,-465.490,674.980
254,77206.955000,160.124,60.857,13.946,478.006,170.125,-55.422,664.960,1.510,577.980
255,77206.999000,266.873,-264.047,-250.023,491.374,148.316,-38.226,-364.040,597.510,993.980
256,77206.999000,244.139,15.591,-109.572,498.154,145.814,-22.577,-679.040,735.510,737.980
257,77207.10000,295.537,4.527,-87.658,503.810,125.957,-1.431,-65.040,878.510,425.980
258,77207.100000,254.023,-6.538,-45.821,500.955,126.382,19.166,252.960,945.510,285.980
259,77207.245000,260.942,-10.562,-43.829,506.786,124.928,38.759,-152.040,852.510,167.980
260,77207.285000,263.907,16.597,-40.840,503.843,116.593,58.181,-352.040,646.510,22.980
261,77207.327000,258.965,-2.515,-32.872,504.814,113.992,71.855,-423.040,551.510,15.980
262,77207.351000,257.977,23.639,-38.848,506.741,112.177,76.722,-722.040,386.510,-31.020
263,77207.560000,252.046,-0.503,-18.926,503.847,110.466,88.446,-525.040,367.510,-36.020
264,77207.560000,237.220,-57.839,6.973,502.907,111.600,96.314,-456.040,283.510,-19.020
265,77207.560000,233.266,-57.839,7.969,503.907,113.681,102.246,-351.040,168.510,24.980
266,77207.571000,234.255,-38.727,12.949,500.915,103.987,103.986,-12.040,98.510,104.980
267,77207.603000,264.896,-12.574,16.934,503.774,99.204,105.848,33.960,8.510,158.980
268,77207.614000,263.907,-11.568,20.918,505.729,102.049,101.992,154.960,-197.490,252.980
269,77207.761000,235.243,-61.862,33.868,506.638,97.096,96.981,449.960,-358.490,347.980
270,77207.761000,234.255,-24.644,-29.883,508.480,90.060,85.061,614.960,-504.490,344.980
271,77207.761000,226.347,-21.627,-38.848,511.294,84.846,67.299,640.960,-746.490,211.980
272,77207.761000,254.023,-31.686,-9.961,512.134,75.708,48.465,440.960,-780.490,203.980
273,77207.761000,299.490,44.762,-58.770,516.011,80.212,30.921,-245.040,-964.490,180.980
274,77207.761000,329.143,68.904,-75.704,514.904,70.947,7.178,101.960,-1021.490,264.980
275,77207.782000,347.923,65.886,-90.646,514.709,56.751,-20.596,734.960,-1109.490,451.980
276,77207.816000,348.911,128.251,-130.490,512.715,54.402,-38.305,560.960,-1128.490,537.980
277,77207.841000,260.942,134.287,-232.093,503.839,43.012,-67.015,445.960,-1186.490,9.980
278,77207.885000,114.656,98.075,-262.973,487.418,53.661,-105.059,1663.960,-1371.490,-540.020
279,77207.885000,111.691,14.585,-203.206,477.828,70.222,-141.977,1526.960,-1039.490,-935.020
280,77207.906000,123.552,84.998,-192.249,457.803,106.270,-170.639,-1273.040,-1408.490,-1580.020
281,77207.949000,171.985,-35.709,-151.409,429.270,160.874,-190.081,-2209.040,-1255.490,-1977.020
282,77207.999000,193.730,-59.851,-122.521,400.758,213.924,-191.906,-1334.040,-357.490,-1745.020
283,77208.29000,183.846,-37.721,-58.770,383.533,233.171,-191.515,-237.040,352.510,-1473.020
284,77208.91000,156.170,-228.841,-286.879,371.286,267.029,-190.789,681.960,549.510,-1485.020
285,77208.169000,193.730,-122.216,-55.782,373.820,237.112,-228.713,5385.960,1199.510,-728.020
286,77208.225000,313.328,-15.591,1.992,380.341,213.640,-240.007,704.960,707.510,-224.020
287,77208.236000,277.745,40.739,-121.525,389.141,219.895,-224.159,-1034.040,675.510,317.980
288,77208.271000,291.583,65.886,-101.603,400.822,225.100,-213.232,219.960,611.510,80.980
289,77208.285000,266.873,5.532,-72.716,407.556,220.398,-209.400,274.960,528.510,86.980
290,77208.347000,246.116,-26.656,-74.708,413.378,220.627,-201.537,76.960,365.510,20.980
291,77208.366000,264.896,4.527,-70.724,415.304,219.675,-201.554,211.960,267.510,-109.020
292,77208.385000,263.907,22.633,-95.626,414.355,220.722,-197.610,-28.040,177.510,-205.020
293,77208.430000,262.919,30.680,-92.638,409.548,222.725,-192.672,-87.040,106.510,-315.020
294,77208.449000,264.896,13.580,-71.720,406.812,239.266,-189.369,-276.040,2.510,-395.020
295,77208.467000,260.942,9.556,-66.739,395.328,251.796,-188.134,-450.040,-181.490,-487.020
296,77208.491000,266.873,9.556,-55.782,393.407,253.675,-190.058,-439.040,-306.490,-473.020
297,77208.531000,281.699,-23.639,-26.895,384.809,265.198,-191.782,-273.040,-490.490,-230.020
298,77208.555000,258.965,-16.597,-5.977,381.935,268.082,-191.724,-596.040,-675.490,200.980
299,77208.581000,265.884,8.550,15.938,383.038,279.073,-177.748,-2743.040,-1153.490,586.980
300,77208.647000,249.081,-50.798,-46.817,387.028,287.309,-157.944,-2861.040,-1084.490,716.980
301,77208.671000,364.726,-242.923,-118.537,399.416,268.899,-162.249,459.960,-1152.490,1162.980
302,77208.724000,243.151,-0.503,-76.700,419.167,215.246,-183.992,2572.960,-99.490,1717.980
303,77208.766000,204.602,102.098,-87.658,440.078,176.662,-182.843,1894.960,552.510,1725.980
304,77208.830000,142.332,151.387,-131.486,454.349,146.318,-157.009,-11.040,910.510,1089.980
305,77208.844000,135.413,119.198,-104.591,472.671,131.848,-117.084,100.960,1432.510,745.980
306,77208.867000,123.552,196.652,-129.494,480.438,123.380,-64.300,427.960,2209.510,124.980
307,77208.897000,236.232,-111.151,-492.078,481.512,121.771,-5.494,-377.040,2315.510,-148.020
308,77208.924000,152.216,267.065,25.899,485.463,126.986,9.340,-2514.040,-148.490,-294.020
309,77208.934000,360.772,74.939,-31.875,489.373,128.297,23.107,11.960,524.510,206.980
310,77208.960000,342.981,46.774,-18.926,486.400,120.545,24.890,392.960,350.510,515.980
311,77208.985000,240.185,43.756,-19.922,486.301,109.024,30.518,-1160.040,68.510,441.980
312,77209.14000,219.429,-76.951,-70.724,488.990,85.881,35.894,-1379.040,21.510,509.980
313,77209.57000,128.494,-84.998,-134.475,484.098,79.145,40.637,-624.040,119.510,263.980
314,77209.94000,143.320,-124.228,-107.580,486.981,75.463,48.407,-64.040,313.510,-11.020
315,77209.137000,245.127,-58.845,-42.833,491.996,91.302,60.537,33.960,544.510,-399.020
316,77209.177000,290.595,30.680,-29.883,491.090,94.529,75.317,-205.040,615.510,-445.020
317,77209.214000,301.467,59.851,-34.864,491.219,105.446,86.346,169.960,626.510,-156.020
318,77209.240000,313.328,53.815,-15.938,488.360,106.712,101.078,101.960,533.510,-43.020
319,77209.275000,224.371,-37.721,2.988,485.522,111.711,109.029,-374.040,195.510,-88.020
320,77209.320000,258.965,-13.580,-18.926,488.439,112.753,111.019,-225.040,96.510,-143.020
321,77209.355000,260.942,-40.739,25.899,486.497,112.669,108.071,-94.040,-27.490,-134.020
322,77209.394000,247.104,-11.568,-29.883,485.530,112.660,108.069,-40.040,-117.490,-205.020
323,77209.437000,256.000,-17.603,-31.875,485.615,122.282,104.360,-148.040,-123.490,-350.020
324,77209.474000,254.023,-16.597,-37.852,482.734,125.102,101.475,-130.040,-120.490,-482.020
325,77209.517000,258.965,-4.527,-24.903,480.967,142.537,100.877,-174.040,-146.490,-627.020
326,77209.535000,259.954,-2.515,-26.895,476.262,156.967,97.265,-116.040,-182.490,-771.020
327,77209.581000,274.780,11.568,-31.875,470.672,179.218,96.767,-146.040,-136.490,-862.020
328,77209.621000,251.058,31.686,-52.794,459.181,191.683,95.058,148.960,146.510,-841.020
329,77209.661000,234.255,57.839,-49.805,454.558,213.945,94.561,247.960,130.510,-701.020
330,77209.707000,231.290,42.750,-26.895,451.644,212.924,93.552,-240.040,26.510,-288.020
331,77209.736000,243.151,60.857,-29.883,449.758,216.896,98.539,-721.040,-149.490,-148.020
332,77209.786000,241.174,55.827,-60.763,448.813,220.619,91.755,264.960,-371.490,101.980
333,77209.815000,219.429,97.069,-48.809,454.515,212.650,79.823,301.960,-440.490,237.980
334,77209.860000,219.429,96.063,-38.848,456.395,210.382,64.086,233.960,-434.490,111.980
335,77209.871000,235.243,96.063,-0.996,457.361,211.255,59.204,418.960,-114.490,78.980
336,77209.911000,254.023,69.910,-71.720,463.178,214.073,52.414,505.960,3.510,62.980
337,77209.953000,234.255,27.662,-46.817,463.175,214.051,51.433,455.960,10.510,282.980
338,77210.7000,227.336,15.591,-48.809,464.018,201.418,50.173,79.960,85.510,470.980
339,77210.34000,184.834,11.568,-94.630,472.599,186.206,60.641,-531.040,307.510,418.980
340,77210.74000,314.317,47.780,-63.751,479.350,180.792,76.226,-467.040,463.510,355.980
341,77210.110000,270.826,58.845,-47.813,479.292,171.428,91.708,208.960,716.510,479.980
342,77210.150000,238.208,-15.591,-19.922,476.327,161.993,105.222,-132.040,744.510,364.980
343,77210.190000,259.954,31.686,-14.942,478.272,160.351,117.938,-32.040,755.510,216.980
344,77210.210000,249.081,28.668,12.949,472.390,148.989,133.364,-227.040,589.510,226.980
345,77210.255000,250.069,20.621,11.953,476.257,146.352,144.101,-653.040,295.510,269.980
346,77210.291000,248.093,15.591,2.988,477.051,127.095,150.540,-769.040,64.510,309.980
347,77210.336000,252.046,-2.515,3.984,477.912,115.518,153.227,-551.040,-19.490,303.980
348,77210.371000,248.093,-12.574,5.977,481.754,112.644,153.171,-538.040,-107.490,258.980
349,77210.411000,253.035,-25.650,16.934,483.496,94.087,146.879,-512.040,-194.490,224.980
350,77210.456000,245.127,-43.756,23.907,489.291,93.172,146.871,93.960,-193.490,343.980
351,77210.491000,223.382,-125.234,33.868,488.260,87.273,143.796,474.960,-252.490,445.980
352,77210.511000,238.208,-8.550,-2.988,492.143,90.957,133.098,840.960,-409.490,366.980
353,77210.569000,273.792,2.515,14.942,493.034,85.832,120.238,1288.960,-450.490,429.980
354,77210.595000,242.162,-22.633,-10.957,496.852,84.489,101.584,1420.960,-803.490,327.980
355,77210.635000,266.873,-23.639,-57.774,498.745,84.982,79.043,1012.960,-924.490,171.980
356,77210.670000,289.606,20.621,-66.739,500.656,87.418,56.546,779.960,-918.490,165.980
357,77210.711000,400.309,121.210,-79.689,500.528,78.270,37.710,341.960,-947.490,339.980
358,77210.751000,358.795,219.788,-128.498,500.434,72.963,16.998,-164.040,-887.490,613.980
359,77210.791000,161.112,115.175,-307.798,493.564,68.431,-9.594,383.960,-1265.490,-29.020
360,77210.831000,119.598,63.874,-253.012,484.817,73.244,-51.674,2464.960,-1279.490,-775.020
361,77210.851000,157.158,66.892,-238.070,470.408,92.585,-92.463,663.960,-1549.490,-1118.020
362,77210.891000,94.888,64.880,-186.272,450.547,148.697,-135.389,-2036.040,-1864.490,-1775.020
363,77210.931000,174.950,1.509,-109.572,426.662,183.046,-151.349,-1749.040,-1080.490,-2023.020
364,77210.975000,223.382,-67.898,-81.681,404.806,226.237,-163.185,-672.040,-290.490,-1684.020
365,77211.10000,153.205,-129.257,-298.833,382.881,260.842,-168.347,746.960,488.510,-1292.020
366,77211.50000,240.185,-164.464,-34.864,375.977,252.470,-193.064,4145.960,1208.510,-427.020
367,77211.95000,445.776,-64.880,28.887,386.411,234.732,-210.107,1327.960,975.510,-211.020
368,77211.152000,312.340,-34.703,-31.875,399.127,244.994,-190.239,-1358.040,686.510,390.980
369,77211.189000,271.815,25.650,-111.564,405.910,243.399,-177.511,-116.040,652.510,94.980
370,77211.195000,259.954,27.662,-48.809,411.723,243.542,-173.573,407.960,679.510,38.980
371,77211.281000,277.745,21.627,-62.755,417.539,242.821,-164.751,117.960,472.510,33.980
372,77211.295000,268.849,53.815,-65.743,417.456,234.105,-163.964,149.960,304.510,-78.020
373,77211.311000,268.849,54.821,-83.673,421.366,237.163,-158.985,-87.040,169.510,-141.020
374,77211.351000,268.849,48.786,-73.712,420.502,247.833,-158.750,53.960,47.510,-199.020
375,77211.391000,265.884,33.697,-67.735,415.705,251.691,-157.693,-79.040,-46.490,-267.020
376,77211.436000,265.884,31.686,-61.759,410.846,248.796,-154.826,-191.040,-140.490,-388.020
377,77211.471000,271.815,24.644,-48.809,404.199,262.258,-157.483,-289.040,-253.490,-437.020
378,77211.491000,271.815,7.544,-17.930,389.758,268.956,-155.404,-397.040,-460.490,-354.020
379,77211.532000,275.768,-19.615,-13.946,385.985,280.417,-162.022,-304.040,-637.490,-117.020
380,77211.574000,278.734,-7.544,-3.984,383.081,280.367,-163.010,-714.040,-776.490,187.980
381,77211.614000,264.896,-31.686,-3.984,380.245,283.618,-146.272,-2746.040,-1095.490,486.980
382,77211.654000,243.151,-103.104,-85.665,383.240,289.817,-130.438,-2385.040,-1129.490,581.980
383,77211.694000,282.687,-164.464,-67.735,398.367,256.656,-144.871,1048.960,-645.490,1321.980
384,77211.734000,234.255,-10.562,-53.790,418.362,226.477,-158.247,2795.960,297.510,1718.980
385,77211.774000,158.147,149.375,-99.611,447.885,176.500,-149.488,2006.960,1166.510,1354.980
386,77211.815000,132.448,180.558,-97.619,461.239,149.275,-113.780,406.960,1447.510,758.980
387,77211.835000,147.274,206.711,-105.588,471.879,137.922,-61.053,-90.040,2127.510,243.980
388,77211.875000,204.602,-3.521,-251.019,474.947,142.179,-1.132,-589.040,2273.510,322.980
389,77211.915000,349.900,408.896,-248.031,480.762,140.574,11.593,-2944.040,-433.490,172.980
390,77211.955000,400.309,-16.597,-123.518,478.843,140.706,18.457,64.960,247.510,145.980
391,77211.991000,298.502,-0.503,-44.825,481.604,126.172,18.140,1155.960,342.510,518.980
392,77212.31000,210.533,-4.527,-30.879,477.656,117.461,20.880,-899.040,241.510,553.980
393,77212.75000,197.683,-86.004,-69.728,480.399,98.352,33.210,-1506.040,51.510,566.980
394,77212.115000,141.344,-70.916,-140.451,479.452,99.422,38.135,-553.040,37.510,258.980
395,77212.135000,156.170,-84.998,-120.529,484.282,97.635,43.009,102.960,210.510,-71.020
396,77212.171000,263.907,-88.016,-31.875,487.261,103.682,51.976,190.960,468.510,-281.020
397,77212.215000,267.861,17.603,-81.681,483.480,111.541,58.026,-76.040,410.510,-303.020
398,77212.255000,285.652,50.798,-54.786,483.495,109.923,72.700,-47.040,668.510,-96.020
399,77212.294000,278.734,-6.538,8.965,480.622,110.175,85.448,-202.040,480.510,-54.020
400,77212.334000,247.104,-44.762,-1.992,482.608,114.207,91.426,-568.040,192.510,-66.020
401,77212.372000,213.498,-49.792,-35.860,482.629,116.170,92.450,-489.040,-4.490,-158.020
402,77212.412000,237.220,-34.703,-28.887,481.633,112.363,96.286,-373.040,48.510,-219.020
403,77212.452000,273.792,2.515,-24.903,478.834,123.015,96.517,-212.040,-15.490,-293.020
404,77212.476000,250.069,-18.609,-22.911,477.933,129.801,96.666,-161.040,-56.490,-367.020
405,77212.515000,256.988,-2.515,-24.903,474.143,138.458,94.888,-316.040,-199.490,-529.020
406,77212.556000,263.907,0.503,-31.875,473.219,144.145,89.129,-467.040,-341.490,-618.020
407,77212.595000,274.780,30.680,-44.825,469.433,154.592,80.527,-675.040,-380.490,-651.020
408,77212.635000,262.919,23.639,-59.767,463.762,168.149,81.796,-412.040,-99.490,-695.020
409,77212.674000,238.208,10.562,-61.759,457.158,185.537,81.188,59.960,72.510,-628.020
410,77212.712000,230.301,11.568,-43.829,456.256,191.439,85.239,-184.040,118.510,-353.020
411,77212.758000,222.394,59.851,-81.681,451.493,197.390,93.207,-966.040,-38.490,-249.020
412,77212.794000,246.116,78.963,-80.685,457.301,199.237,86.395,-154.040,-280.490,-156.020
413,77212.814000,223.382,116.181,-79.689,456.332,200.975,77.606,5.960,-427.490,-19.020
414,77212.855000,218.440,70.916,-78.693,461.126,199.728,62.878,176.960,-519.490,19.980
415,77212.895000,209.544,63.874,-45.821,461.057,195.543,49.056,310.960,-436.490,62.980
416,77212.934000,198.672,99.081,-31.875,462.044,199.263,41.296,263.960,-181.490,5.980
417,77212.974000,192.741,59.851,-34.864,464.010,203.101,38.443,180.960,269.510,-41.020
418,77213.14000,271.815,-65.886,-65.743,467.832,196.515,46.150,7.960,368.510,311.980
419,77213.54000,227.336,1.509,-85.665,476.505,190.990,55.852,44.960,592.510,438.980
420,77213.99000,301.467,135.293,-44.825,479.357,179.972,83.072,-1226.040,632.510,121.980
421,77213.114000,266.873,44.762,-19.922,475.474,175.404,97.673,730.960,889.510,445.980
422,77213.154000,236.232,2.515,9.961,481.223,167.003,110.247,220.960,622.510,385.980
423,77213.194000,249.081,21.627,-18.926,479.272,163.316,119.968,1.960,477.510,286.980
424,77213.234000,263.907,28.668,-8.965,478.269,158.560,124.763,-46.040,392.510,336.980
425,77213.274000,247.104,38.727,10.957,482.008,143.258,133.257,-248.040,194.510,337.980
426,77213.329000,251.058,13.580,-15.938,481.926,134.542,134.044,-396.040,51.510,359.980
427,77213.370000,248.093,0.503,-12.949,486.739,131.720,135.953,-184.040,29.510,319.980
428,77213.394000,253.035,11.568,-6.973,491.484,122.080,136.730,-459.040,-81.490,274.980
429,77213.439000,249.081,-17.603,3.984,495.222,108.525,136.437,-368.040,-210.490,264.980
430,77213.454000,249.081,-17.603,12.949,493.288,109.391,132.529,-164.040,-307.490,256.980
431,77213.494000,247.104,-42.750,33.868,494.072,92.680,122.354,202.960,-405.490,352.980
432,77213.534000,251.058,-63.874,25.899,495.954,89.549,111.501,870.960,-479.490,438.980
433,77213.574000,239.197,-54.821,-21.914,499.818,92.176,96.857,1393.960,-547.490,382.980
434,77213.614000,243.151,-13.580,-59.767,506.599,96.730,80.301,1012.960,-725.490,107.980
435,77213.659000,257.977,-9.556,-73.712,505.564,95.188,54.768,944.960,-884.490,-99.020
436,77213.695000,309.375,4.527,-50.802,500.751,102.412,32.363,833.960,-991.490,-186.020
437,77213.735000,323.212,53.815,-55.782,498.778,102.911,11.776,443.960,-1084.490,-58.020
438,77213.775000,342.981,93.045,-93.634,496.822,106.215,-13.652,420.960,-1200.490,176.980
439,77213.796000,306.409,157.422,-152.405,490.898,99.729,-41.267,319.960,-1103.490,280.980
440,77213.840000,210.533,172.511,-250.023,480.139,93.218,-67.912,1018.960,-759.490,83.980
441,77213.875000,85.004,123.222,-270.942,466.509,91.382,-101.324,2183.960,-927.490,-488.020
442,77213.929000,109.714,-1.509,-232.093,450.972,92.439,-134.676,1144.960,-993.490,-759.020
443,77213.956000,84.015,67.898,-208.187,435.888,139.214,-163.089,-1787.040,-1351.490,-1252.020
444,77213.996000,139.367,-13.580,-127.502,415.907,175.693,-172.128,-2778.040,-1231.490,-1640.020
445,77214.36000,172.973,-32.692,-110.568,392.202,224.971,-171.085,-1702.040,-277.490,-1474.020
446,77214.82000,185.822,-37.721,-61.759,376.082,257.001,-163.543,-522.040,439.510,-1213.020
447,77214.96000,148.263,-194.640,-420.358,364.602,269.573,-160.346,1021.960,857.510,-1089.020
448,77214.136000,262.919,-77.957,23.907,367.290,256.096,-200.847,5261.960,1330.510,-401.020
449,77214.176000,357.807,9.556,27.891,376.823,242.512,-205.051,624.960,866.510,-100.020
450,77214.216000,284.664,24.644,-87.658,392.436,250.991,-179.332,-1562.040,730.510,377.980
451,77214.256000,274.780,36.715,-77.696,399.208,249.287,-171.511,417.960,727.510,112.980
452,77214.302000,262.919,17.603,-57.774,407.815,237.851,-165.862,375.960,645.510,83.980
453,77214.342000,261.931,-0.503,-55.782,408.798,238.012,-158.992,329.960,470.510,-10.020
454,77214.377000,264.896,38.727,-62.755,417.590,245.950,-154.875,185.960,281.510,-75.020
455,77214.417000,265.884,44.762,-83.673,412.759,245.967,-151.943,-54.040,158.510,-136.020
456,77214.437000,271.815,50.798,-69.728,410.826,245.970,-150.966,-70.040,50.510,-221.020
457,77214.477000,274.780,25.650,-54.786,406.051,252.676,-152.789,-176.040,-87.490,-289.020
458,77214.517000,268.849,27.662,-58.770,405.123,256.571,-151.723,-329.040,-265.490,-413.020
459,77214.557000,275.768,31.686,-54.786,394.618,270.988,-153.387,-362.040,-350.490,-482.020
460,77214.598000,286.641,12.574,-22.911,384.097,283.483,-154.112,-512.040,-520.490,-413.020
461,77214.636000,293.560,-17.603,8.965,376.414,289.233,-154.001,-543.040,-637.490,-97.020
462,77214.676000,290.595,42.750,12.949,374.478,287.445,-146.199,-1855.040,-820.490,242.980
463,77214.716000,232.278,-87.010,-36.856,374.612,294.888,-116.614,-3088.040,-1050.490,447.980
464,77214.737000,300.479,-183.576,-235.082,372.678,292.237,-103.928,-2515.040,-1011.490,724.980
465,77214.785000,227.336,-58.845,-81.681,394.640,265.917,-119.176,2327.960,-220.490,1698.980
466,77214.817000,219.429,29.674,-87.658,424.021,204.894,-127.333,2329.960,399.510,1991.980
467,77214.857000,146.286,147.363,-124.514,450.749,163.842,-108.575,334.960,802.510,1596.980
468,77214.898000,146.286,96.063,-126.506,461.164,133.590,-76.863,-345.040,938.510,1198.980
469,77214.941000,143.320,138.310,-140.451,465.008,122.819,-38.848,207.960,1366.510,707.980
470,77214.976000,186.811,4.527,-121.525,468.866,112.177,5.054,175.960,1637.510,191.980
471,77215.16000,479.382,513.509,-286.879,469.904,115.508,23.762,-1543.040,38.510,320.980
472,77215.55000,347.923,30.680,-170.335,471.842,112.917,37.438,-2185.040,222.510,-259.020
473,77215.75000,349.900,55.827,-49.805,472.767,107.230,43.198,972.960,425.510,83.980
474,77215.121000,278.734,-1.509,-21.914,471.792,105.387,48.058,316.960,356.510,205.980
475,77215.156000,218.440,3.521,-57.774,470.804,101.667,55.819,-1464.040,107.510,260.980
476,77215.196000,224.371,-49.792,-87.658,475.596,95.112,64.510,-1110.040,96.510,148.980
477,77215.236000,218.440,-84.998,-48.809,479.482,97.070,63.581,38.960,243.510,-26.020
478,77215.275000,237.220,-36.715,-43.829,475.600,93.386,74.278,288.960,406.510,-99.020
479,77215.315000,241.174,-13.580,-68.732,479.492,93.639,84.098,-255.040,409.510,-180.020
480,77215.359000,258.965,-18.609,-56.778,471.899,105.538,99.056,175.960,660.510,-229.020
481,77215.377000,306.409,51.804,-17.930,473.969,116.538,113.034,291.960,580.510,-258.020
482,77215.419000,243.151,3.521,11.953,470.099,114.731,120.831,-174.040,263.510,-134.020
483,77215.459000,256.988,-22.633,-6.973,471.031,111.763,117.825,-213.040,68.510,-119.020
484,77215.499000,253.035,-11.568,0.996,473.057,120.585,120.967,-81.040,-56.490,-104.020
485,77215.539000,251.058,-5.532,-24.903,471.074,116.575,115.971,-130.040,-225.490,-124.020
486,77215.579000,253.035,-17.603,-22.911,469.212,124.301,115.158,-211.040,-242.490,-205.020
487,77215.619000,258.965,-20.621,-26.895,469.257,130.018,110.381,-101.040,-232.490,-365.020
488,77215.659000,256.988,-13.580,-28.887,468.387,141.508,103.770,-40.040,-245.490,-496.020
489,77215.697000,277.745,2.515,-37.852,461.717,152.985,99.107,-77.040,-236.490,-650.020
490,77215.721000,275.768,24.644,-37.852,460.896,168.466,97.488,-130.040,-177.490,-724.020
491,77215.756000,229.313,40.739,-75.704,453.206,174.151,94.656,-37.040,112.510,-770.020
492,77215.796000,249.081,60.857,-59.767,443.784,199.364,98.138,-353.040,34.510,-702.020
493,77215.836000,238.208,45.768,-21.914,442.861,203.303,101.165,-493.040,43.510,-471.020
494,77215.876000,228.324,49.792,-23.907,439.061,209.220,107.172,-713.040,-23.490,-281.020
495,77215.919000,220.417,92.039,-71.720,435.123,202.364,106.031,-487.040,-235.490,-131.020
496,77215.959000,221.405,140.322,-52.794,438.085,209.124,103.246,-873.040,-451.490,-151.020
497,77215.999000,235.243,74.939,-51.798,438.024,204.140,97.251,71.960,-305.490,-152.020
498,77216.19000,236.232,115.175,-53.790,440.958,210.641,82.691,573.960,-368.490,-82.020
499,77216.59000,232.278,75.945,-54.786,439.972,212.207,66.053,743.960,-326.490,-88.020
500,77216.98000,220.417,32.692,-41.837,442.972,225.504,51.644,983.960,-292.490,49.980
501,77216.137000,204.602,39.733,-32.872,448.607,211.601,34.676,932.960,-259.490,129.980
502,77216.178000,177.915,32.692,-82.677,445.740,215.435,33.775,490.960,169.510,302.980
503,77216.219000,266.873,-104.110,-40.840,456.237,199.185,40.301,-21.040,233.510,707.980
504,77216.259000,229.313,67.898,-80.685,465.887,194.641,50.027,-943.040,419.510,699.980
505,77216.297000,269.838,4.527,-74.708,468.686,179.588,70.293,-26.040,654.510,538.980
506,77216.337000,328.154,78.963,-2.988,475.364,167.313,82.783,385.960,802.510,373.980
507,77216.358000,251.058,12.574,-22.911,472.446,162.733,96.404,133.960,587.510,350.980
508,77216.396000,244.139,13.580,-21.914,473.408,160.045,106.153,-97.040,470.510,305.980
509,77216.436000,257.977,1.509,-31.875,475.346,157.453,119.829,-286.040,428.510,181.980
510,77216.476000,255.012,20.621,-11.953,476.278,152.716,124.629,-364.040,426.510,140.980
511,77216.521000,249.081,2.515,-1.992,472.355,145.127,134.259,-253.040,315.510,145.980
512,77216.556000,245.127,16.597,-3.984,474.218,136.538,139.956,-281.040,208.510,144.980
513,77216.612000,257.977,-8.550,3.984,477.139,137.623,143.909,-28.040,128.510,234.980
514,77216.639000,247.104,-15.591,0.000,479.039,133.780,144.809,-71.040,105.510,231.980
515,77216.679000,254.023,-28.668,17.930,479.008,129.961,147.666,-42.040,-5.490,87.980
516,77216.699000,245.127,-17.603,40.840,480.849,121.156,143.552,-122.040,-247.490,37.980
517,77216.739000,245.127,-28.668,61.759,480.896,126.895,139.756,255.960,-482.490,134.980
518,77216.779000,246.116,11.568,0.996,483.690,120.602,117.067,1217.960,-683.490,439.980
519,77216.819000,254.023,3.521,-46.817,487.541,123.099,96.537,1286.960,-813.490,461.980
520,77216.860000,257.977,3.521,-37.852,489.347,114.834,72.822,524.960,-983.490,329.980
521,77216.900000,309.375,17.603,-25.899,495.015,105.656,50.075,274.960,-1028.490,294.980
522,77216.940000,347.923,50.798,-52.794,490.065,99.245,25.405,390.960,-1078.490,423.980
523,77216.980000,404.263,118.193,-85.665,486.989,87.868,-5.254,489.960,-1036.490,643.980
524,77217.0,338.039,157.422,-162.366,481.025,73.961,-17.343,-303.040,-854.490,445.980
525,77217.40000,119.598,115.175,-246.039,472.277,75.235,-43.811,-347.040,-911.490,2.980
526,77217.76000,99.830,30.680,-182.288,464.604,88.127,-71.981,806.960,-977.490,-959.020
527,77217.120000,106.749,125.234,-165.354,453.059,100.958,-101.140,1204.960,-818.490,-1199.020
528,77217.163000,94.888,39.733,-153.401,430.157,139.869,-130.725,-790.040,-1105.490,-1715.020
529,77217.197000,124.541,-16.597,-130.490,407.405,191.660,-148.256,-1132.040,-764.490,-2010.020
530,77217.237000,178.903,-50.798,-86.661,391.225,218.705,-146.709,-653.040,-168.490,-1747.020
531,77217.277000,194.718,-66.892,-37.852,374.160,254.457,-145.952,827.960,761.510,-1396.020
532,77217.319000,425.019,-355.583,-80.685,368.351,258.759,-168.424,3611.960,776.510,-439.020
533,77217.339000,365.714,-3.521,-31.875,373.875,234.997,-192.475,1755.960,890.510,-327.020
534,77217.379000,323.212,67.898,-86.661,380.814,246.347,-164.750,-1708.040,829.510,312.980
535,77217.419000,283.676,37.721,-68.732,388.695,257.468,-147.815,474.960,847.510,-38.020
536,77217.464000,268.849,15.591,-31.875,400.294,254.841,-140.004,509.960,752.510,37.980
537,77217.499000,268.849,-15.591,-22.911,404.145,252.053,-136.135,-147.040,431.510,85.980
538,77217.539000,258.965,31.686,-68.732,408.002,250.213,-133.226,128.960,271.510,-37.020
539,77217.580000,265.884,64.880,-79.689,406.069,249.332,-128.346,-97.040,183.510,-140.020
540,77217.620000,270.826,34.703,-57.774,401.356,261.043,-123.193,-104.040,98.510,-284.020
541,77217.640000,271.815,38.727,-41.837,400.433,264.981,-120.165,-247.040,-66.490,-370.020
542,77217.681000,273.792,55.827,-31.875,391.823,275.511,-122.892,-267.040,-303.490,-407.020
543,77217.717000,283.676,60.857,-30.879,392.846,282.209,-127.644,-195.040,-489.490,-374.020
544,77217.769000,294.548,20.621,-36.856,380.307,287.739,-135.393,-139.040,-579.490,-239.020
545,77217.801000,270.826,-27.662,-11.953,372.516,282.766,-137.481,-435.040,-618.490,18.980
546,77217.841000,302.456,2.515,-2.988,367.706,283.862,-129.622,-1965.040,-702.490,413.980
547,77217.881000,223.382,-107.128,-21.914,379.424,289.412,-102.996,-3031.040,-910.490,881.980
548,77217.921000,360.772,-200.676,-132.482,392.832,272.392,-88.636,-2684.040,-1154.490,986.980
549,77217.960000,237.220,-53.815,-59.767,412.649,222.904,-97.538,1171.960,-390.490,1874.980
550,77217.980000,216.463,39.733,-61.759,431.732,195.886,-99.078,2099.960,353.510,2076.980
551,77218.19000,140.355,156.417,-97.619,448.621,139.077,-86.574,1028.960,794.510,1395.980
552,77218.59000,121.575,164.464,-76.700,460.204,130.129,-57.328,699.960,1230.510,823.980
553,77218.106000,143.320,211.741,-53.790,464.083,122.334,-16.305,-210.040,1757.510,64.980
554,77218.140000,275.768,-333.454,-492.078,464.167,120.500,32.687,-788.040,1488.510,334.980
555,77218.180000,165.066,179.552,-72.716,466.056,113.033,45.274,-2533.040,221.510,-193.020
556,77218.220000,306.409,77.957,-45.821,464.216,120.090,58.175,628.960,643.510,-116.020
557,77218.260000,296.525,-1.509,0.996,462.273,118.238,63.033,955.960,482.510,104.980
558,77218.280000,215.475,19.615,-12.949,465.192,118.417,69.908,-1069.040,100.510,147.980
559,77218.320000,236.232,-36.715,-42.833,467.994,106.924,75.543,-1130.040,-24.490,170.980
560,77218.361000,214.486,-44.762,-70.724,467.017,105.944,75.519,120.960,49.510,110.980
561,77218.401000,226.347,-58.845,-53.790,464.117,105.937,76.494,260.960,129.510,-58.020
562,77218.441000,264.896,-13.580,-54.786,468.972,106.157,84.354,-50.040,284.510,-245.020
563,77218.481000,266.873,1.509,-47.813,460.402,118.823,90.501,296.960,401.510,-274.020
564,77218.521000,264.896,27.662,-46.817,462.420,125.810,98.506,231.960,501.510,-237.020
565,77218.561000,240.185,-9.556,0.996,463.465,131.839,107.468,65.960,345.510,-180.020
566,77218.601000,260.942,-7.544,14.942,459.604,131.887,111.383,172.960,85.510,-92.020
567,77218.621000,253.035,-4.527,-3.984,457.665,132.710,105.513,4.960,-222.490,-28.020
568,77218.661000,250.069,-23.639,-32.872,459.596,133.570,99.653,-42.040,-328.490,-53.020
569,77218.701000,258.965,-11.568,-30.879,460.627,141.239,94.922,-75.040,-313.490,-205.020
570,77218.741000,256.000,-15.591,-35.860,462.600,146.026,91.109,13.960,-316.490,-293.020
571,77218.781000,257.977,-9.556,-36.856,459.772,155.512,82.488,-14.040,-324.490,-468.020
572,77218.821000,265.884,-0.503,-47.813,454.962,160.125,73.754,-118.040,-310.490,-612.020
573,77218.869000,264.896,14.585,-52.794,447.357,174.548,71.117,-94.040,-83.490,-730.020
574,77218.901000,252.046,68.904,-84.669,440.795,195.862,72.556,-501.040,-87.490,-767.020
575,77218.921000,236.232,25.650,-75.704,437.956,201.724,75.623,-280.040,25.510,-588.020
576,77218.959000,212.510,26.656,-46.817,434.180,211.395,75.829,-366.040,19.510,-353.020
577,77218.999000,241.174,101.092,-80.685,434.133,206.541,75.721,-806.040,-186.490,-179.020
578,77219.39000,230.301,95.057,-78.693,438.014,207.571,76.733,-495.040,-413.490,-55.020
579,77219.79000,222.394,124.228,-62.755,438.943,206.329,63.959,-63.040,-503.490,-8.020
580,77219.119000,228.324,112.157,-61.759,442.871,214.846,52.388,-49.040,-500.490,-64.020
581,77219.164000,209.544,84.998,-49.805,443.861,219.472,41.706,142.960,-347.490,-114.020
582,77219.199000,244.139,8.550,25.899,445.758,216.492,37.721,127.960,-130.490,-199.020
583,77219.239000,234.255,-30.680,-88.654,443.904,226.052,32.045,1107.960,445.510,-30.020
584,77219.259000,235.243,-63.874,-21.914,447.672,214.548,36.701,258.960,446.510,414.980
585,77219.300000,254.023,5.532,-51.798,453.388,202.307,51.151,-614.040,555.510,598.980
586,77219.340000,242.162,50.798,-91.642,459.225,200.033,77.591,-480.040,754.510,402.980
587,77219.380000,308.386,42.750,-13.946,460.130,190.636,91.114,341.960,801.510,406.980
588,77219.420000,235.243,24.644,-10.957,462.021,183.190,104.682,-124.040,601.510,313.980
589,77219.460000,252.046,8.550,-27.891,463.822,166.963,116.093,-52.040,523.510,242.980
590,77219.512000,256.000,29.674,5.977,464.833,169.151,126.931,-247.040,422.510,242.980
591,77219.540000,247.104,15.591,6.973,466.732,164.423,131.734,-142.040,221.510,291.980
592,77219.579000,251.058,12.574,1.992,465.745,161.588,135.591,-65.040,88.510,333.980
593,77219.599000,250.069,2.515,-14.942,469.525,151.960,137.347,63.960,62.510,299.980
594,77219.641000,255.012,13.580,-2.988,471.357,142.184,133.211,44.960,17.510,255.980
595,77219.681000,248.093,-3.521,6.973,470.404,144.073,131.290,78.960,-141.490,291.980
596,77219.721000,230.301,-11.568,-29.883,475.142,134.368,129.123,114.960,-222.490,273.980
597,77219.767000,262.919,25.650,35.860,475.101,132.211,119.268,79.960,-614.490,318.980
598,77219.821000,283.676,18.609,4.981,483.706,126.039,99.536,176.960,-847.490,491.980
599,77219.842000,288.618,-0.503,-0.996,487.360,109.033,74.650,263.960,-957.490,565.980
600,77219.882000,288.618,3.521,-54.786,489.155,98.912,54.816,179.960,-964.490,350.980
601,77219.903000,293.560,-27.662,-18.926,487.032,83.877,33.884,-89.040,-1026.490,272.980
602,77219.942000,276.757,26.656,-78.693,478.286,86.058,4.494,775.960,-991.490,142.980
603,77219.982000,289.606,51.804,-106.584,480.180,85.688,-13.162,627.960,-845.490,288.980
604,77220.22000,252.046,52.809,-180.296,471.393,82.195,-35.814,1040.960,-726.490,-34.020
605,77220.80000,175.938,72.927,-236.078,461.708,87.278,-65.141,1490.960,-997.490,-430.020
606,77220.112000,110.703,78.963,-218.148,451.041,91.339,-96.454,-344.040,-1212.490,-963.020
607,77220.140000,114.656,116.181,-230.101,428.161,133.097,-128.918,-1330.040,-1348.490,-1617.020
608,77220.180000,110.703,40.739,-143.440,407.224,173.192,-149.647,-231.040,-737.490,-1653.020
609,77220.232000,153.205,4.527,-121.525,388.036,192.161,-161.034,-379.040,-316.490,-1521.020
610,77220.242000,188.788,-72.927,-92.638,375.740,221.143,-161.398,-74.040,98.510,-1331.020
611,77220.282000,209.544,-111.151,-15.938,364.320,241.332,-164.896,1350.960,780.510,-986.020
612,77220.322000,346.934,-174.523,-70.724,364.342,245.949,-175.581,2339.960,898.510,-741.020
613,77220.362000,337.050,-58.845,-0.996,368.074,234.099,-186.623,1398.960,968.510,-240.020
614,77220.402000,317.282,-11.568,-42.833,386.569,241.527,-165.826,-702.040,789.510,286.980
615,77220.442000,259.954,102.098,-127.502,393.401,244.808,-152.009,-159.040,745.510,43.980
616,77220.482000,275.768,13.580,-50.802,398.247,244.057,-144.170,677.960,836.510,-1.020
617,77220.522000,249.081,-2.515,-31.875,403.085,242.356,-135.372,-170.040,545.510,39.980
618,77220.542000,267.861,26.656,-57.774,408.856,237.688,-129.579,217.960,411.510,-56.020
619,77220.582000,273.792,45.768,-66.739,409.901,244.601,-124.520,26.960,283.510,-179.020
620,77220.622000,272.803,50.798,-68.732,408.081,254.485,-115.479,-168.040,204.510,-222.020
621,77220.662000,273.792,36.715,-49.805,407.202,263.257,-113.325,-180.040,78.510,-292.020
622,77220.702000,270.826,39.733,-42.833,398.517,265.135,-112.321,-291.040,-138.490,-424.020
623,77220.746000,276.757,34.703,-32.872,394.732,273.835,-112.136,-261.040,-319.490,-500.020
624,77220.786000,300.479,16.597,-15.938,381.249,281.341,-117.881,-273.040,-497.490,-475.020
625,77220.821000,292.571,8.550,4.981,378.418,289.921,-123.581,-375.040,-618.490,-215.020
626,77220.860000,304.432,-62.868,-11.953,376.465,287.960,-123.629,-851.040,-553.490,327.980
627,77220.885000,269.838,-51.804,-35.860,383.171,277.713,-107.171,-2256.040,-849.490,877.980
628,77220.920000,277.745,-147.363,-170.335,397.564,262.623,-93.746,-2182.040,-1263.490,1264.980
629,77220.960000,235.243,-61.862,-81.681,409.948,244.170,-100.013,-28.040,-829.490,1592.980
630,77221.0,198.672,45.768,-96.623,426.865,195.559,-111.844,1360.960,-226.490,1778.980
631,77221.40000,137.390,137.305,-106.584,444.903,159.859,-110.637,782.960,256.510,1472.980
632,77221.80000,131.459,119.198,-104.591,462.999,127.374,-95.629,373.960,479.510,1059.980
633,77221.121000,129.483,143.340,-110.568,469.691,114.344,-73.349,452.960,968.510,578.980
634,77221.161000,154.193,133.281,-107.580,471.625,107.308,-41.140,460.960,1224.510,54.980
635,77221.181000,197.683,148.369,-69.728,472.835,122.851,3.338,-192.040,1677.510,-360.020
636,77221.221000,508.046,252.982,-237.074,480.428,106.551,8.876,-56.040,110.510,340.980
637,77221.261000,221.405,109.139,-111.564,477.691,119.554,27.791,-1217.040,549.510,-186.020
638,77221.301000,314.317,56.833,-23.907,483.553,122.803,40.624,320.960,547.510,-162.020
639,77221.341000,278.734,18.609,-13.946,482.589,121.068,50.390,-218.040,340.510,38.980
640,77221.381000,264.896,6.538,-29.883,480.580,112.419,55.098,-1014.040,21.510,113.980
641,77221.421000,241.174,-13.580,-36.856,478.642,110.609,61.918,-967.040,-51.490,197.980
642,77221.461000,215.475,-35.709,-68.732,481.481,104.748,58.852,-81.040,115.510,209.980
643,77221.508000,217.452,-56.833,-55.782,483.432,104.918,65.724,-118.040,202.510,111.980
644,77221.523000,245.127,-65.886,-43.829,485.413,108.022,73.643,205.960,364.510,-48.020
645,77221.562000,226.347,-2.515,-67.735,484.419,103.352,82.363,234.960,488.510,-64.020
646,77221.602000,307.398,57.839,0.000,483.509,106.535,95.180,278.960,476.510,-7.020
647,77221.642000,263.907,2.515,17.930,483.459,100.775,97.994,140.960,113.510,240.980
648,77221.682000,254.023,-29.674,6.973,484.354,94.808,90.999,-56.040,-235.490,270.980
649,77221.723000,237.220,-61.862,-39.844,483.434,100.538,87.202,-92.040,-225.490,108.980
650,77221.762000,246.116,-40.739,-42.833,485.348,98.593,86.182,-176.040,-218.490,-118.020
651,77221.802000,257.977,-38.727,-33.868,486.307,98.516,82.260,-71.040,-191.490,-211.020
652,77221.842000,248.093,-35.709,-34.864,482.491,105.167,77.496,-50.040,-203.490,-332.020
653,77221.862000,249.081,-37.721,-30.879,480.666,117.640,71.885,-102.040,-269.490,-430.020
654,77221.902000,261.931,-4.527,-49.805,479.791,128.202,67.214,-135.040,-302.490,-523.020
655,77221.942000,283.676,43.756,-56.778,476.929,133.848,60.469,-408.040,-374.490,-545.020
656,77221.982000,307.398,63.874,-53.790,477.985,144.386,53.840,-638.040,-324.490,-485.020
657,77222.22000,268.849,50.798,-69.728,475.132,149.234,54.923,-452.040,-16.490,-410.020
658,77222.62000,198.672,-82.986,-71.720,469.429,160.720,50.262,165.960,-147.490,-361.020
659,77222.104000,208.556,32.692,-93.634,466.577,167.336,43.538,-402.040,-284.490,-254.020
660,77222.144000,249.081,0.503,-88.654,465.566,165.148,32.700,-334.040,-490.490,-170.020
661,77222.165000,228.324,66.892,-89.650,470.360,163.901,17.973,900.960,-372.490,100.980
662,77222.205000,200.649,54.821,-95.626,468.365,160.667,4.168,517.960,-365.490,203.980
663,77222.245000,185.822,53.815,-45.821,475.098,157.713,-0.787,390.960,-206.490,224.980
664,77222.285000,170.996,24.644,-10.957,474.165,160.681,2.219,354.960,474.510,164.980
665,77222.325000,277.745,-92.039,-26.895,482.812,152.265,12.838,94.960,476.510,474.980
666,77222.365000,299.490,63.874,-86.661,492.430,141.248,37.130,-876.040,633.510,534.980
667,77222.405000,343.969,64.880,-39.844,491.390,130.861,50.626,-70.040,682.510,290.980
668,77222.445000,241.174,-11.568,-40.840,491.377,127.215,61.333,221.960,538.510,377.980
669,77222.515000,245.127,-17.603,-33.868,497.077,114.823,68.915,-168.040,466.510,241.980
670,77222.523000,273.792,-1.509,-34.864,491.295,114.982,78.713,-132.040,392.510,213.980
671,77222.559000,253.035,7.544,-39.844,495.171,113.315,89.471,-354.040,275.510,178.980
672,77222.620000,241.174,-24.644,-38.848,495.071,101.794,95.099,-513.040,244.510,120.980
673,77222.681000,255.012,-23.639,-19.922,494.042,94.147,100.811,-458.040,252.510,99.980
674,77222.697000,249.081,-22.633,-19.922,497.014,100.130,106.835,-340.040,194.510,67.980
675,77222.755000,248.093,-34.703,5.977,496.985,96.333,110.673,-251.040,84.510,79.980
676,77222.819000,245.127,-2.515,-12.949,493.099,94.375,111.602,-255.040,-79.490,73.980
677,77222.834000,246.116,3.521,-15.938,500.768,87.611,109.507,-482.040,-336.490,129.980
678,77222.841000,264.896,-62.868,9.961,497.808,84.390,96.680,0.960,-371.490,229.980
679,77222.857000,250.069,-45.768,-22.911,496.719,74.413,84.689,60.960,-467.490,152.980
680,77222.884000,262.919,-45.768,-31.875,495.755,76.195,77.861,88.960,-486.490,68.980
681,77222.924000,271.815,-15.591,-10.957,501.517,74.957,63.136,79.960,-552.490,34.980
682,77222.964000,288.618,-14.585,-30.879,497.585,71.683,48.345,346.960,-675.490,59.980
683,77223.4000,189.776,-133.281,-69.728,495.623,71.405,36.567,1196.960,-522.490,-31.020
684,77223.42000,150.239,-138.310,-75.704,491.729,72.899,17.959,1305.960,-644.490,-37.020
685,77223.82000,124.541,-44.762,-93.634,488.882,80.444,9.295,290.960,-426.490,-211.020
686,77223.126000,218.440,129.257,-324.732,490.919,92.005,4.653,-240.040,-493.490,-690.020
687,77223.146000,374.610,33.697,-98.615,491.008,104.303,-9.784,622.960,-403.490,-289.020
688,77223.186000,392.402,245.941,-134.475,488.952,95.201,-25.681,1138.960,-553.490,267.980
689,77223.226000,285.652,149.375,-201.214,483.088,91.930,-39.495,923.960,-535.490,193.980
690,77223.327000,169.019,90.028,-203.206,476.213,87.355,-68.051,1652.960,-991.490,-394.020
691,77223.355000,199.660,-71.921,-165.354,462.713,99.974,-106.045,851.960,-1163.490,-613.020
692,77223.369000,145.297,63.874,-160.374,448.358,123.349,-139.879,-1442.040,-1505.490,-1052.020
693,77223.396000,103.784,16.597,-106.584,425.440,160.340,-168.526,-1493.040,-1195.490,-1345.020
694,77223.428000,116.633,-11.568,-78.693,403.546,198.763,-176.546,-1174.040,-585.490,-1449.020
695,77223.444000,164.077,-55.827,-54.786,386.471,232.660,-171.907,-21.040,415.510,-1409.020
696,77223.484000,237.220,-271.088,-186.272,378.727,232.542,-173.887,1517.960,1018.510,-1233.020
697,77223.524000,282.687,-55.827,0.996,379.584,227.093,-201.465,4527.960,1147.510,-778.020
698,77223.562000,354.842,-84.998,-16.934,388.199,218.375,-204.582,986.960,870.510,-98.020
699,77223.799000,265.884,45.768,-93.634,399.870,219.955,-181.967,-1378.040,635.510,236.980
700,77223.835000,265.884,-0.503,-94.630,407.632,221.131,-176.041,684.960,741.510,-62.020
701,77223.849000,259.954,16.597,-34.864,417.404,228.323,-162.131,-54.040,586.510,-8.020
702,77223.881000,270.826,12.574,-59.767,419.384,232.290,-159.097,17.960,382.510,-47.020
703,77223.881000,265.884,36.715,-81.681,421.304,230.410,-157.173,67.960,223.510,-159.020
704,77223.881000,267.861,43.756,-81.681,423.340,239.318,-150.107,-210.040,144.510,-208.020
705,77223.905000,264.896,31.686,-70.724,416.551,237.332,-149.184,-167.040,47.510,-268.020
706,77223.939000,268.849,22.633,-51.798,407.955,248.876,-149.927,-293.040,-183.490,-359.020
707,77223.954000,270.826,19.615,-38.848,406.112,258.544,-150.697,-254.040,-378.490,-380.020
708,77223.967000,284.664,3.521,-24.903,396.441,261.125,-161.447,-175.040,-636.490,-203.020
709,77224.10000,303.444,20.621,-20.918,391.632,264.875,-165.297,-279.040,-816.490,103.980
710,77224.26000,340.015,20.621,-0.996,390.625,260.961,-166.366,-1442.040,-963.490,406.980
711,77224.79000,262.919,-59.851,-16.934,389.649,257.348,-153.700,-2471.040,-898.490,752.980
712,77224.104000,253.035,-58.845,-62.755,394.571,261.732,-132.998,-2884.040,-891.490,908.980
713,77224.124000,277.745,-195.646,-125.510,408.792,230.029,-124.846,-300.040,-474.490,1569.980
714,77224.165000,198.672,5.532,-97.619,433.507,185.571,-127.742,1784.960,522.510,1921.980
715,77224.204000,115.645,178.546,-133.479,445.670,139.459,-112.069,331.960,676.510,1537.980
716,77224.244000,108.726,141.328,-137.463,459.117,125.459,-92.738,-515.040,731.510,1043.980
717,77224.285000,116.633,146.358,-128.498,462.946,114.537,-61.591,-266.040,1022.510,440.980
718,77224.325000,146.286,19.615,-135.471,468.860,118.282,-26.192,252.960,1433.510,-14.020
719,77224.366000,174.950,-305.289,-492.078,473.716,114.985,-1.738,-185.040,227.510,509.980
720,77224.406000,160.124,150.381,-39.844,472.770,113.422,15.877,-1802.040,315.510,-246.020
721,77224.426000,348.911,41.745,-1.992,478.608,113.803,30.608,920.960,654.510,152.980
722,77224.466000,270.826,25.650,-36.856,480.457,103.314,38.224,103.960,389.510,338.980
723,77224.506000,218.440,-10.562,-44.825,476.573,100.494,44.037,-1212.040,60.510,367.980
724,77224.546000,220.417,-46.774,-99.611,482.313,92.891,48.784,-706.040,99.510,271.980
725,77224.586000,224.371,-82.986,-58.770,484.255,92.975,51.732,366.960,249.510,-65.020
726,77224.626000,239.197,-50.798,-44.825,479.440,93.143,61.532,248.960,331.510,-182.020
727,77224.666000,278.734,-1.509,-49.805,479.552,103.024,69.597,55.960,369.510,-210.020
728,77224.707000,244.139,-17.603,-63.751,479.608,107.080,77.532,237.960,437.510,-142.020
729,77224.744000,236.232,-8.550,-22.911,480.575,105.321,85.341,150.960,395.510,-109.020
730,77224.764000,280.710,-14.585,24.903,480.647,111.297,92.338,-61.040,104.510,-49.020
731,77224.804000,252.046,-16.597,-23.907,481.535,104.381,86.302,-124.040,-155.490,21.980
732,77224.844000,242.162,-30.680,-51.798,477.658,104.278,83.350,-124.040,-207.490,-22.020
733,77224.884000,248.093,-28.668,-47.813,479.615,107.145,80.476,-133.040,-122.490,-134.020
734,77224.924000,258.965,-30.680,-39.844,475.778,110.063,82.494,-101.040,-131.490,-305.020
735,77224.964000,254.023,-24.644,-38.848,475.941,128.359,76.035,-101.040,-146.490,-447.020
736,77225.4000,258.965,-5.532,-41.837,471.158,134.115,75.173,-204.040,-175.490,-557.020
737,77225.44000,291.583,3.521,-32.872,470.304,146.641,71.526,-56.040,-81.490,-609.020
738,77225.64000,259.954,49.792,-55.782,465.625,163.077,70.900,85.960,-33.490,-605.020
739,77225.104000,237.220,-6.538,-78.693,457.932,169.603,62.203,-31.040,-229.490,-600.020
740,77225.145000,220.417,-25.650,-77.696,459.034,184.995,55.682,168.960,-119.490,-455.020
741,77225.185000,195.707,34.703,-63.751,456.143,185.075,60.581,-559.040,-86.490,-257.020
742,77225.224000,239.197,55.827,-69.728,454.309,194.829,63.736,-623.040,-131.490,-299.020
743,77225.264000,245.127,83.992,-60.763,453.286,190.764,55.798,321.960,-113.490,-94.020
744,77225.304000,238.208,105.116,-56.778,454.315,198.411,50.086,-156.040,-222.490,-8.020
745,77225.364000,221.405,51.804,-59.767,460.117,197.561,53.022,-306.040,-25.490,38.980
746,77225.385000,227.336,31.686,-32.872,458.135,191.804,56.812,-199.040,137.510,75.980
747,77225.405000,212.510,22.633,-68.732,459.026,181.392,68.351,-239.040,339.510,216.980
748,77225.445000,225.359,-63.874,-42.833,464.859,181.729,81.119,-107.040,432.510,491.980
749,77225.485000,260.942,111.151,-52.794,466.725,172.277,91.701,-730.040,495.510,350.980
750,77225.530000,305.421,3.521,-18.926,470.523,162.822,101.306,434.960,512.510,395.980
751,77225.587000,231.290,37.721,-18.926,473.377,156.226,109.010,469.960,510.510,447.980
752,77225.615000,258.965,-2.515,-10.957,470.375,143.792,118.535,-23.040,367.510,369.980
753,77225.657000,262.919,20.621,-13.946,471.339,142.011,125.362,94.960,301.510,367.980
754,77225.697000,255.012,3.521,-6.973,478.010,131.419,126.122,-134.040,135.510,343.980
755,77225.727000,252.046,7.544,-25.899,476.008,122.835,133.772,-201.040,88.510,274.980
756,77225.879000,257.977,-6.538,-18.926,476.973,122.823,132.793,-202.040,85.510,224.980
757,77225.892000,249.081,-15.591,-1.992,481.678,108.393,136.405,-75.040,59.510,202.980
758,77225.909000,250.069,-1.509,-8.965,475.835,104.453,136.306,-92.040,9.510,175.980
759,77225.918000,252.046,-6.538,2.988,481.662,107.358,133.440,-35.040,-118.490,197.980
760,77225.918000,247.104,-32.692,20.918,482.571,102.405,128.429,-7.040,-286.490,221.980
761,77225.946000,256.000,-41.745,11.953,484.405,93.535,121.371,390.960,-386.490,283.980
762,77225.982000,245.127,-63.874,-14.942,483.451,97.172,110.663,656.960,-387.490,187.980
763,77226.16000,231.290,-41.745,-30.879,485.372,97.946,100.878,820.960,-418.490,23.980
764,77226.56000,257.977,10.562,-39.844,485.421,105.454,89.276,777.960,-497.490,-123.020
765,77226.96000,269.838,-3.521,-4.981,486.390,109.886,69.764,648.960,-873.490,3.980
766,77226.136000,314.317,32.692,-44.825,486.346,110.340,46.238,489.960,-1023.490,90.980
767,77226.176000,342.981,102.098,-94.630,485.224,100.039,19.529,159.960,-1059.490,288.980
768,77226.196000,389.436,119.198,-99.611,479.285,91.655,-6.167,47.960,-1135.490,468.980
769,77226.236000,336.062,123.222,-155.393,473.337,81.415,-27.981,71.960,-894.490,338.980
770,77226.277000,137.390,133.281,-266.957,465.564,82.785,-50.523,1271.960,-832.490,-220.020
771,77226.317000,89.946,37.721,-180.296,456.868,91.611,-86.630,1739.960,-963.490,-887.020
772,77226.356000,114.656,97.069,-179.300,441.445,104.319,-119.722,495.960,-1125.490,-1194.020
773,77226.399000,92.911,7.544,-126.506,418.604,149.098,-147.216,-1433.040,-1308.490,-1677.020
774,77226.439000,157.158,-18.609,-91.642,395.861,200.975,-160.822,-1571.040,-611.490,-1804.020
775,77226.479000,186.811,-49.792,-89.650,377.889,240.817,-150.169,-1060.040,62.510,-1529.020
776,77226.519000,202.625,-95.057,-61.759,369.332,256.266,-149.844,1023.960,1015.510,-1075.020
777,77226.539000,317.282,-373.690,-167.346,368.300,251.229,-157.803,2833.960,1053.510,-555.020
778,77226.579000,280.710,-55.827,-26.895,373.009,242.129,-176.628,2491.960,1169.510,-570.020
779,77226.616000,314.317,35.709,-32.872,380.953,257.371,-148.815,-1450.040,885.510,310.980
780,77226.661000,267.861,57.839,-103.595,394.594,262.832,-127.090,-766.040,734.510,135.980
781,77226.701000,275.768,61.862,-39.844,404.157,250.413,-122.442,811.960,817.510,95.980
782,77226.746000,249.081,27.662,-40.840,409.902,242.854,-115.733,104.960,530.510,130.980
783,77226.781000,267.861,11.568,-27.891,412.861,247.823,-111.694,212.960,253.510,80.980
784,77226.821000,261.931,49.792,-64.747,413.873,252.665,-112.565,-47.040,61.510,6.980
785,77226.841000,270.826,48.786,-77.696,412.872,248.815,-110.691,-39.040,-33.490,-100.020
786,77226.881000,272.803,31.686,-51.798,410.022,254.569,-112.531,-92.040,-96.490,-208.020
787,77226.916000,269.838,24.644,-59.767,403.345,265.096,-116.234,-91.040,-216.490,-357.020
788,77226.962000,271.815,33.697,-58.770,392.746,269.803,-118.113,-124.040,-276.490,-483.020
789,77227.2000,288.618,40.739,-49.805,387.946,274.524,-121.941,-64.040,-377.490,-575.020
790,77227.40000,295.537,21.627,-13.946,377.442,289.825,-127.508,-239.040,-537.490,-467.020
791,77227.81000,302.456,0.503,1.992,371.657,292.595,-131.381,-482.040,-635.490,-176.020
792,77227.131000,270.826,-63.874,15.938,368.753,289.028,-115.776,-2158.040,-735.490,330.980
793,77227.161000,259.954,-138.310,-60.763,377.384,276.945,-95.432,-2569.040,-916.490,845.980
794,77227.180000,272.803,-150.381,-104.591,394.741,269.520,-87.715,-1193.040,-926.490,1450.980
795,77227.220000,231.290,-0.503,-78.693,419.440,224.911,-97.479,912.960,-373.490,1983.980
796,77227.259000,193.730,68.904,-95.626,437.421,183.386,-96.401,1673.960,469.510,1933.980
797,77227.300000,134.425,181.564,-78.693,456.471,149.897,-83.375,1037.960,870.510,1411.980
798,77227.342000,111.691,155.411,-79.689,466.918,122.600,-49.636,262.960,1398.510,679.980
799,77227.382000,174.950,-126.240,-154.397,466.967,117.789,-3.652,-933.040,1812.510,273.980
800,77227.420000,454.672,382.743,-118.537,477.628,114.548,20.815,-2025.040,78.510,191.980
801,77227.462000,395.367,132.275,-142.444,479.549,110.036,35.429,-1299.040,458.510,-133.020
802,77227.482000,325.189,14.585,-18.926,477.604,107.277,43.209,615.960,367.510,-57.020
803,77227.522000,288.618,29.674,-19.922,478.616,111.235,46.241,406.960,186.510,207.980
804,77227.562000,220.417,-12.574,-44.825,476.518,93.805,48.792,-1178.040,10.510,428.980
805,77227.602000,169.019,-79.969,-104.591,479.373,88.095,52.594,-592.040,28.510,296.980
806,77227.642000,176.927,-77.957,-100.607,481.255,81.447,58.334,185.960,222.510,115.980
807,77227.682000,237.220,-69.910,-52.794,483.255,87.377,62.393,220.960,445.510,-141.020
808,77227.723000,264.896,-7.544,-46.817,479.445,89.670,80.087,94.960,518.510,-181.020
809,77227.767000,315.305,38.727,-25.899,481.405,90.810,86.982,78.960,577.510,-90.020
810,77227.800000,302.456,49.792,-19.922,481.510,98.858,99.909,100.960,407.510,51.980
811,77227.820000,251.058,-42.750,16.934,481.493,96.053,104.750,-72.040,122.510,120.980
812,77227.860000,248.093,-24.644,-18.926,484.353,93.039,98.805,-263.040,-161.490,78.980
813,77227.914000,237.220,-36.715,-41.837,483.362,91.045,96.797,-198.040,-138.490,-22.020
814,77227.939000,260.942,-29.674,-28.887,480.425,87.155,97.686,-163.040,-58.490,-117.020
815,77227.980000,252.046,-19.615,-30.879,480.488,93.929,96.855,-212.040,-105.490,-224.020
816,77228.20000,248.093,-34.703,-36.856,478.643,103.576,95.104,-183.040,-119.490,-373.020
817,77228.60000,253.035,-25.650,-34.864,479.602,103.499,91.182,-252.040,-143.490,-498.020
818,77228.100000,264.896,-6.538,-37.852,478.818,122.864,89.649,-422.040,-205.490,-605.020
819,77228.120000,286.641,24.644,-36.856,473.047,127.532,83.856,-557.040,-258.490,-596.020
820,77228.159000,316.293,60.857,-34.864,468.368,143.968,83.231,-394.040,-88.490,-569.020
821,77228.200000,210.533,1.509,-76.700,466.542,155.556,81.523,238.960,-57.490,-542.020
822,77228.240000,193.730,21.627,-74.708,461.734,160.191,73.770,395.960,-46.490,-419.020
823,77228.280000,208.556,31.686,-80.685,457.000,170.823,73.996,-92.040,-131.490,-404.020
824,77228.320000,227.336,74.939,-64.747,460.887,173.666,69.164,409.960,-142.490,-373.020
825,77228.360000,223.382,68.904,-48.809,457.174,191.859,59.754,832.960,-103.490,-262.020
826,77228.400000,221.405,94.051,-34.864,456.290,202.335,51.158,436.960,-61.490,-243.020
827,77228.440000,214.486,73.933,-80.685,456.320,204.384,56.107,-483.040,-80.490,-217.020
828,77228.460000,253.035,-64.880,-57.774,459.140,195.696,56.901,402.960,211.510,255.980
829,77228.505000,200.649,42.750,-62.755,463.012,194.871,61.794,-295.040,411.510,506.980
830,77228.572000,333.097,95.057,-46.817,464.864,182.657,79.179,-1279.040,356.510,283.980
831,77228.650000,332.108,-31.686,-13.946,467.709,174.206,90.765,254.960,598.510,500.980
832,77228.686000,226.347,45.768,-41.837,471.488,162.809,100.327,174.960,543.510,439.980
833,77228.821000,256.000,4.527,-7.969,473.348,152.429,112.849,-349.040,427.510,338.980
834,77228.860000,262.919,30.680,-20.918,472.319,143.898,122.464,-211.040,305.510,376.980
835,77228.965000,243.151,4.527,-6.973,476.115,135.305,127.184,-312.040,229.510,344.980
836,77228.965000,255.012,-12.574,-13.946,477.030,129.533,129.020,-541.040,68.510,294.980
837,77228.965000,250.069,-25.650,-7.969,478.849,116.995,131.687,-109.040,67.510,271.980
838,77228.971000,241.174,-12.574,-11.953,480.807,118.999,133.697,-61.040,16.510,226.980
839,77229.9000,248.093,-11.568,-15.938,481.711,112.234,134.529,46.960,11.510,217.980
840,77229.28000,257.977,1.509,-2.988,481.674,109.235,130.540,22.960,-130.490,254.980
841,77229.28000,253.035,-7.544,17.930,481.578,100.389,125.440,70.960,-311.490,324.980
842,77229.44000,256.000,-60.857,23.907,488.273,94.436,116.496,407.960,-391.490,471.980
843,77229.59000,253.035,-46.774,22.911,487.229,89.292,103.631,817.960,-522.490,472.980
844,77229.80000,256.988,-27.662,-30.879,490.963,77.463,93.570,865.960,-604.490,442.980
845,77229.101000,248.093,-14.585,-64.747,486.032,72.109,72.847,688.960,-754.490,252.980
846,77229.144000,316.293,30.680,-47.813,485.965,68.830,56.103,619.960,-820.490,201.980
847,77229.192000,367.691,118.193,-70.724,489.776,67.422,34.505,72.960,-816.490,334.980
848,77229.221000,376.587,182.570,-114.553,480.880,52.321,13.557,-898.040,-851.490,313.980
849,77229.261000,192.741,94.051,-245.043,470.191,51.765,-7.072,-396.040,-520.490,-168.020
850,77229.300000,84.015,1.509,-185.276,466.418,65.858,-26.380,1131.960,-788.490,-855.020
851,77229.341000,85.992,203.694,-213.167,458.842,88.480,-53.352,1624.960,-853.490,-1307.020
852,77229.381000,103.784,79.969,-126.506,442.821,139.064,-84.625,-1691.040,-1507.490,-2279.020
853,77229.420000,154.193,24.644,-99.611,415.345,203.342,-105.812,-1663.040,-980.490,-2525.020
854,77229.441000,234.255,-78.963,-105.588,384.758,243.579,-115.770,513.960,18.510,-1876.020
855,77229.481000,229.313,-51.804,-76.700,367.512,266.150,-140.803,2314.960,431.510,-1611.020
856,77229.521000,361.761,-259.018,107.580,356.837,266.607,-159.448,3586.960,854.510,-903.020
857,77229.561000,446.764,-196.652,9.961,358.615,256.313,-187.131,2325.960,830.510,-418.020
858,77229.601000,256.000,143.340,-93.634,369.368,264.529,-171.235,-1467.040,712.510,499.980
859,77229.641000,295.537,-12.574,-89.650,381.022,264.189,-147.682,-679.040,650.510,168.980
860,77229.685000,272.803,25.650,-46.817,388.744,261.460,-142.823,652.960,806.510,91.980
861,77229.720000,259.954,17.603,-42.833,397.511,264.759,-129.002,-247.040,484.510,75.980
862,77229.740000,265.884,40.739,-63.751,399.471,266.784,-126.011,-81.040,332.510,-60.020
863,77229.780000,262.919,41.745,-56.778,398.581,273.679,-120.957,-145.040,285.510,-112.020
864,77229.820000,274.780,55.827,-50.802,398.538,267.983,-115.199,-91.040,133.510,-166.020
865,77229.860000,280.710,49.792,-41.837,393.760,273.783,-114.100,-97.040,-81.490,-293.020
866,77229.901000,283.676,50.798,-52.794,386.110,284.257,-119.768,-18.040,-193.490,-380.020
867,77229.942000,282.687,57.839,-62.755,378.444,291.927,-120.594,-183.040,-233.490,-560.020
868,77229.994000,281.699,36.715,-37.852,366.908,299.559,-121.430,-301.040,-277.490,-650.020
869,77230.22000,266.873,5.532,-7.969,355.313,301.345,-123.376,-370.040,-441.490,-399.020
870,77230.79000,249.081,-48.786,-0.996,351.483,305.212,-122.318,-581.040,-547.490,-25.020
871,77230.87000,266.873,-8.550,-14.942,355.333,300.654,-110.643,-1785.040,-656.490,491.980
872,77230.122000,197.683,-117.187,3.984,365.142,307.329,-76.151,-3800.040,-899.490,719.980
873,77230.165000,386.471,-217.776,-115.549,382.514,298.286,-53.760,-2529.040,-1117.490,1025.980
874,77230.206000,282.687,-126.240,-56.778,411.115,259.303,-74.178,1379.960,-580.490,1857.980
875,77230.246000,268.849,41.745,-78.693,442.504,206.928,-87.042,2521.960,101.510,2228.980
876,77230.280000,195.707,209.729,-97.619,465.376,169.485,-78.999,1228.960,587.510,1634.980
877,77230.320000,187.799,130.263,-93.634,469.982,141.787,-60.972,363.960,842.510,1170.980
878,77230.360000,168.031,207.717,-126.506,476.656,124.183,-26.044,73.960,1285.510,601.980
879,77230.400000,212.510,-17.603,-215.160,476.666,116.351,14.969,-351.040,1562.510,33.980
880,77230.421000,363.737,397.831,-114.553,476.661,111.022,37.406,-607.040,51.510,102.980
881,77230.461000,186.811,145.352,-145.432,478.742,123.015,52.387,-721.040,365.510,-329.020
882,77230.501000,316.293,7.544,6.973,479.759,127.016,57.381,348.960,294.510,-12.020
883,77230.542000,244.139,26.656,-52.794,477.842,128.054,61.323,-195.040,210.510,-2.020
884,77230.582000,235.243,-31.686,-33.868,475.883,124.281,67.119,-817.040,73.510,9.980
885,77230.622000,240.185,-19.615,-61.759,474.817,113.635,68.842,-86.040,125.510,-6.020
886,77230.662000,248.093,-18.609,-21.914,478.799,124.439,73.013,-1.040,128.510,-16.020
887,77230.702000,256.000,-17.603,-27.891,478.714,114.816,76.721,-79.040,102.510,85.980
888,77230.725000,255.012,-6.538,-44.825,478.749,117.794,79.730,113.960,119.510,136.980
889,77230.760000,240.185,-15.591,-51.798,476.726,108.131,82.453,1.960,166.510,173.980
890,77230.800000,242.162,-31.686,-14.942,479.628,107.275,86.363,-75.040,107.510,212.980
891,77230.840000,276.757,-13.580,-15.938,483.467,104.378,85.326,-156.040,-107.490,211.980
892,77230.881000,234.255,-54.821,-37.852,482.482,103.312,81.377,-181.040,-181.490,157.980
893,77230.922000,254.023,-43.756,-37.852,483.428,101.358,80.355,-223.040,-97.490,-20.020
894,77230.962000,253.035,-42.750,-38.848,484.353,97.440,78.309,-247.040,-95.490,-172.020
895,77231.2000,256.000,-41.745,-34.864,480.557,105.148,77.491,-190.040,-95.490,-337.020
896,77231.42000,252.046,-36.715,-36.856,480.635,113.821,74.742,-182.040,-112.490,-525.020
897,77231.64000,266.873,-17.603,-41.837,476.914,129.296,74.097,-265.040,-119.490,-650.020
898,77231.106000,280.710,24.644,-49.805,476.083,143.806,72.456,-382.040,-111.490,-738.020
899,77231.146000,305.421,121.210,-50.802,468.480,157.366,74.702,-828.040,-94.490,-747.020
900,77231.186000,224.371,-17.603,-67.735,462.705,159.359,79.638,-595.040,180.510,-566.020
901,77231.226000,186.811,11.568,-64.747,456.115,177.761,81.013,-300.040,65.510,-483.020
902,77231.266000,198.672,25.650,-68.732,456.143,179.789,84.981,-786.040,-146.490,-432.020
903,77231.306000,212.510,49.792,-89.650,456.211,187.491,82.210,-272.040,-291.490,-394.020
904,77231.342000,223.382,42.750,-56.778,452.418,197.874,70.664,399.960,-318.490,-286.020
905,77231.362000,228.324,105.116,-28.887,458.158,193.788,58.818,92.960,-390.490,-113.020
906,77231.402000,282.687,14.585,27.891,458.199,198.578,55.982,-712.040,-515.490,-209.020
907,77231.442000,234.255,31.686,-63.751,461.160,205.338,53.196,682.960,260.510,28.980
908,77231.482000,216.463,8.550,-57.774,467.908,201.650,59.013,139.960,237.510,220.980
909,77231.522000,221.405,10.562,-68.732,469.799,195.088,68.678,-524.040,382.510,322.980
910,77231.594000,341.992,62.868,-8.965,468.774,186.600,80.255,-224.040,450.510,396.980
911,77231.632000,239.197,45.768,-59.767,472.534,173.261,89.774,285.960,401.510,624.980
912,77231.692000,245.127,5.532,-22.911,475.375,165.652,95.495,120.960,374.510,555.980
913,77231.701000,257.977,27.662,-28.887,480.147,157.155,104.142,222.960,353.510,481.980
914,77231.791000,256.000,36.715,-17.930,483.913,145.629,107.817,78.960,177.510,505.980
915,77231.827000,252.046,8.550,-35.860,484.704,127.214,108.390,-107.040,66.510,528.980
916,77231.844000,247.104,12.574,-34.864,490.435,119.525,109.212,-317.040,9.510,444.980
917,77231.851000,259.954,-22.633,-23.907,485.510,109.834,111.929,-196.040,33.510,393.980
918,77231.867000,245.127,8.550,-32.872,491.282,106.934,109.915,-431.040,-30.490,304.980
919,77231.894000,259.954,0.503,-20.918,493.153,100.179,110.750,-288.040,-104.490,288.980
920,77231.934000,245.127,-21.627,-14.942,494.919,83.607,106.463,-519.040,-242.490,307.980
921,77231.974000,231.290,-63.874,-3.984,495.776,73.757,99.382,-315.040,-368.490,308.980
922,77232.14000,244.139,-68.904,-2.988,498.651,71.757,95.421,-266.040,-394.490,342.980
923,77232.52000,255.012,-66.892,-27.891,500.504,65.713,84.503,-68.040,-394.490,258.980
924,77232.97000,202.625,-104.110,-43.829,502.393,62.647,76.594,193.960,-381.490,138.980
925,77232.132000,243.151,-60.857,-29.883,497.547,62.513,72.658,550.960,-295.490,-79.020
926,77232.151000,238.208,-11.568,-70.724,501.460,69.132,63.007,845.960,-419.490,-288.020
927,77232.192000,243.151,-24.644,-59.767,498.677,85.220,45.706,1117.960,-578.490,-470.020
928,77232.247000,298.502,34.703,-62.755,495.829,93.627,32.157,1151.960,-581.490,-455.020
929,77232.295000,309.375,72.927,-73.712,495.917,105.040,21.624,635.960,-783.490,-55.020
930,77232.311000,360.772,134.287,-92.638,494.816,96.703,-4.061,640.960,-917.490,341.980
931,77232.351000,365.714,167.481,-101.603,487.801,77.587,-31.959,375.960,-1051.490,517.980
932,77232.391000,259.954,187.599,-183.284,475.131,73.926,-60.506,206.960,-1037.490,95.980
933,77232.447000,123.552,43.756,-221.136,457.676,76.885,-94.800,1250.960,-1137.490,-584.020
934,77232.455000,100.819,-12.574,-172.327,446.191,96.448,-126.752,1728.960,-730.490,-994.020
935,77232.495000,90.934,61.862,-132.482,429.918,117.323,-141.033,-489.040,-889.490,-1508.020
936,77232.535000,101.807,-22.633,-118.537,412.925,163.453,-153.774,-1703.040,-497.490,-1869.020
937,77232.576000,175.938,-51.804,-116.545,388.205,206.983,-148.937,-1396.040,58.510,-1677.020
938,77232.612000,221.405,-94.051,-109.572,375.018,241.090,-136.440,107.960,776.510,-1262.020
939,77232.655000,271.815,-279.136,-160.374,368.336,251.575,-142.105,1743.960,784.510,-827.020
940,77232.695000,213.498,-47.780,-17.930,371.169,247.417,-155.921,2666.960,966.510,-513.020
941,77232.764000,299.490,-86.004,-36.856,380.830,242.981,-141.289,-222.040,725.510,219.980
942,77232.789000,260.942,73.933,-107.580,384.802,251.044,-129.334,-585.040,686.510,171.980
943,77232.815000,274.780,39.733,-100.607,390.613,250.281,-122.474,943.960,894.510,-84.020
944,77232.847000,276.757,91.033,-52.794,397.450,254.489,-110.598,369.960,812.510,-46.020
945,77232.874000,268.849,25.650,-40.840,401.352,255.714,-100.756,174.960,534.510,-119.020
946,77232.912000,280.710,56.833,-43.829,403.300,255.862,-94.865,-142.040,355.510,-201.020
947,77232.952000,269.838,52.809,-48.809,399.495,260.851,-86.917,-235.040,159.510,-289.020
948,77232.994000,264.896,43.756,-53.790,400.526,266.750,-83.841,-237.040,57.510,-365.020
949,77233.40000,260.942,34.703,-41.837,390.967,278.328,-82.624,-278.040,-45.490,-543.020
950,77233.74000,264.896,43.756,-33.868,381.351,284.080,-81.536,-375.040,-209.490,-624.020
951,77233.94000,272.803,38.727,-8.965,372.831,303.391,-82.106,-460.040,-391.490,-602.020
952,77233.132000,278.734,-24.644,22.911,366.998,301.307,-86.087,-505.040,-691.490,-142.020
953,77233.184000,306.409,-47.780,29.883,368.904,297.528,-82.244,-835.040,-886.490,443.980
954,77233.211000,262.919,19.615,-11.953,382.406,288.448,-59.862,-3110.040,-1079.490,1028.980
955,77233.257000,375.598,-225.823,-143.440,388.113,277.005,-53.240,-2494.040,-1589.490,955.980
956,77233.292000,256.988,-51.804,-70.724,410.011,245.658,-76.444,1651.960,-852.490,1705.980
957,77233.332000,223.382,35.709,-74.708,430.684,187.182,-97.312,2403.960,-71.490,1854.980
958,77233.372000,138.378,169.493,-72.716,446.755,147.645,-93.252,1251.960,606.510,1208.980
959,77233.392000,110.703,121.210,-70.724,456.363,134.773,-65.079,718.960,1088.510,763.980
960,77233.432000,107.737,217.776,-94.630,460.284,130.905,-22.007,213.960,1586.510,219.980
961,77233.476000,207.568,-343.513,-492.078,455.578,136.510,14.392,-626.040,2114.510,-2.020
962,77233.515000,227.336,249.965,-9.961,457.534,134.091,35.917,-2927.040,-21.490,-191.020
963,77233.557000,356.819,73.933,-38.848,459.526,136.418,52.644,111.960,574.510,-100.020
964,77233.594000,301.467,26.656,-20.918,451.828,139.385,58.578,1129.960,493.510,323.980
965,77233.634000,239.197,39.733,-11.953,461.476,135.704,63.419,-844.040,92.510,244.980
966,77233.679000,204.602,-34.703,-66.739,463.273,120.318,68.966,-1929.040,-101.490,355.980
967,77233.694000,206.579,-64.880,-94.630,464.141,108.807,74.596,-326.040,99.510,205.980
968,77233.736000,237.220,-77.957,-47.813,464.138,107.016,81.421,222.960,317.510,-36.020
969,77233.781000,264.896,-11.568,-7.969,462.283,113.922,87.454,196.960,484.510,-171.020
970,77233.815000,282.687,18.609,-15.938,458.527,123.787,96.491,281.960,358.510,-186.020
971,77233.854000,258.965,16.597,-44.825,459.534,126.817,101.464,488.960,329.510,5.980
972,77233.894000,250.069,5.532,-30.879,458.538,122.126,109.203,-35.040,319.510,-4.020
973,77233.934000,252.046,-15.591,-4.981,458.512,119.235,110.119,-236.040,164.510,-27.020
974,77233.974000,247.104,-16.597,4.981,457.546,118.363,115.001,-218.040,-87.490,43.980
975,77234.14000,250.069,-11.568,-21.914,460.470,121.239,112.129,-347.040,-224.490,5.980
976,77234.34000,256.988,-29.674,-20.918,460.461,121.153,108.205,-118.040,-206.490,-128.020
977,77234.74000,252.046,-25.650,-31.875,460.537,129.804,104.474,-45.040,-187.490,-264.020
978,77234.114000,256.000,-19.615,-29.883,458.605,130.691,101.548,-80.040,-193.490,-470.020
979,77234.154000,265.884,0.503,-37.852,452.925,144.162,98.893,-153.040,-188.490,-582.020
980,77234.194000,301.467,21.627,-11.953,450.157,158.632,96.266,-293.040,-162.490,-620.020
981,77234.234000,262.919,34.703,-44.825,443.501,170.238,97.491,57.960,-41.490,-556.020
982,77234.275000,248.093,32.692,-50.802,444.483,173.031,91.671,-522.040,-376.490,-528.020
983,77234.320000,232.278,18.609,-45.821,442.650,184.554,87.019,-260.040,-193.490,-387.020
984,77234.335000,230.301,-3.521,-86.661,439.691,178.701,86.883,-842.040,-153.490,-266.020
985,77234.375000,246.116,36.715,-96.623,435.939,191.241,85.192,104.960,-206.490,-218.020
986,77234.415000,216.463,91.033,-86.661,440.813,197.804,72.600,657.960,-330.490,-142.020
987,77234.455000,203.614,111.151,-47.813,442.757,201.426,59.935,269.960,-448.490,-112.020
988,77234.495000,209.544,92.039,-35.860,442.764,203.260,55.073,170.960,-229.490,-142.020
989,77234.535000,246.116,1.509,-22.911,443.718,202.255,53.091,-307.040,-51.490,-181.020
990,77234.580000,300.479,-111.151,-46.817,442.781,204.296,58.038,243.960,209.510,150.980
991,77234.615000,217.452,26.656,-41.837,449.545,202.528,62.916,169.960,415.510,483.980
992,77234.655000,242.162,63.874,-76.700,452.334,186.504,83.160,-1312.040,403.510,413.980
993,77234.675000,309.375,4.527,-54.786,456.130,176.143,95.687,150.960,631.510,311.980
994,77234.716000,242.162,61.862,-10.957,456.141,176.251,100.593,188.960,642.510,395.980
995,77234.755000,255.012,-3.521,-6.973,456.031,161.990,114.005,-573.040,396.510,366.980
996,77234.799000,255.012,32.692,-12.949,456.021,159.250,121.790,14.960,324.510,358.980
997,77234.837000,255.012,4.527,-6.973,461.735,148.756,127.453,-184.040,173.510,320.980
998,77234.876000,253.035,11.568,-20.918,458.790,143.032,133.203,-207.040,115.510,250.980
999,77234.929000,256.000,10.562,-19.922,463.626,142.195,137.118,-128.040,146.510,195.980
1000,77235.29000,251.058,5.532,-10.957,459.660,132.427,135.912,-269.040,83.510,155.980
1001,77235.52000,245.127,34.703,-7.969,462.524,127.687,139.735,-416.040,-71.490,147.980
1002,77235.70000,251.058,45.768,-3.984,463.407,119.843,135.640,-558.040,-274.490,182.980
1003,77235.85000,268.849,31.686,5.977,469.092,109.069,128.549,-869.040,-472.490,223.980
1004,77235.99000,263.907,0.503,6.973,474.797,100.237,121.500,-664.040,-560.490,288.980
1005,77235.164000,266.873,-34.703,-15.938,476.580,87.354,108.469,-459.040,-608.490,372.980
1006,77235.179000,261.931,-84.998,-19.922,478.431,81.289,96.571,-475.040,-539.490,392.980
1007,77235.214000,238.208,-105.116,-27.891,477.340,70.406,87.501,-471.040,-515.490,442.980
1008,77235.254000,204.602,-114.169,-40.840,479.193,63.478,80.486,314.960,-360.490,337.980
1009,77235.279000,148.263,-121.210,-107.580,478.212,64.224,70.694,1128.960,-300.490,112.980
1010,77235.314000,169.019,-80.974,-96.623,478.210,65.087,65.810,1639.960,-163.490,-154.020
1011,77235.355000,318.270,135.293,-95.626,473.508,79.538,63.179,1319.960,-63.490,-235.020
1012,77235.395000,414.147,288.189,-65.743,480.291,83.228,51.507,11.960,-588.490,-103.020
1013,77235.436000,418.100,183.576,-76.700,481.226,82.051,41.676,165.960,-616.490,480.980
1014,77235.476000,267.861,150.381,-200.218,478.203,72.940,25.777,491.960,-534.490,206.980
1015,77235.515000,196.695,42.750,-154.397,473.326,74.274,0.299,696.960,-905.490,-253.020
1016,77235.554000,155.181,107.128,-195.237,467.532,82.243,-31.898,695.960,-1012.490,-823.020
1017,77235.617000,107.737,82.986,-121.525,458.218,126.981,-67.209,-1591.040,-1296.490,-1572.020
1018,77235.626000,135.413,-13.580,-70.724,444.126,174.003,-84.828,-1316.040,-810.490,-1857.020
1019,77235.676000,170.996,-21.627,-86.661,427.108,215.494,-87.865,-208.040,110.510,-1695.020
1020,77235.697000,241.174,-68.904,-94.630,413.783,237.713,-86.419,301.960,455.510,-1628.020
1021,77235.759000,289.606,-310.318,-54.786,403.151,243.866,-110.822,4831.960,1064.510,-761.020
1022,77235.810000,359.784,-146.358,63.751,406.954,240.625,-127.557,2076.960,782.510,-226.020
1023,77235.917000,256.988,111.151,-103.595,415.788,248.088,-100.895,-2005.040,567.510,407.980
1024,77235.949000,268.849,24.644,-118.537,425.526,251.440,-85.109,139.960,664.510,-3.020
1025,77235.965000,239.197,55.827,-37.852,427.383,241.901,-78.452,568.960,861.510,-12.020
1026,77235.965000,244.139,-8.550,-28.887,430.357,247.906,-71.448,-37.040,563.510,20.980
1027,77235.979000,264.896,35.709,-35.860,431.306,245.089,-67.586,199.960,405.510,-37.020
1028,77236.15000,259.954,47.780,-50.802,432.305,247.169,-61.654,46.960,202.510,-117.020
1029,77236.91000,267.861,45.768,-41.837,432.414,257.892,-59.454,-9.040,63.510,-153.020
1030,77236.115000,267.861,33.697,-40.840,428.584,262.644,-62.299,-121.040,-156.490,-231.020
1031,77236.151000,262.919,33.697,-33.868,424.677,258.723,-62.394,-192.040,-317.490,-321.020
1032,77236.176000,276.757,48.786,-27.891,415.079,269.049,-73.953,-200.040,-534.490,-368.020
1033,77236.192000,282.687,40.739,-28.887,412.210,273.746,-79.739,-21.040,-670.490,-285.020
1034,77236.226000,303.444,0.503,-16.934,403.503,277.178,-96.352,23.960,-799.490,18.980
1035,77236.266000,300.479,-39.733,9.961,404.381,269.291,-102.410,-583.040,-817.490,305.980
1036,77236.307000,244.139,-51.804,-22.911,403.378,263.650,-93.711,-1869.040,-932.490,551.980
1037,77236.349000,222.394,-134.287,-223.128,411.044,252.464,-76.291,-2369.040,-889.490,884.980
1038,77236.389000,225.359,-110.145,-94.630,427.099,214.523,-87.887,801.960,-382.490,1538.980
1039,77236.409000,161.112,83.992,-88.654,440.254,174.828,-89.721,2403.960,629.510,1816.980
1040,77236.449000,125.529,146.358,-82.677,457.402,143.390,-70.769,749.960,994.510,1349.980
1041,77236.489000,101.807,133.281,-88.654,465.003,121.006,-33.004,-129.040,1471.510,578.980
1042,77236.527000,146.286,180.558,-83.673,464.162,123.089,18.035,51.960,1961.510,-98.020
1043,77236.569000,431.938,463.214,-492.078,463.263,122.864,52.351,-1170.040,384.510,-179.020
1044,77236.609000,257.977,104.110,-142.444,460.484,131.056,73.121,-1113.040,812.510,-638.020
1045,77236.645000,394.378,111.151,60.763,463.533,143.058,88.104,1537.960,959.510,-320.020
1046,77236.686000,180.880,38.727,-17.930,460.588,138.218,89.951,-122.040,288.510,-54.020
1047,77236.706000,229.313,-11.568,-8.965,460.563,133.580,99.655,-1670.040,41.510,-46.020
1048,77236.746000,258.965,-51.804,-39.844,462.502,131.873,109.428,-539.040,141.510,-64.020
1049,77236.791000,250.069,-13.580,-13.946,458.665,134.791,111.446,528.960,231.510,-64.020
1050,77236.826000,241.174,10.562,-18.926,456.805,141.654,115.517,-192.040,97.510,-122.020
1051,77236.872000,260.942,13.580,-35.860,457.767,140.736,117.460,-101.040,127.510,-98.020
1052,77236.911000,252.046,10.562,-18.926,460.700,143.698,118.512,-105.040,121.510,-64.020
1053,77236.951000,248.093,8.550,-17.930,455.872,143.737,122.426,-334.040,47.510,-76.020
1054,77236.996000,255.012,28.668,-14.942,458.689,135.028,122.238,-445.040,-12.490,-33.020
1055,77237.31000,258.965,28.668,-26.895,458.701,136.020,123.241,-526.040,-67.490,-0.020
1056,77237.51000,256.000,11.568,-6.973,459.626,131.218,125.098,-829.040,-126.490,49.980
1057,77237.92000,242.162,-5.532,-19.922,460.548,126.395,125.973,-431.040,-152.490,112.980
1058,77237.126000,245.127,-29.674,-9.961,463.338,114.773,125.721,-298.040,-140.490,183.980
1059,77237.167000,221.405,-40.739,-29.883,465.273,115.677,121.823,-150.040,-216.490,320.980
1060,77237.209000,250.069,11.568,-1.992,462.220,100.999,117.568,49.960,-278.490,374.980
1061,77237.251000,263.907,26.656,-8.965,466.020,95.967,107.657,98.960,-503.490,404.980
1062,77237.291000,255.012,-25.650,-32.872,473.721,93.906,98.802,406.960,-573.490,389.980
1063,77237.331000,237.220,-51.804,-32.872,472.635,84.835,83.888,608.960,-581.490,242.980
1064,77237.352000,255.012,-29.674,-40.840,474.534,84.509,68.195,541.960,-699.490,58.980
1065,77237.386000,244.139,-48.786,-66.739,476.460,86.211,56.468,750.960,-712.490,-81.020
1066,77237.432000,249.081,-18.609,-80.685,473.617,95.546,40.979,995.960,-606.490,-193.020
1067,77237.467000,247.104,-9.556,-86.661,469.737,98.054,24.355,694.960,-579.490,-232.020
1068,77237.511000,244.139,-2.515,-100.607,468.863,110.386,11.879,383.960,-491.490,-183.020
1069,77237.557000,232.278,-13.580,-95.626,467.892,112.102,2.108,348.960,-397.490,-143.020
1070,77237.590000,248.093,3.521,-106.584,467.942,118.748,-4.609,316.960,-275.490,-76.020
1071,77237.637000,239.197,-16.597,-101.603,464.943,109.874,-9.716,192.960,-219.490,-1.020
1072,77237.652000,237.220,-24.644,-102.599,464.998,116.562,-14.470,84.960,-94.490,-7.020
1073,77237.687000,240.185,-23.639,-104.591,467.933,119.546,-12.437,65.960,35.510,-57.020
1074,77237.729000,240.185,-6.538,-112.560,468.842,112.824,-9.642,57.960,182.510,-36.020
1075,77237.769000,244.139,-12.574,-105.588,464.039,115.754,-6.645,40.960,399.510,15.980
1076,77237.816000,240.185,-14.585,-96.623,466.010,116.118,9.058,102.960,549.510,39.980
1077,77237.856000,245.127,-24.644,-79.689,468.956,117.441,23.803,-34.040,673.510,59.980
1078,77237.890000,241.174,-33.697,-66.739,472.857,117.780,37.548,-131.040,698.510,16.980
1079,77237.930000,246.116,-21.627,-60.763,467.077,117.961,48.328,-239.040,704.510,-64.020
1080,77237.970000,242.162,-28.668,-44.825,469.005,113.514,65.885,-237.040,692.510,-133.020
1081,77237.990000,248.093,-24.644,-46.817,466.219,122.525,79.808,-338.040,653.510,-223.020
1082,77238.30000,248.093,-26.656,-26.895,463.381,125.755,95.564,-396.040,619.510,-289.020
1083,77238.70000,255.012,-18.609,-20.918,464.455,133.833,109.475,-401.040,574.510,-348.020
1084,77238.109000,247.104,-5.532,-17.930,456.809,140.813,121.382,-351.040,536.510,-368.020
1085,77238.162000,253.035,-9.556,-8.965,452.898,135.101,128.112,-304.040,519.510,-388.020
1086,77238.192000,248.093,1.509,-0.996,452.045,144.109,141.058,-264.040,475.510,-390.020
1087,77238.228000,248.093,17.603,6.973,446.329,151.065,151.007,-241.040,423.510,-332.020
1088,77238.269000,250.069,10.562,13.946,439.626,156.069,160.911,-182.040,321.510,-252.020
1089,77238.289000,248.093,14.585,17.930,440.574,153.252,164.773,-85.040,248.510,-192.020
1090,77238.329000,251.058,17.603,16.934,436.773,160.032,165.896,-31.040,139.510,-125.020
1091,77238.369000,249.081,17.603,16.934,438.748,163.956,166.968,11.960,78.510,-74.020
1092,77238.409000,250.069,21.627,13.946,435.916,170.766,169.075,53.960,-6.490,-27.020
1093,77238.449000,248.093,21.627,18.926,435.815,160.993,165.916,32.960,-90.490,9.980
