Sample, Time, ACCX, ACCY, ACCZ, MAGX, MAGY, MAGZ, GYRX, GYRY, GYRZ
0,77441.944000,254.023,17.603,-18.926,431.067,182.931,106.572,34.960,-195.490,85.980
1,77441.984000,256.000,15.591,-17.930,434.941,183.012,108.543,12.960,-161.490,75.980
2,77442.24000,255.012,12.574,-27.891,435.949,187.811,105.710,22.960,-109.490,57.980
3,77442.64000,253.035,14.585,-29.883,433.967,182.938,105.598,-34.040,-17.490,5.980
4,77442.104000,255.012,13.580,-24.903,429.116,181.877,103.603,-80.040,57.510,-31.020
5,77442.144000,254.023,15.591,-22.911,431.085,183.988,110.518,-119.040,123.510,-63.020
6,77442.184000,254.023,15.591,-18.926,432.008,179.165,111.394,-141.040,175.510,-88.020
7,77442.204000,255.012,18.609,-10.957,428.229,187.045,118.425,-130.040,196.510,-94.020
8,77442.244000,253.035,19.615,-5.977,428.283,191.964,121.477,-110.040,199.510,-107.020
9,77442.284000,253.035,21.627,-0.996,428.282,190.195,129.283,-83.040,194.510,-113.020
10,77442.322000,248.093,26.656,0.996,422.543,196.050,133.323,-36.040,168.510,-102.020
11,77442.362000,251.058,17.603,14.942,427.401,198.060,134.359,-47.040,143.510,-83.020
12,77442.400000,252.046,21.627,9.961,421.618,199.967,135.369,73.960,113.510,-47.020
13,77442.442000,250.069,21.627,12.949,423.520,196.145,137.250,46.960,65.510,-14.020
14,77442.484000,246.116,32.692,-0.996,422.550,196.114,136.267,165.960,33.510,13.980
15,77442.501000,248.093,30.680,-1.992,421.582,196.105,136.264,184.960,-26.490,32.980
16,77442.541000,248.093,29.674,-3.984,425.507,202.831,131.519,267.960,-31.490,38.980
17,77442.581000,241.174,29.674,-4.981,424.552,204.699,128.616,203.960,-105.490,32.980
18,77442.620000,267.861,34.703,10.957,425.416,194.913,124.478,181.960,-146.490,54.980
19,77442.661000,260.942,32.692,-6.973,425.506,204.579,122.731,-63.040,-138.490,-0.020
20,77442.701000,256.000,20.621,-14.942,427.372,197.780,121.604,-67.040,-36.490,-42.020
21,77442.741000,255.012,29.674,-19.922,421.617,202.599,122.679,35.960,140.510,-57.020
22,77442.780000,255.012,29.674,-0.996,425.538,206.650,128.661,-189.040,137.510,-84.020
23,77442.820000,247.104,21.627,9.961,423.610,206.696,131.600,-168.040,123.510,-57.020
24,77442.845000,247.104,28.668,11.953,419.686,200.854,132.443,-164.040,51.510,-41.020
25,77442.880000,250.069,28.668,4.981,420.622,197.045,135.303,-110.040,-1.490,-14.020
26,77442.925000,250.069,26.656,3.984,421.595,197.982,133.364,-52.040,-59.490,23.980
27,77442.965000,251.058,28.668,5.977,424.525,200.923,133.436,-37.040,-82.490,51.980
28,77443.0,252.046,28.668,-1.992,423.553,200.870,131.471,79.960,-7.490,61.980
29,77443.44000,254.023,28.668,-6.973,422.574,198.984,134.369,31.960,15.510,45.980
30,77443.82000,254.023,31.686,-7.969,424.471,196.004,130.384,-93.040,11.510,-1.020
31,77443.120000,254.023,31.686,1.992,424.532,200.988,136.379,-186.040,13.510,-27.020
32,77443.147000,253.035,19.615,1.992,419.678,199.020,137.306,-250.040,14.510,-30.020
33,77443.181000,250.069,21.627,5.977,422.543,195.165,137.226,-180.040,26.510,-28.020
34,77443.227000,251.058,18.609,9.961,420.615,195.211,140.165,-132.040,20.510,-17.020
35,77443.261000,249.081,35.709,2.988,425.485,198.214,142.203,39.960,-3.490,23.980
36,77443.305000,253.035,28.668,1.992,422.535,193.331,142.089,-28.040,-49.490,38.980
37,77443.344000,255.012,25.650,1.992,428.394,200.076,137.348,80.960,6.510,59.980
38,77443.381000,250.069,19.615,2.988,426.400,193.326,140.135,119.960,66.510,49.980
39,77443.425000,250.069,21.627,6.973,425.487,199.120,139.281,173.960,39.510,41.980
40,77443.441000,248.093,21.627,0.996,425.447,195.215,138.214,282.960,44.510,40.980
41,77443.484000,253.035,35.709,2.988,425.375,188.354,135.120,166.960,-59.490,48.980
42,77443.522000,256.988,45.768,26.895,426.462,200.963,134.421,2.960,-95.490,47.980
43,77443.565000,266.873,33.697,-4.981,428.383,199.968,132.442,8.960,-134.490,81.980
44,77443.605000,256.988,21.627,-14.942,428.254,188.167,125.315,-352.040,-231.490,37.980
45,77443.645000,244.139,9.556,-27.891,426.357,192.031,125.397,-492.040,-210.490,-24.020
46,77443.684000,232.278,-15.591,-5.977,427.287,188.157,125.313,-129.040,17.510,-60.020
47,77443.724000,229.313,-3.521,-17.930,428.294,191.187,130.285,121.960,96.510,-30.020
48,77443.765000,228.324,11.568,-14.942,428.348,196.991,129.434,78.960,71.510,-15.020
49,77443.786000,297.514,72.927,20.918,425.453,197.027,132.370,108.960,82.510,-7.020
50,77443.825000,253.035,31.686,4.981,425.427,194.136,133.287,148.960,-19.490,54.980
51,77443.866000,255.012,33.697,16.934,423.438,190.083,126.328,-21.040,-86.490,48.980
52,77443.906000,262.919,32.692,-8.965,427.280,187.208,126.272,-65.040,-112.490,53.980
53,77443.941000,256.988,32.692,-13.946,425.409,193.964,125.438,-149.040,-179.490,20.980
54,77443.981000,248.093,2.515,-16.934,429.236,190.075,123.398,-231.040,-166.490,-5.020
55,77444.24000,238.208,-3.521,-15.938,430.133,183.245,121.287,-108.040,-32.490,-29.020
56,77444.65000,225.359,8.550,-26.895,429.175,183.322,125.209,-130.040,24.510,-60.020
57,77444.85000,255.012,41.745,-6.973,428.247,187.218,126.275,0.960,117.510,-44.020
58,77444.125000,278.734,36.715,3.984,427.364,195.061,130.369,129.960,132.510,-29.020
59,77444.165000,253.035,30.680,2.988,426.425,197.080,134.335,4.960,71.510,-65.020
60,77444.216000,252.046,33.697,-2.988,427.360,195.018,128.407,-151.040,39.510,-85.020
61,77444.246000,249.081,29.674,-0.996,425.429,194.158,134.268,-46.040,18.510,-30.020
62,77444.285000,245.127,25.650,3.984,424.497,198.010,133.371,1.960,-25.490,3.980
63,77444.325000,248.093,26.656,0.996,424.466,195.076,132.325,25.960,-56.490,23.980
64,77444.365000,251.058,24.644,-0.996,427.379,196.960,128.450,109.960,-77.490,52.980
65,77444.405000,247.104,22.633,-3.984,426.352,191.104,127.337,182.960,-93.490,72.980
66,77444.425000,252.046,20.621,-2.988,425.453,198.796,124.564,251.960,-104.490,102.980
67,77444.465000,261.931,25.650,0.000,430.124,183.159,117.362,331.960,-134.490,107.980
68,77444.505000,254.023,29.674,-11.953,431.154,190.806,111.650,160.960,-189.490,88.980
69,77444.546000,255.012,22.633,-19.922,430.214,193.709,111.713,119.960,-153.490,68.980
70,77444.586000,256.988,20.621,-8.965,434.028,188.806,107.689,103.960,-107.490,45.980
71,77444.626000,261.931,26.656,-13.946,432.141,194.526,103.890,142.960,-76.490,33.980
72,77444.667000,248.093,18.609,-24.903,434.987,189.614,99.864,112.960,-79.490,24.980
73,77444.707000,249.081,11.568,-21.914,430.216,196.363,100.004,94.960,-35.490,13.980
74,77444.727000,243.151,18.609,-25.899,433.106,195.398,99.008,46.960,-33.490,4.980
75,77444.767000,237.220,25.650,-17.930,434.069,195.365,97.048,72.960,-108.490,72.980
76,77444.807000,282.687,28.668,0.996,433.036,189.444,92.992,256.960,-170.490,133.980
77,77444.847000,273.792,64.880,-20.918,433.894,179.594,85.910,-212.040,-350.490,184.980
78,77444.882000,341.004,88.016,-26.895,434.812,175.612,80.920,-602.040,-320.490,287.980
79,77444.922000,252.046,-18.609,-146.428,439.556,167.719,72.910,-8.040,-714.490,302.980
80,77444.965000,365.714,-239.906,-431.315,452.871,151.563,38.256,-763.040,-2028.490,1082.980
81,77445.5000,327.166,-98.075,-383.502,469.773,116.005,-41.931,-19.040,-3339.490,1385.980
82,77445.45000,175.938,-33.697,-269.946,463.511,87.794,-130.830,171.960,-3552.490,1213.980
83,77445.64000,56.340,49.792,-152.405,439.026,75.002,-216.483,-47.040,-3180.490,905.980
84,77445.104000,9.884,33.697,-100.607,420.462,64.273,-255.006,-397.040,-2324.490,340.980
85,77445.144000,41.514,-15.591,-59.767,395.312,74.621,-302.882,-489.040,-1471.490,42.980
86,77445.184000,101.807,-30.680,-29.883,380.861,83.865,-317.417,-209.040,-231.490,-237.020
87,77445.225000,132.448,-53.815,53.790,384.771,88.692,-320.244,37.960,747.510,-445.020
88,77445.267000,131.459,-132.275,-203.206,404.282,101.006,-298.355,1041.960,1962.510,-864.020
89,77445.307000,400.309,-183.576,-109.572,426.551,99.626,-282.648,1807.960,1674.510,-533.020
90,77445.347000,512.988,46.774,6.973,444.068,105.189,-257.971,-230.040,1357.510,-365.020
91,77445.367000,284.664,87.010,-25.899,451.949,116.311,-241.036,144.960,1000.510,-310.020
92,77445.407000,273.792,11.568,-66.739,458.725,114.651,-231.252,787.960,734.510,-247.020
93,77445.444000,284.664,-36.715,-40.840,461.640,113.924,-221.455,-132.040,499.510,-117.020
94,77445.484000,286.641,15.591,-85.665,466.569,122.774,-218.307,304.960,294.510,-73.020
95,77445.525000,301.467,8.550,-82.677,467.494,117.972,-216.450,230.960,41.510,-32.020
96,77445.564000,299.490,-6.538,-83.673,465.503,113.013,-220.487,23.960,-150.490,-16.020
97,77445.602000,305.421,-2.515,-75.704,467.437,114.779,-229.270,-11.040,-410.490,1.980
98,77445.642000,329.143,15.591,-45.821,459.625,108.727,-236.285,1.960,-665.490,85.980
99,77445.662000,350.888,36.715,-19.922,446.023,106.287,-253.039,-360.040,-1074.490,355.980
100,77445.710000,392.402,16.597,-21.914,431.415,99.932,-270.863,-948.040,-1378.490,643.980
101,77445.744000,301.467,-11.568,-71.720,420.727,98.512,-286.607,-1007.040,-1377.490,799.980
102,77445.786000,230.301,-44.762,-159.377,412.885,89.527,-294.669,-1636.040,-1139.490,749.980
103,77445.827000,144.309,-90.028,-181.292,400.342,93.244,-296.574,-1082.040,-1019.490,890.980
104,77445.869000,78.085,36.715,-67.735,403.097,76.897,-291.047,21.960,201.510,648.980
105,77445.904000,18.780,-28.668,-66.739,420.442,64.964,-267.739,552.960,1120.510,406.980
106,77445.944000,18.780,41.745,-62.755,446.490,47.785,-221.975,1041.960,2319.510,42.980
107,77445.984000,45.467,27.662,-156.389,474.693,47.713,-149.348,578.960,2753.510,-494.020
108,77446.4000,178.903,-34.703,-209.183,491.511,70.807,-77.212,313.960,2749.510,-1108.020
109,77446.46000,257.977,-50.798,-217.152,493.006,110.212,-6.707,-195.040,2371.510,-1276.020
110,77446.86000,288.618,-515.521,-492.078,492.219,121.615,26.887,-922.040,873.510,204.980
111,77446.126000,174.950,365.642,118.537,493.026,105.120,26.523,276.960,-13.490,-394.020
112,77446.166000,473.452,-37.721,-102.599,498.895,109.319,38.396,-568.040,200.510,233.980
113,77446.210000,273.792,-4.527,-48.809,496.988,111.328,42.359,564.960,399.510,-39.020
114,77446.244000,239.197,-0.503,-51.798,492.273,122.133,50.435,198.960,390.510,-57.020
115,77446.296000,245.127,-31.686,-54.786,493.277,123.372,62.232,251.960,519.510,-36.020
116,77446.304000,236.232,-3.521,-47.813,493.271,121.560,68.076,443.960,530.510,-90.020
117,77446.347000,275.768,3.521,-21.914,491.439,129.567,80.018,250.960,508.510,-87.020
118,77446.387000,259.954,0.503,-34.864,491.471,130.753,89.851,228.960,475.510,-47.020
119,77446.429000,257.977,0.503,-25.899,488.574,129.020,100.593,-128.040,497.510,-53.020
120,77446.466000,245.127,-13.580,-16.934,485.737,133.134,112.447,-161.040,453.510,-67.020
121,77446.505000,257.977,2.515,18.926,487.694,133.369,122.263,-239.040,457.510,16.980
122,77446.549000,249.081,-26.656,15.938,486.693,128.635,128.039,-255.040,161.510,33.980
123,77446.584000,245.127,-37.721,-0.996,484.788,130.665,132.984,-190.040,69.510,-13.020
124,77446.626000,271.815,-12.574,2.988,483.811,129.685,132.960,-19.040,132.510,-8.020
125,77446.646000,244.139,-34.703,4.981,482.869,131.682,135.944,177.960,202.510,-77.020
126,77446.685000,256.000,-11.568,18.926,482.913,134.746,142.877,-33.040,198.510,-165.020
127,77446.724000,262.919,-23.639,2.988,481.013,137.704,145.881,-58.040,148.510,-207.020
128,77446.775000,250.069,-16.597,4.981,474.246,137.681,147.827,141.960,184.510,-331.020
129,77446.806000,259.954,4.527,17.930,472.471,154.167,148.189,82.960,156.510,-390.020
130,77446.849000,266.873,19.615,37.852,469.642,161.000,151.277,33.960,-10.490,-345.020
131,77446.889000,272.803,33.697,46.817,472.533,160.920,146.378,-239.040,-255.490,-218.020
132,77446.929000,282.687,54.821,11.953,469.669,165.660,142.555,-288.040,-277.490,-102.020
133,77446.949000,249.081,-29.674,-23.907,464.807,165.375,131.751,338.960,-411.490,-24.020
134,77446.989000,213.498,-20.621,0.000,469.702,174.786,116.279,664.960,-394.490,-145.020
135,77447.29000,195.707,21.627,21.914,467.844,185.188,104.738,1062.960,-85.490,-172.020
136,77447.69000,208.556,35.709,-6.973,462.042,185.153,105.706,788.960,184.510,-191.020
137,77447.106000,243.151,23.639,-19.922,457.315,195.850,108.875,-22.040,343.510,-208.020
138,77447.149000,237.220,-59.851,-10.957,458.305,196.075,118.689,-420.040,326.510,-33.020
139,77447.189000,202.625,-21.627,-9.961,459.283,195.308,127.500,-269.040,442.510,65.980
140,77447.232000,480.371,310.318,2.988,459.321,195.674,144.180,-25.040,441.510,-6.020
141,77447.269000,209.544,-12.574,12.949,459.309,193.797,147.080,403.960,261.510,136.980
142,77447.290000,246.116,-16.597,42.833,455.375,186.101,151.804,-101.040,219.510,5.980
143,77447.330000,264.896,34.703,28.887,453.508,192.015,156.835,-210.040,75.510,-41.020
144,77447.365000,256.000,-8.550,20.918,456.354,186.218,156.712,32.960,-16.490,31.980
145,77447.405000,255.012,23.639,24.903,454.464,191.032,155.834,-67.040,-42.490,-14.020
146,77447.445000,255.012,19.615,30.879,458.322,190.077,154.841,-222.040,-113.490,-4.020
147,77447.485000,248.093,20.621,23.907,457.240,179.280,149.695,-37.040,-185.490,53.980
148,77447.525000,246.116,7.544,27.891,461.121,181.195,146.804,-108.040,-316.490,149.980
149,77447.567000,257.977,12.574,5.977,464.011,181.978,137.021,150.960,-309.490,159.980
150,77447.587000,253.035,10.562,16.934,459.160,180.917,135.026,-154.040,-415.490,121.980
151,77447.625000,252.046,3.521,19.922,463.903,173.025,127.015,-50.040,-526.490,139.980
152,77447.667000,258.965,3.521,22.911,471.628,174.719,112.359,-79.040,-660.490,218.980
153,77447.706000,280.710,7.544,29.883,474.297,154.898,92.312,-88.040,-957.490,363.980
154,77447.754000,329.143,48.786,-2.988,473.200,145.720,72.492,-204.040,-972.490,395.980
155,77447.787000,302.456,27.662,-1.992,476.047,143.461,56.758,-649.040,-958.490,278.980
156,77447.827000,258.965,-48.786,-57.774,473.024,135.234,36.956,-452.040,-885.490,151.980
157,77447.867000,202.625,-86.004,-83.673,469.121,134.873,22.229,-83.040,-724.490,-41.020
158,77447.909000,170.008,-88.016,-101.603,464.200,128.742,10.315,278.960,-416.490,-106.020
159,77447.929000,120.587,-116.181,-143.440,461.318,132.425,2.545,660.960,-147.490,34.980
160,77447.974000,76.108,22.633,-139.455,464.290,138.408,8.568,310.960,314.510,-49.020
161,77448.16000,294.548,-59.851,-324.732,470.082,136.587,11.482,338.960,-62.490,183.980
162,77448.54000,353.853,-149.375,-429.323,484.391,124.215,-27.989,802.960,-1472.490,654.980
163,77448.89000,272.803,-45.768,-374.537,485.014,105.951,-108.807,-280.040,-2783.490,1152.980
164,77448.126000,152.216,54.821,-217.152,471.083,79.218,-171.212,-711.040,-3481.490,1015.980
165,77448.174000,126.517,64.880,-136.467,435.948,64.489,-252.027,-302.040,-2957.490,808.980
166,77448.205000,80.062,81.980,-39.844,404.807,56.269,-303.269,-662.040,-1680.490,336.980
167,77448.226000,96.865,-17.603,-29.883,390.385,70.195,-325.546,-588.040,-591.490,70.980
168,77448.266000,167.042,-88.016,-49.805,393.320,73.179,-323.512,289.960,744.510,-171.020
169,77448.307000,188.788,-125.234,52.794,416.486,62.337,-297.226,1925.960,1996.510,-165.020
170,77448.345000,509.035,-112.157,39.844,429.061,58.921,-281.585,1067.960,1373.510,-151.020
171,77448.390000,397.344,7.544,-41.837,452.433,70.302,-259.708,-508.040,1256.510,-379.020
172,77448.430000,323.212,65.886,-97.619,465.102,74.825,-236.045,143.960,1193.510,-299.020
173,77448.467000,295.537,-61.862,-17.930,475.796,76.310,-217.357,411.960,1013.510,-357.020
174,77448.506000,267.861,-18.609,-41.837,483.595,79.600,-203.539,-282.040,627.510,-299.020
175,77448.549000,294.548,24.644,-75.704,484.637,85.607,-195.558,270.960,332.510,-157.020
176,77448.567000,289.606,-2.515,-81.681,492.407,89.501,-198.397,399.960,131.510,-64.020
177,77448.609000,295.537,-23.639,-74.708,486.581,86.597,-195.532,148.960,-65.490,-10.020
178,77448.650000,289.606,-21.627,-92.638,486.568,86.467,-201.418,113.960,-234.490,-4.020
179,77448.686000,291.583,-17.603,-91.642,480.726,83.412,-205.421,-25.040,-327.490,-40.020
180,77448.730000,281.699,-15.591,-57.774,474.011,90.940,-213.114,-208.040,-485.490,-0.020
181,77448.770000,298.502,10.562,-16.934,467.203,89.644,-224.925,-452.040,-894.490,255.980
182,77448.807000,368.680,67.898,-10.957,458.399,83.346,-242.735,-747.040,-1254.490,567.980
183,77448.847000,383.506,14.585,-14.942,440.919,80.782,-263.423,-1121.040,-1555.490,730.980
184,77448.866000,256.000,-55.827,-177.307,429.219,75.404,-282.199,-935.040,-1264.490,807.980
185,77448.906000,130.471,-71.921,-147.424,409.717,62.293,-296.261,-798.040,-1335.490,985.980
186,77448.950000,131.459,-59.851,-78.693,404.802,54.457,-297.425,-782.040,-203.490,750.980
187,77448.987000,40.525,36.715,-67.735,418.445,59.939,-274.720,-795.040,634.510,348.980
188,77449.27000,3.954,-12.574,-82.677,442.622,51.286,-237.596,182.960,1775.510,55.980
189,77449.70000,20.757,-3.521,-134.475,465.956,49.980,-174.813,849.960,2490.510,-247.020
190,77449.107000,70.178,-42.750,-209.183,481.534,51.080,-131.607,1470.960,2652.510,-719.020
191,77449.149000,195.707,-2.515,-181.292,494.457,73.014,-66.369,809.960,2293.510,-1206.020
192,77449.186000,260.942,-250.971,-353.619,493.972,111.084,-11.589,-457.040,1820.510,-1398.020
193,77449.207000,512.988,-515.521,-492.078,498.808,109.362,-3.772,2066.960,-560.490,1048.980
194,77449.247000,-23.722,128.251,-133.479,505.617,111.542,4.136,-767.040,211.510,-342.020
195,77449.287000,308.386,1.509,-63.751,504.700,114.661,14.010,176.960,359.510,-88.020
196,77449.335000,248.093,20.621,-94.630,504.751,116.905,27.790,2.960,546.510,48.980
197,77449.370000,255.012,-35.709,-46.817,503.799,117.047,34.655,175.960,670.510,31.980
198,77449.406000,225.359,-25.650,-46.817,505.786,119.331,49.420,195.960,642.510,-40.020
199,77449.447000,249.081,-17.603,-40.840,506.717,112.824,62.026,10.960,612.510,-28.020
200,77449.487000,248.093,-7.544,-44.825,501.961,117.955,76.840,20.960,580.510,-42.020
201,77449.506000,261.931,-22.633,-7.969,502.993,122.107,88.702,17.960,590.510,-30.020
202,77449.549000,264.896,-3.521,0.000,502.057,122.399,102.436,-103.040,509.510,7.980
203,77449.586000,283.676,20.621,-5.977,496.235,119.538,107.264,-279.040,414.510,55.980
204,77449.627000,231.290,-27.662,0.996,501.071,116.932,118.984,-428.040,286.510,35.980
205,77449.669000,246.116,-49.792,2.988,502.007,112.238,125.746,-495.040,325.510,-29.020
206,77449.709000,264.896,-37.721,8.965,498.179,114.357,135.592,-69.040,424.510,-185.020
207,77449.749000,253.035,-24.644,17.930,490.556,124.206,145.601,-35.040,389.510,-283.020
208,77449.791000,255.012,-13.580,14.942,486.728,127.211,151.544,-263.040,340.510,-395.020
209,77449.829000,255.012,-15.591,18.926,483.919,134.237,163.462,-265.040,347.510,-467.020
210,77449.847000,257.977,-2.515,31.875,479.164,142.022,166.566,-87.040,259.510,-476.020
211,77449.890000,283.676,38.727,48.809,475.357,147.874,169.630,-82.040,87.510,-436.020
212,77449.927000,260.942,52.809,18.926,470.640,160.426,168.918,-345.040,-187.490,-320.020
213,77449.970000,267.861,-9.556,14.942,467.765,165.058,160.189,172.960,-342.490,-222.020
214,77450.7000,253.035,-4.527,19.922,468.742,170.440,139.717,995.960,-390.490,-222.020
215,77450.47000,260.942,-32.692,25.899,467.842,180.765,124.253,1109.960,-363.490,-30.020
216,77450.89000,205.591,56.833,18.926,464.039,190.177,112.686,407.960,-375.490,-147.020
217,77450.131000,203.614,44.762,7.969,468.860,189.189,109.733,159.960,-9.490,-101.020
218,77450.150000,223.382,-0.503,-19.922,466.057,198.912,111.904,315.960,179.510,-10.020
219,77450.187000,222.394,-113.163,-1.992,467.991,198.046,115.811,239.960,192.510,300.980
220,77450.230000,184.834,46.774,-11.953,475.575,181.660,117.425,271.960,111.510,338.980
221,77450.267000,237.220,-59.851,-7.969,477.486,177.925,123.230,-691.040,35.510,402.980
222,77450.310000,330.131,25.650,29.883,484.184,168.477,131.860,-92.040,288.510,259.980
223,77450.347000,305.421,18.609,-2.988,484.207,170.461,133.866,24.960,123.510,127.980
224,77450.390000,240.185,0.503,19.922,484.162,164.744,138.642,-135.040,126.510,90.980
225,77450.427000,261.931,3.521,20.918,485.117,162.876,141.545,-233.040,92.510,54.980
226,77450.470000,260.942,2.515,16.934,481.158,153.173,143.282,-260.040,5.510,37.980
227,77450.489000,250.069,-4.527,16.934,475.367,154.131,145.253,-255.040,-28.490,-11.020
228,77450.529000,250.069,-11.568,11.953,482.129,153.226,145.247,-280.040,-0.490,-82.020
229,77450.571000,254.023,-5.532,1.992,484.144,161.055,147.386,-202.040,58.510,-123.020
230,77450.611000,248.093,-12.574,14.942,481.254,162.019,148.382,-172.040,116.510,-192.020
231,77450.649000,254.023,10.562,20.918,480.251,158.148,149.275,-213.040,105.510,-220.020
232,77450.690000,252.046,8.550,28.887,475.493,165.026,155.301,-188.040,6.510,-198.020
233,77450.736000,252.046,20.621,54.786,478.459,171.829,154.478,-181.040,-162.490,-152.020
234,77450.770000,254.023,9.556,48.809,478.434,170.707,147.588,60.960,-347.490,2.980
235,77450.791000,258.965,12.574,43.829,484.169,166.578,133.780,224.960,-589.490,113.980
236,77450.832000,289.606,45.768,31.875,486.057,166.144,113.180,6.960,-805.490,239.980
237,77450.871000,280.710,26.656,34.864,485.879,150.351,101.061,-765.040,-988.490,285.980
238,77450.907000,241.174,-90.028,27.891,490.640,145.264,88.210,-106.040,-640.490,319.980
239,77450.951000,171.985,-67.898,-103.595,486.746,144.989,77.408,957.960,-453.490,95.980
240,77450.991000,107.737,17.603,-92.638,487.683,142.064,76.364,-467.040,-49.490,-221.020
241,77451.36000,446.764,9.556,-272.934,485.819,146.252,91.163,-174.040,271.510,-2.020
242,77451.69000,259.954,191.623,-115.549,491.619,150.667,68.718,641.960,-497.490,79.980
243,77451.110000,431.938,-160.440,-394.459,502.952,130.521,30.049,505.960,-2571.490,971.980
244,77451.129000,326.178,25.650,-342.661,503.452,102.268,-63.740,859.960,-3588.490,1177.980
245,77451.171000,167.042,113.163,-136.467,478.817,77.481,-165.350,574.960,-3734.490,1058.980
246,77451.209000,11.861,126.240,-68.732,439.756,56.889,-246.303,65.960,-2964.490,548.980
247,77451.250000,2.965,25.650,-26.895,404.919,66.150,-295.204,-432.040,-2101.490,79.980
248,77451.292000,67.212,-61.862,-28.887,388.567,80.985,-319.426,-624.040,-714.490,-120.020
249,77451.332000,118.610,-61.862,9.961,388.751,100.359,-320.957,-741.040,373.510,-380.020
250,77451.372000,250.069,-272.094,-57.774,400.400,102.608,-312.057,2306.960,1509.510,-217.020
251,77451.409000,333.097,-93.045,-156.389,423.383,75.046,-295.949,2444.960,1479.510,-417.020
252,77451.431000,339.027,13.580,-78.693,439.811,68.863,-275.457,-178.040,1246.510,-297.020
253,77451.470000,317.282,53.815,-51.798,452.614,87.885,-254.414,-230.040,1089.510,-265.020
254,77451.511000,308.386,-51.804,-17.930,462.355,91.259,-237.648,423.960,896.510,-255.020
255,77451.549000,275.768,-0.503,-78.693,468.208,94.422,-228.739,-284.040,422.510,-237.020
256,77451.589000,280.710,-0.503,-112.560,471.157,98.420,-224.722,224.960,320.510,-216.020
257,77451.631000,278.734,-38.727,-70.724,472.118,97.480,-223.760,225.960,198.510,-159.020
258,77451.670000,269.838,1.509,-109.572,474.038,95.600,-221.836,73.960,72.510,-151.020
259,77451.710000,281.699,-16.597,-86.661,471.218,104.288,-222.630,127.960,-44.490,-108.020
260,77451.749000,284.664,-4.527,-70.724,470.254,105.185,-225.554,-40.040,-249.490,-85.020
261,77451.772000,297.514,0.503,-59.767,465.375,102.096,-231.517,-97.040,-603.490,39.980
262,77451.809000,327.166,18.609,-54.786,452.734,98.715,-247.309,-262.040,-814.490,162.980
263,77451.850000,344.958,18.609,-36.856,444.023,100.357,-257.098,-767.040,-1059.490,481.980
264,77451.905000,364.726,-13.580,-41.837,432.366,98.906,-273.826,-1105.040,-1298.490,789.980
265,77451.930000,292.571,-29.674,-82.677,420.643,89.775,-286.802,-993.040,-1205.490,1014.980
266,77451.969000,223.382,-110.145,-193.245,408.905,78.745,-297.858,-1080.040,-1129.490,1128.980
267,77452.9000,152.216,-30.680,-118.537,404.891,64.122,-299.172,-1043.040,-721.490,858.980
268,77452.52000,65.236,-19.615,-73.712,406.738,52.728,-288.634,105.960,321.510,619.980
269,77452.75000,40.525,17.603,-81.681,433.207,36.489,-509.587,778.960,1211.510,439.980
270,77452.112000,26.687,63.874,-61.759,446.295,28.303,-225.350,436.960,2100.510,-179.020
271,77452.149000,59.305,50.798,-112.560,476.502,37.722,-163.295,289.960,2570.510,-778.020
272,77452.189000,116.633,-35.709,-177.307,498.123,57.885,-94.156,266.960,2713.510,-1228.020
273,77452.229000,246.116,-47.780,-224.125,501.482,91.354,-29.663,-179.040,2417.510,-1272.020
274,77452.271000,250.069,-515.521,-492.078,502.736,109.961,21.747,-693.040,1772.510,-650.020
275,77452.314000,234.255,261.029,104.591,506.604,110.861,16.872,1297.960,-307.490,-85.020
276,77452.352000,476.417,-20.621,-31.875,508.616,116.900,25.836,-532.040,399.510,-57.020
277,77452.392000,350.888,-13.580,-25.899,511.616,124.026,39.730,95.960,606.510,-65.020
278,77452.412000,236.232,27.662,-69.728,508.695,119.424,52.370,-163.040,642.510,-159.020
279,77452.450000,256.000,-28.668,-25.899,510.741,126.670,72.149,126.960,788.510,-91.020
280,77452.490000,283.676,18.609,9.961,504.970,126.937,86.852,108.960,662.510,-68.020
281,77452.535000,270.826,1.509,-6.973,505.028,131.015,95.769,195.960,452.510,-15.020
282,77452.570000,242.162,-2.515,-15.938,503.066,125.451,108.390,104.960,448.510,2.980
283,77452.610000,258.965,-16.597,-3.984,505.001,124.585,112.297,-253.040,538.510,-88.020
284,77452.651000,254.023,-22.633,11.953,498.311,129.719,128.088,-93.040,523.510,-119.020
285,77452.690000,260.942,13.580,3.984,494.509,133.845,140.920,-76.040,472.510,-115.020
286,77452.714000,250.069,-16.597,38.848,493.609,139.768,145.953,-396.040,308.510,-87.020
287,77452.750000,244.139,-5.532,21.914,493.504,127.320,153.522,-487.040,149.510,-69.020
288,77452.790000,251.058,-19.615,19.922,487.709,127.349,157.433,-228.040,163.510,-79.020
289,77452.830000,249.081,-24.644,30.879,487.768,133.196,158.543,94.960,227.510,-115.020
290,77452.870000,261.931,-3.521,26.895,484.935,139.122,164.553,-69.040,206.510,-196.020
291,77452.911000,253.035,-13.580,28.887,482.993,137.270,169.411,-52.040,183.510,-240.020
292,77452.951000,256.000,0.503,35.860,479.252,149.918,172.626,54.960,186.510,-301.020
293,77452.991000,258.965,8.550,36.856,478.339,154.828,175.675,125.960,139.510,-335.020
294,77453.11000,282.687,46.774,45.821,471.687,167.361,174.958,-49.040,-23.490,-317.020
295,77453.51000,263.907,64.880,30.879,473.634,169.257,172.063,-323.040,-251.490,-235.020
296,77453.90000,267.861,-0.503,28.887,472.698,173.066,169.203,-59.040,-378.490,-216.020
297,77453.131000,249.081,-23.639,15.938,471.796,184.254,148.856,1185.960,-456.490,-223.020
298,77453.171000,239.197,-30.680,19.922,471.785,188.548,123.454,1758.960,-405.490,37.980
299,77453.211000,191.753,70.916,4.981,469.887,195.929,106.942,614.960,-363.490,-55.020
300,77453.250000,190.764,52.809,0.000,471.907,205.571,103.238,83.960,-197.490,-150.020
301,77453.290000,224.371,20.621,-4.981,470.022,210.428,104.323,202.960,119.510,-116.020
302,77453.330000,204.602,-44.762,-7.969,471.987,213.381,105.373,586.960,216.510,50.980
303,77453.351000,256.000,-37.721,52.794,474.855,210.432,102.371,523.960,162.510,282.980
304,77453.391000,441.822,417.949,-57.774,476.696,198.110,114.850,640.960,650.510,417.980
305,77453.431000,328.154,-94.051,-35.860,477.649,195.336,120.675,-1169.040,-177.490,193.980
306,77453.471000,218.440,22.633,26.895,478.576,191.440,119.610,391.960,196.510,110.980
307,77453.511000,256.988,45.768,22.911,476.721,199.231,121.740,452.960,174.510,15.980
308,77453.552000,260.942,14.585,16.934,482.488,194.520,125.570,-326.040,2.510,-25.020
309,77453.592000,257.977,16.597,14.942,477.622,191.560,125.494,119.960,89.510,-29.020
310,77453.635000,255.012,5.532,25.899,476.685,194.485,126.538,-261.040,54.510,-79.020
311,77453.657000,244.139,16.597,28.887,476.730,198.433,129.568,-113.040,11.510,-77.020
312,77453.695000,248.093,6.538,24.903,476.754,201.303,127.670,-10.040,-56.490,-58.020
313,77453.731000,246.116,14.585,23.907,478.648,197.416,126.607,-7.040,-87.490,-66.020
314,77453.775000,244.139,27.662,33.868,476.707,197.333,123.659,-56.040,-220.490,-45.020
315,77453.815000,251.058,36.715,38.848,479.580,197.081,110.911,-224.040,-527.490,27.980
316,77453.855000,245.127,41.745,67.735,484.374,194.949,100.087,-193.040,-860.490,152.980
317,77453.895000,315.305,51.804,26.895,492.961,187.720,76.408,-288.040,-1271.490,475.980
318,77453.935000,362.749,98.075,37.852,497.624,174.650,53.573,-634.040,-1365.490,559.980
319,77453.974000,298.502,20.621,36.856,497.407,157.606,28.677,-1150.040,-1306.490,420.980
320,77453.992000,264.896,-96.063,-38.848,492.522,155.337,15.868,145.960,-746.490,201.980
321,77454.32000,174.950,-139.316,-81.681,488.524,146.151,-2.977,772.960,-578.490,314.980
322,77454.80000,15.815,29.674,-50.802,487.519,142.258,-3.065,244.960,161.510,42.980
323,77454.111000,74.131,76.951,1.992,485.725,151.517,21.653,-350.040,1020.510,-630.020
324,77454.151000,457.637,-270.083,-492.078,480.103,158.493,76.713,-1074.040,1885.510,-51.020
325,77454.192000,38.548,225.823,6.973,477.229,161.377,76.771,110.960,-38.490,-378.020
326,77454.234000,512.988,-8.550,-151.409,490.705,158.209,59.077,-448.040,-856.490,401.980
327,77454.272000,396.355,-53.815,-361.588,499.048,132.792,2.633,-731.040,-2252.490,887.980
328,77454.291000,239.197,2.515,-251.019,490.860,104.649,-82.346,-695.040,-3248.490,953.980
329,77454.335000,124.541,40.739,-157.385,480.995,97.435,-141.366,235.960,-3159.490,751.980
330,77454.374000,53.375,43.756,-99.611,455.491,77.104,-216.402,103.960,-2599.490,418.980
331,77454.412000,60.293,-37.721,-78.693,417.630,74.601,-269.493,-170.040,-2017.490,179.980
332,77454.474000,80.062,-65.886,-77.696,405.052,81.512,-302.708,157.960,-1021.490,68.980
333,77454.492000,133.436,-57.839,-18.926,395.383,84.114,-312.478,417.960,-171.490,-180.020
334,77454.532000,151.228,-172.511,25.899,406.884,71.736,-306.844,750.960,897.510,-323.020
335,77454.574000,311.351,-172.511,-373.541,419.530,76.044,-292.993,137.960,1182.510,-644.020
336,77454.612000,272.803,49.792,-110.568,435.962,70.789,-274.442,1260.960,1551.510,-454.020
337,77454.632000,362.749,49.792,-47.813,451.540,76.290,-251.732,488.960,1159.510,-298.020
338,77454.680000,294.548,-53.815,-38.848,463.242,82.573,-235.877,99.960,853.510,-283.020
339,77454.715000,293.560,-48.786,-32.872,471.036,84.936,-220.118,-119.040,598.510,-354.020
340,77454.754000,296.525,26.656,-74.708,470.136,89.975,-211.182,0.960,468.510,-256.020
341,77454.796000,303.444,52.809,-93.634,474.063,95.838,-211.043,181.960,158.510,-105.020
342,77454.832000,306.409,-13.580,-65.743,470.226,98.756,-209.025,86.960,-80.490,-29.020
343,77454.875000,292.571,-17.603,-75.704,471.161,96.694,-214.953,32.960,-301.490,-32.020
344,77454.915000,283.676,-1.509,-59.767,465.336,96.443,-223.797,8.960,-560.490,-19.020
345,77454.935000,315.305,11.568,-28.887,456.551,92.087,-241.564,-138.040,-806.490,119.980
346,77454.975000,337.050,24.644,-19.922,441.966,88.601,-261.285,-534.040,-1221.490,494.980
347,77455.14000,390.425,4.527,-9.961,425.423,83.112,-283.017,-983.040,-1552.490,750.980
348,77455.52000,335.073,-36.715,-81.681,414.697,76.924,-294.945,-525.040,-1258.490,938.980
349,77455.92000,218.440,-124.228,-214.163,407.788,65.855,-309.915,-685.040,-1329.490,1007.980
350,77455.137000,133.436,-22.633,-77.696,396.946,46.226,-315.277,-454.040,-343.490,753.980
351,77455.172000,22.734,6.538,-64.747,404.658,39.872,-298.730,-36.040,588.510,416.980
352,77455.212000,3.954,22.633,-60.763,429.826,34.098,-263.501,674.960,1577.510,-87.020
353,77455.236000,-1.977,25.650,-67.735,460.926,35.759,-201.617,790.960,2644.510,-560.020
354,77455.272000,24.710,14.585,-156.389,491.173,46.428,-126.787,820.960,3015.510,-1068.020
355,77455.312000,145.297,-25.650,-183.284,502.235,77.858,-70.168,267.960,2986.510,-1620.020
356,77455.354000,391.413,-515.521,-492.078,505.612,110.615,6.077,-1024.040,2673.510,-1528.020
357,77455.397000,274.780,326.413,119.533,508.507,108.809,10.947,798.960,-286.490,-242.020
358,77455.435000,512.988,-74.939,-94.630,511.499,114.102,29.703,-1225.040,529.510,155.980
359,77455.480000,249.081,30.680,-31.875,512.510,117.175,36.638,644.960,679.510,-25.020
360,77455.517000,255.012,53.815,-51.798,506.706,113.601,53.218,-53.040,584.510,-52.020
361,77455.561000,252.046,-43.756,-16.934,512.528,112.946,64.983,17.960,579.510,55.980
362,77455.577000,270.826,-9.556,8.965,508.747,119.920,74.937,-69.040,408.510,42.980
363,77455.612000,256.000,-45.768,0.000,507.720,112.294,81.630,-8.040,330.510,44.980
364,77455.652000,246.116,-16.597,-26.895,510.690,117.371,90.575,82.960,290.510,-30.020
365,77455.695000,242.162,-28.668,-41.837,504.889,116.473,96.427,-59.040,384.510,-108.020
366,77455.736000,266.873,-7.544,9.961,504.975,122.579,109.311,-89.040,527.510,-226.020
367,77455.776000,281.699,-1.509,15.938,497.248,121.748,119.083,-39.040,474.510,-208.020
368,77455.815000,239.197,-0.503,38.848,495.419,130.661,128.103,-120.040,284.510,-39.020
369,77455.856000,248.093,-0.503,27.891,500.261,131.636,126.173,-220.040,18.510,85.980
370,77455.872000,251.058,-17.603,-0.996,499.217,122.975,129.901,-361.040,-70.490,83.980
371,77455.912000,243.151,-44.762,-8.965,498.167,114.249,130.686,-318.040,41.510,44.980
372,77455.959000,255.012,-20.621,5.977,498.276,124.972,132.886,61.960,182.510,-107.020
373,77455.992000,260.942,-7.544,14.942,497.341,127.034,138.814,-30.040,194.510,-178.020
374,77456.32000,259.954,-9.556,16.934,495.422,128.051,141.774,-127.040,169.510,-225.020
375,77456.72000,253.035,-31.686,14.942,494.537,135.873,144.888,48.960,172.510,-311.020
376,77456.114000,260.942,-2.515,22.911,487.795,138.741,145.918,242.960,170.510,-381.020
377,77456.154000,270.826,23.639,44.825,484.050,151.346,147.170,371.960,-8.490,-312.020
378,77456.194000,286.641,38.727,40.840,481.231,161.803,138.571,9.960,-178.490,-181.020
379,77456.214000,276.757,8.550,17.930,481.302,169.527,136.781,173.960,-75.490,-158.020
380,77456.254000,219.429,-24.644,-36.856,475.409,162.459,126.805,535.960,-268.490,-101.020
381,77456.296000,211.521,-22.633,-47.813,479.374,173.974,119.224,295.960,-473.490,16.980
382,77456.336000,202.625,13.580,-10.957,481.221,168.750,101.460,457.960,-474.490,32.980
383,77456.376000,197.683,4.527,-4.981,484.160,175.294,88.863,541.960,-381.490,99.980
384,77456.416000,192.741,25.650,5.977,479.279,172.184,81.919,-15.040,-220.490,26.980
385,77456.456000,182.857,89.022,-59.767,487.974,171.276,80.936,612.960,18.510,183.980
386,77456.501000,267.861,13.580,-36.856,492.741,163.599,82.737,-260.040,-2.490,215.980
387,77456.516000,479.382,120.204,49.805,493.763,165.896,98.481,181.960,485.510,93.980
388,77456.557000,299.490,-19.615,-37.852,492.756,161.981,97.411,435.960,231.510,-6.020
389,77456.596000,222.394,15.591,7.969,492.852,170.827,102.511,-29.040,339.510,-168.020
390,77456.637000,272.803,19.615,5.977,487.101,175.689,105.549,127.960,311.510,-169.020
391,77456.677000,254.023,3.521,17.930,486.168,176.888,116.361,112.960,280.510,-189.020
392,77456.717000,256.988,25.650,5.977,478.468,179.833,121.313,-27.040,277.510,-267.020
393,77456.760000,240.185,20.621,26.895,475.682,190.614,127.431,-156.040,244.510,-275.020
394,77456.795000,234.255,10.562,39.844,476.659,190.709,131.357,-248.040,76.510,-209.020
395,77456.835000,242.162,12.574,30.879,470.904,195.529,132.433,-94.040,-158.490,-125.020
396,77456.856000,239.197,24.644,34.864,476.714,198.282,122.700,-124.040,-351.490,-71.020
397,77456.897000,248.093,43.756,41.837,480.491,191.265,110.784,-236.040,-751.490,44.980
398,77456.939000,243.151,56.833,89.650,483.330,189.805,87.222,-300.040,-1307.490,246.980
399,77456.979000,352.865,53.815,-7.969,492.718,166.901,56.332,-395.040,-1516.490,731.980
400,77457.24000,315.305,48.786,6.973,497.430,159.591,30.683,-923.040,-1402.490,446.980
401,77457.57000,241.174,-116.181,-40.840,497.337,152.536,18.758,52.960,-862.490,382.980
402,77457.99000,255.012,-113.163,-46.817,494.244,137.470,-3.157,613.960,-814.490,435.980
403,77457.139000,137.390,-17.603,-7.969,489.346,132.439,-9.163,240.960,-331.490,240.980
404,77457.159000,59.305,13.580,19.922,489.467,140.638,10.632,-126.040,769.510,-268.020
405,77457.199000,137.390,53.815,-5.977,480.037,156.098,56.066,-120.040,1780.510,-647.020
406,77457.239000,472.463,-295.230,-416.374,458.971,165.901,114.098,-511.040,2090.510,-457.020
407,77457.274000,333.097,158.428,-184.280,464.726,160.197,116.926,-2030.040,-519.490,88.980
408,77457.314000,432.927,-134.287,-344.654,478.934,135.420,86.986,-473.040,-2245.490,1173.980
409,77457.357000,352.865,90.028,-376.529,493.113,119.165,3.299,1745.960,-3100.490,933.980
410,77457.396000,202.625,81.980,-223.128,491.690,93.655,-97.298,339.960,-3563.490,748.980
411,77457.436000,98.842,110.145,-148.420,464.294,80.749,-186.882,9.960,-3308.490,397.980
412,77457.476000,21.745,60.857,-101.603,427.371,78.859,-256.629,-143.040,-2714.490,-0.020
413,77457.496000,63.259,-30.680,-91.642,398.459,99.008,-298.411,-388.040,-1596.490,-216.020
414,77457.535000,126.517,-80.974,-78.693,390.667,96.667,-313.190,-209.040,-755.490,-208.020
415,77457.579000,128.494,-114.169,-112.560,384.020,111.013,-319.750,295.960,442.510,-258.020
416,77457.620000,159.135,-145.352,98.615,401.355,100.740,-309.154,1730.960,1603.510,-306.020
417,77457.657000,367.691,-257.006,-325.728,421.578,87.713,-292.729,1836.960,1507.510,-318.020
418,77457.700000,425.019,82.986,-20.918,439.107,94.269,-267.050,230.960,1469.510,-489.020
419,77457.735000,331.120,63.874,-3.984,456.669,104.665,-243.246,-144.040,1133.510,-242.020
420,77457.777000,294.548,-22.633,-36.856,463.446,102.142,-228.578,298.960,807.510,-179.020
421,77457.797000,303.444,-13.580,-50.802,469.337,109.188,-219.583,-195.040,451.510,-120.020
422,77457.835000,294.548,33.697,-88.654,469.377,112.209,-214.613,112.960,275.510,-32.020
423,77457.875000,294.548,16.597,-73.712,467.390,106.408,-212.784,225.960,43.510,19.980
424,77457.919000,283.676,-15.591,-75.704,467.388,107.271,-217.668,177.960,-216.490,46.980
425,77457.956000,283.676,-21.627,-80.685,462.476,101.226,-225.658,23.960,-345.490,16.980
426,77457.999000,265.884,-4.527,-61.759,455.743,106.813,-233.394,-210.040,-565.490,69.980
427,77458.37000,316.293,21.627,-31.875,453.814,109.491,-243.145,-356.040,-821.490,218.980
428,77458.75000,369.668,50.798,-22.911,441.088,97.373,-259.131,-836.040,-1260.490,560.980
429,77458.117000,354.842,-18.609,-41.837,427.480,94.868,-278.829,-996.040,-1489.490,815.980
430,77458.137000,312.340,1.509,-89.650,413.839,88.522,-296.650,-809.040,-1165.490,832.980
431,77458.175000,226.347,-98.075,-223.128,399.258,84.195,-310.506,-859.040,-1296.490,743.980
432,77458.221000,138.378,-58.845,-77.696,394.277,69.564,-311.822,-594.040,-639.490,550.980
433,77458.257000,28.664,20.621,-33.868,410.608,53.651,-292.528,451.960,882.510,344.980
434,77458.295000,32.618,-20.621,-87.658,425.114,47.578,-266.154,574.960,1702.510,96.980
435,77458.336000,36.571,23.639,-88.654,457.175,49.184,-207.211,213.960,2578.510,-464.020
436,77458.375000,89.946,16.597,-187.268,489.442,69.494,-136.085,227.960,2978.510,-809.020
437,77458.419000,147.274,-21.627,-201.214,501.488,98.452,-59.906,-156.040,2799.510,-1337.020
438,77458.437000,301.467,-212.747,-317.759,502.841,122.409,14.178,-1090.040,2404.510,-1192.020
439,77458.476000,429.961,235.882,47.813,503.750,117.457,9.167,1181.960,-82.490,-232.020
440,77458.516000,408.216,-68.904,-170.335,512.427,111.975,20.832,-1336.040,256.510,324.980
441,77458.556000,293.560,0.503,-4.981,507.613,113.913,22.826,501.960,282.510,68.980
442,77458.596000,228.324,28.668,-83.673,508.594,113.167,32.618,27.960,391.510,94.980
443,77458.640000,248.093,-44.762,-40.840,508.555,106.630,44.241,-208.040,471.510,152.980
444,77458.679000,221.405,-37.721,-56.778,509.538,105.906,55.014,200.960,473.510,69.980
445,77458.716000,252.046,-27.662,-22.911,508.661,113.814,62.052,56.960,414.510,39.980
446,77458.755000,262.919,-10.562,-27.891,511.574,112.181,74.771,102.960,360.510,0.980
447,77458.776000,260.942,-10.562,-23.907,508.650,108.420,81.546,65.960,410.510,-11.020
448,77458.816000,243.151,-24.644,-31.875,507.743,113.395,87.538,61.960,409.510,-43.020
449,77458.856000,262.919,9.556,-6.973,507.754,112.618,96.347,127.960,344.510,47.980
450,77458.896000,262.919,-9.556,-9.961,510.630,108.871,101.173,-222.040,161.510,142.980
451,77458.941000,243.151,-42.750,-8.965,511.587,107.025,105.057,-279.040,179.510,84.980
452,77458.979000,261.931,-37.721,0.996,508.715,109.046,109.999,-137.040,259.510,-43.020
453,77459.19000,261.931,-42.750,-2.988,505.767,102.416,118.672,203.960,368.510,-208.020
454,77459.59000,255.012,-29.674,-1.992,504.012,119.096,127.864,234.960,460.510,-333.020
455,77459.76000,257.977,-13.580,1.992,493.363,116.273,136.605,-102.040,507.510,-467.020
456,77459.119000,256.988,-9.556,15.938,487.726,131.039,148.689,-147.040,542.510,-531.020
457,77459.160000,263.907,9.556,37.852,480.217,152.538,158.957,-94.040,476.510,-591.020
458,77459.197000,257.977,10.562,39.844,476.417,158.455,164.964,-280.040,282.510,-586.020
459,77459.240000,260.942,36.715,54.786,472.544,156.626,171.780,-480.040,-97.490,-395.020
460,77459.277000,245.127,9.556,45.821,469.791,173.880,163.331,-24.040,-161.490,-244.020
461,77459.322000,248.093,6.538,48.809,469.850,180.611,160.539,734.960,-247.490,-43.020
462,77459.357000,242.162,14.585,25.899,473.722,184.187,144.936,795.960,-296.490,107.980
463,77459.397000,210.533,79.969,18.926,474.724,189.806,135.256,728.960,-328.490,-15.020
464,77459.417000,232.278,16.597,22.911,469.836,186.631,125.368,731.960,-81.490,-132.020
465,77459.456000,242.162,2.515,21.914,464.158,200.123,123.695,1006.960,107.510,-41.020
466,77459.499000,230.301,-31.686,39.844,469.999,204.041,122.813,552.960,301.510,110.980
467,77459.537000,214.486,-53.815,-17.930,469.965,200.201,124.689,-286.040,175.510,392.980
468,77459.592000,399.320,161.446,-29.883,470.915,195.637,137.339,-750.040,-20.490,-167.020
469,77459.616000,216.463,-6.538,14.942,473.744,188.804,134.251,652.960,72.510,245.980
470,77459.659000,247.104,40.739,23.907,472.787,190.650,130.367,536.960,91.510,158.980
471,77459.696000,263.907,25.650,16.934,475.738,194.670,135.366,-348.040,-99.490,85.980
472,77459.720000,266.873,11.568,15.938,475.679,188.823,134.255,-185.040,-159.490,94.980
473,77459.757000,251.058,17.603,27.891,479.439,178.116,131.084,-85.040,-208.490,87.980
474,77459.796000,256.988,1.509,19.922,478.484,180.869,124.278,-267.040,-210.490,47.980
475,77459.840000,248.093,-0.503,5.977,481.349,177.898,120.296,-38.040,-207.490,39.980
476,77459.877000,248.093,4.527,4.981,478.480,181.710,118.413,-1.040,-176.490,-8.020
477,77459.916000,249.081,7.544,24.903,482.359,183.603,114.540,-67.040,-287.490,-7.020
478,77459.959000,254.023,27.662,19.922,484.185,174.647,103.558,-144.040,-443.490,34.980
479,77459.996000,259.954,32.692,26.895,483.155,170.517,92.677,-340.040,-745.490,170.980
480,77460.36000,302.456,37.721,41.837,490.790,163.430,75.865,-558.040,-1076.490,377.980
481,77460.60000,355.830,83.992,25.899,494.520,152.443,59.938,-1462.040,-1259.490,410.980
482,77460.97000,294.548,-15.591,-19.922,496.342,145.213,39.187,-1053.040,-1174.490,219.980
483,77460.141000,214.486,-116.181,-85.665,488.540,141.901,24.388,43.960,-698.490,107.980
484,77460.179000,164.077,-91.033,-91.642,481.613,130.659,1.568,764.960,-714.490,177.980
485,77460.221000,42.502,-64.880,-130.490,476.713,126.491,-9.322,446.960,-436.490,156.980
486,77460.259000,4.942,11.568,-66.739,478.727,132.551,0.623,-109.040,277.510,-286.020
487,77460.297000,92.911,15.591,-45.821,479.881,148.440,16.669,428.960,1247.510,-593.020
488,77460.337000,414.147,-203.694,-491.082,483.952,161.853,51.299,258.960,812.510,67.980
489,77460.361000,334.085,257.006,90.646,485.837,155.227,58.020,-585.040,193.510,-209.020
490,77460.401000,374.610,3.521,-208.187,484.803,148.422,57.867,-563.040,-527.490,402.980
491,77460.440000,314.317,-78.963,-368.560,497.121,131.091,14.359,-1041.040,-1893.490,680.980
492,77460.477000,203.614,12.574,-292.856,491.986,117.624,-66.365,-336.040,-3031.490,517.980
493,77460.517000,156.170,44.762,-245.043,475.313,111.769,-148.906,508.960,-3090.490,324.980
494,77460.560000,74.131,48.786,-157.385,456.763,105.571,-202.038,577.960,-2787.490,148.980
495,77460.600000,46.456,-22.633,-129.494,421.787,103.808,-266.874,142.960,-2192.490,-7.020
496,77460.640000,87.969,-51.804,-95.626,391.763,108.478,-306.061,136.960,-1551.490,30.980
497,77460.680000,127.506,-27.662,-15.938,377.242,111.767,-326.612,74.960,-444.490,-109.020
498,77460.701000,72.154,-32.692,-31.875,383.086,114.844,-321.628,103.960,719.510,-330.020
499,77460.739000,254.023,17.603,-301.821,398.518,106.624,-305.107,2016.960,1712.510,-320.020
500,77460.777000,403.274,-188.605,-123.518,425.574,99.530,-286.575,2031.960,1920.510,-356.020
501,77460.820000,448.741,162.452,-22.911,436.259,100.044,-267.908,-217.040,1358.510,-294.020
502,77460.870000,283.676,41.745,-18.926,448.946,106.509,-244.202,-326.040,962.510,-219.020
503,77460.897000,301.467,-80.974,-21.914,454.862,115.563,-232.221,288.960,731.510,-107.020
504,77460.940000,288.618,-19.615,-57.774,461.692,118.822,-219.385,-210.040,553.510,-143.020
505,77460.977000,292.571,35.709,-94.630,465.585,119.960,-213.468,129.960,410.510,-117.020
506,77461.1000,306.409,5.532,-60.763,467.540,121.057,-208.536,-8.040,102.510,-51.020
507,77461.39000,302.456,5.532,-67.735,466.616,125.859,-210.393,-18.040,-181.490,-13.020
508,77461.79000,290.595,-8.550,-64.747,461.683,117.851,-219.407,38.960,-458.490,6.980
509,77461.124000,283.676,5.532,-57.774,451.972,116.527,-231.225,-29.040,-685.490,58.980
510,77461.164000,318.270,14.585,-25.899,444.149,111.252,-247.049,-46.040,-1025.490,275.980
511,77461.201000,403.274,57.839,9.961,428.616,110.583,-270.632,-593.040,-1368.490,545.980
512,77461.239000,369.668,-42.750,-16.934,414.987,106.115,-291.354,-964.040,-1683.490,805.980
513,77461.280000,271.815,-130.263,-176.311,399.310,89.977,-312.339,-1034.040,-1553.490,857.980
514,77461.317000,164.077,-69.910,-184.280,391.564,90.722,-319.204,-840.040,-1278.490,895.980
515,77461.344000,113.668,21.627,-35.860,394.320,74.375,-313.677,54.960,302.510,505.980
516,77461.379000,44.479,23.639,-40.840,415.586,66.491,-284.387,467.960,1340.510,202.980
517,77461.421000,30.641,21.627,-74.708,449.508,60.370,-224.631,1192.960,2636.510,-315.020
518,77461.459000,59.305,36.715,-124.514,484.559,67.246,-147.913,1173.960,3194.510,-826.020
519,77461.501000,140.355,13.580,-203.206,496.634,95.600,-55.076,725.960,3368.510,-1481.020
520,77461.538000,396.355,-228.841,-294.848,492.299,129.425,29.022,-677.040,2933.510,-1737.020
521,77461.579000,512.988,-515.521,-492.078,490.439,131.887,53.589,845.960,-414.490,1202.980
522,77461.619000,-122.564,341.501,-0.996,495.274,132.798,48.716,-1940.040,31.510,-444.020
523,77461.642000,464.556,-18.609,-1.992,494.303,130.113,59.442,1002.960,543.510,-11.020
524,77461.682000,220.417,65.886,-55.782,494.305,128.365,68.229,15.960,520.510,-18.020
525,77461.721000,264.896,-63.874,-11.953,495.278,125.786,82.884,-395.040,537.510,-38.020
526,77461.759000,272.803,28.668,2.988,495.366,131.913,96.749,439.960,562.510,-67.020
527,77461.804000,266.873,1.509,-9.961,493.440,131.980,100.669,-74.040,366.510,28.980
528,77461.841000,260.942,17.603,-18.926,496.306,126.377,109.377,-354.040,270.510,142.980
529,77461.881000,247.104,-39.733,5.977,495.326,123.606,116.178,-392.040,257.510,142.980
530,77461.921000,246.116,-45.768,-7.969,493.352,117.935,123.893,-211.040,324.510,-6.020
531,77461.962000,256.000,-23.639,-0.996,489.571,124.909,133.847,7.960,357.510,-88.020
532,77461.979000,247.104,-3.521,1.992,492.496,126.037,139.762,-81.040,345.510,-34.020
533,77462.19000,256.000,-13.580,12.949,488.600,122.224,144.572,-40.040,229.510,18.980
534,77462.66000,247.104,-12.574,10.957,487.623,120.359,148.452,-171.040,139.510,3.980
535,77462.109000,255.012,-23.639,15.938,486.621,115.625,154.228,-225.040,127.510,-43.020
536,77462.142000,256.988,-33.697,1.992,486.629,116.574,153.269,-34.040,195.510,-104.020
537,77462.182000,256.000,-33.697,15.938,481.873,123.474,160.276,269.960,301.510,-229.020
538,77462.220000,252.046,-7.544,22.911,479.091,135.161,163.472,-7.040,246.510,-301.020
539,77462.262000,253.035,-14.585,26.895,477.190,137.235,170.379,-30.040,232.510,-329.020
540,77462.281000,256.000,-4.527,25.899,468.594,147.894,173.539,104.960,195.510,-357.020
541,77462.322000,261.931,16.597,31.875,467.728,157.658,176.696,40.960,128.510,-387.020
542,77462.360000,268.849,12.574,41.837,468.723,160.580,176.763,-0.040,0.510,-389.020
543,77462.402000,264.896,29.674,39.844,461.116,174.981,173.144,71.960,-95.490,-338.020
544,77462.442000,241.174,21.627,-13.946,464.029,177.750,165.366,136.960,-286.490,-251.020
545,77462.480000,235.243,24.644,19.922,463.070,182.228,148.792,394.960,-534.490,-116.020
546,77462.520000,272.803,-61.862,4.981,468.908,190.526,126.434,1236.960,-581.490,136.980
547,77462.562000,208.556,59.851,-1.992,467.895,189.201,110.712,1371.960,-504.490,190.980
548,77462.600000,199.660,63.874,3.984,475.641,193.742,93.177,445.960,-314.490,72.980
549,77462.619000,200.649,49.792,6.973,477.602,196.652,92.265,-254.040,-58.490,-64.020
550,77462.659000,220.417,-56.833,-25.899,476.573,189.005,97.977,430.960,274.510,203.980
551,77462.699000,252.046,89.022,-5.977,477.566,190.136,104.869,-11.040,318.510,134.980
552,77462.741000,341.004,35.709,-42.833,479.511,189.379,113.682,-224.040,170.510,52.980
553,77462.780000,219.429,-5.532,27.891,478.546,188.506,118.564,97.960,204.510,101.980
554,77462.820000,257.977,0.503,36.856,480.528,193.379,118.676,323.960,255.510,-27.020
555,77462.862000,254.023,16.597,12.949,477.576,188.475,117.580,43.960,55.510,-52.020
556,77462.900000,256.000,18.609,12.949,476.625,189.501,120.543,185.960,28.510,-22.020
557,77462.921000,253.035,23.639,16.934,475.700,194.303,118.686,-64.040,-43.490,-26.020
558,77462.980000,254.023,-1.509,9.961,475.709,195.274,118.708,-86.040,-27.490,-59.020
559,77463.2000,248.093,4.527,11.953,472.751,190.305,114.669,-61.040,27.510,-172.020
560,77463.46000,252.046,15.591,20.918,474.780,199.148,118.792,-103.040,-51.490,-218.020
561,77463.84000,253.035,37.721,20.918,473.848,203.000,117.895,-202.040,-219.490,-205.020
562,77463.121000,267.861,40.739,35.860,474.835,206.721,110.134,-244.040,-461.490,-132.020
563,77463.164000,226.347,37.721,64.747,477.703,206.425,95.424,-359.040,-961.490,99.980
564,77463.206000,328.154,19.615,39.844,480.474,198.148,70.729,-378.040,-1193.490,362.980
565,77463.244000,326.178,99.081,45.821,484.164,183.256,53.735,-777.040,-1290.490,285.980
566,77463.260000,286.641,-95.057,-4.981,480.172,174.998,32.950,-40.040,-1003.490,434.980
567,77463.300000,226.347,-56.833,-87.658,477.120,162.974,16.986,324.960,-854.490,483.980
568,77463.342000,137.390,-24.644,-72.716,477.004,153.935,3.056,108.960,-605.490,292.980
569,77463.384000,34.595,13.580,-32.872,476.037,154.810,-0.849,272.960,15.510,34.980
570,77463.437000,34.595,57.839,-34.864,474.203,160.163,22.801,193.960,1169.510,-354.020
571,77463.462000,178.903,111.151,-61.759,463.751,168.926,72.988,-673.040,1864.510,-641.020
572,77463.500000,512.988,267.065,-140.451,468.615,172.749,68.179,821.960,-16.490,-374.020
573,77463.547000,512.988,2.515,-151.409,476.309,170.624,56.381,-715.040,-692.490,256.980
574,77463.561000,364.726,-70.916,-347.642,482.896,158.349,24.741,-627.040,-2248.490,725.980
575,77463.604000,237.220,-41.745,-255.004,483.506,136.439,-45.371,-632.040,-3084.490,887.980
576,77463.641000,122.564,42.750,-149.416,476.286,109.189,-134.251,511.960,-3085.490,823.980
577,77463.686000,60.293,62.868,-121.525,450.813,91.792,-208.240,136.960,-2660.490,578.980
578,77463.721000,16.803,-9.556,-90.646,426.541,93.369,-258.270,-353.040,-2093.490,341.980
579,77463.766000,50.409,-60.857,-83.673,404.225,93.412,-290.678,-402.040,-1099.490,234.980
580,77463.800000,97.853,-70.916,-52.794,401.312,94.160,-299.494,-227.040,-307.490,162.980
581,77463.843000,152.216,-163.458,-63.751,408.074,93.255,-299.499,169.960,881.510,-89.020
582,77463.882000,304.432,-71.921,-282.895,426.435,87.070,-279.985,2102.960,2030.510,-385.020
583,77463.901000,279.722,81.980,-73.712,450.635,83.918,-257.449,1005.960,1688.510,-636.020
584,77463.941000,435.892,48.786,-68.732,468.149,88.575,-229.850,-85.040,1497.510,-417.020
585,77463.986000,310.363,36.715,-40.840,477.967,97.083,-200.220,42.960,1349.510,-440.020
586,77464.21000,300.479,-62.868,11.953,482.960,109.191,-181.308,-159.040,949.510,-294.020
587,77464.61000,280.710,28.668,-52.794,486.845,108.495,-170.528,-226.040,639.510,-210.020
588,77464.104000,285.652,25.650,-45.821,488.911,120.337,-162.416,116.960,179.510,-46.020
589,77464.141000,278.734,-2.515,-29.883,490.835,120.248,-167.317,39.960,-207.490,90.980
590,77464.181000,298.502,8.550,-46.817,486.879,114.104,-180.210,172.960,-733.490,248.980
591,77464.205000,308.386,19.615,-49.805,478.925,96.122,-200.240,151.960,-1024.490,406.980
592,77464.247000,400.309,50.798,-11.953,465.217,85.613,-230.902,-78.040,-1425.490,720.980
593,77464.281000,488.278,35.709,23.907,454.379,69.544,-250.895,-612.040,-1714.490,969.980
594,77464.321000,358.795,-5.532,-41.837,438.792,63.072,-273.627,-1018.040,-1675.490,1011.980
595,77464.361000,173.961,-141.328,-256.000,422.312,63.472,-292.285,-1295.040,-1464.490,695.980
596,77464.404000,42.502,-9.556,-53.790,413.487,51.694,-294.526,-617.040,-539.490,386.980
597,77464.444000,-20.757,23.639,-94.630,422.260,54.173,-273.859,651.960,928.510,-147.020
598,77464.482000,-46.456,45.768,-82.677,446.489,50.418,-234.665,1106.960,1810.510,-522.020
599,77464.503000,-18.780,14.585,-114.553,473.816,62.655,-175.496,788.960,2575.510,-997.020
600,77464.544000,73.143,-55.827,-192.249,487.640,81.320,-127.000,788.960,2774.510,-1197.020
601,77464.582000,253.035,-49.792,-162.366,499.636,107.150,-60.697,-198.040,2404.510,-1461.020
602,77464.625000,512.988,-510.491,-492.078,503.682,116.810,-20.267,-935.040,536.510,612.980
603,77464.662000,87.969,31.686,-173.323,512.471,123.841,-13.228,-1138.040,417.510,-41.020
604,77464.716000,482.347,37.721,-70.724,518.293,122.301,2.441,513.960,705.510,-222.020
605,77464.741000,274.780,5.532,-59.767,518.291,118.763,18.053,547.960,825.510,-91.020
606,77464.783000,268.849,3.521,-12.949,515.503,127.753,30.995,-96.040,832.510,-78.020
607,77464.824000,288.618,15.591,-11.953,517.441,124.277,48.574,-103.040,676.510,-39.020
608,77464.842000,255.012,4.527,-10.957,514.535,121.573,59.295,-134.040,390.510,23.980
609,77464.881000,246.116,-11.568,-15.938,513.571,119.838,69.061,-613.040,309.510,37.980
610,77464.921000,251.058,-32.692,-20.918,512.642,121.079,81.835,-429.040,354.510,31.980
611,77464.968000,252.046,-17.603,-20.918,509.731,117.448,94.497,-443.040,387.510,-49.020
612,77465.2000,249.081,-22.633,-15.938,507.880,124.398,102.493,-511.040,379.510,-104.020
613,77465.44000,264.896,-15.591,17.930,506.856,117.679,106.264,-554.040,325.510,-125.020
614,77465.82000,224.371,-12.574,21.914,507.886,122.693,113.242,-355.040,255.510,-44.020
615,77465.123000,256.988,-35.709,14.942,506.897,118.951,120.022,89.960,181.510,46.980
616,77465.142000,252.046,-3.521,-3.984,507.859,118.033,121.965,-3.040,97.510,14.980
617,77465.185000,255.012,-15.591,22.911,502.082,119.120,129.822,-205.040,66.510,-55.020
618,77465.222000,258.965,-22.633,13.946,505.015,122.967,126.971,11.960,96.510,-78.020
619,77465.264000,251.058,-18.609,13.946,502.073,118.149,129.800,199.960,98.510,-120.020
620,77465.306000,254.023,-27.662,23.907,505.084,129.785,128.104,331.960,98.510,-150.020
621,77465.344000,255.012,-21.627,26.895,501.221,130.696,127.135,405.960,32.510,-180.020
622,77465.385000,251.058,-12.574,17.930,499.369,139.394,126.344,540.960,-18.490,-223.020
623,77465.424000,264.896,21.627,7.969,497.517,148.976,121.649,512.960,-120.490,-263.020
624,77465.468000,288.618,41.745,40.840,497.586,157.562,114.975,147.960,-367.490,-205.020
625,77465.482000,298.502,2.515,43.829,497.538,155.340,102.177,-37.040,-551.490,-97.020
626,77465.525000,324.201,53.815,25.899,489.868,163.852,95.485,110.960,-315.490,-258.020
627,77465.562000,225.359,-77.957,-38.848,492.738,163.578,81.756,709.960,-409.490,-223.020
628,77465.605000,177.915,-10.562,-32.872,488.960,175.859,68.291,466.960,-341.490,-56.020
629,77465.643000,195.707,13.580,-21.914,488.916,173.680,57.456,699.960,-174.490,76.980
630,77465.685000,192.741,47.780,14.942,489.897,174.704,59.442,326.960,130.510,153.980
631,77465.725000,173.961,10.562,-125.510,491.700,159.361,66.950,-7.040,328.510,416.980
632,77465.762000,253.035,102.098,-84.669,496.581,163.357,69.991,-925.040,-68.490,223.980
633,77465.787000,291.583,-51.804,-32.872,500.337,149.975,77.547,59.960,238.510,293.980
634,77465.826000,368.680,50.798,-34.864,504.270,155.903,80.629,363.960,258.510,74.980
635,77465.870000,209.544,-6.538,-2.988,502.288,150.145,84.420,-41.040,268.510,-16.020
636,77465.904000,280.710,-1.509,7.969,505.222,151.360,94.260,-15.040,314.510,-50.020
637,77465.944000,251.058,-10.562,14.942,496.553,155.158,94.326,-182.040,162.510,-75.020
638,77465.996000,258.965,-0.503,0.996,498.505,155.350,102.179,-170.040,131.510,-113.020
639,77466.26000,257.977,-0.503,3.984,495.657,160.240,105.224,-119.040,122.510,-138.020
640,77466.67000,249.081,-18.609,8.965,496.652,162.278,109.194,-50.040,113.510,-171.020
641,77466.82000,247.104,0.503,16.934,494.680,158.375,109.103,-97.040,39.510,-193.020
642,77466.122000,245.127,3.521,18.926,491.834,165.057,105.323,-43.040,-108.490,-186.020
643,77466.162000,245.127,21.627,23.907,488.996,172.688,100.583,-160.040,-303.490,-127.020
644,77466.202000,279.722,35.709,23.907,497.678,172.535,89.810,-190.040,-593.490,20.980
645,77466.250000,299.490,47.780,43.829,499.537,168.304,73.049,-429.040,-871.490,136.980
646,77466.291000,355.830,65.886,26.895,500.426,162.273,63.111,-1176.040,-1112.490,254.980
647,77466.322000,293.560,-3.521,23.907,500.237,146.372,46.086,-1280.040,-1160.490,220.980
648,77466.362000,241.174,-109.139,-37.852,496.300,142.171,33.236,251.960,-583.490,259.980
649,77466.404000,186.811,-110.145,-86.661,493.303,136.835,12.517,708.960,-695.490,313.980
650,77466.424000,104.772,-38.727,-71.720,491.302,132.652,-0.328,455.960,-481.490,161.980
651,77466.466000,11.861,19.615,-26.895,491.266,127.906,4.469,157.960,271.510,-300.020
652,77466.506000,228.324,51.804,-98.615,492.384,139.048,25.313,2.960,1203.510,-519.020
653,77466.545000,409.205,6.538,-219.144,485.806,150.524,64.780,-826.040,1058.510,-397.020
654,77466.582000,446.764,231.859,-203.206,496.387,146.528,54.907,-1636.040,-1077.490,-221.020
655,77466.631000,383.506,48.786,-446.257,500.940,131.517,-12.101,434.960,-2921.490,795.980
656,77466.665000,241.174,78.963,-296.840,487.870,102.895,-116.714,1100.960,-3555.490,692.980
657,77466.706000,173.961,108.134,-127.502,462.389,88.065,-206.337,463.960,-3330.490,644.980
658,77466.725000,26.687,75.945,-51.798,420.648,88.070,-276.052,19.960,-2821.490,270.980
659,77466.766000,0.000,-24.644,-36.856,395.451,89.163,-303.539,-306.040,-1566.490,-22.020
660,77466.811000,23.722,-72.927,-50.802,379.958,92.399,-326.056,-145.040,-618.490,-76.020
661,77466.845000,116.633,-60.857,41.837,382.006,104.069,-325.792,223.960,461.510,-419.020
662,77466.886000,161.112,-237.894,-218.148,397.483,100.681,-310.144,1221.960,1827.510,-830.020
663,77466.925000,358.795,-132.275,-94.630,418.678,87.706,-291.755,2183.960,1732.510,-503.020
664,77466.965000,357.807,96.063,-32.872,441.034,93.338,-266.086,321.960,1556.510,-379.020
665,77467.7000,303.444,49.792,-16.934,447.870,95.777,-246.404,-500.040,1252.510,-281.020
666,77467.46000,299.490,-48.786,-0.996,459.657,110.799,-230.355,26.960,765.510,-111.020
667,77467.66000,301.467,-0.503,-26.895,462.537,106.210,-219.663,-249.040,383.510,-57.020
668,77467.104000,300.479,16.597,-70.724,465.467,108.266,-215.689,281.960,134.510,-25.020
669,77467.145000,302.456,23.639,-78.693,465.479,110.143,-218.589,288.960,-93.490,15.980
670,77467.184000,301.467,0.503,-67.735,460.558,103.127,-226.601,314.960,-346.490,98.980
671,77467.225000,302.456,3.521,-57.774,454.618,92.089,-240.587,180.960,-696.490,174.980
672,77467.278000,339.027,22.633,-28.887,447.836,94.569,-257.218,101.960,-974.490,315.980
673,77467.305000,387.459,34.703,-3.984,434.056,74.567,-278.285,-261.040,-1351.490,639.980
674,77467.350000,406.239,24.644,-18.926,414.701,78.715,-301.770,-1224.040,-1719.490,831.980
675,77467.365000,291.583,-24.644,-100.607,400.168,81.012,-323.324,-1495.040,-1510.490,789.980
676,77467.409000,183.846,-152.393,-205.198,380.765,76.789,-330.323,-942.040,-1234.490,771.980
677,77467.452000,123.552,-45.768,-68.732,383.573,66.224,-326.629,172.960,-11.490,554.980
678,77467.485000,23.722,-14.585,-103.595,396.967,48.190,-314.252,719.960,881.510,321.980
679,77467.525000,1.977,31.686,-111.564,417.211,32.724,-276.307,892.960,1831.510,-86.020
680,77467.567000,8.896,38.727,-128.498,451.221,36.247,-219.279,652.960,2371.510,-458.020
681,77467.607000,46.456,30.680,-178.303,477.579,46.706,-152.306,473.960,2590.510,-868.020
682,77467.645000,124.541,4.527,-231.097,489.606,76.355,-88.860,-20.040,2389.510,-1340.020
683,77467.666000,221.405,-6.538,-189.261,495.937,117.554,-27.132,-240.040,2215.510,-1458.020
684,77467.707000,512.988,-515.521,-492.078,498.928,121.962,-4.472,680.960,325.510,640.980
685,77467.744000,-0.988,114.169,-17.930,499.016,131.606,-7.200,-25.040,171.510,-683.020
686,77467.787000,323.212,70.916,-108.576,505.781,127.206,10.368,-17.040,425.510,-78.020
687,77467.826000,222.394,7.544,-70.724,507.687,122.543,18.114,-159.040,514.510,86.980
688,77467.870000,260.942,0.503,-51.798,504.750,115.136,35.596,-129.040,706.510,144.980
689,77467.906000,260.942,-20.621,-15.938,506.770,120.376,52.387,-129.040,621.510,134.980
690,77467.946000,257.977,-21.627,-23.907,506.665,107.042,63.859,-424.040,481.510,77.980
691,77467.987000,255.012,-30.680,-12.949,507.709,113.071,72.821,-180.040,396.510,74.980
692,77468.6000,241.174,-38.727,-14.942,505.745,108.371,80.558,-133.040,324.510,60.980
693,77468.47000,253.035,-38.727,-32.872,510.621,110.554,89.443,-24.040,371.510,-19.020
694,77468.85000,249.081,-28.668,-28.887,506.734,106.826,98.178,23.960,429.510,-85.020
695,77468.125000,271.815,-29.674,-0.996,501.955,110.857,107.083,85.960,411.510,-147.020
696,77468.166000,248.093,-2.515,-1.992,500.144,121.712,116.146,55.960,377.510,-119.020
697,77468.205000,250.069,-7.544,4.981,496.288,121.803,122.024,-169.040,215.510,-80.020
698,77468.247000,250.069,-11.568,-0.996,499.182,119.998,126.893,-194.040,162.510,-103.020
699,77468.287000,256.000,-27.662,9.961,495.287,117.069,127.801,-207.040,178.510,-77.020
700,77468.306000,245.127,-28.668,16.934,495.397,127.813,130.981,226.960,207.510,-131.020
701,77468.348000,253.035,-18.609,13.946,494.484,132.723,134.030,184.960,165.510,-204.020
702,77468.386000,253.035,-9.556,12.949,491.623,135.737,139.975,19.960,134.510,-231.020
703,77468.429000,264.896,-8.550,9.961,486.842,141.515,140.093,149.960,179.510,-273.020
704,77468.469000,258.965,0.503,20.918,485.945,147.460,146.108,165.960,147.510,-338.020
705,77468.506000,282.687,21.627,38.848,482.186,159.051,145.376,175.960,56.510,-287.020
706,77468.551000,286.641,21.627,46.817,478.359,163.824,143.513,-88.040,-83.490,-195.020
707,77468.585000,317.282,37.721,26.895,475.499,168.607,141.652,-215.040,74.510,-194.020
708,77468.606000,264.896,-50.798,5.977,472.526,160.855,143.435,-43.040,-107.490,-70.020
709,77468.649000,162.100,-23.639,-42.833,469.637,164.473,132.722,-153.040,-277.490,76.980
710,77468.687000,201.637,0.503,-16.934,476.365,161.476,125.805,113.960,-320.490,209.980
711,77468.725000,168.031,31.686,16.934,475.391,162.286,118.956,520.960,-154.490,109.980
712,77468.765000,178.903,4.527,-19.922,478.310,164.234,118.025,399.960,-77.490,94.980
713,77468.806000,311.351,-39.733,-34.864,482.156,162.287,116.028,0.960,-182.490,70.980
714,77468.846000,256.988,18.609,-3.984,483.051,155.436,112.936,-324.040,-99.490,188.980
715,77468.885000,340.015,31.686,22.911,485.008,155.671,122.752,145.960,229.510,120.980
716,77468.925000,270.826,-23.639,-9.961,485.981,156.608,120.813,104.960,144.510,-13.020
717,77468.949000,251.058,-13.580,19.922,482.082,152.773,124.643,116.960,231.510,-150.020
718,77468.987000,256.988,0.503,16.934,485.057,159.662,127.744,106.960,161.510,-162.020
719,77469.25000,259.954,13.580,17.930,482.157,159.655,128.718,37.960,117.510,-139.020
720,77469.65000,250.069,13.580,24.903,480.312,168.417,130.870,-48.040,3.510,-117.020
721,77469.105000,254.023,-0.503,14.942,478.396,170.340,130.909,7.960,-70.490,-99.020
722,77469.147000,248.093,1.509,14.942,481.298,170.368,130.916,46.960,-61.490,-126.020
723,77469.185000,254.023,2.515,0.000,478.427,174.159,128.052,59.960,-9.490,-178.020
724,77469.230000,254.023,11.568,16.934,476.501,175.111,128.069,-28.040,-29.490,-228.020
725,77469.249000,254.023,27.662,12.949,478.554,187.708,126.391,-131.040,-148.490,-218.020
726,77469.286000,252.046,30.680,35.860,475.585,182.631,117.447,-208.040,-338.490,-162.020
727,77469.326000,247.104,42.750,85.665,480.449,188.223,104.832,-388.040,-854.490,40.980
728,77469.368000,285.652,38.727,52.794,486.108,178.075,82.064,-217.040,-1176.490,385.980
729,77469.406000,333.097,114.169,0.000,488.836,164.986,59.224,-711.040,-1232.490,394.980
730,77469.450000,255.012,-49.792,-20.918,484.850,155.908,45.285,-172.040,-897.490,309.980
731,77469.487000,221.405,-93.045,-68.732,484.800,154.549,27.602,279.960,-824.490,241.980
732,77469.527000,131.459,2.515,13.946,486.607,144.536,12.674,229.960,-403.490,143.980
733,77469.550000,91.923,50.798,0.996,481.906,154.607,31.520,-410.040,825.510,-421.020
734,77469.590000,352.865,73.933,-98.615,469.542,167.084,74.920,-311.040,1714.510,-701.020
735,77469.627000,313.328,-33.697,-240.062,461.053,183.180,104.679,-960.040,1084.510,-262.020
736,77469.667000,326.178,-28.668,-295.844,476.281,164.194,72.909,-1365.040,-1755.490,517.980
737,77469.710000,403.274,-80.974,-492.078,489.561,149.462,14.751,972.960,-3237.490,1035.980
738,77469.751000,251.058,-12.574,-256.996,488.012,113.941,-99.798,1213.960,-3876.490,1254.980
739,77469.792000,151.228,70.916,-118.537,460.343,74.648,-197.813,805.960,-3528.490,1116.980
740,77469.835000,29.653,58.845,-70.724,422.333,61.034,-270.765,194.960,-2689.490,628.980
741,77469.880000,8.896,-30.680,-77.696,393.163,54.063,-310.207,-103.040,-1816.490,322.980
742,77469.887000,48.432,-129.257,-111.564,379.522,48.603,-331.932,229.960,-620.490,324.980
743,77469.927000,140.355,-11.568,-39.844,376.566,43.655,-334.990,-51.040,268.510,100.980
744,77469.969000,161.112,-2.515,109.572,394.983,44.179,-319.249,325.960,1813.510,-284.020
745,77470.11000,295.537,-216.770,-425.339,419.301,51.837,-290.588,227.960,1742.510,-663.020
746,77470.47000,236.232,72.927,-73.712,440.739,61.451,-259.929,1002.960,1832.510,-545.020
747,77470.86000,404.263,54.821,-74.708,456.307,65.096,-233.338,408.960,1511.510,-277.020
748,77470.130000,277.745,-70.916,11.953,466.035,65.708,-209.768,-77.040,1088.510,-236.020
749,77470.170000,271.815,-87.010,-10.957,467.079,69.968,-193.000,101.960,709.510,-136.020
750,77470.189000,289.606,-3.521,-83.673,473.914,75.039,-186.008,-53.040,617.510,-210.020
751,77470.227000,270.826,50.798,-97.619,474.967,82.039,-177.025,-89.040,444.510,-193.020
752,77470.267000,294.548,34.703,-48.809,478.891,86.111,-170.061,-332.040,109.510,-122.020
753,77470.310000,291.583,-21.627,-17.930,476.998,90.903,-171.920,-50.040,-271.490,71.980
754,77470.347000,294.548,7.544,-66.739,474.904,76.149,-180.098,-114.040,-567.490,120.980
755,77470.387000,289.606,15.591,-50.802,462.292,76.566,-199.728,14.960,-737.490,180.980
756,77470.435000,303.444,20.621,-40.840,458.334,70.401,-213.603,-8.040,-1026.490,360.980
757,77470.470000,356.819,46.774,-18.926,452.501,71.833,-234.177,-573.040,-1333.490,521.980
758,77470.490000,388.448,-24.644,-12.949,433.012,64.137,-266.751,-702.040,-1618.490,835.980
759,77470.535000,290.595,-23.639,-139.455,419.251,46.961,-291.677,-507.040,-1451.490,821.980
760,77470.568000,152.216,-113.163,-222.132,402.715,41.536,-310.465,-676.040,-1343.490,806.980
761,77470.607000,95.876,41.745,-4.981,401.749,40.664,-305.583,-206.040,-182.490,397.980
762,77470.649000,38.548,4.527,-49.805,419.165,35.569,-280.163,478.960,1278.510,-75.020
763,77470.689000,23.722,33.697,-41.837,441.438,30.716,-245.900,847.960,2306.510,-551.020
764,77470.730000,22.734,-12.574,-94.630,473.630,43.260,-174.946,1109.960,3103.510,-972.020
765,77470.770000,109.714,-17.603,-175.315,498.239,67.810,-84.129,1004.960,3453.510,-1695.020
766,77470.807000,317.282,-76.951,-214.163,497.052,126.905,0.537,331.960,3115.510,-2127.020
767,77470.827000,512.988,-515.521,-492.078,490.501,139.525,47.875,-479.040,941.510,270.980
768,77470.870000,-105.761,294.224,-11.953,492.424,138.551,46.877,-0.040,11.510,-318.020
769,77470.907000,420.077,9.556,-28.887,495.351,138.817,57.676,604.960,445.510,32.980
770,77470.950000,238.208,-37.721,-33.868,495.297,133.013,58.528,804.960,535.510,74.980
771,77470.987000,243.151,0.503,-41.837,495.380,138.213,74.334,-216.040,545.510,78.980
772,77471.27000,236.232,-18.609,-32.872,496.362,136.604,89.010,353.960,577.510,68.980
773,77471.68000,289.606,28.668,5.977,492.536,139.630,95.934,330.960,496.510,-4.020
774,77471.110000,258.965,-4.527,-14.942,490.563,133.958,103.649,109.960,319.510,22.980
775,77471.131000,256.988,1.509,-17.930,493.455,132.131,107.537,-242.040,346.510,-6.020
776,77471.169000,221.405,-14.585,-15.938,487.673,132.290,117.335,-249.040,437.510,-67.020
777,77471.211000,246.116,-19.615,14.942,486.796,138.430,132.180,-201.040,446.510,-86.020
778,77471.251000,250.069,-9.556,17.930,486.784,135.668,138.983,-87.040,337.510,-88.020
779,77471.289000,261.931,13.580,27.891,485.806,133.803,142.862,-385.040,122.510,6.980
780,77471.331000,251.058,-26.656,7.969,482.877,129.999,147.675,-305.040,126.510,8.980
781,77471.367000,256.000,-31.686,6.973,482.891,131.013,149.659,-61.040,254.510,-108.020
782,77471.411000,261.931,-16.597,15.938,481.029,136.970,156.652,166.960,355.510,-217.020
783,77471.430000,254.023,-23.639,31.875,479.213,147.782,163.752,326.960,417.510,-302.020
784,77471.470000,252.046,-10.562,25.899,469.673,160.417,168.916,214.960,408.510,-429.020
785,77471.508000,255.012,14.585,22.911,463.948,167.286,174.940,211.960,385.510,-493.020
786,77471.551000,274.780,40.739,28.887,460.183,177.065,180.053,69.960,308.510,-471.020
787,77471.591000,248.093,40.739,47.813,452.540,185.835,185.135,-83.040,59.510,-375.020
788,77471.632000,258.965,48.786,31.875,451.627,191.629,184.281,-473.040,-89.490,-272.020
789,77471.668000,257.977,-15.591,37.852,453.543,190.591,180.339,-385.040,-277.490,-131.020
790,77471.711000,255.012,-32.692,46.817,450.609,189.376,170.499,739.960,-340.490,117.980
791,77471.750000,252.046,-21.627,25.899,459.285,190.043,152.880,623.960,-495.490,285.980
792,77471.770000,196.695,42.750,24.903,463.133,190.750,139.175,23.960,-511.490,18.980
793,77471.812000,177.915,46.774,40.840,464.127,194.535,134.358,320.960,-107.490,0.980
794,77471.850000,179.892,23.639,14.942,466.056,192.742,140.206,262.960,270.510,-42.020
795,77471.890000,297.514,194.640,77.696,464.160,194.859,149.075,472.960,514.510,494.980
796,77471.932000,342.981,-12.574,-47.813,457.279,181.416,158.569,-770.040,-226.490,58.980
797,77471.970000,233.266,-12.574,12.949,465.044,184.383,157.670,-12.040,17.510,249.980
798,77472.8000,260.942,-37.721,17.930,465.018,181.492,158.587,339.960,259.510,163.980
799,77472.51000,255.012,36.715,44.825,465.025,180.672,165.433,-133.040,138.510,-16.020
800,77472.70000,249.081,0.503,30.879,463.984,172.917,166.240,-496.040,-25.490,23.980
801,77472.112000,256.988,20.621,39.844,466.830,167.120,166.117,12.960,-96.490,109.980
802,77472.150000,247.104,-0.503,52.794,465.905,171.922,164.260,-159.040,-233.490,105.980
803,77472.190000,253.035,2.515,9.961,468.765,168.908,158.315,29.960,-310.490,112.980
804,77472.232000,256.988,8.550,12.949,473.582,167.876,153.399,145.960,-251.490,68.980
805,77472.269000,250.069,-4.527,-1.992,472.587,165.839,149.429,135.960,-165.490,-39.020
806,77472.308000,252.046,4.527,5.977,470.730,174.493,146.675,83.960,-145.490,-102.020
807,77472.352000,255.012,14.585,14.942,471.722,178.257,140.877,-77.040,-215.490,-160.020
808,77472.377000,256.000,32.692,34.864,471.640,171.310,133.858,-93.040,-357.490,-126.020
809,77472.411000,247.104,39.733,71.720,477.474,176.933,122.227,-151.040,-706.490,123.980
810,77472.451000,341.992,63.874,23.907,484.058,161.983,101.315,-139.040,-1081.490,440.980
811,77472.491000,358.795,121.210,6.973,485.825,149.833,77.514,-682.040,-1178.490,422.980
812,77472.530000,304.432,-1.509,-2.988,487.680,145.559,58.790,-161.040,-856.490,253.980
813,77472.571000,201.637,-92.039,-86.661,482.816,147.022,39.199,395.960,-770.490,85.980
814,77472.608000,73.143,-137.305,-91.642,481.753,139.052,30.194,1051.960,-241.490,-131.020
815,77472.651000,-28.664,51.804,-25.899,478.125,161.581,41.474,-151.040,939.510,-753.020
816,77472.688000,507.058,137.305,-62.755,464.856,179.939,87.944,-788.040,2000.510,-1220.020
817,77472.712000,512.988,17.603,-182.288,449.571,191.330,127.391,-1409.040,594.510,-343.020
818,77472.752000,196.695,97.069,-172.327,467.762,177.356,101.622,-1355.040,-1186.490,923.980
819,77472.792000,427.985,-1.509,-432.311,490.533,150.399,12.812,1220.960,-3276.490,1130.980
820,77472.830000,198.672,38.727,-209.183,487.065,114.125,-90.969,833.960,-3659.490,1330.980
821,77472.872000,111.691,68.904,-112.560,474.143,91.328,-151.323,371.960,-3265.490,1070.980
822,77472.912000,9.884,17.603,-93.634,448.640,70.997,-226.358,99.960,-2669.490,733.980
823,77472.952000,48.432,-61.862,-104.591,422.399,68.715,-274.517,-33.040,-1647.490,516.980
824,77472.990000,139.367,-99.081,-101.603,401.936,60.060,-306.133,214.960,-861.490,375.980
825,77473.11000,172.973,-57.839,-37.852,404.709,47.402,-309.350,489.960,277.510,63.980
826,77473.55000,197.683,-41.745,131.486,423.017,36.319,-291.906,1480.960,1575.510,-196.020
827,77473.90000,323.212,-219.788,-458.210,439.636,50.460,-273.905,-307.040,1643.510,-474.020
828,77473.132000,391.413,2.515,-79.689,452.328,56.084,-244.333,445.960,1391.510,-522.020
829,77473.170000,309.375,128.251,-27.891,469.823,58.799,-216.778,971.960,1344.510,-350.020
830,77473.210000,283.676,-65.886,5.977,475.723,65.048,-199.955,-152.040,752.510,-308.020
831,77473.250000,311.351,-12.574,-55.782,480.606,67.295,-188.127,-268.040,437.510,-253.020
832,77473.292000,304.432,-2.515,-70.724,481.634,72.288,-182.130,438.960,312.510,-111.020
833,77473.313000,289.606,8.550,-84.669,484.454,63.600,-181.337,71.960,87.510,-15.020
834,77473.353000,298.502,-16.597,-85.665,482.557,67.465,-181.255,15.960,-104.490,69.980
835,77473.396000,282.687,-21.627,-83.673,483.458,61.563,-185.307,-65.040,-202.490,45.980
836,77473.434000,269.838,-8.550,-52.794,478.641,64.342,-189.178,-195.040,-450.490,113.980
837,77473.473000,282.687,14.585,-42.833,472.758,60.014,-206.938,-162.040,-753.490,275.980
838,77473.512000,364.726,51.804,-15.938,464.865,48.784,-228.779,-84.040,-1053.490,469.980
839,77473.552000,411.181,54.821,-1.992,450.302,49.032,-255.282,-999.040,-1574.490,723.980
840,77473.591000,361.761,-48.786,-18.926,435.710,44.597,-274.043,-578.040,-1708.490,805.980
841,77473.633000,240.185,-75.945,-177.307,420.069,33.206,-299.826,-305.040,-1405.490,602.980
842,77473.652000,85.004,-72.927,-179.300,398.568,14.185,-316.965,119.960,-1200.490,531.980
843,77473.693000,74.131,14.585,-26.895,395.582,4.556,-312.282,615.960,199.510,162.980
844,77473.732000,39.537,-10.562,-68.732,414.928,-1.448,-284.916,586.960,1127.510,-263.020
845,77473.770000,32.618,11.568,-44.825,443.240,14.489,-234.489,413.960,2290.510,-813.020
846,77473.810000,58.317,2.515,-131.486,476.435,31.788,-168.330,158.960,2764.510,-1168.020
847,77473.850000,100.819,-40.739,-235.082,491.254,53.375,-119.768,55.960,2786.510,-1370.020
848,77473.890000,218.440,-118.193,-256.000,498.601,98.575,-53.044,-710.040,2069.510,-1321.020
849,77473.934000,177.915,-515.521,-492.078,502.829,125.818,-7.320,-1148.040,1434.510,-876.020
850,77473.950000,68.201,174.523,146.428,506.603,117.895,-16.314,828.960,263.510,-515.020
851,77473.990000,381.529,107.128,-63.751,507.569,115.251,-4.603,158.960,500.510,223.980
852,77474.30000,250.069,7.544,-78.693,507.644,121.248,3.376,-71.040,404.510,-53.020
853,77474.70000,234.255,-0.503,-90.646,512.428,112.860,16.929,145.960,626.510,9.980
854,77474.110000,245.127,-39.733,-25.899,512.438,111.198,29.640,277.960,699.510,46.980
855,77474.150000,244.139,-28.668,-29.883,513.487,117.270,40.565,-79.040,569.510,-31.020
856,77474.193000,256.000,-31.686,-44.825,513.490,114.660,54.236,127.960,516.510,-139.020
857,77474.232000,273.792,8.550,-14.942,508.753,122.617,65.190,83.960,579.510,-238.020
858,77474.253000,281.699,29.674,-29.883,508.848,129.693,78.096,-316.040,535.510,-123.020
859,77474.291000,255.012,-36.715,-19.922,506.945,129.976,91.827,-401.040,512.510,-101.020
860,77474.332000,233.266,-41.745,-2.988,504.117,135.061,103.702,-315.040,569.510,-190.020
861,77474.372000,264.896,-2.515,15.938,503.181,135.354,117.436,-317.040,471.510,-225.020
862,77474.410000,254.023,-2.515,14.942,496.400,132.569,126.186,-380.040,339.510,-209.020
863,77474.454000,243.151,-23.639,20.918,494.563,140.533,136.165,-321.040,278.510,-199.020
864,77474.491000,253.035,-14.585,16.934,490.688,138.683,142.000,-171.040,306.510,-256.020
865,77474.533000,255.012,-6.538,24.903,487.884,147.522,148.074,-64.040,328.510,-309.020
866,77474.571000,259.954,-3.521,25.899,478.289,154.353,154.090,34.960,333.510,-343.020
867,77474.595000,253.035,2.515,29.883,478.414,166.111,159.254,-47.040,324.510,-385.020
868,77474.632000,252.046,8.550,36.856,472.675,171.966,163.295,107.960,271.510,-399.020
869,77474.675000,251.058,19.615,52.794,466.990,183.625,166.484,159.960,132.510,-382.020
870,77474.712000,262.919,37.721,45.821,467.087,194.239,163.777,34.960,-175.490,-272.020
871,77474.755000,263.907,33.697,5.977,466.089,192.180,158.826,74.960,-210.490,-183.020
872,77474.792000,256.000,0.503,-37.852,467.055,193.938,150.041,62.960,-505.490,97.980
873,77474.831000,322.224,-89.022,-17.930,475.613,182.027,134.104,-173.040,-981.490,582.980
874,77474.872000,262.919,-6.538,8.965,485.133,172.715,103.517,723.960,-1126.490,685.980
875,77474.891000,199.660,28.668,20.918,495.559,157.544,70.841,671.960,-1023.490,606.980
876,77474.936000,176.927,27.662,24.903,497.308,142.568,50.899,633.960,-629.490,449.980
877,77474.971000,170.008,12.574,31.875,500.131,135.671,44.868,1057.960,-7.490,449.980
878,77475.15000,257.977,-36.715,-149.416,504.987,137.660,44.922,-167.040,-80.490,175.980
879,77475.52000,281.699,-27.662,-103.595,506.879,131.983,50.684,-498.040,-64.490,143.980
880,77475.92000,335.073,-26.656,-38.848,509.744,129.012,46.701,566.960,366.510,74.980
881,77475.132000,310.363,27.662,13.946,509.787,131.191,57.537,74.960,326.510,-115.020
882,77475.175000,271.815,-13.580,-12.949,509.754,126.466,63.316,-15.040,218.510,-99.020
883,77475.211000,245.127,-2.515,-0.996,506.960,137.161,65.509,-81.040,148.510,-58.020
884,77475.235000,257.977,-13.580,-1.992,506.980,138.240,70.436,-78.040,96.510,-77.020
885,77475.275000,251.058,-13.580,-3.984,505.999,137.216,68.450,53.960,44.510,-96.020
886,77475.312000,246.116,-17.603,-14.942,501.242,144.979,70.574,12.960,41.510,-123.020
887,77475.352000,249.081,-15.591,-1.992,504.094,140.131,69.492,23.960,42.510,-169.020
888,77475.395000,249.081,-1.509,-2.988,500.312,148.853,70.658,-127.040,-99.490,-178.020
889,77475.431000,255.012,13.580,14.942,502.238,148.786,66.738,-122.040,-271.490,-106.020
890,77475.472000,242.162,28.668,11.953,505.141,151.468,55.035,-151.040,-670.490,106.980
891,77475.513000,266.873,19.615,38.848,509.800,138.354,30.238,-247.040,-1101.490,338.980
892,77475.535000,414.147,70.916,0.000,505.752,126.041,1.517,-551.040,-1354.490,568.980
893,77475.571000,385.483,-3.521,40.840,508.585,121.884,-12.299,-470.040,-1354.490,555.980
894,77475.611000,280.710,-110.145,-40.840,503.569,108.676,-37.119,341.960,-952.490,518.980
895,77475.652000,149.251,-100.086,-40.840,497.580,93.647,-56.098,162.960,-810.490,377.980
896,77475.695000,32.618,38.727,4.981,494.764,100.608,-47.123,-1083.040,147.510,-217.020
897,77475.735000,74.131,53.815,3.984,486.286,115.043,-4.653,257.960,1702.510,-678.020
898,77475.775000,314.317,-339.489,-296.840,476.090,149.157,51.000,1258.960,2529.510,-1034.020
899,77475.815000,340.015,93.045,-109.572,477.070,151.928,44.199,-32.040,-690.490,-291.020
900,77475.852000,430.950,-137.305,-198.226,481.864,150.681,29.472,-937.040,-869.490,203.980
901,77475.872000,341.992,-75.945,-314.770,488.398,134.372,-9.122,191.960,-1759.490,762.980
902,77475.912000,272.803,-68.904,-303.813,488.962,106.744,-74.458,-338.040,-2573.490,1007.980
903,77475.957000,147.274,3.521,-249.027,474.037,79.742,-148.638,-121.040,-2904.490,867.980
904,77475.995000,49.421,56.833,-177.307,447.664,68.269,-217.595,3.960,-2721.490,637.980
905,77476.36000,20.757,28.668,-120.529,418.534,68.720,-272.563,-424.040,-2266.490,324.980
906,77476.76000,37.560,-29.674,-95.626,399.132,68.899,-300.059,-718.040,-1348.490,-9.020
907,77476.116000,99.830,-65.886,-96.623,381.730,75.007,-323.496,-307.040,-530.490,-57.020
908,77476.155000,146.286,-95.057,-42.833,383.698,79.751,-329.270,416.960,618.510,-171.020
909,77476.172000,184.834,-193.635,-38.848,403.059,77.415,-311.629,1366.960,1592.510,-362.020
910,77476.216000,366.703,-167.481,-289.868,432.068,71.398,-289.147,313.960,1510.510,-438.020
911,77476.252000,456.649,106.122,-44.825,450.487,70.175,-264.618,187.960,1461.510,-434.020
912,77476.296000,290.595,93.045,-71.720,457.366,77.425,-246.791,426.960,1077.510,-460.020
913,77476.332000,254.023,-104.110,-7.969,460.358,83.602,-231.938,-14.040,775.510,-290.020
914,77476.376000,280.710,-14.585,-46.817,466.270,91.728,-218.016,-407.040,526.510,-218.020
915,77476.417000,288.618,1.509,-78.693,471.226,102.605,-210.899,5.960,358.510,-97.020
916,77476.455000,291.583,-3.521,-62.755,474.093,97.887,-206.095,36.960,179.510,-1.020
917,77476.473000,285.652,-25.650,-69.728,475.025,94.035,-205.197,-13.040,-25.490,6.980
918,77476.517000,289.606,-8.550,-68.732,466.363,99.667,-209.994,-71.040,-210.490,-11.020
919,77476.553000,297.514,2.515,-51.798,469.186,92.770,-216.025,-16.040,-538.490,98.980
920,77476.593000,313.328,41.745,-25.899,461.464,97.268,-228.690,-89.040,-869.490,296.980
921,77476.635000,396.355,112.157,-0.996,447.819,91.764,-252.377,-642.040,-1334.490,657.980
922,77476.673000,426.008,23.639,-19.922,434.073,76.487,-279.223,-1169.040,-1671.490,1026.980
923,77476.717000,348.911,-38.727,-89.650,416.430,56.512,-297.355,-452.040,-1311.490,1227.980
924,77476.752000,210.533,-95.057,-189.261,401.882,56.025,-313.087,-1258.040,-1399.490,1042.980
925,77476.792000,91.923,-20.621,-30.879,400.935,57.095,-308.162,-1566.040,-450.490,728.980
926,77476.812000,29.653,-16.597,-44.825,411.622,57.630,-288.515,-178.040,1249.510,289.980
927,77476.852000,14.826,-0.503,-66.739,441.549,41.460,-242.719,984.960,2288.510,-103.020
928,77476.892000,42.502,11.568,-164.358,475.560,42.351,-173.001,1291.960,3098.510,-751.020
929,77476.936000,80.062,4.527,-219.144,501.053,59.942,-90.181,916.960,3083.510,-1210.020
930,77476.973000,226.347,-28.668,-224.125,503.522,100.305,-20.634,-998.040,2205.510,-1604.020
931,77477.15000,407.228,-515.521,-492.078,508.488,106.867,10.903,-1587.040,572.510,346.980
932,77477.55000,-14.826,288.189,-93.634,509.524,113.694,12.038,-766.040,256.510,-291.020
933,77477.97000,399.320,2.515,-50.802,513.322,106.008,13.837,506.960,253.510,-314.020
934,77477.115000,244.139,15.591,-74.708,508.531,109.046,21.739,268.960,375.510,-53.020
935,77477.156000,229.313,-39.733,-47.813,512.518,119.008,31.775,-48.040,445.510,38.980
936,77477.199000,238.208,-31.686,-46.817,512.502,114.456,45.403,-83.040,545.510,66.980
937,77477.233000,263.907,-27.662,-14.942,516.307,105.950,54.049,-54.040,455.510,1.980
938,77477.279000,263.907,5.532,-16.934,513.470,110.064,65.902,-240.040,365.510,34.980
939,77477.313000,260.942,-8.550,0.996,515.355,104.323,68.720,-83.040,223.510,117.980
940,77477.368000,238.208,-36.715,-19.922,514.396,104.399,72.643,-38.040,139.510,131.980
941,77477.395000,246.116,-28.668,-33.868,514.408,104.507,77.548,-11.040,206.510,124.980
942,77477.437000,263.907,-36.715,-12.949,515.360,101.733,83.373,-64.040,241.510,62.980
943,77477.458000,262.919,-22.633,-10.957,517.250,96.035,88.154,-0.040,250.510,-13.020
944,77477.506000,261.931,-32.692,-6.973,508.578,98.927,91.142,-14.040,236.510,-79.020
945,77477.533000,235.243,-38.727,-13.946,511.498,99.128,98.997,34.960,256.510,-147.020
946,77477.576000,256.000,-39.733,-4.981,505.851,113.786,106.176,170.960,335.510,-247.020
947,77477.613000,254.023,-22.633,3.984,503.993,120.671,111.228,137.960,338.510,-315.020
948,77477.658000,258.965,-15.591,5.977,504.079,127.661,120.209,135.960,338.510,-362.020
949,77477.697000,259.954,-9.556,6.973,498.333,132.566,125.209,58.960,320.510,-394.020
950,77477.735000,262.919,-0.503,26.895,493.639,146.219,130.406,64.960,192.510,-389.020
951,77477.753000,277.745,5.532,51.798,488.932,159.743,129.715,26.960,8.510,-356.020
952,77477.793000,318.270,64.880,31.875,485.015,154.851,129.598,-181.040,-153.490,-339.020
953,77477.833000,248.093,17.603,-21.914,484.156,166.448,127.893,-101.040,-93.490,-339.020
954,77477.876000,197.683,-24.644,-42.833,478.355,169.067,117.151,681.960,-190.490,-185.020
955,77477.913000,255.012,-51.804,-0.996,477.396,172.661,104.480,84.960,-377.490,53.980
956,77477.953000,220.417,2.515,7.969,482.260,177.368,95.769,664.960,-297.490,92.980
957,77477.998000,194.718,31.686,9.961,481.263,176.194,86.915,391.960,-154.490,97.980
958,77478.33000,190.764,-20.621,24.903,485.121,175.239,85.921,-361.040,-104.490,33.980
959,77478.58000,226.347,-16.597,-70.724,484.141,173.353,88.819,-126.040,-25.490,176.980
960,77478.96000,228.324,54.821,-23.907,490.822,163.732,89.601,-471.040,-70.490,158.980
961,77478.133000,373.622,11.568,46.817,493.711,160.998,96.411,-10.040,324.510,242.980
962,77478.178000,264.896,-5.532,15.938,496.650,163.141,104.310,33.960,173.510,20.980
963,77478.216000,238.208,-24.644,18.926,494.713,163.100,103.324,150.960,112.510,18.980
964,77478.253000,240.185,-25.650,18.926,492.748,160.147,102.274,352.960,133.510,-43.020
965,77478.293000,268.849,18.609,8.965,496.624,160.250,105.226,137.960,33.510,-31.020
966,77478.337000,256.000,2.515,6.973,494.744,166.919,100.467,335.960,-56.490,-43.020
967,77478.375000,251.058,12.574,-3.984,495.733,169.776,97.590,151.960,-74.490,-61.020
968,77478.398000,253.035,-2.515,0.000,495.757,172.646,95.693,182.960,-16.490,-106.020
969,77478.436000,252.046,4.527,16.934,492.845,171.647,95.665,112.960,-45.490,-133.020
970,77478.478000,248.093,7.544,14.942,490.035,181.306,94.892,67.960,-164.490,-104.020
971,77478.518000,254.023,31.686,0.996,491.898,175.348,87.899,-77.040,-305.490,-36.020
972,77478.558000,254.023,17.603,18.926,491.941,181.929,78.239,-76.040,-461.490,16.980
973,77478.595000,260.942,19.615,45.821,494.763,176.779,63.421,-191.040,-855.490,252.980
974,77478.637000,323.212,54.821,3.984,503.248,158.892,40.486,-0.040,-1052.490,428.980
975,77478.675000,320.247,61.862,-13.946,499.261,151.562,17.760,-622.040,-1192.490,370.980
976,77478.696000,277.745,-94.051,-65.743,499.169,146.277,-1.971,-401.040,-984.490,342.980
977,77478.738000,202.625,-144.346,-124.514,498.970,130.290,-22.920,287.960,-905.490,408.980
978,77478.790000,245.127,-135.293,-273.930,496.970,128.761,-47.475,-695.040,-1549.490,654.980
979,77478.816000,227.336,-122.216,-337.681,488.932,108.211,-96.000,-245.040,-2182.490,812.980
980,77478.857000,119.598,-56.833,-239.066,472.120,84.297,-161.290,513.960,-2489.490,910.980
981,77478.901000,56.340,-0.503,-206.195,448.590,64.352,-219.641,164.960,-2328.490,745.980
982,77478.938000,83.027,19.615,-171.331,420.284,48.480,-267.125,-178.040,-1986.490,588.980
983,77478.978000,85.992,4.527,-156.389,397.955,48.393,-305.420,-546.040,-1572.490,402.980
984,77478.997000,86.981,-3.521,-140.451,385.382,51.831,-320.080,-562.040,-851.490,320.980
985,77479.35000,108.726,-37.721,-134.475,377.632,53.416,-332.810,-88.040,-178.490,323.980
986,77479.75000,161.112,-50.798,-101.603,381.471,49.635,-329.943,380.960,658.510,140.980
987,77479.118000,184.834,-48.786,-37.852,396.923,44.241,-317.282,323.960,1194.510,-89.020
988,77479.157000,243.151,-154.405,-182.288,419.219,44.005,-293.704,282.960,1508.510,-288.020
989,77479.195000,217.452,-90.028,-102.599,435.797,53.356,-272.868,48.960,1285.510,-624.020
990,77479.235000,331.120,-5.532,-113.556,450.402,57.036,-244.316,7.960,1339.510,-366.020
991,77479.278000,284.664,52.809,-139.455,461.123,62.296,-230.448,556.960,1325.510,-498.020
992,77479.297000,297.514,57.839,-74.708,472.885,72.678,-204.695,272.960,1201.510,-481.020
993,77479.337000,282.687,-17.603,-29.883,481.736,82.946,-182.874,-256.040,857.510,-297.020
994,77479.375000,276.757,-59.851,1.992,482.779,88.091,-170.009,-252.040,559.510,-138.020
995,77479.415000,270.826,22.633,-65.743,482.682,76.591,-163.400,213.960,151.510,33.980
996,77479.455000,279.722,-8.550,-56.778,482.715,80.431,-165.276,432.960,-90.490,80.980
997,77479.501000,277.745,-19.615,-68.732,481.683,75.395,-173.235,384.960,-306.490,106.980
998,77479.538000,285.652,-19.615,-65.743,479.669,70.220,-187.084,96.960,-553.490,123.980
999,77479.581000,290.595,2.515,-55.782,472.873,70.801,-201.795,-7.040,-765.490,221.980
1000,77479.621000,322.224,25.650,-32.872,463.019,56.662,-222.724,-155.040,-1112.490,424.980
1001,77479.637000,391.413,70.916,-20.918,452.288,53.063,-249.304,-629.040,-1420.490,631.980
1002,77479.677000,385.483,-35.709,-21.914,433.865,54.243,-275.794,-1017.040,-1730.490,818.980
1003,77479.722000,269.838,-50.798,-149.416,419.256,47.889,-293.618,-855.040,-1521.490,814.980
1004,77479.760000,240.185,-112.157,-183.284,403.666,40.510,-313.428,-592.040,-1234.490,809.980
1005,77479.800000,145.297,-61.862,-86.661,396.771,27.823,-313.724,-63.040,-231.490,507.980
1006,77479.840000,41.514,41.745,-79.689,408.315,17.623,-297.255,260.960,710.510,82.980
1007,77479.876000,24.710,7.544,-78.693,430.716,25.434,-260.750,468.960,1747.510,-477.020
1008,77479.916000,33.606,5.532,-100.607,461.922,38.681,-201.550,535.960,2458.510,-903.020
1009,77479.940000,87.969,-43.756,-204.202,486.443,56.219,-120.695,895.960,2929.510,-1387.020
1010,77479.976000,210.533,-50.798,-189.261,495.576,90.327,-73.828,312.960,2707.510,-1648.020
1011,77480.17000,260.942,-94.051,-209.183,491.247,126.849,0.523,-1101.040,2319.510,-1367.020
1012,77480.57000,512.988,-146.358,-492.078,493.237,130.039,12.366,959.960,-466.490,683.980
1013,77480.100000,130.471,-82.986,-191.253,497.193,136.182,25.260,-407.040,562.510,207.980
1014,77480.140000,314.317,12.574,-15.938,498.239,142.233,35.203,365.960,588.510,-80.020
1015,77480.176000,277.745,45.768,-51.798,492.468,142.499,49.906,-230.040,570.510,-70.020
1016,77480.218000,242.162,-19.615,-41.837,496.300,136.885,57.635,-542.040,437.510,-32.020
1017,77480.242000,239.197,7.544,-31.875,495.338,135.171,68.382,-489.040,342.510,-47.020
1018,77480.283000,238.208,-32.692,-25.899,496.382,141.199,77.344,-474.040,239.510,-48.020
1019,77480.316000,239.197,-36.715,-23.907,494.433,138.397,83.162,-92.040,254.510,-67.020
