Sample, Time, ACCX, ACCY, ACCZ, MAGX, MAGY, MAGZ, GYRX, GYRY, GYRZ
0,77379.358000,232.415,32.125,103.424,349.671,10.096,121.835,-264.780,75.400,-278.060
1,77379.398000,230.449,37.145,111.616,348.723,10.064,120.838,-312.780,97.400,-287.060
2,77379.438000,226.518,41.161,109.568,346.880,13.703,120.913,-369.780,67.400,-260.060
3,77379.478000,222.587,37.145,103.424,345.939,13.749,123.897,-386.780,67.400,-228.060
4,77379.517000,219.639,32.125,105.472,344.952,10.949,121.846,-445.780,89.400,-221.060
5,77379.557000,217.674,28.110,107.520,345.961,15.542,121.946,-464.780,72.400,-192.060
6,77379.577000,228.484,23.090,104.448,344.035,12.828,124.869,-435.780,26.400,-164.060
7,77379.617000,232.415,26.102,107.520,345.048,17.460,126.958,-329.780,62.400,-136.060
8,77379.657000,226.518,33.129,110.592,345.019,15.588,124.929,-312.780,125.400,-176.060
9,77379.697000,224.553,36.141,109.568,341.292,19.301,129.976,-250.780,141.400,-157.060
10,77379.737000,221.605,29.114,104.448,336.523,16.490,129.909,-308.780,106.400,-172.060
11,77379.775000,224.553,30.118,93.184,341.285,18.443,132.941,-292.780,175.400,-178.060
12,77379.795000,224.553,26.102,102.400,339.499,25.825,137.074,-195.780,255.400,-157.060
13,77379.839000,225.536,27.106,104.448,333.904,31.345,142.157,-264.780,262.400,-237.060
14,77379.879000,215.708,45.176,121.856,334.875,32.410,149.143,-66.780,380.400,-206.060
15,77379.918000,216.691,34.133,124.928,331.095,32.418,152.122,8.220,281.400,-183.060
16,77379.957000,209.812,43.169,128.000,327.314,32.427,155.100,18.220,284.400,-194.060
17,77379.997000,210.795,54.212,133.120,326.489,40.757,160.250,19.220,237.400,-167.060
18,77380.37000,206.864,57.224,142.336,322.623,34.372,164.087,28.220,195.400,-137.060
19,77380.57000,206.864,56.220,140.288,323.721,45.398,165.318,5.220,130.400,-113.060
20,77380.97000,205.881,59.231,139.264,324.660,44.553,168.285,7.220,86.400,-70.060
21,77380.137000,205.881,58.227,139.264,324.713,48.256,170.353,4.220,38.400,-23.060
22,77380.177000,206.864,56.220,138.240,322.814,48.153,166.369,6.220,19.400,3.940
23,77380.217000,210.795,52.204,132.096,319.980,48.174,169.350,21.220,25.400,33.940
24,77380.258000,209.812,51.200,136.192,320.001,49.968,167.399,28.220,26.400,46.940
25,77380.278000,209.812,51.200,133.120,320.899,46.335,168.317,34.220,5.400,44.940
26,77380.318000,207.846,51.200,130.048,321.824,44.554,170.270,60.220,-1.600,55.940
27,77380.358000,206.864,51.200,129.024,319.866,39.910,168.179,65.220,-17.600,61.940
28,77380.398000,207.846,50.196,130.048,321.772,40.870,169.197,82.220,-7.600,63.940
29,77380.438000,209.812,50.196,130.048,318.921,39.917,169.172,98.220,2.400,67.940
30,77380.478000,208.829,50.196,131.072,321.762,39.974,170.172,93.220,-3.600,63.940
31,77380.519000,208.829,48.188,129.024,320.803,39.045,170.151,76.220,9.400,62.940
32,77380.539000,207.846,49.192,131.072,320.826,40.858,169.195,62.220,1.400,51.940
33,77380.579000,209.812,50.196,128.000,317.945,38.013,166.146,51.220,-28.600,30.940
34,77380.619000,221.605,52.204,131.072,321.888,49.154,171.363,13.220,-16.600,14.940
35,77380.659000,209.812,51.200,130.048,322.731,41.799,169.218,-9.780,-30.600,10.940
36,77380.699000,207.846,47.184,129.024,323.702,43.644,169.259,-33.780,-44.600,16.940
37,77380.739000,206.864,47.184,122.880,319.941,45.406,168.296,-91.780,3.400,8.940
38,77380.759000,200.967,46.180,128.000,323.615,37.231,169.122,-160.780,49.400,-20.060
39,77380.799000,217.674,43.169,116.736,323.679,41.831,170.215,-202.780,12.400,-93.060
40,77380.838000,211.777,35.137,118.784,319.856,39.033,170.150,-301.780,97.400,-177.060
41,77380.878000,207.846,36.141,111.616,320.799,38.226,175.107,-198.780,153.400,-205.060
42,77380.918000,201.950,34.133,114.688,319.001,45.472,172.275,-208.780,77.400,-227.060
43,77380.958000,208.829,37.145,125.952,319.974,47.336,173.310,-71.780,-75.600,-169.060
44,77380.978000,217.674,44.173,138.240,317.171,50.028,172.369,3.220,-133.600,-112.060
45,77381.18000,239.294,53.208,143.360,318.023,43.549,168.254,-25.780,-165.600,-96.060
46,77381.58000,239.294,53.208,150.528,319.936,45.348,165.311,-61.780,-142.600,-74.060
47,77381.99000,235.363,54.212,147.456,322.900,54.547,165.511,-68.780,-94.600,-80.060
48,77381.139000,213.743,50.196,144.384,321.966,55.450,165.529,-89.780,-38.600,-80.060
49,77381.179000,189.175,49.192,134.144,326.647,51.848,165.459,-76.780,-49.600,-81.060
50,77381.219000,166.572,45.176,136.192,326.703,56.351,161.577,-63.780,-74.600,-69.060
51,77381.239000,179.347,50.196,119.808,328.514,50.801,157.483,64.220,-227.600,-23.060
52,77381.279000,236.345,47.184,128.000,325.753,56.299,159.585,-90.780,-71.600,3.940
53,77381.319000,222.587,60.235,136.192,327.654,57.182,156.622,-251.780,11.400,-59.060
54,77381.359000,253.052,58.227,158.720,328.550,53.530,156.546,-179.780,95.400,-49.060
55,77381.400000,227.501,44.173,150.528,325.706,53.434,153.556,-21.780,40.400,-14.060
56,77381.440000,209.812,49.192,141.312,324.768,53.519,158.529,-179.780,24.400,-57.060
57,77381.462000,191.140,53.208,130.048,324.707,48.958,159.427,-117.780,31.400,-47.060
58,77381.513000,181.313,41.161,125.952,321.873,48.979,162.407,-49.780,43.400,-4.060
59,77381.538000,167.555,44.173,124.928,323.803,51.752,162.469,-66.780,-37.600,12.940
60,77381.578000,175.417,42.165,123.904,327.559,49.911,159.451,36.220,-100.600,79.940
61,77381.618000,217.674,44.173,112.640,327.454,42.524,156.310,41.220,-89.600,96.940
62,77381.658000,248.138,38.149,128.000,331.292,46.277,158.385,-16.780,-54.600,88.940
63,77381.698000,218.656,51.200,134.144,327.504,46.188,156.388,-37.780,-58.600,65.940
64,77381.718000,217.674,44.173,129.024,327.457,42.563,158.300,-18.780,-80.600,62.940
65,77381.759000,209.812,42.165,129.024,330.355,47.142,156.413,21.220,-93.600,62.940
66,77381.798000,209.812,43.169,131.072,330.216,37.045,155.203,5.220,-62.600,41.940
67,77381.842000,213.743,44.173,133.120,331.184,38.851,153.254,-13.780,-70.600,38.940
68,77381.878000,216.691,41.161,123.904,333.001,33.379,153.140,-38.780,-90.600,48.940
69,77381.919000,220.622,35.137,113.664,333.932,32.436,151.132,-44.780,-92.600,59.940
70,77381.939000,216.691,36.141,118.784,333.070,38.798,149.277,-15.780,-91.600,45.940
71,77381.979000,211.777,40.157,114.688,335.793,30.551,147.116,18.220,-78.600,46.940
72,77382.19000,209.812,42.165,110.592,334.009,38.732,145.298,-12.780,-97.600,26.940
73,77382.60000,199.002,43.169,106.496,338.705,36.066,146.243,-45.780,-165.600,6.940
74,77382.99000,263.862,34.133,104.448,339.666,37.793,140.313,-103.780,-103.600,12.940
75,77382.139000,225.536,27.106,122.880,336.773,33.273,145.186,-32.780,-28.600,36.940
76,77382.179000,220.622,30.118,119.808,337.652,28.646,142.105,-15.780,-8.600,55.940
77,77382.199000,213.743,31.122,115.712,333.842,26.764,142.059,65.220,1.400,88.940
78,77382.239000,211.777,34.133,116.736,334.818,28.667,145.085,107.220,20.400,90.940
79,77382.279000,212.760,34.133,122.880,335.720,25.853,141.048,118.220,19.400,88.940
80,77382.319000,192.123,40.157,118.784,336.670,25.905,143.040,136.220,-76.600,74.940
81,77382.359000,256.983,42.165,91.136,336.715,29.511,140.133,21.220,-90.600,81.940
82,77382.399000,201.950,6.024,123.904,337.652,28.646,142.105,60.220,15.400,206.940
83,77382.419000,225.536,31.122,117.760,334.763,24.944,142.022,8.220,42.400,165.940
84,77382.459000,210.795,9.035,118.784,336.620,22.240,142.962,53.220,-6.600,206.940
85,77382.499000,197.036,10.039,116.736,336.567,18.537,140.894,63.220,-80.600,96.940
86,77382.539000,208.829,15.059,137.216,336.506,13.975,141.791,103.220,28.400,17.940
87,77382.579000,219.639,6.024,149.504,338.472,19.478,140.916,204.220,26.400,-21.060
88,77382.619000,229.466,5.020,147.456,334.652,16.718,142.841,139.220,27.400,-2.060
89,77382.639000,223.570,3.012,128.000,335.664,21.351,144.931,134.220,-19.600,41.940
90,77382.679000,224.553,0.000,117.760,338.530,23.240,145.970,164.220,-100.600,97.940
91,77382.719000,227.501,0.000,112.640,338.416,14.975,144.799,184.220,-104.600,109.940
92,77382.759000,264.845,12.047,108.544,336.486,12.202,144.737,269.220,-42.600,87.940
93,77382.804000,258.948,45.176,111.616,332.882,25.056,148.984,428.220,-24.600,-56.060
94,77382.842000,210.795,83.325,125.952,329.993,21.354,148.901,467.220,7.400,-195.060
95,77382.883000,200.967,105.412,121.856,330.151,33.205,146.169,315.220,-19.600,-262.060
96,77382.904000,201.950,111.435,118.784,333.082,39.714,149.296,100.220,-102.600,-240.060
97,77382.940000,194.088,106.416,113.664,332.042,33.210,145.178,23.220,-214.600,-175.060
98,77382.980000,204.898,89.349,92.160,336.832,37.814,143.294,-53.780,-318.600,-115.060
99,77383.20000,223.570,100.392,83.968,340.662,42.230,132.452,-15.780,-304.600,-166.060
100,77383.60000,217.674,103.404,86.016,339.721,42.276,135.436,66.220,-283.600,-155.060
101,77383.100000,213.743,98.384,77.824,340.716,46.714,127.574,-52.780,-224.600,-140.060
102,77383.120000,225.536,97.380,78.848,347.271,42.142,123.508,-59.780,-149.600,-118.060
103,77383.160000,260.914,79.310,76.800,347.269,42.123,122.513,-17.780,-63.600,-62.060
104,77383.200000,235.363,72.282,67.584,348.267,45.819,123.588,-24.780,24.400,19.940
105,77383.240000,248.138,52.204,78.848,348.258,44.942,125.559,-11.780,129.400,56.940
106,77383.279000,243.225,55.216,69.632,348.222,42.213,126.495,233.220,152.400,144.940
107,77383.323000,227.501,34.133,77.824,351.080,43.245,130.500,338.220,189.400,102.940
108,77383.363000,251.086,28.110,81.920,345.331,37.712,132.363,590.220,274.400,51.940
109,77383.383000,227.501,34.133,69.632,345.434,45.080,134.509,933.220,237.400,36.940
110,77383.422000,237.328,22.086,72.704,348.353,50.673,137.616,1251.220,146.400,157.940
111,77383.462000,223.570,31.122,54.272,348.382,53.324,132.700,1566.220,-7.600,240.940
112,77383.502000,231.432,42.165,36.864,348.520,63.402,132.914,1777.220,29.400,255.940
113,77383.540000,222.587,91.357,51.200,345.717,66.093,131.973,1737.220,108.400,267.940
114,77383.579000,267.793,102.400,70.656,342.950,71.513,130.095,1136.220,99.400,416.940
115,77383.603000,270.741,102.400,64.512,346.687,68.698,124.073,744.220,-73.600,327.940
116,77383.643000,233.397,105.412,60.416,349.477,65.850,117.054,460.220,-277.600,67.940
117,77383.683000,229.466,95.373,77.824,348.535,66.656,112.096,201.220,-270.600,-118.060
118,77383.723000,215.708,81.318,73.728,355.246,73.917,104.304,63.220,-259.600,-113.060
119,77383.763000,218.656,69.271,68.608,351.356,66.479,101.156,0.220,-256.600,3.940
120,77383.803000,218.656,80.314,66.560,357.915,62.726,92.134,77.220,-263.600,43.940
121,77383.843000,201.950,78.306,66.560,360.875,71.886,90.344,77.220,-264.600,45.940
122,77383.863000,206.864,94.369,59.392,360.770,64.499,87.203,112.220,-167.600,-5.060
123,77383.903000,207.846,100.392,58.368,360.753,63.524,84.198,89.220,-112.600,25.940
124,77383.943000,242.242,108.424,49.152,363.653,68.123,83.305,122.220,-58.600,16.940
125,77383.983000,252.069,102.400,52.224,361.675,62.484,77.215,154.220,-49.600,12.940
126,77384.24000,249.121,95.373,51.200,362.723,69.845,78.367,232.220,-23.600,56.940
127,77384.78000,241.259,100.392,40.960,367.392,65.327,78.278,175.220,-47.600,94.940
128,77384.85000,225.536,102.400,46.080,366.416,63.423,75.252,57.220,-86.600,45.940
129,77384.120000,210.795,102.400,46.080,368.316,64.306,72.290,-1.780,-110.600,-64.060
130,77384.160000,267.793,92.361,39.936,367.291,58.757,70.181,-89.780,-108.600,-121.060
131,77384.200000,265.827,72.282,51.200,372.035,59.736,70.209,-86.780,-32.600,-74.060
132,77384.240000,254.035,60.235,74.752,370.188,63.317,67.299,-148.780,95.400,30.940
133,77384.280000,231.432,38.149,89.088,372.924,55.227,73.098,-31.780,197.400,94.940
134,77384.300000,207.846,48.188,98.304,372.009,57.124,77.116,28.220,236.400,103.940
135,77384.340000,212.760,49.192,91.136,376.687,52.704,82.002,0.220,216.400,131.940
136,77384.384000,212.760,48.188,89.088,374.812,53.653,85.003,-128.780,128.400,210.940
137,77384.424000,229.466,31.122,87.040,370.906,44.501,87.787,-219.780,74.400,265.940
138,77384.464000,245.190,26.102,83.968,374.584,36.364,90.603,-248.780,28.400,244.940
139,77384.504000,251.086,12.047,84.992,370.697,28.965,89.445,-229.780,51.400,257.940
140,77384.544000,250.104,3.012,86.016,375.405,27.215,90.409,-121.780,99.400,282.940
141,77384.564000,245.190,10.039,82.944,372.478,19.985,97.213,-40.780,120.400,228.940
142,77384.604000,236.345,26.102,86.016,370.492,12.709,101.034,-36.780,170.400,161.940
143,77384.644000,246.173,31.122,88.064,369.635,19.129,102.164,-71.780,203.400,106.940
144,77384.680000,247.155,39.153,82.944,367.638,10.957,106.961,-92.780,214.400,33.940
145,77384.720000,231.432,44.173,72.704,364.808,11.017,111.931,-126.780,194.400,-2.060
146,77384.760000,217.674,43.169,70.656,366.807,18.449,116.070,-96.780,130.400,-19.060
147,77384.780000,224.553,63.247,61.440,363.055,20.329,121.078,-122.780,109.400,-107.060
148,77384.827000,226.518,63.247,65.536,360.238,22.084,119.122,-269.780,84.400,-158.060
149,77384.861000,240.276,75.294,69.632,361.264,27.652,122.226,-456.780,-14.600,-201.060
150,77384.902000,230.449,79.310,65.536,360.204,19.375,121.054,-869.780,-124.600,-208.060
151,77384.942000,236.345,50.196,63.488,364.045,23.928,117.178,-1437.780,-134.600,-321.060
152,77384.987000,242.242,39.153,56.320,366.785,16.656,118.022,-1471.780,-168.600,-444.060
153,77385.33000,239.294,31.122,70.656,363.042,20.172,113.118,-1298.780,-217.600,-328.060
154,77385.41000,231.432,43.169,65.536,374.367,18.432,110.113,-1105.780,-338.600,-196.060
155,77385.82000,216.691,30.118,61.440,369.599,16.400,103.101,-1064.780,-446.600,-53.060
156,77385.122000,242.242,25.098,69.632,371.453,14.437,95.105,-819.780,-365.600,-27.060
157,77385.167000,288.430,40.157,65.536,373.314,13.312,83.148,-692.780,-344.600,-11.060
158,77385.201000,287.447,32.125,77.824,373.289,11.479,83.109,-642.780,-259.600,104.940
159,77385.242000,244.207,8.031,75.776,367.481,2.184,79.918,-521.780,-125.600,371.940
160,77385.262000,235.363,25.098,74.752,371.205,-2.327,80.823,-274.780,-62.600,299.940
161,77385.302000,214.726,48.188,74.752,370.110,-13.313,81.582,-134.780,-40.600,352.940
162,77385.354000,220.622,26.102,69.632,372.885,-17.876,80.494,-159.780,-74.600,385.940
163,77385.384000,231.432,26.102,76.800,364.338,-19.879,77.455,-272.780,-52.600,396.940
164,77385.423000,217.674,21.082,70.656,365.113,-32.654,79.173,-356.780,-60.600,346.940
165,77385.463000,213.743,9.035,77.824,367.015,-31.752,77.206,-367.780,0.400,219.940
166,77385.503000,206.864,2.008,80.896,364.024,-42.802,75.972,-335.780,-2.600,191.940
167,77385.523000,226.518,0.000,88.064,363.100,-41.021,74.019,-285.780,-1.600,73.940
168,77385.563000,250.104,-2.008,79.872,359.250,-45.672,72.920,-302.780,-108.600,24.940
169,77385.603000,268.775,-17.067,70.656,361.150,-44.789,69.958,-301.780,-140.600,-45.060
170,77385.643000,261.896,-29.114,82.944,359.273,-43.859,71.964,-88.780,-71.600,-75.060
171,77385.683000,264.845,-33.129,84.992,362.089,-45.634,72.925,37.220,-137.600,-28.060
172,77385.723000,257.965,-32.125,78.848,357.342,-46.652,70.907,239.220,-122.600,21.940
173,77385.743000,239.294,-26.102,71.680,359.281,-43.001,68.998,407.220,-99.600,10.940
174,77385.783000,288.430,-15.059,52.224,360.212,-44.704,74.931,587.220,32.400,76.940
175,77385.823000,256.983,0.000,60.416,361.254,-38.181,80.045,718.220,52.400,-12.060
176,77385.861000,252.069,33.129,58.368,354.603,-40.900,85.945,855.220,46.400,-18.060
177,77385.902000,223.570,64.251,71.680,358.532,-30.694,90.146,873.220,151.400,-151.060
178,77385.942000,217.674,88.345,64.512,353.936,-21.478,96.304,643.220,123.400,-237.060
179,77385.982000,222.587,90.353,57.344,354.959,-15.949,97.417,373.220,28.400,-348.060
180,77386.2000,210.795,73.286,49.152,354.114,-8.613,98.567,330.220,-90.600,-345.060
181,77386.47000,231.432,64.251,33.792,356.985,-5.886,95.645,275.220,-171.600,-341.060
182,77386.82000,239.294,83.325,33.792,356.237,8.740,94.961,293.220,-194.600,-428.060
183,77386.122000,241.259,86.337,30.720,361.957,12.382,90.074,317.220,-286.600,-356.060
184,77386.165000,234.380,88.345,20.480,362.925,14.188,88.124,274.220,-330.600,-299.060
185,77386.201000,245.190,86.337,27.648,363.056,24.187,84.359,164.220,-208.600,-275.060
186,77386.221000,274.672,88.345,37.888,363.972,22.309,81.336,199.220,-49.600,-183.060
187,77386.278000,265.827,82.322,38.912,365.048,32.301,76.577,197.220,-51.600,-146.060
188,77386.304000,248.138,65.255,23.552,365.058,33.198,75.602,130.220,3.400,-36.060
189,77386.344000,215.708,74.290,28.672,364.116,33.224,77.590,132.220,51.400,-5.060
190,77386.382000,214.726,68.267,39.936,364.080,30.496,78.527,82.220,57.400,180.940
191,77386.424000,243.225,53.208,32.768,369.706,26.886,77.464,-100.780,45.400,253.940
192,77386.464000,245.190,59.231,40.960,365.761,14.966,79.193,-164.780,96.400,328.940
193,77386.487000,249.121,49.192,39.936,366.636,9.521,81.068,-158.780,41.400,455.940
194,77386.527000,240.276,27.106,25.600,370.336,3.957,74.987,-227.780,-114.600,480.940
195,77386.567000,229.466,29.114,15.360,368.228,-11.682,72.662,-281.780,-186.600,441.940
196,77386.607000,232.415,10.039,19.456,367.257,-12.747,65.675,-337.780,-221.600,387.940
197,77386.647000,232.415,2.008,26.624,369.899,-26.569,59.417,-331.780,-267.600,328.940
198,77386.684000,267.793,3.012,24.576,369.925,-23.957,52.510,-230.780,-317.600,250.940
199,77386.704000,280.568,0.000,20.480,372.670,-29.631,41.453,-194.780,-375.600,91.940
200,77386.745000,277.620,11.043,21.504,372.655,-29.806,32.497,-161.780,-445.600,-155.060
201,77386.785000,250.104,41.161,32.768,371.736,-27.188,26.584,-180.780,-343.600,-385.060
202,77386.825000,235.363,23.090,53.248,375.627,-18.210,14.845,-385.780,-334.600,-336.060
203,77386.865000,232.415,14.055,37.888,377.479,-20.193,5.854,-621.780,-309.600,-301.060
204,77386.904000,258.948,16.063,30.720,378.541,-11.137,0.080,-593.780,-262.600,-279.060
205,77386.924000,247.155,16.063,39.936,379.614,-1.164,-5.674,-495.780,-186.600,-240.060
206,77386.964000,229.466,34.133,43.008,381.486,-2.152,-10.665,-409.780,-194.600,-256.060
207,77387.12000,238.311,36.141,33.792,381.639,9.640,-16.382,-338.780,-195.600,-214.060
208,77387.45000,232.415,31.122,25.600,383.511,8.651,-21.373,-276.780,-155.600,-149.060
209,77387.85000,261.896,64.251,24.576,382.522,5.832,-24.419,-212.780,-57.600,-174.060
210,77387.125000,249.121,45.176,26.624,379.753,11.233,-27.292,-176.780,-128.600,-102.060
211,77387.165000,251.086,51.200,17.408,384.579,18.566,-30.112,-182.780,-175.600,-73.060
212,77387.185000,260.914,60.235,4.096,378.777,10.109,-37.263,-328.780,-158.600,-57.060
213,77387.225000,248.138,71.278,13.312,383.640,20.171,-41.021,-423.780,-151.600,-93.060
214,77387.264000,232.415,64.251,13.312,382.635,16.396,-46.076,-700.780,-136.600,-124.060
215,77387.304000,289.413,48.188,-11.264,382.679,19.223,-42.037,-800.780,-75.600,-177.060
216,77387.344000,269.758,34.133,18.432,384.757,33.730,-50.677,-878.780,-16.600,-141.060
217,77387.384000,275.655,19.075,23.552,385.669,31.033,-48.744,-846.780,14.400,100.940
218,77387.404000,243.225,-23.090,30.720,383.723,27.305,-50.815,-731.780,40.400,278.940
219,77387.444000,228.484,-25.098,37.888,386.503,22.801,-48.918,-337.780,179.400,401.940
220,77387.484000,232.415,-13.051,31.744,386.247,3.640,-45.347,-217.780,186.400,528.940
221,77387.523000,241.259,-36.141,26.624,388.102,0.917,-45.402,-251.780,244.400,579.940
222,77387.568000,256.983,-34.133,16.384,385.175,-6.313,-38.598,-280.780,204.400,596.940
223,77387.603000,257.965,-39.153,33.792,388.740,-22.695,-35.958,-282.780,185.400,530.940
224,77387.644000,256.000,-56.220,37.888,387.744,-26.372,-36.037,-229.780,163.400,580.940
225,77387.664000,252.069,-68.267,31.744,387.486,-45.553,-33.462,-132.780,-35.600,589.940
226,77387.704000,247.155,-61.239,24.576,383.693,-45.700,-38.444,-63.780,-86.600,511.940
227,77387.745000,262.879,-65.255,18.432,380.734,-54.840,-35.659,34.220,-12.600,393.940
228,77387.785000,267.793,-43.169,32.768,380.599,-64.879,-33.884,-22.780,5.400,270.940
229,77387.833000,248.138,-31.122,32.768,379.666,-63.975,-33.866,-52.780,54.400,163.940
230,77387.867000,235.363,-37.145,19.456,375.868,-64.941,-33.892,-17.780,-59.600,61.940
231,77387.899000,233.397,-23.090,13.312,380.590,-65.756,-31.913,-95.780,-5.600,-70.060
232,77387.924000,243.225,-10.039,12.288,376.869,-61.206,-30.827,-105.780,-7.600,-223.060
233,77387.964000,243.225,-18.071,26.624,380.761,-53.749,-26.684,-211.780,73.400,-326.060
234,77388.4000,242.242,-14.055,16.384,380.797,-51.020,-27.620,-188.780,-83.600,-404.060
235,77388.50000,241.259,-12.047,5.120,379.916,-45.653,-33.475,-167.780,-193.600,-386.060
236,77388.85000,237.328,-16.063,5.120,378.188,-32.969,-39.176,-135.780,-149.600,-354.060
237,77388.125000,239.294,-17.067,7.168,379.127,-33.814,-36.208,-111.780,-176.600,-356.060
238,77388.145000,237.328,-2.008,7.168,382.050,-27.402,-38.057,8.220,-209.600,-332.060
239,77388.185000,270.741,-6.024,10.240,381.236,-17.396,-40.829,-20.780,-129.600,-228.060
240,77388.225000,289.413,-12.047,11.264,377.457,-16.608,-44.796,133.220,-202.600,-29.060
241,77388.267000,275.655,-13.051,19.456,378.409,-15.757,-48.755,294.220,-221.600,226.940
242,77388.307000,245.190,-4.016,25.600,378.321,-22.950,-41.946,440.220,-79.600,363.940
243,77388.344000,241.259,0.000,37.888,374.390,-33.935,-39.202,591.220,9.400,227.940
244,77388.364000,239.294,20.078,31.744,373.435,-34.825,-37.233,779.220,9.400,171.940
245,77388.407000,233.397,11.043,29.696,374.300,-41.147,-33.388,613.220,-24.600,167.940
246,77388.446000,244.207,5.020,23.552,373.387,-39.230,-28.375,537.220,88.400,44.940
247,77388.487000,241.259,14.055,28.672,373.371,-40.964,-23.439,614.220,137.400,22.940
248,77388.528000,235.363,13.051,35.840,373.443,-36.266,-17.371,500.220,249.400,-36.060
249,77388.568000,239.294,12.047,36.864,369.685,-35.225,-8.403,494.220,237.400,-63.060
250,77388.608000,252.069,23.090,26.624,372.499,-37.799,-1.491,340.220,209.400,-140.060
251,77388.628000,258.948,7.027,13.312,369.663,-37.797,0.494,72.220,74.400,-180.060
252,77388.667000,261.896,1.004,16.384,371.541,-38.708,-0.517,71.220,50.400,-177.060
253,77388.707000,272.706,-16.063,40.960,366.942,-29.531,3.650,-30.780,146.400,-174.060
254,77388.746000,262.879,0.000,41.984,374.561,-26.546,10.687,119.220,51.400,-144.060
255,77388.787000,252.069,2.008,41.984,373.588,-28.410,9.652,299.220,28.400,-77.060
256,77388.827000,232.415,-7.027,37.888,372.645,-28.384,11.640,365.220,31.400,-54.060
257,77388.846000,274.672,-8.031,16.384,371.795,-21.886,16.750,561.220,154.400,18.940
258,77388.892000,268.775,8.031,35.840,366.004,-30.986,23.511,594.220,101.400,-12.060
259,77388.929000,261.896,40.157,34.816,369.933,-20.780,27.712,743.220,65.400,0.940
260,77388.964000,230.449,52.204,30.720,367.046,-24.463,28.624,783.220,68.400,-14.060
261,77389.5000,219.639,81.318,22.528,366.189,-18.803,37.695,677.220,115.400,-112.060
262,77389.45000,214.726,102.400,19.456,362.434,-16.962,40.713,286.220,176.400,-279.060
263,77389.69000,231.432,83.325,25.600,364.382,-13.214,43.779,206.220,135.400,-337.060
264,77389.108000,240.276,88.345,19.456,368.319,-2.151,45.015,86.220,23.400,-358.060
265,77389.148000,249.121,90.353,18.432,369.290,-0.306,45.056,-26.780,-67.600,-365.060
266,77389.194000,238.311,90.353,24.576,366.564,7.902,45.226,91.220,-125.600,-326.060
267,77389.229000,248.138,92.361,15.360,371.385,15.176,39.421,64.220,-148.600,-270.060
268,77389.269000,248.138,89.349,20.480,370.434,15.105,36.434,-28.780,-144.600,-247.060
269,77389.309000,273.689,77.302,25.600,373.371,22.452,35.600,-11.780,-54.600,-100.060
270,77389.329000,263.862,54.212,20.480,372.432,23.297,32.632,6.220,1.400,-51.060
271,77389.376000,237.328,67.263,19.456,371.478,22.427,35.596,51.220,50.400,-63.060
272,77389.412000,236.345,52.204,24.576,373.368,22.413,33.610,64.220,95.400,67.940
273,77389.448000,242.242,57.224,14.336,374.325,23.322,32.636,-58.780,26.400,113.940
274,77389.495000,253.052,61.239,9.216,372.300,13.278,35.403,-14.780,72.400,237.940
275,77389.525000,246.173,42.165,14.336,375.130,12.439,37.379,-67.780,26.400,382.940
276,77389.545000,234.380,28.110,6.144,372.041,-5.142,30.037,-112.780,-74.600,426.940
277,77389.590000,229.466,26.102,-6.144,378.651,-5.990,29.034,-122.780,-174.600,380.940
278,77389.627000,229.466,16.063,0.000,375.767,-8.873,23.996,-160.780,-240.600,324.940
279,77389.665000,230.449,6.024,4.096,375.605,-20.004,16.796,-234.780,-291.600,266.940
280,77389.710000,278.603,5.020,12.288,372.803,-16.533,8.909,-201.780,-281.600,156.940
281,77389.750000,282.534,5.020,13.312,374.613,-21.323,-3.126,-280.780,-423.600,7.940
282,77389.785000,264.845,30.118,7.168,376.566,-15.976,-11.961,-450.780,-501.600,-217.060
283,77389.815000,262.879,34.133,14.336,375.704,-8.836,-20.762,-550.780,-356.600,-347.060
284,77389.858000,259.931,9.035,33.792,375.668,-10.804,-27.767,-606.780,-160.600,-257.060
285,77389.890000,254.035,10.039,27.648,375.733,-5.425,-33.620,-636.780,-133.600,-243.060
286,77389.925000,249.121,24.094,34.816,380.661,9.257,-35.290,-459.780,61.400,-217.060
287,77389.969000,245.190,24.094,41.984,379.664,5.580,-35.369,-462.780,157.400,-223.060
288,77390.9000,238.311,30.118,49.152,378.905,18.530,-28.132,-405.780,301.400,-264.060
289,77390.29000,226.518,37.145,54.272,379.926,24.039,-28.014,-365.780,385.400,-311.060
290,77390.69000,247.155,52.204,30.720,382.891,32.478,-19.872,-170.780,466.400,-435.060
291,77390.109000,243.225,52.204,31.744,377.225,32.540,-12.917,-172.780,423.400,-372.060
292,77390.149000,249.121,77.302,28.672,381.227,47.443,-2.648,2.220,550.400,-402.060
293,77390.188000,245.190,71.278,31.744,383.168,50.353,4.380,-174.780,522.400,-349.060
294,77390.228000,247.155,75.294,34.816,382.268,53.186,9.412,-224.780,583.400,-287.060
295,77390.268000,235.363,93.365,41.984,383.378,63.589,25.549,-416.780,608.400,-285.060
296,77390.288000,221.605,71.278,56.320,380.546,63.629,29.524,-534.780,589.400,-275.060
297,77390.337000,294.326,79.310,84.992,382.589,73.108,44.649,-564.780,732.400,-335.060
298,77390.370000,252.069,50.196,94.208,380.727,74.214,55.610,-531.780,631.400,-289.060
299,77390.408000,229.466,16.063,96.256,382.644,75.292,62.599,-532.780,627.400,-132.060
300,77390.466000,218.656,1.004,106.496,377.976,78.290,78.570,-457.780,650.400,30.940
301,77390.489000,202.933,1.004,131.072,375.984,69.396,93.297,-225.780,703.400,128.940
302,77390.509000,223.570,9.035,144.384,370.351,71.388,105.267,-132.780,688.400,194.940
303,77390.549000,205.881,3.012,140.288,373.106,64.291,115.066,-142.780,577.400,267.940
304,77390.590000,200.967,4.016,143.360,369.172,52.488,122.766,-194.780,539.400,353.940
305,77390.630000,206.864,-19.075,147.456,368.161,47.096,128.618,-152.780,359.400,422.940
306,77390.667000,203.916,-15.059,143.360,368.083,40.800,134.452,27.220,174.400,492.940
307,77390.706000,213.743,-24.094,141.312,365.069,27.936,134.173,81.220,63.400,516.940
308,77390.746000,214.726,-24.094,139.264,365.983,25.259,137.102,126.220,-29.600,496.940
309,77390.767000,208.829,-10.039,141.312,366.758,12.485,138.820,47.220,-37.600,425.940
310,77390.807000,232.415,0.000,145.408,365.713,5.163,139.657,3.220,-16.600,313.940
311,77390.846000,230.449,16.063,133.120,363.805,4.183,137.644,-79.780,-17.600,189.940
312,77390.887000,223.570,9.035,126.976,364.673,-2.101,143.480,-210.780,-11.600,116.940
313,77390.927000,213.743,6.024,113.664,360.892,-1.332,138.517,-205.780,-55.600,64.940
314,77390.966000,209.812,22.086,108.544,364.625,-5.746,144.397,-130.780,-12.600,-37.060
315,77390.986000,224.553,12.047,122.880,362.768,-3.042,143.457,-61.780,29.400,-153.060
316,77391.26000,231.432,29.114,116.736,362.781,-2.126,143.476,58.220,33.400,-285.060
317,77391.67000,210.795,28.110,111.616,360.131,11.598,144.759,66.220,-9.600,-352.060
318,77391.106000,205.881,26.102,103.424,360.181,15.263,144.837,88.220,-99.600,-306.060
319,77391.146000,209.812,31.122,102.400,361.116,14.379,145.815,101.220,-167.600,-244.060
320,77391.188000,225.536,28.110,103.424,364.943,17.996,140.924,115.220,-221.600,-147.060
321,77391.208000,227.501,19.075,105.472,361.166,18.803,137.952,97.220,-225.600,-58.060
322,77391.248000,222.587,27.106,116.736,364.006,18.860,138.952,271.220,-226.600,48.940
323,77391.288000,235.363,19.075,109.568,362.077,16.866,131.944,233.220,-271.600,130.940
324,77391.326000,259.931,36.141,114.688,361.177,20.479,130.030,331.220,-274.600,193.940
325,77391.368000,283.516,33.129,111.616,363.986,18.626,127.011,318.220,-232.600,280.940
326,77391.408000,216.691,22.086,115.712,365.874,18.592,124.029,520.220,-132.600,351.940
327,77391.448000,194.088,54.212,125.952,361.958,8.543,127.788,520.220,-82.600,332.940
328,77391.468000,208.829,48.188,106.496,362.912,9.413,124.824,373.220,-206.600,328.940
329,77391.508000,207.846,40.157,103.424,363.762,2.915,119.714,332.220,-221.600,273.940
330,77391.548000,218.656,43.169,111.616,364.737,4.799,121.745,373.220,-149.600,194.940
331,77391.588000,206.864,52.204,107.520,360.030,6.569,121.775,495.220,-125.600,151.940
332,77391.632000,210.795,51.200,105.472,361.844,1.058,119.672,481.220,-80.600,160.940
333,77391.672000,247.155,29.114,97.280,360.029,6.549,120.780,440.220,-128.600,169.940
334,77391.692000,234.380,33.129,90.112,361.880,3.787,118.735,484.220,-215.600,163.940
335,77391.733000,257.965,28.110,87.040,360.896,1.026,118.675,421.220,-255.600,138.940
336,77391.773000,252.069,27.106,82.944,360.888,0.928,113.700,408.220,-308.600,100.940
337,77391.809000,249.121,26.102,78.848,360.921,3.618,110.773,390.220,-310.600,82.940
338,77391.849000,235.363,34.133,81.920,361.794,-1.067,104.707,356.220,-210.600,118.940
339,77391.889000,223.570,30.118,90.112,360.861,-0.164,104.725,437.220,-166.600,192.940
340,77391.928000,252.069,7.027,83.968,360.764,-7.454,106.559,539.220,-82.600,336.940
341,77391.948000,238.311,22.086,59.392,357.925,-7.491,106.554,627.220,-120.600,354.940
342,77391.988000,241.259,56.220,50.176,356.929,-11.168,106.474,792.220,-67.600,311.940
343,77392.34000,239.294,75.294,48.128,357.978,-3.788,108.622,944.220,-31.600,195.940
344,77392.69000,233.397,88.345,57.344,355.069,-9.263,111.485,788.220,53.400,62.940
345,77392.109000,233.397,106.416,61.440,352.362,-0.061,115.655,626.220,-0.600,-55.060
346,77392.149000,230.449,105.412,57.344,355.226,1.808,115.699,295.220,-88.600,-193.060
347,77392.169000,221.605,86.337,29.696,358.140,7.343,115.821,185.220,-269.600,-231.060
348,77392.209000,233.397,90.353,16.384,360.157,17.289,108.079,39.220,-321.600,-279.060
349,77392.249000,232.415,105.412,19.456,365.818,17.169,98.138,92.220,-423.600,-363.060
350,77392.289000,234.380,102.400,18.432,364.026,25.252,91.345,57.220,-513.600,-314.060
351,77392.334000,241.259,99.388,13.312,369.711,26.945,80.449,-141.780,-479.600,-292.060
352,77392.368000,259.931,91.357,12.288,367.912,34.171,76.621,-209.780,-457.600,-247.060
353,77392.408000,289.413,84.329,19.456,368.916,39.485,66.789,-109.780,-330.600,-235.060
354,77392.428000,265.827,72.282,8.192,372.704,40.334,60.845,-109.780,-387.600,-166.060
355,77392.473000,223.570,62.243,-13.312,372.650,37.391,50.836,-147.780,-341.600,-108.060
356,77392.508000,221.605,62.243,-1.024,375.455,35.498,45.827,-251.780,-190.600,-5.060
357,77392.553000,216.691,59.231,19.456,379.355,43.813,47.004,-302.780,-38.600,178.940
358,77392.593000,238.311,49.192,16.384,376.336,30.891,43.741,-394.780,-1.600,248.940
359,77392.628000,245.190,61.239,17.408,378.254,32.748,43.783,-238.780,36.400,322.940
360,77392.650000,245.190,35.137,15.360,376.158,18.026,41.478,-147.780,-68.600,373.940
361,77392.690000,234.380,34.133,-1.024,376.113,15.200,37.439,-149.780,-146.600,390.940
362,77392.731000,232.415,22.086,-2.048,375.073,8.696,33.320,-207.780,-213.600,376.940
363,77392.772000,226.518,20.078,3.072,377.802,1.288,27.199,-153.780,-257.600,332.940
364,77392.819000,230.449,10.039,6.144,376.765,-4.397,18.125,-109.780,-312.600,299.940
365,77392.848000,296.292,5.020,8.192,379.552,-7.284,9.115,-88.780,-285.600,216.940
366,77392.888000,292.361,19.075,2.048,377.548,-14.775,1.991,-72.780,-420.600,-29.060
367,77392.913000,270.741,61.239,12.288,381.443,-5.739,-6.763,-169.780,-422.600,-386.060
368,77392.953000,256.000,35.137,34.816,375.818,-1.350,-12.646,-116.780,-339.600,-268.060
369,77392.993000,254.035,17.067,32.768,379.686,5.834,-22.434,-362.780,-308.600,-162.060
370,77393.69000,242.242,26.102,19.456,378.689,2.917,-30.454,-398.780,-223.600,-118.060
371,77393.85000,231.432,37.145,28.672,379.707,8.387,-32.326,-353.780,-130.600,-97.060
372,77393.110000,226.518,39.153,27.648,376.938,13.788,-35.199,-385.780,-79.600,-111.060
373,77393.130000,225.536,40.157,22.528,377.969,20.174,-37.050,-390.780,-41.600,-114.060
374,77393.170000,233.397,47.184,17.408,378.015,23.799,-38.962,-390.780,-24.600,-140.060
375,77393.210000,248.138,58.227,23.552,378.880,18.237,-43.058,-219.780,0.400,-107.060
376,77393.250000,254.035,51.200,20.480,378.892,19.153,-43.039,-147.780,-32.600,-73.060
377,77393.290000,252.069,64.251,19.456,379.784,15.443,-46.100,-142.780,-46.600,-53.060
378,77393.330000,258.948,62.243,8.192,378.005,23.682,-44.933,-184.780,-75.600,18.940
379,77393.350000,262.879,72.282,1.024,380.886,27.287,-49.825,-276.780,-72.600,33.940
380,77393.391000,253.052,69.271,9.216,380.802,21.692,-54.917,-488.780,-37.600,26.940
381,77393.439000,238.311,65.255,14.336,380.915,29.938,-54.742,-537.780,-62.600,3.940
382,77393.473000,228.484,63.247,11.264,380.839,25.201,-62.800,-614.780,-69.600,-1.060
383,77393.513000,256.000,58.227,-14.336,379.995,32.537,-61.650,-740.780,-75.600,-28.060
384,77393.553000,263.862,39.153,2.048,379.102,36.228,-59.584,-814.780,8.400,-20.060
385,77393.592000,264.845,20.078,14.336,383.794,33.523,-60.629,-915.780,15.400,43.940
386,77393.613000,250.104,-18.071,34.816,382.809,30.742,-61.684,-763.780,113.400,243.940
387,77393.653000,228.484,-32.125,56.320,385.620,28.148,-55.767,-488.780,209.400,380.940
388,77393.690000,216.691,-30.118,54.272,385.572,24.503,-54.850,-107.780,275.400,438.940
389,77393.729000,249.121,-29.114,30.720,385.403,11.756,-51.144,-80.780,208.400,440.940
390,77393.769000,257.965,-27.106,27.648,387.231,6.401,-45.287,-140.780,207.400,462.940
391,77393.809000,259.931,-47.184,29.696,386.084,-8.270,-45.601,-181.780,136.400,527.940
392,77393.834000,262.879,-51.200,24.576,384.127,-13.675,-39.751,-67.780,88.400,519.940
393,77393.874000,262.879,-56.220,20.480,385.857,-25.559,-40.001,69.220,58.400,542.940
394,77393.909000,252.069,-51.200,23.552,382.948,-31.035,-37.138,97.220,11.400,527.940
395,77393.950000,273.689,-39.153,27.648,380.868,-44.802,-37.434,62.220,87.400,463.940
396,77393.990000,255.017,-11.043,32.768,378.910,-50.207,-31.584,-41.780,36.400,284.940
397,77394.30000,235.363,-26.102,17.408,377.906,-54.741,-28.699,-30.780,-27.600,212.940
398,77394.69000,229.466,-10.039,4.096,377.831,-60.238,-28.816,-17.780,-13.600,62.940
399,77394.93000,251.086,2.008,4.096,379.821,-52.923,-30.646,-41.780,63.400,-106.060
400,77394.129000,246.173,-8.031,26.624,380.774,-52.833,-26.664,-61.780,115.400,-225.060
401,77394.169000,248.138,-9.035,27.648,379.972,-42.689,-22.471,-42.780,41.400,-320.060
402,77394.214000,246.173,-1.004,15.360,379.047,-40.909,-24.424,-9.780,-61.600,-354.060
403,77394.254000,249.121,-6.024,2.048,382.846,-39.923,-23.403,62.220,-117.600,-365.060
404,77394.294000,242.242,-2.008,5.120,379.261,-25.315,-23.097,105.220,-59.600,-325.060
405,77394.313000,247.155,3.012,6.144,380.227,-23.529,-26.042,136.220,-102.600,-285.060
406,77394.350000,238.311,-3.012,7.168,382.231,-15.278,-26.858,162.220,-177.600,-171.060
407,77394.390000,254.035,7.027,19.456,374.606,-19.861,-21.993,233.220,-2.600,-86.060
408,77394.434000,274.672,16.063,17.408,376.510,-18.940,-22.965,321.220,-97.600,43.940
409,77394.474000,283.516,7.027,14.336,377.447,-19.804,-20.993,325.220,-45.600,244.940
410,77394.510000,239.294,-6.024,20.480,381.184,-23.399,-20.070,406.220,-18.600,399.940
411,77394.550000,244.207,9.035,31.744,375.320,-37.197,-19.377,501.220,10.400,360.940
412,77394.570000,237.328,18.071,37.888,372.479,-38.033,-13.431,615.220,33.400,281.940
413,77394.610000,234.380,21.082,32.768,372.414,-43.413,-7.578,656.220,20.400,253.940
414,77394.654000,243.225,9.035,28.672,369.512,-48.031,-7.681,543.220,54.400,254.940
415,77394.694000,237.328,6.024,33.792,369.431,-54.366,-3.837,444.220,104.400,264.940
416,77394.734000,226.518,7.027,33.792,368.497,-54.242,3.127,429.220,110.400,206.940
417,77394.774000,241.259,4.016,40.960,367.473,-60.550,8.959,385.220,141.400,121.940
418,77394.794000,271.724,-10.039,48.128,368.388,-63.208,12.882,307.220,157.400,137.940
419,77394.834000,266.810,-11.043,45.056,364.631,-61.387,14.904,222.220,41.400,51.940
420,77394.874000,271.724,-16.063,32.768,367.464,-62.187,18.870,219.220,-48.600,-11.060
421,77394.914000,270.741,-14.055,31.744,366.576,-57.678,15.981,252.220,-78.600,-49.060
422,77394.953000,256.000,-23.090,33.792,363.704,-60.405,18.902,241.220,-137.600,-24.060
423,77394.993000,245.190,-21.082,33.792,365.663,-55.760,20.994,386.220,-97.600,-0.060
424,77395.13000,229.466,-18.071,34.816,365.634,-57.632,18.964,473.220,-29.600,24.940
425,77395.53000,247.155,-32.125,20.480,361.868,-56.687,22.957,662.220,148.400,100.940
426,77395.93000,287.447,-37.145,18.432,359.946,-60.143,34.817,739.220,168.400,167.940
427,77395.131000,259.931,-5.020,25.600,359.011,-60.019,41.780,890.220,185.400,127.940
428,77395.171000,270.741,1.004,27.648,357.099,-62.577,52.664,1112.220,147.400,209.940
429,77395.211000,232.415,23.090,13.312,358.109,-58.744,60.704,1169.220,64.400,119.940
430,77395.250000,231.432,59.231,26.624,358.185,-54.007,68.762,955.220,202.400,-90.060
431,77395.270000,237.328,64.251,21.504,353.422,-56.740,72.676,737.220,108.400,-248.060
432,77395.310000,238.311,62.243,19.456,352.695,-41.100,76.986,538.220,-29.600,-327.060
433,77395.350000,244.207,49.192,-1.024,361.207,-41.046,74.016,352.220,-137.600,-356.060
434,77395.390000,252.069,58.227,-9.216,357.633,-25.542,73.346,264.220,-195.600,-437.060
435,77395.430000,245.190,66.259,-8.192,362.443,-19.164,68.516,214.220,-249.600,-417.060
436,77395.470000,266.810,60.235,-7.168,363.447,-14.629,65.630,34.220,-226.600,-366.060
437,77395.495000,274.672,48.188,3.072,361.618,-9.294,58.778,-30.780,-169.600,-333.060
438,77395.535000,274.672,43.169,6.144,368.317,-3.710,58.907,-82.780,-51.600,-268.060
439,77395.591000,261.896,38.149,16.384,365.460,-5.501,62.843,25.220,158.400,-209.060
440,77395.615000,237.328,53.208,36.864,366.538,3.750,67.020,-9.780,279.400,-247.060
441,77395.651000,236.345,47.184,34.816,364.598,0.100,68.929,-62.780,356.400,-74.060
442,77395.691000,256.000,23.090,29.696,364.624,1.172,76.909,-179.780,382.400,7.940
443,77395.731000,251.086,42.165,20.480,363.738,4.941,82.955,-111.780,317.400,53.940
444,77395.753000,248.138,35.137,23.552,363.649,-1.491,81.824,-198.780,215.400,187.940
445,77395.793000,238.311,26.102,13.312,363.602,-5.117,83.736,-331.780,67.400,212.940
446,77395.833000,233.397,15.059,16.384,362.617,-7.897,82.681,-418.780,-4.600,194.940
447,77395.873000,224.553,11.043,24.576,362.492,-16.279,75.540,-413.780,-63.600,124.940
448,77395.913000,215.708,0.000,30.720,363.376,-20.847,75.444,-379.780,-90.600,128.940
449,77395.953000,266.810,-5.020,33.792,367.219,-16.275,72.563,-256.780,-79.600,125.940
450,77395.973000,294.326,-7.027,38.912,368.928,-29.173,67.318,-438.780,-282.600,78.940
451,77396.14000,291.378,5.020,46.080,366.149,-23.890,58.474,-284.780,-319.600,-308.060
452,77396.54000,256.000,33.129,38.912,370.961,-16.732,46.698,-251.780,-605.600,-482.060
453,77396.94000,231.432,32.125,50.176,374.795,-11.498,30.901,-340.780,-544.600,-439.060
454,77396.134000,231.432,20.078,35.840,373.084,2.921,20.264,-627.780,-305.600,-444.060
455,77396.174000,238.311,31.122,48.128,373.100,4.655,15.328,-541.780,-380.600,-378.060
456,77396.214000,237.328,35.137,28.672,376.946,10.027,6.496,-545.780,-321.600,-355.060
457,77396.233000,236.345,28.110,32.768,377.000,14.510,1.618,-466.780,-185.600,-258.060
458,77396.275000,248.138,35.137,26.624,373.208,14.382,-2.368,-377.780,-150.600,-237.060
459,77396.320000,253.052,52.204,33.792,376.952,11.644,-4.410,-181.780,-134.600,-198.060
460,77396.354000,262.879,59.231,31.744,373.319,23.387,-10.134,-60.780,-197.600,-237.060
461,77396.394000,254.035,55.216,26.624,378.091,26.997,-16.018,-65.780,-207.600,-156.060
462,77396.434000,242.242,63.247,20.480,379.072,29.719,-17.948,-48.780,-91.600,-197.060
463,77396.455000,240.276,76.298,9.216,380.104,36.124,-18.804,-91.780,-5.600,-170.060
464,77396.495000,241.259,85.333,9.216,378.194,35.125,-21.812,-302.780,-30.600,-116.060
465,77396.535000,239.294,85.333,11.264,380.147,39.711,-22.706,-641.780,-64.600,-66.060
466,77396.576000,219.639,88.345,26.624,379.210,40.576,-24.679,-786.780,-69.600,-90.060
467,77396.611000,227.501,72.282,8.192,377.325,41.408,-27.648,-874.780,-80.600,-95.060
468,77396.651000,262.879,60.235,17.408,379.286,46.852,-31.507,-1098.780,-26.600,-196.060
469,77396.671000,264.845,43.169,19.456,381.305,56.058,-30.314,-1072.780,-40.600,-208.060
470,77396.725000,273.689,42.165,33.792,380.334,54.213,-30.355,-1229.780,-47.600,-172.060
471,77396.754000,255.017,0.000,29.696,385.154,60.708,-29.215,-1099.780,34.400,17.940
472,77396.794000,253.052,-18.071,56.320,383.210,56.999,-30.291,-840.780,132.400,204.940
473,77396.840000,235.363,-14.055,55.296,382.180,50.612,-28.439,-520.780,32.400,245.940
474,77396.874000,256.983,3.012,29.696,385.024,50.709,-25.449,-524.780,64.400,223.940
475,77396.916000,263.862,-8.031,36.864,383.931,39.741,-23.695,-634.780,89.400,295.940
476,77396.936000,260.914,-20.078,34.816,383.916,38.806,-24.709,-623.780,7.400,382.940
477,77396.976000,264.845,-29.114,28.672,384.814,35.173,-23.791,-448.780,-29.600,446.940
478,77397.17000,260.914,-31.122,18.432,385.582,22.321,-26.052,-261.780,-85.600,598.940
479,77397.56000,256.000,-21.082,21.504,381.611,8.548,-25.357,-139.780,-79.600,634.940
480,77397.96000,275.655,-3.012,27.648,385.301,1.328,-22.521,-64.780,16.400,596.940
481,77397.138000,243.225,-10.039,24.576,378.385,-19.889,-25.967,-52.780,-76.600,568.940
482,77397.153000,215.708,-14.055,19.456,382.168,-19.859,-26.955,91.220,-90.600,474.940
483,77397.193000,223.570,0.000,17.408,380.250,-22.496,-20.052,179.220,14.400,253.940
484,77397.233000,252.069,-2.008,32.768,381.046,-33.477,-20.284,194.220,74.400,123.940
485,77397.273000,243.225,-8.031,45.056,377.269,-33.429,-15.316,226.220,94.400,-22.060
486,77397.313000,250.104,-7.027,31.744,378.308,-26.945,-12.192,174.220,16.400,-136.060
487,77397.356000,243.225,-15.059,25.600,378.269,-29.713,-13.246,142.220,-19.600,-162.060
488,77397.403000,244.207,-2.008,20.480,378.361,-23.241,-10.124,172.220,-27.600,-205.060
489,77397.413000,245.190,-7.027,19.456,377.503,-16.841,-9.989,210.220,-69.600,-166.060
490,77397.453000,238.311,-14.055,24.576,378.476,-14.977,-8.953,278.220,-89.600,-144.060
491,77397.493000,235.363,7.027,31.744,378.447,-16.848,-10.982,414.220,-98.600,-159.060
492,77397.536000,263.862,13.051,24.576,376.510,-20.479,-8.079,499.220,-69.600,-87.060
493,77397.576000,297.274,5.020,21.504,376.577,-15.840,-4.996,623.220,62.400,13.940
494,77397.616000,275.655,2.008,46.080,375.664,-13.922,0.017,617.220,41.400,278.940
495,77397.635000,244.207,-13.051,46.080,375.496,-26.670,3.724,783.220,89.400,473.940
496,77397.675000,240.276,26.102,66.560,369.792,-29.357,10.621,1079.220,29.400,392.940
497,77397.715000,211.777,27.106,38.912,367.804,-36.653,13.446,922.220,123.400,337.940
498,77397.756000,225.536,15.059,47.104,371.636,-33.757,18.487,636.220,43.400,245.940
499,77397.793000,223.570,6.024,27.648,366.850,-38.302,23.356,723.220,114.400,47.940
500,77397.834000,229.466,44.173,19.456,365.956,-35.391,32.368,436.220,322.400,-78.060
501,77397.874000,236.345,11.043,70.656,364.017,-39.041,34.277,-62.780,212.400,-32.060
502,77397.894000,258.948,2.008,91.136,364.963,-39.029,34.279,82.220,35.400,97.940
503,77397.933000,271.724,3.012,84.992,365.966,-35.274,38.339,234.220,-231.600,89.940
504,77397.979000,270.741,-11.043,51.200,362.087,-41.815,34.215,265.220,-146.600,-23.060
505,77398.14000,265.827,-4.016,54.272,361.250,-34.381,40.340,420.220,-71.600,-28.060
506,77398.55000,248.138,-3.012,52.224,365.034,-34.350,39.352,384.220,7.400,-74.060
507,77398.94000,244.207,-12.047,53.248,360.334,-32.503,43.363,406.220,98.400,-64.060
508,77398.114000,233.397,-18.071,52.224,362.263,-30.509,50.370,542.220,262.400,-56.060
509,77398.169000,210.795,-14.055,49.152,358.426,-35.022,56.236,710.220,317.400,-8.060
510,77398.195000,282.534,-9.035,51.200,356.653,-27.484,68.330,798.220,360.400,80.940
511,77398.235000,253.052,-5.020,10.240,352.916,-25.429,82.293,1038.220,421.400,49.940
512,77398.275000,262.879,29.114,41.984,352.018,-23.336,96.261,1078.220,641.400,-36.060
513,77398.315000,221.605,78.306,56.320,348.379,-13.971,109.385,1084.220,519.400,-54.060
514,77398.335000,213.743,101.396,67.584,345.608,-9.369,112.463,836.220,300.400,-107.060
515,77398.375000,226.518,111.435,57.344,351.389,-1.926,114.619,432.220,-32.600,-234.060
516,77398.416000,234.380,95.373,43.008,346.759,5.360,115.762,255.220,-199.600,-210.060
517,77398.456000,248.138,71.278,18.432,349.642,8.984,111.865,-28.780,-162.600,-244.060
518,77398.498000,244.207,85.333,24.576,350.585,8.958,109.877,-103.780,-240.600,-234.060
519,77398.538000,235.363,88.345,12.288,353.299,0.614,102.741,-145.780,-421.600,-159.060
520,77398.578000,268.775,74.290,23.552,357.246,13.333,95.060,-292.780,-250.600,-169.060
521,77398.598000,261.896,63.247,35.840,353.344,4.979,91.893,-224.780,-229.600,-193.060
522,77398.638000,285.482,47.184,56.320,360.152,18.770,90.207,16.220,-112.600,-194.060
523,77398.678000,257.965,47.184,40.960,362.041,18.756,88.220,145.220,-102.600,-208.060
524,77398.718000,219.639,61.239,24.576,362.036,18.697,85.235,10.220,55.400,-245.060
525,77398.758000,215.708,62.243,46.080,356.501,28.758,88.425,-71.780,191.400,-82.060
526,77398.796000,242.242,37.145,35.840,358.345,25.138,89.345,-282.780,80.400,60.940
527,77398.816000,239.294,39.153,34.816,360.188,21.499,89.270,-408.780,25.400,114.940
528,77398.856000,250.104,34.133,44.032,358.229,16.854,87.179,-337.780,-29.600,277.940
529,77398.896000,229.466,17.067,40.960,360.865,2.194,84.882,-329.780,-166.600,288.940
530,77398.936000,234.380,18.071,20.480,361.712,-4.343,77.782,-365.780,-266.600,191.940
531,77398.974000,224.553,6.024,14.336,367.442,0.196,71.919,-324.780,-264.600,116.940
532,77399.14000,222.587,13.051,31.744,368.304,-5.405,65.833,-313.780,-250.600,101.940
533,77399.54000,255.017,16.063,41.984,368.278,-6.478,57.853,-323.780,-284.600,116.940
534,77399.76000,281.551,6.024,21.504,372.052,-5.785,43.949,-384.780,-483.600,-71.060
535,77399.115000,284.499,41.161,36.864,369.283,-0.384,41.076,-324.780,-526.600,-358.060
536,77399.174000,252.069,54.212,38.912,373.985,-0.673,23.173,-358.780,-532.600,-531.060
537,77399.196000,244.207,34.133,59.392,374.182,14.726,14.549,-532.780,-443.600,-448.060
538,77399.236000,240.276,24.094,32.768,374.189,16.343,3.643,-561.780,-481.600,-386.060
539,77399.281000,248.138,48.188,30.720,378.119,28.088,-7.043,-333.780,-359.600,-310.060
540,77399.296000,237.328,42.165,32.768,377.216,31.662,-10.946,-285.780,-289.600,-235.060
541,77399.335000,229.466,50.196,36.864,377.196,30.668,-14.946,-29.780,-96.600,-194.060
542,77399.375000,226.518,56.220,34.816,376.298,34.301,-15.865,-45.780,91.400,-170.060
543,77399.415000,252.069,90.353,32.768,375.468,42.572,-13.701,41.220,210.400,-245.060
544,77399.456000,257.965,86.337,23.552,381.105,39.860,-15.739,-22.780,11.400,-97.060
545,77399.495000,257.965,94.369,23.552,379.312,47.164,-15.587,-42.780,-26.600,-45.060
546,77399.545000,255.017,87.341,20.480,378.299,42.512,-18.671,-220.780,-117.600,95.940
547,77399.559000,240.276,80.314,9.216,381.006,33.311,-22.841,-419.780,-127.600,93.940
548,77399.595000,228.484,80.314,16.384,379.267,45.098,-27.566,-623.780,-91.600,49.940
549,77399.644000,209.812,80.314,36.864,379.198,40.439,-31.644,-767.780,-59.600,-84.060
550,77399.679000,255.017,76.298,19.456,379.229,43.109,-35.566,-908.780,-96.600,-146.060
551,77399.719000,265.827,44.173,28.672,379.272,45.916,-32.522,-1049.780,-120.600,-160.060
552,77399.756000,268.775,34.133,31.744,382.195,52.328,-34.371,-1154.780,-2.600,-125.060
553,77399.780000,256.983,0.000,31.744,382.231,55.057,-35.307,-1093.780,-53.600,-22.060
554,77399.816000,249.121,-17.067,25.600,381.303,56.798,-39.250,-898.780,24.400,109.940
555,77399.856000,233.397,-14.055,43.008,384.096,53.230,-36.338,-669.780,101.400,157.940
556,77399.898000,251.086,-6.024,41.984,381.198,48.651,-34.450,-579.780,108.400,254.940
557,77399.936000,261.896,-27.106,35.840,385.912,46.959,-30.501,-599.780,87.400,397.940
558,77399.980000,265.827,-29.114,34.816,383.891,37.734,-32.689,-532.780,78.400,472.940
559,77400.16000,259.931,-35.137,38.912,390.400,28.777,-26.903,-421.780,56.400,520.940
560,77400.38000,266.810,-54.212,36.864,388.279,12.222,-29.247,-163.780,-47.600,558.940
561,77400.76000,263.862,-48.188,26.624,388.240,9.454,-30.301,2.220,-66.600,580.940
562,77400.119000,260.914,-34.133,26.624,384.297,-2.447,-27.576,44.220,-26.600,575.940
563,77400.155000,273.689,-19.075,38.912,383.201,-13.453,-27.812,-30.780,51.400,504.940
564,77400.198000,245.190,-14.055,31.744,380.227,-23.529,-26.042,-65.780,29.400,407.940
565,77400.239000,220.622,-30.118,23.552,382.072,-27.149,-25.121,22.220,-21.600,354.940
566,77400.260000,220.622,-9.035,19.456,382.993,-28.969,-25.159,107.220,31.400,167.940
567,77400.300000,251.086,6.024,33.792,382.033,-30.677,-18.234,44.220,134.400,16.940
568,77400.335000,239.294,-19.075,49.152,379.124,-36.152,-15.371,95.220,127.400,-78.060
569,77400.390000,246.173,1.004,40.960,380.126,-32.417,-12.306,77.220,40.400,-207.060
570,77400.415000,237.328,-7.027,31.744,380.240,-24.152,-11.135,59.220,-53.600,-228.060
571,77400.460000,237.328,-13.051,27.648,380.274,-21.443,-13.067,54.220,-73.600,-256.060
572,77400.480000,238.311,-5.020,25.600,381.310,-14.998,-11.933,64.220,-82.600,-262.060
573,77400.520000,233.397,-1.004,25.600,379.428,-14.126,-12.912,159.220,-98.600,-212.060
574,77400.560000,229.466,10.039,31.744,378.531,-10.474,-12.836,182.220,-103.600,-171.060
575,77400.600000,249.121,14.055,21.504,381.336,-13.146,-10.899,239.220,-151.600,-70.060
576,77400.640000,278.603,14.055,23.552,373.811,-9.640,-13.820,227.220,-163.600,-7.060
577,77400.678000,297.274,13.051,23.552,375.714,-8.718,-14.792,225.220,-34.600,180.940
578,77400.716000,276.637,-7.027,36.864,374.621,-19.686,-13.038,189.220,-69.600,471.940
579,77400.740000,256.983,-15.059,48.128,372.689,-23.258,-7.149,432.220,114.400,540.940
580,77400.780000,227.501,15.059,59.392,371.663,-29.586,-2.312,541.220,96.400,402.940
581,77400.820000,217.674,8.031,44.032,369.668,-37.739,3.480,576.220,-48.600,262.940
582,77400.858000,225.536,8.031,41.984,365.865,-38.764,0.468,478.220,-29.600,111.940
583,77400.898000,238.311,12.047,53.248,368.753,-35.841,7.497,433.220,38.400,-6.060
584,77400.938000,241.259,8.031,54.272,367.714,-43.105,11.320,287.220,37.400,-66.060
585,77400.958000,263.862,-6.024,57.344,365.935,-34.865,12.487,286.220,4.400,-71.060
586,77400.996000,268.775,-17.067,46.080,367.765,-39.421,12.393,382.220,-74.600,-48.060
587,77401.36000,258.948,-3.012,37.888,364.887,-42.226,11.334,562.220,-64.600,-59.060
588,77401.76000,255.017,-3.012,37.888,366.887,-34.794,15.474,600.220,-65.600,-37.060
589,77401.116000,242.242,-13.051,37.888,366.841,-38.400,18.381,714.220,-70.600,14.940
590,77401.161000,239.294,-14.055,37.888,363.154,-31.920,24.481,805.220,44.400,89.940
591,77401.201000,229.466,-18.071,48.128,361.174,-39.118,32.282,964.220,184.400,183.940
592,77401.221000,250.104,-19.075,33.792,360.265,-37.161,39.285,1139.220,299.400,243.940
593,77401.256000,266.810,-8.031,21.504,359.239,-43.489,44.122,1235.220,304.400,200.940
594,77401.296000,269.758,17.067,22.528,356.521,-36.723,64.155,1509.220,368.400,69.940
595,77401.336000,259.931,40.157,25.600,352.701,-40.262,73.025,1735.220,292.400,44.940
596,77401.376000,242.242,48.188,17.408,350.983,-29.001,88.182,1671.220,217.400,15.940
597,77401.418000,219.639,68.267,29.696,352.010,-23.433,91.286,1205.220,251.400,-172.060
598,77401.446000,233.397,117.459,40.960,350.227,-16.012,97.409,933.220,213.400,-405.060
599,77401.481000,240.276,89.349,22.528,349.486,-1.308,100.705,476.220,-61.600,-319.060
600,77401.521000,245.190,93.365,14.336,351.448,4.155,97.840,207.220,-140.600,-299.060
601,77401.561000,257.965,93.365,0.000,352.466,9.626,95.969,-42.780,-226.600,-277.060
602,77401.596000,254.035,81.318,4.096,355.356,14.107,89.106,-223.780,-382.600,-194.060
603,77401.641000,265.827,75.294,13.312,357.215,12.202,84.095,-372.780,-348.600,-185.060
604,77401.676000,284.499,59.231,18.432,360.961,10.245,75.107,-304.780,-336.600,-165.060
605,77401.696000,264.845,45.176,33.792,363.902,18.410,69.317,-125.780,-282.600,-143.060
606,77401.736000,233.397,56.220,19.456,363.835,13.771,66.235,-176.780,-195.600,-168.060
607,77401.781000,220.622,42.165,46.080,361.998,18.249,62.349,-225.780,11.400,-88.060
608,77401.821000,232.415,26.102,30.720,365.783,18.299,62.355,-218.780,5.400,4.940
609,77401.859000,243.225,31.122,28.672,368.538,11.962,64.214,-249.780,78.400,115.940
610,77401.900000,255.017,29.114,19.456,363.772,9.190,66.137,-365.780,17.400,209.940
611,77401.921000,249.121,22.086,14.336,366.503,1.801,61.011,-365.780,-61.600,257.940
612,77401.956000,241.259,24.094,8.192,365.391,-9.381,51.819,-396.780,-152.600,241.940
613,77402.14000,233.397,19.075,6.144,366.363,-7.536,51.860,-400.780,-189.600,211.940
614,77402.41000,231.432,3.012,11.264,370.075,-12.184,45.799,-371.780,-231.600,248.940
615,77402.81000,224.553,3.012,16.384,371.841,-20.579,36.671,-348.780,-319.600,177.940
616,77402.119000,246.173,3.012,15.360,372.789,-19.768,30.722,-165.780,-286.600,211.940
617,77402.159000,280.568,-4.016,0.000,369.784,-30.994,20.532,-324.780,-452.600,129.940
618,77402.179000,287.447,19.075,18.432,370.751,-28.428,10.642,-473.780,-405.600,-195.060
619,77402.219000,263.862,29.114,23.552,371.846,-16.662,2.937,-426.780,-450.600,-377.060
620,77402.271000,258.948,21.082,33.792,374.753,-10.446,-8.862,-407.780,-270.600,-307.060
621,77402.298000,251.086,11.043,23.552,371.916,-9.685,-14.818,-415.780,-271.600,-223.060
622,77402.338000,249.121,15.059,21.504,374.869,-0.622,-21.583,-360.780,-222.600,-198.060
623,77402.378000,238.311,21.082,20.480,376.633,-9.798,-23.765,-434.780,-62.600,-139.060
624,77402.401000,228.484,20.078,36.864,373.852,-5.313,-26.658,-252.780,-41.600,-156.060
625,77402.445000,236.345,19.075,-12.288,376.811,3.827,-29.443,34.220,-141.600,-193.060
626,77402.479000,248.138,39.153,16.384,375.907,6.622,-26.401,-31.780,280.400,-242.060
627,77402.520000,247.155,58.227,27.648,376.960,14.041,-22.263,-33.780,175.400,-219.060
628,77402.558000,255.017,61.239,23.552,377.940,16.763,-24.193,-131.780,2.400,-109.060
629,77402.599000,259.931,59.231,18.432,378.887,16.776,-24.191,-209.780,-17.600,-88.060
630,77402.618000,264.845,63.247,12.288,377.020,19.362,-31.101,-344.780,-42.600,-61.060
631,77402.668000,259.931,64.251,8.192,377.026,20.200,-35.062,-584.780,-65.600,-80.060
632,77402.700000,238.311,64.251,23.552,377.002,18.388,-34.106,-758.780,-46.600,-147.060
633,77402.743000,218.656,69.271,26.624,382.825,29.398,-36.847,-906.780,-70.600,-240.060
634,77402.789000,232.415,63.247,14.336,382.847,31.191,-38.798,-1093.780,-145.600,-315.060
635,77402.818000,249.121,50.196,8.192,381.051,38.456,-40.635,-1169.780,-90.600,-411.060
636,77402.858000,260.914,43.169,20.480,381.249,53.095,-41.318,-1344.780,-46.600,-376.060
637,77402.878000,252.069,3.012,23.552,378.480,58.495,-44.191,-1336.780,-47.600,-263.060
638,77402.923000,241.259,-7.027,45.056,382.405,68.642,-42.975,-1121.780,92.400,-162.060
639,77402.958000,235.363,-7.027,44.032,378.612,67.735,-40.016,-805.780,51.400,-68.060
640,77403.1000,242.242,0.000,38.912,379.601,70.554,-36.970,-662.780,75.400,-3.060
641,77403.38000,267.793,-10.039,31.744,381.442,66.895,-38.040,-621.780,62.400,139.940
642,77403.80000,277.620,-15.059,28.672,382.409,67.921,-33.044,-507.780,69.400,197.940
643,77403.100000,274.672,-13.051,28.672,385.115,57.940,-30.268,-363.780,34.400,259.940
644,77403.146000,272.706,-22.086,32.768,385.103,57.024,-30.288,-128.780,42.400,410.940
645,77403.179000,258.948,-25.098,23.552,381.211,49.567,-34.431,38.220,-22.600,496.940
646,77403.218000,265.827,-5.020,20.480,379.127,34.981,-29.771,197.220,-0.600,520.940
647,77403.286000,273.689,13.051,37.888,382.818,27.780,-25.940,292.220,104.400,439.940
648,77403.304000,241.259,19.075,34.816,382.775,24.194,-22.038,291.220,-33.600,409.940
649,77403.339000,214.726,13.051,17.408,379.711,7.666,-22.394,250.220,16.400,290.940
650,77403.364000,227.501,48.188,22.528,380.745,14.091,-22.256,192.220,62.400,100.940
651,77403.404000,256.000,30.118,47.104,381.689,13.305,-16.304,10.220,139.400,11.940
652,77403.444000,253.052,20.078,48.128,380.707,10.563,-15.369,3.220,121.400,-92.060
653,77403.479000,251.086,25.098,40.960,383.652,18.008,-11.228,-5.780,-8.600,-156.060
654,77403.519000,244.207,13.051,29.696,381.695,13.383,-12.324,58.220,-86.600,-195.060
655,77403.559000,237.328,20.078,22.528,378.926,18.784,-15.197,52.220,-82.600,-183.060
656,77403.579000,231.432,10.039,22.528,379.856,17.061,-10.259,55.220,-129.600,-120.060
657,77403.619000,235.363,18.071,16.384,378.094,27.036,-14.028,228.220,-160.600,-117.060
658,77403.659000,249.121,25.098,17.408,376.173,25.139,-16.060,361.220,-141.600,-86.060
659,77403.699000,258.948,25.098,18.432,375.254,26.979,-15.028,502.220,-107.600,22.940
660,77403.739000,268.775,29.114,28.672,376.188,26.075,-15.045,535.220,-37.600,202.940
661,77403.779000,301.205,23.090,4.096,376.080,17.888,-12.236,613.220,-50.600,345.940
662,77403.799000,227.501,-1.004,25.600,374.082,10.476,-15.381,691.220,-29.600,487.940
663,77403.839000,252.069,36.141,46.080,374.835,-4.871,-4.765,824.220,184.400,371.940
664,77403.879000,226.518,52.204,44.032,368.255,-2.132,-0.738,946.220,160.400,333.940
665,77403.919000,205.881,28.110,47.104,368.145,-10.338,1.077,795.220,114.400,293.940
666,77403.959000,221.605,26.102,48.128,370.039,-11.073,9.021,728.220,234.400,196.940
667,77404.1000,227.501,33.129,56.320,367.140,-16.432,17.854,705.220,209.400,208.940
668,77404.41000,239.294,22.086,36.864,369.984,-16.336,20.844,526.220,152.400,206.940
669,77404.61000,260.914,3.012,48.128,368.023,-21.780,24.704,373.220,193.400,206.940
670,77404.100000,254.035,4.016,56.320,365.117,-27.217,29.557,359.220,76.400,179.940
671,77404.140000,265.827,-2.008,47.104,364.228,-23.486,33.614,418.220,-26.600,140.940
672,77404.180000,264.845,-7.027,50.176,363.181,-30.828,33.456,474.220,-100.600,109.940
673,77404.220000,256.983,-3.012,49.152,360.391,-27.220,32.534,505.220,-104.600,57.940
674,77404.260000,233.397,0.000,52.224,360.408,-26.246,35.539,549.220,-91.600,53.940
675,77404.280000,229.466,-1.004,46.080,356.578,-29.902,38.439,553.220,-53.600,68.940
676,77404.320000,304.154,-3.012,35.840,359.462,-26.258,35.537,516.220,59.400,72.940
677,77404.360000,279.585,32.125,28.672,358.491,-28.863,43.437,532.220,40.400,-119.060
678,77404.401000,282.534,36.141,38.912,361.293,-31.574,43.384,480.220,-107.600,-84.060
679,77404.441000,240.276,53.208,18.432,357.625,-23.320,46.538,369.220,-167.600,-202.060
680,77404.481000,216.691,87.341,22.528,359.577,-18.754,44.649,146.220,-94.600,-325.060
681,77404.538000,221.605,91.357,21.504,363.421,-14.162,42.763,-68.780,-100.600,-391.060
682,77404.558000,235.363,69.271,4.096,360.718,-4.142,41.978,-263.780,-185.600,-353.060
683,77404.584000,245.190,86.337,-4.096,360.822,4.006,37.178,-252.780,-192.600,-372.060
684,77404.625000,250.104,84.329,5.120,362.773,8.553,34.294,-307.780,-236.600,-289.060
685,77404.674000,242.242,90.353,7.168,366.596,12.131,27.413,-317.780,-287.600,-265.060
686,77404.700000,244.207,85.333,3.072,366.668,17.589,25.540,-440.780,-245.600,-225.060
687,77404.740000,261.896,76.298,9.216,364.726,14.679,18.513,-461.780,-165.600,-197.060
688,77404.760000,283.516,60.235,12.288,369.529,20.199,16.648,-418.780,-64.600,-157.060
689,77404.800000,259.931,44.173,20.480,368.481,12.838,15.495,-245.780,16.400,-89.060
690,77404.840000,233.397,50.196,6.144,367.588,16.529,17.562,-143.780,35.400,-25.060
691,77404.888000,242.242,38.149,-1.024,371.334,13.811,16.515,-117.780,109.400,111.940
692,77404.924000,229.466,35.137,17.408,370.432,16.625,20.552,-100.780,172.400,126.940
693,77404.965000,241.259,45.176,12.288,370.398,13.916,22.483,-157.780,122.400,168.940
694,77405.5000,247.155,30.118,8.192,376.010,9.371,20.406,-251.780,75.400,248.940
695,77405.25000,251.086,16.063,0.000,370.230,1.948,19.245,-362.780,-14.600,296.940
696,77405.65000,256.000,6.024,-4.096,371.092,-3.654,13.159,-372.780,-72.600,297.940
697,77405.105000,248.138,9.035,4.096,372.038,-3.641,13.160,-355.780,-126.600,268.940
698,77405.145000,244.207,4.016,0.000,372.764,-19.301,7.855,-371.780,-253.600,252.940
699,77405.185000,241.259,2.008,4.096,369.997,-13.101,-0.969,-444.780,-297.600,141.940
700,77405.220000,248.138,5.020,8.192,371.855,-15.025,-6.975,-488.780,-324.600,44.940
701,77405.240000,266.810,2.008,13.312,370.903,-14.336,-17.903,-494.780,-366.600,-39.060
702,77405.280000,250.104,18.071,3.072,369.977,-11.796,-27.796,-498.780,-521.600,-285.060
703,77405.320000,248.138,31.122,-10.240,371.035,-2.778,-35.560,-564.780,-511.600,-435.060
704,77405.360000,258.948,39.153,9.216,371.039,-1.959,-40.516,-600.780,-300.600,-429.060
705,77405.400000,260.914,29.114,20.480,370.278,12.511,-49.161,-701.780,-189.600,-316.060
706,77405.443000,254.035,13.051,15.360,370.285,14.128,-60.067,-573.780,-163.600,-179.060
707,77405.485000,239.294,28.110,14.336,370.322,16.877,-60.009,-245.780,-14.600,-116.060
708,77405.500000,236.345,37.145,20.480,370.490,28.845,-56.770,26.220,129.400,-83.060
709,77405.541000,235.363,53.208,22.528,371.416,27.084,-53.822,191.220,203.400,-91.060
710,77405.581000,244.207,67.263,14.336,372.342,25.322,-50.874,215.220,262.400,-188.060
711,77405.623000,248.138,69.271,7.168,373.406,33.639,-47.712,226.220,244.400,-95.060
712,77405.663000,258.948,55.216,7.168,376.270,35.509,-47.668,133.220,237.400,-30.060
713,77405.703000,251.086,68.267,13.312,373.304,25.511,-41.917,-14.780,203.400,3.940
714,77405.724000,251.086,64.251,14.336,376.253,33.774,-42.731,-117.780,128.400,38.940
715,77405.763000,233.397,64.251,32.768,378.048,26.489,-41.889,-271.780,139.400,-23.060
716,77405.803000,216.691,64.251,39.936,374.398,36.497,-42.676,-411.780,139.400,-79.060
717,77405.848000,303.171,49.192,0.000,378.196,37.463,-42.650,-548.780,85.400,-100.060
718,77405.884000,268.775,19.075,36.864,380.178,43.921,-41.515,-546.780,237.400,-59.060
719,77405.923000,251.086,-4.016,45.056,377.269,38.445,-38.652,-612.780,105.400,45.940
720,77405.944000,253.052,-21.082,54.272,376.331,38.530,-33.678,-451.780,188.400,184.940
721,77405.984000,219.639,-14.055,70.656,378.086,28.478,-33.890,-181.780,315.400,257.940
722,77406.24000,227.501,-14.055,70.656,382.774,24.954,-29.979,-98.780,338.400,373.940
723,77406.61000,242.242,-36.141,56.320,382.668,16.007,-19.229,-32.780,257.400,422.940
724,77406.104000,243.225,-26.102,54.272,386.337,7.773,-21.388,-13.780,265.400,462.940
725,77406.145000,244.207,-50.196,60.416,382.529,5.150,-12.497,20.220,188.400,514.940
726,77406.200000,249.121,-52.204,55.296,384.238,-8.528,-10.797,141.220,18.400,513.940
727,77406.208000,256.000,-54.212,53.248,384.993,-22.296,-13.078,246.220,-16.600,515.940
728,77406.243000,267.793,-66.259,44.032,380.131,-32.358,-9.321,281.220,-46.600,527.940
729,77406.289000,260.914,-53.208,39.936,379.150,-35.080,-7.391,312.220,-76.600,445.940
730,77406.323000,271.724,-35.137,36.864,378.889,-54.299,-6.806,255.220,-83.600,364.940
731,77406.363000,234.380,-39.153,23.552,378.964,-48.803,-6.689,328.220,-160.600,236.940
732,77406.403000,235.363,-16.063,18.432,376.950,-57.950,-4.897,368.220,-105.600,78.940
733,77406.423000,234.380,0.000,18.432,376.000,-58.001,-6.889,256.220,-60.600,-16.060
734,77406.464000,245.190,-13.051,31.744,375.186,-48.775,-2.715,149.220,-31.600,-74.060
735,77406.511000,242.242,-14.055,32.768,374.264,-46.955,-2.678,113.220,-33.600,-139.060
736,77406.544000,242.242,-5.020,17.408,374.288,-45.142,-3.634,162.220,-172.600,-214.060
737,77406.584000,250.104,-12.047,3.072,372.456,-40.606,-4.534,194.220,-195.600,-201.060
738,77406.624000,254.035,-15.059,1.024,379.100,-38.745,-7.469,238.220,-204.600,-163.060
739,77406.664000,251.086,-2.008,3.072,377.133,-44.266,-7.589,248.220,-256.600,-79.060
740,77406.684000,239.294,6.024,12.288,374.428,-34.266,-9.370,190.220,-241.600,-43.060
741,77406.724000,256.983,11.043,11.264,374.309,-42.589,-13.526,140.220,-190.600,11.940
742,77406.764000,286.464,-1.004,0.000,374.384,-37.092,-13.409,193.220,-216.600,166.940
743,77406.804000,273.689,-22.086,19.456,370.508,-43.594,-15.542,183.220,-212.600,394.940
744,77406.844000,245.190,1.004,33.792,370.443,-48.194,-16.635,301.220,20.400,381.940
745,77406.886000,246.173,7.027,35.840,366.557,-56.353,-9.852,361.220,37.400,301.940
746,77406.908000,229.466,8.031,40.960,365.605,-57.203,-5.892,412.220,-18.600,196.940
747,77406.941000,245.190,-1.004,36.864,362.691,-62.738,-6.015,280.220,46.400,90.940
748,77406.981000,243.225,-4.016,32.768,366.517,-59.900,-3.959,242.220,-23.600,69.940
749,77407.21000,235.363,-7.027,25.600,367.481,-58.913,-0.953,174.220,-30.600,10.940
750,77407.69000,237.328,-4.016,36.864,365.518,-64.376,1.912,79.220,22.400,-70.060
751,77407.115000,244.207,-14.055,51.200,363.699,-58.924,1.031,-14.780,2.400,-127.060
752,77407.146000,260.914,-13.051,48.128,363.753,-55.220,3.099,-49.780,-17.600,-199.060
753,77407.168000,260.914,-14.055,38.912,365.733,-48.783,3.239,-126.780,-44.600,-246.060
754,77407.208000,257.965,-6.024,35.840,365.747,-47.847,4.253,-147.780,-39.600,-273.060
755,77407.248000,258.948,-11.043,36.864,364.908,-39.673,1.442,-126.780,-9.600,-268.060
756,77407.283000,245.190,-15.059,33.792,363.005,-40.594,2.414,-33.780,-34.600,-207.060
757,77407.323000,230.449,-17.067,35.840,364.009,-36.820,7.469,139.220,32.400,-114.060
758,77407.364000,250.104,-24.094,17.408,363.978,-39.490,11.391,357.220,112.400,-52.060
759,77407.389000,262.879,-4.016,14.336,363.071,-36.735,12.443,416.220,36.400,-62.060
760,77407.423000,257.965,20.078,15.360,364.129,-29.256,19.566,597.220,103.400,-201.060
761,77407.463000,256.000,39.153,33.792,363.243,-25.487,25.613,856.220,25.400,-136.060
762,77407.503000,235.363,61.239,33.792,364.260,-20.797,30.687,940.220,48.400,-221.060
763,77407.543000,235.363,109.427,25.600,361.510,-14.402,31.814,555.220,99.400,-397.060
764,77407.584000,232.415,118.463,25.600,357.744,-13.457,35.807,199.220,47.400,-407.060
765,77407.624000,239.294,85.333,-1.024,358.792,-6.096,36.960,-159.780,-53.600,-330.060
766,77407.644000,243.225,86.337,-7.168,366.440,0.299,31.140,-527.780,-65.600,-380.060
767,77407.684000,241.259,99.388,0.000,362.668,1.166,31.152,-378.780,-163.600,-312.060
768,77407.724000,241.259,89.349,-3.072,367.502,9.356,25.366,-304.780,-266.600,-235.060
769,77407.764000,236.345,88.345,-6.144,369.373,8.368,20.375,-329.780,-253.600,-227.060
770,77407.804000,258.948,81.318,-7.168,372.196,7.450,18.370,-325.780,-174.600,-207.060
771,77407.844000,292.361,57.224,1.024,370.419,16.469,12.591,-317.780,-10.600,-161.060
772,77407.864000,267.793,44.173,6.144,374.212,17.377,9.632,-250.780,-45.600,-125.060
773,77407.905000,248.138,56.220,-4.096,368.595,21.863,8.725,-28.780,-138.600,-75.060
774,77407.954000,245.190,45.176,-25.600,372.348,20.002,4.712,-46.780,-16.600,-36.060
775,77407.993000,226.518,49.192,11.264,375.223,22.769,3.781,-53.780,48.400,-60.060
776,77408.34000,245.190,52.204,-2.048,374.216,18.195,4.677,-232.780,20.400,20.940
777,77408.68000,250.104,33.129,-5.120,377.078,20.045,3.726,-298.780,22.400,101.940
778,77408.88000,252.069,31.122,-14.336,376.018,11.768,2.553,-337.780,10.400,177.940
779,77408.126000,250.104,31.122,-21.504,377.004,15.328,-3.337,-350.780,-117.600,201.940
780,77408.164000,239.294,21.082,-23.552,373.084,5.240,-1.569,-351.780,-185.600,219.940
781,77408.208000,237.328,14.055,-30.720,377.767,2.417,-8.584,-285.780,-249.600,218.940
782,77408.248000,229.466,12.047,-20.480,373.075,5.902,-14.485,-261.780,-306.600,213.940
783,77408.285000,245.190,5.020,-12.288,378.701,3.053,-23.489,-152.780,-257.600,159.940
784,77408.325000,291.378,-14.055,-26.624,373.831,-6.327,-31.653,62.220,-289.600,179.940
785,77408.345000,295.309,-8.031,-24.576,373.858,-3.696,-37.565,137.220,-381.600,-7.060
786,77408.403000,272.706,44.173,17.408,373.038,6.233,-44.317,375.220,-259.600,-390.060
787,77408.425000,254.035,45.176,15.360,372.160,11.639,-48.182,441.220,-98.600,-319.060
788,77408.464000,247.155,29.114,17.408,373.219,19.897,-48.004,225.220,100.400,-221.060
789,77408.505000,243.225,39.153,18.432,374.148,18.175,-43.066,-50.780,313.400,-127.060
790,77408.545000,242.242,41.161,32.768,373.298,24.673,-37.956,-75.780,431.400,-92.060
791,77408.568000,236.345,29.114,39.936,372.369,25.635,-34.953,-52.780,395.400,-30.060
792,77408.608000,238.311,38.149,38.912,376.175,26.698,-29.952,-6.780,406.400,-70.060
793,77408.648000,244.207,58.227,44.032,372.400,26.766,-23.988,-27.780,475.400,-104.060
794,77408.688000,237.328,60.235,56.320,373.440,32.490,-12.924,8.220,417.400,-105.060
795,77408.728000,233.397,63.247,53.248,374.319,27.103,-8.064,-40.780,344.400,-75.060
796,77408.765000,239.294,63.247,56.320,375.278,28.031,-8.043,-14.780,274.400,-66.060
797,77408.805000,244.207,64.251,48.128,375.381,35.400,-5.896,-56.780,101.400,11.940
798,77408.824000,251.086,68.267,44.032,376.290,32.664,-5.953,-169.780,78.400,1.940
799,77408.865000,249.121,71.278,47.104,378.238,36.412,-2.887,-291.780,83.400,6.940
800,77408.906000,243.225,74.290,48.128,380.150,38.210,-5.830,-600.780,80.400,-44.060
801,77408.946000,270.741,55.216,51.200,381.064,35.533,-2.901,-772.780,137.400,-52.060
802,77408.986000,262.879,37.145,60.416,380.105,34.604,-2.922,-907.780,168.400,0.940
803,77409.28000,234.380,0.000,63.488,382.869,29.145,-3.035,-915.780,130.400,109.940
804,77409.49000,231.432,-16.063,76.800,380.894,22.766,-0.189,-777.780,263.400,275.940
805,77409.84000,230.449,-53.208,84.992,383.654,16.488,4.654,-395.780,179.400,439.940
806,77409.125000,214.726,-34.133,78.848,384.507,9.249,8.480,-106.780,139.400,494.940
807,77409.168000,236.345,-34.133,72.704,385.331,0.140,10.277,-110.780,159.400,519.940
808,77409.208000,237.328,-42.165,74.752,381.482,-4.511,9.177,-160.780,24.400,486.940
809,77409.244000,246.173,-69.271,76.800,384.148,-17.279,9.904,-149.780,-9.600,524.940
810,77409.269000,246.173,-76.298,73.728,382.078,-30.150,8.633,9.220,-174.600,490.940
811,77409.309000,243.225,-71.278,60.416,378.202,-36.652,6.499,202.220,-236.600,429.940
812,77409.344000,264.845,-67.263,49.152,381.809,-49.467,4.243,275.220,-197.600,370.940
813,77409.384000,280.568,-50.196,40.960,377.931,-56.768,8.060,264.220,-157.600,241.940
814,77409.424000,259.931,-17.067,35.840,377.028,-53.194,4.156,180.220,-140.600,133.940
815,77409.465000,252.069,-22.086,33.792,378.798,-62.291,5.954,78.220,-128.600,58.940
816,77409.505000,236.345,-10.039,34.816,377.869,-60.569,1.016,14.220,-103.600,-60.060
817,77409.525000,242.242,-1.004,24.576,376.080,-53.226,3.159,56.220,-174.600,-122.060
818,77409.565000,247.155,-8.031,25.600,379.901,-50.447,2.230,-57.780,-143.600,-212.060
819,77409.605000,246.173,-6.024,25.600,376.134,-48.743,-1.718,-29.780,-183.600,-290.060
820,77409.645000,238.311,-4.016,14.336,379.066,-41.454,-5.537,-24.780,-241.600,-326.060
821,77409.686000,244.207,-9.035,15.360,376.195,-43.402,-9.562,-18.780,-209.600,-352.060
822,77409.726000,245.190,-4.016,14.336,380.032,-39.668,-8.482,63.220,-214.600,-275.060
823,77409.746000,245.190,-8.031,4.096,381.075,-32.365,-10.314,53.220,-290.600,-183.060
824,77409.786000,253.052,-7.027,1.024,377.277,-32.571,-18.281,167.220,-234.600,-99.060
825,77409.826000,249.121,-1.004,11.264,378.343,-23.456,-21.070,243.220,-203.600,-23.060
826,77409.871000,265.827,9.035,10.240,378.356,-22.540,-21.050,224.220,-173.600,45.940
827,77409.905000,284.499,-1.004,10.240,378.307,-26.185,-20.133,247.220,-114.600,174.940
828,77409.945000,261.896,-16.063,14.336,374.417,-33.623,-23.281,320.220,-131.600,341.940
829,77409.985000,256.000,-10.039,16.384,376.154,-45.429,-19.551,444.220,-11.600,396.940
830,77410.5000,248.138,7.027,26.624,373.252,-50.827,-12.708,521.220,63.400,315.940
831,77410.45000,245.190,24.094,30.720,370.407,-51.703,-8.752,575.220,50.400,259.940
832,77410.86000,246.173,8.031,31.744,371.371,-50.715,-5.746,284.220,120.400,163.940
833,77410.129000,243.225,10.039,40.960,365.587,-58.958,-1.951,241.220,141.400,89.940
834,77410.168000,238.311,22.086,65.536,366.566,-57.015,3.065,174.220,241.400,-7.060
835,77410.208000,230.449,30.118,74.752,367.589,-52.266,11.124,52.220,244.400,-49.060
836,77410.228000,244.207,6.024,70.656,365.681,-54.006,17.052,-92.780,272.400,-2.060
837,77410.268000,256.000,-12.047,53.248,366.631,-53.955,19.044,-152.780,123.400,-59.060
838,77410.308000,260.914,-24.094,29.696,365.764,-48.412,22.145,-74.780,20.400,-45.060
839,77410.345000,253.052,-22.086,27.648,361.881,-55.771,22.977,151.220,-15.600,-65.060
840,77410.388000,249.121,-14.055,31.744,363.813,-52.978,24.034,196.220,-30.600,-42.060
841,77410.428000,242.242,-21.082,33.792,366.658,-52.863,28.019,158.220,-84.600,-24.060
842,77410.450000,242.242,-15.059,34.816,364.756,-53.005,22.045,223.220,-46.600,-4.060
843,77410.485000,237.328,-22.086,35.840,364.736,-54.779,24.992,238.220,2.400,22.940
844,77410.525000,229.466,-26.102,44.032,357.266,-48.310,33.075,363.220,71.400,42.940
845,77410.565000,290.395,-36.141,23.552,361.047,-49.078,38.038,580.220,143.400,83.940
846,77410.605000,268.775,-3.012,32.768,361.110,-45.257,46.076,753.220,222.400,-19.060
847,77410.645000,251.086,16.063,25.600,356.395,-45.125,56.018,1120.220,174.400,-26.060
848,77410.685000,252.069,29.114,23.552,358.248,-48.647,61.914,1046.220,160.400,-141.060
849,77410.705000,223.570,68.267,40.960,355.603,-34.865,66.182,847.220,194.400,-296.060
850,77410.745000,228.484,94.369,45.056,356.650,-28.283,74.281,404.220,73.400,-413.060
851,77410.785000,236.345,75.294,48.128,360.609,-15.427,73.566,234.220,-56.600,-391.060
852,77410.831000,243.225,69.271,19.456,358.740,-13.639,72.606,-27.780,-114.600,-452.060
853,77410.866000,247.155,83.325,16.384,359.806,-4.524,69.818,-73.780,-178.600,-504.060
854,77410.906000,240.276,90.353,12.288,361.851,7.294,64.105,-76.780,-243.600,-511.060
855,77410.948000,240.276,89.349,9.216,363.828,13.693,62.254,-159.780,-322.600,-400.060
856,77410.966000,239.294,82.322,6.144,361.910,12.596,54.271,-206.780,-260.600,-335.060
857,77411.8000,255.017,71.278,15.360,364.858,21.619,45.516,-216.780,-144.600,-320.060
858,77411.48000,256.983,62.243,18.432,365.885,27.187,48.620,-89.780,-106.600,-233.060
859,77411.89000,239.294,71.278,15.360,370.511,19.862,45.487,-56.780,-58.600,-166.060
860,77411.130000,229.466,53.208,9.216,370.663,30.875,46.716,-150.780,13.400,-27.060
861,77411.170000,234.380,43.169,14.336,372.482,25.422,47.597,-54.780,102.400,84.940
862,77411.201000,254.035,53.208,14.336,369.649,26.223,43.632,-142.780,81.400,136.940
863,77411.228000,254.035,38.149,7.168,366.767,22.599,47.529,-206.780,-5.600,179.940
864,77411.268000,250.104,30.118,-4.096,370.481,17.971,42.463,-212.780,-107.600,235.940
865,77411.308000,233.397,24.094,-15.360,372.266,10.569,37.335,-216.780,-194.600,248.940
866,77411.350000,221.605,26.102,-12.288,373.114,4.052,31.229,-213.780,-228.600,228.940
867,77411.396000,218.656,27.106,2.048,371.140,-1.548,27.129,-228.780,-203.600,236.940
868,77411.410000,284.499,17.067,17.408,372.998,-3.473,21.123,-261.780,-161.600,336.940
869,77411.450000,282.534,35.137,12.288,368.169,-10.065,15.007,-364.780,-327.600,71.940
870,77411.489000,253.052,58.227,32.768,373.933,-2.817,7.213,-493.780,-283.600,-97.060
871,77411.529000,246.173,19.075,69.632,373.044,2.452,-3.617,-731.780,-126.600,-111.060
872,77411.569000,255.017,5.020,51.200,374.958,4.271,-5.565,-864.780,-139.600,-127.060
873,77411.610000,256.983,16.063,47.104,372.144,6.065,-5.531,-820.780,-111.600,-145.060
874,77411.651000,249.121,20.078,48.128,374.066,8.741,-10.444,-623.780,-46.600,-107.060
875,77411.666000,237.328,15.059,49.152,375.066,13.237,-15.320,-532.780,-75.600,-86.060
876,77411.708000,231.432,23.090,41.984,375.983,11.358,-18.343,-401.780,-26.600,-25.060
877,77411.748000,236.345,32.125,47.104,375.102,15.966,-16.257,-319.780,44.400,-15.060
878,77411.788000,253.052,40.157,41.984,373.172,13.192,-16.319,-178.780,37.400,-40.060
879,77411.829000,252.069,41.161,32.768,376.961,14.061,-21.268,-54.780,8.400,3.940
880,77411.869000,256.000,39.153,32.768,376.003,13.132,-21.289,-8.780,30.400,37.940
881,77411.890000,256.000,44.173,24.576,375.081,14.952,-21.252,-38.780,4.400,52.940
882,77411.928000,255.017,44.173,16.384,378.863,14.963,-23.235,-107.780,-40.600,89.940
883,77411.966000,241.259,47.184,21.504,378.875,16.639,-31.156,-224.780,-12.600,39.940
884,77412.6000,236.345,37.145,39.936,378.842,13.949,-28.230,-294.780,-71.600,-9.060
885,77412.51000,289.413,27.106,12.288,378.798,11.123,-32.269,-322.780,-122.600,-66.060
886,77412.91000,271.724,15.059,32.768,376.017,15.607,-35.161,-442.780,-19.600,-44.060
887,77412.128000,261.896,-6.024,51.200,377.909,15.632,-35.158,-570.780,-5.600,19.940
888,77412.156000,248.138,-29.114,54.272,383.661,21.185,-36.026,-441.780,52.400,116.940
889,77412.186000,226.518,-38.149,71.680,381.621,10.205,-34.273,-263.780,109.400,198.940
890,77412.234000,239.294,-44.173,63.488,383.553,12.998,-33.216,8.220,168.400,266.940
891,77412.268000,231.432,-33.129,48.128,381.576,6.599,-31.366,161.220,67.400,366.940
892,77412.308000,237.328,-43.169,48.128,381.440,-3.459,-30.586,-61.780,103.400,460.940
893,77412.348000,246.173,-54.212,47.104,380.290,-18.948,-25.944,-144.780,14.400,510.940
894,77412.368000,237.328,-51.200,46.080,382.082,-25.492,-34.038,-132.780,-109.600,559.940
895,77412.409000,246.173,-65.255,41.984,377.180,-38.322,-31.334,153.220,-125.600,472.940
896,77412.449000,262.879,-63.247,27.648,376.125,-46.541,-29.521,268.220,-90.600,414.940
897,77412.489000,272.706,-53.208,25.600,374.170,-51.146,-29.622,286.220,-40.600,314.940
898,77412.531000,271.724,-45.176,27.648,375.033,-57.488,-26.772,245.220,-56.600,217.940
899,77412.573000,244.207,-26.102,25.600,376.903,-59.276,-25.813,146.220,-44.600,117.940
900,77412.591000,238.311,-35.137,16.384,369.389,-55.633,-21.768,166.220,-49.600,0.940
901,77412.628000,235.363,-18.071,8.192,376.906,-59.237,-23.823,223.220,-7.600,-153.060
902,77412.668000,247.155,-4.016,2.048,368.389,-59.349,-23.838,237.220,17.400,-236.060
903,77412.708000,260.914,-7.027,17.408,374.205,-49.957,-15.672,155.220,65.400,-342.060
904,77412.749000,253.052,-2.008,14.336,372.405,-43.510,-12.553,126.220,25.400,-351.060
905,77412.789000,252.069,-4.016,2.048,376.209,-41.706,-16.488,156.220,-113.600,-313.060
906,77412.830000,251.086,-7.027,-8.192,376.259,-38.042,-16.410,183.220,-117.600,-289.060
907,77412.850000,247.155,-2.008,-2.048,373.484,-33.479,-15.322,169.220,-106.600,-223.060
908,77412.893000,244.207,-2.008,1.024,375.486,-25.248,-17.133,192.220,-152.600,-136.060
909,77412.928000,235.363,8.031,12.288,375.487,-25.228,-16.138,193.220,-106.600,-95.060
910,77412.968000,255.017,18.071,16.384,372.609,-28.034,-17.197,181.220,-15.600,-55.060
911,77413.8000,265.827,16.063,13.312,370.731,-27.123,-16.186,205.220,-62.600,73.940
912,77413.53000,289.413,0.000,3.072,371.654,-28.923,-15.228,213.220,-9.600,248.940
913,77413.73000,244.207,-10.039,35.840,369.668,-36.199,-11.407,303.220,136.400,410.940
914,77413.113000,241.259,7.027,45.056,369.628,-39.747,-5.515,482.220,132.400,366.940
915,77413.153000,231.432,22.086,38.912,364.837,-44.351,-3.631,535.220,65.400,222.940
916,77413.190000,239.294,15.059,27.648,365.734,-48.763,4.234,519.220,28.400,77.940
917,77413.230000,246.173,7.027,34.816,370.519,-44.997,6.310,348.220,135.400,22.940
918,77413.270000,251.086,6.024,57.344,363.818,-51.380,12.132,284.220,145.400,-124.060
919,77413.313000,240.276,33.129,51.200,366.811,-40.291,15.357,292.220,71.400,-198.060
920,77413.333000,245.190,14.055,45.056,365.869,-40.264,17.345,191.220,65.400,-213.060
921,77413.373000,253.052,0.000,37.888,364.956,-38.347,22.358,-16.780,125.400,-191.060
922,77413.420000,257.965,-7.027,29.696,366.964,-30.037,24.527,-37.780,69.400,-163.060
923,77413.453000,262.879,-1.004,24.576,364.177,-26.391,25.595,29.220,29.400,-169.060
924,77413.511000,262.879,1.004,29.696,364.191,-25.455,26.610,111.220,-19.600,-212.060
925,77413.528000,259.931,7.027,31.744,366.198,-17.166,27.784,147.220,0.400,-215.060
926,77413.548000,250.104,7.027,44.032,364.328,-15.378,26.824,238.220,72.400,-148.060
927,77413.588000,231.432,10.039,50.176,361.417,-21.653,35.638,306.220,85.400,-67.060
928,77413.633000,263.862,-2.008,30.720,363.404,-15.137,39.758,378.220,171.400,34.940
929,77413.680000,267.793,19.075,33.792,360.512,-19.638,45.626,466.220,197.400,31.940
930,77413.720000,269.758,35.137,28.672,363.465,-12.115,53.748,619.220,246.400,13.940
931,77413.754000,249.121,61.239,33.792,362.447,-17.585,55.619,654.220,180.400,-18.060
932,77413.794000,224.553,83.325,46.080,361.587,-11.964,62.700,440.220,217.400,-79.060
933,77413.834000,221.605,95.373,51.200,359.687,-12.847,65.662,237.220,176.400,-153.060
934,77413.849000,229.466,96.376,47.104,357.874,-7.317,68.761,16.220,-16.600,-163.060
935,77413.913000,232.415,63.247,19.456,358.742,-12.840,66.655,-156.780,-90.600,-151.060
936,77413.934000,232.415,77.302,17.408,358.896,-1.028,61.934,-197.780,-105.600,-209.060
937,77413.971000,233.397,83.325,18.432,364.673,6.357,61.105,-213.780,-170.600,-241.060
938,77414.13000,229.466,80.314,19.456,362.773,6.254,57.121,-180.780,-222.600,-240.060
939,77414.33000,262.879,72.282,18.432,363.758,9.794,50.236,-281.780,-204.600,-232.060
940,77414.71000,293.344,57.224,24.576,366.581,8.876,48.231,-263.780,-62.600,-184.060
941,77414.111000,261.896,45.176,26.624,367.624,16.179,46.399,-121.780,-21.600,-114.060
942,77414.151000,243.225,49.192,17.408,368.569,16.172,45.405,-83.780,35.400,-8.060
943,77414.191000,239.294,44.173,26.624,370.436,14.365,45.370,-145.780,110.400,47.940
944,77414.231000,237.328,28.110,23.552,370.340,7.075,47.204,-128.780,86.400,88.940
945,77414.253000,251.086,41.161,25.600,370.393,10.778,49.272,-198.780,98.400,152.940
946,77414.294000,247.155,26.102,19.456,372.120,-1.146,47.031,-287.780,10.400,207.940
947,77414.334000,241.259,5.020,15.360,370.175,-4.855,45.955,-291.780,-83.600,260.940
948,77414.374000,233.397,13.051,13.312,371.178,-0.339,42.074,-230.780,-123.600,252.940
949,77414.414000,228.484,7.027,16.384,374.801,-11.420,34.881,-278.780,-192.600,204.940
950,77414.454000,217.674,7.027,18.432,371.036,-9.696,31.928,-163.780,-256.600,133.940
951,77414.494000,266.810,0.000,30.720,373.815,-13.440,25.885,-85.780,-160.600,127.940
952,77414.520000,296.292,-5.020,15.360,373.802,-13.596,17.924,-107.780,-318.600,67.940
953,77414.554000,287.447,22.086,28.672,369.980,-15.615,10.913,-159.780,-314.600,-200.060
954,77414.594000,248.138,32.125,27.648,373.897,-4.786,0.209,-111.780,-388.600,-345.060
955,77414.634000,243.225,30.118,36.864,370.133,-3.043,-1.749,-220.780,-361.600,-390.060
956,77414.674000,226.518,22.086,38.912,375.040,10.625,-8.413,-314.780,-291.600,-317.060
957,77414.716000,239.294,28.110,29.696,375.066,13.237,-15.320,-325.780,-285.600,-246.060
958,77414.730000,231.432,36.141,25.600,376.933,12.189,-23.297,-281.780,-237.600,-159.060
959,77414.771000,238.311,32.125,20.480,371.352,19.404,-25.141,-219.780,-195.600,-100.060
960,77414.814000,249.121,52.204,20.480,373.311,24.829,-29.996,-166.780,-126.600,-109.060
961,77414.859000,255.017,50.196,25.600,369.498,22.907,-32.032,-97.780,-48.600,-59.060
962,77414.896000,275.655,60.235,20.480,371.448,27.455,-34.916,-23.780,-8.600,-12.060
963,77414.930000,265.827,56.220,19.456,374.172,19.227,-36.082,15.220,30.400,80.940
964,77414.970000,251.086,56.220,21.504,374.169,19.188,-38.072,-12.780,65.400,122.940
965,77414.991000,237.328,48.188,16.384,374.210,21.976,-36.023,-89.780,89.400,166.940
966,77415.34000,245.190,44.173,15.360,372.192,12.789,-36.221,-259.780,104.400,159.940
967,77415.74000,240.276,53.208,31.744,373.154,13.757,-34.210,-337.780,144.400,93.940
968,77415.114000,229.466,53.208,33.792,376.045,17.479,-33.132,-364.780,95.400,37.940
969,77415.154000,251.086,44.173,11.264,376.986,17.433,-36.116,-583.780,11.400,-52.060
970,77415.190000,259.931,30.118,15.360,377.967,20.154,-38.045,-744.780,95.400,-136.060
971,77415.211000,278.603,12.047,22.528,378.054,26.567,-37.909,-843.780,95.400,-154.060
972,77415.250000,251.086,-12.047,34.816,378.045,25.690,-35.938,-805.780,70.400,-76.060
973,77415.290000,250.104,-23.090,56.320,377.115,26.633,-33.930,-694.780,170.400,-4.060
974,77415.334000,240.276,-31.122,59.392,380.034,32.226,-30.823,-475.780,153.400,119.940
975,77415.371000,230.449,-29.114,58.368,378.016,23.039,-31.022,-281.780,113.400,148.940
976,77415.414000,242.242,-25.098,34.816,381.751,19.425,-31.093,-221.780,56.400,175.940
977,77415.455000,255.017,-33.129,34.816,381.722,16.774,-26.176,-310.780,104.400,237.940
978,77415.470000,253.052,-36.141,47.104,379.753,11.233,-27.292,-298.780,92.400,293.940
979,77415.513000,254.035,-50.196,36.864,378.802,10.402,-22.338,-161.780,9.400,406.940
980,77415.556000,246.173,-53.208,39.936,378.724,4.866,-24.445,36.220,-18.600,445.940
981,77415.590000,253.052,-45.176,32.768,380.320,-17.057,-22.920,176.220,-29.600,445.940
982,77415.633000,277.620,-25.098,31.744,377.472,-17.972,-20.954,278.220,-15.600,321.940
983,77415.670000,260.914,-9.035,29.696,378.398,-19.733,-18.006,289.220,8.400,251.940
984,77415.691000,236.345,-11.043,25.600,376.421,-26.132,-16.156,332.220,3.400,187.940
985,77415.731000,244.207,12.047,26.624,378.342,-24.236,-14.124,345.220,90.400,75.940
986,77415.773000,256.000,7.027,33.792,373.508,-32.426,-8.337,316.220,80.400,24.940
987,77415.814000,256.983,0.000,37.888,371.674,-28.689,-3.287,268.220,6.400,-34.060
988,77415.854000,250.104,7.027,21.504,377.425,-23.137,-4.155,283.220,-75.600,-69.060
989,77415.891000,248.138,-2.008,14.336,377.359,-27.757,-6.243,228.220,-111.600,-89.060
990,77415.911000,242.242,-2.008,15.360,373.599,-25.974,-6.211,214.220,-106.600,-120.060
991,77415.951000,240.276,2.008,17.408,370.844,-19.638,-8.069,191.220,-140.600,-134.060
992,77415.990000,240.276,6.024,13.312,373.682,-19.620,-9.059,260.220,-164.600,-131.060
993,77416.30000,242.242,6.024,12.288,373.717,-16.891,-9.996,281.220,-164.600,-97.060
994,77416.81000,252.069,14.055,18.432,373.732,-15.955,-8.981,282.220,-128.600,-59.060
995,77416.110000,270.741,11.043,16.384,373.741,-15.078,-10.952,301.220,-128.600,86.940
996,77416.150000,282.534,5.020,18.432,369.920,-17.857,-10.022,332.220,-71.600,227.940
997,77416.170000,251.086,-3.012,37.888,371.675,-27.910,-10.233,405.220,-85.600,365.940
998,77416.215000,246.173,9.035,36.864,365.001,-31.662,-10.323,603.220,-46.600,412.940
999,77416.261000,240.276,13.051,43.008,363.973,-38.009,-6.481,618.220,-58.600,386.940
1000,77416.294000,224.553,3.012,34.816,364.836,-44.370,-4.626,502.220,-78.600,342.940
1001,77416.345000,230.449,-3.012,28.672,362.809,-54.434,-2.854,390.220,-58.600,269.940
1002,77416.386000,236.345,9.035,36.864,362.837,-52.563,-0.825,291.220,2.400,172.940
1003,77416.393000,235.363,2.008,37.888,360.859,-58.981,0.030,129.220,8.400,45.940
1004,77416.433000,251.086,-8.031,39.936,361.796,-59.846,2.003,23.220,33.400,18.940
1005,77416.471000,267.793,-26.102,43.008,357.057,-60.766,4.960,-19.780,56.400,-0.060
1006,77416.511000,268.775,-31.122,38.912,361.865,-55.187,6.081,103.220,-65.600,-10.060
1007,77416.551000,266.810,-30.118,22.528,358.114,-52.528,4.142,197.220,-92.600,-63.060
1008,77416.596000,262.879,-24.094,26.624,360.928,-54.322,4.108,306.220,-43.600,-77.060
1009,77416.636000,254.035,-30.118,28.672,357.192,-51.487,11.126,320.220,-56.600,-66.060
1010,77416.656000,242.242,-25.098,28.672,357.129,-56.068,11.028,371.220,-5.600,-67.060
1011,77416.696000,223.570,-19.075,37.888,359.118,-49.532,16.143,441.220,99.400,-26.060
1012,77416.731000,249.121,-24.094,33.792,358.094,-55.841,21.975,579.220,188.400,28.940
1013,77416.773000,276.637,-24.094,24.576,357.261,-48.368,30.090,570.220,220.400,-0.060
1014,77416.813000,278.603,-1.004,23.552,360.029,-54.548,39.909,686.220,317.400,-18.060
1015,77416.853000,258.948,12.047,24.576,354.444,-48.152,43.021,857.220,217.400,-41.060
1016,77416.873000,243.225,37.145,15.360,351.712,-41.542,55.093,900.220,187.400,-130.060
1017,77416.913000,222.587,50.196,18.432,355.597,-34.943,62.202,822.220,188.400,-129.060
1018,77416.954000,227.501,61.239,19.456,352.738,-36.754,65.143,638.220,171.400,-180.060
1019,77417.1000,234.380,63.247,20.480,354.760,-27.509,68.327,365.220,77.400,-163.060
1020,77417.45000,244.207,57.224,10.240,354.789,-25.638,70.356,113.220,-69.600,-178.060
1021,77417.71000,243.225,50.196,5.120,352.907,-24.766,69.377,-114.780,-139.600,-179.060
1022,77417.111000,241.259,49.192,0.000,355.698,-27.594,63.353,-201.780,-191.600,-172.060
1023,77417.139000,264.845,44.173,10.240,356.725,-21.247,59.511,-213.780,-125.600,-192.060
1024,77417.173000,260.914,33.129,12.288,357.779,-13.048,56.703,-142.780,-146.600,-174.060
1025,77417.213000,297.274,23.090,13.312,357.781,-13.028,57.698,-143.780,-36.600,-194.060
1026,77417.254000,250.104,36.141,50.176,358.740,-12.099,57.719,-31.780,119.400,-236.060
1027,77417.294000,225.536,20.078,29.696,358.747,-11.242,54.754,146.220,-34.600,-111.060
1028,77417.340000,231.432,7.027,23.552,363.604,-2.018,54.957,149.220,-12.600,-108.060
1029,77417.361000,245.190,11.043,21.504,361.627,-8.417,56.807,233.220,90.400,-72.060
1030,77417.396000,244.207,18.071,19.456,364.478,-7.463,56.832,226.220,8.400,-23.060
1031,77417.436000,247.155,20.078,11.264,361.711,-2.043,54.954,214.220,-56.600,38.940
1032,77417.476000,246.173,12.047,4.096,362.675,-1.056,57.960,180.220,-83.600,96.940
1033,77417.516000,246.173,12.047,-2.048,361.710,-2.063,53.959,116.220,-74.600,122.940
1034,77417.558000,245.190,12.047,11.264,361.651,-5.825,48.906,71.220,-61.600,146.940
1035,77417.593000,233.397,13.051,26.624,359.752,-5.928,44.922,-59.780,-80.600,135.940
1036,77417.613000,236.345,8.031,15.360,357.825,-8.662,46.850,-83.780,-164.600,147.940
1037,77417.654000,255.017,-2.008,-1.024,360.643,-9.638,41.860,-192.780,-71.600,154.940
1038,77417.695000,292.361,-5.020,20.480,360.545,-16.948,42.699,-234.780,274.400,-32.060
1039,77417.734000,324.791,19.075,45.056,361.594,-9.567,44.847,-126.780,296.400,-323.060
1040,77417.774000,262.879,53.208,46.080,361.792,4.292,51.110,29.220,288.400,-513.060
1041,77417.814000,242.242,6.024,64.512,357.146,10.623,50.244,-78.780,348.400,-483.060
1042,77417.836000,207.846,25.098,62.464,357.238,16.315,60.311,-36.780,301.400,-354.060
1043,77417.878000,225.536,24.094,51.200,355.438,22.761,63.430,-45.780,314.400,-282.060
1044,77417.916000,223.570,36.141,58.368,353.630,28.350,69.514,10.220,352.400,-254.060
1045,77417.955000,237.328,38.149,70.656,354.569,27.505,72.481,88.220,261.400,-207.060
1046,77417.995000,249.121,40.157,69.632,355.653,37.595,72.697,114.220,197.400,-165.060
1047,77418.35000,240.276,45.176,71.680,357.527,35.866,76.642,104.220,209.400,-143.060
1048,77418.55000,236.345,48.188,74.752,350.074,44.069,79.789,178.220,163.400,-120.060
1049,77418.95000,235.363,47.184,71.680,351.072,47.766,80.864,216.220,127.400,-118.060
1050,77418.135000,238.311,47.184,69.632,348.247,48.664,81.874,267.220,81.400,-86.060
