Sample, Time, ACCX, ACCY, ACCZ, MAGX, MAGY, MAGZ, GYRX, GYRY, GYRZ
0,77792.613000,235.363,22.086,68.608,355.289,9.468,86.023,-1053.780,-133.600,-194.060
1,77792.633000,219.639,12.047,74.752,356.189,6.635,80.991,-918.780,-144.600,-179.060
2,77792.672000,222.587,3.012,76.800,358.148,11.279,83.082,-777.780,-165.600,-177.060
3,77792.712000,233.397,13.051,64.512,358.100,8.414,77.053,-578.780,-189.600,-189.060
4,77792.753000,240.276,13.051,58.368,354.290,6.532,77.007,-336.780,-163.600,-137.060
5,77792.794000,267.793,26.102,65.536,357.244,15.613,71.237,-123.780,-178.600,-142.060
6,77792.835000,257.965,38.149,74.752,355.276,10.091,71.117,118.220,-45.600,-90.060
7,77792.854000,232.415,43.169,61.440,355.415,20.188,72.327,142.220,-102.600,-33.060
8,77792.894000,217.674,42.165,50.176,360.120,18.399,71.301,98.220,-85.600,-50.060
9,77792.934000,240.276,39.153,36.864,360.215,25.670,68.472,-125.780,-243.600,-163.060
10,77792.974000,266.810,54.212,43.008,361.153,25.585,63.498,-189.780,-232.600,-224.060
11,77793.15000,256.983,41.161,43.008,362.070,23.706,60.476,-246.780,-211.600,-240.060
12,77793.55000,243.225,36.141,46.080,364.934,26.356,53.574,-246.780,-235.600,-333.060
13,77793.95000,226.518,53.208,51.200,360.349,37.248,51.810,-346.780,-187.600,-350.060
14,77793.117000,231.432,32.125,30.720,360.446,44.538,49.976,-181.780,-115.600,-354.060
15,77793.163000,246.173,49.192,36.864,358.580,46.364,51.006,-52.780,-6.600,-362.060
16,77793.194000,262.879,47.184,36.864,362.434,51.833,47.150,5.220,-139.600,-237.060
17,77793.235000,254.035,50.196,37.888,361.575,58.234,47.285,95.220,-91.600,-196.060
18,77793.275000,233.397,63.247,39.936,360.615,57.285,46.269,163.220,-146.600,-87.060
19,77793.317000,232.415,73.286,46.080,361.618,61.820,43.383,195.220,-149.600,-30.060
20,77793.348000,223.570,65.255,31.744,361.542,56.304,42.271,197.220,-49.600,-6.060
21,77793.377000,232.415,66.259,30.720,361.651,64.510,40.456,259.220,-66.600,17.940
22,77793.417000,248.138,72.282,29.696,361.640,63.613,41.432,291.220,-117.600,30.940
23,77793.457000,257.965,64.251,11.264,361.628,62.697,41.412,104.220,-144.600,32.940
24,77793.497000,251.086,76.298,27.648,362.523,59.805,33.395,171.220,-66.600,-26.060
25,77793.534000,246.173,86.337,27.648,362.564,62.593,35.443,7.220,-18.600,-62.060
26,77793.575000,232.415,77.302,33.792,359.700,60.723,35.399,-55.780,-8.600,-0.060
27,77793.595000,235.363,73.286,37.888,361.602,61.625,33.432,-129.780,-114.600,69.940
28,77793.635000,238.311,64.251,17.408,361.543,57.863,28.379,-8.780,-326.600,143.940
29,77793.682000,240.276,55.216,18.432,363.363,53.190,22.314,12.220,-259.600,131.940
30,77793.717000,246.173,49.192,5.120,360.555,55.823,18.388,53.220,-262.600,98.940
31,77793.755000,243.225,48.188,4.096,360.529,53.971,17.353,106.220,-4.600,27.940
32,77793.795000,242.242,72.282,20.480,364.314,54.021,17.360,32.220,27.400,38.940
33,77793.815000,247.155,63.247,19.456,363.357,53.112,18.334,-83.780,31.400,2.940
34,77793.854000,246.173,61.239,21.504,362.455,55.926,22.371,-32.780,109.400,-22.060
35,77793.894000,243.225,63.247,27.648,360.590,57.772,24.397,203.220,159.400,-27.060
36,77793.934000,245.190,69.271,14.336,363.313,49.525,22.236,-44.780,54.400,-45.060
37,77793.978000,243.225,67.263,20.480,363.318,49.584,25.221,-43.780,77.400,-8.060
38,77794.18000,244.207,61.239,21.504,364.246,47.842,29.164,-107.780,64.400,-8.060
39,77794.58000,244.207,67.263,24.576,362.488,57.856,27.385,-115.780,67.400,-4.060
40,77794.78000,241.259,74.290,22.528,362.452,55.127,28.322,-240.780,69.400,-1.060
41,77794.118000,243.225,45.176,24.576,362.479,56.979,29.356,-367.780,44.400,-33.060
42,77794.158000,240.276,76.298,26.624,364.339,54.314,32.286,-252.780,13.400,-16.060
43,77794.193000,243.225,54.212,27.648,361.509,55.153,30.310,-377.780,23.400,-27.060
44,77794.233000,242.242,49.192,30.720,363.343,50.637,32.206,-168.780,27.400,15.940
45,77794.279000,244.207,66.259,28.672,362.484,57.037,32.341,-321.780,-5.600,-4.060
46,77794.299000,241.259,54.212,29.696,362.395,50.605,31.210,-232.780,-0.600,0.940
47,77794.339000,243.225,55.216,32.768,361.477,52.464,33.237,-228.780,39.400,8.940
48,77794.379000,243.225,53.208,32.768,357.726,55.123,31.299,-140.780,60.400,4.940
49,77794.427000,243.225,45.176,38.912,364.331,53.456,35.252,23.220,81.400,17.940
50,77794.455000,240.276,50.196,39.936,361.422,47.980,38.115,197.220,84.400,30.940
51,77794.495000,243.225,64.251,38.912,364.260,47.998,37.125,199.220,91.400,36.940
52,77794.535000,244.207,60.235,36.864,360.429,44.342,40.025,37.220,33.400,11.940
53,77794.555000,244.207,56.220,39.936,364.227,45.309,40.051,73.220,36.400,16.940
54,77794.599000,244.207,58.227,37.888,360.542,52.588,40.201,65.220,25.400,19.940
55,77794.639000,241.259,55.216,38.912,364.260,47.998,37.125,22.220,11.400,10.940
56,77794.679000,238.311,60.235,38.912,360.539,52.549,38.211,-9.780,11.400,0.940
57,77794.719000,245.190,64.251,33.792,360.498,49.761,36.162,-342.780,-57.600,-73.060
58,77794.759000,246.173,57.224,40.960,360.451,46.136,38.074,-128.780,7.400,-30.060
59,77794.775000,245.190,50.196,39.936,361.412,47.084,39.090,-9.780,0.400,9.940
60,77794.815000,241.259,59.231,37.888,362.408,50.761,39.170,-5.780,19.400,10.940
61,77794.855000,243.225,61.239,35.840,363.353,50.754,38.177,-1.780,15.400,18.940
62,77794.895000,241.259,60.235,33.792,364.221,45.231,36.071,-24.780,-3.600,37.940
63,77794.950000,247.155,60.235,36.864,363.340,49.838,38.157,-27.780,3.400,47.940
64,77794.975000,245.190,54.212,36.864,362.320,44.348,39.033,-14.780,7.400,57.940
65,77794.999000,246.173,59.231,37.888,360.492,48.923,40.123,-6.780,21.400,57.940
66,77795.39000,242.242,56.220,35.840,362.340,45.342,43.033,-2.780,26.400,67.940
67,77795.79000,241.259,56.220,37.888,365.970,34.340,39.820,1.220,29.400,71.940
68,77795.119000,244.207,57.224,37.888,360.379,40.678,39.947,-28.780,43.400,63.940
69,77795.155000,245.190,58.227,40.960,364.209,43.554,43.992,-33.780,62.400,72.940
70,77795.195000,244.207,55.216,41.984,363.202,38.981,44.888,-23.780,56.400,71.940
71,77795.235000,241.259,53.208,41.984,365.104,39.883,42.921,-35.780,53.400,72.940
72,77795.254000,240.276,48.188,41.984,361.247,34.375,44.787,-19.780,54.400,77.940
73,77795.294000,238.311,46.180,44.032,361.309,38.956,44.885,-12.780,39.400,55.940
74,77795.334000,250.104,47.184,46.080,362.232,37.156,45.843,-20.780,39.400,49.940
75,77795.374000,246.173,48.188,47.104,361.250,34.414,46.777,-0.780,39.400,15.940
76,77795.414000,241.259,48.188,47.104,362.223,36.278,47.813,0.220,27.400,15.940
77,77795.459000,239.294,45.176,46.080,362.210,35.362,47.794,-26.780,23.400,21.940
78,77795.479000,237.328,51.200,44.032,361.273,36.227,45.821,-9.780,22.400,3.940
79,77795.519000,246.173,46.180,44.032,366.942,35.425,47.802,-76.780,26.400,-0.060
80,77795.559000,245.190,60.235,47.104,361.150,27.085,46.621,-88.780,4.400,-8.060
81,77795.599000,247.155,52.204,47.104,362.125,29.748,41.706,-135.780,-2.600,37.940
82,77795.638000,236.345,46.180,49.152,360.218,28.008,47.634,-151.780,0.400,44.940
83,77795.679000,239.294,47.184,50.176,360.264,31.634,45.722,-135.780,14.400,61.940
84,77795.719000,244.207,40.157,56.320,359.286,28.931,48.647,-113.780,26.400,53.940
85,77795.739000,243.225,38.149,57.344,362.095,27.078,45.628,-76.780,19.400,59.940
86,77795.779000,241.259,37.145,55.296,362.159,31.678,46.721,-44.780,-18.600,62.940
87,77795.819000,240.276,33.129,48.128,365.847,24.438,48.561,-34.780,-40.600,54.940
88,77795.859000,241.259,34.133,49.152,365.887,27.986,42.669,-25.780,-49.600,29.940
89,77795.899000,246.173,34.133,49.152,365.769,18.902,46.454,-20.780,-44.600,13.940
90,77795.939000,247.155,35.137,48.128,367.685,20.740,45.501,-0.780,-41.600,-3.060
91,77795.959000,247.155,37.145,47.104,364.944,28.012,44.657,9.220,-26.600,-11.060
92,77795.999000,244.207,39.153,48.128,363.014,25.239,44.596,24.220,-3.600,-13.060
93,77796.39000,244.207,40.157,48.128,365.801,21.592,43.527,23.220,1.400,-21.060
94,77796.78000,244.207,39.153,49.152,365.826,23.425,43.566,18.220,12.400,-17.060
95,77796.118000,244.207,43.169,49.152,365.831,23.483,46.552,34.220,15.400,-20.060
96,77796.157000,244.207,39.153,51.200,362.040,23.355,42.565,27.220,0.400,-6.060
97,77796.202000,243.225,43.169,48.128,362.034,22.517,46.525,42.220,4.400,-16.060
98,77796.217000,244.207,40.157,50.176,364.912,25.322,47.584,28.220,8.400,6.940
99,77796.259000,243.225,44.173,47.104,362.107,27.994,45.647,50.220,-16.600,1.940
100,77796.300000,243.225,42.165,46.080,363.887,19.774,45.475,37.220,-23.600,4.940
101,77796.337000,243.225,44.173,47.104,363.057,28.046,47.639,32.220,-26.600,-3.060
102,77796.377000,241.259,49.192,47.104,364.021,29.812,43.700,56.220,-25.600,-6.060
103,77796.418000,245.190,44.173,45.056,364.960,28.967,46.667,33.220,-29.600,7.940
104,77796.438000,244.207,43.169,45.056,362.121,28.930,46.662,25.220,-16.600,8.940
105,77796.478000,244.207,44.173,43.008,365.881,27.148,46.630,27.220,-13.600,9.940
106,77796.518000,241.259,43.169,44.032,364.941,27.973,42.667,29.220,-13.600,10.940
107,77796.559000,245.190,44.173,46.080,363.987,27.103,45.631,43.220,-6.600,10.940
108,77796.599000,244.207,44.173,41.984,365.903,28.941,44.679,40.220,-19.600,14.940
109,77796.639000,244.207,43.169,40.960,364.860,21.638,46.511,31.220,-24.600,17.940
110,77796.679000,245.190,45.176,43.008,363.052,27.987,44.654,26.220,-26.600,15.940
111,77796.699000,244.207,46.180,43.008,362.079,26.123,43.618,27.220,-21.600,13.940
112,77796.737000,246.173,44.173,45.056,364.919,26.180,44.618,11.220,-18.600,20.940
113,77796.778000,245.190,43.169,43.008,364.919,26.180,44.618,16.220,-7.600,19.940
114,77796.818000,241.259,45.176,41.984,364.919,26.180,44.618,26.220,-6.600,26.940
115,77796.858000,247.155,40.157,40.960,364.830,19.747,43.487,35.220,6.400,31.940
116,77796.904000,244.207,45.176,39.936,362.005,20.646,44.496,37.220,-1.600,24.940
117,77796.920000,246.173,44.173,37.888,365.853,25.276,44.601,26.220,4.400,24.940
118,77796.962000,243.225,48.188,35.840,365.778,19.779,44.483,18.220,1.400,25.940
119,77797.4000,245.190,46.180,36.864,363.962,25.271,45.592,15.220,14.400,36.940
120,77797.39000,243.225,44.173,33.792,364.810,17.974,46.433,16.220,-0.600,18.940
121,77797.79000,245.190,46.180,40.960,363.925,22.522,45.534,-4.780,17.400,1.940
122,77797.119000,244.207,49.192,34.816,363.013,25.219,43.600,-36.780,-24.600,-43.060
123,77797.139000,246.173,44.173,39.936,364.943,27.993,43.662,-78.780,-13.600,-70.060
124,77797.184000,240.276,48.188,41.984,364.868,22.496,43.545,-32.780,4.400,-100.060
125,77797.233000,245.190,45.176,45.056,364.957,28.928,44.677,-131.780,23.400,-113.060
126,77797.262000,239.294,33.129,40.960,364.921,26.199,45.613,-171.780,34.400,-99.060
127,77797.302000,228.484,48.188,38.912,365.891,28.025,44.659,-91.780,59.400,-109.060
128,77797.343000,266.810,32.125,49.152,365.958,32.664,47.742,-201.780,187.400,-80.060
129,77797.379000,249.121,42.165,51.200,363.053,27.227,52.595,-161.780,244.400,-56.060
130,77797.413000,246.173,31.122,50.176,362.166,30.996,58.642,-257.780,289.400,29.940
131,77797.439000,252.069,28.110,60.416,360.271,30.172,64.589,-286.780,337.400,92.940
132,77797.478000,256.000,26.102,69.632,359.330,30.218,67.573,-353.780,356.400,123.940
133,77797.520000,256.983,18.071,70.656,358.258,20.265,74.322,-229.780,346.400,215.940
134,77797.560000,242.242,25.098,75.776,357.260,15.808,81.188,-160.780,294.400,190.940
135,77797.602000,230.449,28.110,66.560,354.384,13.023,81.124,-35.780,219.400,248.940
136,77797.622000,242.242,35.137,72.704,357.267,15.886,85.168,61.220,137.400,229.940
137,77797.659000,244.207,56.220,79.872,354.417,14.952,86.139,143.220,86.400,126.940
138,77797.698000,256.983,61.239,83.968,354.317,7.623,85.983,34.220,34.400,35.940
139,77797.739000,198.019,48.188,79.872,353.446,13.108,86.098,21.220,-106.600,-34.060
140,77797.779000,238.311,51.200,61.440,356.282,13.106,84.113,-177.780,-214.600,-83.060
141,77797.819000,274.672,39.153,68.608,357.182,10.273,79.081,-193.780,-207.600,-173.060
142,77797.859000,230.449,29.114,74.752,354.465,19.357,77.281,-57.780,-184.600,-165.060
143,77797.880000,242.242,33.129,73.728,358.306,23.910,73.405,-100.780,-83.600,-91.060
144,77797.920000,234.380,34.133,71.680,357.344,22.942,71.393,-65.780,-56.600,-70.060
145,77797.960000,242.242,39.153,76.800,357.283,18.381,72.291,-60.780,2.400,-49.060
146,77798.0,244.207,38.149,75.776,359.185,19.283,70.324,-13.780,-7.600,-26.060
147,77798.40000,220.622,38.149,62.464,357.280,18.342,70.301,-19.780,-64.600,19.940
148,77798.82000,211.777,40.157,59.392,358.288,22.935,70.400,19.220,-75.600,51.940
149,77798.102000,227.501,54.212,69.632,359.155,17.392,67.299,43.220,-76.600,49.940
150,77798.142000,263.862,55.216,73.728,355.459,23.775,68.424,13.220,-90.600,-35.060
151,77798.182000,251.086,47.184,72.704,359.171,19.127,62.363,23.220,-162.600,-3.060
152,77798.222000,269.758,32.125,65.536,361.134,24.590,59.498,-49.780,-143.600,29.940
153,77798.262000,235.363,31.122,63.488,354.380,15.283,56.306,-15.780,-108.600,43.940
154,77798.302000,228.484,51.200,67.584,358.326,27.223,55.572,-46.780,-25.600,-40.060
155,77798.322000,230.449,35.137,71.680,359.186,20.842,56.432,-50.780,-8.600,-55.060
156,77798.362000,233.397,33.129,67.584,360.208,26.352,56.551,-0.780,-25.600,-70.060
157,77798.402000,246.173,39.153,69.632,363.901,19.930,53.436,4.220,-40.600,-64.060
158,77798.442000,245.190,35.137,68.608,362.953,19.898,52.439,-25.780,-80.600,-43.060
159,77798.482000,233.397,30.118,57.344,363.972,25.388,51.563,10.220,-90.600,39.940
160,77798.522000,240.276,25.098,60.416,363.007,24.381,47.561,-8.780,-55.600,50.940
161,77798.560000,240.276,23.090,65.536,361.087,22.504,46.524,19.220,-12.600,41.940
162,77798.580000,240.276,13.051,62.464,365.833,23.503,47.547,31.220,23.400,50.940
163,77798.620000,245.190,16.063,61.440,364.879,22.632,50.511,72.220,52.400,41.940
164,77798.660000,242.242,26.102,49.152,361.950,16.143,48.379,274.220,110.400,62.940
165,77798.700000,222.587,38.149,41.984,363.895,19.092,57.396,70.220,180.400,84.940
166,77798.740000,253.052,24.094,53.248,362.848,11.751,57.238,-72.780,178.400,148.940
167,77798.792000,265.827,37.145,79.872,362.921,16.448,63.306,-164.780,238.400,87.940
168,77798.800000,267.793,49.192,80.896,359.051,10.024,65.153,-375.780,272.400,17.940
169,77798.840000,255.017,44.173,81.920,361.940,12.947,72.182,-460.780,200.400,8.940
170,77798.880000,219.639,35.137,67.584,357.994,1.786,65.971,-532.780,92.400,-10.060
171,77798.920000,207.846,39.153,64.512,359.969,7.386,70.072,-462.780,47.400,-21.060
172,77798.960000,216.691,22.086,62.464,359.913,2.883,73.954,-511.780,54.400,60.940
173,77799.0,215.708,12.047,70.656,357.990,0.968,70.927,-330.780,59.400,51.940
174,77799.40000,240.276,0.000,71.680,362.736,1.966,71.950,-224.780,7.400,59.940
175,77799.60000,242.242,-1.004,67.584,363.604,-3.558,69.844,111.220,18.400,4.940
176,77799.100000,278.603,5.020,84.992,360.909,6.560,74.034,342.220,78.400,-40.060
177,77799.140000,292.361,5.020,82.944,361.869,7.509,75.050,504.220,73.400,-114.060
178,77799.180000,269.758,43.169,92.160,356.263,12.112,80.113,485.220,189.400,-269.060
179,77799.220000,231.432,14.055,80.896,357.323,20.389,81.285,642.220,140.400,-276.060
180,77799.260000,210.795,41.161,64.512,362.200,31.387,78.543,861.220,25.400,-190.060
181,77799.280000,199.985,48.188,67.584,356.484,28.563,78.474,862.220,-54.600,-119.060
182,77799.320000,184.261,45.176,64.512,359.361,31.349,78.538,795.220,-166.600,-37.060
183,77799.360000,221.605,35.137,67.584,361.272,33.128,74.600,726.220,-197.600,-22.060
184,77799.400000,194.088,58.227,63.488,362.290,38.599,72.729,624.220,-214.600,-60.060
185,77799.443000,295.309,41.161,72.704,362.365,44.875,65.900,359.220,-68.600,119.940
186,77799.483000,280.568,70.275,49.152,363.260,41.203,64.828,187.220,-122.600,95.940
187,77799.503000,232.415,65.255,58.368,358.541,42.057,64.840,-250.780,91.400,60.940
188,77799.543000,232.415,71.278,66.560,357.555,38.497,70.730,-497.780,226.400,-5.060
189,77799.582000,232.415,34.133,62.464,359.411,35.793,71.670,-668.780,225.400,52.940
190,77799.622000,232.415,36.141,84.992,356.493,29.440,76.504,-629.780,265.400,42.940
191,77799.662000,252.069,54.212,79.872,357.516,34.969,77.618,-560.780,110.400,-56.060
192,77799.702000,227.501,43.169,77.824,356.513,30.435,80.503,-413.780,-0.600,-159.060
193,77799.742000,213.743,51.200,64.512,360.339,34.051,75.613,-243.780,-82.600,-148.060
194,77799.762000,265.827,53.208,60.416,357.422,28.478,73.501,-614.780,-171.600,36.940
195,77799.802000,301.205,38.149,79.872,360.240,27.502,68.511,-611.780,-230.600,-15.060
196,77799.845000,309.067,48.188,78.848,360.343,35.630,62.716,-628.780,-422.600,-235.060
197,77799.884000,305.136,23.090,47.104,365.133,40.994,52.891,-664.780,-510.600,-386.060
198,77799.924000,246.173,68.267,68.608,361.453,49.111,49.080,-509.780,-240.600,-466.060
199,77799.964000,149.866,41.161,97.280,355.785,49.913,47.099,-347.780,50.400,-157.060
200,77799.984000,142.987,36.141,102.400,362.465,53.744,51.169,-171.780,221.400,101.940
201,77800.24000,188.192,61.239,101.376,355.682,41.785,52.894,-208.780,253.400,99.940
202,77800.73000,214.726,44.173,62.464,358.612,48.275,55.026,-465.780,8.400,31.940
203,77800.103000,248.138,31.122,52.224,359.521,45.539,54.969,-300.780,15.400,-14.060
204,77800.144000,231.432,17.067,80.896,358.664,51.959,56.099,-87.780,187.400,-72.060
205,77800.184000,221.605,45.176,67.584,357.733,52.901,58.107,130.220,133.400,-129.060
206,77800.224000,205.881,33.129,77.824,359.695,57.585,62.188,54.220,116.400,-197.060
207,77800.244000,212.760,44.173,96.256,355.967,62.057,59.294,275.220,16.400,-334.060
208,77800.284000,216.691,44.173,104.448,357.955,69.353,56.468,144.220,-79.600,-311.060
209,77800.319000,228.484,41.161,84.992,357.041,72.030,53.540,365.220,-238.600,-337.060
210,77800.359000,212.760,62.243,80.896,355.187,75.533,46.649,156.220,-314.600,-335.060
211,77800.402000,263.862,44.173,84.992,356.248,84.590,40.875,328.220,-255.600,-241.060
212,77800.439000,225.536,65.255,83.968,358.215,90.872,33.055,375.220,-213.600,-238.060
213,77800.460000,232.415,58.227,82.944,356.355,93.536,30.125,425.220,-140.600,-131.060
214,77800.503000,233.397,61.239,93.184,357.262,90.781,29.073,439.220,-12.600,-61.060
215,77800.539000,240.276,83.325,79.872,357.348,97.174,28.215,155.220,-38.600,48.940
216,77800.579000,300.223,59.231,48.128,358.242,93.503,27.143,-169.780,-18.600,163.940
217,77800.620000,259.931,69.271,58.368,353.436,87.944,27.018,-173.780,192.400,209.940
218,77800.662000,243.225,91.357,65.536,355.228,79.860,33.811,-231.780,224.400,217.940
219,77800.682000,251.086,79.310,75.776,357.083,76.377,41.697,-450.780,334.400,223.940
220,77800.722000,209.812,68.267,72.704,358.983,76.480,45.680,-529.780,220.400,205.940
221,77800.762000,199.002,62.243,72.704,357.011,70.139,50.515,-716.780,126.400,206.940
222,77800.803000,235.363,50.196,77.824,357.957,70.152,50.517,-961.780,98.400,152.940
223,77800.844000,217.674,38.149,78.848,357.766,55.591,55.180,-1076.780,-81.600,100.940
224,77800.884000,208.829,5.020,83.968,357.795,58.242,50.263,-1096.780,-93.600,30.940
225,77800.924000,206.864,4.016,86.016,355.930,60.088,52.289,-798.780,-83.600,-81.060
226,77800.944000,269.758,25.098,76.800,356.898,61.894,50.340,-784.780,-268.600,-163.060
227,77800.992000,249.121,2.008,62.464,358.686,54.532,47.202,-506.780,-189.600,-208.060
228,77801.25000,222.587,21.082,97.280,357.846,61.926,51.337,90.220,164.400,-114.060
229,77801.65000,206.864,40.157,90.112,354.075,62.812,52.344,270.220,98.400,-88.060
230,77801.103000,225.536,24.094,92.160,357.996,72.920,51.571,95.220,44.400,-129.060
231,77801.144000,244.207,19.075,89.088,355.161,72.921,53.556,405.220,-1.600,-102.060
232,77801.164000,254.035,30.118,81.920,356.055,69.250,52.484,411.220,-143.600,-43.060
233,77801.204000,247.155,19.075,82.944,356.110,73.733,47.607,405.220,-152.600,47.940
234,77801.244000,257.965,16.063,71.680,356.067,70.926,44.563,597.220,-162.600,65.940
235,77801.284000,272.706,54.212,60.416,352.363,77.211,40.713,747.220,-149.600,62.940
236,77801.325000,265.827,45.176,45.056,354.190,72.616,38.628,559.220,-203.600,277.940
237,77801.364000,302.188,62.243,46.080,357.857,64.362,35.474,608.220,-183.600,418.940
238,77801.404000,340.514,77.302,57.344,352.108,58.830,37.337,610.220,7.400,413.940
239,77801.424000,299.240,40.157,48.128,349.215,55.088,35.264,491.220,15.400,406.940
240,77801.464000,218.656,41.161,99.328,352.989,53.462,43.192,492.220,296.400,284.940
241,77801.504000,189.175,99.388,117.760,353.995,57.256,49.242,410.220,485.400,-229.060
242,77801.544000,152.814,40.157,118.784,347.419,60.034,55.259,190.220,469.400,-199.060
243,77801.584000,159.693,39.153,65.536,349.450,69.377,63.418,309.220,224.400,-93.060
244,77801.623000,148.883,40.157,71.680,342.880,73.013,66.470,303.220,158.400,23.940
245,77801.643000,173.451,28.110,90.112,345.710,72.173,68.445,450.220,150.400,78.940
246,77801.682000,202.933,38.149,72.704,344.762,72.141,67.449,501.220,66.400,142.940
247,77801.722000,232.415,46.180,66.560,343.707,63.922,69.262,597.220,135.400,235.940
248,77801.762000,229.466,61.239,81.920,344.649,63.116,74.219,440.220,152.400,322.940
249,77801.800000,249.121,56.220,77.824,342.642,54.826,73.045,147.220,111.400,379.940
250,77801.840000,237.328,58.227,93.184,344.502,52.162,75.975,49.220,56.400,405.940
251,77801.883000,247.155,42.165,90.112,344.461,48.595,80.872,-202.780,-57.600,455.940
252,77801.903000,242.242,34.133,82.944,345.172,32.000,74.552,-269.780,-175.600,473.940
253,77801.943000,244.207,40.157,76.800,346.102,31.057,72.544,-283.780,-186.600,398.940
254,77801.983000,237.328,41.161,83.968,342.196,22.664,67.387,-501.780,-206.600,280.940
255,77802.23000,238.311,20.078,89.088,347.610,3.481,65.992,-406.780,-189.600,290.940
256,77802.63000,211.777,23.090,74.752,344.800,6.094,61.070,-350.780,-241.600,193.940
257,77802.103000,198.019,18.071,76.800,347.672,8.822,58.148,-223.780,-318.600,55.940
258,77802.122000,288.430,5.020,54.272,346.579,-1.366,52.957,-133.780,-311.600,74.940
259,77802.163000,358.203,27.106,34.816,353.369,11.430,47.271,-103.780,-253.600,-155.060
260,77802.207000,239.294,-16.063,70.656,351.382,4.914,43.151,-226.780,-168.600,-243.060
261,77802.247000,252.069,-48.188,69.632,351.468,11.308,42.293,-35.780,-63.600,-172.060
262,77802.283000,221.605,11.043,49.152,352.514,18.649,42.450,659.220,-70.600,-328.060
263,77802.327000,208.829,12.047,44.032,351.641,24.114,41.571,918.220,-4.600,-356.060
264,77802.347000,249.121,46.180,57.344,347.934,29.600,43.671,912.220,115.400,-417.060
265,77802.387000,238.311,36.141,59.392,351.913,44.230,40.010,924.220,-80.600,-471.060
266,77802.427000,215.708,61.239,29.696,348.174,47.805,38.091,859.220,-129.600,-365.060
267,77802.468000,223.570,53.208,32.768,348.223,51.450,37.174,601.220,-65.600,-313.060
268,77802.509000,218.656,63.247,45.056,348.313,57.902,39.301,554.220,-12.600,-142.060
269,77802.544000,221.605,67.263,36.864,352.122,59.765,38.352,421.220,-38.600,63.940
270,77802.585000,279.585,49.192,29.696,346.439,59.632,35.357,-139.780,-70.600,223.940
271,77802.617000,247.155,69.271,23.552,349.233,56.063,38.269,-327.780,31.400,76.940
272,77802.647000,226.518,63.247,49.152,351.983,49.668,37.142,-385.780,84.400,96.940
273,77802.687000,241.259,43.169,39.936,347.319,54.245,40.216,-495.780,62.400,123.940
274,77802.727000,236.345,63.247,47.104,347.251,49.606,37.134,-522.780,78.400,83.940
275,77802.763000,242.242,56.220,40.960,348.188,48.741,39.106,-468.780,-102.600,95.940
276,77802.803000,253.052,64.251,38.912,351.926,45.926,33.084,-392.780,-121.600,103.940
277,77802.823000,267.793,53.208,52.224,348.918,33.900,28.845,-534.780,-110.600,161.940
278,77802.868000,322.825,21.082,38.912,352.664,31.182,27.798,-590.780,-226.600,206.940
279,77802.903000,288.430,26.102,54.272,349.842,32.880,22.857,-573.780,-313.600,32.940
280,77802.948000,353.290,3.012,31.744,351.868,43.703,13.144,-557.780,-386.600,-205.060
281,77802.983000,289.413,15.059,48.128,349.081,48.129,7.266,-650.780,-360.600,-389.060
282,77803.24000,224.553,5.020,32.768,351.120,59.869,-2.428,-403.780,-445.600,-422.060
283,77803.64000,199.985,33.129,82.944,349.232,59.902,0.554,-136.780,212.400,-178.060
284,77803.84000,135.125,-5.020,105.472,348.291,59.948,3.538,106.220,225.400,-54.060
285,77803.124000,168.537,60.235,44.032,349.384,70.915,1.783,351.220,37.400,-130.060
286,77803.165000,196.054,70.275,22.528,346.486,66.336,3.671,-338.780,47.400,-216.060
287,77803.210000,234.380,39.153,37.888,347.554,75.471,1.878,-571.780,27.400,-107.060
288,77803.243000,230.449,46.180,63.488,348.457,71.897,5.782,-258.780,305.400,-134.060
289,77803.284000,253.052,60.235,71.680,348.481,72.950,12.766,-87.780,264.400,-189.060
290,77803.304000,239.294,54.212,62.464,347.690,83.989,15.984,-174.780,179.400,-321.060
291,77803.344000,237.328,19.075,81.920,346.831,90.390,16.119,-15.780,217.400,-289.060
292,77803.388000,225.536,45.176,76.800,342.188,96.760,17.242,271.220,61.400,-393.060
293,77803.429000,232.415,46.180,54.272,346.011,99.558,17.308,185.220,-164.600,-335.060
294,77803.468000,228.484,67.263,53.248,345.164,107.635,9.521,269.220,-291.600,-414.060
295,77803.508000,230.449,72.282,52.224,340.439,109.190,-1.394,218.220,-386.600,-397.060
296,77803.553000,222.587,72.282,52.224,340.529,116.402,-7.208,157.220,-382.600,-294.060
297,77803.565000,226.518,63.247,58.368,337.663,115.273,-16.188,146.220,-297.600,-212.060
298,77803.603000,250.104,71.278,52.224,339.624,120.716,-20.048,211.220,-184.600,-136.060
299,77803.644000,254.035,80.314,43.008,339.672,124.361,-20.965,208.220,-161.600,-54.060
300,77803.685000,317.912,82.322,16.384,339.550,115.999,-27.111,71.220,-94.600,75.940
301,77803.723000,306.119,76.298,19.456,342.326,111.456,-27.203,-179.780,87.400,257.940
302,77803.767000,255.017,67.263,29.696,344.248,112.592,-17.230,-232.780,290.400,376.940
303,77803.787000,227.501,80.314,57.344,344.170,106.296,-11.396,-217.780,430.400,392.940
304,77803.827000,237.328,76.298,48.128,346.941,100.915,-7.528,-387.780,261.400,428.940
305,77803.867000,216.691,63.247,63.488,347.811,94.651,-0.698,-446.780,263.400,398.940
306,77803.925000,204.898,58.227,50.176,347.657,82.839,4.024,-631.780,116.400,355.940
307,77803.943000,213.743,41.161,43.008,350.496,82.877,4.029,-952.780,-43.600,313.940
308,77803.985000,242.242,38.149,52.224,351.321,73.767,5.826,-1145.780,-95.600,227.940
309,77804.24000,215.708,8.031,64.512,352.226,70.992,3.779,-1118.780,-211.600,47.940
310,77804.45000,216.691,17.067,47.104,352.314,77.405,3.915,-862.780,-247.600,-68.060
311,77804.85000,293.344,7.027,18.432,350.436,79.095,-2.019,-805.780,-338.600,-123.060
312,77804.125000,239.294,8.031,47.104,352.289,76.352,-3.070,-167.780,-44.600,-135.060
313,77804.165000,222.587,14.055,58.368,347.633,81.786,-2.961,208.220,92.400,-7.060
314,77804.213000,231.432,36.141,64.512,350.445,79.972,-3.990,273.220,40.400,-14.060
315,77804.248000,243.225,17.067,51.200,348.529,78.134,-3.037,131.220,-76.600,-68.060
316,77804.268000,260.914,17.067,56.320,350.481,82.701,-4.927,365.220,-24.600,-101.060
317,77804.305000,267.793,4.016,50.176,347.623,81.669,-8.931,436.220,-123.600,-34.060
318,77804.343000,263.862,1.004,40.960,346.739,86.237,-8.835,548.220,-118.600,23.940
319,77804.385000,278.603,35.137,27.648,347.646,83.482,-9.887,703.220,-110.600,12.940
320,77804.425000,279.585,39.153,22.528,351.352,77.977,-12.983,717.220,-175.600,160.940
321,77804.463000,263.862,52.204,17.408,341.816,73.154,-19.067,685.220,-216.600,348.940
322,77804.485000,340.514,59.231,5.120,347.514,75.003,-22.004,654.220,-270.600,507.940
323,77804.525000,315.946,42.165,25.600,346.403,63.061,-23.254,602.220,-135.600,477.940
324,77804.565000,222.587,28.110,95.232,346.385,61.307,-19.313,517.220,132.400,451.940
325,77804.605000,204.898,78.306,142.336,348.200,55.036,-13.476,150.220,434.400,-61.060
326,77804.645000,167.555,79.310,110.592,341.668,60.640,-3.420,110.220,196.400,-222.060
327,77804.685000,191.140,11.043,41.984,345.504,64.374,-2.340,-92.780,72.400,-268.060
328,77804.725000,193.106,8.031,27.648,343.654,67.156,0.700,230.220,155.400,-244.060
329,77804.745000,203.916,25.098,34.816,342.829,75.487,5.850,458.220,141.400,-187.060
330,77804.785000,225.536,37.145,37.888,342.856,77.338,6.884,620.220,267.400,-94.060
331,77804.825000,240.276,37.145,17.408,340.934,74.663,11.797,751.220,314.400,16.940
332,77804.865000,234.380,45.176,16.384,339.090,77.523,18.818,651.220,353.400,182.940
333,77804.907000,233.397,46.180,45.056,340.893,70.336,24.635,507.220,424.400,398.940
334,77804.947000,238.311,62.243,58.368,342.696,63.149,30.453,409.220,287.400,427.940
335,77804.967000,270.741,52.204,56.320,341.597,51.343,36.168,123.220,203.400,511.940
336,77805.7000,248.138,41.161,64.512,342.482,46.795,37.067,-10.780,129.400,533.940
337,77805.48000,254.035,42.165,61.440,340.474,38.486,34.898,-20.780,0.400,463.940
338,77805.88000,252.069,42.165,57.344,339.368,26.602,36.632,-248.780,-85.600,409.940
339,77805.128000,250.104,19.075,47.104,341.131,17.407,33.455,-305.780,-169.600,341.940
340,77805.173000,241.259,23.090,38.912,344.861,13.734,30.399,-322.780,-203.600,226.940
341,77805.208000,224.553,15.059,46.080,341.160,20.058,28.539,-187.780,-90.600,137.940
342,77805.228000,237.328,11.043,51.200,344.886,15.567,30.438,-49.780,-94.600,110.940
343,77805.268000,303.171,12.047,48.128,340.126,13.633,28.400,104.220,21.400,23.940
344,77805.308000,299.240,-6.024,27.648,342.999,16.380,26.474,36.220,-142.600,-75.060
345,77805.348000,249.121,-7.027,22.528,343.044,19.986,23.567,67.220,-158.600,-235.060
346,77805.388000,260.914,-8.031,62.464,342.075,18.160,24.521,342.220,204.400,-302.060
347,77805.428000,250.104,-7.027,75.776,342.195,26.503,29.672,666.220,136.400,-380.060
348,77805.448000,213.743,40.157,44.032,341.415,38.440,31.914,840.220,10.400,-507.060
349,77805.488000,233.397,30.118,49.152,336.903,54.809,29.272,829.220,47.400,-583.060
350,77805.528000,248.138,46.180,45.056,343.610,61.251,26.435,752.220,-82.600,-531.060
351,77805.568000,235.363,62.243,31.744,343.698,67.664,26.572,655.220,-124.600,-442.060
352,77805.608000,230.449,49.192,39.936,337.209,77.634,25.780,670.220,-36.600,-282.060
353,77805.648000,212.760,68.267,40.960,341.066,83.142,23.913,386.220,-56.600,-189.060
354,77805.688000,266.810,57.224,40.960,337.224,79.349,19.848,222.220,-12.600,61.940
355,77805.708000,249.121,59.231,21.504,340.060,79.348,17.863,-151.780,-84.600,160.940
356,77805.748000,231.432,61.239,53.248,339.081,76.645,20.788,-357.780,73.400,125.940
357,77805.788000,233.397,67.263,57.344,338.027,68.446,23.596,-394.780,172.400,124.940
358,77805.828000,239.294,54.212,49.152,338.100,73.144,29.664,-486.780,77.400,168.940
359,77805.868000,230.449,60.235,31.744,341.768,64.890,26.510,-517.780,-26.600,177.940
360,77805.908000,246.173,53.208,26.624,340.752,60.219,22.430,-561.780,-135.600,178.940
361,77805.928000,245.190,45.176,24.576,336.918,56.524,23.341,-557.780,-172.600,164.940
362,77805.968000,284.499,19.075,25.600,340.699,56.515,20.362,-557.780,-239.600,258.940
363,77806.8000,297.274,19.075,23.552,343.498,54.545,11.373,-663.780,-329.600,167.940
364,77806.48000,312.015,20.078,23.552,345.379,54.433,4.411,-848.780,-445.600,-2.060
365,77806.88000,326.756,5.020,56.320,340.605,52.344,-5.587,-835.780,-421.600,-224.060
366,77806.128000,340.514,-9.035,28.672,338.781,57.737,-9.454,-895.780,-650.600,-313.060
367,77806.148000,217.674,36.141,48.128,339.020,75.923,-16.029,-585.780,-202.600,-556.060
368,77806.188000,211.777,75.294,78.848,336.145,73.157,-15.097,-326.780,213.400,-444.060
369,77806.228000,159.693,62.243,88.064,337.328,89.796,-7.779,-373.780,257.400,-327.060
370,77806.268000,151.831,85.333,63.488,336.407,90.856,0.199,-176.780,282.400,-249.060
371,77806.308000,202.933,62.243,20.480,336.418,91.753,-0.776,-756.780,172.400,-129.060
372,77806.348000,191.140,38.149,16.384,334.527,91.747,0.216,-641.780,116.400,-37.060
373,77806.388000,210.795,25.098,44.032,334.660,101.006,5.386,-341.780,285.400,62.940
374,77806.408000,232.415,46.180,76.800,333.669,97.388,8.291,15.220,268.400,83.940
375,77806.448000,243.225,32.125,56.320,334.655,100.168,9.347,84.220,134.400,-33.060
376,77806.488000,245.190,19.075,64.512,333.594,91.891,8.174,195.220,102.400,-24.060
377,77806.528000,262.879,28.110,70.656,337.412,94.631,5.254,202.220,35.400,-142.060
378,77806.568000,240.276,51.200,77.824,336.603,104.696,5.467,291.220,-21.600,-234.060
379,77806.614000,239.294,35.137,61.440,333.754,104.541,-0.508,310.220,-179.600,-220.060
380,77806.629000,242.242,32.125,46.080,334.778,110.850,-6.340,480.220,-243.600,-198.060
381,77806.669000,230.449,29.114,47.104,334.681,104.319,-12.447,586.220,-200.600,-182.060
382,77806.709000,250.104,31.122,51.200,331.863,106.075,-14.403,549.220,-126.600,-149.060
383,77806.750000,264.845,51.200,50.176,332.839,108.739,-19.318,611.220,-8.600,-136.060
384,77806.790000,232.415,71.278,46.080,334.753,110.557,-21.266,436.220,36.400,-59.060
385,77806.830000,310.050,80.314,40.960,333.821,111.480,-20.253,122.220,123.400,52.940
386,77806.850000,327.739,65.255,6.144,337.621,111.706,-11.291,-320.780,35.400,229.940
387,77806.890000,244.207,75.294,25.600,335.689,108.913,-12.348,-406.780,181.400,224.940
388,77806.930000,235.363,87.341,32.768,333.682,99.843,-6.576,-651.780,274.400,235.940
389,77806.970000,230.449,56.220,55.296,340.343,101.900,0.440,-738.780,329.400,237.940
390,77807.10000,215.708,43.169,70.656,338.347,93.747,6.232,-732.780,279.400,243.940
391,77807.45000,203.916,33.129,71.680,340.242,93.031,15.171,-864.780,113.400,212.940
392,77807.85000,223.570,34.133,55.296,339.166,83.799,11.989,-944.780,-9.600,132.940
393,77807.105000,245.190,34.133,59.392,339.251,89.413,18.076,-1226.780,-97.600,10.940
394,77807.145000,237.328,10.039,55.296,341.130,88.502,17.065,-1199.780,-148.600,-105.060
395,77807.188000,230.449,8.031,43.008,341.155,90.334,17.104,-858.780,-157.600,-154.060
396,77807.228000,273.689,19.075,24.576,336.436,91.188,17.115,-334.780,-113.600,-256.060
397,77807.268000,249.121,38.149,36.864,334.552,92.040,15.141,59.220,19.400,-192.060
398,77807.308000,205.881,23.090,75.776,336.578,101.324,20.315,245.220,200.400,-105.060
399,77807.328000,243.225,43.169,66.560,334.675,100.402,21.287,355.220,46.400,-117.060
400,77807.368000,237.328,24.094,76.800,336.555,99.511,21.271,208.220,5.400,-139.060
401,77807.407000,238.311,13.051,70.656,333.786,104.912,18.398,382.220,-39.600,-103.060
402,77807.448000,245.190,26.102,68.608,330.096,112.132,15.562,441.220,-59.600,-70.060
403,77807.488000,241.259,14.055,62.464,331.004,109.397,15.506,555.220,-105.600,-50.060
404,77807.528000,267.793,48.188,46.080,334.869,115.762,10.674,765.220,-145.600,-21.060
405,77807.568000,289.413,50.196,30.720,331.016,111.073,7.584,783.220,-194.600,227.940
406,77807.588000,299.240,76.298,35.840,331.911,107.401,6.513,785.220,-138.600,351.940
407,77807.628000,302.188,61.239,31.744,327.962,96.201,-1.689,675.220,-234.600,516.940
408,77807.668000,299.240,50.196,37.888,331.646,88.903,-2.833,520.220,-77.600,430.940
409,77807.712000,226.518,25.098,115.712,334.541,92.683,1.230,494.220,293.400,233.940
410,77807.758000,192.123,85.333,131.072,332.646,91.859,7.178,466.220,425.400,-112.060
411,77807.792000,179.347,27.106,69.632,331.735,93.796,13.185,371.220,135.400,-59.060
412,77807.812000,202.933,38.149,32.768,332.752,98.487,18.260,416.220,117.400,-82.060
413,77807.852000,194.088,38.149,27.648,331.824,100.228,14.317,410.220,124.400,-19.060
414,77807.892000,206.864,36.141,40.960,328.942,96.604,18.214,448.220,197.400,-25.060
415,77807.932000,228.484,75.294,51.200,328.938,95.786,23.170,551.220,360.400,-2.060
416,77807.972000,240.276,46.180,52.224,327.953,92.245,30.056,334.220,322.400,65.940
417,77808.12000,229.466,62.243,51.200,327.061,95.176,40.063,128.220,313.400,204.940
418,77808.52000,225.536,50.196,48.128,332.669,90.593,35.995,-45.780,236.400,235.940
419,77808.72000,254.035,59.231,70.656,329.739,83.324,40.809,21.220,156.400,370.940
420,77808.112000,249.121,54.212,74.752,329.696,79.737,44.711,-225.780,50.400,487.940
421,77808.152000,238.311,31.122,69.632,334.199,63.270,42.378,-340.780,-92.600,475.940
422,77808.188000,256.000,24.094,72.704,331.313,59.607,44.285,-400.780,-115.600,521.940
423,77808.228000,250.104,10.039,70.656,335.970,54.173,44.177,-308.780,-178.600,395.940
424,77808.268000,238.311,37.145,56.320,334.967,50.418,40.117,-114.780,-152.600,250.940
425,77808.287000,243.225,25.098,56.320,333.890,41.185,36.935,-205.780,-119.600,113.940
426,77808.327000,229.466,26.102,65.536,334.851,42.134,37.951,-80.780,-33.600,5.940
427,77808.367000,250.104,35.137,58.368,336.726,41.184,34.950,17.220,-83.600,-63.060
428,77808.409000,335.601,-1.004,10.240,336.807,47.519,31.106,39.220,-237.600,-217.060
429,77808.449000,250.104,19.075,23.552,335.932,52.964,29.231,53.220,-143.600,-285.060
430,77808.489000,246.173,1.004,72.704,338.712,48.460,31.129,-24.780,131.400,-323.060
431,77808.509000,257.965,11.043,67.584,332.314,64.882,32.464,539.220,71.400,-344.060
432,77808.549000,236.345,9.035,52.224,337.109,69.526,32.569,513.220,59.400,-334.060
433,77808.589000,227.501,24.094,72.704,331.531,76.780,32.716,692.220,117.400,-422.060
434,77808.635000,222.587,31.122,52.224,328.706,77.678,33.725,955.220,13.400,-406.060
435,77808.668000,238.311,60.235,45.056,329.872,94.122,31.093,992.220,-9.600,-396.060
436,77808.712000,214.726,53.208,45.056,328.009,96.748,26.173,794.220,-9.600,-297.060
437,77808.752000,222.587,59.231,46.080,329.953,100.457,27.249,691.220,-10.600,-127.060
438,77808.772000,237.328,64.251,49.152,329.932,99.443,22.255,377.220,-2.600,94.940
439,77808.812000,256.000,49.192,26.624,332.723,95.836,23.177,-51.780,-175.600,243.940
440,77808.852000,242.242,60.235,40.960,327.027,94.786,20.162,-307.780,19.400,151.940
441,77808.892000,229.466,75.294,72.704,328.005,96.709,24.183,-310.780,47.400,166.940
442,77808.930000,227.501,54.212,49.152,327.011,93.051,25.098,-477.780,-92.600,233.940
443,77808.970000,225.536,60.235,38.912,332.593,86.616,19.996,-565.780,-119.600,239.940
444,77808.990000,251.086,60.235,38.912,330.632,81.172,23.856,-589.780,-155.600,171.940
445,77809.35000,264.845,63.247,39.936,331.554,80.132,16.873,-462.780,-114.600,140.940
446,77809.70000,283.516,42.165,35.840,333.393,76.453,14.808,-725.780,-227.600,175.940
447,77809.110000,335.601,22.086,21.504,337.054,68.121,7.674,-797.780,-336.600,81.940
448,77809.150000,321.843,13.051,43.008,333.428,79.942,5.931,-880.780,-250.600,-152.060
449,77809.190000,347.393,-24.094,37.888,333.427,80.702,-2.010,-909.780,-432.600,-291.060
450,77809.230000,242.242,9.035,41.984,329.767,89.814,-1.822,-833.780,-358.600,-493.060
451,77809.250000,190.157,34.133,43.008,326.166,103.466,-3.526,-408.780,-239.600,-729.060
452,77809.290000,178.365,82.322,74.752,325.387,115.422,-0.289,-117.780,370.400,-474.060
453,77809.329000,141.021,30.118,102.400,322.576,116.477,8.681,-268.780,362.400,-202.060
454,77809.369000,155.762,42.165,51.200,319.852,123.944,17.788,-256.780,259.400,-170.060
455,77809.409000,198.019,67.263,28.672,321.793,127.614,16.874,-567.780,206.400,-255.060
456,77809.449000,248.138,63.247,49.152,319.910,127.706,22.841,-551.780,197.400,-240.060
457,77809.469000,248.138,69.271,63.488,317.131,131.450,28.885,-318.780,385.400,-226.060
458,77809.509000,247.155,49.192,81.920,314.301,131.510,33.855,-106.780,318.400,-149.060
459,77809.549000,212.760,60.235,81.920,313.455,138.827,34.009,73.220,267.400,-221.060
460,77809.590000,205.881,53.208,82.944,312.595,144.448,41.090,12.220,178.400,-140.060
461,77809.629000,237.328,35.137,92.160,316.341,141.730,40.043,-36.780,135.400,-108.060
462,77809.672000,224.553,34.133,80.896,312.579,143.492,39.081,283.220,-71.600,-43.060
463,77809.712000,243.225,59.231,72.704,314.549,149.813,33.250,238.220,-125.600,-87.060
464,77809.731000,241.259,68.267,71.680,315.417,144.290,31.145,161.220,-188.600,-196.060
465,77809.772000,247.155,73.286,57.344,314.498,146.909,25.231,101.220,-441.600,-305.060
466,77809.812000,212.760,79.310,59.392,311.718,152.173,15.393,117.220,-415.600,-320.060
467,77809.852000,156.745,83.325,57.344,309.878,156.611,9.517,46.220,-494.600,-206.060
468,77809.892000,166.572,105.412,34.816,307.942,154.539,-1.471,-144.780,-611.600,1.940
469,77809.932000,407.340,98.384,-4.096,309.801,152.635,-6.482,-546.780,-566.600,167.940
470,77809.952000,390.633,49.192,44.032,311.786,159.131,-3.357,-695.780,50.400,127.940
471,77809.990000,303.171,56.220,80.896,310.818,157.325,-1.408,131.220,448.400,31.940
472,77810.32000,217.674,108.424,95.232,311.775,157.455,4.564,316.220,647.400,40.940
473,77810.73000,199.985,95.373,56.320,311.688,150.282,12.369,22.220,400.400,210.940
474,77810.113000,205.881,82.322,57.344,314.490,146.811,20.256,-274.780,374.400,196.940
475,77810.153000,216.691,79.310,87.040,315.296,135.947,25.994,-484.780,416.400,223.940
476,77810.173000,218.656,71.278,74.752,316.279,137.928,33.000,-626.780,239.400,272.940
477,77810.214000,239.294,64.251,66.560,317.168,133.419,35.889,-761.780,145.400,203.940
478,77810.254000,236.345,42.165,72.704,320.030,134.490,41.884,-805.780,68.400,157.940
479,77810.294000,227.501,3.012,77.824,319.888,123.594,46.625,-641.780,-24.600,196.940
480,77810.333000,256.000,37.145,73.728,323.639,120.934,48.563,-446.780,-50.600,143.940
481,77810.373000,223.570,1.004,67.584,325.545,122.655,41.640,-312.780,-109.600,95.940
482,77810.414000,210.795,14.055,80.896,323.636,120.895,46.573,-79.780,32.400,67.940
483,77810.433000,232.415,9.035,87.040,322.688,120.863,45.576,42.220,1.400,31.940
484,77810.470000,226.518,6.024,79.872,320.708,114.425,45.436,26.220,-90.600,23.940
485,77810.510000,245.190,2.008,72.704,324.575,120.830,42.595,191.220,-89.600,4.940
486,77810.550000,259.931,10.039,72.704,322.611,115.347,44.464,319.220,-71.600,-22.060
487,77810.590000,255.017,25.098,62.464,323.536,114.346,39.471,373.220,-94.600,16.940
488,77810.630000,289.413,50.196,59.392,322.679,120.766,40.601,471.220,-67.600,100.940
489,77810.650000,281.551,56.220,61.440,322.563,112.481,38.435,391.220,-107.600,251.940
490,77810.690000,291.378,37.145,51.200,322.582,114.236,34.494,351.220,-271.600,386.940
491,77810.730000,280.568,10.039,84.992,324.417,109.738,37.385,225.220,-52.600,395.940
492,77810.775000,248.138,-12.047,133.120,325.342,107.958,39.338,436.220,296.400,264.940
493,77810.813000,151.831,105.412,149.504,320.636,108.967,47.309,682.220,573.400,-221.060
494,77810.849000,186.226,62.243,66.560,319.687,108.156,53.259,250.220,84.400,-281.060
495,77810.893000,163.624,44.173,67.584,316.923,113.615,53.371,190.220,-8.600,-284.060
496,77810.913000,152.814,28.110,60.416,318.967,125.413,46.662,614.220,-124.600,-165.060
497,77810.953000,207.846,67.263,70.656,316.093,122.666,48.589,501.220,-51.600,-173.060
498,77810.993000,212.760,57.224,68.608,316.170,128.183,49.701,615.220,81.400,-65.060
499,77811.34000,244.207,62.243,65.536,316.100,122.745,52.569,371.220,277.400,184.940
500,77811.74000,253.052,52.204,62.464,318.004,122.906,59.538,214.220,367.400,209.940
501,77811.114000,227.501,59.231,71.680,316.979,116.578,64.375,155.220,306.400,200.940
502,77811.134000,250.104,95.373,79.872,319.799,114.862,68.321,-69.780,280.400,164.940
503,77811.173000,249.121,62.243,79.872,312.189,111.214,74.200,-268.780,140.400,199.940
504,77811.214000,252.069,64.251,87.040,316.805,102.992,72.043,-125.780,75.400,263.940
505,77811.254000,244.207,50.196,80.896,320.556,100.333,73.981,-149.780,-65.600,274.940
506,77811.294000,230.449,45.176,73.728,321.343,88.475,75.719,-48.780,-100.600,272.940
507,77811.341000,239.294,58.227,73.728,324.200,90.267,71.783,-73.780,-165.600,245.940
508,77811.375000,230.449,31.122,71.680,323.236,89.279,68.776,-199.780,-205.600,289.940
509,77811.395000,204.898,26.102,75.776,324.101,83.717,64.681,-114.780,-160.600,197.940
510,77811.435000,202.933,28.110,84.992,325.954,80.974,63.630,5.220,-142.600,123.940
511,77811.475000,276.637,34.133,73.728,324.013,78.064,56.603,207.220,-164.600,82.940
512,77811.515000,366.065,42.165,45.056,326.935,83.696,61.700,182.220,-244.600,-38.060
513,77811.555000,187.209,7.027,74.752,322.088,76.129,52.581,-99.780,-100.600,-176.060
514,77811.597000,189.175,-1.004,90.112,325.098,88.174,57.815,32.220,187.400,-193.060
515,77811.613000,246.173,6.024,84.992,324.116,85.432,58.749,433.220,30.400,-193.060
516,77811.653000,222.587,33.129,84.992,322.428,100.124,62.043,649.220,89.400,-255.060
517,77811.693000,226.518,38.149,79.872,320.599,105.459,55.192,892.220,-8.600,-411.060
518,77811.733000,240.276,53.208,69.632,318.767,109.995,54.291,732.220,-95.600,-295.060
519,77811.773000,218.656,53.208,70.656,321.693,117.206,46.492,793.220,-62.600,-309.060
520,77811.813000,226.518,81.318,56.320,319.874,122.658,45.610,734.220,-113.600,-237.060
521,77811.833000,211.777,56.220,57.344,319.885,124.334,37.689,667.220,-1.600,-141.060
522,77811.873000,229.466,88.345,71.680,319.012,129.799,36.809,567.220,31.400,-56.060
523,77811.913000,256.000,72.282,30.720,323.703,127.074,34.769,138.220,-207.600,250.940
524,77811.953000,225.536,71.278,61.440,321.646,115.120,33.517,-149.780,48.400,222.940
525,77811.993000,222.587,93.365,82.944,321.717,119.798,38.590,-195.780,84.400,134.940
526,77812.34000,225.536,68.267,75.776,323.503,112.416,34.457,-314.780,-126.600,247.940
527,77812.74000,229.466,76.298,52.224,323.503,112.416,34.457,-301.780,-146.600,253.940
528,77812.94000,231.432,84.329,26.624,327.174,104.201,33.293,-435.780,-285.600,339.940
529,77812.134000,247.155,63.247,26.624,325.197,98.562,27.202,-461.780,-309.600,338.940
530,77812.174000,282.534,28.110,33.792,326.929,87.476,21.001,-660.780,-344.600,364.940
531,77812.214000,308.084,15.059,29.696,332.614,89.169,10.104,-605.780,-591.600,183.940
532,77812.254000,264.845,-4.016,41.984,329.644,80.672,-1.022,-555.780,-696.600,16.940
533,77812.294000,292.361,10.039,23.552,330.633,85.031,-12.863,-442.780,-779.600,-90.060
534,77812.314000,284.499,73.286,50.176,327.950,96.825,-16.595,-475.780,-396.600,-253.060
535,77812.354000,226.518,74.290,81.920,328.825,92.159,-21.666,-408.780,10.400,-161.060
536,77812.395000,156.745,41.161,106.496,328.014,101.425,-15.502,-203.780,259.400,-3.060
537,77812.435000,182.296,40.157,29.696,328.917,97.851,-11.598,-272.780,175.400,36.940
538,77812.475000,198.019,13.051,2.048,330.768,94.309,-6.698,-449.780,125.400,66.940
539,77812.515000,218.656,33.129,-2.048,330.789,96.102,-8.649,-481.780,138.400,-33.060
540,77812.555000,251.086,15.059,31.744,330.830,98.890,-6.600,-517.780,226.400,-101.060
541,77812.575000,260.914,-4.016,39.936,328.893,95.259,-3.697,-74.780,239.400,-36.060
542,77812.615000,247.155,6.024,56.320,331.810,100.832,-1.584,87.220,126.400,-188.060
543,77812.655000,257.965,0.000,63.488,330.739,91.658,-1.781,149.220,15.400,-128.060
544,77812.695000,261.896,29.114,75.776,329.911,100.729,-5.568,363.220,-81.600,-272.060
545,77812.735000,269.758,42.165,66.560,327.256,114.395,-7.270,371.220,-184.600,-368.060
546,77812.775000,264.845,45.176,54.272,326.335,116.994,-14.179,426.220,-340.600,-460.060
547,77812.795000,226.518,59.231,28.672,322.634,124.078,-23.980,474.220,-424.600,-477.060
548,77812.835000,217.674,67.263,21.504,318.893,128.394,-34.835,201.220,-405.600,-332.060
549,77812.871000,207.846,65.255,34.816,318.913,130.167,-37.781,91.220,-264.600,-283.060
550,77812.915000,224.553,78.306,27.648,318.972,134.709,-39.673,-94.780,-152.600,-196.060
551,77812.955000,232.415,59.231,29.696,318.060,137.406,-41.606,-160.780,-96.600,-77.060
552,77812.994000,274.672,78.306,21.504,320.850,133.798,-40.684,65.220,70.400,58.940
553,77813.34000,328.722,43.169,1.024,324.644,133.946,-35.703,-245.780,83.400,200.940
554,77813.54000,247.155,42.165,13.312,322.719,131.231,-32.779,-47.780,264.400,329.940
555,77813.94000,213.743,70.275,53.248,324.532,124.941,-27.937,37.220,468.400,339.940
556,77813.134000,259.931,65.255,45.056,332.053,120.616,-20.061,-86.780,391.400,348.940
557,77813.174000,237.328,60.235,65.536,329.140,114.322,-12.242,-387.780,334.400,241.940
558,77813.214000,238.311,47.184,61.440,326.279,111.712,-3.350,-425.780,217.400,207.940
559,77813.255000,243.225,55.216,45.056,330.053,110.865,-2.368,-950.780,35.400,117.940
560,77813.275000,230.449,34.133,40.960,330.992,110.020,0.599,-1080.780,-34.600,95.940
561,77813.315000,232.415,30.118,48.128,329.004,102.724,3.425,-1346.780,-97.600,0.940
562,77813.355000,213.743,51.200,48.128,330.071,111.080,8.578,-1062.780,-75.600,-151.060
563,77813.395000,256.983,9.035,21.504,330.070,111.060,7.582,-972.780,-207.600,-130.060
564,77813.435000,253.052,5.020,29.696,325.318,109.224,10.520,-497.780,-98.600,-100.060
565,77813.475000,232.415,20.078,49.152,325.379,113.785,9.623,206.220,-7.600,59.940
566,77813.515000,214.726,36.141,56.320,330.055,109.345,13.514,390.220,91.400,68.940
567,77813.535000,210.795,36.141,54.272,325.367,112.869,9.603,313.220,-71.600,21.940
568,77813.575000,230.449,18.071,52.224,327.267,113.752,6.641,363.220,-67.600,-89.060
569,77813.615000,260.914,12.047,59.392,325.358,112.771,4.628,580.220,21.400,-73.060
570,77813.655000,266.810,18.071,58.368,328.178,111.815,0.633,671.220,-76.600,-5.060
571,77813.695000,276.637,14.055,26.624,330.142,117.298,-1.236,745.220,-150.600,20.940
572,77813.735000,296.292,50.196,19.456,322.440,107.958,-5.425,760.220,-94.600,65.940
573,77813.756000,293.344,37.145,9.216,326.153,103.310,-11.486,888.220,-244.600,281.940
574,77813.797000,315.946,71.278,3.072,328.971,102.334,-16.476,810.220,-265.600,458.940
575,77813.838000,298.257,8.031,43.008,327.879,92.147,-21.668,341.220,-173.600,527.940
576,77813.878000,248.138,-16.063,98.304,329.808,94.140,-14.660,632.220,291.400,369.940
577,77813.914000,203.916,98.384,117.760,329.752,89.638,-10.777,377.220,267.400,-171.060
578,77813.956000,181.313,77.302,66.560,325.138,97.879,-7.625,190.220,-138.600,-151.060
579,77813.977000,204.898,25.098,8.192,325.147,98.756,-9.596,41.220,-106.600,-202.060
580,77814.16000,223.570,33.129,15.360,328.010,100.606,-10.547,264.220,34.400,-103.060
581,77814.57000,247.155,21.082,40.960,328.868,93.427,-3.736,235.220,277.400,-38.060
582,77814.97000,232.415,45.176,48.128,328.020,99.964,3.365,449.220,393.400,-22.060
583,77814.135000,229.466,32.125,40.960,326.031,92.649,5.195,429.220,429.400,142.940
584,77814.178000,213.743,30.118,24.576,330.819,95.674,16.208,387.220,450.400,198.940
585,77814.218000,217.674,44.173,39.936,326.945,88.432,23.010,334.220,557.400,348.940
586,77814.238000,205.881,34.133,47.104,326.917,85.800,28.922,77.220,277.400,474.940
587,77814.278000,249.121,51.200,73.728,331.457,71.302,33.594,-65.780,247.400,476.940
588,77814.318000,248.138,21.082,92.160,330.478,68.600,36.519,-211.780,170.400,449.940
589,77814.358000,260.914,27.106,86.016,330.385,61.349,40.343,-189.780,51.400,393.940
590,77814.398000,259.931,21.082,69.632,333.119,53.999,37.206,-321.780,-129.600,330.940
591,77814.438000,245.190,18.071,53.248,333.094,52.167,37.167,-370.780,-205.600,200.940
592,77814.454000,255.017,22.086,52.224,331.095,44.734,33.028,-285.780,-201.600,72.940
593,77814.494000,237.328,16.063,38.912,333.050,49.340,33.128,-147.780,-214.600,-2.060
594,77814.534000,224.553,19.075,45.056,331.108,46.430,26.101,-101.780,-241.600,-145.060
595,77814.574000,227.501,17.067,37.888,333.067,51.854,21.246,46.220,-200.600,-179.060
596,77814.614000,347.393,8.031,-6.144,333.987,50.015,20.214,-76.780,-286.600,-156.060
597,77814.654000,272.706,8.031,22.528,333.009,48.092,16.193,-179.780,-65.600,-339.060
598,77814.694000,228.484,1.004,59.392,333.245,65.479,15.569,44.220,21.400,-328.060
599,77814.714000,268.775,16.063,61.440,334.209,66.466,18.575,411.220,84.400,-327.060
600,77814.754000,231.432,6.024,52.224,332.458,77.337,13.831,553.220,2.400,-408.060
601,77814.797000,230.449,37.145,56.320,327.776,80.939,13.900,938.220,101.400,-504.060
602,77814.837000,236.345,47.184,57.344,330.676,85.538,13.008,905.220,-92.600,-355.060
603,77814.877000,246.173,38.149,49.152,324.119,90.850,8.138,832.220,-8.600,-326.060
604,77814.915000,232.415,68.267,56.320,327.104,101.842,6.387,659.220,88.400,-241.060
605,77814.935000,228.484,61.239,38.912,330.832,97.370,9.281,368.220,34.400,-83.060
606,77814.975000,234.380,30.118,16.384,328.920,96.351,5.278,83.220,11.400,111.940
607,77815.21000,245.190,37.145,18.432,328.041,100.977,8.359,-271.780,-40.600,221.940
608,77815.56000,236.345,42.165,21.504,327.961,95.422,5.257,-217.780,-55.600,212.940
609,77815.97000,242.242,62.243,46.080,327.899,90.841,5.160,-161.780,23.400,172.940
610,77815.137000,244.207,57.224,40.960,333.559,89.942,2.165,-377.780,-48.600,149.940
611,77815.157000,237.328,49.192,37.888,329.711,85.311,2.061,-358.780,-14.600,140.940
612,77815.196000,256.000,59.231,31.744,329.563,74.337,2.822,-305.780,-125.600,84.940
613,77815.237000,258.948,44.173,18.432,331.537,80.697,-1.019,-413.780,-240.600,86.940
614,77815.277000,267.793,30.118,22.528,332.443,78.701,-10.012,-399.780,-337.600,69.940
615,77815.317000,279.585,36.141,10.240,332.547,86.849,-14.811,-502.780,-497.600,14.940
616,77815.358000,286.464,14.055,29.696,331.490,80.150,-28.880,-463.780,-528.600,-47.060
617,77815.398000,372.944,36.141,15.360,330.548,80.956,-33.838,-788.780,-652.600,-167.060
618,77815.428000,272.706,75.294,45.056,323.142,93.565,-39.548,-791.780,-259.600,-426.060
619,77815.455000,215.708,52.204,104.448,327.070,103.751,-36.342,-566.780,202.400,-151.060
620,77815.495000,176.399,11.043,84.992,324.154,98.197,-37.459,-370.780,2.400,259.940
621,77815.535000,171.486,-5.020,17.408,329.782,94.608,-37.527,-312.780,32.400,405.940
622,77815.575000,206.864,-6.024,19.456,329.723,90.066,-35.634,-290.780,155.400,383.940
623,77815.615000,236.345,-28.110,39.936,329.566,78.215,-32.903,-353.780,186.400,90.940
624,77815.634000,286.464,15.059,44.032,326.876,88.391,-25.728,35.220,328.400,-70.060
625,77815.675000,243.225,52.204,45.056,331.617,88.571,-19.749,55.220,449.400,-361.060
626,77815.715000,218.656,34.133,38.912,327.937,95.909,-16.614,36.220,235.400,-378.060
627,77815.759000,220.622,23.090,68.608,327.992,99.632,-13.551,375.220,380.400,-449.060
628,77815.799000,233.397,34.133,49.152,327.076,101.510,-10.529,303.220,37.400,-364.060
629,77815.839000,236.345,36.141,36.864,327.251,114.336,-10.255,329.220,-51.600,-400.060
630,77815.879000,241.259,41.161,29.696,325.431,120.548,-19.078,170.220,-176.600,-451.060
631,77815.899000,243.225,46.180,22.528,321.698,124.962,-24.957,246.220,-365.600,-471.060
632,77815.939000,225.536,74.290,29.696,317.917,125.730,-29.920,254.220,-345.600,-475.060
633,77815.979000,224.553,75.294,20.480,318.066,137.484,-37.626,104.220,-323.600,-338.060
634,77816.19000,232.415,67.263,36.864,314.190,130.982,-39.760,-65.780,-124.600,-183.060
635,77816.55000,221.605,48.188,39.936,318.124,142.006,-40.514,39.220,-41.600,-84.060
636,77816.94000,281.551,79.310,34.816,320.884,136.508,-42.616,200.220,83.400,-39.060
637,77816.114000,347.393,55.216,11.264,321.848,137.495,-39.610,-61.780,30.400,72.940
638,77816.154000,235.363,54.212,30.720,318.948,132.896,-38.717,-90.780,128.400,124.940
639,77816.194000,208.829,83.325,41.984,319.928,134.839,-33.701,170.220,274.400,137.940
640,77816.234000,229.466,95.373,34.816,322.686,128.541,-29.853,-279.780,166.400,157.940
641,77816.278000,241.259,66.259,35.840,320.788,127.678,-25.895,-419.780,225.400,168.940
642,77816.319000,227.501,76.298,55.296,322.523,115.852,-23.160,-478.780,246.400,141.940
643,77816.339000,204.898,54.212,23.552,322.609,121.485,-16.078,-692.780,-61.600,216.940
644,77816.379000,238.311,63.247,26.624,327.382,124.335,-14.021,-946.780,-16.600,127.940
645,77816.419000,232.415,76.298,35.840,324.523,122.524,-11.080,-1263.780,-140.600,36.940
646,77816.460000,233.397,33.129,32.768,322.598,119.809,-8.157,-1302.780,-238.600,-29.060
647,77816.500000,242.242,51.200,35.840,327.322,119.014,-5.183,-1045.780,-60.600,-104.060
648,77816.540000,270.741,0.000,16.384,323.597,123.525,-6.087,-1067.780,-299.600,-100.060
649,77816.580000,241.259,28.110,22.528,320.818,128.029,-7.984,-148.780,-31.600,-58.060
650,77816.600000,231.432,40.157,52.224,329.364,130.033,-4.945,43.220,107.400,81.940
651,77816.637000,231.432,34.133,58.368,323.649,127.209,-5.014,28.220,31.400,42.940
652,77816.678000,246.173,27.106,65.536,324.667,132.680,-6.885,92.220,-15.600,-25.060
653,77816.718000,233.397,14.055,53.248,320.810,127.172,-5.019,238.220,-46.600,39.940
654,77816.758000,256.983,0.000,46.080,324.524,122.544,-10.085,415.220,-61.600,74.940
655,77816.798000,240.276,26.102,45.056,325.546,128.053,-9.966,505.220,-55.600,-10.060
656,77816.818000,266.810,36.141,22.528,322.600,120.608,-14.107,660.220,-83.600,27.940
657,77816.858000,295.309,52.204,13.312,321.680,123.208,-21.016,646.220,-138.600,227.940
658,77816.898000,291.378,52.204,5.120,323.485,116.820,-21.149,706.220,-152.600,386.940
659,77816.938000,278.603,44.173,14.336,323.423,113.019,-28.193,956.220,-228.600,531.940
660,77816.977000,328.722,45.176,11.264,321.360,100.986,-33.425,826.220,-309.600,621.940
661,77817.20000,261.896,14.055,99.328,328.837,93.835,-29.588,662.220,218.400,494.940
662,77817.62000,203.916,90.353,130.048,326.918,91.198,-22.684,509.220,439.400,21.940
663,77817.75000,184.261,35.137,89.088,324.932,83.922,-18.863,439.220,177.400,-0.060
664,77817.122000,200.967,2.008,30.720,328.818,91.301,-18.700,277.220,-14.600,-45.060
665,77817.158000,209.812,11.043,-3.072,328.840,92.335,-12.711,451.220,40.400,-79.060
666,77817.196000,226.518,27.106,21.504,323.084,86.724,-14.828,436.220,184.400,-67.060
667,77817.238000,250.104,47.184,55.296,326.024,93.330,-6.726,563.220,394.400,-106.060
668,77817.278000,231.432,34.133,29.696,327.915,92.576,0.223,468.220,369.400,45.940
669,77817.298000,208.829,46.180,25.600,326.949,90.790,3.168,362.220,347.400,131.940
670,77817.338000,220.622,56.220,33.792,330.771,92.809,10.179,142.220,383.400,173.940
671,77817.379000,256.000,57.224,53.248,326.908,86.463,16.006,-70.780,327.400,210.940
672,77817.419000,263.862,66.259,55.296,326.779,76.483,20.767,-241.780,219.400,192.940
673,77817.459000,264.845,42.165,72.704,331.505,75.707,24.736,-520.780,133.400,177.940
674,77817.499000,256.000,19.075,58.368,334.299,72.139,27.648,-280.780,-19.600,240.940
675,77817.539000,224.553,23.090,44.032,332.381,70.282,27.605,-227.780,-131.600,192.940
676,77817.559000,228.484,40.157,53.248,331.278,59.197,23.389,-65.780,-95.600,230.940
677,77817.599000,224.553,41.161,52.224,332.251,61.062,24.425,-195.780,-85.600,227.940
678,77817.639000,200.967,4.016,41.984,335.024,56.480,22.342,-64.780,-118.600,154.940
679,77817.679000,271.724,16.063,31.744,334.991,54.550,17.328,75.220,-23.600,119.940
680,77817.716000,360.169,3.012,-3.072,332.102,50.848,17.245,155.220,-101.600,-50.060
681,77817.758000,256.983,24.094,8.192,335.880,50.820,13.271,-208.780,-98.600,-236.060
682,77817.778000,253.052,-4.016,76.800,330.289,56.378,20.344,-234.780,253.400,-232.060
683,77817.818000,274.672,2.008,78.848,333.312,70.118,18.652,69.220,61.400,-333.060
684,77817.858000,233.397,5.020,77.824,332.396,71.997,21.674,127.220,126.400,-383.060
685,77817.898000,226.518,4.016,64.512,331.491,74.772,23.721,523.220,87.400,-452.060
686,77817.938000,221.605,24.094,49.152,329.690,81.978,18.899,596.220,-29.600,-310.060
687,77817.994000,209.812,21.082,40.960,329.801,90.204,18.079,597.220,-69.600,-246.060
688,77818.3000,233.397,48.188,43.008,331.763,95.667,15.214,616.220,-118.600,-174.060
689,77818.39000,235.363,32.125,49.152,330.809,95.557,10.238,621.220,-24.600,-91.060
690,77818.79000,233.397,54.212,48.128,331.771,96.525,12.249,516.220,-64.600,-9.060
691,77818.119000,258.948,58.227,17.408,331.752,95.530,8.249,272.220,-145.600,243.940
692,77818.159000,231.432,21.082,21.504,333.577,90.916,5.170,-31.780,-129.600,262.940
693,77818.199000,228.484,63.247,44.032,333.478,83.607,6.009,-115.780,27.400,155.940
694,77818.239000,227.501,49.192,39.936,332.534,83.614,7.002,-358.780,-3.600,144.940
695,77818.259000,239.294,43.169,44.032,331.528,79.060,8.893,-427.780,-22.600,145.940
696,77818.296000,233.397,44.173,57.344,329.665,81.685,3.973,-425.780,-122.600,200.940
697,77818.338000,257.965,40.157,37.888,331.443,73.446,2.805,-375.780,-163.600,166.940
698,77818.378000,260.914,53.208,36.864,334.304,75.276,0.859,-295.780,-75.600,155.940
699,77818.418000,289.413,38.149,29.696,332.386,73.419,0.817,-417.780,-92.600,159.940
700,77818.459000,307.102,22.086,16.384,334.175,66.076,-1.326,-497.780,-248.600,58.940
701,77818.479000,322.825,23.090,17.408,328.570,72.238,-10.155,-599.780,-316.600,-109.060
702,77818.519000,292.361,10.039,25.600,329.547,74.921,-14.075,-706.780,-469.600,-235.060
703,77818.559000,262.879,0.000,18.432,328.725,84.830,-21.822,-652.780,-610.600,-238.060
704,77818.599000,255.017,37.145,21.504,327.842,90.178,-28.672,-560.780,-298.600,-408.060
705,77818.639000,198.019,42.165,75.776,324.113,94.630,-32.562,-220.780,100.400,-376.060
706,77818.679000,199.002,59.231,87.040,322.382,105.736,-25.365,30.220,328.400,-263.060
707,77818.719000,200.967,20.078,12.288,328.065,105.869,-22.370,-344.780,146.400,-15.060
708,77818.739000,219.639,22.086,-15.360,323.351,106.781,-19.374,-450.780,118.400,-25.060
709,77818.777000,222.587,28.110,9.216,324.304,106.872,-15.392,-358.780,218.400,-54.060
710,77818.819000,256.000,39.153,57.344,328.085,106.103,-10.429,-327.780,491.400,-151.060
711,77818.859000,241.259,21.082,57.344,322.492,111.642,-4.352,23.220,352.400,-196.060
712,77818.899000,212.760,13.051,43.008,318.885,124.457,-2.095,150.220,250.400,-251.060
713,77818.940000,226.518,43.169,72.704,325.528,125.539,1.916,215.220,286.400,-304.060
714,77818.959000,255.017,27.106,79.872,320.870,130.954,1.030,226.220,240.400,-315.060
715,77819.0,253.052,46.180,67.584,318.078,134.542,-0.887,570.220,56.400,-469.060
716,77819.40000,247.155,63.247,65.536,317.252,143.632,-3.679,646.220,2.400,-475.060
717,77819.80000,231.432,82.322,46.080,310.732,151.692,-8.490,419.220,-150.600,-347.060
718,77819.120000,233.397,65.255,55.296,307.939,155.280,-10.407,256.220,-111.600,-235.060
719,77819.160000,219.639,71.278,77.824,312.666,155.284,-13.384,308.220,-10.600,-159.060
720,77819.180000,225.536,77.302,71.680,307.938,156.040,-18.348,127.220,-40.600,-20.060
721,77819.220000,245.190,69.271,59.392,309.867,158.794,-19.281,28.220,29.400,84.940
722,77819.272000,330.687,78.306,29.696,310.682,148.807,-15.514,-214.780,63.400,175.940
723,77819.298000,248.138,36.141,28.672,314.483,149.812,-13.498,-217.780,125.400,258.940
724,77819.339000,210.795,84.329,68.608,317.220,141.721,-7.698,47.220,425.400,308.940
725,77819.378000,237.328,68.267,63.488,319.079,138.277,2.178,-255.780,239.400,326.940
726,77819.419000,207.846,64.251,67.584,317.144,135.445,-0.869,-283.780,182.400,317.940
727,77819.439000,228.484,62.243,68.608,319.820,122.793,5.828,-480.780,187.400,311.940
728,77819.479000,233.397,62.243,57.344,324.597,125.702,10.870,-753.780,-52.600,249.940
729,77819.519000,245.190,38.149,56.320,324.561,122.973,11.806,-943.780,-154.600,152.940
730,77819.559000,233.397,40.157,50.176,321.641,117.361,7.704,-1055.780,-228.600,4.940
731,77819.599000,261.896,29.114,53.248,323.513,115.612,10.654,-1170.780,-184.600,-130.060
732,77819.639000,258.948,4.016,28.672,325.486,121.192,13.759,-1078.780,-255.600,-92.060
733,77819.659000,262.879,-6.024,31.744,322.583,116.555,12.662,-369.780,-129.600,-74.060
734,77819.699000,207.846,16.063,69.632,323.543,117.503,13.678,47.220,7.400,-14.060
735,77819.738000,217.674,38.149,62.464,322.653,121.993,9.793,18.220,-159.600,-21.060
736,77819.779000,239.294,16.063,54.272,324.529,121.063,7.787,-56.780,-229.600,-113.060
737,77819.819000,246.173,2.008,52.224,321.761,126.463,4.914,165.220,-254.600,-33.060
738,77819.858000,271.724,9.035,50.176,322.608,119.926,-2.186,195.220,-248.600,60.940
739,77819.899000,272.706,5.020,47.104,318.871,123.521,-3.110,453.220,-193.600,28.940
740,77819.919000,288.430,32.125,40.960,322.612,120.745,-7.142,734.220,-178.600,46.940
741,77819.959000,292.361,29.114,9.216,319.693,115.152,-10.249,785.220,-255.600,229.940
742,77819.998000,220.622,45.176,9.216,321.591,116.015,-14.207,958.220,-278.600,347.940
743,77820.43000,326.756,47.184,-12.288,324.364,112.193,-24.230,825.220,-537.600,523.940
744,77820.83000,266.810,8.031,71.680,322.278,98.367,-27.512,520.220,-52.600,470.940
745,77820.124000,256.983,62.243,137.216,326.094,100.308,-24.481,612.220,287.400,148.940
746,77820.138000,199.002,90.353,138.240,322.278,97.588,-20.566,270.220,36.400,-86.060
747,77820.182000,162.641,42.165,38.912,326.056,97.560,-24.539,139.220,-332.600,-73.060
748,77820.222000,197.036,-11.043,-11.264,322.307,100.239,-25.482,378.220,-147.600,-48.060
749,77820.262000,261.896,32.125,-4.096,322.291,99.284,-27.492,652.220,115.400,95.940
750,77820.301000,273.689,26.102,20.480,322.265,96.672,-20.585,621.220,339.400,99.940
751,77820.341000,260.914,52.204,28.672,324.160,95.956,-11.646,366.220,586.400,130.940
752,77820.361000,254.035,46.180,35.840,328.880,94.343,-3.716,-41.780,738.400,160.940
753,77820.401000,223.570,53.208,36.864,322.233,90.903,12.115,-411.780,760.400,188.940
754,77820.441000,217.674,34.133,29.696,324.008,81.085,23.844,-911.780,724.400,185.940
755,77820.482000,249.121,38.149,48.128,325.020,84.177,40.821,-1070.780,798.400,91.940
756,77820.545000,242.242,0.000,88.064,323.969,74.478,60.505,-1055.780,839.400,137.940
757,77820.566000,248.138,-25.098,97.280,322.037,70.905,66.394,-980.780,561.400,91.940
758,77820.601000,232.415,-12.047,102.400,322.078,72.933,76.384,-543.780,382.400,78.940
759,77820.621000,211.777,-3.012,101.376,319.260,73.909,81.374,-176.780,123.400,73.940
760,77820.661000,210.795,3.012,96.256,319.223,71.160,81.315,-86.780,-45.600,60.940
761,77820.708000,200.967,13.051,89.088,320.087,65.598,77.219,96.220,-161.600,8.940
762,77820.743000,225.536,5.020,81.920,324.825,66.499,73.267,354.220,-319.600,35.940
763,77820.783000,351.324,5.020,62.464,322.043,70.983,70.374,570.220,-336.600,-12.060
764,77820.823000,349.359,17.067,54.272,323.958,73.581,61.481,566.220,-356.600,-269.060
765,77820.843000,225.536,8.031,68.608,324.004,77.187,58.574,365.220,-36.600,-319.060
766,77820.883000,222.587,-12.047,73.728,323.101,80.761,54.670,613.220,94.400,-216.060
767,77820.923000,243.225,14.055,78.848,322.331,93.594,55.936,702.220,63.400,-241.060
768,77820.963000,220.622,-4.016,111.616,319.559,98.196,59.014,908.220,205.400,-179.060
769,77821.3000,236.345,51.200,105.472,318.658,101.789,56.105,1069.220,229.400,-214.060
770,77821.43000,243.225,39.153,96.256,317.839,110.957,57.294,1136.220,177.400,-158.060
771,77821.83000,225.536,34.133,86.016,318.810,112.802,57.335,1125.220,107.400,-153.060
772,77821.103000,205.881,37.145,82.944,317.877,114.485,50.407,1048.220,59.400,-6.060
773,77821.143000,210.795,46.180,60.416,315.013,112.616,50.363,897.220,-6.600,58.940
774,77821.183000,278.603,44.173,22.528,319.760,114.393,44.440,605.220,-145.600,157.940
775,77821.223000,234.380,66.259,44.032,315.885,107.911,43.301,237.220,-86.600,97.940
776,77821.263000,235.363,82.322,81.920,318.815,114.400,45.433,-118.780,135.400,17.940
777,77821.303000,238.311,53.208,84.992,319.661,107.084,45.279,-372.780,65.400,26.940
778,77821.323000,231.432,51.200,82.944,321.634,112.664,48.384,-300.780,-74.600,-29.060
779,77821.363000,250.104,63.247,53.248,315.890,107.969,46.287,-371.780,-233.600,5.940
780,77821.403000,219.639,54.212,43.008,320.576,105.186,41.261,-353.780,-261.600,31.940
781,77821.443000,235.363,53.208,41.984,319.625,105.115,38.274,-442.780,-249.600,125.940
782,77821.483000,266.810,33.129,47.104,321.471,102.294,33.244,-434.780,-266.600,163.940
783,77821.523000,275.655,50.196,47.104,325.227,100.453,30.226,-634.780,-438.600,33.940
784,77821.543000,292.361,24.094,49.152,320.432,96.570,22.179,-739.780,-489.600,-59.060
785,77821.583000,283.516,2.008,54.272,324.346,106.600,17.425,-779.780,-551.600,-193.060
786,77821.623000,285.482,10.039,47.104,319.546,102.658,6.393,-814.780,-619.600,-245.060
787,77821.663000,220.622,45.176,47.104,320.668,116.276,-0.278,-838.780,-551.600,-454.060
788,77821.703000,227.501,54.212,54.272,319.805,122.618,-3.128,-542.780,-300.600,-412.060
789,77821.743000,207.846,43.169,78.848,316.969,122.619,-1.143,-511.780,101.400,-246.060
790,77821.783000,187.209,11.043,98.304,312.337,129.106,5.951,-280.780,126.400,-138.060
791,77821.803000,200.967,20.078,18.432,315.228,133.607,0.083,-142.780,-128.600,-156.060
792,77821.841000,227.501,70.275,15.360,312.455,138.190,2.166,-182.780,-75.600,-156.060
793,77821.883000,284.499,55.216,25.600,310.566,138.204,4.153,-488.780,2.400,-135.060
794,77821.923000,266.810,62.243,52.224,311.586,142.933,11.217,-192.780,317.400,-175.060
795,77821.963000,251.086,87.341,67.584,307.826,144.716,11.250,352.220,458.400,-225.060
796,77822.3000,222.587,77.302,60.416,307.913,150.349,18.332,139.220,301.400,-210.060
797,77822.23000,211.777,65.255,71.680,305.066,149.454,21.293,232.220,240.400,-195.060
798,77822.63000,214.726,35.137,82.944,306.061,153.111,20.378,77.220,180.400,-101.060
799,77822.103000,208.829,46.180,82.944,305.163,156.744,19.459,382.220,92.400,-137.060
800,77822.143000,212.760,53.208,64.512,302.281,153.900,16.410,294.220,-66.600,-159.060
801,77822.183000,214.726,40.157,59.392,300.502,162.899,9.637,308.220,-178.600,-250.060
802,77822.223000,215.708,60.235,51.200,302.419,165.517,1.738,507.220,-290.600,-288.060
803,77822.243000,230.449,69.271,35.840,304.298,165.385,-6.219,444.220,-357.600,-260.060
804,77822.283000,231.432,67.263,39.936,299.493,160.606,-13.290,350.220,-287.600,-151.060
805,77822.323000,237.328,83.325,40.960,300.540,168.727,-20.078,417.220,-219.600,-79.060
806,77822.363000,346.411,77.302,29.696,303.272,161.357,-24.210,238.220,-157.600,98.940
807,77822.403000,348.376,57.224,6.144,306.150,164.162,-23.151,-6.780,-55.600,259.940
808,77822.444000,256.000,60.235,11.264,303.183,154.925,-25.341,56.220,115.400,218.940
809,77822.484000,200.967,77.302,43.008,305.953,149.543,-21.473,310.220,296.400,303.940
810,77822.504000,213.743,102.400,50.176,311.686,153.341,-18.400,-68.780,309.400,244.940
811,77822.544000,231.432,97.380,59.392,312.497,142.536,-9.677,-355.780,253.400,234.940
812,77822.584000,233.397,67.263,51.200,316.239,139.000,-5.768,-656.780,151.400,239.940
813,77822.624000,233.397,64.251,32.768,309.627,139.049,1.185,-762.780,0.400,217.940
814,77822.664000,228.484,58.227,43.008,317.151,135.523,3.111,-1047.780,-70.600,156.940
815,77822.704000,229.466,65.255,37.888,312.394,133.628,3.063,-1205.780,-198.600,54.940
816,77822.724000,210.795,45.176,39.936,317.154,135.562,5.101,-1258.780,-249.600,-55.060
817,77822.764000,278.603,16.063,17.408,315.197,130.937,4.005,-904.780,-322.600,-55.060
818,77822.804000,253.052,27.106,20.480,317.154,135.562,5.101,-511.780,-153.600,-40.060
819,77822.844000,229.466,37.145,51.200,316.220,136.466,5.119,-73.780,67.400,68.940
820,77822.883000,237.328,40.157,68.608,316.138,130.111,7.967,74.220,108.400,17.940
821,77822.933000,248.138,40.157,62.464,315.302,138.325,7.146,55.220,-75.600,-23.060
822,77822.964000,226.518,29.114,54.272,315.286,137.369,5.137,162.220,-46.600,-42.060
823,77822.985000,246.173,13.051,43.008,315.276,136.473,6.112,159.220,-67.600,76.940
824,77823.25000,233.397,23.090,47.104,316.181,133.698,4.065,242.220,-10.600,45.940
825,77823.65000,259.931,29.114,38.912,315.242,134.543,1.098,401.220,-21.600,47.940
826,77823.118000,252.069,40.157,24.576,315.141,127.194,-0.053,409.220,-126.600,74.940
827,77823.146000,286.464,44.173,24.576,316.096,128.084,-2.022,365.220,-60.600,211.940
828,77823.186000,274.672,41.161,17.408,316.900,117.961,-5.220,675.220,-213.600,440.940
829,77823.215000,287.447,51.200,15.360,317.763,112.379,-10.311,507.220,-305.600,508.940
830,77823.244000,256.000,32.125,38.912,321.556,113.286,-13.270,315.220,-281.600,582.940
831,77823.289000,286.464,-1.004,113.664,324.207,99.582,-13.558,341.220,157.400,508.940
832,77823.324000,208.829,54.212,149.504,323.294,101.499,-8.545,452.220,374.400,174.940
833,77823.363000,180.330,54.212,96.256,320.474,102.456,-4.551,569.220,-245.600,-45.060
834,77823.403000,217.674,12.047,9.216,319.450,97.687,-13.605,295.220,-210.600,-123.060
835,77823.443000,191.140,-1.004,9.216,321.346,97.751,-11.612,478.220,-23.600,-106.060
836,77823.463000,228.484,33.129,32.768,324.292,105.196,-7.470,623.220,201.400,-151.060
837,77823.503000,263.862,49.192,39.936,324.261,102.525,-3.549,790.220,423.400,-135.060
838,77823.543000,263.862,54.212,22.528,325.257,105.423,3.477,521.220,440.400,70.940
839,77823.586000,257.965,66.259,25.600,324.206,97.263,8.275,290.220,405.400,87.940
840,77823.626000,250.104,61.239,45.056,320.408,95.517,15.194,256.220,389.400,173.940
841,77823.666000,258.948,55.216,54.272,326.114,97.463,17.234,46.220,345.400,230.940
842,77823.686000,249.121,51.200,74.752,325.104,92.091,24.080,-74.780,291.400,302.940
843,77823.726000,242.242,36.141,60.416,325.951,84.014,31.867,-198.780,138.400,354.940
844,77823.766000,216.691,11.043,37.888,328.687,76.684,29.725,-278.780,-84.600,343.940
845,77823.806000,210.795,14.055,35.840,328.643,73.857,25.687,-225.780,-145.600,367.940
846,77823.846000,216.691,23.090,45.056,325.654,62.826,25.447,-158.780,-76.600,337.940
847,77823.886000,216.691,10.039,54.272,325.614,60.058,24.394,-43.780,-113.600,299.940
848,77823.906000,261.896,-5.020,45.056,332.104,50.107,26.181,110.220,-93.600,180.940
849,77823.946000,389.651,-19.075,-2.048,330.277,55.462,20.324,238.220,-257.600,7.940
850,77823.986000,255.017,8.031,22.528,332.099,50.809,15.255,191.220,-270.600,-227.060
851,77824.26000,263.862,-10.039,83.968,331.181,52.667,17.282,-43.780,57.400,-323.060
852,77824.66000,265.827,-19.075,69.632,332.338,68.235,16.621,421.220,-73.600,-352.060
853,77824.106000,229.466,8.031,55.296,326.744,74.534,14.757,396.220,-64.600,-481.060
854,77824.146000,234.380,10.039,30.720,329.703,83.674,11.972,719.220,-86.600,-492.060
855,77824.166000,226.518,31.122,37.888,326.030,91.869,12.141,493.220,-102.600,-458.060
856,77824.206000,216.691,19.075,38.912,327.974,96.338,5.277,608.220,-132.600,-372.060
857,77824.246000,222.587,55.216,33.792,322.316,98.037,2.321,609.220,-100.600,-327.060
858,77824.288000,220.622,52.204,39.936,321.379,98.901,0.348,592.220,-76.600,-174.060
859,77824.328000,263.862,63.247,30.720,322.361,101.643,-0.586,402.220,9.400,-30.060
860,77824.368000,256.000,56.220,1.024,319.522,101.605,-0.591,114.220,-110.600,62.940
861,77824.395000,216.691,70.275,16.384,323.376,107.074,-4.448,-92.780,38.400,38.940
862,77824.424000,215.708,45.176,32.768,324.250,101.629,-2.573,-187.780,65.400,67.940
863,77824.463000,249.121,46.180,37.888,323.307,101.655,-0.585,-252.780,79.400,138.940
864,77824.504000,241.259,59.231,41.984,324.269,102.623,1.426,-356.780,90.400,150.940
865,77824.544000,247.155,60.235,31.744,321.280,91.592,1.187,-446.780,-100.600,162.940
866,77824.594000,253.052,67.263,23.552,321.380,98.921,1.343,-422.780,-98.600,158.940
867,77824.625000,281.551,46.180,28.672,325.072,92.480,-2.767,-551.780,-91.600,146.940
868,77824.646000,277.620,29.114,25.600,324.108,91.493,-5.773,-522.780,-236.600,41.940
869,77824.686000,295.309,37.145,15.360,326.042,95.085,-10.667,-619.780,-459.600,-155.060
870,77824.726000,286.464,41.161,21.504,323.099,88.439,-20.759,-920.780,-563.600,-209.060
871,77824.766000,303.171,6.024,8.192,319.477,101.078,-27.458,-909.780,-627.600,-224.060
872,77824.806000,277.620,92.361,44.032,318.654,110.208,-28.260,-745.780,-151.600,-446.060
873,77824.846000,210.795,58.227,81.920,320.586,113.001,-27.203,-405.780,100.400,-211.060
874,77824.866000,155.762,42.165,80.896,319.735,119.499,-22.092,52.220,342.400,-2.060
875,77824.908000,186.226,25.098,-5.120,320.624,114.989,-19.203,-50.780,250.400,257.940
876,77824.948000,186.226,41.161,-2.048,319.581,107.686,-17.371,-133.780,246.400,340.940
877,77824.986000,252.069,19.075,13.312,324.302,106.852,-16.387,-425.780,323.400,446.940
878,77825.26000,280.568,35.137,58.368,324.203,98.763,-8.602,-192.780,501.400,130.940
879,77825.65000,235.363,-13.051,63.488,326.105,98.905,-2.628,-51.780,435.400,68.940
880,77825.85000,261.896,8.031,58.368,331.688,91.710,0.211,-16.780,421.400,-98.060
881,77825.125000,242.242,-18.071,73.728,324.226,99.036,5.329,-126.780,261.400,-120.060
882,77825.165000,257.965,12.047,71.680,322.258,93.515,5.208,97.220,196.400,-227.060
883,77825.205000,258.948,17.067,70.656,328.166,110.139,8.555,47.220,-34.600,-303.060
884,77825.245000,229.466,-9.035,81.920,323.401,108.146,3.532,210.220,-97.600,-417.060
885,77825.285000,238.311,42.165,65.536,324.519,120.946,1.817,315.220,-240.600,-450.060
886,77825.326000,231.432,38.149,56.320,318.830,120.734,-5.159,299.220,-292.600,-460.060
887,77825.346000,215.708,62.243,55.296,316.109,129.780,-8.949,315.220,-220.600,-407.060
888,77825.386000,213.743,43.169,59.392,315.156,129.689,-12.931,223.220,-195.600,-257.060
889,77825.425000,232.415,46.180,48.128,316.196,136.953,-16.753,248.220,-195.600,-157.060
890,77825.465000,333.635,70.275,35.840,317.137,136.907,-19.736,88.220,-90.600,-100.060
891,77825.505000,278.603,72.282,15.360,318.070,135.983,-20.749,121.220,-114.600,125.940
892,77825.545000,207.846,74.290,32.768,317.067,131.468,-16.868,14.220,86.400,130.940
893,77825.565000,239.294,107.420,37.888,316.057,126.856,-17.963,-230.780,116.400,113.940
894,77825.605000,226.518,73.286,43.008,319.925,132.500,-12.864,-516.780,123.400,146.940
895,77825.656000,215.708,73.286,50.176,322.644,123.435,-10.069,-570.780,177.400,126.940
896,77825.686000,216.691,53.208,31.744,318.930,128.063,-5.002,-943.780,-45.600,217.940
897,77825.726000,227.501,40.157,34.816,323.566,120.855,-2.165,-1120.780,-71.600,143.940
898,77825.766000,214.726,31.122,39.936,323.609,123.662,0.879,-1202.780,-199.600,32.940
899,77825.806000,256.000,24.094,53.248,318.942,128.200,1.963,-1017.780,-149.600,-85.060
900,77825.826000,269.758,2.008,35.840,323.643,126.371,-1.053,-843.780,-271.600,-81.060
901,77825.866000,246.173,14.055,16.384,317.890,120.800,-1.180,-152.780,-212.600,-36.060
902,77825.906000,225.536,39.153,34.816,321.782,128.257,2.963,116.220,128.400,-10.060
903,77825.946000,229.466,43.169,57.344,321.774,128.159,-2.012,150.220,3.400,48.940
904,77825.986000,243.225,29.114,60.416,322.620,120.843,-2.167,84.220,-55.600,-11.060
905,77826.26000,237.328,13.051,59.392,317.033,127.219,-0.050,165.220,-36.600,63.940
906,77826.46000,259.931,-1.004,57.344,321.656,119.855,-5.173,272.220,-55.600,110.940
907,77826.86000,241.259,19.075,50.176,320.782,125.301,-7.048,497.220,-60.600,15.940
908,77826.126000,251.086,17.067,26.624,318.912,127.088,-8.007,585.220,-206.600,60.940
909,77826.166000,300.223,33.129,8.192,319.730,117.900,-10.191,544.220,-123.600,272.940
910,77826.206000,314.964,45.176,12.288,320.648,116.042,-12.218,697.220,-131.600,382.940
911,77826.246000,277.620,37.145,-2.048,316.761,109.403,-21.317,873.220,-358.600,569.940
912,77826.286000,282.534,11.043,38.912,319.420,96.556,-24.570,578.220,-166.600,649.940
913,77826.306000,208.829,36.141,128.000,322.165,89.343,-20.741,564.220,255.400,411.940
914,77826.346000,156.745,88.345,143.360,322.305,98.680,-11.591,501.220,365.400,-231.060
915,77826.386000,127.263,66.259,58.368,324.154,95.878,-15.626,148.220,-179.600,-224.060
916,77826.426000,207.846,10.039,9.216,320.503,105.867,-17.408,70.220,-176.600,-221.060
917,77826.466000,246.173,0.000,13.312,321.379,100.441,-14.538,158.220,69.400,-20.060
918,77826.506000,287.447,35.137,34.816,321.376,99.642,-8.588,504.220,325.400,-68.060
919,77826.525000,261.896,70.275,37.888,322.336,99.810,-0.626,481.220,591.400,-89.060
920,77826.564000,247.155,51.200,30.720,322.434,105.581,13.422,50.220,605.400,64.940
921,77826.604000,222.587,25.098,36.864,322.423,103.904,21.344,25.220,544.400,129.940
922,77826.650000,238.311,38.149,36.864,326.189,101.421,32.237,-151.780,455.400,120.940
923,77826.690000,244.207,41.161,60.416,323.217,91.364,35.003,-123.780,409.400,151.940
924,77826.730000,261.896,51.200,77.824,324.125,87.849,41.892,-178.780,318.400,141.940
925,77826.750000,258.948,38.149,78.848,320.386,90.645,46.919,-310.780,147.400,200.940
926,77826.786000,233.397,29.114,66.560,320.327,86.103,48.812,-302.780,-2.600,152.940
927,77826.826000,233.397,35.137,62.464,323.092,80.663,49.695,-238.780,-41.600,127.940
928,77826.866000,213.743,33.129,64.512,323.030,76.083,49.597,-230.780,-52.600,144.940
929,77826.906000,204.898,27.106,60.416,324.956,78.817,47.669,-149.780,-53.600,119.940
930,77826.951000,235.363,-5.020,50.176,325.776,69.649,46.480,-12.780,-118.600,178.940
931,77826.986000,372.944,-13.051,-1.024,329.576,71.414,40.556,167.220,-334.600,93.940
932,77827.9000,273.689,16.063,63.488,326.693,68.550,36.512,268.220,-282.600,-16.060
933,77827.49000,282.534,3.012,95.232,326.843,79.544,36.746,320.220,221.400,-175.060
934,77827.89000,260.914,-1.004,94.208,324.044,82.274,37.795,602.220,24.400,-203.060
935,77827.129000,220.622,21.082,73.728,323.167,87.700,34.925,681.220,53.400,-385.060
936,77827.170000,200.967,25.098,52.224,319.462,93.205,38.021,767.220,9.400,-349.060
937,77827.210000,199.002,27.106,52.224,323.355,101.442,35.218,760.220,-100.600,-274.060
938,77827.230000,228.484,32.125,51.200,319.538,99.481,31.192,711.220,-120.600,-225.060
939,77827.270000,221.605,24.094,44.032,318.630,102.997,24.303,888.220,-190.600,-145.060
940,77827.310000,239.294,57.224,52.224,324.379,108.530,22.440,888.220,-77.600,-67.060
941,77827.346000,260.914,67.263,36.864,322.414,103.807,16.368,673.220,-194.600,7.940
942,77827.386000,265.827,67.263,13.312,322.418,104.625,11.413,233.220,-223.600,53.940
943,77827.426000,240.276,64.251,21.504,323.363,104.618,10.419,-121.780,-36.600,-28.060
944,77827.466000,216.691,47.184,43.008,321.513,107.400,13.460,-405.780,64.400,-12.060
945,77827.486000,238.311,31.122,46.080,319.620,107.375,13.456,-348.780,93.400,150.940
946,77827.526000,248.138,35.137,59.392,325.262,104.721,14.403,-530.780,136.400,189.940
947,77827.570000,257.965,47.184,65.536,321.438,101.903,13.343,-442.780,-11.600,201.940
948,77827.610000,242.242,60.235,37.888,321.349,95.471,12.211,-270.780,-172.600,87.940
949,77827.650000,257.965,52.204,35.840,325.147,96.437,12.237,-234.780,-170.600,49.940
950,77827.690000,261.896,48.188,37.888,325.152,97.275,8.276,-323.780,-180.600,-1.060
951,77827.710000,293.344,34.133,16.384,322.344,99.908,4.350,-595.780,-417.600,-85.060
952,77827.750000,296.292,21.082,21.504,324.159,95.177,-4.700,-856.780,-485.600,-166.060
953,77827.790000,278.603,4.016,17.408,323.301,102.357,-11.511,-932.780,-625.600,-229.060
954,77827.830000,266.810,53.208,22.528,315.896,114.965,-17.221,-888.780,-443.600,-531.060
955,77827.870000,285.482,62.243,37.888,316.980,125.055,-17.005,-846.780,-201.600,-521.060
956,77827.910000,208.829,78.306,123.904,312.230,123.239,-13.072,-236.780,537.400,-305.060
957,77827.950000,173.451,41.161,56.320,314.247,131.646,-5.928,-560.780,288.400,-53.060
958,77827.970000,190.157,29.114,18.432,313.246,127.150,-1.052,-653.780,238.400,-94.060
959,77828.10000,183.278,54.212,15.360,310.531,135.494,6.084,-655.780,238.400,-37.060
960,77828.50000,211.777,18.071,17.408,316.188,133.776,8.045,-517.780,196.400,83.940
961,77828.90000,235.363,14.055,38.912,314.211,127.377,9.896,-182.780,197.400,166.940
962,77828.130000,260.914,40.157,66.560,315.200,130.197,12.941,230.220,336.400,86.940
963,77828.170000,254.035,18.071,59.392,315.198,130.177,11.946,192.220,162.400,18.940
964,77828.190000,249.121,1.004,64.512,313.270,127.423,12.879,481.220,176.400,-143.060
965,77828.238000,252.069,39.153,73.728,313.295,129.255,12.918,480.220,113.400,-191.060
966,77828.271000,250.104,34.133,72.704,314.259,131.022,8.979,491.220,-40.600,-277.060
967,77828.311000,237.328,55.216,55.296,313.406,138.261,5.153,590.220,-174.600,-356.060
968,77828.351000,227.501,74.290,43.008,309.740,148.073,-5.585,447.220,-300.600,-357.060
969,77828.391000,208.829,67.263,39.936,309.741,148.853,-12.531,321.220,-320.600,-292.060
970,77828.431000,222.587,63.247,46.080,306.997,156.086,-15.365,235.220,-248.600,-220.060
971,77828.451000,232.415,56.220,51.200,306.989,155.988,-20.340,206.220,-131.600,-163.060
972,77828.491000,214.726,64.251,49.152,307.957,157.794,-22.289,346.220,-47.600,-127.060
973,77828.531000,297.274,97.380,34.816,305.075,154.950,-25.338,56.220,1.400,4.940
974,77828.571000,324.791,78.306,6.144,306.966,154.955,-26.330,-292.780,-105.600,123.940
975,77828.611000,272.706,80.314,44.032,310.647,146.857,-21.524,-406.780,190.400,137.940
976,77828.653000,250.104,92.361,57.344,308.865,154.279,-15.400,-369.780,349.400,328.940
977,77828.668000,239.294,68.267,51.200,311.514,139.775,-9.737,-616.780,209.400,452.940
978,77828.708000,218.656,52.204,53.248,315.284,138.110,-3.799,-505.780,182.400,392.940
979,77828.748000,209.812,40.157,58.368,315.164,129.007,-1.009,-528.780,81.400,347.940
980,77828.791000,240.276,36.141,38.912,316.053,124.498,1.880,-758.780,-151.600,232.940
981,77828.831000,228.484,29.114,58.368,318.881,123.638,2.860,-808.780,-91.600,199.940
982,77828.871000,206.864,22.086,63.488,318.881,123.638,2.860,-829.780,-116.600,72.940
983,77828.891000,211.777,27.106,54.272,321.718,123.656,1.870,-691.780,-200.600,26.940
984,77828.931000,245.190,43.169,40.960,316.929,119.072,4.750,-749.780,-235.600,-38.060
985,77828.971000,246.173,23.090,39.936,317.904,121.735,-0.165,-450.780,-182.600,-21.060
986,77829.11000,244.207,12.047,46.080,317.872,119.045,2.761,-62.780,8.400,47.940
987,77829.50000,240.276,34.133,57.344,320.686,117.251,2.727,294.220,90.400,90.940
988,77829.91000,262.879,27.106,54.272,322.527,113.592,1.657,271.220,108.400,2.940
989,77829.131000,252.069,33.129,60.416,321.595,114.515,2.670,384.220,74.400,-43.060
990,77829.151000,253.052,23.090,52.224,317.936,123.645,3.854,348.220,46.400,23.940
991,77829.191000,251.086,14.055,58.368,321.695,121.844,2.826,321.220,17.400,59.940
992,77829.231000,234.380,31.122,60.416,320.720,119.960,0.796,381.220,-20.600,41.940
993,77829.271000,253.052,25.098,37.888,321.613,116.269,-1.271,408.220,-6.600,6.940
994,77829.311000,268.775,18.071,31.744,323.626,124.637,3.883,380.220,179.400,42.940
995,77829.351000,260.914,-2.008,27.648,320.657,114.600,7.644,374.220,369.400,129.940
996,77829.371000,248.138,17.067,31.744,322.506,111.038,11.549,742.220,433.400,360.940
997,77829.411000,229.466,0.000,30.720,321.515,107.420,14.455,715.220,194.400,473.940
998,77829.451000,279.585,28.110,32.768,323.254,96.412,12.234,654.220,-211.600,550.940
999,77829.491000,263.862,30.118,41.984,323.271,98.147,7.298,412.220,-212.600,447.940
1000,77829.531000,279.585,32.125,97.280,323.188,91.792,10.146,488.220,88.400,361.940
1001,77829.570000,182.296,88.345,139.264,322.328,97.413,17.227,384.220,195.400,-223.060
1002,77829.610000,188.192,86.337,102.400,318.562,98.358,21.220,-6.780,113.400,-347.060
1003,77829.630000,198.019,49.192,70.656,321.523,107.517,19.430,-217.780,-157.600,-216.060
1004,77829.670000,190.157,10.039,52.224,321.382,97.401,17.225,14.220,-286.600,-70.060
1005,77829.710000,228.484,44.173,63.488,318.622,103.679,12.382,92.220,-255.600,-33.060
1006,77829.749000,261.896,37.145,69.632,321.500,106.484,13.440,20.220,55.400,-72.060
1007,77829.788000,280.568,51.200,74.752,320.523,103.801,17.360,-8.780,236.400,-90.060
1008,77829.829000,285.482,67.263,88.064,321.450,102.040,20.308,11.220,379.400,-64.060
1009,77829.849000,270.741,59.231,77.824,319.530,99.384,26.216,-94.780,52.400,12.940
1010,77829.889000,251.086,25.098,48.128,319.602,104.082,32.284,61.220,362.400,-58.060
1011,77829.933000,223.570,44.173,53.248,322.435,103.281,36.250,385.220,395.400,70.940
1012,77829.973000,216.691,47.184,28.672,318.587,97.871,43.092,259.220,359.400,133.940
1013,77830.13000,230.449,28.110,76.800,322.323,94.276,44.015,182.220,213.400,277.940
1014,77830.53000,227.501,31.122,76.800,322.275,90.631,44.932,528.220,89.400,443.940
1015,77830.93000,238.311,29.114,58.368,323.986,77.752,40.682,-123.780,-281.600,301.940
1016,77830.113000,221.605,-2.008,63.488,326.845,79.563,37.741,-495.780,-330.600,111.940
1017,77830.153000,212.760,49.192,57.344,328.608,70.368,34.564,167.220,-240.600,178.940
1018,77830.193000,232.415,0.000,19.456,328.562,67.522,29.530,221.220,-303.600,277.940
1019,77830.233000,233.397,3.012,27.648,328.541,66.508,24.535,550.220,-279.600,223.940
1020,77830.273000,325.773,5.020,40.960,332.277,63.673,17.518,514.220,-169.600,235.940
1021,77830.313000,337.566,3.012,27.648,330.318,59.029,15.427,181.220,-217.600,132.940
1022,77830.333000,269.758,1.004,16.384,331.197,54.402,12.346,-87.780,-176.600,29.940
1023,77830.374000,230.449,-3.012,33.792,331.385,68.144,12.639,305.220,-8.600,-114.060
1024,77830.409000,252.069,1.004,45.056,328.477,63.448,8.556,596.220,-11.600,-187.060
1025,77830.448000,244.207,0.000,46.080,329.584,75.351,7.816,1007.220,5.400,-261.060
1026,77830.488000,263.862,28.110,41.984,322.996,77.992,6.868,1158.220,94.400,-368.060
1027,77830.528000,256.000,48.188,46.080,321.289,91.689,6.163,1135.220,39.400,-210.060
1028,77830.574000,245.190,42.165,44.032,322.253,93.456,2.223,977.220,-32.600,-91.060
1029,77830.595000,284.499,43.169,38.912,322.248,93.398,-0.762,802.220,-208.600,121.940
1030,77830.630000,251.086,56.220,40.960,320.259,87.622,-13.818,497.220,-440.600,138.940
1031,77830.671000,262.879,49.192,24.576,323.144,92.045,-23.666,269.220,-428.600,106.940
1032,77830.711000,227.501,24.094,28.672,320.239,87.388,-25.759,226.220,-266.600,133.940
1033,77830.751000,229.466,47.184,39.936,320.233,87.310,-29.739,365.220,-68.600,75.940
1034,77830.803000,228.484,61.239,54.272,323.146,92.844,-29.617,322.220,156.400,-25.060
1035,77830.811000,230.449,38.149,48.128,319.216,81.859,-26.873,335.220,177.400,-51.060
1036,77830.851000,246.173,55.216,37.888,322.218,93.806,-26.614,354.220,94.400,-40.060
1037,77830.890000,256.000,47.184,33.792,321.160,85.568,-25.796,240.220,62.400,107.940
1038,77830.930000,256.000,40.157,37.888,318.398,91.047,-24.689,207.220,72.400,193.940
1039,77830.974000,232.415,24.094,47.104,321.175,86.504,-24.782,209.220,114.400,175.940
1040,77831.15000,230.449,17.067,39.936,325.845,82.005,-23.876,377.220,133.400,86.940
1041,77831.30000,218.656,48.188,33.792,321.156,84.750,-20.841,397.220,157.400,-32.060
1042,77831.70000,228.484,60.235,54.272,322.133,86.653,-17.815,282.220,221.400,-103.060
1043,77831.111000,229.466,61.239,56.320,322.053,80.337,-12.976,236.220,221.400,-162.060
1044,77831.149000,246.173,63.247,54.272,322.105,84.022,-11.903,187.220,178.400,-167.060
1045,77831.190000,251.086,72.282,54.272,322.205,91.351,-11.747,69.220,40.400,-149.060
1046,77831.234000,250.104,70.275,53.248,324.017,85.041,-7.900,-20.780,-10.600,-144.060
1047,77831.274000,239.294,68.267,52.224,325.095,94.293,-3.723,-151.780,-64.600,-141.060
1048,77831.294000,237.328,57.224,41.984,324.962,85.034,-8.893,-157.780,-150.600,-115.060
1049,77831.330000,231.432,53.208,40.960,324.039,86.834,-9.851,-113.780,-189.600,-117.060
1050,77831.370000,239.294,66.259,27.648,324.976,85.969,-7.879,-52.780,-247.600,-111.060
1051,77831.410000,247.155,77.302,20.480,325.889,84.052,-12.891,-274.780,-257.600,-38.060
1052,77831.454000,251.086,65.255,22.528,324.967,85.872,-12.854,-417.780,-139.600,-7.060
1053,77831.494000,246.173,68.267,34.816,329.661,83.186,-12.904,-345.780,-97.600,19.940
1054,77831.514000,241.259,73.286,29.696,328.683,80.484,-9.979,-692.780,-60.600,7.940
1055,77831.554000,246.173,70.275,33.792,332.451,78.799,-5.036,-953.780,-48.600,-21.060
1056,77831.595000,247.155,57.224,32.768,333.377,77.038,-2.088,-1087.780,-29.600,-4.060
1057,77831.631000,243.225,45.176,29.696,331.365,67.910,0.698,-992.780,3.400,25.940
1058,77831.671000,228.484,30.118,32.768,339.899,68.997,3.718,-987.780,103.400,-33.060
1059,77831.711000,226.518,24.094,34.816,338.815,58.907,3.502,-831.780,166.400,-46.060
1060,77831.751000,245.190,25.098,43.008,339.852,64.592,12.576,-622.780,241.400,-86.060
1061,77831.771000,240.276,26.102,41.984,343.643,64.720,16.563,-498.780,266.400,-70.060
1062,77831.811000,261.896,22.086,39.936,343.548,56.670,26.338,-469.780,300.400,-65.060
1063,77831.851000,253.052,16.063,54.272,341.696,59.433,28.383,-468.780,366.400,-66.060
1064,77831.891000,240.276,16.063,62.464,344.455,52.375,40.172,-225.780,357.400,-33.060
1065,77831.938000,251.086,8.031,50.176,341.721,59.725,43.309,-167.780,240.400,-4.060
1066,77831.973000,266.810,15.059,58.368,344.520,56.215,49.206,-171.780,278.400,-7.060
1067,77831.993000,276.637,2.008,84.992,339.689,48.064,56.982,-147.780,260.400,66.940
1068,77832.38000,254.035,-3.012,78.848,339.653,45.335,57.919,92.220,101.400,112.940
1069,77832.70000,223.570,8.031,63.488,345.344,46.326,57.948,341.220,-16.600,153.940
1070,77832.114000,216.691,15.059,57.344,342.495,45.411,59.914,378.220,-110.600,153.940
1071,77832.153000,220.622,11.043,58.368,345.206,36.249,57.734,357.220,-169.600,174.940
1072,77832.193000,233.397,10.039,71.680,348.056,37.183,56.763,402.220,-171.600,221.940
1073,77832.213000,232.415,2.008,63.488,344.171,29.804,56.600,421.220,-217.600,283.940
1074,77832.251000,233.397,2.008,52.224,346.038,27.996,56.565,473.220,-235.600,374.940
1075,77832.293000,246.173,-1.004,54.272,342.196,24.204,52.500,398.220,-197.600,432.940
1076,77832.333000,277.620,-2.008,37.888,348.717,16.923,50.365,402.220,-169.600,448.940
1077,77832.373000,298.257,-3.012,48.128,344.862,11.435,53.227,197.220,-31.600,381.940
1078,77832.413000,262.879,3.012,48.128,345.772,8.719,54.165,128.220,-58.600,300.940
1079,77832.453000,238.311,-1.004,18.432,342.818,0.397,51.994,17.220,-123.600,192.940
1080,77832.478000,220.622,10.039,30.720,343.776,1.325,52.015,-79.780,-116.600,103.940
1081,77832.513000,232.415,3.012,44.032,343.819,4.132,55.059,1.220,-34.600,7.940
1082,77832.553000,238.311,3.012,50.176,340.891,-2.338,53.922,215.220,-88.600,-39.060
1083,77832.594000,251.086,25.098,53.248,343.833,5.068,56.073,256.220,52.400,-93.060
1084,77832.634000,245.190,21.082,45.056,346.675,5.145,58.069,351.220,5.400,-74.060
1085,77832.674000,256.000,22.086,38.912,346.752,10.661,59.181,244.220,72.400,-31.060
1086,77832.695000,259.931,22.086,46.080,337.220,5.117,63.027,273.220,115.400,14.940
1087,77832.735000,257.965,27.106,51.200,341.087,10.742,67.131,296.220,147.400,71.940
1088,77832.771000,252.069,25.098,54.272,336.252,2.532,71.923,282.220,147.400,90.940
1089,77832.811000,240.276,20.078,46.080,338.263,10.880,76.082,402.220,50.400,89.940
1090,77832.851000,244.207,18.071,43.008,337.367,14.532,76.158,434.220,58.400,47.940
1091,77832.891000,237.328,19.075,41.984,337.328,11.764,75.104,455.220,3.400,35.940
1092,77832.931000,250.104,29.114,45.056,336.348,9.042,77.034,371.220,-44.600,-69.060
1093,77832.951000,257.965,38.149,45.056,335.457,13.532,73.150,242.220,-132.600,-88.060
1094,77832.991000,256.000,39.153,43.008,335.526,18.191,77.228,38.220,-146.600,-68.060
1095,77833.31000,246.173,35.137,34.816,339.294,17.267,74.230,-27.780,-163.600,-34.060
1096,77833.70000,245.190,32.125,33.792,340.190,13.615,74.153,-30.780,-169.600,-24.060
1097,77833.113000,246.173,23.090,35.840,339.350,21.769,70.347,-49.780,-131.600,-35.060
1098,77833.153000,236.345,27.106,38.912,340.207,15.349,69.217,-35.780,-123.600,-68.060
1099,77833.173000,239.294,20.078,33.792,338.398,21.698,67.360,-12.780,-114.600,-53.060
1100,77833.213000,235.363,23.090,32.768,338.408,22.575,65.390,14.220,-71.600,-50.060
1101,77833.253000,246.173,22.086,31.744,340.338,25.349,65.452,10.220,-41.600,-52.060
1102,77833.294000,249.121,22.086,35.840,336.526,23.447,64.411,84.220,3.400,-44.060
1103,77833.361000,250.104,29.114,34.816,336.554,25.318,66.440,99.220,-25.600,-43.060
1104,77833.376000,251.086,31.122,36.864,336.513,22.531,64.391,38.220,-10.600,-31.060
1105,77833.416000,257.965,30.118,37.888,339.429,28.084,65.509,-0.780,-2.600,-41.060
1106,77833.436000,247.155,25.098,36.864,338.463,26.298,68.453,-62.780,-12.600,-31.060
1107,77833.476000,245.190,29.114,37.888,340.361,27.161,64.496,-43.780,-4.600,-31.060
1108,77833.516000,243.225,26.102,39.936,338.388,20.801,68.336,-37.780,23.400,-45.060
1109,77833.556000,244.207,26.102,36.864,338.423,23.530,67.399,12.220,50.400,-60.060
1110,77833.596000,240.276,28.110,41.984,335.699,31.758,68.565,66.220,38.400,-47.060
1111,77833.636000,247.155,30.118,36.864,339.512,33.679,70.601,135.220,62.400,-51.060
1112,77833.656000,242.242,24.094,35.840,336.670,33.602,68.606,278.220,16.400,3.940
1113,77833.696000,256.983,29.114,40.960,336.625,29.996,71.513,139.220,19.400,11.940
1114,77833.736000,256.983,34.133,40.960,338.575,34.543,68.629,154.220,-33.600,24.940
1115,77833.776000,260.914,33.129,34.816,337.543,28.138,69.485,88.220,-31.600,37.940
1116,77833.816000,247.155,34.133,43.008,337.641,35.447,68.647,54.220,-34.600,52.940
1117,77833.856000,239.294,27.106,39.936,337.557,29.073,70.500,80.220,-36.600,72.940
1118,77833.876000,229.466,30.118,41.984,338.461,26.279,67.458,56.220,15.400,70.940
1119,77833.916000,230.449,31.122,44.032,335.627,26.300,70.438,56.220,78.400,33.940
1120,77833.956000,249.121,34.133,50.176,336.616,29.119,73.484,84.220,85.400,27.940
1121,77833.996000,288.430,39.153,53.248,331.796,21.864,80.284,-60.780,298.400,-85.060
1122,77834.36000,268.775,19.075,41.984,334.706,26.580,85.362,-118.780,516.400,-225.060
1123,77834.76000,212.760,6.024,-1.024,330.111,35.815,92.515,203.220,893.400,-195.060
1124,77834.116000,228.484,21.082,45.056,328.327,41.678,112.529,-35.780,842.400,-201.060
1125,77834.136000,222.587,37.145,90.112,323.566,38.964,117.438,-38.780,285.400,-51.060
1126,77834.185000,243.225,44.173,92.160,324.555,41.784,120.483,-50.780,-13.600,29.940
1127,77834.213000,242.242,40.157,82.944,325.489,41.660,113.519,-95.780,-229.600,14.940
1128,77834.253000,242.242,38.149,72.704,327.259,32.543,114.323,-132.780,-277.600,34.940
1129,77834.293000,250.104,28.110,68.608,322.497,30.589,111.290,-166.780,-190.600,35.940
1130,77834.333000,244.207,29.114,65.536,329.224,38.805,105.507,-137.780,-155.600,30.940
1131,77834.353000,236.345,28.110,59.392,329.135,32.373,104.375,-140.780,-101.600,1.940
1132,77834.391000,237.328,30.118,54.272,329.181,35.998,102.463,-147.780,-52.600,-34.060
1133,77834.438000,245.190,28.110,50.176,330.136,36.108,107.440,-128.780,-16.600,-48.060
1134,77834.478000,248.138,25.098,54.272,331.076,36.043,103.462,-122.780,-0.600,-39.060
1135,77834.518000,243.225,26.102,49.152,328.260,37.818,102.501,-37.780,-8.600,-31.060
1136,77834.558000,254.035,33.129,48.128,328.265,37.876,105.486,-45.780,44.400,-21.060
1137,77834.598000,257.965,31.122,54.272,328.238,36.025,104.452,-93.780,75.400,-37.060
1138,77834.618000,252.069,34.133,45.056,330.079,32.366,103.382,-86.780,50.400,-51.060
1139,77834.658000,245.190,38.149,34.816,329.192,36.895,101.488,-123.780,-27.600,-48.060
1140,77834.698000,246.173,36.141,34.816,327.215,30.496,103.338,-267.780,58.400,-37.060
1141,77834.738000,236.345,29.114,39.936,329.222,38.786,104.512,-376.780,67.400,-5.060
1142,77834.774000,238.311,32.125,40.960,328.149,29.592,103.320,-436.780,71.400,-14.060
1143,77834.814000,241.259,38.149,48.128,326.251,28.729,107.278,-485.780,103.400,-31.060
1144,77834.834000,242.242,32.125,49.152,326.260,29.606,105.307,-451.780,87.400,-24.060
1145,77834.874000,239.294,31.122,46.080,327.154,25.935,104.236,-497.780,57.400,-19.060
1146,77834.914000,244.207,34.133,58.368,326.278,31.360,101.366,-530.780,101.400,6.940
1147,77834.954000,253.052,33.129,72.704,328.127,27.799,105.271,-561.780,83.400,76.940
1148,77834.994000,253.052,35.137,74.752,326.194,24.987,103.219,-733.780,-3.600,91.940
1149,77835.34000,262.879,22.086,72.704,326.023,12.979,97.990,-767.780,-56.600,108.940
1150,77835.74000,281.551,16.063,83.968,328.857,12.958,95.010,-815.780,-13.600,125.940
1151,77835.94000,226.518,-3.012,83.968,330.670,7.428,91.911,-729.780,-45.600,137.940
1152,77835.134000,218.656,-6.024,80.896,328.799,9.196,89.957,-696.780,9.400,158.940
1153,77835.174000,213.743,-9.035,83.968,330.605,2.828,90.819,-609.780,94.400,104.940
1154,77835.214000,211.777,-20.078,81.920,332.468,0.962,87.798,-442.780,62.400,71.940
1155,77835.258000,216.691,-21.082,89.088,328.720,3.660,87.850,-390.780,56.400,43.940
1156,77835.294000,249.121,-33.129,112.640,329.558,-3.754,82.720,-317.780,112.400,72.940
1157,77835.314000,253.052,-36.141,119.808,327.805,6.318,83.926,-172.780,50.400,47.940
1158,77835.354000,248.138,-29.114,108.544,330.581,1.775,83.834,55.220,-8.600,27.940
1159,77835.394000,235.363,-24.094,107.520,329.682,5.388,81.920,159.220,-6.600,16.940
1160,77835.434000,220.622,-22.086,101.376,326.837,4.512,85.876,250.220,17.400,12.940
1161,77835.474000,204.898,-16.063,104.448,327.778,4.466,82.892,358.220,43.400,89.940
1162,77835.514000,210.795,-20.078,100.352,327.778,4.466,82.892,390.220,57.400,151.940
1163,77835.534000,233.397,-18.071,95.232,325.019,9.984,85.989,447.220,17.400,205.940
1164,77835.575000,255.017,-21.082,84.992,325.911,6.274,82.928,410.220,46.400,205.940
1165,77835.615000,225.536,-9.035,89.088,327.787,4.564,87.867,393.220,4.400,127.940
1166,77835.655000,246.173,-20.078,87.040,327.876,10.996,88.999,245.220,79.400,94.940
1167,77835.695000,220.622,-16.063,97.280,324.988,7.314,89.911,387.220,122.400,44.940
1168,77835.735000,235.363,-23.090,105.472,321.319,15.548,92.070,374.220,131.400,10.940
1169,77835.774000,224.553,-20.078,106.496,324.175,16.560,95.080,448.220,82.400,45.940
1170,77835.801000,225.536,-22.086,101.376,323.258,18.419,97.107,491.220,54.400,79.940
1171,77835.836000,221.605,-25.098,102.400,320.456,21.130,97.161,571.220,6.400,134.940
1172,77835.876000,219.639,-25.098,102.400,320.369,14.717,97.024,700.220,-37.600,159.940
1173,77835.920000,212.760,-22.086,100.352,321.243,9.272,98.899,773.220,-72.600,220.940
1174,77835.956000,246.173,-25.098,97.280,321.470,25.782,100.245,851.220,-93.600,260.940
1175,77835.996000,272.706,-44.173,86.016,321.459,24.885,101.221,1003.220,-71.600,261.940
1176,77836.16000,277.620,-49.192,80.896,318.623,24.887,103.206,1254.220,168.400,183.940
