Sample, Time, ACCX, ACCY, ACCZ, MAGX, MAGY, MAGZ, GYRX, GYRY, GYRZ
0,77441.935000,237.328,36.141,84.992,348.923,27.801,91.377,107.220,-48.600,41.940
1,77441.975000,238.311,34.133,84.992,349.966,35.103,89.545,110.220,-43.600,52.940
2,77442.15000,239.294,36.141,86.016,346.143,32.305,89.480,96.220,-34.600,50.940
3,77442.55000,236.345,38.149,83.968,349.980,36.039,90.559,70.220,-49.600,39.940
4,77442.95000,234.380,37.145,86.016,350.836,29.600,88.434,81.220,-35.600,42.940
5,77442.121000,232.415,38.149,84.992,348.093,36.852,86.595,33.220,-47.600,21.940
6,77442.161000,231.432,38.149,81.920,349.961,35.045,86.560,-42.780,-61.600,-13.060
7,77442.201000,233.397,40.157,87.040,349.931,33.154,83.535,-89.780,-62.600,-33.060
8,77442.241000,233.397,38.149,86.016,348.965,31.368,86.480,-126.780,-66.600,-42.060
9,77442.281000,237.328,38.149,89.088,347.153,37.678,82.633,-193.780,-60.600,-43.060
10,77442.320000,233.397,37.145,87.040,347.019,27.639,84.408,-209.780,-67.600,-30.060
11,77442.340000,233.397,34.133,88.064,353.739,35.017,82.586,-218.780,-64.600,-15.060
12,77442.377000,238.311,34.133,86.016,351.764,28.637,85.431,-192.780,-49.600,-14.060
13,77442.419000,230.449,37.145,87.040,354.622,30.429,81.495,-160.780,-45.600,-21.060
14,77442.460000,231.432,36.141,91.136,349.878,29.450,81.467,-144.780,-13.600,-35.060
15,77442.499000,222.587,38.149,91.136,351.817,33.101,79.559,-114.780,-14.600,-31.060
16,77442.539000,226.518,36.141,89.088,349.888,30.347,80.492,-114.780,-18.600,-30.060
17,77442.579000,221.605,36.141,89.088,353.736,34.978,80.596,-70.780,-66.600,-18.060
18,77442.599000,247.155,32.125,83.968,352.763,33.113,79.560,-75.780,-39.600,-1.060
19,77442.639000,250.104,28.110,92.160,348.901,27.547,78.441,-64.780,-29.600,18.940
20,77442.679000,240.276,33.129,81.920,356.529,32.169,75.567,-103.780,-58.600,13.940
21,77442.719000,237.328,24.094,75.776,354.554,25.790,78.412,-125.780,-58.600,30.940
22,77442.759000,236.345,21.082,69.632,352.708,29.390,76.497,-114.780,-44.600,32.940
23,77442.796000,245.190,23.090,71.680,352.676,27.480,72.478,-88.780,8.400,15.940
24,77442.817000,240.276,31.122,73.728,356.470,27.628,77.460,-102.780,37.400,12.940
25,77442.857000,236.345,26.102,75.776,356.447,25.815,78.416,-227.780,65.400,4.940
26,77442.897000,236.345,25.098,71.680,356.434,24.899,78.396,-322.780,101.400,-11.060
27,77442.947000,232.415,22.086,77.824,353.543,20.398,84.264,-390.780,147.400,-62.060
28,77442.977000,240.276,30.118,88.064,354.466,18.597,85.222,-393.780,204.400,-123.060
29,77443.17000,232.415,25.098,94.208,348.916,27.723,87.397,-348.780,143.400,-104.060
30,77443.36000,232.415,11.043,95.232,352.617,21.399,89.257,-319.780,63.400,-76.060
31,77443.80000,233.397,14.055,92.160,353.612,25.056,88.342,-187.780,29.400,-57.060
32,77443.117000,233.397,19.075,95.232,351.696,23.219,89.294,-47.780,-11.600,-62.060
33,77443.157000,230.449,25.098,94.208,350.826,28.722,90.405,-4.780,-21.600,-64.060
34,77443.201000,230.449,24.094,90.112,351.799,30.587,91.441,24.220,-6.600,-49.060
35,77443.239000,226.518,25.098,88.064,354.637,30.605,90.451,-4.780,16.400,-52.060
36,77443.280000,226.518,26.102,88.064,353.676,29.657,89.434,0.220,63.400,-62.060
37,77443.296000,235.363,29.114,90.112,351.685,22.322,90.270,17.220,84.400,-70.060
38,77443.351000,233.397,33.129,90.112,349.863,26.975,95.340,-3.780,89.400,-82.060
39,77443.379000,231.432,31.122,96.256,349.896,29.665,92.413,-33.780,68.400,-63.060
40,77443.431000,226.518,32.125,93.184,352.815,35.258,95.520,-38.780,-10.600,-37.060
41,77443.472000,228.484,32.125,95.232,348.928,27.859,94.362,-32.780,-48.600,-11.060
42,77443.502000,232.415,32.125,97.280,348.041,32.388,92.468,-32.780,-113.600,-0.060
43,77443.529000,240.276,34.133,97.280,351.874,36.083,91.558,-28.780,-124.600,6.940
44,77443.562000,255.017,32.125,99.328,355.620,33.366,90.511,-20.780,-92.600,5.940
45,77443.602000,239.294,34.133,97.280,348.991,33.220,87.514,-9.780,-71.600,0.940
46,77443.637000,220.622,29.114,87.040,350.848,30.516,88.454,-36.780,-44.600,0.940
47,77443.681000,214.726,26.102,81.920,352.739,30.521,87.462,-45.780,-25.600,-8.060
48,77443.721000,204.898,24.094,83.968,349.925,32.316,87.496,-5.780,-42.600,-26.060
49,77443.762000,205.881,29.114,77.824,351.902,38.715,85.646,42.220,-38.600,-21.060
50,77443.777000,270.741,21.082,94.208,351.775,29.534,84.456,54.220,78.400,-25.060
51,77443.817000,245.190,53.208,115.712,349.911,31.380,86.482,77.220,44.400,-60.060
52,77443.857000,238.311,34.133,105.472,348.117,38.665,85.639,-8.780,20.400,-14.060
53,77443.897000,232.415,21.082,86.016,350.014,38.748,88.628,49.220,-49.600,50.940
54,77443.939000,235.363,26.102,84.992,350.932,36.890,86.600,20.220,-76.600,40.940
55,77443.979000,228.484,32.125,95.232,350.902,34.999,83.576,4.220,-35.600,16.940
56,77444.0,217.674,31.122,91.136,348.997,34.058,83.553,30.220,-56.600,-18.060
57,77444.42000,199.985,28.110,84.992,350.883,34.005,79.576,29.220,-77.600,-25.060
58,77444.82000,214.726,27.106,77.824,352.702,28.552,80.458,93.220,-91.600,-1.060
59,77444.122000,283.516,33.129,91.136,351.878,37.662,78.661,57.220,33.400,-24.060
60,77444.162000,268.775,42.165,102.400,352.756,32.256,82.526,70.220,27.400,-45.060
61,77444.197000,239.294,42.165,105.472,354.687,35.049,83.583,-43.780,-38.600,36.940
62,77444.234000,225.536,25.098,84.992,350.910,35.856,80.611,-15.780,-95.600,73.940
63,77444.257000,223.570,21.082,78.848,354.706,36.803,79.642,-15.780,-117.600,87.940
64,77444.302000,227.501,31.122,92.160,349.969,36.682,76.648,23.220,-44.600,61.940
65,77444.342000,231.432,33.129,94.208,354.707,36.822,80.637,76.220,-41.600,40.940
66,77444.381000,231.432,32.125,89.088,353.704,33.067,76.577,83.220,-33.600,24.940
67,77444.422000,214.726,32.125,87.040,353.670,30.358,78.508,44.220,-89.600,24.940
68,77444.462000,255.017,35.137,77.824,356.449,26.614,72.465,4.220,-76.600,22.940
69,77444.481000,242.242,29.114,90.112,358.386,29.465,76.507,78.220,-116.600,34.940
70,77444.517000,241.259,28.110,86.016,356.437,25.698,72.445,35.220,-118.600,53.940
71,77444.557000,242.242,22.086,73.728,355.523,28.375,69.517,31.220,-157.600,88.940
72,77444.597000,245.190,22.086,73.728,356.434,26.438,63.509,60.220,-137.600,98.940
73,77444.637000,250.104,25.098,79.872,358.339,27.379,63.532,79.220,-81.600,66.940
74,77444.679000,232.415,32.125,77.824,357.382,26.470,64.506,127.220,-74.600,40.940
75,77444.699000,224.553,30.118,70.656,360.214,26.430,60.531,98.220,-52.600,16.940
76,77444.745000,207.846,34.133,69.632,357.320,22.669,57.463,63.220,-61.600,10.940
77,77444.779000,270.741,42.165,60.416,360.238,28.242,59.575,-36.780,-7.600,-14.060
78,77444.819000,242.242,34.133,75.776,360.159,22.707,57.468,-115.780,-27.600,-15.060
79,77444.859000,244.207,37.145,77.824,358.306,25.450,58.518,-170.780,-14.600,-9.060
80,77444.900000,222.587,15.059,58.368,359.179,19.985,59.398,-316.780,-60.600,-23.060
81,77444.940000,184.261,10.039,113.664,359.227,23.630,58.481,-228.780,-6.600,-3.060
82,77444.962000,215.708,1.004,129.024,360.172,23.623,57.487,10.220,54.400,44.940
83,77445.2000,243.225,-1.004,120.832,362.972,20.892,56.439,165.220,15.400,81.940
84,77445.42000,250.104,5.020,109.568,359.113,15.365,57.310,306.220,-1.600,64.940
85,77445.81000,246.173,0.000,101.376,358.125,11.786,62.205,422.220,-49.600,112.940
86,77445.121000,245.190,13.051,84.992,360.997,14.513,59.284,468.220,-111.600,96.940
87,77445.161000,225.536,17.067,77.824,362.779,7.092,53.161,441.220,-112.600,89.940
88,77445.181000,222.587,18.071,79.872,361.959,15.481,61.295,394.220,21.400,61.940
89,77445.222000,222.587,15.059,73.728,364.763,12.809,63.232,382.220,99.400,15.940
90,77445.259000,217.674,27.106,69.632,364.797,14.739,68.246,444.220,187.400,-16.060
91,77445.299000,224.553,26.102,61.440,361.975,15.676,71.246,389.220,257.400,24.940
92,77445.339000,273.689,15.059,48.128,360.049,12.181,81.115,317.220,375.400,31.940
93,77445.379000,233.397,47.184,31.744,358.115,8.589,86.009,262.220,286.400,-77.060
94,77445.420000,238.311,74.290,46.080,359.187,17.003,94.146,321.220,330.400,-118.060
95,77445.441000,250.104,52.204,31.744,358.223,15.237,98.086,210.220,166.400,-43.060
96,77445.481000,271.724,45.176,16.384,360.099,14.306,96.080,166.220,-71.600,94.940
97,77445.522000,300.223,48.188,23.552,359.187,17.003,94.146,87.220,-45.600,118.940
98,77445.561000,299.240,57.224,31.744,359.076,8.778,94.966,80.220,-201.600,168.940
99,77445.600000,301.205,52.204,18.432,357.213,11.403,90.046,-3.780,-308.600,186.940
100,77445.640000,297.274,26.102,30.720,359.017,5.775,81.972,-214.780,-289.600,192.940
101,77445.660000,300.223,46.180,86.016,357.977,-0.728,77.853,-213.780,-76.600,108.940
102,77445.707000,244.207,45.176,95.232,359.902,1.987,74.930,-281.780,-178.600,34.940
103,77445.741000,209.812,24.094,82.944,359.845,-1.756,70.872,-518.780,-270.600,-76.060
104,77445.784000,201.950,16.063,80.896,361.833,5.540,68.046,-730.780,-122.600,-142.060
105,77445.819000,205.881,10.039,93.184,364.699,8.209,62.139,-720.780,-58.600,-135.060
106,77445.860000,216.691,1.004,95.232,363.745,8.098,57.162,-693.780,-27.600,-98.060
107,77445.881000,214.726,0.000,92.160,363.691,4.395,55.094,-604.780,-42.600,-72.060
108,77445.921000,227.501,-1.004,78.848,363.730,7.163,56.148,-445.780,-113.600,-44.060
109,77445.961000,212.760,-3.012,77.824,362.762,6.117,50.156,-398.780,-125.600,-33.060
110,77446.1000,209.812,-1.004,77.824,361.803,5.188,50.135,-195.780,-163.600,29.940
111,77446.44000,213.743,3.012,81.920,367.476,5.205,47.160,-117.780,-115.600,123.940
112,77446.84000,225.536,-3.012,86.016,365.446,-4.898,46.942,26.220,-108.600,192.940
113,77446.124000,262.879,-11.043,82.944,362.542,-9.535,45.844,150.220,-47.600,262.940
114,77446.144000,254.035,-2.008,93.184,364.485,-5.846,45.925,175.220,4.400,219.940
115,77446.184000,253.052,3.012,82.944,365.317,-14.098,44.756,213.220,-10.600,175.940
116,77446.221000,235.363,12.047,74.752,363.462,-11.375,44.812,249.220,-30.600,89.940
117,77446.261000,233.397,12.047,74.752,360.644,-10.398,49.801,181.220,7.400,11.940
118,77446.301000,211.777,4.016,65.536,363.428,-14.084,46.743,187.220,-56.600,-12.060
119,77446.345000,232.415,13.051,57.344,361.603,-9.470,49.823,163.220,-36.600,-111.060
120,77446.360000,230.449,28.110,61.440,366.429,-2.137,47.002,131.220,-96.600,-265.060
121,77446.400000,231.432,42.165,64.512,365.437,-4.995,41.966,-29.780,-185.600,-397.060
122,77446.441000,243.225,44.173,56.320,365.473,-2.266,41.030,-207.780,-329.600,-488.060
123,77446.484000,219.639,39.153,65.536,366.652,15.094,38.417,-277.780,-227.600,-376.060
124,77446.521000,256.000,41.161,63.488,367.540,11.345,33.365,-293.780,-179.600,-305.060
125,77446.562000,261.896,47.184,75.776,368.649,23.267,33.621,-244.780,-82.600,-203.060
126,77446.604000,252.069,41.161,71.680,366.659,16.712,27.511,-226.780,-84.600,-139.060
127,77446.624000,257.965,47.184,55.296,371.474,23.148,25.665,-222.780,-212.600,-105.060
128,77446.660000,262.879,46.180,49.152,369.553,21.252,23.633,-242.780,-118.600,-90.060
129,77446.700000,261.896,49.192,50.176,370.521,23.058,21.684,-218.780,-64.600,-58.060
130,77446.741000,249.121,46.180,49.152,371.391,17.554,20.573,-219.780,7.400,-34.060
131,77446.791000,233.397,43.169,49.152,373.339,21.302,23.640,-88.780,81.400,-29.060
132,77446.820000,225.536,36.141,44.032,375.295,25.927,24.736,-26.780,108.400,-32.060
133,77446.840000,247.155,31.122,25.600,372.371,19.496,25.589,10.220,166.400,-54.060
134,77446.880000,215.708,18.071,24.576,373.389,24.206,31.659,58.220,187.400,-20.060
135,77446.920000,225.536,20.078,38.912,369.575,21.506,36.569,82.220,309.400,51.940
136,77446.960000,238.311,4.016,41.984,368.600,18.842,41.484,154.220,241.400,72.940
137,77447.0,268.775,15.059,40.960,374.279,18.937,42.489,232.220,130.400,79.940
138,77447.40000,292.361,13.051,27.648,372.408,20.705,40.534,179.220,3.400,31.940
139,77447.80000,307.102,-1.004,26.624,373.231,11.576,41.336,198.220,-57.600,51.940
140,77447.100000,291.378,-6.024,26.624,374.235,16.110,38.450,263.220,-62.600,146.940
141,77447.140000,266.810,2.008,52.224,371.307,9.640,37.313,319.220,-14.600,210.940
142,77447.180000,254.035,7.027,68.608,371.224,3.286,40.162,440.220,-4.600,225.940
143,77447.220000,311.033,-5.020,46.080,370.358,8.829,43.262,605.220,-150.600,215.940
144,77447.260000,188.192,42.165,46.080,371.278,7.769,35.284,555.220,-89.600,155.940
145,77447.301000,216.691,22.086,46.080,369.416,9.635,38.305,520.220,-20.600,137.940
146,77447.321000,223.570,54.212,46.080,370.355,8.790,41.272,570.220,26.400,48.940
147,77447.362000,242.242,55.216,56.320,365.616,7.870,44.230,520.220,92.400,-25.060
148,77447.402000,237.328,59.231,63.488,366.601,10.650,45.285,547.220,16.400,-75.060
149,77447.442000,228.484,53.208,51.200,367.583,13.392,44.350,437.220,-92.600,-61.060
150,77447.482000,223.570,50.196,33.792,367.632,17.037,43.433,322.220,-125.600,-76.060
151,77447.522000,225.536,61.239,37.888,369.607,23.416,40.588,123.220,-128.600,-110.060
152,77447.544000,233.397,67.263,48.128,368.682,25.197,38.635,-28.780,-97.600,-170.060
153,77447.585000,227.501,70.275,55.296,364.954,29.669,35.741,-76.780,-148.600,-164.060
154,77447.622000,242.242,72.282,53.248,365.930,32.332,30.826,-158.780,-156.600,-163.060
155,77447.665000,263.862,65.255,53.248,366.932,36.847,26.945,-271.780,-150.600,-153.060
156,77447.704000,254.035,64.251,50.176,364.974,32.203,24.854,-258.780,-92.600,-93.060
157,77447.741000,244.207,45.176,61.440,365.039,36.822,26.942,-351.780,-9.600,-0.060
158,77447.785000,226.518,45.176,65.536,371.573,30.458,24.826,-363.780,47.400,45.940
159,77447.805000,228.484,48.188,67.584,365.920,32.215,24.856,-345.780,94.400,47.940
160,77447.845000,231.432,47.184,67.584,366.893,34.079,25.891,-278.780,130.400,57.940
161,77447.886000,236.345,43.169,72.704,365.848,26.757,26.729,-250.780,150.400,97.940
162,77447.926000,235.363,38.149,77.824,367.763,27.815,32.722,-136.780,161.400,195.940
163,77447.961000,227.501,32.125,58.368,373.314,18.710,31.542,-102.780,53.400,273.940
164,77448.5000,224.553,20.078,53.248,368.536,15.022,33.445,-286.780,18.400,363.940
165,77448.22000,231.432,3.012,86.016,368.367,3.034,29.211,-277.780,60.400,357.940
166,77448.71000,241.259,-2.008,91.136,364.563,1.230,33.146,-23.780,-28.600,324.940
167,77448.102000,240.276,-3.012,98.304,366.333,-7.887,33.949,209.220,-44.600,278.940
168,77448.144000,259.931,-10.039,97.280,370.106,-7.974,26.990,273.220,-107.600,197.940
169,77448.181000,264.845,3.012,78.848,372.004,-7.890,29.979,207.220,-187.600,59.940
170,77448.224000,257.965,5.020,66.560,371.901,-15.258,27.833,160.220,-151.600,-35.060
171,77448.264000,240.276,12.047,54.272,370.083,-9.787,27.946,92.220,-95.600,-123.060
172,77448.285000,246.173,8.031,51.200,372.913,-10.626,29.922,-96.780,77.400,-255.060
173,77448.326000,251.086,8.031,59.392,372.068,-3.290,31.071,-65.780,148.400,-255.060
174,77448.365000,244.207,9.035,38.912,372.098,-1.399,34.096,-83.780,222.400,-185.060
175,77448.402000,220.622,1.004,27.648,372.172,3.318,41.159,57.220,223.400,-158.060
176,77448.446000,229.466,30.118,17.408,373.055,-2.030,48.009,223.220,234.400,-175.060
177,77448.484000,240.276,58.227,14.336,374.108,5.390,52.147,239.220,155.400,-177.060
178,77448.504000,260.914,44.173,11.264,374.088,3.616,55.093,125.220,92.400,-113.060
179,77448.546000,271.724,29.114,7.168,376.003,5.435,53.145,80.220,64.400,-22.060
180,77448.582000,289.413,43.169,2.048,370.380,9.083,56.198,152.220,55.400,-6.060
181,77448.624000,298.257,53.208,11.264,369.372,4.509,57.094,259.220,-15.600,63.940
182,77448.664000,280.568,55.216,8.192,369.396,6.322,56.138,167.220,-136.600,133.940
183,77448.702000,262.879,44.173,4.096,374.130,7.183,50.195,150.220,-248.600,146.940
184,77448.751000,267.793,46.180,6.144,374.025,-0.204,47.054,130.220,-273.600,157.940
185,77448.767000,300.223,38.149,26.624,372.088,-3.056,43.012,-70.780,-218.600,196.940
186,77448.805000,272.706,35.137,41.984,368.252,-6.010,34.986,-318.780,-188.600,141.940
187,77448.845000,218.656,34.133,64.512,369.204,-5.160,31.027,-319.780,-197.600,126.940
188,77448.882000,211.777,9.035,69.632,372.072,-2.471,26.116,-590.780,-152.600,76.940
189,77448.925000,224.553,6.024,65.536,372.954,-7.059,25.025,-580.780,-102.600,11.940
190,77448.964000,241.259,1.004,79.872,371.091,-4.433,20.105,-538.780,15.400,15.940
191,77448.985000,233.397,1.004,77.824,370.157,-3.530,20.123,-374.780,-2.600,6.940
192,77449.25000,230.449,3.012,70.656,370.154,-3.569,18.132,-219.780,-21.600,34.940
193,77449.62000,224.553,2.008,62.464,369.965,-17.330,16.845,-131.780,-43.600,108.940
194,77449.105000,214.726,-3.012,69.632,373.889,-7.183,18.061,3.220,-4.600,188.940
195,77449.146000,223.570,-3.012,75.776,368.131,-12.814,14.949,126.220,28.400,238.940
196,77449.184000,235.363,-6.024,71.680,368.970,-20.988,17.760,194.220,23.400,292.940
197,77449.205000,266.810,-15.059,61.440,368.049,-19.168,17.797,254.220,39.400,322.940
198,77449.245000,297.274,-20.078,68.608,368.903,-26.387,22.618,266.220,75.400,235.940
199,77449.285000,248.138,17.067,73.728,364.178,-26.371,26.590,305.220,160.400,84.940
200,77449.322000,256.983,12.047,69.632,367.021,-26.295,28.585,270.220,59.400,-37.060
201,77449.362000,228.484,15.059,58.368,366.142,-21.668,31.666,126.220,-3.600,-145.060
202,77449.411000,201.950,13.051,44.032,367.040,-25.301,32.585,52.220,-41.600,-218.060
203,77449.445000,212.760,28.110,39.936,369.027,-18.005,29.759,-80.780,-92.600,-280.060
204,77449.464000,212.760,30.118,51.200,370.024,-14.328,29.839,-283.780,-80.600,-410.060
205,77449.504000,221.605,47.184,51.200,368.195,-8.993,22.987,-384.780,-195.600,-465.060
206,77449.542000,225.536,33.129,58.368,370.248,2.922,22.249,-578.780,-159.600,-487.060
207,77449.584000,266.810,48.188,51.200,372.223,9.302,19.404,-581.780,-144.600,-496.060
208,77449.625000,266.810,60.235,60.416,370.438,17.463,16.591,-641.780,-83.600,-451.060
209,77449.666000,267.793,56.220,65.536,376.194,23.074,18.708,-645.780,-75.600,-314.060
210,77449.682000,271.724,51.200,60.416,374.334,25.739,15.778,-693.780,-30.600,-234.060
211,77449.722000,269.758,54.212,59.392,374.270,21.139,14.686,-655.780,53.400,-160.060
212,77449.765000,264.845,53.208,63.488,373.343,22.120,18.684,-578.780,209.400,-100.060
213,77449.802000,233.397,34.133,57.344,378.106,24.093,22.711,-452.780,288.400,-33.060
214,77449.845000,202.933,32.125,46.080,377.150,22.424,31.626,-229.780,437.400,8.940
215,77449.887000,214.726,32.125,33.792,378.142,25.283,36.662,-6.780,448.400,40.940
216,77449.925000,221.605,19.075,21.504,375.263,21.698,42.549,97.220,443.400,43.940
217,77449.944000,215.708,19.075,33.792,374.363,23.771,55.522,275.220,627.400,125.940
218,77449.986000,242.242,23.090,51.200,373.359,18.457,65.354,299.220,579.400,182.940
219,77450.26000,261.896,19.075,58.368,369.524,13.983,73.210,372.220,381.400,212.940
220,77450.65000,287.447,12.047,52.224,371.458,16.035,83.203,324.220,221.400,207.940
221,77450.105000,306.119,4.016,49.152,373.319,14.150,79.187,331.220,132.400,134.940
222,77450.147000,286.464,5.020,59.392,371.358,8.706,83.047,296.220,111.400,82.940
223,77450.166000,281.551,10.039,58.368,370.376,5.965,83.982,271.220,34.400,90.940
224,77450.204000,256.983,11.043,69.632,372.308,8.757,85.039,149.220,-20.600,104.940
225,77450.246000,237.328,4.016,73.728,372.341,10.687,90.053,164.220,-73.600,55.940
226,77450.284000,248.138,0.000,74.752,368.571,12.352,84.115,289.220,-119.600,72.940
227,77450.326000,252.069,14.055,67.584,371.419,13.267,82.149,395.220,-92.600,-31.060
228,77450.364000,190.157,31.122,73.728,368.602,15.023,80.193,401.220,-68.600,-81.060
229,77450.387000,195.071,39.153,70.656,366.845,25.056,79.410,454.220,-41.600,-114.060
230,77450.425000,213.743,59.231,79.872,364.015,25.116,84.380,473.220,82.400,-208.060
231,77450.467000,234.380,73.286,89.088,365.009,28.773,83.465,383.220,88.400,-306.060
232,77450.505000,226.518,70.275,92.160,363.320,43.445,85.764,318.220,62.400,-321.060
233,77450.545000,223.570,70.275,81.920,360.479,43.388,84.764,158.220,80.400,-331.060
234,77450.585000,217.674,77.302,82.944,357.869,59.880,87.100,103.220,98.400,-320.060
235,77450.636000,215.708,83.325,82.944,361.682,61.802,89.136,-1.780,63.400,-295.060
236,77450.646000,216.691,88.345,87.040,357.032,68.074,85.284,-48.780,69.400,-301.060
237,77450.687000,210.795,100.392,103.424,356.180,74.553,89.399,-33.780,96.400,-282.060
238,77450.724000,225.536,97.380,91.136,353.402,79.076,88.497,-172.780,-20.600,-245.060
239,77450.767000,231.432,96.376,86.016,357.154,76.436,91.430,-202.780,64.400,-248.060
240,77450.809000,225.536,96.376,105.472,354.420,83.786,94.566,-144.780,173.400,-130.060
241,77450.844000,185.244,71.278,105.472,355.268,76.489,95.407,-234.780,176.400,4.940
242,77450.864000,171.486,68.267,98.304,354.352,78.368,98.429,-305.780,167.400,113.940
243,77450.905000,190.157,63.247,86.016,348.577,71.003,100.253,-335.780,144.400,229.940
244,77450.944000,209.812,61.239,110.592,358.047,71.206,104.250,-257.780,242.400,321.940
245,77450.989000,233.397,59.231,124.928,354.044,54.743,107.872,-109.780,260.400,359.940
246,77451.25000,232.415,40.157,123.904,354.998,54.854,112.849,-36.780,168.400,420.940
247,77451.66000,206.864,27.106,121.856,354.016,52.112,113.784,-5.780,128.400,375.940
248,77451.104000,199.985,35.137,136.192,354.808,40.312,118.507,2.220,224.400,252.940
249,77451.135000,220.622,19.075,156.672,353.853,39.423,120.476,157.220,181.400,221.940
250,77451.169000,217.674,26.102,145.408,353.747,31.256,124.281,82.220,96.400,206.940
251,77451.206000,225.536,23.090,134.144,352.801,31.243,124.279,12.220,38.400,132.940
252,77451.247000,224.553,17.067,132.096,352.802,31.263,125.274,104.220,-36.600,87.940
253,77451.290000,214.726,18.071,129.024,356.586,31.293,124.286,86.220,-74.600,43.940
254,77451.330000,222.587,16.063,123.904,354.595,23.959,125.121,130.220,-116.600,-15.060
255,77451.345000,221.605,20.078,117.760,355.600,28.513,123.231,104.220,-114.600,-30.060
256,77451.386000,200.967,37.145,106.496,356.470,23.009,122.120,136.220,-61.600,-75.060
257,77451.429000,220.622,39.153,98.304,359.362,26.750,124.193,111.220,-11.600,-41.060
258,77451.467000,202.933,45.176,71.680,356.582,30.475,129.242,158.220,-47.600,3.940
259,77451.509000,233.397,62.243,71.680,359.426,31.350,125.286,262.220,6.400,5.940
260,77451.546000,250.104,71.278,67.584,356.597,32.190,123.310,304.220,-53.600,-27.060
261,77451.579000,256.000,70.275,63.488,360.393,33.136,122.341,281.220,-165.600,19.940
262,77451.615000,262.879,57.224,41.984,359.456,34.001,120.369,243.220,-238.600,86.940
263,77451.649000,272.706,63.247,32.768,363.159,28.476,116.279,239.220,-247.600,117.940
264,77451.689000,275.655,63.247,35.840,366.013,30.229,110.352,265.220,-304.600,167.940
265,77451.726000,267.793,70.275,29.696,365.903,22.783,104.226,214.220,-371.600,169.940
266,77451.770000,269.758,68.267,28.672,362.069,19.848,97.195,136.220,-412.600,152.940
267,77451.806000,272.706,71.278,38.912,368.767,26.192,89.383,-18.780,-366.600,124.940
268,77451.827000,299.240,64.251,67.584,369.671,23.398,86.341,-211.780,-242.600,102.940
269,77451.867000,249.121,59.231,83.968,370.571,20.564,81.309,-287.780,-213.600,74.940
270,77451.912000,202.933,42.165,82.944,372.438,19.517,73.332,-521.780,-209.600,89.940
271,77451.946000,200.967,19.075,87.040,368.459,5.647,69.053,-603.780,-133.600,108.940
272,77451.985000,203.916,20.078,95.232,367.609,12.924,67.217,-566.780,-46.600,126.940
273,77452.30000,210.795,15.059,101.376,368.538,11.962,64.214,-528.780,-6.600,134.940
274,77452.50000,223.570,9.035,103.424,369.354,2.755,61.035,-419.780,-7.600,138.940
275,77452.86000,230.449,5.020,90.112,369.409,6.478,64.098,-268.780,-80.600,130.940
276,77452.125000,221.605,1.004,83.968,371.203,-0.047,57.000,-221.780,-74.600,124.940
277,77452.165000,219.639,1.004,84.992,370.194,-4.640,56.901,-153.780,-96.600,133.940
278,77452.206000,218.656,2.008,88.064,368.349,-1.020,55.980,-116.780,-74.600,137.940
279,77452.246000,229.466,-3.012,108.544,369.274,-2.801,57.933,-25.780,48.400,161.940
280,77452.289000,223.570,-5.020,105.472,369.140,-12.839,59.708,201.220,44.400,220.940
281,77452.305000,265.827,-6.024,96.256,368.178,-13.807,57.697,229.220,63.400,287.940
282,77452.350000,249.121,-6.024,95.232,369.975,-21.052,60.529,241.220,75.400,211.940
283,77452.385000,247.155,7.027,74.752,365.263,-20.121,64.521,293.220,-32.600,109.940
284,77452.425000,203.916,27.106,62.464,369.102,-16.367,66.596,266.220,-91.600,-7.060
285,77452.467000,191.140,12.047,70.656,368.124,-18.290,62.575,107.220,-126.600,-82.060
286,77452.507000,219.639,29.114,69.632,364.437,-11.030,61.729,45.220,-77.600,-224.060
287,77452.526000,235.363,53.208,78.848,369.243,-5.471,61.855,30.220,-74.600,-333.060
288,77452.567000,230.449,55.216,87.040,369.313,-0.033,58.987,-165.780,-159.600,-495.060
289,77452.607000,236.345,55.216,71.680,370.319,4.521,57.096,-331.780,-270.600,-533.060
290,77452.649000,237.328,48.188,68.608,372.351,15.423,51.363,-461.780,-250.600,-466.060
291,77452.687000,245.190,45.176,81.920,371.409,16.229,46.405,-658.780,-163.600,-374.060
292,77452.727000,247.155,49.192,84.992,375.200,17.117,42.451,-576.780,-155.600,-295.060
293,77452.747000,247.155,45.176,86.016,372.497,27.138,41.666,-575.780,-177.600,-199.060
294,77452.787000,234.380,44.173,80.896,376.217,22.568,39.585,-504.780,-177.600,-182.060
295,77452.827000,246.173,54.212,66.560,375.326,27.058,35.701,-383.780,-191.600,-176.060
296,77452.867000,252.069,46.180,63.488,379.155,30.694,31.805,-304.780,-103.600,-109.060
297,77452.909000,238.311,54.212,70.656,373.388,24.187,30.664,-191.780,21.400,-103.060
298,77452.949000,230.449,54.212,65.536,377.250,29.753,31.782,-69.780,39.400,-16.060
299,77452.989000,221.605,40.157,47.104,378.249,33.469,33.852,83.220,128.400,14.940
300,77453.9000,257.965,48.188,27.648,378.181,28.051,37.715,185.220,220.400,28.940
301,77453.49000,222.587,18.071,28.672,378.166,26.335,43.647,304.220,325.400,142.940
302,77453.87000,242.242,25.098,53.248,380.888,17.309,48.432,332.220,460.400,190.940
303,77453.129000,262.879,32.125,51.200,379.982,19.305,57.425,567.220,334.400,212.940
304,77453.169000,271.724,27.106,49.152,377.121,17.474,59.371,468.220,119.400,192.940
305,77453.209000,280.568,20.078,46.080,377.000,8.352,61.166,314.220,54.400,151.940
306,77453.227000,290.395,8.031,38.912,378.892,8.377,61.169,237.220,-46.600,175.940
307,77453.267000,284.499,5.020,36.864,379.771,3.750,58.088,196.220,-111.600,210.940
308,77453.307000,265.827,7.027,32.768,378.821,3.698,56.096,242.220,-233.600,234.940
309,77453.349000,254.035,7.027,37.888,377.922,7.311,54.182,174.220,-280.600,243.940
310,77453.389000,296.292,0.000,46.080,379.717,0.806,48.079,199.220,-236.600,248.940
311,77453.429000,294.326,13.051,44.032,375.884,-2.109,42.043,210.220,-366.600,185.940
312,77453.469000,196.054,21.082,56.320,377.783,-1.246,38.086,390.220,-187.600,186.940
313,77453.489000,225.536,13.051,57.344,372.949,-8.657,36.926,477.220,-141.600,112.940
314,77453.530000,224.553,59.231,47.104,376.710,-10.439,36.894,516.220,-70.600,-28.060
315,77453.576000,244.207,55.216,63.488,375.938,2.374,37.166,456.220,56.400,-122.060
316,77453.609000,237.328,55.216,56.320,374.949,-1.225,41.066,499.220,-42.600,-172.060
317,77453.655000,234.380,51.200,48.128,374.169,11.491,36.362,354.220,-149.600,-126.060
318,77453.686000,230.449,51.200,32.768,372.287,12.362,35.383,180.220,-70.600,-138.060
319,77453.707000,222.587,58.227,36.864,374.237,16.909,32.499,67.220,-106.600,-122.060
320,77453.749000,231.432,68.267,49.152,373.279,15.981,32.478,-84.780,-76.600,-152.060
321,77453.787000,232.415,87.341,65.536,375.291,25.109,29.691,-185.780,-32.600,-210.060
322,77453.827000,265.827,82.322,43.008,373.254,14.928,25.493,-360.780,-181.600,-195.060
323,77453.867000,252.069,72.282,38.912,374.387,28.663,24.792,-496.780,-93.600,-158.060
324,77453.907000,227.501,58.227,55.296,374.380,28.585,20.812,-648.780,-51.600,-95.060
325,77453.947000,221.605,34.133,51.200,374.342,25.837,20.754,-651.780,-15.600,61.940
326,77453.971000,222.587,43.169,51.200,375.303,26.785,21.770,-646.780,43.400,107.940
327,77454.10000,225.536,41.161,55.296,374.253,19.404,19.622,-579.780,101.400,157.940
328,77454.50000,253.052,44.173,66.560,372.405,22.206,23.657,-505.780,176.400,182.940
329,77454.92000,261.896,33.129,73.728,374.227,16.792,26.529,-522.780,187.400,217.940
330,77454.127000,256.983,30.118,75.776,375.086,10.392,26.394,-460.780,66.400,267.940
331,77454.169000,243.225,7.027,60.416,374.013,1.199,25.202,-496.780,25.400,311.940
332,77454.190000,260.914,-23.090,62.464,376.710,-8.900,22.007,-495.780,24.400,316.940
333,77454.231000,225.536,-4.016,78.848,376.688,-10.693,23.958,-481.780,-7.600,158.940
334,77454.270000,237.328,-15.059,97.280,375.815,-5.228,23.079,-354.780,51.400,119.940
335,77454.309000,229.466,-19.075,93.184,376.738,-7.029,24.036,-245.780,-33.600,39.940
336,77454.347000,234.380,-19.075,92.160,375.692,-14.370,23.879,-143.780,3.400,-3.060
337,77454.390000,232.415,-23.090,88.064,376.663,-12.525,23.919,30.220,-44.600,-41.060
338,77454.430000,232.415,-18.071,71.680,379.497,-12.547,20.939,242.220,-117.600,-53.060
339,77454.469000,233.397,-19.075,69.632,375.747,-9.868,19.996,319.220,-85.600,-50.060
340,77454.490000,237.328,-14.055,63.488,379.513,-11.591,22.949,493.220,-88.600,-48.060
341,77454.530000,240.276,-8.031,53.248,380.516,-7.836,27.009,689.220,12.400,-16.060
342,77454.571000,240.276,-2.008,54.272,374.774,-12.511,25.906,810.220,36.400,-65.060
343,77454.610000,247.155,12.047,32.768,378.610,-9.557,33.932,842.220,131.400,-12.060
344,77454.650000,249.121,25.098,21.504,375.737,-12.304,35.858,770.220,190.400,-84.060
345,77454.667000,242.242,60.235,19.456,377.777,-2.084,42.047,726.220,180.400,-129.060
346,77454.712000,270.741,64.251,3.072,381.583,-1.020,47.048,587.220,56.400,-99.060
347,77454.751000,281.551,48.188,-4.096,379.614,-6.562,45.933,457.220,-28.600,-20.060
348,77454.787000,300.223,50.196,-10.240,374.891,-5.747,43.954,332.220,-120.600,87.940
349,77454.830000,302.188,52.204,-10.240,375.887,-2.070,44.033,169.220,-156.600,118.940
350,77454.867000,269.758,46.180,2.048,378.640,-7.666,36.956,184.220,-223.600,168.940
351,77454.887000,261.896,48.188,5.120,376.715,-9.601,32.933,117.220,-393.600,173.940
352,77454.927000,297.274,34.133,8.192,377.700,-6.061,26.048,108.220,-322.600,181.940
353,77454.967000,242.242,38.149,47.104,376.581,-18.100,19.822,4.220,-312.600,184.940
354,77455.11000,239.294,42.165,50.176,378.533,-13.534,17.933,-142.780,-188.600,137.940
355,77455.50000,221.605,28.110,47.104,375.643,-16.476,9.909,-361.780,-222.600,122.940
356,77455.90000,219.639,16.063,50.176,375.577,-21.095,7.821,-500.780,-55.600,102.940
357,77455.135000,231.432,2.008,54.272,374.710,-14.793,2.981,-618.780,20.400,124.940
358,77455.150000,238.311,-12.047,54.272,377.428,-23.877,4.781,-499.780,-14.600,146.940
359,77455.190000,242.242,-2.008,41.984,374.571,-24.890,1.771,-235.780,-16.600,145.940
360,77455.234000,237.328,-2.008,40.960,374.567,-25.708,6.727,-184.780,-43.600,118.940
361,77455.270000,238.311,-2.008,48.128,374.532,-27.657,0.717,-148.780,-2.600,119.940
362,77455.310000,235.363,-3.012,53.248,371.654,-30.463,-0.341,-62.780,-39.600,125.940
363,77455.351000,239.294,-6.024,60.416,373.559,-29.522,-0.318,4.220,-28.600,166.940
364,77455.370000,250.104,-19.075,48.128,368.729,-36.894,0.512,58.220,36.400,220.940
365,77455.410000,281.551,-19.075,54.272,373.347,-45.096,-0.650,108.220,71.400,230.940
366,77455.451000,235.363,0.000,48.128,372.469,-40.450,3.426,28.220,41.400,99.940
367,77455.492000,234.380,13.051,53.248,373.382,-43.147,5.359,108.220,-10.600,-38.060
368,77455.534000,212.760,15.059,49.152,368.777,-34.028,6.541,-0.780,-1.600,-103.060
369,77455.569000,228.484,-1.004,39.936,372.485,-39.495,5.436,-84.780,-42.600,-176.060
370,77455.610000,250.104,20.078,38.912,371.712,-26.701,4.712,-143.780,24.400,-273.060
371,77455.630000,253.052,19.075,53.248,373.667,-22.095,4.813,-241.780,28.400,-306.060
372,77455.675000,238.311,18.071,40.960,373.702,-19.386,2.881,-295.780,-177.600,-326.060
373,77455.714000,244.207,29.114,23.552,372.786,-16.728,-1.042,-409.780,-220.600,-353.060
374,77455.752000,281.551,30.118,16.384,375.729,-8.543,-5.837,-342.780,-110.600,-372.060
375,77455.792000,193.106,25.098,45.056,372.935,-4.974,-8.749,-255.780,-120.600,-236.060
376,77455.832000,255.017,44.173,45.056,374.912,1.425,-10.599,-467.780,-106.600,-263.060
377,77455.854000,241.259,33.129,47.104,376.867,6.030,-10.498,-472.780,-10.600,-166.060
378,77455.890000,239.294,37.145,53.248,375.880,3.230,-12.548,-477.780,8.400,-174.060
379,77455.930000,247.155,45.176,44.032,377.871,10.565,-13.384,-415.780,-84.600,-230.060
380,77455.970000,253.052,42.165,38.912,377.841,8.674,-16.408,-378.780,-87.600,-221.060
381,77456.10000,265.827,53.208,35.840,372.224,13.160,-17.315,-351.780,-39.600,-188.060
382,77456.50000,251.086,49.192,32.768,380.853,21.518,-17.125,-377.780,-40.600,-123.060
383,77456.99000,240.276,42.165,28.672,378.950,20.596,-16.153,-209.780,58.400,-81.060
384,77456.111000,228.484,44.173,30.720,378.941,19.719,-14.182,-36.780,177.400,-26.060
385,77456.151000,264.845,43.169,12.288,380.917,25.339,-9.086,62.220,269.400,-7.060
386,77456.191000,249.121,30.118,9.216,377.961,16.237,-4.311,192.220,322.400,101.940
387,77456.231000,256.000,16.063,21.504,384.572,14.629,2.627,352.220,478.400,189.940
388,77456.274000,254.035,12.047,23.552,384.539,11.939,5.553,441.220,356.400,230.940
389,77456.314000,269.758,6.024,23.552,381.614,4.729,13.353,353.220,222.400,208.940
390,77456.334000,278.603,-6.024,18.432,381.631,5.704,16.357,272.220,19.400,145.940
391,77456.374000,274.672,-3.012,5.120,382.485,-0.755,13.237,289.220,-108.600,136.940
392,77456.414000,258.948,-5.020,11.264,379.616,-2.684,10.208,300.220,-171.600,169.940
393,77456.454000,257.965,-3.012,14.336,383.410,-1.757,8.244,390.220,-203.600,186.940
394,77456.494000,268.775,7.027,24.576,378.630,-4.704,1.212,380.220,-283.600,188.940
395,77456.541000,293.344,4.016,21.504,378.566,-9.304,0.119,375.220,-248.600,172.940
396,77456.574000,214.726,28.110,18.432,378.520,-12.150,-4.915,422.220,-379.600,95.940
397,77456.594000,230.449,25.098,27.648,377.545,-14.034,-6.945,495.220,-121.600,37.940
398,77456.635000,236.345,47.184,26.624,375.638,-14.995,-7.963,468.220,-85.600,-54.060
399,77456.675000,247.155,51.200,25.600,376.763,-2.117,-5.698,409.220,9.400,-91.060
400,77456.710000,232.415,44.173,36.864,377.615,-8.596,-9.813,398.220,-30.600,-156.060
401,77456.757000,231.432,40.157,24.576,381.566,3.403,-7.563,297.220,-157.600,-191.060
402,77456.792000,230.449,50.196,12.288,377.760,2.339,-12.564,179.220,-121.600,-183.060
403,77456.812000,227.501,49.192,18.432,375.986,11.397,-16.353,-1.780,-98.600,-189.060
404,77456.854000,224.553,71.278,40.960,375.977,10.520,-14.382,-204.780,-10.600,-236.060
405,77456.895000,227.501,78.306,41.984,375.155,19.669,-14.189,-266.780,3.400,-262.060
406,77456.930000,296.292,65.255,13.312,374.165,16.830,-18.229,-409.780,-123.600,-225.060
407,77456.970000,228.484,59.231,38.912,375.308,31.462,-19.905,-463.780,68.400,-115.060
408,77457.17000,238.311,23.090,55.296,376.125,21.494,-15.143,-505.780,134.400,87.940
409,77457.35000,225.536,31.122,54.272,376.166,24.282,-13.094,-351.780,172.400,167.940
410,77457.76000,229.466,41.161,53.248,378.089,26.198,-10.067,-223.780,206.400,210.940
411,77457.110000,251.086,33.129,49.152,376.981,14.295,-9.327,-167.780,225.400,267.940
412,77457.150000,250.104,29.114,47.104,376.997,15.250,-7.318,-239.780,178.400,335.940
413,77457.190000,249.121,22.086,50.176,376.834,2.561,-0.625,-292.780,211.400,358.940
414,77457.230000,229.466,9.035,65.536,376.795,-0.207,-1.679,-285.780,167.400,493.940
415,77457.271000,242.242,-28.110,56.320,373.795,-12.135,-0.943,-193.780,15.400,563.940
416,77457.291000,227.501,-29.114,66.560,375.553,-22.148,0.836,-144.780,-2.600,489.940
417,77457.330000,255.017,-23.090,75.776,373.523,-32.251,0.618,7.220,132.400,330.940
418,77457.375000,250.104,-26.102,79.872,373.487,-34.980,1.555,57.220,7.400,224.940
419,77457.414000,242.242,-31.122,76.800,374.440,-34.889,5.537,84.220,-43.600,77.940
420,77457.454000,248.138,-26.102,58.368,373.426,-39.541,2.452,207.220,-94.600,-4.060
421,77457.494000,252.069,-33.129,56.320,377.219,-38.633,-0.507,280.220,-76.600,-28.060
422,77457.514000,239.294,-27.106,56.320,373.494,-34.901,5.535,322.220,-73.600,-118.060
423,77457.552000,246.173,-27.106,51.200,374.462,-33.096,3.585,387.220,-41.600,-130.060
424,77457.590000,243.225,-25.098,50.176,378.241,-33.884,7.553,437.220,-16.600,-131.060
425,77457.641000,235.363,-10.039,45.056,379.264,-28.355,8.667,453.220,34.400,-175.060
426,77457.671000,236.345,2.008,19.456,377.369,-29.179,14.614,537.220,131.400,-176.060
427,77457.712000,257.965,15.059,10.240,379.294,-27.244,18.637,374.220,205.400,-197.060
428,77457.755000,247.155,22.086,8.192,375.562,-24.350,28.639,406.220,188.400,-186.060
429,77457.775000,265.827,47.184,13.312,375.678,-16.066,30.805,461.220,187.400,-210.060
430,77457.812000,266.810,35.137,8.192,376.645,-15.040,35.801,383.220,59.400,-78.060
431,77457.852000,283.516,38.149,-10.240,379.459,-16.834,35.767,367.220,-61.600,-82.060
432,77457.891000,285.482,55.216,-21.504,380.477,-11.364,33.896,324.220,-134.600,-71.060
433,77457.935000,270.741,59.231,-26.624,378.530,-15.112,30.829,233.220,-320.600,-23.060
434,77457.971000,255.017,45.176,-26.624,376.670,-11.668,20.954,119.220,-405.600,56.940
435,77457.996000,270.741,50.196,-13.312,375.730,-10.842,16.991,-63.780,-386.600,79.940
436,77458.35000,282.534,28.110,13.312,378.526,-12.852,6.012,-202.780,-415.600,182.940
437,77458.72000,269.758,38.149,28.672,372.749,-19.476,-1.100,-294.780,-320.600,134.940
438,77458.115000,244.207,30.118,35.840,377.533,-14.950,-6.965,-506.780,-230.600,154.940
439,77458.154000,233.397,9.035,36.864,377.434,-21.500,-14.067,-654.780,-202.600,97.940
440,77458.192000,232.415,0.000,44.032,373.631,-22.524,-17.078,-690.780,30.400,92.940
441,77458.232000,247.155,-7.027,52.224,372.695,-21.640,-18.055,-648.780,119.400,114.940
442,77458.255000,238.311,-7.027,49.152,374.630,-18.808,-15.008,-557.780,93.400,136.940
443,77458.292000,237.328,-2.008,43.008,372.739,-18.814,-14.017,-309.780,134.400,123.940
444,77458.334000,236.345,-10.039,43.008,371.676,-27.890,-9.238,-196.780,151.400,123.940
445,77458.372000,227.501,-6.024,47.104,373.644,-22.368,-9.118,-88.780,136.400,117.940
446,77458.411000,233.397,-14.055,70.656,369.853,-23.256,-5.164,49.220,269.400,144.940
447,77458.454000,233.397,-6.024,73.728,371.704,-26.798,-0.263,110.220,270.400,143.940
448,77458.474000,270.741,-22.086,50.176,368.802,-32.196,6.580,241.220,302.400,190.940
449,77458.514000,276.637,-19.075,69.632,368.757,-35.802,9.487,217.220,241.400,103.940
450,77458.554000,256.000,4.016,65.536,365.915,-36.639,15.433,248.220,313.400,6.940
451,77458.594000,246.173,10.039,76.800,368.805,-33.697,23.457,219.220,265.400,-138.060
452,77458.631000,216.691,20.078,81.920,367.969,-26.263,29.582,95.220,263.400,-212.060
453,77458.676000,210.795,20.078,78.848,367.043,-25.262,34.575,118.220,190.400,-257.060
454,77458.692000,220.622,36.141,66.560,370.009,-16.043,35.770,70.220,166.400,-297.060
455,77458.732000,228.484,36.141,66.560,371.886,-17.733,41.705,-65.780,145.400,-376.060
456,77458.774000,232.415,36.141,56.320,371.110,-4.979,38.991,-183.780,-212.600,-407.060
457,77458.814000,239.294,33.129,47.104,370.245,1.344,35.146,-246.780,-207.600,-409.060
458,77458.854000,227.501,43.169,46.080,375.025,5.831,27.291,-289.780,-289.600,-342.060
459,77458.894000,245.190,38.149,47.104,373.123,5.689,21.318,-522.780,-292.600,-256.060
460,77458.931000,256.983,37.145,58.368,375.068,10.177,15.448,-469.780,-299.600,-193.060
461,77458.952000,281.551,59.231,48.128,375.047,9.163,10.454,-486.780,-332.600,-195.060
462,77458.992000,282.534,61.239,41.984,376.065,14.634,8.582,-492.780,-334.600,-159.060
463,77459.35000,289.413,54.212,23.552,380.721,9.959,0.532,-589.780,-347.600,-158.060
464,77459.74000,274.672,43.169,27.648,380.803,16.314,-2.316,-543.780,-72.600,-80.060
465,77459.116000,253.052,36.141,41.984,377.911,12.573,-4.389,-403.780,87.400,-15.060
466,77459.157000,235.363,30.118,44.032,379.859,16.321,-1.323,-227.780,168.400,57.940
467,77459.176000,232.415,26.102,17.408,380.705,9.004,-1.477,-85.780,164.400,39.940
468,77459.214000,251.086,24.094,12.288,378.929,16.504,8.626,27.220,201.400,49.940
469,77459.256000,214.726,0.000,4.096,383.600,12.005,9.532,202.220,380.400,135.940
470,77459.294000,234.380,-1.004,21.504,379.690,2.034,17.271,318.220,402.400,155.940
471,77459.336000,262.879,9.035,22.528,381.620,4.027,24.279,455.220,279.400,165.940
472,77459.376000,269.758,4.016,29.696,382.568,4.059,25.276,456.220,176.400,133.940
473,77459.415000,289.413,6.024,21.504,379.660,-1.397,29.134,490.220,45.400,58.940
474,77459.441000,284.499,8.031,18.432,381.567,-0.436,30.152,464.220,-95.600,52.940
475,77459.472000,279.585,8.031,10.240,381.535,-2.346,26.132,414.220,-181.600,90.940
476,77459.522000,265.827,10.039,18.432,382.539,2.188,23.246,379.220,-213.600,126.940
477,77459.554000,266.810,13.051,26.624,379.684,1.195,21.232,390.220,-177.600,151.940
478,77459.607000,250.104,11.043,29.696,379.644,-1.592,19.183,381.220,-351.600,168.940
479,77459.632000,213.743,23.090,25.600,377.614,-10.915,12.019,517.220,-238.600,135.940
480,77459.656000,228.484,25.098,32.768,378.675,-2.638,13.192,591.220,-80.600,111.940
481,77459.694000,228.484,46.180,37.888,374.793,-9.978,15.019,639.220,22.400,22.940
482,77459.736000,253.052,58.227,49.152,373.898,-6.306,16.090,601.220,132.400,-50.060
483,77459.782000,230.449,50.196,58.368,375.916,2.880,16.289,520.220,42.400,-85.060
484,77459.821000,234.380,45.176,36.864,377.787,1.112,18.243,384.220,-30.600,-102.060
485,77459.856000,235.363,51.200,25.600,374.098,8.352,16.403,242.220,-29.600,-127.060
486,77459.894000,237.328,57.224,37.888,375.005,5.597,15.351,65.220,36.400,-145.060
487,77459.914000,231.432,65.255,49.152,375.060,9.320,18.414,-60.780,36.400,-187.060
488,77459.956000,223.570,81.318,61.440,373.302,19.333,16.635,-239.780,-12.600,-201.060
489,77459.994000,260.914,77.302,36.864,373.324,21.126,14.684,-558.780,-85.600,-217.060
490,77460.34000,260.914,60.235,35.840,371.467,23.830,13.744,-622.780,4.400,-162.060
491,77460.74000,234.380,34.133,63.488,376.147,20.209,12.679,-701.780,151.400,-25.060
492,77460.115000,235.363,28.110,71.680,372.324,17.410,12.614,-767.780,138.400,43.940
493,77460.134000,227.501,33.129,72.704,374.248,19.346,16.637,-568.780,141.400,118.940
494,77460.176000,228.484,35.137,65.536,376.157,20.326,18.650,-394.780,181.400,176.940
495,77460.214000,256.000,27.106,77.824,375.094,11.249,23.428,-268.780,219.400,269.940
496,77460.256000,259.931,33.129,73.728,374.135,10.321,23.407,-210.780,216.400,301.940
497,77460.295000,231.432,22.086,78.848,373.993,-0.575,28.148,-291.780,194.400,313.940
498,77460.342000,228.484,-16.063,67.584,371.999,-7.949,26.994,-212.780,24.400,400.940
499,77460.354000,264.845,-35.137,47.104,371.008,-11.567,29.899,-202.780,-40.600,441.940
500,77460.394000,244.207,-23.090,59.392,371.886,-16.194,26.818,-288.780,55.400,307.940
501,77460.437000,220.622,-10.039,96.256,369.913,-22.554,30.658,-215.780,234.400,185.940
502,77460.475000,235.363,-29.114,110.592,373.691,-23.361,33.631,-180.780,109.400,110.940
503,77460.515000,241.259,-27.106,103.424,374.548,-29.781,32.501,-135.780,39.400,21.940
504,77460.557000,243.225,-26.102,86.016,372.583,-35.264,34.370,89.220,-32.600,-10.060
505,77460.597000,234.380,-23.090,74.752,373.578,-31.607,33.455,218.220,-76.600,-26.060
506,77460.614000,238.311,-26.102,68.608,373.607,-29.735,35.484,287.220,-106.600,-26.060
507,77460.654000,239.294,-25.098,62.464,374.612,-25.181,33.593,375.220,-60.600,-35.060
508,77460.694000,238.311,-19.075,63.488,374.599,-26.097,33.574,473.220,-57.600,-48.060
509,77460.736000,219.639,-7.027,51.200,374.619,-25.103,37.573,518.220,-50.600,-76.060
510,77460.775000,218.656,-1.004,36.864,372.767,-22.341,39.619,565.220,-11.600,-101.060
511,77460.817000,256.000,-1.004,47.104,375.552,-26.786,44.501,498.220,189.400,-42.060
512,77460.834000,229.466,23.090,40.960,373.694,-24.862,50.507,439.220,183.400,-212.060
513,77460.876000,249.121,56.220,19.456,372.731,-26.609,55.442,581.220,88.400,-187.060
514,77460.914000,256.000,52.204,21.504,376.693,-13.714,56.717,446.220,54.400,-149.060
515,77460.954000,278.603,39.153,7.168,375.709,-16.475,56.657,371.220,-36.600,-51.060
516,77460.994000,299.240,36.141,-3.072,373.956,-6.403,57.863,406.220,-129.600,45.940
517,77461.36000,294.326,51.200,5.120,375.756,-12.849,54.745,409.220,-138.600,53.940
518,77461.76000,281.551,57.224,5.120,372.954,-10.138,54.798,296.220,-287.600,62.940
519,77461.95000,263.862,54.212,3.072,377.699,-8.380,47.880,125.220,-429.600,123.940
520,77461.135000,263.862,38.149,16.384,376.711,-10.420,37.889,-48.780,-442.600,85.940
521,77461.175000,289.413,37.145,29.696,374.805,-10.601,29.925,-58.780,-367.600,67.940
522,77461.215000,239.294,39.153,57.344,374.722,-16.195,24.833,-220.780,-313.600,42.940
523,77461.257000,220.622,25.098,41.984,377.408,-26.411,15.668,-303.780,-295.600,100.940
524,77461.294000,230.449,9.035,40.960,373.727,-18.313,10.861,-630.780,-150.600,102.940
525,77461.315000,235.363,1.004,47.104,376.497,-22.935,6.789,-644.780,-45.600,99.940
526,77461.355000,240.276,-5.020,60.416,376.505,-22.077,3.823,-591.780,-62.600,131.940
527,77461.394000,240.276,-4.016,48.128,372.777,-17.605,0.929,-407.780,-85.600,131.940
528,77461.435000,238.311,-2.008,39.936,373.590,-26.851,-4.240,-294.780,-73.600,132.940
529,77461.475000,227.501,-4.016,45.056,373.570,-28.625,-1.294,-212.780,-68.600,149.940
530,77461.517000,229.466,-7.027,55.296,367.939,-25.075,-3.216,-53.780,-22.600,170.940
531,77461.555000,239.294,-9.035,66.560,368.858,-26.914,-4.248,51.220,31.400,202.940
532,77461.576000,256.983,-24.094,51.200,368.753,-35.081,-0.444,115.220,23.400,276.940
533,77461.616000,274.672,-17.067,53.248,370.609,-37.785,0.496,90.220,46.400,216.940
534,77461.656000,258.948,-1.004,44.032,368.731,-36.874,1.507,88.220,88.400,105.940
535,77461.697000,235.363,3.012,39.936,369.615,-41.442,1.411,92.220,-87.600,-24.060
536,77461.735000,206.864,8.031,37.888,367.781,-36.926,-0.485,-31.780,-60.600,-92.060
537,77461.776000,218.656,1.004,33.792,371.541,-38.708,-0.517,-111.780,-47.600,-133.060
538,77461.795000,250.104,13.051,30.720,368.813,-30.520,-1.341,-213.780,-45.600,-231.060
539,77461.835000,254.035,20.078,49.152,372.597,-30.489,-2.330,-305.780,26.400,-311.060
540,77461.879000,242.242,17.067,48.128,373.677,-20.438,-4.103,-415.780,-155.600,-346.060
541,77461.919000,256.983,26.102,20.480,369.987,-13.218,-6.939,-401.780,-176.600,-360.060
542,77461.956000,236.345,19.075,34.816,371.036,-5.077,-12.732,-405.780,-150.600,-291.060
543,77461.995000,234.380,30.118,38.912,370.102,-4.174,-12.714,-471.780,-48.600,-282.060
544,77462.37000,243.225,32.125,43.008,376.793,1.313,-17.561,-434.780,-40.600,-273.060
545,77462.57000,253.052,33.129,53.248,371.159,4.064,-13.532,-389.780,48.400,-253.060
546,77462.95000,254.035,41.161,54.272,374.862,-2.240,-10.677,-413.780,-15.600,-271.060
547,77462.140000,260.914,43.169,47.104,374.072,9.579,-14.405,-352.780,-70.600,-247.060
548,77462.180000,262.879,46.180,35.840,376.918,10.474,-17.366,-183.780,-36.600,-195.060
549,77462.217000,258.948,49.192,38.912,374.088,11.314,-19.341,-143.780,1.400,-141.060
550,77462.255000,256.000,47.184,45.056,374.092,11.353,-17.351,-79.780,94.400,-87.060
551,77462.286000,241.259,47.184,39.936,377.957,16.958,-14.242,29.220,129.400,-60.060
552,77462.315000,233.397,44.173,28.672,377.016,17.004,-11.259,148.220,199.400,-24.060
553,77462.357000,266.810,40.157,11.264,379.943,22.695,-3.176,242.220,347.400,18.940
554,77462.395000,229.466,20.078,12.288,377.871,9.025,1.503,312.220,359.400,116.940
555,77462.435000,222.587,12.047,12.288,380.752,11.090,11.498,424.220,423.400,211.940
556,77462.477000,229.466,10.039,6.144,380.757,11.149,14.483,477.220,423.400,272.940
557,77462.496000,256.983,4.016,19.456,376.820,-0.674,21.188,356.220,331.400,262.940
558,77462.536000,277.620,-1.004,20.480,379.673,-0.481,29.153,260.220,134.400,172.940
559,77462.576000,292.361,-1.004,18.432,377.686,-6.997,25.033,264.220,-21.600,116.940
560,77462.624000,286.464,-12.047,14.336,380.611,-0.566,24.180,288.220,-122.600,107.940
561,77462.656000,267.793,-1.004,17.408,378.668,-4.255,24.098,326.220,-222.600,113.940
562,77462.696000,260.914,5.020,21.504,381.413,-10.709,19.986,303.220,-249.600,86.940
563,77462.739000,293.344,11.043,22.528,375.811,-4.507,13.148,289.220,-244.600,61.940
564,77462.765000,204.898,24.094,36.864,378.652,-3.671,7.202,258.220,-313.600,-28.060
565,77462.796000,212.760,26.102,26.624,372.014,-4.694,6.176,348.220,-187.600,-59.060
566,77462.836000,231.432,47.184,26.624,375.823,-2.831,5.226,410.220,-42.600,-112.060
567,77462.879000,252.069,48.188,30.720,374.992,5.440,7.390,346.220,48.400,-179.060
568,77462.919000,244.207,48.188,41.984,375.933,5.394,4.407,408.220,33.400,-193.060
569,77462.956000,238.311,55.216,39.936,372.250,12.693,5.551,299.220,19.400,-218.060
570,77462.992000,247.155,56.220,31.744,372.253,12.732,7.541,240.220,-10.600,-171.060
571,77463.16000,245.190,65.255,35.840,377.067,19.149,4.701,103.220,37.400,-167.060
572,77463.57000,222.587,82.322,64.512,375.240,23.744,6.786,-134.780,90.400,-203.060
573,77463.100000,247.155,86.337,38.912,374.280,22.795,5.769,-194.780,3.400,-197.060
574,77463.140000,268.775,71.278,37.888,371.536,30.028,2.935,-563.780,-11.600,-191.060
575,77463.177000,246.173,69.271,46.080,376.312,32.917,6.982,-568.780,33.400,-60.060
576,77463.217000,232.415,34.133,43.008,375.328,30.156,6.922,-577.780,50.400,110.940
577,77463.236000,224.553,29.114,57.344,376.254,28.395,9.870,-531.780,138.400,199.940
578,77463.276000,218.656,32.125,62.464,376.233,26.602,11.821,-436.780,185.400,265.940
579,77463.316000,240.276,25.098,65.536,374.152,12.835,11.525,-354.780,141.400,285.940
580,77463.357000,252.069,22.086,56.320,376.031,11.924,10.514,-217.780,127.400,322.940
581,77463.400000,251.086,18.071,57.344,376.882,4.666,13.344,-202.780,78.400,324.940
582,77463.444000,248.138,14.055,57.344,374.907,-1.713,16.190,-161.780,64.400,321.940
583,77463.460000,249.121,-10.039,67.584,376.721,-7.224,14.086,-188.780,0.400,344.940
584,77463.497000,263.862,-25.098,51.200,376.565,-18.296,9.871,-117.780,-164.600,322.940
585,77463.536000,226.518,-12.047,53.248,376.585,-16.522,6.925,-170.780,-129.600,161.940
586,77463.577000,241.259,-8.031,74.752,376.574,-17.418,7.901,-120.780,-22.600,100.940
587,77463.620000,238.311,-11.043,75.776,376.547,-19.270,6.867,-109.780,-83.600,39.940
588,77463.660000,240.276,-13.051,69.632,371.773,-22.140,3.815,-77.780,-95.600,-13.060
589,77463.697000,243.225,-14.055,51.200,375.521,-24.838,3.763,44.220,-124.600,-33.060
590,77463.719000,256.983,-15.059,50.176,372.691,-23.998,1.787,145.220,-89.600,-36.060
591,77463.756000,241.259,-14.055,49.152,375.596,-19.341,3.880,202.220,-109.600,-29.060
592,77463.805000,251.086,-13.051,49.152,377.498,-18.439,1.913,245.220,-67.600,-14.060
593,77463.836000,249.121,-19.075,47.104,378.331,-26.672,1.739,234.220,-11.600,-11.060
594,77463.880000,254.035,-9.035,40.960,375.560,-22.070,4.816,305.220,62.400,-28.060
595,77463.917000,254.035,-1.004,25.600,378.407,-21.935,9.797,320.220,210.400,-12.060
596,77463.938000,244.207,-7.027,19.456,371.831,-19.157,15.814,492.220,136.400,-43.060
597,77463.979000,226.518,21.082,16.384,374.685,-18.164,17.828,465.220,141.400,-124.060
598,77464.19000,248.138,44.173,14.336,376.645,-13.500,20.915,527.220,157.400,-180.060
599,77464.59000,261.896,40.157,12.288,373.831,-12.485,27.894,496.220,83.400,-98.060
600,77464.96000,267.793,37.145,9.216,376.659,-13.344,28.875,315.220,51.400,-46.060
601,77464.139000,271.724,54.212,4.096,373.828,-13.284,33.845,240.220,-2.600,-71.060
602,77464.160000,261.896,59.231,15.360,372.949,-7.897,28.985,215.220,-129.600,-47.060
603,77464.197000,266.810,56.220,18.432,377.675,-7.893,26.009,-37.780,-223.600,20.940
604,77464.237000,302.188,35.137,16.384,374.828,-8.028,21.028,-128.780,-124.600,47.940
605,77464.279000,229.466,36.141,48.128,375.785,-7.119,20.054,-162.780,-119.600,40.940
606,77464.319000,227.501,31.122,45.056,374.773,-11.751,17.965,-274.780,-87.600,157.940
607,77464.359000,231.432,1.004,44.032,373.695,-21.003,13.788,-308.780,-55.600,183.940
608,77464.401000,241.259,6.024,50.176,370.968,-12.796,13.959,-285.780,96.400,161.940
609,77464.417000,255.017,-5.020,63.488,373.772,-15.487,14.900,-352.780,57.400,158.940
610,77464.460000,246.173,1.004,56.320,370.858,-21.021,14.778,-197.780,19.400,83.940
611,77464.501000,234.380,-2.008,62.464,371.834,-19.118,17.804,-36.780,36.400,55.940
612,77464.541000,232.415,-1.004,57.344,370.813,-24.627,17.685,-2.780,-61.600,16.940
613,77464.580000,231.432,-1.004,58.368,368.970,-20.988,17.760,59.220,-34.600,45.940
614,77464.617000,223.570,-6.024,77.824,372.714,-23.725,15.718,-4.780,23.400,119.940
615,77464.647000,284.499,-21.082,46.080,372.630,-30.099,17.571,88.220,67.400,186.940
616,77464.681000,219.639,-5.020,55.296,368.875,-28.258,20.589,-2.780,8.400,-38.060
617,77464.722000,246.173,19.075,49.152,370.778,-28.116,26.563,94.220,-14.600,-106.060
618,77464.757000,225.536,27.106,49.152,368.938,-23.678,20.687,-5.780,-58.600,-194.060
619,77464.797000,231.432,18.071,51.200,371.898,-14.518,18.897,-250.780,-40.600,-226.060
620,77464.847000,246.173,23.090,46.080,372.871,-12.654,19.932,-285.780,-26.600,-256.060
621,77464.879000,245.190,20.078,49.152,368.152,-11.800,19.944,-305.780,-1.600,-254.060
622,77464.900000,249.121,26.102,47.104,371.939,-11.730,20.945,-305.780,-53.600,-270.060
623,77464.937000,246.173,29.114,37.888,370.136,-4.543,15.128,-284.780,-84.600,-285.060
624,77464.987000,241.259,45.176,40.960,372.975,-4.506,15.133,-331.780,-85.600,-339.060
625,77465.20000,245.190,57.224,33.792,375.040,8.306,13.419,-321.780,-73.600,-326.060
626,77465.61000,259.931,52.204,41.984,372.219,10.023,9.473,-404.780,-145.600,-253.060
627,77465.100000,234.380,43.169,63.488,373.245,15.590,12.577,-218.780,205.400,-149.060
628,77465.121000,230.449,42.165,62.464,374.107,9.229,14.432,-366.780,35.400,-61.060
629,77465.161000,245.190,44.173,73.728,377.000,12.970,16.505,-148.780,129.400,-70.060
630,77465.201000,252.069,58.227,56.320,375.187,18.500,19.604,-35.780,6.400,-115.060
631,77465.237000,248.138,53.208,39.936,378.059,21.228,16.683,-40.780,-52.600,-79.060
632,77465.280000,250.104,46.180,35.840,376.091,15.706,16.562,45.220,-22.600,-18.060
633,77465.317000,253.052,42.165,32.768,376.987,12.054,16.486,141.220,12.400,19.940
634,77465.357000,248.138,48.188,31.744,377.101,20.319,17.656,249.220,57.400,53.940
635,77465.377000,235.363,47.184,38.912,375.169,16.746,23.545,319.220,179.400,131.940
636,77465.421000,233.397,43.169,34.816,377.958,13.119,23.472,327.220,136.400,143.940
637,77465.459000,238.311,36.141,31.744,377.953,12.301,28.428,377.220,173.400,112.940
638,77465.501000,214.726,25.098,25.600,376.941,7.668,26.339,319.220,218.400,152.940
639,77465.541000,250.104,10.039,39.936,380.715,6.042,34.267,212.220,279.400,171.940
640,77465.581000,248.138,3.012,39.936,378.729,-1.234,38.088,120.220,196.400,146.940
641,77465.610000,271.724,7.027,40.960,379.719,1.605,42.128,21.220,127.400,114.940
642,77465.641000,286.464,-2.008,31.744,379.674,-1.241,37.094,-65.780,-46.600,75.940
643,77465.697000,285.482,-14.055,21.504,377.706,-6.762,36.974,-76.780,-175.600,91.940
644,77465.722000,272.706,-16.063,20.480,380.590,-3.119,34.072,-18.780,-257.600,120.940
645,77465.760000,275.655,-3.012,22.528,374.763,-13.408,26.882,-60.780,-245.600,140.940
646,77465.809000,273.689,11.043,45.056,374.706,-17.151,22.823,-57.780,-255.600,90.940
647,77465.839000,248.138,13.051,44.032,378.608,-8.037,18.050,-27.780,-338.600,61.940
648,77465.867000,211.777,26.102,32.768,378.526,-13.612,13.952,8.220,-249.600,-63.060
649,77465.901000,227.501,31.122,39.936,377.713,-3.605,11.180,3.220,-134.600,-123.060
650,77465.941000,250.104,46.180,44.032,375.865,-0.024,8.270,179.220,-52.600,-230.060
651,77465.994000,251.086,47.184,50.176,376.860,3.633,7.355,208.220,-71.600,-307.060
652,77466.23000,243.225,46.180,46.080,372.246,12.654,3.561,189.220,-79.600,-295.060
653,77466.59000,239.294,53.208,31.744,375.160,18.188,3.683,115.220,-114.600,-247.060
654,77466.80000,237.328,48.188,26.624,374.227,19.871,-3.245,34.220,-98.600,-193.060
655,77466.120000,232.415,64.251,44.032,374.232,19.930,-0.260,-24.780,-56.600,-178.060
656,77466.160000,216.691,81.318,66.560,375.225,23.568,-2.170,-69.780,19.400,-180.060
657,77466.200000,224.553,77.302,49.152,373.408,29.040,-2.056,-192.780,-100.600,-145.060
658,77466.238000,282.534,67.263,16.384,372.546,35.401,-3.911,-428.780,10.400,-159.060
659,77466.278000,234.380,44.173,53.248,375.324,30.877,-3.009,-476.780,30.400,-70.060
660,77466.304000,222.587,34.133,59.392,376.268,30.870,-4.002,-371.780,75.400,50.940
661,77466.338000,215.708,31.122,56.320,377.279,35.483,-2.908,-194.780,112.400,219.940
662,77466.380000,223.570,27.106,50.176,375.232,23.646,1.810,-36.780,153.400,301.940
663,77466.421000,231.432,27.106,53.248,374.252,20.924,3.740,68.220,281.400,354.940
664,77466.464000,258.948,32.125,64.512,377.956,14.639,7.590,61.220,260.400,370.940
665,77466.503000,246.173,23.090,63.488,376.785,-1.864,7.237,54.220,138.400,367.940
666,77466.542000,235.363,-10.039,70.656,376.791,-1.786,11.218,30.220,85.400,406.940
667,77466.561000,289.413,-31.122,51.200,376.760,-4.456,15.139,219.220,-15.600,443.940
668,77466.602000,223.570,-1.004,61.440,375.731,-10.063,10.045,122.220,-117.600,238.940
669,77466.644000,273.689,-1.004,79.872,378.491,-16.341,14.889,114.220,29.400,160.940
670,77466.680000,246.173,-3.012,81.920,372.714,-23.725,15.718,219.220,-21.600,70.940
671,77466.722000,249.121,-9.035,68.608,376.509,-22.798,13.754,267.220,-68.600,-12.060
672,77466.764000,244.207,-5.020,53.248,376.468,-25.586,11.705,350.220,-74.600,-20.060
673,77466.782000,242.242,-3.012,49.152,378.453,-19.089,14.830,315.220,-26.600,-20.060
674,77466.822000,235.363,-3.012,50.176,375.657,-16.320,17.869,263.220,54.400,-13.060
675,77466.860000,239.294,-1.004,48.128,375.599,-20.842,20.757,260.220,108.400,-1.060
676,77466.902000,227.501,-2.008,46.080,377.458,-23.526,22.692,208.220,171.400,11.940
677,77466.940000,221.605,-1.004,33.792,371.829,-20.716,29.706,312.220,241.400,43.940
678,77466.981000,231.432,14.055,23.552,375.647,-18.736,34.727,201.220,281.400,-6.060
679,77467.21000,237.328,28.110,15.360,373.707,-23.166,43.581,168.220,239.400,-86.060
680,77467.44000,270.741,40.157,8.192,373.739,-21.256,47.600,206.220,234.400,-121.060
681,77467.81000,280.568,41.161,30.720,371.911,-16.681,48.690,106.220,249.400,-113.060
682,77467.122000,286.464,38.149,23.552,376.663,-15.605,53.693,238.220,-52.600,-4.060
683,77467.163000,291.378,40.157,5.120,377.553,-19.335,49.636,272.220,-185.600,2.940
684,77467.200000,279.585,48.188,2.048,373.773,-18.547,45.669,264.220,-241.600,34.940
685,77467.240000,269.758,43.169,17.408,371.883,-17.773,39.715,148.220,-337.600,99.940
686,77467.267000,291.378,27.106,21.504,373.736,-19.755,30.723,129.220,-354.600,128.940
687,77467.302000,257.965,38.149,54.272,375.705,-14.214,31.839,-9.780,-262.600,95.940
688,77467.347000,239.294,36.141,54.272,372.806,-18.033,25.786,-157.780,-240.600,147.940
689,77467.381000,236.345,10.039,58.368,373.767,-16.306,19.856,-419.780,-142.600,127.940
690,77467.422000,236.345,3.012,60.416,372.691,-25.538,16.674,-467.780,9.400,84.940
691,77467.460000,239.294,-7.027,74.752,371.798,-21.847,18.740,-421.780,102.400,135.940
692,77467.482000,227.501,-9.035,67.584,374.621,-22.765,16.736,-252.780,56.400,130.940
693,77467.522000,225.536,-7.027,57.344,373.612,-27.358,16.637,-111.780,56.400,151.940
694,77467.560000,224.553,-11.043,61.440,366.934,-31.928,21.503,-63.780,100.400,144.940
695,77467.605000,228.484,-12.047,64.512,371.639,-33.718,20.477,-36.780,105.400,104.940
696,77467.642000,239.294,-15.059,71.680,371.635,-34.536,25.433,2.220,113.400,79.940
697,77467.681000,238.311,-12.047,74.752,368.835,-31.806,26.481,27.220,109.400,57.940
698,77467.725000,245.190,-22.086,61.440,371.702,-29.897,28.515,108.220,69.400,64.940
699,77467.741000,293.344,-27.106,58.368,367.895,-31.740,30.460,133.220,117.400,73.940
700,77467.785000,239.294,11.043,61.440,367.914,-30.746,34.460,124.220,110.400,-149.060
701,77467.824000,243.225,13.051,62.464,367.993,-25.210,36.567,166.220,110.400,-189.060
702,77467.862000,225.536,22.086,73.728,365.127,-27.099,35.528,111.220,88.400,-243.060
703,77467.900000,219.639,19.075,56.320,370.944,-16.927,36.747,-124.780,20.400,-280.060
704,77467.940000,232.415,31.122,53.248,365.300,-15.073,41.752,-207.780,67.400,-341.060
705,77467.965000,243.225,35.137,70.656,367.353,-3.157,41.014,-255.780,97.400,-371.060
706,77468.4000,237.328,48.188,67.584,366.399,-4.027,43.978,-320.780,26.400,-383.060
707,77468.45000,235.363,49.192,64.512,370.417,13.371,41.370,-401.780,-27.600,-378.060
708,77468.82000,223.570,55.216,58.368,366.605,11.469,40.329,-492.780,-76.600,-382.060
709,77468.122000,256.983,46.180,68.608,371.407,16.969,37.469,-522.780,-41.600,-386.060
710,77468.164000,243.225,64.251,101.376,367.687,21.539,39.550,-375.780,191.400,-321.060
711,77468.202000,236.345,52.204,82.944,372.506,28.015,39.695,-536.780,-70.600,-249.060
712,77468.221000,245.190,45.176,78.848,371.532,26.131,37.665,-537.780,-24.600,-217.060
713,77468.267000,244.207,46.180,78.848,372.392,19.750,38.525,-517.780,-70.600,-217.060
714,77468.304000,244.207,47.184,72.704,374.430,30.710,35.777,-477.780,-128.600,-211.060
715,77468.341000,248.138,47.184,65.536,372.529,30.587,30.798,-376.780,-98.600,-202.060
716,77468.384000,254.035,44.173,68.608,374.491,35.271,34.880,-183.780,22.400,-153.060
717,77468.421000,243.225,51.200,65.536,375.417,33.510,37.827,-37.780,69.400,-94.060
718,77468.442000,219.639,50.196,57.344,375.389,31.639,35.798,105.220,152.400,-41.060
719,77468.485000,207.846,48.188,44.032,373.534,33.602,43.794,162.220,270.400,8.940
720,77468.525000,242.242,44.173,38.912,371.691,36.462,50.815,171.220,320.400,49.940
721,77468.564000,247.155,28.110,41.984,376.329,29.274,54.647,225.220,455.400,133.940
722,77468.604000,250.104,21.082,45.056,374.498,33.050,61.688,252.220,461.400,149.940
723,77468.641000,264.845,30.118,55.296,377.299,29.559,68.580,307.220,440.400,131.940
724,77468.685000,265.827,21.082,60.416,372.545,26.924,77.469,303.220,276.400,109.940
725,77468.701000,268.775,21.082,43.008,372.607,31.505,77.566,293.220,96.400,83.940
726,77468.741000,270.741,21.082,39.936,370.602,23.234,77.387,226.220,30.400,88.940
727,77468.781000,260.914,14.055,47.104,373.494,26.976,79.460,300.220,3.400,116.940
728,77468.822000,268.775,18.071,60.416,372.515,25.033,74.444,275.220,-68.600,114.940
729,77468.864000,274.672,26.102,77.824,371.565,24.982,72.453,329.220,-74.600,49.940
730,77468.901000,244.207,40.157,77.824,369.778,32.344,75.590,483.220,-124.600,4.940
731,77468.922000,208.829,58.227,78.848,368.789,29.525,72.545,529.220,-66.600,-52.060
732,77468.961000,207.846,56.220,78.848,367.944,36.861,73.695,524.220,-11.600,-23.060
733,77469.3000,207.846,63.247,80.896,367.955,37.757,72.719,478.220,50.400,-36.060
734,77469.41000,235.363,70.275,86.016,365.254,47.797,72.929,430.220,71.400,-75.060
735,77469.81000,221.605,64.251,83.968,366.175,45.978,72.891,425.220,30.400,-38.060
736,77469.126000,220.622,68.267,73.728,363.418,52.295,70.038,351.220,10.400,-21.060
737,77469.161000,223.570,73.286,71.680,361.452,46.792,70.912,276.220,-0.600,13.940
738,77469.182000,219.639,84.329,75.776,364.381,53.262,72.049,225.220,-47.600,12.940
739,77469.222000,219.639,92.361,86.016,367.252,55.990,69.128,105.220,24.400,-69.060
740,77469.265000,205.881,101.396,91.136,364.336,50.436,68.010,-78.780,-104.600,-89.060
741,77469.305000,239.294,85.333,66.560,366.226,50.422,66.024,-262.780,-219.600,-89.060
742,77469.342000,234.380,76.298,69.632,367.187,52.149,60.094,-313.780,-124.600,-92.060
743,77469.385000,209.812,59.231,79.872,364.421,57.589,59.211,-365.780,-112.600,8.940
744,77469.403000,211.777,46.180,94.208,369.035,49.348,56.059,-447.780,-13.600,111.940
745,77469.442000,205.881,45.176,103.424,366.259,53.891,56.151,-282.780,33.400,185.940
746,77469.485000,221.605,47.184,114.688,368.082,48.478,59.023,-204.780,43.400,252.940
747,77469.525000,235.363,40.157,118.784,370.783,38.438,58.813,-93.780,-23.600,348.940
748,77469.566000,238.311,40.157,112.640,373.384,21.069,58.447,-2.780,-136.600,353.940
749,77469.604000,216.691,34.133,96.256,375.296,23.628,47.563,-23.780,-327.600,382.940
750,77469.642000,224.553,17.067,86.016,375.218,18.092,45.456,-80.780,-465.600,396.940
751,77469.665000,236.345,11.043,74.752,373.992,-1.355,35.094,-149.780,-503.600,380.940
752,77469.707000,224.553,6.024,79.872,376.879,3.088,26.241,-158.780,-416.600,361.940
753,77469.742000,248.138,-15.059,67.584,377.649,-8.966,18.029,-25.780,-450.600,295.940
754,77469.782000,260.914,-14.055,56.320,376.570,-18.237,12.857,103.220,-413.600,247.940
755,77469.846000,260.914,-15.059,43.008,377.581,-12.845,7.005,278.220,-343.600,172.940
756,77469.862000,256.983,-5.020,37.888,379.379,-19.311,2.891,313.220,-267.600,112.940
757,77469.885000,254.035,-4.016,41.984,376.555,-18.413,3.901,298.220,-132.600,44.940
758,77469.925000,246.173,3.012,52.224,377.515,-17.464,4.917,305.220,-62.600,-24.060
759,77469.966000,251.086,4.016,43.008,380.322,-20.117,7.849,251.220,-16.600,-60.060
760,77470.2000,231.432,7.027,29.696,379.333,-22.936,4.803,184.220,27.400,-85.060
761,77470.45000,253.052,4.016,15.360,381.298,-18.213,10.875,111.220,110.400,-75.060
762,77470.84000,220.622,15.059,1.024,378.401,-22.773,13.757,60.220,173.400,-141.060
763,77470.102000,238.311,32.125,-11.264,375.675,-14.565,13.928,70.220,-45.600,-100.060
764,77470.142000,235.363,48.188,-8.192,383.190,-18.968,17.824,92.220,15.400,-90.060
765,77470.186000,263.862,38.149,-5.120,379.335,-23.677,13.739,50.220,-13.600,43.940
766,77470.225000,265.827,14.055,-11.264,380.357,-18.167,13.858,124.220,-197.600,174.940
767,77470.265000,300.223,15.059,-36.864,375.529,-24.740,8.738,138.220,-283.600,239.940
768,77470.307000,287.447,24.094,-25.600,377.387,-26.665,2.732,220.220,-347.600,239.940
769,77470.345000,273.689,36.141,-3.072,377.334,-29.589,-6.282,43.220,-488.600,166.940
770,77470.365000,264.845,31.122,0.000,378.286,-28.738,-10.241,-24.780,-475.600,212.940
771,77470.405000,265.827,14.055,-10.240,379.947,-44.522,-22.510,-224.780,-457.600,192.940
772,77470.442000,280.568,5.020,-9.216,375.322,-35.638,-33.269,-233.780,-475.600,192.940
773,77470.482000,253.052,13.051,13.312,374.235,-44.987,-42.421,-296.780,-400.600,145.940
774,77470.523000,243.225,-3.012,5.120,370.424,-46.109,-50.408,-445.780,-362.600,166.940
775,77470.566000,224.553,-8.031,13.312,370.400,-47.162,-57.393,-507.780,-268.600,140.940
776,77470.582000,232.415,-15.059,16.384,370.420,-45.388,-60.339,-455.780,-97.600,107.940
777,77470.624000,250.104,-23.090,19.456,371.440,-39.899,-61.215,-476.780,30.400,78.940
778,77470.666000,244.207,-10.039,15.360,365.807,-36.368,-64.132,-413.780,49.400,4.940
779,77470.703000,245.190,-10.039,18.432,365.801,-37.206,-60.172,-169.780,65.400,15.940
780,77470.746000,243.225,-13.051,14.336,367.710,-36.226,-58.159,-187.780,73.400,-34.060
781,77470.783000,241.259,-11.043,31.744,370.597,-32.543,-59.071,-88.780,146.400,-27.060
782,77470.825000,243.225,-16.063,41.984,368.638,-37.967,-54.216,19.220,342.400,38.940
783,77470.844000,244.207,-24.094,40.960,368.740,-31.379,-45.124,251.220,309.400,104.940
784,77470.886000,274.672,-33.129,17.408,368.597,-42.294,-41.378,317.220,88.400,74.940
785,77470.941000,248.138,0.000,17.408,369.625,-36.707,-37.279,338.220,207.400,-42.060
786,77470.964000,243.225,16.063,22.528,368.719,-33.932,-35.232,333.220,55.400,-120.060
787,77471.6000,206.864,16.063,39.936,369.633,-36.609,-32.303,242.220,87.400,-135.060
788,77471.60000,244.207,19.075,21.504,369.773,-27.272,-23.153,150.220,59.400,-156.060
789,77471.66000,254.035,28.110,29.696,368.784,-30.092,-26.198,81.220,106.400,-197.060
790,77471.116000,234.380,40.157,45.056,372.685,-21.757,-24.026,-180.780,35.400,-265.060
791,77471.145000,283.516,41.161,20.480,368.952,-18.123,-22.959,-351.780,31.400,-377.060
792,77471.185000,198.019,30.118,48.128,373.719,-15.332,-23.887,-296.780,116.400,-341.060
793,77471.227000,257.965,40.157,46.080,372.848,-9.848,-23.772,-421.780,130.400,-320.060
794,77471.265000,250.104,32.125,35.840,375.762,-4.313,-23.650,-421.780,41.400,-269.060
795,77471.286000,254.035,28.110,23.552,377.699,-0.682,-26.554,-393.780,-51.600,-165.060
796,77471.323000,251.086,27.106,6.144,376.842,5.738,-25.424,-369.780,-93.600,-174.060
797,77471.365000,257.965,33.129,3.072,372.023,-0.738,-25.569,-323.780,-21.600,-184.060
798,77471.403000,270.741,38.149,11.264,377.787,5.730,-26.417,-188.780,-2.600,-190.060
799,77471.444000,266.810,49.192,19.456,376.983,15.854,-23.219,-2.780,78.400,-192.060
800,77471.483000,246.173,49.192,28.672,377.909,14.093,-20.271,95.220,163.400,-168.060
801,77471.525000,238.311,43.169,16.384,376.086,18.727,-16.197,222.220,352.400,-98.060
802,77471.543000,231.432,46.180,28.672,375.994,11.495,-11.377,178.220,400.400,-87.060
803,77471.583000,266.810,43.169,-3.072,377.031,17.180,-2.303,311.220,507.400,20.940
804,77471.639000,229.466,21.082,10.240,381.607,4.651,9.373,406.220,575.400,94.940
805,77471.666000,233.397,12.047,16.384,378.874,11.241,20.450,315.220,512.400,218.940
806,77471.704000,251.086,15.059,29.696,380.689,4.970,26.287,182.220,400.400,197.940
807,77471.755000,259.931,16.063,32.768,377.826,2.340,34.184,36.220,283.400,157.940
808,77471.767000,268.775,15.059,29.696,380.665,2.378,34.189,-77.780,15.400,85.940
809,77471.805000,285.482,2.008,17.408,380.574,-4.074,32.062,-147.780,-118.600,107.940
810,77471.847000,274.672,-4.016,19.456,376.750,-6.892,31.002,-119.780,-173.600,109.940
811,77471.887000,261.896,3.012,29.696,377.756,-1.558,22.165,20.220,-225.600,159.940
812,77471.925000,293.344,12.047,29.696,380.525,-6.959,25.038,7.220,-220.600,151.940
813,77471.975000,253.052,27.106,50.176,378.647,-5.269,19.103,-75.780,-159.600,28.940
814,77472.6000,227.501,7.027,44.032,378.650,-4.470,13.153,53.220,-290.600,97.940
815,77472.30000,217.674,10.039,22.528,376.691,-9.115,11.062,270.220,-249.600,69.940
816,77472.67000,220.622,29.114,26.624,373.885,-6.462,8.130,320.220,-25.600,9.940
817,77472.105000,249.121,40.157,40.960,376.707,-8.159,13.071,433.220,100.400,-83.060
818,77472.147000,244.207,54.212,49.152,374.820,-8.126,16.053,397.220,67.400,-186.060
819,77472.187000,238.311,41.161,47.104,376.896,5.602,14.359,381.220,14.400,-131.060
820,77472.225000,235.363,42.165,40.960,375.897,1.886,12.289,334.220,-27.600,-118.060
821,77472.248000,240.276,46.180,27.648,376.996,12.931,14.515,268.220,3.400,-112.060
822,77472.286000,246.173,55.216,31.744,371.251,8.217,11.422,208.220,56.400,-129.060
823,77472.326000,231.432,72.282,65.536,374.134,11.081,15.466,189.220,145.400,-157.060
824,77472.375000,236.345,69.271,55.296,376.182,22.158,18.689,-1.780,-27.600,-126.060
825,77472.408000,265.827,63.247,29.696,376.172,22.041,12.719,-141.780,-82.600,-132.060
826,77472.448000,220.622,52.204,44.032,373.359,23.855,13.748,-188.780,22.400,-32.060
827,77472.489000,226.518,40.157,48.128,376.148,20.228,13.675,-355.780,53.400,96.940
828,77472.507000,213.743,32.125,57.344,374.270,21.139,14.686,-406.780,126.400,118.940
829,77472.548000,223.570,37.145,62.464,373.277,17.501,16.596,-219.780,133.400,198.940
830,77472.587000,254.035,19.075,64.512,374.187,14.784,17.534,-295.780,151.400,200.940
831,77472.625000,267.793,32.125,65.536,373.080,2.882,18.274,-206.780,120.400,168.940
832,77472.667000,243.225,22.086,69.632,373.124,5.708,22.313,-124.780,108.400,179.940
833,77472.705000,238.311,5.020,68.608,375.937,3.894,21.284,-91.780,8.400,225.940
834,77472.729000,260.914,-2.008,59.392,374.830,-8.009,22.023,-153.780,81.400,169.940
835,77472.766000,184.261,32.125,83.968,375.765,-8.893,23.001,-277.780,115.400,-52.060
836,77472.808000,251.086,1.004,100.352,376.765,-5.177,25.070,-221.780,192.400,0.940
837,77472.848000,240.276,14.055,99.328,371.034,-9.715,30.933,-26.780,99.400,-8.060
838,77472.886000,250.104,3.012,72.704,375.841,-4.156,31.059,-218.780,75.400,-49.060
839,77472.926000,246.173,0.000,67.584,377.698,-6.860,31.998,-21.780,73.400,-32.060
840,77472.975000,250.104,-3.012,68.608,374.823,-9.626,32.930,97.220,25.400,7.940
841,77472.987000,250.104,-6.024,67.584,377.720,-5.827,37.988,74.220,92.400,-4.060
842,77473.25000,248.138,-2.008,59.392,377.659,-10.388,38.886,111.220,110.400,-21.060
843,77473.66000,235.363,4.016,46.080,377.641,-12.142,42.827,187.220,165.400,-52.060
844,77473.106000,228.484,17.067,47.104,374.950,-1.985,49.007,211.220,259.400,-94.060
845,77473.148000,232.415,18.071,49.152,377.711,-8.243,54.846,226.220,292.400,-69.060
846,77473.186000,223.570,29.114,28.672,376.862,-1.726,60.951,136.220,208.400,-117.060
847,77473.207000,234.380,37.145,28.672,373.944,-8.079,65.785,213.220,204.400,-171.060
848,77473.247000,274.672,42.165,32.768,373.169,3.916,71.012,233.220,105.400,-87.060
849,77473.290000,290.395,41.161,24.576,371.212,-0.709,69.916,222.220,-3.600,-5.060
850,77473.327000,307.102,48.188,10.240,374.972,-2.491,69.884,213.220,-175.600,50.940
851,77473.367000,289.413,52.204,10.240,374.089,2.856,63.034,157.220,-207.600,54.940
852,77473.407000,269.758,48.188,10.240,375.975,2.803,59.057,43.220,-343.600,90.940
853,77473.426000,255.017,43.169,5.120,374.950,-1.985,49.007,-53.780,-523.600,184.940
854,77473.466000,245.190,30.118,5.120,375.726,-13.200,36.834,-83.780,-563.600,267.940
855,77473.510000,272.706,20.078,24.576,374.816,-9.704,28.950,-85.780,-572.600,321.940
856,77473.550000,238.311,26.102,49.152,372.754,-20.957,16.772,-44.780,-595.600,302.940
857,77473.589000,233.397,18.071,59.392,376.574,-17.418,7.901,7.220,-522.600,308.940
858,77473.626000,228.484,9.035,55.296,374.461,-32.336,-4.355,-186.780,-473.600,261.940
859,77473.675000,233.397,-1.004,65.536,373.614,-24.259,-12.142,-146.780,-353.600,252.940
860,77473.686000,256.000,-17.067,47.104,374.509,-27.931,-13.213,-102.780,-220.600,250.940
861,77473.726000,247.155,-4.016,30.720,372.483,-37.215,-18.387,96.220,-137.600,138.940
862,77473.767000,240.276,5.020,32.768,368.751,-33.561,-16.326,55.220,-34.600,103.940
863,77473.807000,232.415,7.027,41.984,373.426,-37.241,-20.376,67.220,-12.600,69.940
864,77473.847000,238.311,5.020,46.080,367.728,-39.090,-17.439,43.220,103.400,51.940
865,77473.887000,247.155,-1.004,66.560,368.792,-30.774,-14.277,46.220,275.400,76.940
866,77473.906000,241.259,-3.012,73.728,369.680,-35.283,-11.388,163.220,284.400,117.940
867,77473.947000,278.603,-26.102,33.792,368.731,-36.874,1.507,132.220,384.400,159.940
868,77473.995000,245.190,2.008,45.056,370.627,-36.810,3.501,34.220,168.400,-52.060
869,77474.27000,257.965,22.086,37.888,364.881,-42.304,7.354,208.220,135.400,-67.060
870,77474.67000,234.380,18.071,60.416,367.835,-33.982,9.525,37.220,175.400,-106.060
871,77474.107000,211.777,13.051,58.368,370.679,-33.886,12.515,-196.780,4.400,-168.060
872,77474.147000,219.639,21.082,44.032,370.690,-32.990,11.539,-223.780,57.400,-195.060
873,77474.167000,237.328,17.067,47.104,369.860,-24.718,13.703,-357.780,55.400,-217.060
874,77474.210000,237.328,26.102,50.176,371.736,-25.648,11.697,-443.780,1.400,-295.060
875,77474.246000,280.568,36.141,40.960,368.962,-21.085,12.785,-472.780,-28.600,-324.060
876,77474.296000,238.311,20.078,39.936,370.974,-11.958,9.998,-456.780,-211.600,-264.060
877,77474.330000,227.501,22.086,54.272,371.007,-9.268,7.071,-458.780,-74.600,-250.060
878,77474.370000,256.983,39.153,53.248,370.096,-6.551,6.133,-535.780,-59.600,-204.060
879,77474.386000,251.086,30.118,52.224,373.925,-2.915,2.238,-561.780,-91.600,-156.060
880,77474.430000,254.035,35.137,46.080,372.016,-3.895,0.225,-634.780,-67.600,-210.060
881,77474.470000,248.138,31.122,39.936,372.008,-3.993,-4.751,-636.780,-83.600,-221.060
882,77474.507000,250.104,28.110,31.744,375.817,-2.130,-5.700,-582.780,-55.600,-214.060
883,77474.550000,256.000,32.125,26.624,374.985,6.122,-4.531,-467.780,-12.600,-212.060
884,77474.587000,253.052,31.122,29.696,376.961,12.521,-6.381,-285.780,44.400,-158.060
885,77474.630000,241.259,32.125,32.768,376.918,8.935,-2.479,-157.780,122.400,-130.060
886,77474.648000,230.449,30.118,34.816,379.818,13.533,-3.371,-59.780,161.400,-93.060
887,77474.688000,253.052,25.098,4.096,375.964,8.065,0.485,52.220,227.400,-67.060
888,77474.731000,232.415,10.039,11.264,378.885,13.677,4.587,202.220,279.400,-7.060
889,77474.767000,227.501,2.008,24.576,377.913,11.053,11.493,416.220,469.400,113.940
890,77474.810000,233.397,5.020,40.960,381.624,4.846,19.323,506.220,317.400,190.940
891,77474.857000,266.810,18.071,22.528,379.784,8.525,21.388,519.220,173.400,130.940
892,77474.870000,281.551,21.082,20.480,378.741,1.222,23.220,384.220,83.400,-1.060
893,77474.907000,289.413,14.055,15.360,380.741,8.654,27.360,273.220,-28.600,1.940
894,77474.962000,279.585,2.008,8.192,380.611,-0.566,24.180,228.220,-208.600,69.940
895,77474.994000,265.827,8.031,8.192,377.787,1.112,18.243,264.220,-278.600,135.940
896,77475.31000,269.758,11.043,13.312,380.666,4.697,12.356,275.220,-270.600,139.940
897,77475.69000,283.516,20.078,36.864,380.553,-3.548,12.180,260.220,-284.600,97.940
898,77475.90000,230.449,15.059,33.792,378.669,-1.936,2.266,359.220,-412.600,95.940
899,77475.130000,226.518,32.125,13.312,377.727,-1.130,-2.692,440.220,-325.600,31.940
900,77475.167000,220.622,52.204,39.936,377.780,2.573,-0.624,314.220,-38.600,-89.060
901,77475.208000,250.104,50.196,43.008,377.863,8.928,-3.472,262.220,-17.600,-138.060
902,77475.251000,245.190,48.188,47.104,378.834,10.773,-3.432,248.220,-61.600,-119.060
903,77475.288000,245.190,37.145,33.792,374.960,4.290,-4.570,273.220,-69.600,-65.060
904,77475.328000,248.138,43.169,19.456,376.996,15.231,-8.313,194.220,-93.600,-21.060
905,77475.350000,247.155,48.188,15.360,375.042,10.644,-7.418,96.220,-11.600,22.940
906,77475.387000,229.466,60.235,44.032,377.924,14.268,-11.316,-30.780,59.400,-10.060
907,77475.428000,226.518,68.267,39.936,375.967,8.864,-5.466,-193.780,11.400,-58.060
908,77475.470000,222.587,64.251,32.768,374.087,10.534,-12.395,-337.780,-66.600,-22.060
909,77475.508000,258.948,56.220,21.504,373.277,20.580,-13.177,-487.780,-92.600,-10.060
910,77475.547000,242.242,19.075,18.432,376.970,14.158,-16.293,-470.780,-12.600,81.940
911,77475.569000,247.155,18.071,34.816,372.297,17.858,-11.248,-550.780,75.400,104.940
912,77475.616000,229.466,20.078,52.224,370.349,14.110,-14.314,-327.780,123.400,178.940
913,77475.650000,244.207,12.047,61.440,374.078,9.657,-10.425,-120.780,170.400,239.940
914,77475.687000,252.069,5.020,58.368,374.889,-0.388,-9.643,-94.780,135.400,240.940
915,77475.727000,246.173,16.063,61.440,373.949,-0.323,-5.664,30.220,194.400,154.940
916,77475.767000,238.311,20.078,59.392,372.884,-9.418,-1.881,233.220,260.400,224.940
917,77475.812000,243.225,-5.020,67.584,370.989,-10.242,4.067,234.220,207.400,297.940
918,77475.831000,241.259,-3.012,53.248,370.903,-16.636,4.925,6.220,98.400,247.940
919,77475.870000,246.173,-7.027,70.656,371.866,-15.668,6.936,-52.780,228.400,197.940
920,77475.910000,246.173,-4.016,87.040,367.985,-22.989,9.759,-16.780,208.400,162.940
921,77475.949000,243.225,-7.027,82.944,374.695,-17.287,15.858,125.220,77.400,137.940
922,77475.992000,248.138,-10.039,76.800,369.797,-29.299,13.606,222.220,92.400,109.940
923,77476.33000,249.121,-5.020,74.752,372.705,-24.602,17.689,270.220,73.400,66.940
924,77476.49000,239.294,-7.027,75.776,372.689,-26.337,22.625,271.220,50.400,15.940
925,77476.93000,229.466,1.004,78.848,371.691,-30.034,21.550,284.220,57.400,-40.060
926,77476.128000,226.518,-3.012,74.752,374.629,-23.446,28.657,265.220,132.400,-32.060
927,77476.170000,233.397,-10.039,72.704,372.698,-26.999,35.541,213.220,181.400,-41.060
928,77476.208000,242.242,-4.016,61.440,373.651,-26.909,39.523,261.220,281.400,-65.060
929,77476.250000,259.931,-12.047,40.960,370.898,-21.313,46.600,271.220,487.400,-38.060
930,77476.288000,250.104,-5.020,36.864,371.788,-26.583,57.431,238.220,426.400,-133.060
931,77476.308000,224.553,36.141,34.816,370.871,-25.484,67.399,416.220,392.400,-228.060
932,77476.350000,238.311,31.122,23.552,372.033,-9.858,69.722,351.220,94.400,-275.060
933,77476.390000,251.086,25.098,23.552,369.210,-8.940,71.727,290.220,8.400,-230.060
934,77476.428000,271.724,18.071,20.480,371.154,-5.231,72.804,281.220,-62.600,-220.060
935,77476.471000,295.309,51.200,18.432,373.158,3.019,71.987,355.220,-169.600,-169.060
936,77476.508000,284.499,58.227,15.360,370.287,1.072,67.963,288.220,-309.600,-83.060
937,77476.531000,271.724,52.204,17.408,375.070,5.578,61.104,24.220,-340.600,16.940
938,77476.571000,261.896,57.224,35.840,371.205,0.752,51.049,-15.780,-330.600,70.940
939,77476.611000,273.689,54.212,47.104,374.923,-3.837,47.973,-128.780,-337.600,115.940
940,77476.652000,266.810,47.184,54.272,374.027,0.595,41.103,-194.780,-304.600,115.940
941,77476.690000,215.708,37.145,51.200,372.021,-6.916,32.983,-353.780,-315.600,117.940
942,77476.730000,224.553,24.094,56.320,373.895,-7.885,28.987,-500.780,-172.600,84.940
943,77476.770000,237.328,11.043,62.464,375.814,-6.008,30.025,-564.780,-73.600,119.940
944,77476.790000,256.000,-2.008,67.584,370.115,-7.097,25.020,-597.780,-21.600,146.940
945,77476.831000,244.207,8.031,61.440,373.872,-8.918,22.997,-411.780,-69.600,70.940
946,77476.868000,245.190,8.031,55.296,371.875,-16.331,19.853,-294.780,-111.600,86.940
947,77476.917000,235.363,-1.004,52.224,371.766,-24.537,21.667,-232.780,-91.600,63.940
948,77476.952000,217.674,-1.004,64.512,371.926,-12.647,20.926,-125.780,-44.600,63.940
949,77476.993000,224.553,-9.035,90.112,372.844,-14.505,18.898,53.220,80.400,162.940
950,77477.12000,240.276,-17.067,72.704,370.855,-21.820,20.729,227.220,44.400,235.940
951,77477.52000,272.706,-9.035,66.560,370.798,-26.342,23.616,302.220,155.400,182.940
952,77477.90000,234.380,9.035,57.344,370.856,-22.580,28.670,358.220,171.400,19.940
953,77477.130000,258.948,4.016,59.392,371.759,-26.154,32.574,397.220,99.400,-63.060
954,77477.170000,203.916,22.086,44.032,367.154,-17.036,33.756,342.220,9.400,-127.060
955,77477.211000,232.415,26.102,33.792,368.088,-17.940,33.738,164.220,42.400,-166.060
956,77477.231000,243.225,30.118,36.864,366.216,-16.951,38.729,32.220,-9.600,-188.060
957,77477.276000,234.380,45.176,44.032,370.130,-6.921,33.975,-100.780,-47.600,-202.060
958,77477.311000,232.415,42.165,46.080,371.061,-7.864,31.967,-329.780,-142.600,-191.060
959,77477.351000,229.466,36.141,41.984,370.124,-6.999,29.995,-423.780,-272.600,-213.060
960,77477.392000,223.570,32.125,60.416,372.965,-6.163,24.049,-358.780,-145.600,-193.060
961,77477.430000,260.914,32.125,66.560,373.987,-0.653,24.168,-295.780,-117.600,-191.060
962,77477.472000,268.775,52.204,66.560,370.285,5.671,22.308,-189.780,-186.600,-172.060
963,77477.496000,260.914,57.224,57.344,369.340,6.438,15.360,-189.780,-240.600,-139.060
964,77477.531000,250.104,51.200,46.080,374.087,8.215,9.437,-339.780,-239.600,-109.060
965,77477.573000,249.121,45.176,43.008,372.155,5.422,8.380,-382.780,-160.600,-105.060
966,77477.611000,253.052,46.180,50.176,376.028,11.885,8.524,-308.780,-27.600,-79.060
967,77477.652000,250.104,41.161,48.128,375.999,10.014,6.494,-215.780,17.400,-51.060
968,77477.690000,240.276,43.169,43.008,376.956,10.923,5.521,-39.780,144.400,-6.060
969,77477.713000,230.449,42.165,35.840,376.873,3.789,15.315,41.220,260.400,23.940
970,77477.751000,240.276,30.118,28.672,376.898,5.622,15.354,123.220,309.400,16.940
971,77477.791000,234.380,21.082,22.528,374.013,1.199,25.202,178.220,419.400,43.940
972,77477.831000,237.328,11.043,38.912,378.861,8.785,35.317,195.220,461.400,36.940
973,77477.873000,244.207,11.043,39.936,376.877,1.529,40.133,112.220,346.400,45.940
974,77477.911000,271.724,2.008,32.768,376.912,3.478,46.142,45.220,178.400,56.940
975,77477.951000,283.516,3.012,26.624,379.746,3.457,43.162,18.220,26.400,34.940
976,77477.972000,289.413,-3.012,18.432,375.886,-2.090,43.038,-25.780,-154.600,82.940
977,77478.18000,282.534,-6.024,18.432,377.803,0.528,35.140,-40.780,-236.600,122.940
978,77478.56000,270.741,-7.027,23.552,378.633,-7.744,32.976,13.220,-253.600,139.940
979,77478.93000,261.896,2.008,34.816,378.575,-11.506,27.922,129.220,-308.600,139.940
980,77478.131000,256.983,6.024,41.984,374.886,-4.266,26.082,225.220,-330.600,153.940
981,77478.171000,242.242,16.063,26.624,375.710,-12.616,19.937,379.220,-328.600,120.940
982,77478.190000,221.605,41.161,22.528,373.867,-8.217,12.071,463.220,-240.600,69.940
983,77478.232000,226.518,34.133,41.984,375.786,-6.340,13.109,445.220,-51.600,56.940
984,77478.270000,234.380,44.173,39.936,374.779,-10.913,14.004,417.220,-10.600,15.940
985,77478.316000,260.914,45.176,34.816,374.763,-11.869,11.995,359.220,4.400,-12.060
986,77478.360000,246.173,35.137,33.792,373.002,-2.654,16.167,367.220,1.400,-21.060
987,77478.391000,251.086,36.141,21.504,373.872,-8.158,15.056,362.220,-26.600,-8.060
988,77478.433000,242.242,43.169,28.672,375.833,-3.474,19.137,297.220,35.400,-1.060
989,77478.452000,228.484,51.200,51.200,374.835,-7.171,18.063,178.220,78.400,-7.060
990,77478.495000,218.656,65.255,63.488,372.123,1.973,19.248,55.220,101.400,-87.060
991,77478.532000,236.345,65.255,51.200,374.012,1.959,17.261,-106.780,-103.600,-75.060
992,77478.575000,263.862,40.157,20.480,374.954,1.912,14.278,-258.780,-148.600,-92.060
993,77478.622000,250.104,32.125,29.696,372.127,2.791,14.292,-301.780,-17.600,-48.060
994,77478.651000,236.345,13.051,40.960,373.044,0.913,11.270,-331.780,-22.600,46.940
995,77478.672000,225.536,18.071,40.960,372.069,-0.971,9.239,-297.780,33.400,96.940
996,77478.712000,222.587,24.094,40.960,373.910,-4.630,8.169,-193.780,70.400,101.940
997,77478.752000,229.466,19.075,62.464,374.827,-7.268,13.087,-141.780,198.400,134.940
998,77478.796000,233.397,12.047,67.584,372.834,-14.622,12.928,-38.780,218.400,236.940
999,77478.831000,238.311,10.039,65.536,373.835,-11.666,22.939,16.220,170.400,283.940
1000,77478.871000,260.914,3.012,58.368,375.556,-24.428,24.659,58.220,189.400,288.940
1001,77478.913000,249.121,1.004,59.392,372.689,-26.337,22.625,118.220,162.400,233.940
1002,77478.931000,258.948,0.000,62.464,372.642,-29.962,24.537,51.220,93.400,152.940
1003,77478.971000,257.965,-3.012,67.584,372.678,-27.234,23.600,-9.780,20.400,106.940
1004,77479.11000,256.983,2.008,73.728,374.538,-29.898,26.530,-47.780,14.400,37.940
1005,77479.53000,253.052,0.000,77.824,372.654,-29.046,24.556,-87.780,14.400,-21.060
1006,77479.91000,247.155,-1.004,74.752,369.845,-27.193,27.576,-124.780,31.400,-59.060
1007,77479.135000,242.242,-2.008,65.536,375.473,-30.783,27.507,-149.780,73.400,-88.060
1008,77479.155000,240.276,-10.039,60.416,376.528,-23.343,32.641,-184.780,167.400,-121.060
1009,77479.192000,236.345,-6.024,57.344,375.508,-28.833,33.517,-174.780,255.400,-149.060
1010,77479.232000,232.415,-3.012,52.224,372.704,-26.921,39.521,-77.780,331.400,-131.060
1011,77479.271000,230.449,-2.008,48.128,370.952,-17.609,48.669,-54.780,340.400,-154.060
1012,77479.313000,217.674,1.004,33.792,373.797,-17.494,52.654,109.220,268.400,-160.060
1013,77479.351000,255.017,39.153,35.840,370.020,-17.446,57.622,273.220,264.400,-231.060
1014,77479.372000,263.862,38.149,28.672,374.876,-9.002,64.772,311.220,116.400,-169.060
1015,77479.412000,267.793,32.125,26.624,372.948,-11.756,65.705,245.220,0.400,-91.060
1016,77479.460000,266.810,38.149,23.552,371.088,-9.091,62.775,83.220,-76.600,-2.060
1017,77479.491000,263.862,27.106,19.456,372.927,-12.770,60.710,107.220,-204.600,76.940
1018,77479.531000,264.845,23.090,23.552,372.892,-14.719,54.701,178.220,-287.600,133.940
1019,77479.571000,266.810,22.086,28.672,374.831,-11.068,52.792,183.220,-330.600,160.940
1020,77479.611000,291.378,28.110,47.104,371.879,-18.591,44.670,149.220,-298.600,169.940
1021,77479.650000,264.845,24.094,59.392,370.978,-14.998,41.762,87.220,-284.600,160.940
1022,77479.675000,250.104,22.086,53.248,368.093,-17.881,36.723,-39.780,-327.600,152.940
1023,77479.712000,232.415,17.067,52.224,374.688,-18.905,26.764,-198.780,-256.600,58.940
1024,77479.752000,231.432,9.035,63.488,370.821,-24.530,22.660,-306.780,-113.600,41.940
1025,77479.792000,247.155,-2.008,62.464,372.796,-18.150,19.815,-322.780,-101.600,39.940
1026,77479.832000,242.242,0.000,57.344,372.709,-24.563,19.679,-242.780,-91.600,45.940
1027,77479.855000,250.104,-3.012,51.200,372.663,-27.409,14.645,-174.780,-75.600,60.940
1028,77479.895000,248.138,-1.004,50.176,370.795,-25.602,14.681,-98.780,-82.600,53.940
1029,77479.932000,233.397,1.004,54.272,369.883,-22.905,12.747,-60.780,-63.600,62.940
1030,77479.973000,227.501,1.004,68.608,369.908,-21.073,12.786,-16.780,-28.600,59.940
1031,77480.15000,227.501,-5.020,82.944,371.765,-23.777,13.726,98.220,22.400,155.940
1032,77480.55000,256.983,-18.071,56.320,366.899,-33.878,15.493,230.220,-65.600,226.940
1033,77480.92000,279.585,-18.071,33.792,366.957,-29.356,12.606,261.220,-140.600,249.940
1034,77480.113000,257.965,-1.004,35.840,368.842,-30.188,15.575,243.220,-18.600,133.940
1035,77480.153000,268.775,-2.008,39.936,368.763,-35.724,13.467,190.220,-53.600,22.940
1036,77480.192000,233.397,26.102,43.008,367.914,-28.446,11.632,80.220,-143.600,-108.060
1037,77480.232000,226.518,14.055,31.744,366.891,-33.975,10.518,-171.780,-138.600,-133.060
1038,77480.272000,229.466,11.043,30.720,367.857,-32.189,7.574,-234.780,-100.600,-110.060
1039,77480.313000,230.449,16.063,31.744,369.821,-26.706,5.704,-241.780,-53.600,-91.060
1040,77480.351000,235.363,17.067,35.840,370.738,-28.585,2.681,-242.780,-19.600,-113.060
