Sample, Time, ACCX, ACCY, ACCZ, MAGX, MAGY, MAGZ, GYRX, GYRY, GYRZ
0,52637.900000,254.023,12.574,-6.973,520.368,231.544,27.425,-21.040,16.510,12.980
1,52637.931000,254.023,12.574,-5.977,516.477,229.543,26.392,-21.040,18.510,13.980
2,52637.983000,254.023,12.574,-3.984,517.406,224.784,30.211,-18.040,17.510,12.980
3,52638.8000,254.023,10.562,-1.992,519.415,232.548,29.407,-15.040,16.510,12.980
4,52638.51000,254.023,8.550,-2.988,518.391,226.714,29.275,-18.040,12.510,7.980
5,52638.90000,256.000,11.568,-2.988,521.352,232.589,30.392,-12.040,7.510,8.980
6,52638.130000,253.035,9.556,-0.996,520.389,233.507,28.449,-15.040,8.510,6.980
7,52638.173000,254.023,10.562,-6.973,523.223,226.718,27.324,-13.040,8.510,5.980
8,52638.188000,254.023,12.574,-3.984,519.365,227.672,28.318,-14.040,5.510,2.980
9,52638.233000,253.035,10.562,-1.992,519.410,231.621,31.347,-9.040,-4.490,0.980
10,52638.268000,253.035,14.585,-5.977,522.298,230.635,29.370,-8.040,-3.490,11.980
11,52638.313000,252.046,12.574,-4.981,524.233,230.654,29.375,11.960,12.510,13.980
12,52638.348000,256.000,5.532,0.000,521.307,227.756,31.266,-50.040,6.510,-10.020
13,52638.392000,255.012,6.538,0.996,519.332,223.832,30.194,-87.040,-15.490,-29.020
14,52638.432000,253.035,4.527,3.984,519.414,231.664,33.310,-9.040,-68.490,-57.020
15,52638.472000,253.035,9.556,-0.996,517.477,232.508,28.421,21.960,-112.490,-78.020
16,52638.516000,254.023,10.562,-1.992,518.446,234.287,20.617,20.960,-164.490,-107.020
17,52638.537000,255.012,11.568,2.988,516.535,237.137,18.715,-20.040,-217.490,-134.020
18,52638.572000,250.069,10.562,3.984,513.616,236.073,15.743,-68.040,-358.490,-177.020
19,52638.612000,250.069,17.603,8.965,509.753,239.617,2.085,-117.040,-531.490,-221.020
20,52638.652000,253.035,18.609,8.965,508.895,253.869,-11.330,-93.040,-823.490,-276.020
21,52638.693000,265.884,30.680,-16.934,504.053,258.180,-33.800,-76.040,-964.490,-314.020
22,52638.732000,270.826,24.644,-54.786,499.242,264.540,-51.321,-48.040,-868.490,-340.020
23,52638.773000,232.278,23.639,-64.747,494.357,263.156,-68.033,162.960,-527.490,-219.020
24,52638.813000,197.683,58.845,-142.444,495.412,273.694,-74.661,478.960,-115.490,-38.020
25,52638.833000,215.475,38.727,-94.630,493.425,267.893,-72.833,22.960,120.510,57.980
26,52638.873000,236.232,29.674,-55.782,498.222,263.150,-69.986,129.960,290.510,170.980
27,52638.913000,256.988,41.745,-48.809,500.168,262.392,-61.173,-13.040,303.510,194.980
28,52638.953000,267.861,32.692,-24.903,505.890,253.733,-60.372,132.960,212.510,137.980
29,52638.990000,258.965,20.621,-43.829,506.843,251.844,-58.451,102.960,98.510,95.980
30,52639.35000,248.093,17.603,-49.805,507.770,247.063,-55.613,44.960,93.510,60.980
31,52639.70000,253.035,23.639,-47.813,506.882,254.864,-53.481,39.960,119.510,40.980
32,52639.110000,250.069,26.656,-47.813,507.836,252.975,-51.559,24.960,163.510,44.980
33,52639.135000,249.081,23.639,-47.813,510.750,253.996,-50.550,24.960,205.510,53.980
34,52639.183000,253.035,28.668,-45.821,510.668,243.532,-40.976,1.960,243.510,67.980
35,52639.211000,253.035,24.644,-40.840,512.675,249.527,-33.974,-1.040,271.510,80.980
36,52639.251000,250.069,23.639,-34.864,513.617,245.761,-29.152,-29.040,296.510,109.980
37,52639.290000,253.035,20.621,-30.879,514.583,244.001,-21.344,-37.040,322.510,119.980
38,52639.333000,248.093,15.591,-18.926,516.531,244.149,-15.452,-21.040,314.510,125.980
39,52639.372000,251.058,13.580,-16.934,514.520,234.594,-7.823,-31.040,265.510,116.980
40,52639.412000,254.023,10.562,-9.961,518.380,231.892,-0.030,-92.040,195.510,89.980
41,52639.467000,252.046,6.538,-2.988,520.361,235.880,3.985,-63.040,126.510,70.980
42,52639.475000,250.069,8.550,-5.977,519.396,235.893,4.964,-49.040,50.510,48.980
43,52639.510000,250.069,9.556,-6.973,517.421,231.969,3.892,-29.040,-20.490,16.980
44,52639.571000,253.035,9.556,-10.957,516.447,231.895,0.947,-50.040,-63.490,4.980
45,52639.592000,252.046,11.568,-14.942,520.319,231.954,1.937,-39.040,-80.490,-0.020
46,52639.633000,253.035,11.568,-13.946,516.471,234.764,-0.951,-27.040,-78.490,-6.020
47,52639.673000,255.012,12.574,-15.938,519.364,233.821,-0.966,-12.040,-74.490,-0.020
48,52639.713000,254.023,13.580,-17.930,516.436,231.787,-3.959,-8.040,-73.490,4.980
49,52639.752000,254.023,10.562,-15.938,520.240,225.028,-4.101,27.960,-89.490,-0.020
50,52639.772000,252.046,8.550,-17.930,521.215,226.872,-8.961,18.960,-115.490,-11.020
51,52639.812000,251.058,12.574,-17.930,515.429,228.757,-8.932,52.960,-162.490,-29.020
52,52639.852000,252.046,9.556,-19.922,521.218,228.662,-15.786,27.960,-199.490,-43.020
53,52639.892000,254.023,14.585,-27.891,517.384,233.371,-20.593,40.960,-202.490,-51.020
54,52639.931000,254.023,14.585,-29.883,516.375,230.320,-26.547,31.960,-197.490,-49.020
55,52639.972000,252.046,16.597,-34.864,513.529,237.001,-30.327,15.960,-186.490,-43.020
56,52640.12000,249.081,16.597,-35.860,518.324,233.122,-32.365,4.960,-176.490,-40.020
57,52640.52000,250.069,16.597,-36.856,514.479,236.838,-38.174,1.960,-170.490,-37.020
58,52640.73000,250.069,15.591,-36.856,513.568,243.538,-41.950,-4.040,-172.490,-37.020
59,52640.120000,251.058,16.597,-38.848,515.513,245.413,-45.827,0.960,-175.490,-41.020
60,52640.153000,250.069,16.597,-38.848,515.429,237.560,-49.924,-3.040,-196.490,-42.020
61,52640.196000,248.093,17.603,-40.840,511.585,241.298,-54.753,24.960,-211.490,-47.020
62,52640.243000,248.093,18.609,-43.829,508.224,-4.427,-64.136,12.960,-223.490,-50.020
63,52640.278000,250.069,20.621,-46.817,507.738,245.877,-65.446,16.960,-228.490,-53.020
64,52640.321000,248.093,20.621,-51.798,505.725,238.070,-66.604,18.960,-219.490,-52.020
65,52640.372000,248.093,21.627,-53.790,508.718,248.648,-72.247,14.960,-205.490,-53.020
66,52640.421000,247.104,21.627,-57.774,506.730,244.595,-79.206,19.960,-191.490,-53.020
67,52640.428000,246.116,21.627,-60.763,508.696,248.432,-82.059,12.960,-140.490,-46.020
68,52640.470000,240.185,26.656,-63.751,503.826,245.429,-84.097,0.960,-90.490,-33.020
69,52640.510000,240.185,27.662,-66.739,501.945,251.214,-84.953,18.960,-24.490,-14.020
70,52640.552000,245.127,24.644,-61.759,506.761,249.298,-85.966,6.960,13.510,1.980
71,52640.602000,248.093,25.650,-58.770,505.824,252.223,-84.923,8.960,45.510,5.980
72,52640.620000,244.139,21.627,-56.778,504.760,241.598,-82.219,12.960,51.510,4.980
73,52640.682000,245.127,20.621,-53.790,502.903,249.368,-81.070,16.960,41.510,-5.020
74,52640.698000,244.139,21.627,-55.782,503.903,253.218,-82.943,6.960,25.510,-18.020
75,52640.722000,245.127,22.633,-57.774,507.773,252.371,-79.031,17.960,20.510,-24.020
76,52640.755000,246.116,24.644,-58.770,505.866,255.265,-78.971,12.960,33.510,-23.020
77,52640.795000,246.116,26.656,-61.759,503.893,251.362,-79.062,18.960,63.510,-14.020
78,52640.836000,243.151,25.650,-58.770,502.888,247.469,-79.150,17.960,104.510,1.980
79,52640.875000,245.127,22.633,-59.767,501.991,253.415,-73.136,13.960,130.510,10.980
80,52640.922000,248.093,25.650,-54.786,503.932,253.498,-70.188,-18.040,148.510,23.980
81,52640.956000,247.104,24.644,-50.802,501.988,251.624,-66.312,-12.040,148.510,25.980
82,52640.991000,250.069,22.633,-49.805,502.910,246.801,-65.436,-27.040,156.510,26.980
83,52641.37000,248.093,22.633,-46.817,510.659,246.962,-61.493,-35.040,156.510,29.980
84,52641.52000,251.058,26.656,-45.821,504.882,248.049,-53.636,-29.040,167.510,41.980
85,52641.95000,249.081,24.644,-43.829,506.863,252.038,-49.621,-29.040,175.510,50.980
86,52641.132000,250.069,20.621,-40.840,512.670,252.116,-48.626,-29.040,173.510,53.980
87,52641.172000,252.046,22.633,-37.852,511.678,248.352,-42.828,-36.040,171.510,57.980
88,52641.212000,251.058,23.639,-37.852,510.605,236.757,-40.145,-54.040,171.510,59.980
89,52641.252000,253.035,17.603,-33.868,511.598,238.773,-37.157,-48.040,164.510,57.980
90,52641.295000,253.035,20.621,-33.868,514.572,244.778,-30.152,-76.040,158.510,57.980
91,52641.336000,251.058,17.603,-31.875,516.544,247.795,-26.159,-77.040,143.510,54.980
92,52641.356000,250.069,14.585,-25.899,514.571,243.008,-22.346,-86.040,124.510,45.980
93,52641.401000,252.046,17.603,-21.914,513.575,239.202,-18.510,-82.040,82.510,33.980
94,52641.436000,252.046,17.603,-20.918,517.476,242.174,-17.456,-50.040,43.510,28.980
95,52641.473000,250.069,16.597,-24.903,513.571,239.159,-20.473,-21.040,8.510,17.980
96,52641.515000,253.035,14.585,-24.903,513.620,243.150,-15.481,-4.040,-37.490,1.980
97,52641.555000,250.069,16.597,-26.895,514.569,242.102,-19.425,-3.040,-58.490,-5.020
98,52641.596000,251.058,15.591,-25.899,513.599,242.071,-20.408,32.960,-94.490,-13.020
99,52641.632000,252.046,15.591,-23.907,511.594,236.098,-26.429,37.960,-125.490,-25.020
100,52641.656000,250.069,18.609,-30.879,512.658,245.837,-25.230,61.960,-169.490,-39.020
101,52641.697000,248.093,17.603,-30.879,512.587,241.630,-40.033,71.960,-198.490,-43.020
102,52641.742000,253.035,20.621,-38.848,508.762,246.426,-40.915,83.960,-206.490,-46.020
103,52641.773000,249.081,19.615,-41.837,511.653,246.346,-45.814,73.960,-188.490,-38.020
104,52641.812000,248.093,20.621,-43.829,511.606,242.376,-49.825,66.960,-164.490,-25.020
105,52641.862000,248.093,21.627,-46.817,508.695,242.262,-53.757,57.960,-136.490,-20.020
106,52641.897000,250.069,20.621,-43.829,508.756,249.015,-55.568,66.960,-127.490,-16.020
107,52641.932000,251.058,16.597,-43.829,507.759,246.956,-60.519,35.960,-127.490,-15.020
108,52641.972000,249.081,18.609,-44.825,509.729,250.836,-61.409,41.960,-128.490,-22.020
109,52641.992000,247.104,21.627,-47.813,506.789,247.809,-65.405,21.960,-134.490,-18.020
110,52642.37000,250.069,22.633,-49.805,506.766,245.824,-67.411,52.960,-117.490,-21.020
111,52642.77000,247.104,23.639,-56.778,503.909,250.629,-68.291,47.960,-85.490,-14.020
112,52642.128000,247.104,22.633,-53.790,507.756,249.566,-74.190,53.960,-47.490,-4.020
113,52642.157000,245.127,23.639,-53.790,507.756,249.566,-74.190,31.960,-5.490,11.980
114,52642.196000,246.116,22.633,-51.798,507.692,242.792,-73.360,32.960,20.510,23.980
115,52642.247000,248.093,21.627,-54.786,508.720,248.669,-71.266,17.960,42.510,33.980
116,52642.275000,247.104,25.650,-53.790,506.757,245.738,-71.335,4.960,72.510,44.980
117,52642.296000,249.081,23.639,-55.782,511.637,249.712,-69.276,21.960,109.510,53.980
118,52642.363000,247.104,20.621,-57.774,511.601,244.965,-64.478,8.960,178.510,73.980
119,52642.379000,247.104,21.627,-57.774,514.498,244.066,-62.530,16.960,248.510,97.980
120,52642.438000,251.058,25.650,-49.805,511.517,233.595,-51.982,3.960,367.510,143.980
121,52642.455000,256.000,22.633,-42.833,515.386,231.864,-44.167,17.960,408.510,173.980
122,52642.493000,253.035,15.591,-40.840,518.318,233.057,-35.308,-9.040,441.510,197.980
123,52642.533000,250.069,8.550,-27.891,521.214,230.389,-25.555,-99.040,447.510,198.980
124,52642.581000,246.116,0.503,-6.973,524.070,222.930,-12.965,-112.040,344.510,163.980
125,52642.615000,250.069,-8.550,6.973,527.862,213.410,-6.304,-108.040,213.510,106.980
126,52642.635000,256.000,-1.509,0.996,525.027,219.315,-1.276,-102.040,80.510,37.980
127,52642.678000,253.035,2.515,-12.949,528.902,220.281,-3.207,-62.040,-22.490,-18.020
128,52642.715000,249.081,3.521,-14.942,524.081,222.154,-4.157,-66.040,-48.490,-31.020
129,52642.761000,252.046,9.556,-24.903,527.866,213.453,-4.342,-110.040,-25.490,-19.020
130,52642.802000,256.988,7.544,-22.911,525.036,220.286,-1.254,-134.040,16.510,5.980
131,52642.837000,255.012,13.580,-25.899,523.059,215.456,0.596,-140.040,88.510,28.980
132,52642.878000,254.023,5.532,-17.930,526.034,221.460,7.600,-137.040,125.510,38.980
133,52642.915000,252.046,6.538,-13.946,522.140,218.553,9.489,-162.040,139.510,40.980
134,52642.938000,254.023,5.532,-8.965,526.993,218.751,16.368,-163.040,135.510,37.980
135,52642.977000,252.046,5.532,-3.984,524.109,220.665,16.404,-124.040,113.510,33.980
136,52643.28000,254.023,3.521,-6.973,524.076,216.824,18.280,-117.040,75.510,29.980
137,52643.57000,253.035,1.509,-3.984,523.103,215.003,24.122,-74.040,52.510,19.980
138,52643.97000,250.069,7.544,-6.973,527.950,216.021,24.154,-78.040,25.510,17.980
139,52643.138000,256.988,4.527,-10.957,526.984,215.148,29.036,-72.040,25.510,25.980
140,52643.187000,254.023,14.585,-11.953,526.916,208.331,27.904,-67.040,61.510,55.980
141,52643.221000,252.046,1.509,-9.961,529.866,213.213,28.019,-28.040,94.510,71.980
142,52643.235000,254.023,2.515,-8.965,527.935,212.353,33.880,-88.040,115.510,68.980
143,52643.278000,253.035,2.515,0.000,525.981,209.508,37.735,-38.040,115.510,80.980
144,52643.316000,255.012,5.532,-1.992,535.638,207.682,38.696,53.960,99.510,117.980
145,52643.375000,255.012,-6.538,1.992,529.819,205.727,40.601,48.960,105.510,110.980
146,52643.407000,255.012,-3.521,1.992,528.758,196.009,40.383,-1.040,77.510,86.980
147,52643.443000,254.023,-3.521,2.988,534.560,196.044,39.416,-3.040,57.510,59.980
148,52643.475000,256.000,-1.509,2.988,534.621,201.027,45.410,-9.040,54.510,42.980
149,52643.518000,253.035,-6.538,7.969,528.764,196.073,43.327,-2.040,30.510,12.980
150,52643.567000,254.023,-2.515,4.981,533.623,198.084,44.362,8.960,11.510,-4.020
151,52643.602000,252.046,-2.515,3.984,533.608,196.185,46.281,29.960,-0.490,-19.020
152,52643.631000,255.012,-2.515,0.000,529.800,202.900,44.461,20.960,-0.490,-21.020
153,52643.655000,253.035,-1.509,1.992,530.727,198.120,47.299,20.960,5.510,-31.020
154,52643.700000,255.012,2.515,-1.992,529.744,197.075,44.332,27.960,13.510,-29.020
155,52643.735000,256.000,-2.515,1.992,528.849,203.927,47.424,21.960,27.510,-34.020
156,52643.775000,253.035,-2.515,7.969,529.739,196.147,46.272,21.960,20.510,-35.020
157,52643.822000,254.023,0.503,3.984,529.795,201.973,46.402,22.960,12.510,-29.020
158,52643.858000,253.035,-2.515,8.965,527.912,207.736,44.564,21.960,9.510,-34.020
159,52643.890000,255.012,4.527,5.977,531.787,208.701,42.633,17.960,-0.490,-30.020
160,52643.917000,255.012,1.509,5.977,526.938,206.777,45.522,29.960,-2.490,-17.020
161,52643.963000,254.023,1.509,2.988,529.852,207.798,46.531,10.960,-8.490,-18.020
162,52644.11000,254.023,1.509,3.984,522.995,199.879,42.418,-4.040,-7.490,-13.020
163,52644.38000,255.012,2.515,2.988,526.003,209.723,47.546,-12.040,-1.490,-5.020
164,52644.74000,254.023,1.509,1.992,525.949,203.920,48.398,-27.040,-1.490,-2.020
165,52644.115000,252.046,2.515,3.984,526.957,208.719,45.565,-34.040,-1.490,-3.020
166,52644.155000,254.023,1.509,5.977,525.017,207.772,47.501,-35.040,-1.490,1.980
167,52644.175000,255.012,2.515,3.984,527.886,204.845,45.481,-19.040,-2.490,3.980
168,52644.222000,254.023,0.503,1.992,524.043,207.698,44.555,-24.040,-3.490,4.980
169,52644.257000,253.035,1.509,2.988,527.938,209.742,47.551,-21.040,-1.490,3.980
170,52644.305000,254.023,-0.503,3.984,526.963,208.784,48.508,-14.040,0.510,2.980
171,52644.335000,255.012,0.503,4.981,530.786,203.967,48.409,-18.040,-5.490,4.980
172,52644.388000,255.012,-0.503,4.981,526.942,206.820,47.484,-4.040,-10.490,2.980
173,52644.423000,254.023,0.503,2.988,530.857,211.691,46.620,-7.040,-19.490,-0.020
174,52644.457000,255.012,-1.509,6.973,527.962,212.612,45.653,-2.040,-24.490,-1.020
175,52644.505000,252.046,1.509,5.977,528.896,208.781,47.532,4.960,-31.490,-7.020
176,52644.518000,254.023,1.509,2.988,529.866,209.696,44.612,-5.040,-34.490,-5.020
177,52644.573000,254.023,2.515,2.988,526.907,203.843,44.476,-2.040,-27.490,-6.020
178,52644.605000,253.035,1.509,15.938,527.947,210.713,47.573,-82.040,42.510,22.980
179,52644.646000,251.058,-0.503,1.992,527.947,210.713,47.573,-86.040,17.510,29.980
180,52644.686000,256.000,-10.562,-2.988,527.926,208.750,46.548,-112.040,-133.490,-15.020
181,52644.721000,256.000,-4.527,8.965,527.957,212.569,43.691,31.960,-152.490,-60.020
182,52644.756000,256.000,-2.515,0.996,527.934,211.468,37.783,70.960,-202.490,-114.020
183,52644.796000,252.046,6.538,-3.984,526.909,206.497,32.767,43.960,-232.490,-139.020
184,52644.816000,252.046,16.597,-6.973,527.041,221.858,25.263,-51.040,-261.490,-116.020
185,52644.861000,247.104,-1.509,-5.977,527.995,221.738,19.378,-137.040,-324.490,-109.020
186,52644.909000,260.942,17.603,-17.930,525.078,222.443,8.600,145.960,-321.490,-93.020
187,52644.943000,256.988,-6.538,-20.918,525.092,224.342,6.681,13.960,-310.490,-149.020
188,52644.980000,261.931,7.544,11.953,516.447,232.779,-2.956,-66.040,-307.490,-254.020
189,52645.26000,269.838,37.721,32.872,517.477,240.426,-8.668,-264.040,-406.490,-276.020
190,52645.57000,268.849,33.697,-2.988,512.682,249.592,-31.030,-108.040,-1089.490,-461.020
191,52645.98000,291.583,43.756,-90.646,504.039,261.567,-56.280,-336.040,-1254.490,-520.020
192,52645.138000,213.498,-0.503,-187.268,494.388,267.859,-74.793,-546.040,-998.490,-406.020
193,52645.158000,174.950,32.692,-114.553,487.608,269.476,-86.539,216.960,-513.490,-97.020
194,52645.197000,173.961,62.868,-72.716,487.599,270.274,-94.367,249.960,-61.490,72.980
195,52645.238000,237.220,-44.762,-60.763,493.401,268.540,-87.529,223.960,355.510,469.980
196,52645.280000,214.486,109.139,-41.837,500.066,255.251,-77.022,-90.040,615.510,373.980
197,52645.320000,268.849,-6.538,-21.914,505.774,242.061,-61.612,48.960,747.510,486.980
198,52645.363000,286.641,133.281,-35.860,516.330,230.773,-50.073,324.960,491.510,353.980
199,52645.413000,261.931,-13.580,-36.856,516.336,232.585,-55.917,739.960,200.510,170.980
200,52645.436000,252.046,-14.585,-38.848,518.176,222.011,-52.225,-164.040,54.510,99.980
201,52645.456000,271.815,24.644,-18.926,522.099,226.968,-49.164,-168.040,-22.490,71.980
202,52645.501000,258.965,16.597,-70.724,519.220,228.924,-47.166,-304.040,-111.490,4.980
203,52645.537000,257.977,8.550,-69.728,517.236,223.145,-44.356,-498.040,-49.490,-37.020
204,52645.590000,241.174,15.591,-39.844,515.371,229.965,-42.248,-217.040,-39.490,-33.020
205,52645.621000,247.104,7.544,-29.883,517.313,230.933,-43.203,-110.040,-97.490,-46.020
206,52645.656000,248.093,22.633,-50.802,516.388,235.735,-45.059,-196.040,-190.490,-40.020
207,52645.696000,244.139,18.609,-50.802,518.319,235.711,-47.017,-261.040,-181.490,-29.020
208,52645.740000,242.162,1.509,-58.770,515.367,230.807,-48.113,-246.040,-222.490,-60.020
209,52645.760000,239.197,8.550,-72.716,513.492,237.519,-50.910,-94.040,-112.490,-62.020
210,52645.801000,253.035,8.550,-48.809,511.507,232.624,-52.003,-201.040,-52.490,-101.020
211,52645.840000,248.093,35.709,-51.798,510.691,248.149,-51.660,-104.040,-102.490,-167.020
212,52645.880000,255.012,4.527,-42.833,508.745,248.022,-56.571,52.960,-186.490,-271.020
213,52645.916000,293.560,-2.515,0.996,502.086,260.491,-60.231,-170.040,-441.490,-485.020
214,52645.962000,379.552,-33.697,27.891,486.658,268.754,-74.790,215.960,-785.490,-826.020
215,52645.997000,429.961,-1.509,18.926,468.555,302.060,-96.644,404.960,-897.490,-1322.020
216,52646.37000,403.274,-84.998,-69.728,436.895,332.471,-111.726,149.960,-761.490,-1511.020
217,52646.77000,154.193,-161.446,-166.350,415.723,344.777,-116.401,16.960,-250.490,-686.020
218,52646.97000,136.402,-183.576,-219.144,410.901,344.881,-109.544,324.960,311.510,46.980
219,52646.141000,109.714,-22.633,-145.432,413.690,333.259,-109.796,1996.960,1106.510,431.980
220,52646.183000,127.506,10.562,-164.358,426.050,310.167,-106.360,1732.960,1403.510,905.980
221,52646.218000,177.915,3.521,-153.401,445.164,283.452,-94.164,1560.960,1285.510,1223.980
222,52646.258000,218.440,57.839,-156.389,461.296,248.898,-84.110,1163.960,1126.510,1471.980
223,52646.300000,237.220,59.851,-137.463,478.364,209.650,-67.293,439.960,891.510,1569.980
224,52646.340000,250.069,87.010,-106.584,487.789,180.058,-49.297,-557.040,511.510,1570.980
225,52646.380000,287.629,90.028,-58.770,498.242,157.227,-33.111,-784.040,383.510,1339.980
226,52646.397000,285.652,80.974,-16.934,501.958,139.940,-26.622,-373.040,341.510,531.980
227,52646.438000,273.792,40.739,-26.895,505.856,142.006,-22.645,566.960,270.510,15.980
228,52646.481000,260.942,76.951,25.899,502.987,146.703,-28.431,1586.960,-9.490,-427.020
229,52646.521000,314.317,-90.028,169.339,500.200,162.748,-47.694,2722.960,77.510,-737.020
230,52646.557000,295.537,-143.340,66.739,494.340,158.635,-55.643,2721.960,270.510,-327.020
231,52646.598000,247.104,17.603,-51.798,493.568,179.877,-60.076,-1531.040,-509.490,-513.020
232,52646.638000,296.525,60.857,16.934,491.701,189.308,-71.639,1131.960,-299.490,-616.020
233,52646.680000,253.035,-52.809,-4.981,484.982,197.678,-85.197,101.960,-624.490,-521.020
234,52646.719000,252.046,3.521,-53.790,472.452,205.926,-101.711,70.960,-652.490,-621.020
235,52646.741000,256.000,8.550,-56.778,461.922,220.105,-114.167,-43.040,-450.490,-487.020
236,52646.783000,247.104,4.527,-57.774,456.250,234.525,-117.782,-154.040,-304.490,-397.020
237,52646.826000,249.081,2.515,-48.809,453.435,244.141,-120.516,-204.040,-201.490,-307.020
238,52646.861000,247.104,19.615,-50.802,449.580,246.002,-122.444,-223.040,-158.490,-244.020
239,52646.900000,251.058,2.515,-49.805,442.883,253.703,-122.288,-159.040,-161.490,-228.020
240,52646.940000,247.104,15.591,-54.786,439.963,252.617,-126.241,-299.040,-171.490,-194.020
241,52646.978000,246.116,25.650,-71.720,437.192,265.297,-122.042,-296.040,-154.490,-175.020
242,52647.18000,238.208,6.538,-71.720,438.227,272.124,-120.908,-254.040,9.510,-191.020
243,52647.38000,231.290,8.550,-45.821,431.457,271.195,-116.039,-260.040,78.510,-242.020
244,52647.78000,253.035,32.692,-38.848,428.623,277.984,-114.914,-302.040,-61.490,-285.020
245,52647.120000,259.954,41.745,-21.914,422.981,295.338,-117.483,-314.040,-276.490,-366.020
246,52647.162000,254.023,72.927,-61.759,420.083,294.468,-111.624,-858.040,-304.490,-314.020
247,52647.198000,237.220,55.827,-146.428,414.427,309.924,-112.274,-423.040,-317.490,-255.020
248,52647.238000,233.266,69.910,-198.226,408.655,312.823,-110.260,-720.040,-217.490,-175.020
249,52647.282000,202.625,100.086,-126.506,408.688,314.895,-104.330,-1129.040,-407.490,-64.020
250,52647.318000,198.672,83.992,-106.584,403.963,324.729,-96.277,-1286.040,-545.490,21.980
251,52647.360000,174.950,61.862,-37.852,405.900,324.769,-95.291,-765.040,-199.490,87.980
252,52647.378000,213.498,31.686,-18.926,406.900,328.619,-97.165,151.960,180.510,-57.020
253,52647.420000,239.197,30.680,-6.973,403.919,322.550,-107.112,1528.960,542.510,-166.020
254,52647.458000,258.965,45.768,-3.984,412.513,315.385,-127.847,2275.960,689.510,-5.020
255,52647.498000,358.795,-150.381,50.802,422.018,298.889,-132.116,933.960,877.510,545.980
256,52647.538000,267.861,211.741,-81.681,432.564,286.630,-120.598,-369.040,386.510,547.980
257,52647.586000,244.139,13.580,-65.743,439.328,283.978,-111.817,194.960,352.510,492.980
258,52647.623000,246.116,31.686,-27.891,450.746,262.883,-105.396,499.960,465.510,605.980
259,52647.658000,256.988,-17.603,-10.957,456.551,262.939,-105.383,87.960,211.510,332.980
260,52647.680000,265.884,12.574,-35.860,460.307,250.442,-101.729,165.960,156.510,270.980
261,52647.720000,248.093,16.597,-33.868,462.199,245.650,-99.870,323.960,213.510,278.980
262,52647.762000,253.035,13.580,-18.926,471.838,241.882,-98.953,145.960,125.510,247.980
263,52647.802000,246.116,4.527,-18.926,468.858,234.065,-100.114,165.960,62.510,242.980
264,52647.845000,254.023,3.521,-7.969,472.664,227.328,-99.274,103.960,-93.490,209.980
265,52647.879000,255.012,-3.521,-35.860,475.543,226.257,-105.176,137.960,-148.490,202.980
266,52647.920000,263.907,-13.580,-40.840,473.489,214.523,-108.383,114.960,-51.490,183.980
267,52647.962000,256.000,1.509,-39.844,477.368,215.531,-108.352,12.960,-55.490,219.980
268,52648.3000,258.965,1.509,-39.844,483.128,210.755,-107.465,59.960,63.510,273.980
269,52648.19000,254.023,4.527,-27.891,482.085,202.979,-107.640,48.960,100.510,331.980
270,52648.60000,275.768,16.597,-10.957,487.738,186.617,-104.069,-338.040,17.510,457.980
271,52648.100000,287.629,27.662,-11.953,489.658,183.852,-98.242,-422.040,-78.490,494.980
272,52648.152000,331.120,96.063,6.973,493.415,172.240,-98.492,-559.040,-356.490,365.980
273,52648.187000,380.541,134.287,16.934,488.565,172.948,-108.293,-95.040,-557.490,118.980
274,52648.222000,247.104,183.576,-24.903,489.528,173.799,-114.156,550.960,-240.490,-295.020
275,52648.261000,146.286,32.692,-194.241,486.690,181.429,-118.896,1885.960,398.510,-1078.020
276,52648.303000,153.205,49.792,-254.008,477.108,192.791,-127.490,1533.960,173.510,-1216.020
277,52648.327000,145.297,5.532,-173.323,462.052,238.077,-135.343,-598.040,-615.490,-1445.020
278,52648.361000,145.297,-4.527,-178.303,449.623,255.214,-144.795,-999.040,-853.490,-1392.020
279,52648.400000,178.903,-26.656,-200.218,442.081,279.044,-160.953,-663.040,-1120.490,-1091.020
280,52648.460000,250.069,-38.727,-148.420,422.975,309.362,-185.818,-984.040,-1340.490,-790.020
281,52648.486000,262.919,-68.904,-105.588,408.482,315.564,-206.305,-1032.040,-1320.490,-444.020
282,52648.528000,256.988,-49.792,-53.790,395.081,333.533,-221.625,-1100.040,-1093.490,-168.020
283,52648.560000,235.243,-30.680,8.965,387.354,336.219,-228.446,-1066.040,-852.490,116.980
284,52648.602000,225.359,-50.798,82.677,396.095,337.512,-217.611,-1282.040,-36.490,684.980
285,52648.622000,481.359,-272.094,-61.759,418.057,309.423,-225.053,1791.960,1125.510,1386.980
286,52648.658000,316.293,31.686,-47.813,439.108,282.748,-211.872,-999.040,511.510,675.980
287,52648.705000,335.073,169.493,-16.934,448.641,266.510,-204.367,507.960,500.510,305.980
288,52648.738000,265.884,13.580,-81.681,453.452,264.551,-207.342,209.960,102.510,373.980
289,52648.786000,252.046,18.609,-94.630,458.272,261.794,-202.490,-84.040,217.510,231.980
290,52648.824000,240.185,46.774,-64.747,463.066,255.260,-192.818,-202.040,283.510,210.980
291,52648.867000,240.185,25.650,-53.790,468.856,252.534,-186.982,-88.040,232.510,189.980
292,52648.899000,234.255,3.521,-54.786,472.683,247.760,-185.119,-70.040,117.510,113.980
293,52648.939000,235.243,16.597,-46.817,472.725,250.802,-179.167,-75.040,8.510,72.980
294,52648.960000,231.290,16.597,-38.848,473.709,253.616,-184.006,-94.040,-195.490,33.980
295,52649.0,238.208,12.574,-40.840,469.835,254.420,-189.881,-276.040,-500.490,-19.020
296,52649.43000,274.780,19.615,-54.786,463.050,255.109,-199.686,-480.040,-661.490,-114.020
297,52649.82000,307.398,17.603,-86.661,452.630,277.379,-197.253,-1233.040,-617.490,-210.020
298,52649.127000,273.792,12.574,-135.471,446.809,276.287,-200.231,-733.040,-570.490,-82.020
299,52649.162000,222.394,31.686,-80.685,452.774,289.331,-183.258,-2131.040,-264.490,668.980
300,52649.202000,218.440,23.639,-37.852,466.222,275.331,-163.927,-808.040,179.510,1110.980
301,52649.245000,128.494,36.715,-60.763,485.409,254.592,-144.733,-1169.040,462.510,1148.980
302,52649.265000,136.402,139.316,-189.261,494.055,245.292,-130.212,-1289.040,-78.490,661.980
303,52649.305000,415.135,3.521,-17.930,498.692,225.814,-135.538,1677.960,211.510,189.980
304,52649.339000,255.012,63.874,-68.732,496.730,224.652,-143.413,261.960,-320.490,125.980
305,52649.381000,259.954,17.603,-100.607,497.619,219.505,-157.254,358.960,-317.490,172.980
306,52649.436000,258.965,19.615,-128.498,497.543,211.738,-157.427,-335.040,-1.490,170.980
307,52649.463000,243.151,21.627,-94.630,501.412,210.007,-149.612,-327.040,201.510,214.980
308,52649.503000,241.174,-8.550,-64.747,502.412,211.203,-139.777,-555.040,195.510,211.980
309,52649.548000,244.139,-0.503,-53.790,508.265,214.366,-130.868,-530.040,119.510,182.980
310,52649.567000,239.197,-8.550,-50.802,510.180,211.558,-127.004,-506.040,-70.490,170.980
311,52649.627000,234.255,-4.527,-45.821,511.162,212.582,-125.018,-338.040,-234.490,130.980
312,52649.642000,235.243,10.562,-65.743,510.120,206.575,-132.999,-297.040,-435.490,105.980
313,52649.688000,240.185,7.544,-63.751,504.288,206.259,-144.786,-259.040,-577.490,98.980
314,52649.729000,234.255,11.568,-87.658,504.252,205.030,-156.581,-173.040,-670.490,112.980
315,52649.763000,246.116,13.580,-88.654,503.258,205.646,-172.260,-261.040,-755.490,146.980
316,52649.799000,256.000,37.721,-85.665,499.291,199.395,-190.059,-354.040,-820.490,178.980
317,52649.839000,325.189,60.857,-24.903,496.447,208.730,-205.549,-670.040,-1180.490,160.980
318,52649.887000,389.436,103.104,22.911,481.830,204.058,-235.103,-1001.040,-1735.490,75.980
319,52649.901000,413.158,178.546,43.829,464.476,216.790,-266.238,-1445.040,-2169.490,-130.020
320,52649.939000,296.525,-3.521,-149.416,447.198,237.289,-297.201,-282.040,-1486.490,-574.020
321,52649.983000,259.954,-53.815,-188.265,425.006,248.205,-320.541,422.960,-918.490,-985.020
322,52650.23000,165.066,9.556,-38.848,414.576,269.504,-318.129,-792.040,-428.490,-1214.020
323,52650.66000,113.668,-22.633,-75.704,411.133,308.775,-295.690,-804.040,712.510,-1571.020
324,52650.102000,158.147,-37.721,-127.502,411.368,328.645,-274.654,-6.040,1455.510,-1553.020
325,52650.150000,193.730,-28.668,-148.420,418.398,347.913,-239.889,680.960,1953.510,-1446.020
326,52650.185000,209.544,-54.821,-145.432,430.134,353.635,-205.414,1637.960,2360.510,-1463.020
327,52650.203000,241.174,-70.916,-162.366,433.144,359.100,-178.808,2241.960,2492.510,-1288.020
328,52650.241000,261.931,-138.310,-145.432,435.069,353.747,-158.329,2877.960,2574.510,-1004.020
329,52650.286000,256.988,-141.328,-169.339,432.301,362.046,-132.654,2539.960,2494.510,-575.020
330,52650.322000,242.162,-134.287,-191.253,432.284,355.725,-111.219,904.960,2131.510,104.980
331,52650.365000,245.127,-121.210,-218.148,437.219,357.584,-72.922,505.960,1929.510,538.980
332,52650.401000,246.116,-116.181,-232.093,445.854,343.774,-42.810,533.960,1500.510,997.980
333,52650.442000,225.359,-60.857,-240.062,458.200,316.152,-24.764,487.960,1080.510,1194.980
334,52650.483000,221.405,-26.656,-243.051,470.503,287.234,-21.458,125.960,615.510,1325.980
335,52650.521000,232.278,9.556,-235.082,483.710,253.322,-25.125,185.960,-4.490,1320.980
336,52650.541000,212.510,59.851,-173.323,499.868,226.945,-40.386,-112.040,-438.490,1304.980
337,52650.581000,215.475,104.110,-112.560,505.443,204.542,-46.755,-1088.040,-729.490,1186.980
338,52650.621000,224.371,114.169,-84.669,512.955,183.064,-56.042,-1770.040,-777.490,972.980
339,52650.662000,255.012,16.597,20.918,520.426,156.797,-62.493,-1087.040,-458.490,627.980
340,52650.707000,333.097,4.527,316.763,519.453,154.091,-52.749,140.960,390.510,16.980
341,52650.744000,331.120,122.216,-108.576,522.426,161.843,-54.532,3010.960,522.510,-660.020
342,52650.787000,341.992,-99.081,12.949,517.670,172.260,-64.117,367.960,-197.490,-451.020
343,52650.824000,279.722,3.521,-59.767,515.823,182.769,-70.753,30.960,-457.490,-596.020
344,52650.846000,268.849,-7.544,-91.642,507.217,195.974,-84.207,339.960,-314.490,-646.020
345,52650.881000,245.127,-17.603,-80.685,496.710,210.369,-86.852,-14.040,-106.490,-669.020
346,52650.921000,269.838,13.580,-41.837,485.181,218.951,-88.647,46.960,27.510,-568.020
347,52650.963000,252.046,26.656,-45.821,487.300,238.344,-90.173,-52.040,-55.490,-524.020
348,52651.3000,248.093,0.503,-47.813,481.580,247.025,-89.992,-51.040,-40.490,-392.020
349,52651.45000,243.151,15.591,-52.794,475.869,256.677,-89.790,-76.040,-1.490,-365.020
350,52651.85000,248.093,16.597,-47.813,474.902,256.667,-89.793,-23.040,8.510,-363.020
351,52651.121000,245.127,19.615,-48.809,465.308,265.268,-91.583,97.960,24.510,-372.020
352,52651.141000,252.046,11.568,-52.794,464.456,276.930,-90.345,-30.040,57.510,-351.020
353,52651.183000,250.069,30.680,-51.798,458.736,284.727,-86.262,-196.040,77.510,-328.020
354,52651.230000,245.127,26.656,-58.770,454.915,288.681,-81.279,-215.040,175.510,-333.020
355,52651.266000,246.116,32.692,-53.790,450.187,297.608,-70.303,-394.040,229.510,-315.020
356,52651.306000,238.208,47.780,-56.778,451.196,300.660,-64.349,-437.040,295.510,-317.020
357,52651.348000,240.185,65.886,-45.821,443.587,310.638,-48.453,-515.040,366.510,-351.020
358,52651.384000,270.826,47.780,-21.914,439.909,327.407,-34.360,-429.040,384.510,-468.020
359,52651.424000,278.734,52.809,1.992,434.218,334.600,-13.618,-862.040,546.510,-508.020
360,52651.466000,248.093,19.615,-122.521,425.591,339.693,1.187,-650.040,204.510,-537.020
361,52651.491000,265.884,-51.804,-269.946,421.810,350.183,-5.453,93.960,-441.490,-199.020
362,52651.527000,268.849,0.503,-200.218,421.738,349.493,-36.850,81.960,-1061.490,-65.020
363,52651.562000,226.347,33.697,-142.444,420.718,348.103,-55.515,-741.040,-1511.490,232.980
364,52651.606000,202.625,44.762,-88.654,425.491,344.893,-71.267,-1460.040,-1627.490,467.980
365,52651.646000,208.556,42.750,-55.782,427.318,338.590,-93.958,-1535.040,-1584.490,537.980
366,52651.689000,220.417,53.815,-39.844,427.165,327.436,-115.781,-769.040,-1323.490,486.980
367,52651.727000,230.301,69.910,-28.887,424.220,328.767,-142.235,-225.040,-1072.490,413.980
368,52651.762000,225.359,84.998,-12.949,423.100,317.604,-164.060,108.960,-685.490,449.980
369,52651.782000,218.440,95.057,8.965,421.131,316.377,-174.879,182.960,-362.490,473.980
370,52651.823000,217.452,66.892,20.918,422.928,304.508,-185.926,-57.040,78.510,489.980
371,52651.865000,301.467,-88.016,-126.506,437.348,291.445,-168.533,-794.040,983.510,627.980
372,52651.903000,393.390,51.804,45.821,452.614,268.425,-163.128,770.960,722.510,480.980
373,52651.944000,373.622,108.134,-14.942,456.505,269.541,-158.192,-159.040,112.510,216.980
374,52651.986000,259.954,33.697,-97.619,455.488,265.541,-163.186,196.960,-2.490,128.980
375,52652.26000,235.243,9.556,-121.525,458.347,259.873,-157.422,-322.040,183.510,97.980
376,52652.67000,217.452,32.692,-100.607,465.189,265.009,-147.487,-75.040,447.510,92.980
377,52652.82000,240.185,28.668,-68.732,465.129,256.509,-136.888,-99.040,527.510,134.980
378,52652.123000,237.220,15.591,-56.778,469.087,262.674,-123.014,-126.040,446.510,105.980
379,52652.163000,235.243,17.603,-53.790,471.934,255.129,-114.349,-41.040,342.510,84.980
380,52652.203000,241.174,25.650,-46.817,477.785,259.155,-110.325,-12.040,234.510,91.980
381,52652.243000,234.255,4.527,-39.844,474.767,246.571,-107.669,-88.040,66.510,57.980
382,52652.284000,247.104,12.574,-43.829,476.763,252.458,-105.573,-23.040,-48.490,-13.020
383,52652.324000,249.081,8.550,-58.770,471.926,253.295,-109.487,46.960,-178.490,-182.020
384,52652.367000,270.826,20.621,-37.852,468.163,265.728,-116.083,-173.040,-329.490,-323.020
385,52652.403000,265.884,25.650,-50.802,464.332,270.458,-119.909,-243.040,-370.490,-434.020
386,52652.427000,256.000,26.656,-91.642,454.759,281.906,-124.579,-161.040,-379.490,-457.020
387,52652.467000,247.104,42.750,-120.529,445.168,291.413,-129.291,-63.040,-237.490,-340.020
388,52652.503000,227.336,6.538,-141.447,444.226,293.410,-126.307,-69.040,6.510,-41.020
389,52652.543000,216.463,39.733,-102.599,445.166,291.391,-130.272,550.960,202.510,143.980
390,52652.584000,199.660,44.762,-78.693,449.002,287.589,-128.387,671.960,330.510,266.980
391,52652.623000,188.788,61.862,-64.747,452.764,276.904,-130.578,766.960,379.510,229.980
392,52652.662000,171.985,75.945,-39.844,455.574,268.129,-133.709,609.960,398.510,81.980
393,52652.706000,231.290,-105.116,25.899,461.273,257.485,-134.913,1211.960,689.510,326.980
394,52652.726000,372.633,148.369,16.934,462.168,251.518,-141.909,330.960,1.510,-207.020
395,52652.763000,248.093,1.509,-67.735,456.393,256.143,-149.663,939.960,-466.490,-310.020
396,52652.804000,247.104,43.756,-114.553,455.399,256.760,-165.342,834.960,-188.490,-262.020
397,52652.859000,248.093,24.644,-94.630,450.550,255.720,-166.356,-11.040,36.510,-263.020
398,52652.887000,238.208,72.927,-94.630,448.716,265.475,-163.202,485.960,283.510,-171.020
399,52652.927000,239.197,26.656,-69.728,448.695,262.627,-160.323,-23.040,336.510,-77.020
400,52652.967000,245.127,19.615,-43.829,451.667,267.725,-150.397,91.960,278.510,-90.020
401,52653.4000,240.185,19.615,-48.809,447.768,264.775,-150.471,36.960,195.510,-84.020
402,52653.26000,244.139,22.633,-46.817,449.778,271.676,-146.391,14.960,129.510,-124.020
403,52653.66000,246.116,36.715,-40.840,448.788,269.682,-148.398,-32.040,15.510,-174.020
404,52653.111000,249.081,17.603,-45.821,445.909,271.638,-146.400,-9.040,-46.490,-240.020
405,52653.143000,240.185,40.739,-56.778,438.275,282.264,-145.199,-39.040,-52.490,-280.020
406,52653.183000,243.151,33.697,-52.794,435.479,293.821,-147.891,-64.040,-48.490,-303.020
407,52653.228000,244.139,38.727,-59.767,431.595,292.770,-149.883,-80.040,-34.490,-372.020
408,52653.268000,239.197,54.821,-59.767,429.783,304.487,-145.705,-90.040,-23.490,-434.020
409,52653.321000,241.174,48.786,-59.767,421.158,313.119,-146.512,-94.040,16.510,-476.020
410,52653.327000,239.197,49.792,-58.770,407.779,329.535,-144.214,-138.040,54.510,-566.020
411,52653.378000,243.151,55.827,-58.770,401.152,343.190,-138.041,-145.040,95.510,-644.020
412,52653.407000,241.174,66.892,-52.794,390.686,359.742,-130.831,-244.040,142.510,-766.020
413,52653.446000,251.058,77.957,-50.802,373.380,369.410,-124.769,-338.040,154.510,-818.020
414,52653.487000,274.780,88.016,-48.809,366.767,384.080,-116.612,-516.040,221.510,-827.020
415,52653.528000,326.178,27.662,-25.899,350.502,397.102,-90.860,-1048.040,515.510,-682.020
416,52653.563000,282.687,-78.963,-111.564,339.156,418.002,-61.981,-1547.040,-124.490,-415.020
417,52653.603000,280.710,-56.833,-174.319,335.312,419.971,-59.003,-473.040,-1056.490,104.980
418,52653.647000,239.197,10.562,-114.553,329.346,410.443,-92.570,1032.960,-1127.490,344.980
419,52653.663000,242.162,25.650,-107.580,329.085,390.336,-124.398,576.960,-1200.490,800.980
420,52653.703000,194.718,93.045,-62.755,336.717,381.458,-134.386,-438.040,-1262.490,1283.980
421,52653.752000,196.695,121.210,-53.790,344.330,369.753,-140.513,-770.040,-1045.490,1448.980
422,52653.786000,187.799,181.564,-22.911,358.659,352.290,-146.755,-366.040,-723.490,1261.980
423,52653.823000,217.452,149.375,-13.946,370.092,335.747,-153.962,104.960,-313.490,1108.980
424,52653.864000,241.174,166.475,-16.934,382.421,309.721,-151.572,-480.040,-109.490,1074.980
425,52653.906000,247.104,115.175,-10.957,394.019,305.325,-135.955,-1109.040,29.510,956.980
426,52653.943000,251.058,105.116,-6.973,407.494,295.986,-125.346,-435.040,312.510,814.980
427,52653.968000,246.116,52.809,3.984,416.113,285.542,-118.695,41.960,571.510,780.980
428,52654.6000,224.371,89.022,-145.432,425.717,275.280,-104.193,-40.040,484.510,431.980
429,52654.52000,344.958,-55.827,15.938,432.377,264.581,-108.339,929.960,307.510,346.980
430,52654.86000,256.988,15.591,-97.619,435.117,248.967,-113.583,369.960,-1.490,207.980
431,52654.131000,256.000,39.733,-73.712,436.089,249.904,-115.522,643.960,44.510,173.980
432,52654.168000,254.023,16.597,-89.650,438.876,238.261,-116.755,-103.040,22.510,240.980
433,52654.207000,246.116,6.538,-98.615,448.998,482.174,-104.455,-58.040,172.510,271.980
434,52654.247000,242.162,-11.568,-83.673,451.464,237.606,-107.917,-243.040,305.510,277.980
435,52654.275000,238.208,1.509,-53.790,455.236,225.260,-97.396,-222.040,294.510,317.980
436,52654.306000,246.116,-20.621,-43.829,454.260,222.532,-88.632,-195.040,169.510,320.980
437,52654.348000,245.127,-1.509,-53.790,461.995,221.680,-86.674,-240.040,50.510,270.980
438,52654.385000,253.035,-7.544,-28.887,462.927,217.828,-85.777,-340.040,-60.490,320.980
439,52654.426000,238.208,-10.562,-49.805,461.877,209.102,-84.992,-355.040,-264.490,305.980
440,52654.464000,254.023,-23.639,-50.802,460.844,203.181,-89.048,-479.040,-392.490,304.980
441,52654.506000,238.208,-11.568,-55.782,467.569,199.277,-93.043,-668.040,-586.490,329.980
442,52654.547000,242.162,-5.532,-69.728,464.558,191.159,-107.940,-535.040,-697.490,366.980
443,52654.587000,250.069,-12.574,-82.677,467.433,190.043,-115.804,-596.040,-809.490,470.980
444,52654.609000,270.826,9.556,-95.626,466.299,176.118,-130.825,-509.040,-846.490,499.980
445,52654.652000,290.595,4.527,-113.556,464.262,168.074,-142.776,-604.040,-829.490,434.980
446,52654.686000,301.467,41.745,-94.630,460.408,171.704,-152.510,-1365.040,-895.490,396.980
447,52654.726000,357.807,76.951,-16.934,455.562,172.455,-160.349,-1679.040,-1119.490,249.980
448,52654.778000,282.687,147.363,-3.984,447.873,180.794,-174.890,-2125.040,-1487.490,111.980
449,52654.819000,224.371,22.633,-123.518,439.296,197.796,-192.182,-2192.040,-1555.490,68.980
450,52654.846000,276.757,-43.756,-135.471,424.786,202.078,-211.731,-970.040,-1369.490,32.980
451,52654.887000,219.429,41.745,47.813,417.254,224.246,-215.178,-2381.040,-960.490,-95.020
452,52654.907000,174.950,12.574,-25.899,419.512,252.010,-189.059,-2056.040,474.510,-283.020
453,52654.948000,156.170,-0.503,-41.837,429.302,260.259,-171.204,-838.040,1638.510,-303.020
454,52654.988000,165.066,71.921,-111.564,450.727,265.342,-125.935,187.960,2731.510,-309.020
455,52655.26000,207.568,2.515,-175.315,470.201,265.854,-67.043,1074.960,3644.510,-306.020
456,52655.66000,288.618,-77.957,-258.988,483.814,260.484,-8.294,2238.960,3834.510,-253.020
457,52655.106000,274.780,-84.998,-320.747,487.911,275.905,29.322,3785.960,3261.510,-243.020
458,52655.146000,172.973,-29.674,-254.008,488.026,285.807,38.368,3334.960,2038.510,-166.020
459,52655.186000,74.131,-175.528,-492.078,497.659,284.629,24.633,1000.960,-103.490,304.980
460,52655.232000,303.444,-166.475,162.366,504.263,269.873,12.551,-524.040,-830.490,674.980
461,52655.246000,409.205,331.442,-40.840,508.983,263.513,-14.058,501.960,-900.490,-212.020
462,52655.286000,247.104,48.786,-132.482,506.917,256.072,-42.667,1446.960,-376.490,195.980
463,52655.326000,260.942,106.122,-118.537,510.808,259.842,-49.439,-59.040,-101.490,42.980
464,52655.367000,258.965,26.656,-63.751,514.621,253.170,-45.657,140.960,165.510,152.980
465,52655.407000,239.197,25.650,-46.817,511.647,244.534,-39.971,173.960,267.510,173.980
466,52655.456000,238.208,15.591,-19.922,513.563,242.611,-40.009,-156.040,138.510,138.980
467,52655.486000,239.197,17.603,-1.992,519.415,247.522,-39.888,13.960,-61.490,121.980
468,52655.526000,248.093,-3.521,-0.996,511.651,246.324,-46.796,-120.040,-521.490,-64.020
469,52655.546000,272.803,10.562,5.977,512.634,251.771,-64.324,-289.040,-963.490,-244.020
470,52655.586000,320.247,61.862,-16.934,506.828,257.863,-93.621,-216.040,-1384.490,-307.020
471,52655.626000,405.251,123.222,-12.949,492.262,259.836,-129.893,-578.040,-1704.490,-343.020
472,52655.666000,334.085,125.234,-9.961,472.995,272.765,-151.221,-562.040,-1558.490,-576.020
473,52655.706000,210.533,92.039,-112.560,465.382,287.986,-161.686,-272.040,-1174.490,-484.020
474,52655.747000,150.239,50.798,-56.778,454.819,298.325,-172.266,-5.040,-590.490,-283.020
475,52655.787000,151.228,86.004,20.918,455.907,307.417,-156.372,-598.040,461.510,-211.020
476,52655.828000,159.135,68.904,12.949,467.684,315.297,-112.042,-858.040,1187.510,-305.020
477,52655.847000,188.788,53.815,-27.891,475.565,317.616,-54.115,-600.040,2019.510,-250.020
478,52655.887000,246.116,46.774,-65.743,478.646,321.117,15.596,-388.040,2455.510,-138.020
479,52655.928000,308.386,23.639,-74.708,481.597,316.334,61.587,89.960,2600.510,25.980
480,52655.967000,321.236,12.574,-77.696,470.099,314.646,122.326,558.960,2502.510,119.980
481,52656.29000,282.687,48.786,-66.739,454.693,311.668,170.280,581.960,2116.510,178.980
482,52656.52000,273.792,27.662,-48.809,435.355,303.670,212.231,287.960,1785.510,239.980
483,52656.94000,244.139,5.532,-46.817,421.867,303.192,240.631,278.960,1203.510,269.980
484,52656.128000,233.266,14.585,-19.922,411.271,305.289,252.423,565.960,876.510,356.980
485,52656.168000,216.463,26.656,-9.961,406.433,303.473,260.218,371.960,417.510,389.980
486,52656.194000,230.301,-5.532,-33.868,409.263,296.640,257.130,520.960,-246.490,439.980
487,52656.228000,232.278,-34.703,11.953,422.795,301.066,231.759,1336.960,-516.490,519.980
488,52656.269000,298.502,12.574,43.829,430.521,308.930,188.801,2391.960,-792.490,576.980
489,52656.309000,273.792,177.540,-117.541,440.183,315.950,150.732,1117.960,-1097.490,482.980
490,52656.351000,235.243,23.639,17.930,458.422,308.600,117.264,648.960,-1112.490,516.980
491,52656.391000,249.081,14.585,-55.782,464.135,303.371,97.547,149.960,-814.490,466.980
492,52656.426000,267.861,52.809,-40.840,470.828,297.396,87.622,102.960,-490.490,329.980
493,52656.467000,256.988,46.774,-15.938,476.477,282.760,81.425,14.960,-321.490,338.980
494,52656.488000,255.012,17.603,-11.953,480.287,277.814,75.439,-30.040,-266.490,306.980
495,52656.528000,254.023,32.692,-44.825,484.164,278.801,74.489,-23.040,-92.490,263.980
496,52656.568000,257.977,32.692,-19.922,488.914,270.089,73.325,-159.040,-16.490,249.980
497,52656.608000,255.012,26.656,-18.926,493.668,260.535,78.026,-158.040,18.510,215.980
498,52656.651000,247.104,8.550,-26.895,490.756,259.536,77.998,-101.040,7.510,179.980
499,52656.691000,242.162,5.532,-23.907,497.490,254.834,81.830,-64.040,37.510,149.980
500,52656.728000,243.151,3.521,-18.926,493.616,254.753,79.859,32.960,42.510,106.980
501,52656.769000,248.093,3.521,-13.946,498.429,251.931,81.768,-8.040,-2.490,49.980
502,52656.789000,233.266,16.597,-8.965,498.399,249.881,76.819,20.960,-72.490,18.980
503,52656.831000,255.012,-3.521,3.984,495.492,249.810,74.850,7.960,-213.490,-101.020
504,52656.871000,309.375,-2.515,32.872,490.748,261.219,66.267,141.960,-403.490,-274.020
505,52656.914000,322.224,-7.544,8.965,488.826,265.731,51.653,321.960,-627.490,-560.020
506,52656.948000,299.490,-47.780,-41.837,478.370,287.655,38.389,81.960,-333.490,-684.020
507,52656.989000,276.757,-97.069,-88.654,468.797,299.103,33.719,-170.040,-128.490,-714.020
508,52657.34000,239.197,-120.204,-180.296,459.207,305.977,41.697,-510.040,254.510,-111.020
509,52657.69000,222.394,-105.116,-104.591,455.330,304.990,42.647,631.960,586.510,317.980
510,52657.109000,212.510,-84.998,-98.615,462.014,298.929,28.798,1933.960,787.510,881.980
511,52657.131000,227.336,-33.697,-96.623,468.587,281.239,15.670,2236.960,716.510,1193.980
512,52657.171000,246.116,-21.627,-80.685,486.668,253.004,3.314,1488.960,537.510,1439.980
513,52657.211000,246.116,15.591,-80.685,498.882,216.191,0.561,658.960,497.510,1519.980
514,52657.251000,245.127,21.627,-76.700,511.050,171.891,10.391,-453.040,290.510,1483.980
515,52657.291000,244.139,34.703,-54.786,515.568,138.066,14.553,-680.040,131.510,1369.980
516,52657.331000,248.093,62.868,-27.891,523.004,106.167,16.802,-472.040,52.510,940.980
517,52657.371000,240.185,63.874,-13.946,522.910,98.228,8.781,657.960,-9.490,335.980
518,52657.411000,229.313,92.039,5.977,525.745,92.323,3.752,1477.960,-193.490,101.980
519,52657.431000,222.394,52.809,-35.860,523.862,102.488,-18.581,1628.960,-626.490,-363.020
520,52657.472000,385.483,-101.092,342.661,527.659,100.066,-42.163,2577.960,-661.490,-648.020
521,52657.508000,363.737,-294.224,405.416,521.866,101.886,-45.077,3292.960,751.510,81.980
522,52657.549000,341.992,123.222,-91.642,520.034,114.295,-53.631,-134.040,-343.490,-346.020
523,52657.589000,259.954,19.615,41.837,512.377,128.221,-78.835,996.960,-749.490,-759.020
524,52657.629000,257.977,-68.904,-51.798,504.733,140.508,-90.347,1093.960,-570.490,-480.020
525,52657.669000,253.035,-10.562,-36.856,498.930,143.106,-102.069,-247.040,-310.490,-580.020
526,52657.709000,261.931,20.621,-3.984,495.230,161.428,-105.593,-312.040,-222.490,-506.020
527,52657.729000,251.058,6.538,-15.938,492.411,171.001,-110.290,111.960,-174.490,-320.020
528,52657.769000,248.093,-15.591,-10.957,489.596,180.616,-113.024,-371.040,-185.490,-255.020
529,52657.809000,256.988,-12.574,-16.934,482.838,182.449,-114.959,-318.040,-155.490,-225.020
530,52657.851000,252.046,1.509,-23.907,480.986,191.146,-115.751,-189.040,-78.490,-213.020
531,52657.892000,259.954,5.532,-14.942,475.198,193.010,-116.702,-198.040,-59.490,-191.020
532,52657.933000,255.012,-1.509,-17.930,478.206,203.739,-115.477,-274.040,-49.490,-201.020
533,52657.968000,256.000,-0.503,-30.879,475.356,208.608,-113.413,-286.040,3.510,-222.020
534,52658.8000,250.069,8.550,-34.864,476.346,209.718,-107.503,-263.040,142.510,-200.020
535,52658.48000,256.000,2.515,-27.891,474.483,215.675,-100.510,-242.040,241.510,-201.020
536,52658.68000,259.954,6.538,-17.930,475.554,225.480,-96.367,-251.040,279.510,-225.020
537,52658.108000,247.104,12.574,8.965,471.775,232.475,-85.433,-446.040,218.510,-254.020
538,52658.148000,254.023,32.692,30.879,468.945,238.423,-78.442,-576.040,14.510,-305.020
539,52658.197000,273.792,35.709,17.930,469.065,251.023,-79.143,-971.040,-549.490,-399.020
540,52658.232000,292.571,37.721,-66.739,451.706,257.541,-83.938,-1239.040,-892.490,-490.020
541,52658.271000,241.174,31.686,-93.634,446.143,279.167,-68.760,-3070.040,-849.490,-198.020
542,52658.311000,237.220,10.562,-197.230,445.305,288.327,-48.945,-3467.040,-935.490,32.980
543,52658.349000,233.266,21.627,-157.385,450.096,280.888,-36.351,-2209.040,-1039.490,226.980
544,52658.387000,207.568,39.733,-122.521,453.082,290.517,-41.035,-1368.040,-1084.490,216.980
545,52658.411000,206.579,50.798,-96.623,457.796,281.460,-57.897,-1335.040,-1082.490,150.980
546,52658.452000,216.463,36.715,-75.704,458.797,287.078,-67.577,-1342.040,-984.490,90.980
547,52658.493000,229.313,39.733,-50.802,458.827,292.645,-79.221,-1003.040,-814.490,11.980
548,52658.531000,234.255,45.768,-45.821,456.859,293.187,-97.846,-102.040,-520.490,-71.020
549,52658.571000,221.405,60.857,-30.879,452.931,289.956,-110.674,404.960,-272.490,-101.020
550,52658.619000,207.568,-14.585,-14.942,455.837,292.660,-121.396,804.960,78.510,-65.020
551,52658.649000,281.699,-75.945,138.459,456.674,281.731,-133.404,1578.960,813.510,-48.020
552,52658.671000,395.367,6.538,55.782,468.118,265.296,-135.706,629.960,400.510,572.980
553,52658.726000,250.069,52.809,-80.685,473.955,266.539,-125.860,-935.040,-21.490,241.980
554,52658.749000,273.792,116.181,-78.693,478.700,256.900,-125.083,558.960,241.510,91.980
555,52658.789000,254.023,-3.521,-89.650,479.625,252.098,-123.226,46.960,229.510,174.980
556,52658.829000,240.185,1.509,-83.673,482.574,255.211,-115.306,75.960,391.510,56.980
557,52658.869000,243.151,25.650,-58.770,482.491,245.610,-110.616,291.960,479.510,53.980
558,52658.911000,249.081,47.780,-33.868,487.395,250.706,-101.666,173.960,366.510,61.980
559,52658.953000,243.151,18.609,-29.883,490.269,247.822,-101.724,87.960,120.510,122.980
560,52658.992000,252.046,7.544,-42.833,490.187,239.105,-100.937,4.960,-37.490,133.980
561,52659.11000,247.104,0.503,-57.774,487.299,240.976,-102.863,-65.040,-78.490,42.980
562,52659.51000,250.069,-1.509,-58.770,491.175,241.078,-99.911,-137.040,-51.490,-68.020
563,52659.91000,250.069,28.668,-61.759,485.441,248.745,-101.714,-70.040,5.510,-147.020
564,52659.132000,254.023,17.603,-60.763,484.495,250.699,-100.692,-64.040,92.510,-176.020
565,52659.171000,242.162,22.633,-58.770,483.591,255.695,-93.718,-80.040,158.510,-194.020
566,52659.214000,244.139,20.621,-51.798,481.670,256.690,-91.739,-29.040,162.510,-208.020
567,52659.249000,238.208,29.674,-56.778,481.771,266.464,-88.580,54.960,173.510,-231.020
568,52659.289000,246.116,22.633,-55.782,476.053,274.282,-83.515,36.960,216.510,-230.020
569,52659.309000,249.081,27.662,-48.809,472.194,274.352,-78.618,45.960,241.510,-251.020
570,52659.349000,248.093,29.674,-47.813,474.230,284.144,-75.455,0.960,286.510,-266.020
571,52659.389000,247.104,25.650,-33.868,469.399,283.277,-68.620,-20.040,273.510,-308.020
572,52659.429000,247.104,45.768,-34.864,465.633,293.034,-64.488,62.960,242.510,-370.020
573,52659.469000,244.139,39.733,-28.887,458.041,307.587,-61.239,38.960,218.510,-388.020
574,52659.509000,244.139,44.762,-25.899,452.347,319.159,-61.975,55.960,154.510,-449.020
575,52659.549000,247.104,47.780,-27.891,445.626,322.221,-52.115,7.960,117.510,-499.020
576,52659.591000,245.127,53.815,-39.844,439.958,336.684,-53.767,2.960,161.510,-559.020
577,52659.612000,247.104,60.857,-31.875,428.396,340.541,-49.783,-20.040,232.510,-609.020
578,52659.658000,250.069,70.916,-35.860,417.968,360.976,-42.487,-152.040,297.510,-653.020
579,52659.696000,252.046,68.904,-12.949,406.560,378.641,-28.389,-267.040,349.510,-751.020
580,52659.729000,269.838,57.839,3.984,389.293,392.214,-21.260,-371.040,295.510,-840.020
581,52659.774000,283.676,56.833,-8.965,373.978,405.957,-7.258,-284.040,352.510,-795.020
582,52659.809000,320.247,25.650,-30.879,359.622,417.876,11.609,-535.040,531.510,-603.020
583,52659.849000,273.792,-38.727,-182.288,352.814,413.064,16.391,-630.040,-358.490,2.980
584,52659.891000,272.803,-23.639,-137.463,352.808,414.768,5.642,197.960,-965.490,341.980
585,52659.931000,228.324,2.515,-110.568,359.325,397.424,-35.917,836.960,-1136.490,800.980
586,52659.951000,213.498,76.951,-87.658,362.019,383.126,-69.572,376.960,-1273.490,985.980
587,52659.992000,198.672,107.128,-54.786,369.533,366.072,-98.373,5.960,-1307.490,1043.980
588,52660.36000,190.764,113.163,-45.821,376.122,352.934,-125.129,562.960,-1042.490,975.980
589,52660.72000,196.695,176.534,-61.759,374.006,339.733,-150.924,977.960,-760.490,842.980
590,52660.114000,217.452,156.417,-69.728,379.573,319.898,-172.927,782.960,-367.490,708.980
591,52660.156000,240.185,124.228,-59.767,381.307,302.139,-187.047,423.960,-214.490,642.980
592,52660.189000,232.278,88.016,-55.782,385.970,285.552,-193.289,80.960,-159.490,787.980
593,52660.243000,220.417,125.234,38.848,389.726,273.055,-189.636,-241.040,-53.490,757.980
594,52660.249000,221.405,228.841,242.054,398.425,270.421,-180.850,-604.040,488.510,269.980
595,52660.301000,307.398,41.745,-77.696,406.996,256.871,-183.094,973.960,436.510,418.980
596,52660.331000,358.795,-64.880,-26.895,405.967,250.993,-185.188,25.960,-15.490,300.980
597,52660.371000,253.035,-0.503,-84.669,410.729,244.158,-189.252,238.960,-88.490,21.980
598,52660.411000,251.058,23.639,-116.545,408.766,240.342,-185.418,-49.040,-5.490,153.980
599,52660.452000,253.035,31.686,-96.623,414.617,244.368,-181.394,-322.040,229.510,280.980
600,52660.492000,236.232,-16.597,-87.658,420.407,240.757,-171.655,-404.040,275.510,314.980
601,52660.533000,230.301,-12.574,-80.685,425.155,228.506,-157.207,-370.040,340.510,279.980
602,52660.559000,233.266,-1.509,-60.763,431.046,236.438,-152.116,-242.040,339.510,266.980
603,52660.593000,235.243,-7.544,-54.786,433.898,229.821,-145.392,-106.040,256.510,247.980
604,52660.633000,241.174,-4.527,-49.805,438.704,225.165,-138.620,-165.040,150.510,249.980
605,52660.671000,244.139,-20.621,-50.802,444.489,222.395,-134.747,-279.040,64.510,283.980
606,52660.716000,254.023,-3.521,-48.809,446.396,218.617,-130.904,-354.040,-21.490,273.980
607,52660.757000,247.104,-17.603,-47.813,449.253,213.812,-130.024,-382.040,-96.490,285.980
608,52660.792000,241.174,-30.680,-39.844,449.213,209.907,-131.092,-319.040,-260.490,305.980
609,52660.836000,251.058,-14.585,-47.813,447.196,202.057,-134.212,-219.040,-386.490,306.980
610,52660.871000,250.069,-6.538,-53.790,448.178,204.849,-140.032,-433.040,-547.490,337.980
611,52660.896000,242.162,-6.538,-70.724,447.984,188.021,-155.116,-187.040,-615.490,385.980
612,52660.948000,256.000,-22.633,-84.669,448.868,181.947,-167.017,-352.040,-646.490,493.980
613,52660.972000,262.919,-9.556,-105.588,445.872,173.979,-175.045,-528.040,-682.490,548.980
614,52661.13000,260.942,-1.509,-101.603,441.893,164.081,-182.138,-832.040,-648.490,607.980
615,52661.62000,282.687,6.538,-89.650,446.707,163.028,-188.035,-1165.040,-719.490,644.980
616,52661.104000,312.340,104.110,-55.782,440.964,170.609,-193.763,-1942.040,-1010.490,682.980
617,52661.147000,358.795,173.517,-27.891,436.212,180.184,-197.483,-4106.040,-1694.490,709.980
618,52661.172000,310.363,-9.556,-173.323,427.599,192.440,-209.978,-3016.040,-1857.490,655.980
619,52661.192000,263.907,25.650,-177.307,412.197,204.479,-229.356,-2038.040,-1718.490,313.980
620,52661.233000,187.799,43.756,38.848,403.792,235.462,-228.686,-3207.040,-1258.490,-44.020
621,52661.271000,147.274,19.615,-25.899,398.226,257.067,-214.489,-2173.040,32.510,-443.020
622,52661.317000,137.390,1.509,-55.782,406.235,280.853,-195.312,-542.040,1063.510,-596.020
623,52661.352000,160.124,48.786,-135.471,417.013,290.190,-172.527,1061.960,2295.510,-783.020
624,52661.393000,184.834,-11.568,-166.350,433.560,294.838,-144.930,1179.960,2750.510,-838.020
625,52661.433000,204.602,-73.933,-206.195,454.948,296.922,-103.651,1278.960,3003.510,-378.020
626,52661.471000,253.035,-72.927,-243.051,482.997,287.444,-61.634,1895.960,3091.510,-71.020
627,52661.496000,262.919,-59.851,-253.012,495.640,287.329,-28.267,2727.960,2954.510,-109.020
628,52661.531000,262.919,-64.880,-249.027,499.525,284.864,-9.681,3332.960,2248.510,-197.020
629,52661.571000,203.614,-34.703,-187.268,500.475,282.068,-4.838,2779.960,1336.510,-12.020
630,52661.612000,109.714,-154.405,-484.109,504.205,270.197,-16.862,1635.960,-411.490,462.980
631,52661.652000,218.440,-140.322,108.576,508.922,262.046,-36.646,-1036.040,-892.490,351.980
632,52661.691000,347.923,215.764,-82.677,508.861,261.463,-63.137,1000.960,-573.490,-37.020
633,52661.732000,274.780,71.921,-99.611,513.601,255.297,-80.915,660.960,-643.490,96.980
634,52661.773000,252.046,9.556,-135.471,515.554,259.890,-93.558,99.960,-339.490,67.980
635,52661.811000,241.174,30.680,-120.529,514.516,253.041,-95.673,17.960,49.510,41.980
636,52661.837000,242.162,39.733,-82.677,513.482,244.466,-88.021,-41.040,257.510,104.980
637,52661.873000,234.255,23.639,-62.755,518.443,255.387,-78.942,22.960,316.510,98.980
638,52661.917000,238.208,32.692,-48.809,516.476,250.665,-72.186,-33.040,264.510,124.980
639,52661.961000,243.151,17.603,-45.821,522.175,239.136,-69.488,70.960,136.510,106.980
640,52661.997000,237.220,6.538,-55.782,519.320,244.847,-73.290,45.960,46.510,56.980
641,52662.32000,225.359,5.532,-71.720,514.419,237.140,-68.568,24.960,62.510,23.980
642,52662.72000,243.151,8.550,-63.751,517.399,244.957,-67.408,-53.040,129.510,50.980
643,52662.119000,259.954,21.627,-49.805,519.349,245.127,-60.535,-131.040,133.510,4.980
644,52662.133000,238.208,41.745,-29.883,517.384,242.174,-61.585,-186.040,-55.490,-57.020
645,52662.172000,280.710,33.697,-1.992,514.491,244.001,-65.474,-343.040,-282.490,-107.020
646,52662.226000,280.710,47.780,-39.844,511.611,247.705,-72.262,-484.040,-617.490,-176.020
647,52662.253000,271.815,59.851,-71.720,513.596,254.369,-78.975,-385.040,-673.490,-134.020
648,52662.299000,260.942,79.969,-71.720,508.779,258.033,-86.749,-720.040,-608.490,-93.020
649,52662.338000,220.417,107.128,-0.996,506.931,266.773,-85.578,-1165.040,-393.490,-0.020
650,52662.376000,251.058,88.016,16.934,506.987,268.197,-64.952,-1377.040,25.510,-44.020
651,52662.416000,249.081,99.081,22.911,504.206,276.367,-45.164,-947.040,328.510,-148.020
652,52662.436000,245.127,77.957,12.949,512.069,282.030,-11.679,-674.040,724.510,-154.020
653,52662.472000,257.977,54.821,-17.930,514.078,282.761,20.703,-287.040,995.510,-142.020
654,52662.514000,257.977,52.809,0.000,510.215,278.387,44.134,217.960,1296.510,-178.020
655,52662.556000,263.907,54.821,0.000,505.463,280.044,77.503,207.960,1431.510,-151.020
656,52662.596000,244.139,14.585,-14.942,493.970,282.800,119.709,85.960,1402.510,-134.020
657,52662.636000,252.046,31.686,-1.992,482.479,287.347,155.089,199.960,1405.510,-121.020
658,52662.676000,253.035,14.585,-0.996,466.125,289.840,187.472,264.960,1379.510,-105.020
659,52662.716000,239.197,6.538,-17.930,456.485,286.552,218.760,301.960,1209.510,-40.020
660,52662.736000,228.324,0.503,0.996,448.818,291.569,229.642,233.960,998.510,56.980
661,52662.772000,218.440,-13.580,-3.984,437.223,289.837,244.289,562.960,617.510,118.980
662,52662.812000,221.405,-3.521,0.000,426.677,298.579,249.364,860.960,309.510,152.980
663,52662.852000,220.417,-4.527,-15.938,432.521,306.058,233.852,1100.960,-193.490,252.980
664,52662.893000,231.290,25.650,-19.922,438.343,313.320,208.528,1502.960,-569.490,258.980
665,52662.934000,279.722,138.310,109.572,440.319,324.299,177.395,1488.960,-574.490,300.980
666,52662.977000,312.340,44.762,-5.977,452.717,311.261,152.615,-129.040,-1336.490,413.980
667,52663.16000,255.012,80.974,-92.638,459.381,304.121,133.838,717.960,-995.490,530.980
668,52663.56000,256.000,64.880,-26.895,472.868,302.830,113.244,-88.040,-723.490,387.980
669,52663.77000,264.896,58.845,-43.829,478.554,292.940,102.249,104.960,-556.490,413.980
670,52663.118000,255.012,38.727,-35.860,487.118,281.094,89.256,378.960,-391.490,335.980
671,52663.154000,250.069,51.804,-22.911,489.007,278.913,77.443,268.960,-286.490,286.980
672,52663.194000,258.965,25.650,-7.969,494.674,267.082,66.405,201.960,-299.490,333.980
673,52663.236000,257.977,10.562,-20.918,494.691,269.886,61.564,26.960,-309.490,259.980
674,52663.273000,249.081,25.650,-31.875,504.317,265.989,56.595,88.960,-304.490,173.980
675,52663.313000,251.058,36.715,-32.872,503.209,253.186,48.463,13.960,-311.490,156.980
676,52663.354000,255.012,26.656,-36.856,505.135,254.003,40.640,88.960,-311.490,112.980
677,52663.374000,237.220,31.686,-45.821,504.119,250.003,35.646,-44.040,-246.490,109.980
678,52663.413000,248.093,-10.562,-33.868,509.955,254.762,28.899,-36.040,-287.490,79.980
679,52663.457000,253.035,27.662,-63.751,508.995,256.587,24.034,35.960,-196.490,29.980
680,52663.507000,251.058,13.580,-54.786,506.013,248.749,21.893,-93.040,-106.490,46.980
681,52663.537000,239.197,32.692,-31.875,510.838,246.919,24.804,-190.040,-82.490,32.980
682,52663.574000,258.965,14.585,-10.957,506.985,249.686,19.954,-72.040,-237.490,-20.020
683,52663.614000,311.351,17.603,-0.996,506.012,252.265,5.300,-130.040,-608.490,-215.020
684,52663.656000,306.409,75.945,-15.938,502.245,265.539,-7.162,-287.040,-693.490,-403.020
685,52663.676000,236.232,41.745,-100.607,493.592,273.890,-20.725,269.960,-759.490,-474.020
686,52663.716000,200.649,40.739,-160.374,490.719,280.313,-36.279,628.960,-517.490,-353.020
687,52663.756000,169.019,-0.503,-110.568,482.061,288.621,-51.803,854.960,-117.490,-364.020
688,52663.796000,171.985,80.974,-86.661,479.245,299.099,-59.422,869.960,419.510,-283.020
689,52663.837000,156.170,32.692,-123.518,479.272,300.243,-51.551,426.960,654.510,-122.020
690,52663.877000,128.494,37.721,-196.233,484.977,287.894,-42.006,898.960,783.510,46.980
691,52663.913000,273.792,-143.340,6.973,490.801,286.375,-25.357,472.960,827.510,77.980
692,52663.956000,402.286,246.947,36.856,494.646,282.659,-19.547,-346.040,543.510,-148.020
693,52663.996000,250.069,106.122,-48.809,489.931,294.349,-15.375,766.960,278.510,-119.020
694,52664.16000,242.162,3.521,-65.743,487.937,287.598,-12.587,-221.040,258.510,11.980
695,52664.57000,239.197,46.774,-15.938,493.825,293.739,-0.670,-373.040,294.510,23.980
696,52664.97000,247.104,18.609,-0.996,492.826,289.026,6.088,-327.040,123.510,-32.020
697,52664.143000,264.896,12.574,29.883,489.929,289.926,4.140,-375.040,-365.490,-199.020
698,52664.177000,298.502,27.662,29.883,482.262,301.112,-13.280,-399.040,-871.490,-315.020
699,52664.216000,378.564,51.804,5.977,473.632,312.333,-28.739,-55.040,-1278.490,-554.020
700,52664.259000,354.842,42.750,-10.957,458.321,334.922,-53.767,-255.040,-1032.490,-703.020
701,52664.294000,230.301,-99.081,-146.428,440.960,343.188,-67.350,-253.040,-610.490,-600.020
702,52664.314000,168.031,-114.169,-113.556,424.605,351.830,-64.250,-127.040,74.510,-153.020
703,52664.362000,151.228,-99.081,-64.747,429.531,358.889,-54.277,489.960,1085.510,257.980
704,52664.398000,181.869,-40.739,-91.642,431.356,343.762,-36.957,503.960,1434.510,516.980
705,52664.441000,239.197,-46.774,-129.494,437.088,332.557,-19.541,341.960,1398.510,1034.980
706,52664.476000,266.873,-44.762,-165.354,451.468,316.474,-7.120,339.960,1048.510,1310.980
707,52664.516000,252.046,-26.656,-177.307,467.556,277.972,-0.095,271.960,587.510,1417.980
708,52664.554000,238.208,26.656,-176.311,481.757,246.960,-4.676,-113.040,-55.490,1498.980
709,52664.596000,228.324,35.709,-168.342,498.771,208.079,-15.310,-581.040,-538.490,1472.980
710,52664.617000,231.290,42.750,-137.463,507.948,161.140,-35.946,-609.040,-920.490,1258.980
711,52664.657000,236.232,59.851,-95.626,510.617,143.089,-63.799,-254.040,-965.490,869.980
712,52664.699000,223.382,60.857,-56.778,515.345,135.046,-78.678,733.960,-773.490,185.980
713,52664.736000,218.440,51.804,-29.883,514.261,128.629,-105.300,1447.960,-511.490,-107.020
714,52664.779000,208.556,66.892,-18.926,510.304,124.233,-126.981,1837.960,-286.490,-289.020
715,52664.814000,223.382,143.340,28.887,508.283,118.109,-139.869,1359.960,-159.490,-402.020
716,52664.856000,272.803,-3.521,26.895,512.113,115.126,-144.831,1083.960,-40.490,-410.020
717,52664.896000,349.900,-108.134,75.704,515.034,115.327,-136.975,4067.960,967.510,-676.020
718,52664.936000,357.807,-79.969,24.903,515.949,109.554,-135.140,2441.960,695.510,-468.020
719,52664.959000,319.259,29.674,-17.930,512.284,129.969,-131.752,-336.040,-195.490,-893.020
720,52664.994000,289.606,61.862,-72.716,506.544,139.341,-144.305,1368.960,-81.490,-648.020
721,52665.34000,256.000,-54.821,-52.794,498.963,156.633,-148.841,236.960,27.510,-679.020
722,52665.82000,265.884,41.745,-26.895,496.155,166.314,-148.632,-239.040,36.510,-653.020
723,52665.116000,235.243,14.585,-20.918,493.368,177.957,-147.398,-254.040,-37.490,-419.020
724,52665.154000,236.232,-36.715,-5.977,489.614,189.592,-146.167,-667.040,-147.490,-319.020
725,52665.197000,239.197,-5.532,-4.981,486.771,196.295,-148.967,-239.040,-245.490,-332.020
726,52665.237000,251.058,6.538,-43.829,480.122,209.734,-152.605,-38.040,-290.490,-360.020
727,52665.256000,251.058,29.674,-42.833,475.299,212.471,-158.438,-18.040,-259.490,-364.020
728,52665.296000,261.931,11.568,-61.759,469.613,225.877,-164.037,-97.040,-210.490,-326.020
729,52665.337000,254.023,17.603,-73.712,465.849,236.540,-162.827,-153.040,-23.490,-338.020
730,52665.377000,254.023,37.721,-71.720,461.098,243.483,-153.857,-285.040,253.510,-311.020
731,52665.423000,250.069,25.650,-46.817,461.147,247.474,-148.865,-272.040,368.510,-293.020
732,52665.457000,252.046,22.633,-29.883,459.266,250.605,-138.012,-364.040,350.510,-340.020
733,52665.497000,243.151,26.656,-1.992,454.533,259.490,-128.999,-381.040,253.510,-419.020
734,52665.536000,255.012,38.727,6.973,447.994,281.905,-121.651,-585.040,-119.490,-522.020
735,52665.554000,266.873,50.798,-37.852,440.356,292.487,-122.413,-877.040,-322.490,-566.020
736,52665.594000,286.641,29.674,-63.751,429.882,307.206,-110.340,-1176.040,-274.490,-530.020
737,52665.639000,268.849,-58.845,-166.350,424.239,321.022,-97.297,-1565.040,-469.490,-212.020
738,52665.674000,236.232,-11.568,-267.953,428.186,327.079,-88.328,-2646.040,-1145.490,372.980
739,52665.721000,232.278,-13.580,-175.315,428.198,328.956,-91.228,-2087.040,-1490.490,559.980
740,52665.762000,207.568,20.621,-116.545,432.921,320.869,-108.069,-1640.040,-1470.490,716.980
741,52665.796000,210.533,25.650,-67.735,436.693,312.924,-118.044,-1791.040,-1374.490,777.980
742,52665.836000,206.579,32.692,-22.911,429.753,298.036,-130.157,-1603.040,-1221.490,700.980
743,52665.876000,200.649,45.768,-12.949,424.924,302.477,-146.740,-758.040,-855.490,540.980
744,52665.899000,202.625,77.957,77.696,429.602,287.789,-154.902,-31.040,-343.490,408.980
745,52665.941000,291.583,61.862,459.206,427.690,288.870,-148.998,-553.040,987.510,460.980
746,52665.978000,453.683,55.827,4.981,440.190,278.572,-137.432,1006.960,794.510,371.980
747,52666.17000,291.583,70.916,-55.782,443.996,271.835,-136.593,358.960,334.510,2.980
748,52666.78000,260.942,51.804,-100.607,443.992,271.792,-138.555,456.960,394.510,-43.020
749,52666.96000,254.023,7.544,-79.689,447.957,278.906,-125.640,-36.040,492.510,-97.020
750,52666.143000,241.174,52.809,-66.739,449.897,277.221,-114.886,87.960,596.510,-79.020
751,52666.178000,240.185,42.750,-36.856,451.885,280.389,-104.024,99.960,550.510,-58.020
752,52666.206000,242.162,21.627,-22.911,450.959,282.537,-94.172,-16.040,354.510,-78.020
753,52666.241000,248.093,19.615,-30.879,447.084,280.687,-88.337,124.960,252.510,-118.020
754,52666.291000,250.069,36.715,-28.887,448.061,281.667,-88.313,78.960,100.510,-148.020
755,52666.318000,243.151,32.692,-50.802,447.195,291.431,-85.157,91.960,103.510,-182.020
756,52666.358000,248.093,36.715,-45.821,442.395,295.268,-85.082,4.960,159.510,-225.020
757,52666.401000,254.023,31.686,-35.860,441.477,300.134,-83.995,169.960,259.510,-257.020
758,52666.436000,246.116,46.774,-24.903,437.574,295.372,-78.225,127.960,248.510,-289.020
759,52666.476000,246.116,29.674,-24.903,430.921,307.021,-75.038,144.960,211.510,-359.020
760,52666.501000,248.093,42.750,-19.922,428.148,319.678,-71.821,31.960,182.510,-441.020
761,52666.536000,251.058,63.874,-38.848,420.515,330.304,-70.621,-31.040,201.510,-488.020
762,52666.581000,248.093,59.851,-38.848,409.933,334.299,-60.748,-174.040,292.510,-524.020
763,52666.617000,256.000,69.910,-28.887,401.402,349.986,-49.630,-403.040,375.510,-587.020
764,52666.657000,263.907,82.986,-6.973,394.715,356.025,-36.762,-649.040,383.510,-616.020
765,52666.703000,265.884,64.880,0.996,378.434,368.896,-17.878,-836.040,245.510,-582.020
766,52666.737000,325.189,-40.739,-57.774,375.693,381.856,-0.925,-534.040,128.510,-449.020
767,52666.781000,279.722,-33.697,-180.296,371.854,385.637,-3.791,-227.040,-304.490,8.980
768,52666.818000,234.255,-29.674,-145.432,369.757,370.861,-12.949,-676.040,-1164.490,347.980
769,52666.841000,233.266,-17.603,-135.471,369.707,369.502,-30.631,-534.040,-1443.490,514.980
770,52666.876000,213.498,31.686,-97.619,374.409,358.567,-44.593,-519.040,-1529.490,732.980
771,52666.918000,203.614,58.845,-53.790,376.228,350.431,-62.422,-205.040,-1461.490,732.980
772,52666.958000,208.556,96.063,-26.895,378.004,340.116,-91.086,672.960,-1054.490,680.980
773,52666.998000,217.452,101.092,-25.899,381.636,322.031,-120.900,1016.960,-681.490,628.980
774,52667.39000,225.359,173.517,25.899,383.307,299.267,-141.996,715.960,-273.490,753.980
775,52667.79000,271.815,221.800,208.187,395.866,295.700,-133.222,-731.040,106.510,645.980
776,52667.119000,290.595,138.310,123.518,407.449,287.636,-107.880,-605.040,794.510,616.980
777,52667.144000,320.247,237.894,8.965,404.493,281.804,-107.035,941.960,431.510,-22.020
778,52667.179000,266.873,6.538,-29.883,412.171,276.011,-109.109,563.960,187.510,405.980
779,52667.218000,233.266,-31.686,-85.665,411.147,270.177,-109.240,-315.040,-51.490,167.980
780,52667.258000,251.058,53.815,-85.665,415.041,273.084,-111.129,317.960,106.510,100.980
781,52667.302000,227.336,3.521,-76.700,420.805,268.351,-108.280,77.960,192.510,216.980
782,52667.339000,248.093,3.521,-26.895,427.518,262.570,-109.375,207.960,195.510,221.980
783,52667.388000,252.046,30.680,-49.805,426.494,255.851,-105.603,194.960,63.510,257.980
784,52667.427000,255.012,2.515,-59.767,427.367,246.152,-105.817,73.960,51.510,258.980
785,52667.437000,255.012,-10.562,-51.798,432.152,240.417,-103.973,92.960,81.510,206.980
786,52667.479000,252.046,0.503,-58.770,435.994,237.542,-104.028,95.960,82.510,177.980
787,52667.531000,242.162,-6.538,-52.794,437.924,236.633,-102.083,61.960,49.510,163.980
788,52667.558000,243.151,2.515,-49.805,437.841,227.917,-101.296,126.960,21.510,165.980
789,52667.598000,243.151,-9.556,-30.879,440.765,230.793,-104.168,79.960,-93.490,208.980
790,52667.638000,246.116,-17.603,-34.864,437.750,220.883,-112.240,58.960,-342.490,174.980
791,52667.678000,240.185,1.509,-57.774,433.863,221.558,-124.001,-66.040,-462.490,186.980
792,52667.719000,247.104,-20.621,-52.794,438.680,221.411,-132.820,-242.040,-606.490,230.980
793,52667.759000,249.081,-16.597,-78.693,435.712,216.356,-140.784,-331.040,-680.490,216.980
794,52667.779000,255.012,2.515,-68.732,433.666,207.340,-152.756,-497.040,-803.490,365.980
795,52667.821000,247.104,-4.527,-101.603,430.690,203.083,-168.547,-478.040,-871.490,407.980
796,52667.857000,237.220,7.544,-111.564,432.522,194.192,-176.586,-405.040,-823.490,473.980
797,52667.897000,263.907,-0.503,-121.525,426.744,199.680,-189.225,-497.040,-804.490,539.980
798,52667.938000,289.606,-0.503,-117.541,427.623,192.678,-199.185,-806.040,-815.490,525.980
799,52667.986000,337.050,77.957,-74.708,422.757,191.466,-208.048,-1315.040,-1073.490,468.980
800,52668.18000,386.471,185.587,17.930,410.240,200.728,-222.579,-1883.040,-1456.490,168.980
801,52668.72000,279.722,150.381,-51.798,393.089,229.490,-230.803,-2990.040,-1936.490,4.980
802,52668.113000,270.826,-72.927,-186.272,383.484,238.867,-241.402,-2190.040,-1749.490,-109.020
803,52668.144000,278.734,-79.969,-194.241,368.209,262.686,-254.635,-561.040,-1182.490,-86.020
804,52668.159000,153.205,43.756,11.953,365.425,275.236,-256.324,-1846.040,-523.490,-115.020
805,52668.198000,94.888,-11.568,-21.914,374.316,290.294,-237.338,-1057.040,894.510,-217.020
806,52668.241000,94.888,23.639,-86.661,389.022,302.862,-201.724,-575.040,1829.510,-340.020
807,52668.281000,149.251,9.556,-146.428,418.192,309.833,-162.282,209.960,2711.510,-395.020
808,52668.321000,216.463,-38.727,-225.121,450.218,309.345,-110.250,1106.960,3423.510,-314.020
809,52668.373000,286.641,-80.974,-278.910,465.695,302.441,-78.009,1947.960,3514.510,-125.020
810,52668.382000,297.514,-33.697,-278.910,486.934,289.013,-36.093,2348.960,2985.510,120.980
811,52668.423000,259.954,-51.804,-267.953,495.604,277.296,0.930,2438.960,2276.510,238.980
812,52668.472000,210.533,-52.809,-181.292,499.482,274.766,16.572,1596.960,1076.510,335.980
813,52668.499000,115.645,-80.974,-464.187,505.136,260.174,12.338,996.960,90.510,404.980
814,52668.538000,323.212,3.521,54.786,508.916,254.947,-6.403,84.960,-686.490,22.980
815,52668.579000,248.093,97.069,-70.724,505.018,257.283,-30.876,1206.960,-643.490,-111.020
816,52668.624000,256.000,31.686,-112.560,503.937,249.140,-47.730,359.960,-431.490,13.980
817,52668.662000,261.931,60.857,-108.576,501.996,249.941,-54.581,11.960,-106.490,81.980
818,52668.716000,256.988,21.627,-79.689,507.734,242.317,-50.815,87.960,160.510,129.980
819,52668.723000,243.151,28.668,-56.778,510.714,249.249,-45.752,-107.040,293.510,149.980
820,52668.762000,246.116,18.609,-42.833,512.565,238.783,-37.154,-134.040,250.510,155.980
821,52668.803000,228.324,8.550,-28.887,511.613,238.924,-30.289,-231.040,80.510,98.980
822,52668.839000,249.081,-8.550,22.911,513.558,240.798,-34.166,-312.040,-244.490,35.980
823,52668.879000,273.792,4.527,2.988,508.724,243.427,-44.905,-144.040,-675.490,-91.020
824,52668.918000,314.317,70.916,-10.957,508.752,248.971,-57.530,-472.040,-880.490,-103.020
825,52668.961000,313.328,126.240,-26.895,503.928,254.340,-76.054,-876.040,-1274.490,-307.020
826,52669.2000,278.734,99.081,-66.739,493.254,256.566,-102.505,-210.040,-1167.490,-314.020
827,52669.22000,211.521,82.986,-71.720,483.691,269.870,-111.055,-671.040,-777.490,-180.020
828,52669.62000,184.834,69.910,10.957,482.724,268.976,-107.155,-591.040,-25.490,-61.020
829,52669.98000,194.718,102.098,31.875,488.677,280.143,-87.281,-676.040,650.510,-129.020
830,52669.138000,208.556,93.045,19.922,496.497,279.226,-44.136,-799.040,1328.510,-135.020
831,52669.179000,238.208,96.063,-2.988,495.700,285.257,9.933,-797.040,1645.510,-161.020
832,52669.221000,277.745,37.721,-32.872,493.877,284.548,66.791,-74.040,1859.510,-167.020
833,52669.262000,279.722,50.798,-25.899,486.320,293.275,114.041,273.960,1886.510,-170.020
834,52669.298000,278.734,51.804,-6.973,469.022,295.974,156.233,128.960,1738.510,-222.020
835,52669.338000,260.942,2.515,-34.864,458.380,290.584,180.607,247.960,1581.510,-223.020
836,52669.358000,244.139,-7.544,-53.790,441.148,302.734,211.241,702.960,1228.510,-134.020
837,52669.401000,236.232,-9.556,-57.774,427.684,309.527,217.248,1296.960,877.510,-70.020
838,52669.441000,224.371,11.568,-43.829,418.156,325.808,211.705,1286.960,371.510,33.980
839,52669.483000,215.475,3.521,-68.732,422.112,337.237,200.199,1000.960,-105.490,72.980
840,52669.524000,214.486,-47.780,-201.214,432.683,334.903,177.614,830.960,-625.490,246.980
841,52669.563000,315.305,-4.527,123.518,450.967,331.501,147.177,182.960,-1345.490,488.980
842,52669.599000,395.367,164.464,-94.630,454.687,317.774,139.035,383.960,-393.490,598.980
843,52669.639000,209.544,131.269,-61.759,461.306,306.686,117.228,571.960,-708.490,419.980
844,52669.659000,259.954,80.974,-54.786,470.913,301.732,108.312,-126.040,-431.490,593.980
845,52669.699000,258.965,13.580,-29.883,482.395,290.065,102.194,-106.040,-139.490,442.980
846,52669.744000,254.023,52.809,-6.973,489.960,271.738,103.764,-83.040,-56.490,365.980
847,52669.781000,256.000,16.597,-12.949,492.804,265.919,102.660,-62.040,-82.490,315.980
848,52669.823000,244.139,29.674,-4.981,495.638,259.130,101.535,-88.040,-83.490,262.980
849,52669.859000,251.058,10.562,3.984,497.556,258.113,98.574,114.960,-197.490,227.980
850,52669.906000,249.081,18.609,-11.953,506.243,258.004,89.764,251.960,-230.490,185.980
851,52669.942000,248.093,2.515,-14.942,506.190,253.969,82.810,324.960,-256.490,161.980
852,52669.962000,245.127,36.715,-28.887,505.155,249.796,69.967,425.960,-259.490,112.980
853,52669.999000,259.954,27.662,-27.891,507.084,250.635,63.125,276.960,-307.490,128.980
854,52670.39000,256.988,38.727,-45.821,509.964,250.447,53.320,105.960,-236.490,109.980
855,52670.81000,253.035,22.633,-41.837,509.952,249.455,52.317,29.960,-157.490,71.980
856,52670.121000,249.081,14.585,-45.821,510.911,249.378,48.395,60.960,-48.490,12.980
857,52670.162000,244.139,10.562,-49.805,512.810,245.535,49.294,131.960,51.510,-38.020
858,52670.202000,245.127,24.644,-28.887,509.950,249.433,51.336,169.960,89.510,-72.020
859,52670.243000,249.081,4.527,-20.918,506.116,254.142,46.529,347.960,37.510,-121.020
860,52670.283000,253.035,16.597,-26.895,505.215,262.698,38.872,283.960,-97.490,-213.020
861,52670.303000,254.023,31.686,-43.829,504.279,266.507,36.012,420.960,-130.490,-241.020
862,52670.343000,246.116,41.745,-59.767,498.565,277.001,30.349,368.960,-54.490,-261.020
863,52670.382000,252.046,27.662,-48.809,496.637,277.931,29.385,266.960,74.510,-255.020
864,52670.422000,250.069,47.780,-47.813,490.901,285.577,26.601,243.960,161.510,-260.020
865,52670.464000,250.069,46.774,-46.817,490.051,296.376,32.723,209.960,256.510,-225.020
866,52670.501000,245.127,58.845,-30.879,483.283,296.353,34.669,30.960,263.510,-194.020
867,52670.544000,247.104,40.739,-21.914,479.455,299.358,40.612,-108.040,184.510,-212.020
868,52670.579000,245.127,43.756,-19.922,482.402,304.219,39.745,-171.040,100.510,-251.020
869,52670.599000,247.104,45.768,-22.911,475.615,301.370,45.552,-219.040,72.510,-313.020
870,52670.641000,245.127,49.792,-30.879,469.958,315.056,52.708,-331.040,9.510,-370.020
871,52670.679000,257.977,57.839,-38.848,463.259,321.851,55.787,-237.040,85.510,-359.020
872,52670.719000,270.826,65.886,-43.829,457.576,332.646,63.860,-412.040,258.510,-420.020
873,52670.768000,272.803,52.809,-31.875,446.080,340.667,80.685,-519.040,380.510,-465.020
874,52670.802000,267.861,96.063,-53.790,441.319,344.870,97.440,-768.040,743.510,-253.020
875,52670.843000,223.382,6.538,-152.405,438.481,342.813,137.595,-1900.040,930.510,100.980
876,52670.886000,252.046,-75.945,-360.591,446.999,319.079,157.680,-1188.040,-611.490,285.980
877,52670.928000,268.849,14.585,-199.222,461.430,319.329,118.490,362.960,-1443.490,106.980
878,52670.943000,260.942,34.703,-139.455,473.810,310.520,65.364,-61.040,-1996.490,128.980
879,52670.982000,231.290,43.756,-90.646,484.366,313.321,11.512,-341.040,-2068.490,327.980
880,52671.26000,240.185,59.851,-54.786,491.911,304.486,-40.643,-140.040,-1743.490,419.980
881,52671.67000,238.208,102.098,-37.852,493.760,302.801,-74.019,220.960,-1436.490,344.980
882,52671.106000,241.174,110.145,-25.899,491.691,298.856,-120.202,360.960,-1119.490,303.980
883,52671.144000,237.220,133.281,-5.977,485.673,283.546,-151.936,-129.040,-758.490,370.980
884,52671.216000,236.232,41.745,-37.852,474.019,283.001,-171.585,-387.040,-509.490,317.980
885,52671.234000,228.324,95.057,32.872,471.040,276.954,-180.552,179.960,-129.490,266.980
886,52671.243000,221.405,262.035,317.759,474.050,285.935,-170.540,-528.040,514.510,45.980
887,52671.286000,369.668,-7.544,-106.584,490.410,275.589,-162.889,1336.960,973.510,361.980
888,52671.321000,351.876,7.544,-40.840,490.318,265.017,-158.221,365.960,547.510,127.980
889,52671.362000,292.571,117.187,-67.735,494.131,259.230,-158.341,349.960,169.510,-43.020
890,52671.409000,235.243,34.703,-148.420,492.172,255.457,-152.545,115.960,203.510,129.980
891,52671.443000,230.301,24.644,-140.451,498.032,257.800,-136.790,-179.040,659.510,169.980
892,52671.484000,241.174,36.715,-63.751,505.788,256.279,-121.117,-165.040,706.510,212.980
893,52671.524000,239.197,6.538,-34.864,509.564,243.091,-104.731,-168.040,529.510,209.980
894,52671.569000,239.197,7.544,-43.829,511.585,250.100,-95.745,-141.040,311.510,97.980
895,52671.583000,248.093,3.521,-23.907,512.451,239.452,-94.999,-112.040,112.510,30.980
896,52671.638000,236.232,17.603,-69.728,513.544,252.104,-93.735,31.960,-37.490,-100.020
897,52671.667000,268.849,33.697,-56.778,511.675,258.881,-93.589,-137.040,37.510,-134.020
898,52671.701000,268.849,30.680,-41.837,509.736,255.302,-78.962,-421.040,301.510,-165.020
899,52671.741000,262.919,2.515,-85.665,505.002,265.050,-74.833,-58.040,200.510,-285.020
900,52671.784000,240.185,11.568,-65.743,502.210,276.651,-75.562,447.960,181.510,-314.020
901,52671.837000,238.208,53.815,-62.755,495.445,277.534,-76.537,1014.960,224.510,-276.020
902,52671.863000,219.429,-7.544,0.996,490.532,272.352,-89.411,1751.960,481.510,-109.020
903,52671.882000,213.498,244.935,5.977,497.314,274.274,-93.277,1255.960,552.510,-110.020
904,52671.923000,248.093,-14.585,-68.732,493.467,274.452,-83.475,-896.040,-37.490,74.980
905,52671.971000,245.127,71.921,-75.704,492.532,277.398,-81.450,169.960,162.510,-121.020
906,52672.4000,247.104,38.727,-23.907,494.511,281.365,-78.416,-66.040,117.510,-122.020
907,52672.71000,244.139,24.644,-0.996,489.717,286.129,-80.281,-92.040,-118.490,-181.020
908,52672.88000,256.000,27.662,21.914,488.780,289.938,-83.141,-120.040,-441.490,-256.020
909,52672.121000,307.398,14.585,21.914,475.215,292.244,-104.693,-133.040,-953.490,-438.020
910,52672.164000,408.216,18.609,-1.992,462.754,309.080,-127.881,6.960,-1259.490,-741.020
911,52672.184000,409.205,43.756,0.996,438.753,329.987,-137.274,-563.040,-986.490,-1003.020
912,52672.223000,327.166,-105.116,-81.681,421.582,355.923,-141.638,-367.040,-853.490,-782.020
913,52672.262000,162.100,-71.921,-94.630,418.620,348.279,-134.949,237.960,149.510,224.980
914,52672.304000,163.089,-112.157,-24.903,430.198,342.804,-124.259,1291.960,1339.510,700.980
915,52672.361000,178.903,-18.609,-134.475,446.429,315.370,-99.337,937.960,1726.510,1030.980
916,52672.386000,210.533,-9.556,-221.136,460.786,292.016,-64.521,454.960,1609.510,1263.980
917,52672.426000,219.429,-17.603,-257.992,476.083,268.413,-41.477,523.960,1042.510,1221.980
918,52672.477000,210.533,9.556,-243.051,481.638,242.300,-40.083,754.960,231.510,1131.980
919,52672.507000,220.417,56.833,-215.160,490.981,211.046,-53.506,235.960,-325.490,1128.980
920,52672.523000,223.382,50.798,-156.389,495.686,200.133,-66.487,-221.040,-836.490,1045.980
921,52672.564000,229.313,67.898,-112.560,495.408,177.221,-93.474,-315.040,-957.490,888.980
922,52672.604000,229.313,62.868,-84.669,493.363,170.859,-117.155,-191.040,-871.490,563.980
923,52672.647000,251.058,58.845,-49.805,488.398,162.549,-139.906,203.960,-710.490,322.980
924,52672.691000,244.139,108.134,14.942,479.566,154.223,-161.684,546.960,-501.490,8.980
925,52672.724000,241.174,101.092,18.926,473.825,163.573,-175.217,560.960,-138.490,-382.020
926,52672.764000,254.023,12.574,9.961,464.092,159.401,-184.156,982.960,75.510,-460.020
927,52672.804000,254.023,26.656,113.556,463.180,166.080,-188.913,1894.960,466.510,-609.020
928,52672.824000,352.865,-101.092,-55.782,465.894,148.460,-197.144,4042.960,797.510,-613.020
929,52672.862000,305.421,-17.603,-4.981,463.992,151.397,-195.122,-570.040,103.510,-554.020
930,52672.907000,307.398,68.904,-17.930,458.324,165.860,-196.774,965.960,106.510,-794.020
931,52672.942000,257.977,-60.857,-73.712,452.520,166.688,-200.690,-56.040,-95.490,-587.020
932,52672.988000,245.127,-16.597,-54.786,449.849,190.888,-202.120,56.960,72.510,-624.020
933,52673.31000,241.174,14.585,-32.872,445.111,200.593,-199.953,-427.040,-107.490,-479.020
934,52673.64000,228.324,-12.574,-43.829,437.439,207.335,-198.839,-538.040,-154.490,-359.020
935,52673.109000,246.116,10.562,-52.794,436.561,216.106,-196.685,-397.040,-34.490,-274.020
936,52673.143000,261.931,18.609,-54.786,432.814,227.805,-192.511,-138.040,69.510,-232.020
937,52673.163000,249.081,18.609,-48.809,429.993,235.609,-189.401,-192.040,120.510,-259.020
938,52673.203000,256.000,19.615,-49.805,430.077,242.577,-181.401,-157.040,164.510,-244.020
939,52673.243000,251.058,14.585,-51.798,426.151,235.830,-177.637,-111.040,230.510,-255.020
940,52673.283000,251.058,20.621,-47.813,430.156,248.618,-171.460,-140.040,320.510,-273.020
941,52673.324000,252.046,27.662,-44.825,427.340,255.580,-162.486,-177.040,401.510,-263.020
942,52673.366000,249.081,20.621,-18.926,426.513,267.480,-150.456,-279.040,370.510,-286.020
943,52673.407000,242.162,28.668,7.969,420.823,278.211,-145.326,-262.040,218.510,-361.020
944,52673.447000,259.954,35.709,0.996,417.960,280.318,-136.459,-487.040,2.510,-425.020
945,52673.462000,244.139,18.609,-25.899,409.401,293.977,-129.310,-627.040,-59.490,-468.020
946,52673.502000,260.942,64.880,-35.860,400.814,305.607,-126.128,-459.040,-126.490,-497.020
947,52673.548000,273.792,61.862,-55.782,397.113,321.275,-117.942,-716.040,-64.490,-417.020
948,52673.586000,255.012,58.845,-83.673,395.290,330.253,-105.979,-787.040,104.510,-209.020
949,52673.624000,259.954,93.045,-79.689,398.322,339.451,-86.155,-1669.040,-53.490,-7.020
950,52673.666000,218.440,48.786,-48.809,392.560,338.919,-63.624,-1708.040,-289.490,68.980
951,52673.706000,188.788,54.821,-18.926,388.783,345.936,-51.708,-1168.040,-484.490,-45.020
952,52673.747000,203.614,48.786,12.949,386.821,342.142,-46.893,-1125.040,-584.490,-42.020
953,52673.786000,210.533,42.750,20.918,382.972,343.183,-41.975,-1203.040,-566.490,89.980
954,52673.806000,231.290,31.686,13.946,384.944,345.316,-34.078,-1192.040,-490.490,209.980
955,52673.846000,269.838,46.774,20.918,390.737,340.864,-18.474,-1276.040,-284.490,401.980
956,52673.886000,275.768,158.428,73.712,396.409,324.674,-7.054,-1248.040,-186.490,254.980
957,52673.924000,262.919,5.532,-9.961,397.505,336.485,0.076,-723.040,-166.490,-43.020
958,52673.966000,249.081,30.680,4.981,403.219,328.624,-6.952,214.960,-216.490,463.980
959,52674.19000,242.162,64.880,-4.981,410.841,317.890,-13.058,344.960,-213.490,313.980
960,52674.47000,244.139,-8.550,-15.938,409.872,318.744,-17.944,10.960,-323.490,298.980
961,52674.87000,247.104,62.868,-78.693,412.645,306.971,-25.064,195.960,-208.490,294.980
962,52674.107000,256.000,52.809,-70.724,418.363,299.152,-30.129,286.960,-38.490,385.980
963,52674.151000,251.058,52.809,-38.848,423.165,296.222,-33.126,257.960,10.510,421.980
964,52674.183000,254.023,11.568,-25.899,431.755,284.614,-35.327,100.960,-94.490,431.980
965,52674.223000,258.965,3.521,-38.848,432.633,276.727,-41.384,247.960,-161.490,341.980
966,52674.264000,258.965,4.527,-40.840,436.442,270.896,-43.467,213.960,-114.490,253.980
967,52674.304000,250.069,23.639,-34.864,437.349,265.922,-49.459,64.960,-131.490,273.980
968,52674.344000,249.081,13.580,-46.817,437.321,263.894,-53.427,22.960,-107.490,269.980
969,52674.384000,252.046,20.621,-30.879,444.022,257.121,-55.524,-135.040,-145.490,276.980
970,52674.404000,241.174,10.562,-46.817,446.817,246.426,-57.717,-107.040,-179.490,269.980
971,52674.444000,252.046,0.503,-44.825,446.789,244.398,-61.685,-171.040,-228.490,244.980
972,52674.486000,252.046,6.538,-48.809,450.649,243.465,-61.697,-313.040,-264.490,252.980
973,52674.526000,253.035,-0.503,-51.798,454.493,240.612,-60.772,-359.040,-275.490,246.980
974,52674.566000,250.069,-4.527,-53.790,458.288,233.767,-64.839,-254.040,-292.490,209.980
975,52674.607000,254.023,5.532,-55.782,458.267,232.688,-69.766,-392.040,-320.490,203.980
976,52674.648000,252.046,-9.556,-50.802,459.164,225.859,-71.877,-368.040,-368.490,192.980
977,52674.686000,249.081,2.515,-65.743,456.264,226.737,-74.806,-412.040,-409.490,184.980
978,52674.726000,244.139,-2.515,-61.759,459.139,225.621,-82.670,-457.040,-476.490,202.980
979,52674.747000,240.185,1.509,-73.712,460.959,214.853,-87.808,-440.040,-535.490,232.980
980,52674.793000,240.185,-0.503,-73.712,458.962,210.713,-98.691,-365.040,-586.490,237.980
981,52674.829000,240.185,-0.503,-88.654,460.825,205.641,-109.587,-294.040,-606.490,249.980
982,52674.877000,254.023,2.515,-98.615,459.811,202.546,-117.503,-300.040,-582.490,238.980
983,52674.904000,268.849,-3.521,-91.642,459.796,203.280,-128.274,-419.040,-599.490,209.980
984,52674.946000,280.710,-9.556,-70.724,456.880,204.007,-138.071,-622.040,-716.490,151.980
985,52674.997000,286.641,44.762,-61.759,454.871,198.875,-149.957,-615.040,-848.490,78.980
986,52675.53000,278.734,72.927,-52.794,450.104,208.299,-160.545,-1485.040,-1211.490,65.980
987,52675.61000,259.954,111.151,-75.704,438.512,212.760,-173.219,-2280.040,-1446.490,71.980
988,52675.102000,269.838,6.538,-107.580,430.014,235.803,-180.571,-2851.040,-1659.490,181.980
989,52675.128000,276.757,-11.568,-184.280,425.263,248.032,-196.000,-1554.040,-1541.490,122.980
990,52675.182000,200.649,-5.532,-87.658,417.549,253.480,-209.625,-1179.040,-1179.490,140.980
991,52675.209000,170.008,-1.509,-13.946,420.504,256.658,-198.761,-1880.040,-231.490,106.980
992,52675.248000,142.332,23.639,-53.790,425.370,256.985,-185.995,-1025.040,637.510,73.980
993,52675.288000,142.332,45.768,-62.755,440.077,272.207,-162.090,-203.040,1577.510,-45.020
994,52675.327000,170.996,50.798,-96.623,464.302,269.293,-128.761,618.960,2215.510,-110.020
995,52675.367000,211.521,32.692,-143.440,480.808,266.497,-86.620,1255.960,2712.510,-237.020
996,52675.388000,250.069,-16.597,-171.331,499.152,254.875,-49.574,2245.960,2926.510,-346.020
997,52675.426000,286.641,-50.798,-201.214,503.178,263.456,-14.071,4058.960,2954.510,-583.020
998,52675.468000,266.873,-23.639,-193.245,505.262,276.355,-2.013,4912.960,2637.510,-761.020
999,52675.507000,248.093,-54.821,-194.241,498.639,291.801,-2.664,4725.960,2054.510,-699.020
1000,52675.547000,243.151,-59.851,-235.082,497.702,298.243,-18.214,3273.960,857.510,-114.020
1001,52675.587000,201.637,-31.686,-350.630,502.369,286.100,-42.990,1248.960,-393.490,246.980
1002,52675.628000,237.220,-23.639,-51.798,503.243,276.401,-43.204,-308.040,-216.490,305.980
1003,52675.669000,274.780,135.293,-18.926,502.284,279.995,-55.875,671.960,-160.490,-49.020
1004,52675.684000,250.069,35.709,-63.751,501.270,276.900,-63.791,566.960,-56.490,176.980
1005,52675.724000,247.104,3.521,-54.786,501.258,275.908,-64.793,16.960,-57.490,79.980
1006,52675.769000,248.093,54.821,-45.821,504.109,271.923,-70.760,217.960,-22.490,30.980
1007,52675.809000,251.058,33.697,-47.813,504.041,265.105,-71.892,253.960,-35.490,56.980
1008,52675.847000,249.081,27.662,-47.813,506.963,267.960,-75.745,120.960,-48.490,20.980
1009,52675.886000,242.162,28.668,-43.829,506.970,268.909,-76.705,168.960,-59.490,-4.020
1010,52675.924000,252.046,26.656,-41.837,507.924,268.789,-82.589,217.960,-106.490,-19.020
1011,52675.964000,247.104,30.680,-49.805,502.056,263.727,-89.579,272.960,-142.490,-54.020
1012,52675.991000,245.127,36.715,-60.763,501.134,269.435,-94.357,236.960,-157.490,-35.020
1013,52676.29000,244.139,31.686,-61.759,499.127,262.556,-97.456,59.960,-133.490,-12.020
1014,52676.66000,240.185,35.709,-61.759,500.151,269.275,-101.227,18.960,-104.490,15.980
1015,52676.106000,243.151,35.709,-65.743,503.030,267.318,-103.226,22.960,-59.490,49.980
1016,52676.151000,246.116,25.650,-62.755,505.902,264.413,-104.265,44.960,-32.490,50.980
1017,52676.191000,247.104,28.668,-56.778,504.828,253.702,-105.486,78.960,-29.490,41.980
1018,52676.232000,244.139,27.662,-58.770,501.962,257.536,-106.387,66.960,-46.490,35.980
1019,52676.268000,242.162,21.627,-60.763,502.016,263.339,-107.239,27.960,-67.490,29.980
1020,52676.309000,244.139,24.644,-63.751,500.018,257.430,-110.317,-32.040,-68.490,26.980
1021,52676.326000,245.127,26.656,-63.751,500.992,258.389,-111.274,-35.040,-61.490,19.980
1022,52676.369000,241.174,23.639,-63.751,503.864,255.483,-112.313,-23.040,-55.490,17.980
1023,52676.409000,246.116,27.662,-67.735,499.057,258.370,-111.278,-37.040,-26.490,22.980
1024,52676.449000,241.174,31.686,-66.739,503.911,259.453,-108.302,-34.040,14.510,39.980
1025,52676.486000,240.185,30.680,-66.739,500.020,258.337,-113.238,-32.040,49.510,60.980
1026,52676.526000,244.139,28.668,-67.735,505.860,260.486,-106.314,-47.040,100.510,87.980
1027,52676.571000,243.151,27.662,-68.732,506.768,253.764,-103.519,-53.040,140.510,102.980
1028,52676.606000,248.093,23.639,-62.755,507.707,249.976,-99.679,-111.040,178.510,133.980
1029,52676.626000,249.081,26.656,-64.747,511.604,251.157,-91.799,-117.040,221.510,151.980
1030,52676.666000,247.104,24.644,-65.743,514.472,245.576,-82.110,-92.040,312.510,172.980
1031,52676.706000,248.093,26.656,-61.759,519.231,236.066,-75.446,-138.040,389.510,203.980
1032,52676.746000,253.035,24.644,-58.770,524.116,239.220,-66.540,-137.040,480.510,231.980
1033,52676.786000,253.035,14.585,-48.809,526.974,230.898,-49.067,-239.040,628.510,255.980
1034,52676.829000,255.012,13.580,-36.856,532.786,227.503,-29.517,-351.040,673.510,271.980
1035,52676.868000,247.104,1.509,-12.949,536.659,224.045,-11.934,-358.040,619.510,237.980
1036,52676.906000,240.185,-22.633,17.930,538.587,220.483,1.721,-314.040,445.510,146.980
1037,52676.946000,255.012,-12.574,20.918,538.534,212.931,11.360,-136.040,157.510,15.980
1038,52676.967000,248.093,-2.515,6.973,536.658,218.759,12.466,-196.040,4.510,-61.020
1039,52677.7000,248.093,9.556,0.996,538.562,214.959,15.327,-360.040,-69.490,-84.020
1040,52677.47000,254.023,17.603,-10.957,530.807,213.848,12.344,-89.040,-174.490,-65.020
1041,52677.87000,252.046,1.509,-19.922,533.780,222.485,6.658,65.960,-171.490,-45.020
1042,52677.127000,252.046,-0.503,-6.973,537.624,220.516,3.681,-61.040,-198.490,-66.020
1043,52677.169000,255.012,8.550,-25.899,534.767,226.205,-1.102,164.960,-151.490,-45.020
1044,52677.206000,259.954,20.621,-43.829,534.787,229.032,-4.962,62.960,-13.490,-45.020
1045,52677.251000,260.942,25.650,-25.899,532.814,224.245,-1.150,49.960,107.510,-34.020
1046,52677.266000,247.104,10.562,-8.965,533.838,230.079,-1.018,-24.040,186.510,5.980
1047,52677.311000,246.116,-1.509,1.992,532.877,230.135,1.923,40.960,27.510,-20.020
1048,52677.353000,247.104,-8.550,6.973,532.823,225.216,-1.128,121.960,-195.490,-101.020
1049,52677.388000,250.069,1.509,-0.996,529.955,230.797,-10.817,296.960,-322.490,-173.020
1050,52677.428000,251.058,4.527,-21.914,527.118,241.081,-27.266,430.960,-400.490,-240.020
1051,52677.468000,247.104,24.644,-47.813,525.224,247.621,-37.912,479.960,-336.490,-239.020
1052,52677.508000,249.081,37.721,-67.735,521.282,241.607,-44.919,395.960,-166.490,-195.020
1053,52677.551000,253.035,35.709,-34.864,520.391,250.250,-48.651,205.960,13.510,-77.020
1054,52677.591000,251.058,26.656,-36.856,515.495,244.356,-49.773,231.960,31.510,-44.020
1055,52677.607000,253.035,15.591,-35.860,516.521,251.096,-52.563,176.960,54.510,-52.020
