Sample, Time, ACCX, ACCY, ACCZ, MAGX, MAGY, MAGZ, GYRX, GYRY, GYRZ
0,52702.296000,251.058,17.603,-2.988,508.888,239.715,51.118,-22.040,-134.490,-103.020
1,52702.340000,251.058,14.585,-6.973,504.950,232.860,49.977,-41.040,-139.490,-101.020
2,52702.373000,254.023,18.609,-7.969,509.835,237.761,50.096,-41.040,-133.490,-99.020
3,52702.414000,256.000,21.627,-7.969,503.107,242.528,49.207,-74.040,-119.490,-82.020
4,52702.450000,254.023,22.633,-12.949,502.135,242.476,47.242,-64.040,-84.490,-65.020
5,52702.493000,252.046,19.615,-10.957,505.069,246.323,44.392,-63.040,-60.490,-54.020
6,52702.533000,251.058,20.621,-10.957,507.992,248.314,45.423,-50.040,-39.490,-39.020
7,52702.572000,252.046,21.627,-9.961,506.952,241.444,42.326,-26.040,-34.490,-28.020
8,52702.595000,252.046,24.644,-11.953,503.096,242.420,44.301,24.960,-37.490,-11.020
9,52702.633000,249.081,22.633,-13.946,501.234,250.147,43.488,45.960,-43.490,-8.020
10,52702.675000,251.058,18.609,-12.949,504.123,249.161,41.511,55.960,-46.490,-13.020
11,52702.710000,256.988,21.627,-11.953,504.099,247.176,39.506,10.960,-44.490,-26.020
12,52702.752000,252.046,19.615,-8.965,504.095,247.133,37.543,-21.040,-97.490,-50.020
13,52702.794000,249.081,15.591,1.992,501.141,242.207,35.466,-46.040,-193.490,-90.020
14,52702.830000,243.151,17.603,0.996,497.357,252.677,27.846,-81.040,-290.490,-124.020
15,52702.874000,258.965,30.680,5.977,501.268,259.273,17.213,40.960,-513.490,-162.020
16,52702.890000,237.220,20.621,-67.735,499.294,258.003,4.432,329.960,-408.490,-129.020
17,52702.930000,238.208,39.733,-76.700,498.326,260.626,-8.260,709.960,-119.490,-35.020
18,52702.970000,256.000,60.857,-68.732,500.239,257.797,-5.377,239.960,63.510,61.980
19,52703.22000,260.942,34.703,-36.856,499.255,255.867,-4.441,-76.040,203.510,138.980
20,52703.54000,250.069,24.644,-26.895,500.227,255.035,1.426,-19.040,193.510,145.980
21,52703.90000,253.035,12.574,-19.922,503.070,248.332,4.225,-115.040,112.510,107.980
22,52703.137000,253.035,22.633,-19.922,503.976,241.589,6.039,-90.040,73.510,76.980
23,52703.182000,252.046,20.621,-14.942,502.088,246.424,6.142,4.960,34.510,61.980
24,52703.215000,254.023,15.591,-20.918,503.940,236.842,10.837,44.960,11.510,40.980
25,52703.238000,250.069,18.609,-18.926,504.042,248.385,6.190,52.960,-22.490,17.980
26,52703.274000,249.081,21.627,-21.914,506.949,248.456,8.159,48.960,-61.490,1.980
27,52703.314000,251.058,21.627,-26.895,505.937,244.498,5.127,44.960,-86.490,-3.020
28,52703.353000,253.035,26.656,-31.875,503.020,243.456,3.136,16.960,-82.490,1.980
29,52703.394000,252.046,18.609,-29.883,504.974,245.417,3.184,13.960,-63.490,6.980
30,52703.434000,253.035,19.615,-29.883,504.984,246.388,3.206,-3.040,-38.490,8.980
31,52703.472000,253.035,23.639,-28.887,510.786,247.307,-1.665,-2.040,-15.490,11.980
32,52703.512000,252.046,21.627,-30.879,504.982,247.251,-1.679,4.960,1.510,18.980
33,52703.534000,249.081,21.627,-30.879,503.948,240.445,-1.832,4.960,8.510,20.980
34,52703.572000,249.081,21.627,-28.887,505.925,244.391,0.221,6.960,7.510,20.980
35,52703.617000,252.046,20.621,-30.879,504.930,241.469,0.154,17.960,7.510,21.980
36,52703.654000,251.058,20.621,-30.879,506.895,244.422,1.205,3.960,10.510,22.980
37,52703.692000,254.023,20.621,-29.883,505.933,245.340,-0.738,4.960,8.510,28.980
38,52703.734000,251.058,17.603,-29.883,506.818,236.633,0.051,1.960,21.510,27.980
39,52703.772000,251.058,18.609,-27.891,507.799,237.656,2.037,-5.040,31.510,23.980
40,52703.815000,251.058,17.603,-25.899,505.937,245.383,1.224,1.960,23.510,19.980
41,52703.865000,251.058,18.609,-26.895,510.767,244.481,2.195,-3.040,17.510,15.980
42,52703.873000,253.035,16.597,-23.907,508.740,234.775,2.956,-16.040,13.510,12.980
43,52703.915000,254.023,18.609,-26.895,506.845,238.661,4.019,5.960,1.510,10.980
44,52703.952000,252.046,19.615,-28.887,504.920,239.613,4.036,-3.040,2.510,10.980
45,52703.992000,253.035,17.603,-28.887,504.920,239.613,4.036,-4.040,7.510,8.980
46,52704.42000,249.081,18.609,-28.887,508.818,242.563,4.109,-9.040,14.510,11.980
47,52704.73000,250.069,16.597,-27.891,508.832,243.577,6.093,-6.040,25.510,14.980
48,52704.118000,252.046,14.585,-24.903,505.838,233.862,6.852,-22.040,37.510,16.980
49,52704.153000,251.058,18.609,-26.895,504.943,241.598,6.041,-19.040,49.510,19.980
50,52704.172000,252.046,17.603,-26.895,509.719,234.892,7.864,-27.040,68.510,26.980
51,52704.212000,253.035,15.591,-26.895,508.747,233.955,9.802,-37.040,83.510,29.980
52,52704.257000,253.035,18.609,-25.899,505.924,240.852,15.833,-37.040,106.510,37.980
53,52704.297000,253.035,16.597,-25.899,509.775,238.948,15.799,-42.040,122.510,43.980
54,52704.332000,251.058,15.591,-22.911,509.647,224.515,21.362,-50.040,141.510,50.980
55,52704.375000,251.058,17.603,-19.922,508.788,235.228,23.560,-49.040,152.510,55.980
56,52704.413000,252.046,12.574,-14.942,510.689,230.522,29.343,-84.040,157.510,58.980
57,52704.465000,252.046,12.574,-13.946,514.626,236.493,34.387,-83.040,156.510,57.980
58,52704.495000,250.069,10.562,-7.969,512.660,232.655,37.240,-75.040,142.510,54.980
59,52704.515000,252.046,9.556,-5.977,514.548,226.935,41.040,-43.040,108.510,47.980
60,52704.555000,253.035,6.538,-2.988,510.735,232.722,41.160,-36.040,72.510,33.980
61,52704.595000,252.046,8.550,-2.988,510.737,232.744,42.141,1.960,32.510,12.980
62,52704.632000,252.046,11.568,-4.981,509.781,233.727,43.142,5.960,8.510,-0.020
63,52704.672000,252.046,12.574,-10.957,516.407,218.302,44.775,2.960,-11.490,-8.020
64,52704.714000,252.046,14.585,-8.965,516.485,226.975,42.025,1.960,-12.490,-7.020
65,52704.760000,253.035,15.591,-9.961,512.625,227.908,42.038,-5.040,-0.490,3.980
66,52704.798000,254.023,11.568,-8.965,512.683,233.755,43.149,-7.040,13.510,10.980
67,52704.815000,254.023,12.574,-8.965,509.734,228.873,43.034,-6.040,18.510,12.980
68,52704.853000,254.023,12.574,-5.977,511.652,226.971,43.976,-1.040,18.510,14.980
69,52704.893000,254.023,12.574,-9.961,514.550,226.956,42.021,-4.040,12.510,13.980
70,52704.944000,254.023,10.562,-7.969,510.643,223.035,41.926,-14.040,8.510,11.980
71,52704.975000,255.012,12.574,-6.973,506.860,231.757,43.092,-7.040,8.510,12.980
72,52705.15000,251.058,11.568,-5.977,513.599,227.983,44.984,-6.040,9.510,12.980
73,52705.54000,253.035,11.568,-8.965,517.482,229.034,46.976,-12.040,10.510,10.980
74,52705.95000,253.035,11.568,-8.965,510.664,224.999,42.950,-8.040,14.510,9.980
75,52705.143000,255.012,11.568,-4.981,510.720,229.939,46.982,-1.040,13.510,10.980
76,52705.155000,254.023,11.568,-4.981,512.673,231.900,47.030,11.960,14.510,12.980
77,52705.193000,254.023,10.562,-4.981,511.682,229.021,48.925,1.960,14.510,8.980
78,52705.235000,255.012,11.568,-5.977,514.580,229.006,46.970,7.960,15.510,6.980
79,52705.273000,254.023,10.562,-5.977,512.598,224.133,46.857,3.960,12.510,4.980
80,52705.328000,255.012,10.562,-4.981,509.719,226.089,48.856,-9.040,13.510,1.980
81,52705.354000,253.035,10.562,-3.984,512.631,227.089,48.884,-6.040,13.510,-0.020
82,52705.397000,252.046,11.568,-7.969,514.589,229.092,50.894,-2.040,14.510,-0.020
83,52705.433000,254.023,10.562,-7.969,514.590,229.977,46.991,-0.040,17.510,0.980
84,52705.457000,253.035,13.580,-5.977,512.664,230.044,50.911,6.960,15.510,-0.020
85,52705.493000,254.023,10.562,-6.973,512.588,222.277,50.739,-7.040,16.510,-3.020
86,52705.534000,254.023,11.568,-3.984,510.752,232.010,52.912,-0.040,14.510,-4.020
87,52705.574000,256.000,12.574,-6.973,512.677,231.058,52.895,-8.040,15.510,-4.020
88,52705.620000,255.012,12.574,-4.981,509.724,226.133,50.818,-4.040,17.510,-8.020
89,52705.654000,254.023,12.574,-2.988,515.460,219.372,49.700,-12.040,18.510,-8.020
90,52705.695000,255.012,11.568,-1.992,506.859,229.103,54.801,-8.040,21.510,-7.020
91,52705.745000,253.035,9.556,-0.996,512.670,230.109,53.855,-0.040,19.510,-6.020
92,52705.753000,252.046,13.580,-1.992,515.561,229.145,52.859,-16.040,15.510,-7.020
93,52705.798000,253.035,13.580,0.000,512.696,233.000,52.938,-14.040,14.510,-10.020
94,52705.837000,255.012,11.568,-1.992,511.724,232.063,54.877,-7.040,6.510,-9.020
95,52705.874000,254.023,13.580,-2.988,506.875,231.023,53.863,-5.040,0.510,-7.020
96,52705.918000,253.035,13.580,-1.992,509.775,231.030,52.889,-16.040,3.510,-8.020
97,52705.954000,253.035,11.568,-1.992,511.736,233.055,55.880,-16.040,7.510,-8.020
98,52705.997000,252.046,13.580,-1.992,509.806,233.964,53.934,-14.040,4.510,-9.020
99,52706.37000,254.023,13.580,-1.992,511.738,233.962,52.958,-7.040,2.510,-9.020
100,52706.74000,254.023,12.574,-1.992,508.772,227.159,53.781,-1.040,-0.490,-6.020
101,52706.102000,255.012,13.580,-1.992,508.840,233.092,58.816,-1.040,-3.490,-7.020
102,52706.137000,254.023,12.574,-0.996,511.727,232.969,51.955,-4.040,-5.490,-7.020
103,52706.174000,254.023,11.568,-0.996,507.819,228.163,55.763,-6.040,-4.490,-5.020
104,52706.218000,253.035,12.574,0.996,506.913,234.907,53.949,-7.040,-5.490,-4.020
105,52706.259000,255.012,11.568,-1.992,509.761,229.131,54.808,-6.040,-6.490,-5.020
106,52706.303000,253.035,12.574,-1.992,505.896,230.021,52.858,-6.040,-7.490,-5.020
107,52706.340000,253.035,13.580,-2.988,510.785,234.966,54.939,-6.040,-11.490,-4.020
108,52706.374000,253.035,13.580,0.000,507.848,231.960,51.924,-5.040,-15.490,-4.020
109,52706.400000,253.035,13.580,-2.988,509.829,235.949,55.940,-3.040,-18.490,-2.020
110,52706.438000,254.023,13.580,-3.984,511.759,235.040,57.885,-5.040,-18.490,-4.020
111,52706.475000,254.023,13.580,-1.992,509.688,222.271,51.713,-4.040,-21.490,-4.020
112,52706.520000,254.023,14.585,-2.988,508.836,233.933,52.951,-7.040,-25.490,-2.020
113,52706.558000,253.035,15.591,-5.977,506.831,227.075,50.833,-2.040,-29.490,-1.020
114,52706.594000,253.035,15.591,-5.977,508.798,230.050,52.865,-7.040,-23.490,2.980
115,52706.637000,254.023,16.597,-5.977,509.766,230.059,52.867,-6.040,-17.490,4.980
116,52706.680000,253.035,13.580,-5.977,510.722,229.076,51.866,-7.040,-13.490,8.980
117,52706.696000,254.023,14.585,-4.981,511.736,233.940,51.977,-12.040,-9.490,7.980
118,52706.735000,254.023,14.585,-4.981,506.857,229.966,49.917,-10.040,-7.490,10.980
119,52706.777000,256.000,13.580,-3.984,511.762,236.831,51.060,-13.040,-1.490,10.980
120,52706.814000,254.023,12.574,-0.996,512.680,231.964,49.973,-15.040,0.510,10.980
121,52706.857000,254.023,12.574,-1.992,509.817,234.957,54.937,-14.040,0.510,9.980
122,52706.897000,256.000,15.591,-3.984,509.756,229.088,52.845,-11.040,-3.490,10.980
123,52706.934000,256.000,15.591,-4.981,509.811,234.892,51.994,-9.040,-8.490,8.980
124,52706.979000,255.012,14.585,-1.992,513.659,232.966,50.978,-10.040,-11.490,7.980
125,52707.25000,252.046,12.574,-4.981,510.693,226.164,51.802,-8.040,-14.490,6.980
126,52707.34000,253.035,13.580,-4.981,509.738,227.147,52.802,-8.040,-16.490,6.980
127,52707.77000,254.023,14.585,-3.984,511.713,231.955,49.971,-12.040,-14.490,3.980
128,52707.117000,253.035,13.580,-4.981,510.753,232.895,49.009,-14.040,-13.490,3.980
129,52707.155000,254.023,12.574,-4.981,506.873,231.886,48.979,-9.040,-12.490,5.980
130,52707.197000,255.012,12.574,-3.984,509.783,232.864,48.026,-6.040,-11.490,5.980
131,52707.235000,255.012,13.580,-3.984,507.836,230.968,50.922,-5.040,-12.490,4.980
132,52707.279000,255.012,12.574,-3.984,506.885,232.879,49.981,-2.040,-14.490,4.980
133,52707.318000,253.035,15.591,-5.977,508.780,228.993,48.919,-2.040,-14.490,6.980
134,52707.337000,254.023,14.585,-5.977,510.745,231.946,49.969,-0.040,-10.490,8.980
135,52707.378000,255.012,12.574,-4.981,507.834,230.946,49.941,1.960,-7.490,8.980
136,52707.415000,254.023,13.580,-3.984,509.745,228.980,47.940,1.960,-7.490,7.980
137,52707.458000,254.023,11.568,-5.977,508.764,227.957,45.954,1.960,-8.490,7.980
138,52707.499000,254.023,13.580,-5.977,510.694,227.048,47.899,6.960,-10.490,9.980
139,52707.537000,253.035,13.580,-7.969,510.767,234.794,47.090,7.960,-10.490,10.980
140,52707.577000,253.035,13.580,-5.977,511.680,228.999,47.944,5.960,-13.490,8.980
141,52707.619000,253.035,13.580,-7.969,508.771,228.022,48.897,4.960,-15.490,5.980
142,52707.638000,254.023,12.574,-6.973,512.697,233.885,49.035,8.960,-16.490,3.980
143,52707.678000,252.046,13.580,-5.977,508.775,228.949,46.956,5.960,-13.490,2.980
144,52707.718000,253.035,11.568,-6.973,513.644,232.815,44.110,3.960,-9.490,1.980
145,52707.758000,253.035,12.574,-7.969,513.650,232.880,47.054,5.960,-5.490,2.980
146,52707.797000,255.012,14.585,-7.969,509.759,230.879,46.020,2.960,-2.490,4.980
147,52707.839000,253.035,13.580,-6.973,508.794,230.891,46.999,0.960,-0.490,6.980
148,52707.878000,253.035,11.568,-7.969,507.810,228.962,47.935,1.960,-1.490,5.980
149,52707.920000,254.023,13.580,-5.977,511.706,231.890,47.028,2.960,-6.490,2.980
150,52707.957000,253.035,12.574,-5.977,512.695,234.748,44.151,0.960,-9.490,1.980
151,52707.978000,253.035,13.580,-8.965,514.571,228.035,46.948,3.960,-10.490,1.980
152,52708.17000,254.023,13.580,-8.965,512.662,230.907,46.027,-0.040,-8.490,5.980
153,52708.55000,253.035,12.574,-4.981,511.638,225.957,41.993,-1.040,-3.490,5.980
154,52708.100000,253.035,13.580,-6.973,507.865,234.765,47.083,-4.040,-2.490,3.980
155,52708.138000,254.023,12.574,-7.969,512.660,230.886,45.046,-10.040,-3.490,5.980
156,52708.177000,253.035,11.568,-3.984,511.706,231.890,47.028,-4.040,-4.490,2.980
157,52708.215000,252.046,12.574,-6.973,510.708,228.947,45.980,-3.040,-5.490,3.980
158,52708.259000,253.035,10.562,-7.969,510.736,231.859,46.044,-7.040,-4.490,3.980
159,52708.275000,255.012,12.574,-7.969,510.678,226.013,44.934,-10.040,-3.490,1.980
160,52708.320000,253.035,12.574,-6.973,507.822,230.839,45.035,-10.040,-2.490,2.980
161,52708.358000,253.035,12.574,-7.969,508.792,230.870,46.018,-8.040,-3.490,0.980
162,52708.397000,254.023,13.580,-5.977,511.666,227.985,45.960,-8.040,-2.490,1.980
163,52708.438000,253.035,12.574,-5.977,507.777,226.006,45.908,-6.040,-2.490,1.980
164,52708.477000,252.046,13.580,-5.977,509.771,231.871,47.023,-4.040,-2.490,-1.020
165,52708.515000,251.058,12.574,-5.977,511.626,224.080,44.893,-7.040,-1.490,1.980
166,52708.558000,252.046,12.574,-5.977,510.682,226.940,42.993,-5.040,1.510,1.980
167,52708.598000,253.035,13.580,-6.973,508.757,227.008,46.913,-3.040,4.510,1.980
168,52708.617000,255.012,11.568,-6.973,514.576,228.963,45.007,-5.040,4.510,2.980
169,52708.660000,254.023,14.585,-8.965,511.706,231.890,47.028,-1.040,3.510,1.980
170,52708.698000,254.023,14.585,-5.977,508.813,232.833,47.043,-5.040,1.510,1.980
171,52708.737000,256.000,12.574,-8.965,510.748,232.852,47.047,-5.040,-0.490,-0.020
172,52708.779000,255.012,11.568,-5.977,513.592,227.033,45.943,-5.040,0.510,0.980
173,52708.817000,252.046,11.568,-8.965,508.801,231.840,46.040,-5.040,0.510,0.980
174,52708.858000,254.023,14.585,-6.973,513.575,225.113,46.881,-9.040,1.510,1.980
175,52708.902000,255.012,13.580,-5.977,511.704,231.869,46.047,-6.040,3.510,0.980
176,52708.917000,256.000,13.580,-2.988,513.674,234.865,49.059,-3.040,-0.490,-2.020
177,52708.959000,255.012,11.568,-5.977,512.704,234.834,48.076,8.960,-7.490,-6.020
178,52709.0,256.000,6.538,1.992,510.736,231.859,46.044,0.960,-24.490,-28.020
179,52709.40000,260.942,5.532,18.926,506.887,232.900,50.963,-35.040,35.510,-53.020
180,52709.80000,242.162,1.509,17.930,504.949,234.608,41.190,-14.040,-426.490,-253.020
181,52709.118000,251.058,-24.644,-1.992,504.061,246.810,22.826,578.960,-938.490,-332.020
182,52709.160000,272.803,1.509,44.825,498.259,256.462,-21.102,2031.960,-949.490,-404.020
183,52709.198000,184.834,-65.886,-98.615,495.255,254.578,-61.357,3422.960,-53.490,-316.020
184,52709.219000,303.444,-198.664,-76.700,489.412,254.155,-78.050,-1037.040,-179.490,149.980
185,52709.257000,264.896,137.305,-48.809,490.478,263.916,-75.870,-47.040,-54.490,-250.020
186,52709.299000,277.745,98.075,-30.879,486.607,265.626,-84.666,983.960,131.510,-212.020
187,52709.337000,256.000,-4.527,-59.767,484.621,260.710,-86.740,159.960,86.510,-94.020
188,52709.379000,239.197,55.827,-63.751,483.716,265.706,-79.767,96.960,237.510,-78.020
189,52709.417000,245.127,38.727,-47.813,487.541,260.026,-74.981,109.960,378.510,69.980
190,52709.459000,253.035,29.674,-29.883,490.457,260.184,-69.088,45.960,390.510,122.980
191,52709.499000,257.977,19.615,-25.899,492.428,261.432,-57.288,-136.040,333.510,135.980
192,52709.537000,253.035,4.527,-14.942,495.325,259.648,-51.438,-133.040,291.510,75.980
193,52709.567000,248.093,1.509,-17.930,494.293,251.095,-42.804,-123.040,211.510,-23.020
194,52709.599000,241.174,42.750,-19.922,496.307,258.040,-36.761,-156.040,205.510,-5.020
195,52709.637000,256.988,20.621,-16.934,493.371,253.286,-30.989,-266.040,177.510,22.980
196,52709.679000,257.977,9.556,-8.965,494.423,260.264,-22.987,-309.040,273.510,-61.020
197,52709.718000,256.000,33.697,-5.977,495.396,258.569,-12.235,-416.040,265.510,-88.020
198,52709.757000,273.792,12.574,-2.988,496.419,262.635,-4.297,-345.040,191.510,-127.020
199,52709.799000,256.988,57.839,-35.860,489.675,264.597,-0.345,-317.040,114.510,-177.020
200,52709.837000,250.069,52.809,-24.903,487.851,272.690,15.521,-752.040,272.510,-103.020
201,52709.863000,262.919,42.750,22.911,495.598,269.313,35.076,-1085.040,463.510,63.980
202,52709.898000,289.606,61.862,-22.911,494.647,265.938,58.535,-1178.040,548.510,213.980
203,52709.940000,260.942,-20.621,-44.825,496.575,261.491,76.092,-223.040,357.510,145.980
204,52709.979000,208.556,34.703,-53.790,490.748,261.219,66.267,1103.960,-55.490,-228.020
205,52710.20000,189.776,52.809,-44.825,486.987,277.190,44.058,954.960,-402.490,-267.020
206,52710.59000,204.602,51.804,-19.922,487.001,284.374,17.740,310.960,-609.490,-229.020
207,52710.103000,213.498,13.580,17.930,486.977,285.021,3.044,395.960,-489.490,-163.020
208,52710.139000,223.382,35.709,21.914,486.956,286.575,-14.573,382.960,-364.490,-82.020
209,52710.183000,211.521,26.656,27.891,487.842,281.406,-29.396,430.960,-186.490,74.980
210,52710.200000,246.116,-68.904,205.198,490.666,272.762,-26.640,235.960,314.510,226.980
211,52710.238000,310.363,197.658,-139.455,497.408,269.009,-23.767,762.960,286.510,162.980
212,52710.278000,266.873,-13.580,-73.712,499.319,267.043,-25.768,316.960,-87.490,102.980
213,52710.320000,263.907,45.768,-41.837,501.193,262.078,-31.758,401.960,92.510,132.980
214,52710.358000,257.977,43.756,-13.946,502.120,257.298,-28.920,-35.040,135.510,125.980
215,52710.399000,258.965,19.615,-9.961,505.008,255.428,-26.994,-49.040,186.510,64.980
216,52710.440000,248.093,20.621,12.949,507.896,252.673,-21.165,-107.040,148.510,36.980
217,52710.478000,246.116,11.568,31.875,504.028,251.772,-16.290,-166.040,49.510,-4.020
218,52710.503000,250.069,4.527,21.914,505.059,258.556,-17.118,-65.040,-96.490,-15.020
219,52710.542000,261.931,44.762,-14.942,504.977,250.724,-20.234,11.960,-149.490,-16.020
220,52710.582000,261.931,31.686,0.996,500.152,253.439,-27.049,-352.040,-282.490,-94.020
221,52710.619000,268.849,22.633,47.813,499.244,259.276,-25.940,-493.040,-595.490,-239.020
222,52710.659000,272.803,15.591,2.988,492.558,271.486,-41.374,-229.040,-561.490,-304.020
223,52710.698000,260.942,33.697,-13.946,486.820,279.995,-49.042,-113.040,-440.490,-264.020
224,52710.740000,254.023,45.768,56.778,486.801,277.168,-45.183,-742.040,-123.490,7.980
225,52710.782000,256.988,7.544,59.767,485.850,273.793,-21.724,-711.040,323.510,168.980
226,52710.820000,231.290,34.703,42.833,489.720,269.430,-1.218,-46.040,732.510,271.980
227,52710.838000,217.452,32.692,22.911,492.698,274.593,11.651,123.960,800.510,336.980
228,52710.878000,182.857,26.656,-18.926,496.491,262.440,31.002,216.960,694.510,273.980
229,52710.918000,149.251,20.621,-44.825,500.377,260.882,46.667,65.960,273.510,255.980
230,52710.959000,431.938,-1.509,20.918,503.175,251.978,37.649,-387.040,-655.490,223.980
231,52710.999000,243.151,65.886,-104.591,500.141,244.528,9.038,446.960,-1029.490,91.980
232,52711.39000,271.815,21.627,-66.739,502.986,242.248,-7.678,-164.040,-793.490,67.980
233,52711.78000,266.873,31.686,-52.794,508.287,490.667,-9.017,16.960,-357.490,78.980
234,52711.119000,264.896,18.609,-54.786,507.834,245.035,-15.451,-65.040,-112.490,79.980
235,52711.138000,256.000,13.580,-27.891,506.777,235.360,-13.707,-246.040,25.510,71.980
236,52711.182000,243.151,19.615,-22.911,506.795,236.417,-9.761,-338.040,51.510,90.980
237,52711.222000,246.116,-0.503,-15.938,505.858,239.342,-8.717,-207.040,-22.490,58.980
238,52711.264000,249.081,8.550,-17.930,507.795,239.383,-7.731,-240.040,-88.490,42.980
239,52711.299000,255.012,-2.515,-2.988,510.700,239.432,-6.743,-150.040,-138.490,11.980
240,52711.339000,258.965,2.515,-11.953,508.754,239.306,-11.654,-46.040,-223.490,-55.020
241,52711.382000,247.104,19.615,-22.911,506.779,236.266,-16.629,-32.040,-286.490,-65.020
242,52711.422000,250.069,8.550,-39.844,501.030,243.783,-25.300,-47.040,-319.490,-75.020
243,52711.469000,247.104,18.609,-47.813,507.784,242.791,-29.230,-120.040,-265.490,-93.020
244,52711.482000,246.116,17.603,-37.852,502.013,248.344,-38.926,-139.040,-284.490,-138.020
245,52711.523000,262.919,20.621,17.930,502.021,250.178,-43.788,-423.040,-452.490,-217.020
246,52711.563000,312.340,35.709,-1.992,493.375,260.363,-62.213,-227.040,-1068.490,-467.020
247,52711.603000,318.270,43.756,-47.813,480.837,267.662,-77.768,-405.040,-1148.490,-438.020
248,52711.639000,262.919,13.580,-81.681,476.014,272.146,-92.389,-579.040,-868.490,-265.020
249,52711.683000,220.417,-25.650,-136.467,464.530,287.329,-102.863,-219.040,-578.490,-27.020
250,52711.723000,175.938,49.792,-98.615,461.597,284.367,-103.916,-360.040,-329.490,62.980
251,52711.763000,166.054,16.597,-96.623,466.388,279.560,-104.012,83.960,92.510,208.980
252,52711.784000,186.811,27.662,-103.595,469.235,272.900,-99.251,656.960,358.510,253.980
253,52711.819000,196.695,25.650,-74.708,473.046,267.091,-100.352,758.960,603.510,267.980
254,52711.859000,208.556,6.538,-117.541,481.630,252.785,-92.806,1158.960,560.510,408.980
255,52711.905000,236.232,33.697,-35.860,487.476,254.999,-82.938,-693.040,131.510,63.980
256,52711.940000,318.270,49.792,-41.837,484.505,248.153,-84.077,1067.960,366.510,-14.020
257,52711.979000,280.710,27.662,-41.837,483.580,252.955,-85.934,270.960,26.510,-73.020
258,52712.20000,251.058,22.633,-83.673,486.474,252.897,-89.852,335.960,47.510,-68.020
259,52712.60000,253.035,22.633,-83.673,487.424,250.102,-85.009,-0.040,213.510,-9.020
260,52712.82000,244.139,38.727,-71.720,489.427,256.054,-79.969,-2.040,365.510,14.980
261,52712.127000,245.127,26.656,-56.778,489.385,249.495,-69.327,32.960,428.510,49.980
262,52712.169000,248.093,13.580,-47.813,496.201,251.740,-58.476,-239.040,363.510,128.980
263,52712.199000,244.139,2.515,-43.829,490.369,246.139,-45.864,-316.040,320.510,105.980
264,52712.243000,229.313,3.521,-30.879,498.153,250.162,-42.816,-286.040,216.510,18.980
265,52712.279000,246.116,35.709,-41.837,496.156,242.506,-37.106,-273.040,124.510,-3.020
266,52712.323000,285.652,28.668,-9.961,495.280,251.299,-33.971,-687.040,-75.490,-61.020
267,52712.363000,300.479,57.839,-42.833,498.161,247.595,-27.183,-730.040,-174.490,-96.020
268,52712.407000,271.815,61.862,-103.595,495.331,254.427,-24.095,-696.040,-174.490,32.980
269,52712.422000,230.301,69.910,-185.276,493.408,256.285,-27.000,-632.040,-302.490,-62.020
270,52712.462000,191.753,98.075,-213.167,491.524,262.911,-33.721,-876.040,-758.490,-82.020
271,52712.502000,181.869,86.004,-204.202,487.677,268.375,-48.318,-1933.040,-1167.490,-217.020
272,52712.543000,182.857,68.904,-171.331,479.090,284.407,-65.632,-1700.040,-1329.490,-232.020
273,52712.583000,191.753,74.939,-147.424,472.324,288.807,-83.201,-1236.040,-1322.490,-273.020
274,52712.622000,194.718,65.886,-139.455,458.912,306.669,-103.426,-1077.040,-1193.490,-299.020
275,52712.660000,208.556,60.857,-123.518,440.643,320.772,-115.900,-1009.040,-988.490,-269.020
276,52712.702000,226.347,57.839,-121.525,421.345,328.113,-126.565,-1081.040,-872.490,-268.020
277,52712.722000,246.116,35.709,-110.568,404.077,343.434,-128.223,-820.040,-719.490,-273.020
278,52712.762000,246.116,14.585,-98.615,387.725,353.867,-131.949,-390.040,-633.490,-279.020
279,52712.804000,227.336,-5.532,-47.813,371.324,359.424,-136.763,209.960,-524.490,-279.020
280,52712.844000,173.961,33.697,20.918,362.597,360.030,-149.517,538.960,-273.490,-188.020
281,52712.884000,115.645,73.933,-44.825,356.776,358.938,-152.495,-63.040,-88.490,-83.020
282,52712.920000,70.178,77.957,44.825,355.742,350.363,-144.842,304.960,670.510,213.980
283,52712.962000,349.900,-55.827,-41.837,362.419,342.468,-153.829,1447.960,590.510,348.980
284,52713.0,353.853,-42.750,-60.763,371.020,331.852,-155.028,366.960,408.510,505.980
285,52713.40000,317.282,136.299,-96.623,378.654,318.594,-143.538,-185.040,349.510,363.980
286,52713.60000,310.363,136.299,-110.568,376.745,320.581,-140.556,31.960,506.510,224.980
287,52713.102000,236.232,76.951,-105.588,387.376,317.060,-128.844,-184.040,472.510,164.980
288,52713.142000,216.463,46.774,-99.611,391.230,312.546,-115.206,-410.040,385.510,133.980
289,52713.183000,197.683,39.733,-103.595,396.134,316.757,-102.354,-417.040,341.510,149.980
290,52713.223000,170.008,44.762,-100.607,404.838,315.051,-95.509,-94.040,276.510,144.980
291,52713.267000,190.764,22.633,-109.572,404.825,312.289,-88.706,91.960,239.510,164.980
292,52713.310000,209.544,53.815,-82.677,405.806,312.428,-82.816,-287.040,146.510,139.980
293,52713.340000,250.069,37.721,-64.747,407.694,307.593,-82.920,133.960,53.510,38.980
294,52713.360000,270.826,61.862,-98.615,405.794,310.551,-79.916,109.960,46.510,5.980
295,52713.424000,260.942,68.904,-85.665,406.816,315.480,-76.863,-174.040,89.510,-83.020
296,52713.442000,234.255,33.697,-50.802,402.011,318.388,-74.847,-204.040,-47.490,-233.020
297,52713.483000,234.255,19.615,-60.763,396.292,327.954,-78.569,-438.040,-376.490,-419.020
298,52713.524000,291.583,30.680,-27.891,383.736,329.795,-77.574,-667.040,-600.490,-566.020
299,52713.562000,313.328,60.857,-63.751,378.076,346.092,-84.089,-465.040,-833.490,-463.020
300,52713.615000,284.664,66.892,-52.794,373.311,355.538,-93.696,-685.040,-851.490,-436.020
301,52713.643000,243.151,24.644,-144.436,366.617,364.145,-96.461,-406.040,-983.490,-382.020
302,52713.684000,215.475,64.880,-147.424,357.913,366.735,-107.209,-289.040,-859.490,-230.020
303,52713.705000,170.008,47.780,-109.572,354.089,373.299,-115.897,64.960,-586.490,-96.020
304,52713.744000,134.425,77.957,-88.654,356.941,371.084,-129.670,766.960,-44.490,-47.020
305,52713.784000,135.413,83.992,10.957,359.784,367.898,-143.464,1073.960,297.510,-71.020
306,52713.823000,101.807,40.739,-416.374,360.592,354.056,-155.537,2012.960,684.510,-253.020
307,52713.867000,206.579,137.305,116.545,349.967,361.159,-180.899,-284.040,-1067.490,-744.020
308,52713.912000,318.270,18.609,-72.716,331.656,370.451,-191.519,715.960,-410.490,-842.020
309,52713.947000,272.803,97.069,-75.704,315.279,381.531,-209.940,598.960,-596.490,-825.020
310,52713.992000,239.197,75.945,-179.300,302.740,389.693,-230.379,631.960,-619.490,-631.020
311,52714.8000,203.614,49.792,7.969,299.697,380.388,-255.109,1132.960,-123.490,-422.020
312,52714.44000,160.124,62.868,-13.946,303.473,372.486,-263.121,1097.960,755.510,-68.020
313,52714.84000,174.950,74.939,-74.708,330.382,353.419,-259.565,842.960,1368.510,165.980
314,52714.125000,175.938,72.927,-94.630,362.275,345.489,-237.119,511.960,1862.510,280.980
315,52714.162000,180.880,84.998,-147.424,400.929,331.367,-190.279,322.960,2380.510,392.980
316,52714.217000,187.799,59.851,-187.268,435.714,316.324,-139.545,282.960,2454.510,477.980
317,52714.242000,236.232,63.874,-214.163,462.684,294.322,-92.905,1147.960,2412.510,510.980
318,52714.283000,201.637,74.939,-208.187,473.286,282.603,-56.858,1200.960,1990.510,435.980
319,52714.303000,172.973,-41.745,-184.280,484.875,277.236,-41.263,1020.960,1193.510,439.980
320,52714.343000,346.934,67.898,40.840,486.660,264.375,-53.312,1590.960,-579.490,477.980
321,52714.383000,361.761,204.699,-55.782,493.356,258.421,-62.256,-13.040,-488.490,144.980
322,52714.422000,274.780,71.921,-31.875,490.356,252.180,-80.053,895.960,-418.490,140.980
323,52714.465000,258.965,-20.621,-106.584,492.188,242.404,-84.189,-131.040,-187.490,172.980
324,52714.505000,259.954,39.733,-69.728,491.222,241.531,-79.307,-168.040,-16.490,185.980
325,52714.544000,249.081,21.627,-63.751,496.961,234.792,-79.444,-256.040,15.510,231.980
326,52714.593000,237.220,-1.509,-61.759,498.872,231.941,-77.542,-510.040,7.510,221.980
327,52714.625000,233.266,-3.521,-59.767,502.763,233.057,-72.606,-441.040,10.510,181.980
328,52714.642000,236.232,0.503,-64.747,499.794,225.349,-68.861,-78.040,67.510,91.980
329,52714.695000,245.127,0.503,-62.755,504.631,225.396,-68.849,-129.040,83.510,61.980
330,52714.725000,244.139,10.562,-57.774,503.721,229.464,-59.935,-129.040,112.510,24.980
331,52714.762000,248.093,8.550,-62.755,505.687,232.417,-58.885,-26.040,139.510,-30.020
332,52714.802000,252.046,21.627,-61.759,508.605,232.596,-52.010,-135.040,202.510,-41.020
333,52714.862000,256.000,24.644,-54.786,502.790,230.684,-48.142,-138.040,248.510,8.980
334,52714.883000,242.162,9.556,-41.837,505.678,227.929,-42.313,-84.040,252.510,28.980
335,52714.925000,256.000,8.550,-36.856,505.748,233.884,-36.297,-78.040,171.510,10.980
336,52714.945000,256.988,6.538,-38.848,507.668,231.120,-30.470,-131.040,119.510,-12.020
337,52714.988000,256.988,12.574,-38.848,507.675,231.184,-27.527,-75.040,99.510,-18.020
338,52715.24000,235.243,10.562,-51.798,508.654,232.186,-26.522,32.960,98.510,4.980
339,52715.65000,247.104,8.550,-57.774,508.614,227.396,-23.686,83.960,242.510,8.980
340,52715.105000,250.069,23.639,-43.829,506.718,229.513,-14.817,-140.040,281.510,24.980
341,52715.147000,248.093,-4.527,-41.837,508.654,227.785,-6.026,12.960,359.510,8.980
342,52715.188000,234.255,-9.556,-41.837,506.791,233.742,0.967,-23.040,390.510,-39.020
343,52715.225000,249.081,9.556,-44.825,506.776,229.190,14.596,-27.040,550.510,-11.020
344,52715.263000,267.861,8.550,-26.895,506.826,230.549,32.278,-6.040,704.510,26.980
345,52715.283000,266.873,5.532,2.988,509.753,230.814,43.077,-19.040,739.510,-42.020
346,52715.323000,274.780,20.621,22.911,503.054,234.977,58.846,-43.040,634.510,-81.020
347,52715.363000,286.641,35.709,20.918,502.130,237.146,69.679,-107.040,508.510,-205.020
348,52715.409000,263.907,21.627,13.946,499.370,248.164,86.589,-185.040,447.510,-241.020
349,52715.443000,260.942,20.621,-8.965,497.458,249.246,92.493,9.960,303.510,-209.020
350,52715.484000,260.942,24.644,-1.992,489.787,255.988,93.607,-51.040,97.510,-212.020
351,52715.524000,255.012,3.521,-12.949,488.820,257.748,85.799,221.960,-117.490,-104.020
352,52715.565000,225.359,54.821,30.879,485.048,269.209,79.181,149.960,-160.490,-224.020
353,52715.585000,203.614,17.603,47.813,487.963,271.999,72.384,304.960,-45.490,-184.020
354,52715.624000,190.764,11.568,35.860,485.109,279.479,60.777,824.960,18.510,-122.020
355,52715.664000,200.649,28.668,38.848,483.151,278.360,54.864,726.960,5.510,-83.020
356,52715.708000,212.510,20.621,37.852,485.087,280.148,47.062,253.960,-1.490,-32.020
357,52715.744000,247.104,-73.933,8.965,485.102,282.931,41.240,176.960,-144.490,101.980
358,52715.787000,292.571,9.556,70.724,487.934,277.005,35.230,64.960,-230.490,5.980
359,52715.827000,317.282,104.110,39.844,485.075,283.557,25.563,555.960,-359.490,-127.020
360,52715.872000,264.896,11.568,16.934,485.958,280.115,0.972,1053.960,-750.490,-95.020
361,52715.907000,197.683,60.857,58.770,482.970,278.382,-32.415,1915.960,-178.490,168.980
362,52715.927000,233.266,68.904,-55.782,486.801,278.053,-49.086,1458.960,-125.490,173.980
363,52715.963000,269.838,0.503,-65.743,488.616,269.874,-68.877,-19.040,-861.490,289.980
364,52716.5000,264.896,55.827,-43.829,489.428,258.707,-91.678,429.960,-903.490,132.980
365,52716.47000,241.174,33.697,-62.755,481.697,262.235,-104.365,150.960,-728.490,197.980
366,52716.85000,256.988,21.627,-71.720,481.585,253.238,-116.332,187.960,-514.490,145.980
367,52716.125000,255.012,31.686,-73.712,481.600,256.906,-126.058,-39.040,-279.490,125.980
368,52716.165000,251.058,10.562,-74.708,483.462,250.064,-129.147,-69.040,-125.490,88.980
369,52716.204000,247.104,22.633,-72.716,482.533,253.938,-129.063,-171.040,1.510,59.980
370,52716.225000,249.081,28.668,-53.790,484.422,248.240,-124.283,-204.040,78.510,74.980
371,52716.280000,249.081,12.574,-46.817,487.322,247.362,-121.354,-176.040,70.510,59.980
372,52716.307000,241.174,23.639,-45.821,486.368,247.482,-115.469,-217.040,14.510,52.980
373,52716.347000,252.046,14.585,-42.833,487.404,254.309,-114.335,-199.040,-37.490,57.980
374,52716.390000,242.162,14.585,-37.852,488.317,248.515,-113.481,-203.040,-157.490,28.980
375,52716.425000,241.174,10.562,-32.872,488.306,248.407,-118.387,-197.040,-294.490,23.980
376,52716.465000,242.162,15.591,-37.852,479.604,251.019,-128.154,-254.040,-544.490,6.980
377,52716.505000,203.614,20.621,-48.809,477.739,260.472,-138.735,-596.040,-839.490,-48.020
378,52716.525000,285.652,47.780,-34.864,471.931,262.141,-148.517,-549.040,-928.490,-182.020
379,52716.565000,325.189,33.697,-83.673,458.419,268.482,-163.115,-576.040,-984.490,-311.020
380,52716.609000,258.965,9.556,-103.595,449.858,283.887,-164.752,-1585.040,-902.490,-25.020
381,52716.649000,201.637,37.721,-109.572,450.963,294.900,-149.795,-1779.040,-492.490,276.980
382,52716.684000,195.707,79.969,-93.634,446.131,292.264,-135.154,-1361.040,-90.490,382.980
383,52716.725000,187.799,76.951,-107.580,459.732,293.820,-114.497,-894.040,268.510,443.980
384,52716.767000,193.730,52.809,-104.591,460.684,289.277,-100.867,-298.040,439.510,417.980
385,52716.807000,193.730,61.862,-84.669,468.361,280.830,-91.231,191.960,560.510,263.980
386,52716.847000,202.625,66.892,-32.872,476.017,269.535,-78.717,90.960,686.510,195.980
387,52716.867000,228.324,-5.532,-195.237,481.776,263.875,-73.927,1086.960,340.510,330.980
388,52716.910000,234.255,-13.580,-24.903,484.629,259.027,-75.010,324.960,261.510,200.980
389,52716.944000,289.606,93.045,-38.848,488.470,254.383,-67.259,297.960,373.510,150.980
390,52716.984000,313.328,114.169,-24.903,491.294,246.623,-68.406,399.960,182.510,25.980
391,52717.24000,248.093,14.585,-63.751,491.311,249.427,-73.247,633.960,83.510,90.980
392,52717.68000,247.104,11.568,-70.724,493.187,242.715,-70.450,3.960,128.510,42.980
393,52717.105000,249.081,31.686,-62.755,494.187,245.680,-68.421,24.960,130.510,45.980
394,52717.144000,247.104,12.574,-60.763,499.024,244.843,-64.507,-11.040,204.510,98.980
395,52717.165000,250.069,20.621,-58.770,498.044,242.072,-57.706,-47.040,259.510,89.980
396,52717.207000,251.058,18.609,-48.809,495.084,234.449,-50.036,-55.040,294.510,109.980
397,52717.248000,248.093,12.574,-45.821,500.883,232.693,-44.179,-85.040,287.510,103.980
398,52717.289000,246.116,9.556,-42.833,499.899,229.879,-39.340,-141.040,254.510,93.980
399,52717.325000,253.035,4.527,-42.833,504.768,231.113,-29.496,-147.040,255.510,63.980
400,52717.365000,248.093,15.591,-29.883,507.728,235.219,-20.572,-219.040,227.510,39.980
401,52717.407000,251.058,3.521,-26.895,506.732,231.412,-16.736,-190.040,142.510,27.980
402,52717.447000,252.046,4.527,-36.856,506.748,231.563,-9.868,-157.040,117.510,-18.020
403,52717.488000,255.012,25.650,-32.872,508.682,230.697,-5.961,-195.040,108.510,-44.020
404,52717.509000,256.000,0.503,-27.891,504.818,231.587,-7.911,-105.040,98.510,-120.020
405,52717.554000,258.965,33.697,-18.926,504.963,245.309,-1.722,-316.040,-16.490,-169.020
406,52717.587000,279.722,54.821,-23.907,506.926,247.356,2.250,-589.040,-14.490,-142.020
407,52717.634000,257.977,27.662,-83.673,502.088,245.539,10.045,-813.040,-127.490,-103.020
408,52717.664000,255.012,95.057,-114.553,499.260,252.393,14.114,-938.040,-164.490,-96.020
409,52717.710000,240.185,61.862,-177.307,498.302,252.470,18.036,-1887.040,-586.490,-112.020
410,52717.750000,220.417,81.980,-181.292,494.480,258.171,14.232,-1441.040,-906.490,-260.020
411,52717.789000,198.672,79.969,-173.323,494.546,269.369,-6.113,-881.040,-1153.490,-431.020
412,52717.810000,190.764,97.069,-168.342,485.844,276.382,-36.376,-665.040,-1312.490,-490.020
413,52717.848000,200.649,82.986,-151.409,469.512,294.043,-64.458,-860.040,-1335.490,-507.020
414,52717.890000,211.521,72.927,-145.432,452.282,317.649,-86.525,-1155.040,-1304.490,-430.020
415,52717.929000,235.243,62.868,-137.463,431.125,334.507,-104.828,-1103.040,-1197.490,-410.020
416,52717.965000,248.093,51.804,-129.494,412.865,348.697,-113.378,-908.040,-1075.490,-470.020
417,52718.5000,248.093,44.762,-129.494,393.637,361.992,-118.026,-651.040,-1025.490,-482.020
418,52718.49000,251.058,30.680,-114.553,374.256,360.617,-127.904,-426.040,-1047.490,-391.020
419,52718.89000,247.104,21.627,-102.599,353.138,378.727,-133.431,-328.040,-1039.490,-306.020
420,52718.109000,235.243,9.556,-79.689,339.576,379.307,-145.215,24.960,-968.490,-200.020
421,52718.147000,206.579,16.597,-32.872,328.915,380.778,-161.876,248.960,-786.490,-94.020
422,52718.189000,173.961,28.668,0.000,322.068,373.830,-165.967,270.960,-402.490,143.980
423,52718.225000,171.985,1.509,57.774,331.718,370.170,-160.144,84.960,319.510,376.980
424,52718.270000,187.799,27.662,68.732,341.288,357.816,-152.553,94.960,1127.510,665.980
425,52718.305000,193.730,79.969,-386.490,355.741,348.594,-137.036,-350.040,160.510,788.980
426,52718.357000,149.251,178.546,-69.728,364.423,343.155,-123.409,-1055.040,65.510,675.980
427,52718.404000,307.398,6.538,-44.825,372.963,326.671,-126.699,1620.960,581.510,424.980
428,52718.427000,317.282,-51.804,-59.767,379.590,313.015,-132.872,714.960,309.510,490.980
429,52718.459000,285.652,104.110,-122.521,385.315,306.146,-138.897,393.960,96.510,201.980
430,52718.489000,277.745,145.352,-141.447,383.417,309.126,-134.912,-143.040,42.510,116.980
431,52718.557000,265.884,100.086,-125.510,384.358,305.360,-130.090,111.960,166.510,72.980
432,52718.574000,230.301,60.857,-141.447,392.121,306.536,-124.164,-27.040,265.510,106.980
433,52718.623000,218.440,61.862,-123.518,391.143,304.671,-120.285,-45.040,320.510,103.980
434,52718.655000,205.591,44.762,-113.556,396.945,303.821,-117.349,15.960,266.510,111.980
435,52718.687000,195.707,44.762,-109.572,400.790,299.221,-107.637,-48.040,197.510,105.980
436,52718.727000,198.672,29.674,-106.584,399.785,295.328,-107.725,-132.040,61.510,39.980
437,52718.775000,213.498,25.650,-101.603,401.769,299.338,-102.729,-146.040,-30.490,-49.020
438,52718.817000,224.371,48.786,-98.615,400.774,297.300,-106.699,9.960,-167.490,-190.020
439,52718.848000,231.290,34.703,-104.591,392.190,310.721,-110.342,97.960,-230.490,-300.020
440,52718.884000,241.174,54.821,-106.584,385.464,317.257,-119.037,-42.040,-352.490,-422.020
441,52718.905000,314.317,49.792,-97.619,372.996,329.627,-124.672,-117.040,-414.490,-569.020
442,52718.948000,281.699,83.992,-93.634,366.265,335.235,-131.427,-281.040,-515.490,-649.020
443,52718.985000,274.780,62.868,-77.696,355.748,348.658,-134.093,-488.040,-575.490,-690.020
444,52719.33000,264.896,72.927,-88.654,344.250,361.059,-138.745,-521.040,-540.490,-662.020
445,52719.69000,242.162,32.692,-109.572,327.909,371.599,-137.565,-654.040,-539.490,-602.020
446,52719.92000,214.486,62.868,-112.560,320.363,391.869,-139.092,-608.040,-593.490,-624.020
447,52719.133000,198.672,54.821,-103.595,307.914,404.411,-136.879,-708.040,-552.490,-553.020
448,52719.167000,171.985,64.880,-153.401,303.138,411.117,-138.701,-476.040,-482.490,-429.020
449,52719.207000,163.089,15.591,-58.770,298.304,413.745,-149.440,644.960,-53.490,-173.020
450,52719.252000,152.216,101.092,-60.763,307.888,406.806,-160.362,1182.960,579.510,72.980
451,52719.292000,146.286,90.028,-104.591,324.272,401.961,-167.299,785.960,1057.510,210.980
452,52719.330000,159.135,113.163,-92.638,347.386,389.738,-159.676,416.960,1328.510,279.980
453,52719.368000,189.776,103.104,-114.553,374.424,379.841,-136.303,275.960,1620.510,328.980
454,52719.392000,208.556,97.069,-121.525,398.549,368.037,-110.037,576.960,1788.510,361.980
455,52719.427000,230.301,103.104,-128.498,421.706,357.109,-87.675,1146.960,1824.510,428.980
456,52719.470000,246.116,98.075,-151.409,434.153,340.145,-70.374,1582.960,1862.510,485.980
457,52719.510000,228.324,87.010,-165.354,455.284,320.395,-51.154,1633.960,1735.510,450.980
458,52719.550000,236.232,88.016,-163.362,461.967,307.279,-32.799,1789.960,1487.510,434.980
459,52719.590000,212.510,75.945,-172.327,467.668,293.139,-16.429,1305.960,1239.510,370.980
460,52719.629000,192.741,56.833,-181.292,469.578,288.520,-6.721,980.960,702.510,404.980
461,52719.667000,191.753,63.874,-124.514,475.333,282.816,-3.894,704.960,298.510,394.980
462,52719.707000,183.846,15.591,-194.241,479.051,269.067,-13.017,660.960,-64.490,350.980
463,52719.727000,232.278,-113.163,-39.844,486.774,268.107,-15.964,50.960,-433.490,332.980
464,52719.768000,390.425,171.505,5.977,485.643,253.319,-26.101,265.960,-446.490,47.980
465,52719.819000,245.127,57.839,-49.805,487.439,244.082,-49.838,561.960,-625.490,139.980
466,52719.853000,247.104,-2.515,-115.549,488.379,243.833,-61.610,194.960,-376.490,158.980
467,52719.889000,246.116,36.715,-84.669,487.450,247.707,-61.526,-48.040,-3.490,126.980
468,52719.930000,245.127,10.562,-66.739,491.231,237.216,-54.886,169.960,146.510,167.980
469,52719.968000,246.116,7.544,-61.759,488.376,242.042,-54.785,46.960,157.510,120.980
470,52720.9000,244.139,25.650,-62.755,494.110,234.375,-52.982,32.960,184.510,117.980
471,52720.29000,247.104,11.568,-51.798,495.095,234.557,-45.130,-5.040,182.510,122.980
472,52720.69000,241.174,9.556,-47.813,500.921,236.577,-44.093,5.960,156.510,106.980
473,52720.109000,250.069,7.544,-39.844,501.867,233.738,-41.212,-139.040,44.510,107.980
474,52720.150000,244.139,5.532,-35.860,500.838,226.976,-39.402,-109.040,-37.490,59.980
475,52720.190000,251.058,4.527,-44.825,501.747,222.023,-44.414,-114.040,-125.490,66.980
476,52720.230000,254.023,0.503,-48.809,497.880,222.007,-43.442,-250.040,-181.490,55.980
477,52720.267000,244.139,17.603,-66.739,500.843,227.904,-41.343,-266.040,-180.490,25.980
478,52720.308000,239.197,13.580,-55.782,499.850,225.888,-44.332,-444.040,-181.490,37.980
479,52720.329000,254.023,11.568,-53.790,498.838,221.930,-47.364,-133.040,-131.490,13.980
480,52720.369000,248.093,7.544,-70.724,495.926,220.931,-47.392,-49.040,-10.490,-13.020
481,52720.409000,246.116,12.574,-65.743,499.869,227.830,-44.289,111.960,124.510,-13.020
482,52720.450000,243.151,-4.527,-64.747,501.761,223.037,-42.430,223.960,210.510,-33.020
483,52720.490000,249.081,8.550,-54.786,498.903,226.957,-39.407,153.960,252.510,-31.020
484,52720.537000,232.278,12.574,-54.786,500.899,231.960,-33.408,257.960,322.510,-76.020
485,52720.569000,240.185,7.544,-55.782,495.039,225.215,-28.667,310.960,372.510,-93.020
486,52720.613000,259.954,10.562,-41.837,497.091,236.043,-22.538,170.960,366.510,-108.020
487,52720.652000,255.012,15.591,-34.864,500.057,241.076,-15.555,155.960,347.510,-140.020
488,52720.674000,255.012,16.597,-32.872,495.247,243.057,-11.599,158.960,314.510,-170.020
489,52720.709000,253.035,16.597,-26.895,495.211,238.311,-6.801,105.960,260.510,-177.020
490,52720.753000,244.139,31.686,-32.872,495.265,243.230,-3.750,132.960,252.510,-129.020
491,52720.788000,252.046,24.644,-27.891,490.472,246.246,3.172,-13.040,252.510,-35.020
492,52720.832000,249.081,34.703,-31.875,488.563,248.234,6.154,-78.040,279.510,21.980
493,52720.872000,251.058,24.644,-19.922,493.404,246.555,15.933,-9.040,299.510,54.980
494,52720.909000,256.000,6.538,-11.953,493.408,245.713,21.799,0.960,284.510,26.980
495,52720.950000,251.058,18.609,-10.957,494.391,245.874,28.669,-29.040,261.510,-6.020
496,52720.970000,254.023,16.597,-15.938,491.524,248.823,31.670,28.960,288.510,-1.020
497,52721.10000,256.000,17.603,-8.965,490.607,251.942,41.544,31.960,334.510,-0.020
498,52721.50000,256.988,18.609,-10.957,488.650,248.190,48.322,112.960,431.510,9.980
499,52721.104000,256.000,7.544,2.988,490.602,247.497,60.078,139.960,475.510,-6.020
500,52721.133000,258.965,14.585,6.973,485.769,246.609,65.932,268.960,515.510,-23.020
501,52721.168000,251.058,19.615,25.899,484.930,257.516,76.960,281.960,499.510,-55.020
502,52721.208000,259.954,23.639,8.965,482.959,252.751,81.753,298.960,535.510,-79.020
503,52721.248000,259.954,30.680,19.922,480.179,263.574,89.833,265.960,600.510,-100.020
504,52721.288000,267.861,53.815,34.864,476.345,264.766,101.619,-70.040,509.510,-100.020
505,52721.309000,262.919,54.821,25.899,473.428,261.070,111.338,-279.040,354.510,-82.020
506,52721.350000,261.931,47.780,23.907,468.615,261.260,122.119,-281.040,385.510,-84.020
507,52721.393000,298.502,-11.568,31.875,471.626,271.127,128.228,674.960,511.510,-31.020
508,52721.432000,275.768,42.750,52.794,467.771,273.872,122.397,626.960,503.510,69.980
509,52721.470000,256.988,66.892,62.755,466.850,277.833,126.406,110.960,187.510,-16.020
510,52721.510000,220.417,33.697,71.720,465.842,273.918,125.336,-281.040,-98.490,-104.020
511,52721.549000,183.846,13.580,96.623,462.947,274.839,124.370,15.960,-223.490,-152.020
512,52721.593000,171.985,18.609,91.642,464.892,277.598,116.590,274.960,-143.490,-104.020
513,52721.610000,168.031,19.615,68.732,461.108,288.067,108.969,93.960,-64.490,-40.020
514,52721.650000,186.811,7.544,63.751,463.965,282.378,113.752,-94.040,-27.490,8.980
515,52721.692000,206.579,8.550,63.751,465.924,285.266,111.859,-143.040,-98.490,107.980
516,52721.729000,220.417,23.639,43.829,468.716,273.666,112.588,-409.040,-279.490,97.980
517,52721.775000,295.537,-115.175,-22.911,473.499,269.679,105.645,-16.040,-867.490,244.980
518,52721.809000,345.946,-48.786,240.062,485.031,267.289,80.119,471.960,-935.490,50.980
519,52721.849000,286.641,-9.556,43.829,485.984,269.801,61.544,364.960,-554.490,175.980
520,52721.894000,268.849,140.322,63.751,486.883,267.395,39.918,26.960,-984.490,-146.020
521,52721.933000,256.000,5.532,0.996,487.826,271.568,8.632,1329.960,-830.490,29.980
522,52721.949000,253.035,39.733,-41.837,487.738,266.326,-9.137,-27.040,-864.490,169.980
523,52721.989000,265.884,34.703,-41.837,487.740,268.979,-20.846,-181.040,-674.490,125.980
524,52722.30000,256.988,31.686,-44.825,492.442,258.045,-34.808,41.960,-419.490,205.980
525,52722.70000,261.931,13.580,-41.837,493.339,251.215,-36.919,-133.040,-306.490,211.980
526,52722.112000,259.954,15.591,-36.856,491.339,246.170,-44.880,-129.040,-194.490,144.980
527,52722.149000,251.058,9.556,-23.907,495.244,250.069,-45.766,-123.040,-195.490,111.980
528,52722.197000,243.151,1.509,-25.899,495.212,247.998,-51.696,70.960,-214.490,55.980
529,52722.230000,252.046,15.591,-13.946,495.191,246.919,-56.624,75.960,-287.490,43.980
530,52722.250000,251.058,9.556,-41.837,493.231,246.663,-67.421,215.960,-363.490,9.980
531,52722.290000,249.081,35.709,-56.778,489.320,243.583,-73.381,45.960,-311.490,31.980
532,52722.329000,250.069,18.609,-55.782,490.288,244.477,-77.282,34.960,-239.490,51.980
533,52722.379000,252.046,25.650,-58.770,491.218,241.488,-81.269,-48.040,-172.490,45.980
534,52722.412000,249.081,12.574,-53.790,491.221,243.279,-88.094,-36.040,-138.490,28.980
535,52722.449000,249.081,2.515,-55.782,488.310,243.164,-92.025,-35.040,-103.490,-35.020
536,52722.503000,242.162,12.574,-50.802,490.190,237.379,-91.169,-65.040,-100.490,-41.020
537,52722.529000,256.000,15.591,-40.840,486.342,239.305,-90.154,-54.040,-175.490,-32.020
538,52722.550000,244.139,9.556,-41.837,481.564,246.874,-96.860,-19.040,-280.490,-76.020
539,52722.599000,245.127,15.591,-54.786,484.413,242.868,-103.808,-1.040,-375.490,-99.020
540,52722.632000,245.127,11.568,-70.724,479.610,248.430,-113.501,-3.040,-371.490,-120.020
541,52722.670000,236.232,22.633,-56.778,476.711,251.077,-124.236,-204.040,-441.490,-132.020
542,52722.710000,269.838,22.633,-65.743,474.753,249.958,-130.149,-103.040,-514.490,-114.020
543,52722.752000,275.768,46.774,-85.665,466.202,267.219,-135.668,-299.040,-512.490,-111.020
544,52722.790000,249.081,49.792,-81.681,460.425,271.823,-144.404,-527.040,-527.490,-155.020
545,52722.830000,288.618,37.721,-80.685,455.621,275.616,-146.291,-623.040,-495.490,-92.020
546,52722.870000,277.745,54.821,-82.677,445.003,278.382,-148.213,-535.040,-390.490,-173.020
547,52722.890000,237.220,30.680,-83.673,442.241,292.032,-143.993,-738.040,-272.490,-164.020
548,52722.930000,182.857,-10.562,-113.556,441.276,291.159,-139.112,-699.040,-126.490,-13.020
549,52722.970000,172.973,31.686,-133.479,441.383,300.113,-129.106,-852.040,-113.490,89.980
550,52723.12000,171.985,17.603,-90.646,442.420,304.308,-115.281,-1082.040,32.510,199.980
551,52723.57000,172.973,41.745,-51.798,445.297,298.813,-101.668,-630.040,224.510,145.980
552,52723.97000,176.927,61.862,-96.623,452.084,297.261,-86.978,43.960,599.510,204.980
553,52723.134000,303.444,17.603,-231.097,457.796,287.630,-86.199,1074.960,368.510,244.980
554,52723.170000,256.988,30.680,6.973,461.692,289.674,-83.204,100.960,281.510,76.980
555,52723.190000,276.757,86.004,-70.724,461.621,281.950,-81.414,131.960,373.510,22.980
556,52723.230000,250.069,84.998,-62.755,465.549,286.066,-72.488,44.960,328.510,2.980
557,52723.270000,243.151,50.798,-55.782,461.695,286.179,-65.629,108.960,242.510,96.980
558,52723.312000,248.093,31.686,-56.778,467.423,277.584,-61.885,-15.040,173.510,136.980
559,52723.353000,242.162,27.662,-68.732,469.334,274.734,-59.983,-94.040,144.510,114.980
560,52723.394000,234.255,37.721,-66.739,471.302,276.823,-54.049,-234.040,130.510,114.980
561,52723.430000,250.069,36.715,-62.755,475.199,278.889,-50.072,-104.040,196.510,109.980
562,52723.470000,249.081,44.762,-57.774,473.165,267.349,-44.449,-174.040,217.510,120.980
563,52723.510000,252.046,44.762,-56.778,476.106,269.514,-35.568,-304.040,242.510,146.980
564,52723.530000,253.035,54.821,-58.770,478.075,270.741,-24.750,-313.040,299.510,180.980
565,52723.572000,256.000,51.804,-52.794,483.829,262.383,-10.213,-441.040,339.510,223.980
566,52723.613000,246.116,43.756,-52.794,486.680,253.997,4.317,-433.040,408.510,211.980
567,52723.670000,242.162,37.721,-45.821,490.579,254.315,17.080,-334.040,517.510,169.980
568,52723.694000,235.243,62.868,-104.591,488.601,248.600,22.833,-66.040,396.510,61.980
569,52723.734000,228.324,49.792,-115.549,492.592,259.490,30.929,-137.040,321.510,-66.020
570,52723.774000,225.359,79.969,-146.428,493.558,259.478,29.950,-711.040,-267.490,-149.020
571,52723.810000,228.324,81.980,-143.440,494.542,262.292,25.111,-1404.040,-703.490,-202.020
572,52723.830000,238.208,70.916,-129.494,491.660,265.975,17.341,-1830.040,-1073.490,-260.020
573,52723.873000,238.208,73.933,-115.549,488.834,277.252,1.895,-1856.040,-1165.490,-336.020
574,52723.914000,248.093,69.910,-106.584,485.964,282.811,-8.775,-1662.040,-1123.490,-412.020
575,52723.954000,247.104,65.886,-99.611,476.432,299.934,-20.183,-1384.040,-1051.490,-479.020
576,52723.992000,247.104,68.904,-94.630,460.173,321.823,-32.480,-1104.040,-994.490,-488.020
577,52724.35000,248.093,67.898,-91.642,446.685,330.148,-45.072,-873.040,-885.490,-525.020
578,52724.85000,241.174,56.833,-82.677,423.625,347.290,-49.643,-735.040,-815.490,-533.020
579,52724.113000,229.313,52.809,-67.735,407.325,364.390,-59.105,-538.040,-763.490,-490.020
580,52724.133000,222.394,46.774,-58.770,394.787,369.035,-62.951,-376.040,-731.490,-463.020
581,52724.173000,202.625,39.733,-27.891,381.283,373.693,-65.818,-310.040,-524.490,-351.020
582,52724.213000,193.730,-4.527,13.946,374.599,384.155,-72.464,186.960,-160.490,-178.020
583,52724.253000,187.799,7.544,32.872,371.645,379.229,-74.541,523.960,354.510,130.980
584,52724.293000,176.927,-59.851,-153.401,371.598,375.260,-78.552,704.960,375.510,291.980
585,52724.333000,262.919,73.933,-76.700,378.144,357.311,-103.453,1850.960,37.510,311.980
586,52724.373000,281.699,18.609,-61.759,381.881,345.504,-112.533,603.960,8.510,624.980
587,52724.414000,256.988,89.022,-50.802,386.608,335.692,-119.606,441.960,-34.490,514.980
588,52724.454000,292.571,98.075,-67.735,387.451,324.827,-128.671,317.960,-191.490,442.980
589,52724.474000,275.768,43.756,-114.553,388.278,312.043,-136.798,261.960,-75.490,359.980
590,52724.517000,261.931,25.650,-116.545,394.031,306.317,-134.952,-2.040,56.510,215.980
591,52724.558000,289.606,88.016,-134.475,393.056,304.474,-130.092,-35.040,106.510,111.980
592,52724.598000,229.313,55.827,-141.447,398.933,311.392,-126.984,56.960,343.510,49.980
593,52724.633000,224.371,71.921,-112.560,402.719,300.059,-114.479,-153.040,495.510,111.980
594,52724.672000,226.347,75.945,-100.607,403.672,297.285,-108.654,-121.040,503.510,164.980
595,52724.712000,211.521,48.786,-87.658,406.624,299.557,-94.868,-56.040,411.510,165.980
596,52724.752000,220.417,34.703,-83.673,417.284,299.834,-86.994,-73.040,326.510,137.980
597,52724.772000,227.336,48.786,-70.724,414.353,296.008,-83.163,-31.040,194.510,66.980
598,52724.812000,226.347,25.650,-62.755,415.297,293.148,-81.263,7.960,23.510,-0.020
599,52724.853000,245.127,33.697,-72.716,411.512,301.848,-81.078,-65.040,-141.490,-105.020
600,52724.893000,236.232,57.839,-77.696,408.542,296.772,-90.023,36.960,-241.490,-188.020
601,52724.954000,241.174,31.686,-90.646,407.610,300.624,-90.920,-26.040,-296.490,-298.020
602,52724.978000,241.174,44.762,-96.623,402.875,313.004,-99.481,-74.040,-308.490,-386.020
603,52725.14000,266.873,55.827,-91.642,394.270,324.462,-104.148,-38.040,-308.490,-497.020
604,52725.55000,270.826,105.116,-78.693,379.809,330.965,-110.899,-8.040,-413.490,-540.020
605,52725.95000,277.745,87.010,-85.665,373.158,346.153,-123.324,97.960,-474.490,-647.020
606,52725.119000,301.467,54.821,-64.747,361.571,350.657,-134.036,22.960,-569.490,-722.020
607,52725.155000,297.514,52.809,-53.790,352.018,364.047,-138.662,-219.040,-671.490,-738.020
608,52725.194000,303.444,34.703,-23.907,341.565,384.245,-142.159,-620.040,-618.490,-680.020
609,52725.243000,262.919,30.680,-131.486,327.162,396.595,-147.799,-447.040,-1005.490,-762.020
610,52725.274000,245.127,4.527,-111.564,311.786,410.641,-164.191,0.960,-939.490,-529.020
611,52725.314000,168.031,22.633,-28.887,307.862,408.316,-179.941,483.960,-407.490,-319.020
612,52725.360000,145.297,33.697,-69.728,313.656,410.034,-192.640,624.960,198.510,17.980
613,52725.406000,147.274,47.780,-75.704,334.843,399.627,-189.884,381.960,614.510,298.980
614,52725.430000,145.297,56.833,-87.658,352.176,389.333,-180.269,121.960,1165.510,544.980
615,52725.459000,170.008,70.916,-101.603,384.934,369.869,-153.174,8.960,1534.510,701.980
616,52725.494000,207.568,82.986,-128.498,417.733,352.563,-116.224,212.960,1883.510,913.980
617,52725.538000,248.093,86.004,-151.409,452.422,329.558,-74.493,1214.960,2216.510,956.980
618,52725.573000,268.849,107.128,-182.288,476.366,297.539,-40.830,1914.960,2324.510,886.980
619,52725.616000,246.116,112.157,-201.214,483.965,275.134,-4.046,1840.960,1996.510,682.980
620,52725.654000,216.463,88.016,-190.257,488.784,269.722,12.515,1653.960,1451.510,555.980
621,52725.694000,197.683,90.028,-176.311,480.989,262.074,21.155,1405.960,724.510,343.980
622,52725.714000,170.996,95.057,-114.553,487.733,259.227,21.106,757.960,230.510,165.980
623,52725.755000,161.112,97.069,-250.023,486.654,251.990,1.330,704.960,-923.490,3.980
624,52725.799000,204.602,-17.603,-73.712,488.537,250.629,-17.329,741.960,-458.490,10.980
625,52725.834000,398.332,127.246,-6.973,482.736,254.132,-31.973,378.960,-411.490,-107.020
626,52725.874000,250.069,-0.503,-78.693,482.729,256.699,-47.607,534.960,-519.490,-143.020
627,52725.923000,249.081,33.697,-106.584,481.746,256.539,-54.477,297.960,-267.490,-54.020
628,52725.953000,254.023,41.745,-89.650,483.617,250.668,-57.545,-59.040,30.510,23.980
629,52725.994000,243.151,21.627,-76.700,484.579,248.865,-51.700,28.960,195.510,96.980
630,52726.33000,247.104,21.627,-60.763,483.628,249.007,-44.834,-68.040,319.510,73.980
631,52726.57000,251.058,26.656,-48.809,488.539,254.167,-32.941,-80.040,377.510,86.980
632,52726.93000,250.069,16.597,-46.817,489.458,247.553,-25.240,-52.040,379.510,110.980
633,52726.137000,248.093,13.580,-33.868,492.362,246.718,-20.350,-6.040,375.510,110.980
634,52726.180000,251.058,11.568,-29.883,493.348,246.900,-12.498,-17.040,279.510,76.980
635,52726.223000,247.104,13.580,-3.984,495.176,235.333,-9.809,-15.040,100.510,73.980
636,52726.254000,257.977,14.585,-27.891,492.338,242.080,-10.646,52.960,-66.490,52.980
637,52726.294000,261.931,16.597,-38.848,496.151,236.292,-10.766,-121.040,-85.490,-22.020
638,52726.334000,252.046,22.633,-38.848,493.246,236.242,-11.754,-297.040,-91.490,-16.020
639,52726.360000,254.023,19.615,-43.829,494.251,239.251,-7.763,-381.040,-69.490,30.980
640,52726.397000,250.069,16.597,-48.809,497.141,237.402,-4.856,-501.040,-35.490,23.980
641,52726.440000,256.000,19.615,-47.813,493.297,238.486,2.025,-494.040,67.510,37.980
642,52726.475000,258.965,21.627,-44.825,496.262,243.520,9.007,-396.040,150.510,46.980
643,52726.515000,247.104,21.627,-35.860,497.200,238.847,16.751,-335.040,193.510,53.980
644,52726.555000,241.174,7.544,-26.895,495.177,228.300,23.377,-158.040,201.510,38.980
645,52726.594000,247.104,8.550,-23.907,493.348,238.097,28.494,28.960,182.510,34.980
646,52726.635000,247.104,7.544,-19.922,496.201,233.250,27.412,54.960,152.510,34.980
647,52726.677000,240.185,4.527,-19.922,496.253,238.147,29.482,100.960,91.510,27.980
648,52726.697000,239.197,3.521,-17.930,500.129,238.250,32.435,129.960,39.510,22.980
649,52726.733000,233.266,-5.532,-26.895,501.048,234.268,27.445,211.960,26.510,16.980
650,52726.773000,262.919,15.591,-26.895,497.116,227.477,29.247,335.960,105.510,-6.020
651,52726.814000,266.873,53.815,-21.914,496.212,233.358,32.318,67.960,105.510,-10.020
652,52726.857000,252.046,4.527,-35.860,498.194,238.231,32.430,279.960,224.510,27.980
653,52726.897000,266.873,11.568,-14.942,497.231,238.265,34.390,374.960,405.510,53.980
654,52726.939000,261.931,22.633,-4.981,497.237,235.676,49.043,-44.040,450.510,36.980
655,52726.978000,258.965,7.544,8.965,492.351,229.005,56.729,24.960,305.510,-9.020
656,52726.999000,256.988,-2.515,0.000,493.418,238.766,58.910,172.960,167.510,-119.020
657,52727.35000,249.081,24.644,-4.981,495.390,241.784,62.904,172.960,149.510,-119.020
658,52727.74000,251.058,28.668,-5.977,492.485,241.734,61.916,79.960,164.510,-39.020
659,52727.115000,250.069,33.697,0.000,489.622,244.726,66.879,-51.040,156.510,33.980
660,52727.159000,256.000,24.644,-7.969,490.571,241.909,70.741,44.960,166.510,91.980
661,52727.198000,256.000,18.609,-1.992,490.579,241.111,78.569,-66.040,267.510,122.980
662,52727.237000,253.035,7.544,12.949,493.451,237.320,81.433,-48.040,267.510,124.980
663,52727.275000,252.046,5.532,18.926,494.429,236.553,90.244,-50.040,224.510,73.980
664,52727.295000,251.058,10.562,13.946,490.516,231.704,92.089,-5.040,216.510,40.980
665,52727.335000,254.023,11.568,10.957,490.574,235.782,101.006,-7.040,253.510,26.980
666,52727.374000,256.000,18.609,7.969,490.529,230.949,101.879,3.960,339.510,48.980
667,52727.415000,254.023,19.615,15.938,491.559,234.195,116.663,-43.040,484.510,115.980
668,52727.458000,253.035,19.615,16.934,489.578,226.689,129.241,-5.040,638.510,185.980
669,52727.510000,255.012,30.680,31.875,488.570,218.373,148.668,4.960,803.510,269.980
670,52727.537000,255.012,17.603,25.899,480.831,213.897,169.146,-81.040,939.510,288.980
671,52727.578000,256.988,28.668,31.875,481.815,210.540,192.609,-14.040,992.510,265.980
672,52727.618000,269.838,-36.715,48.809,479.868,204.243,216.001,-234.040,846.510,133.980
673,52727.639000,270.826,-72.927,105.588,475.042,204.304,220.896,-33.040,558.510,-20.020
674,52727.682000,276.757,-11.568,94.630,469.256,207.073,217.023,859.960,213.510,-119.020
675,52727.717000,278.734,3.521,110.568,465.591,231.005,203.817,1010.960,-220.490,-226.020
676,52727.754000,210.533,11.568,73.712,469.537,244.981,175.696,1700.960,-521.490,-126.020
677,52727.802000,192.741,46.774,71.720,472.580,266.605,142.840,1620.960,-451.490,-199.020
678,52727.850000,202.625,51.804,61.759,471.605,270.933,119.398,755.960,-421.490,-118.020
679,52727.885000,205.591,42.750,78.693,476.517,280.494,110.795,100.960,-307.490,-89.020
680,52727.918000,218.440,28.668,84.669,475.476,273.624,107.698,-270.040,-225.490,-8.020
681,52727.938000,220.417,15.591,84.669,475.498,276.472,104.819,-226.040,-56.490,-36.020
682,52727.974000,223.382,19.615,79.689,477.456,278.476,106.829,123.960,12.510,-37.020
683,52728.17000,231.290,26.656,97.619,474.549,278.404,104.860,295.960,35.510,-40.020
684,52728.57000,234.255,28.668,94.630,472.624,280.241,100.974,269.960,38.510,-51.020
685,52728.97000,231.290,40.739,95.626,469.760,284.096,101.054,86.960,40.510,-23.020
686,52728.137000,221.405,22.633,82.677,470.685,279.294,102.910,38.960,36.510,-39.020
687,52728.177000,220.417,28.668,72.716,470.736,284.192,104.981,10.960,24.510,-11.020
688,52728.218000,216.463,23.639,60.763,472.687,285.246,107.950,-49.040,-108.490,-6.020
689,52728.260000,220.417,28.668,43.829,471.645,278.354,103.872,-291.040,-345.490,19.980
690,52728.280000,240.185,-9.556,58.770,474.531,277.347,100.914,-401.040,-465.490,72.980
691,52728.316000,271.815,-16.597,139.455,479.290,269.606,99.772,-360.040,-389.490,188.980
692,52728.357000,281.699,72.927,44.825,483.177,272.448,94.940,41.960,-577.490,9.980
693,52728.397000,268.849,38.727,-5.977,487.023,274.018,76.350,402.960,-801.490,37.980
694,52728.437000,242.162,-1.509,-53.790,486.946,271.515,50.797,606.960,-732.490,258.980
695,52728.478000,270.826,50.798,-40.840,488.702,257.489,29.896,180.960,-717.490,204.980
696,52728.517000,259.954,42.750,-18.926,490.675,263.161,22.180,-322.040,-621.490,163.980
697,52728.557000,258.965,25.650,-9.961,496.406,258.104,10.312,65.960,-411.490,206.980
698,52728.577000,259.954,19.615,-13.946,499.240,252.199,5.284,-183.040,-307.490,224.980
699,52728.617000,257.977,14.585,-0.996,499.202,248.316,5.197,-396.040,-223.490,190.980
700,52728.659000,256.988,9.556,-11.953,500.087,239.609,5.987,-317.040,-169.490,139.980
701,52728.695000,256.988,15.591,1.992,500.059,236.696,5.922,-555.040,-115.490,118.980
702,52728.735000,256.000,1.509,-6.973,502.031,239.714,9.916,-473.040,-191.490,63.980
703,52728.780000,252.046,7.544,-7.969,503.952,238.719,7.936,-375.040,-223.490,1.980
704,52728.819000,249.081,5.532,-13.946,504.894,236.722,4.952,-299.040,-226.490,-1.020
705,52728.859000,254.023,6.538,-4.981,503.926,236.713,4.950,-231.040,-237.490,13.980
706,52728.879000,255.012,3.521,-21.914,503.868,231.750,-0.064,-119.040,-218.490,-10.020
707,52728.915000,256.988,13.580,-10.957,501.974,236.521,-2.904,-238.040,-210.490,-22.020
708,52728.955000,253.035,10.562,-12.949,499.034,233.494,-6.900,-193.040,-258.490,-9.020
709,52729.5000,254.023,6.538,-11.953,500.061,240.235,-9.690,-138.040,-358.490,-35.020
710,52729.47000,252.046,4.527,-26.895,502.919,238.084,-20.519,-37.040,-424.490,-62.020
711,52729.75000,248.093,15.591,-43.829,497.132,241.717,-29.276,-18.040,-436.490,-61.020
712,52729.116000,257.977,4.527,-34.864,496.119,238.622,-37.193,66.960,-423.490,-87.020
713,52729.157000,249.081,18.609,-40.840,493.276,247.095,-47.798,-17.040,-401.490,-102.020
714,52729.205000,241.174,4.527,-68.732,493.218,243.017,-56.714,49.960,-363.490,-160.020
715,52729.218000,231.290,-2.515,-61.759,488.467,253.477,-64.338,-42.040,-339.490,-227.020
716,52729.258000,235.243,-2.515,-45.821,484.570,252.296,-72.217,106.960,-331.490,-192.020
717,52729.298000,267.861,30.680,-47.813,477.889,264.549,-85.689,379.960,-368.490,-289.020
718,52729.337000,265.884,59.851,-92.638,474.004,265.245,-96.469,177.960,-589.490,-441.020
719,52729.378000,259.954,55.827,-72.716,468.342,282.405,-107.868,-416.040,-553.490,-328.020
720,52729.423000,258.965,-7.544,-82.677,462.588,286.361,-101.908,-1149.040,-385.490,64.980
721,52729.458000,235.243,43.756,-67.735,462.547,280.687,-95.169,-641.040,-149.490,259.980
722,52729.498000,218.440,36.715,-74.708,466.428,280.833,-90.255,-462.040,51.510,301.980
723,52729.518000,206.579,38.727,-55.782,469.302,276.179,-82.507,-271.040,269.510,272.980
724,52729.558000,199.660,61.862,-14.942,475.140,275.675,-63.873,-298.040,449.510,258.980
725,52729.598000,213.498,45.768,-183.284,481.836,267.089,-60.127,591.960,277.510,306.980
726,52729.641000,240.185,36.715,-42.833,480.800,260.262,-61.261,277.960,181.510,92.980
727,52729.681000,312.340,74.939,-6.973,483.608,250.582,-61.470,315.960,236.510,50.980
728,52729.723000,240.185,33.697,-67.735,484.646,257.430,-59.355,273.960,122.510,26.980
729,52729.756000,234.255,18.609,-81.681,489.464,255.536,-59.386,346.960,232.510,124.980
730,52729.796000,252.046,16.597,-43.829,494.247,248.895,-54.620,34.960,228.510,148.980
731,52729.816000,256.000,25.650,-48.809,491.349,248.910,-52.665,-14.040,209.510,122.980
732,52729.856000,253.035,12.574,-49.805,490.306,240.249,-48.937,-124.040,207.510,98.980
733,52729.898000,251.058,26.656,-53.790,493.240,241.463,-39.097,-162.040,205.510,77.980
734,52729.939000,254.023,16.597,-32.872,499.978,235.920,-29.399,-379.040,219.510,115.980
735,52729.979000,245.127,12.574,-40.840,499.026,236.062,-22.533,-368.040,189.510,88.980
736,52730.19000,245.127,9.556,-30.879,500.974,235.325,-12.739,-336.040,105.510,64.980
737,52730.68000,252.046,0.503,-30.879,499.058,237.248,-12.700,-259.040,36.510,23.980
738,52730.100000,248.093,18.609,-36.856,497.139,238.265,-9.740,-415.040,-31.490,28.980
739,52730.138000,256.000,-1.509,-33.868,502.930,236.423,-7.807,-330.040,-51.490,13.980
740,52730.160000,249.081,21.627,-41.837,502.974,240.371,-4.778,-366.040,-45.490,-22.020
741,52730.196000,252.046,1.509,-51.798,499.121,241.369,-1.822,-322.040,-37.490,-51.020
742,52730.238000,244.139,-4.527,-45.821,496.147,233.617,-0.039,-183.040,98.510,-129.020
743,52730.278000,251.058,23.639,-43.829,499.120,239.600,5.985,-262.040,177.510,-94.020
744,52730.319000,268.849,38.727,-13.946,496.287,244.641,15.897,-454.040,199.510,-102.020
745,52730.360000,271.815,72.927,-93.634,496.353,250.553,19.951,-352.040,-19.490,-110.020
746,52730.396000,255.012,94.051,-115.549,496.321,245.850,26.711,-1181.040,-109.490,-43.020
747,52730.436000,229.313,94.051,-171.331,497.271,241.285,39.361,-2292.040,-487.490,5.980
748,52730.458000,203.614,107.128,-165.354,501.103,237.439,39.283,-2224.040,-751.490,-174.020
749,52730.499000,200.649,91.033,-149.416,499.337,257.528,26.977,-1450.040,-994.490,-376.020
750,52730.544000,203.614,96.063,-124.514,494.610,272.627,9.650,-970.040,-1033.490,-501.020
751,52730.580000,215.475,76.951,-101.603,488.885,283.897,-4.822,-752.040,-955.490,-597.020
752,52730.624000,233.266,66.892,-96.623,478.394,303.728,-24.998,-747.040,-848.490,-596.020
753,52730.658000,244.139,51.804,-95.626,461.107,320.624,-43.292,-559.040,-758.490,-591.020
754,52730.698000,255.012,52.809,-83.673,444.845,341.607,-52.667,-321.040,-646.490,-575.020
755,52730.738000,245.127,51.804,-78.693,424.646,356.620,-67.086,-161.040,-600.490,-515.020
756,52730.786000,246.116,44.762,-83.673,411.167,365.916,-79.657,8.960,-601.490,-468.020
757,52730.799000,236.232,51.804,-75.704,393.766,370.277,-94.306,118.960,-616.490,-420.020
758,52730.844000,224.371,57.839,-68.732,385.067,372.026,-99.189,48.960,-596.490,-285.020
759,52730.879000,206.579,52.809,-69.728,366.694,375.450,-111.901,3.960,-593.490,-205.020
760,52730.918000,197.683,62.868,-49.805,360.968,384.951,-118.566,-160.040,-549.490,-102.020
761,52730.958000,187.799,35.709,-29.883,355.149,383.881,-120.564,-232.040,-393.490,-4.020
762,52731.3000,171.985,17.603,1.992,356.015,373.232,-119.818,152.960,100.510,232.980
763,52731.38000,145.297,55.827,-94.630,360.803,368.403,-120.895,402.960,444.510,409.980
764,52731.116000,166.054,39.733,-247.035,365.570,361.611,-122.997,185.960,46.510,617.980
765,52731.124000,206.579,95.057,-127.502,371.330,354.203,-109.420,-1036.040,93.510,723.980
766,52731.149000,282.687,16.597,-41.837,386.700,340.977,-99.875,21.960,409.510,811.980
767,52731.180000,283.676,61.862,-80.685,393.284,322.511,-104.194,1149.960,557.510,650.980
768,52731.258000,268.849,125.234,-108.576,401.816,304.192,-102.621,328.960,459.510,567.980
769,52731.288000,404.263,83.992,-36.856,405.646,299.440,-99.776,650.960,438.510,510.980
770,52731.308000,275.768,11.568,-78.693,411.304,284.006,-98.146,289.960,56.510,378.980
771,52731.342000,241.174,21.627,-122.521,416.163,286.901,-101.013,-188.040,125.510,161.980
772,52731.382000,219.429,58.845,-119.533,421.039,289.084,-92.128,-47.040,309.510,102.980
773,52731.405000,213.498,20.621,-80.685,424.797,275.724,-83.591,2.960,349.510,169.980
774,52731.455000,240.185,44.762,-56.778,424.832,277.817,-76.680,-60.040,194.510,195.980
775,52731.479000,231.290,21.627,-54.786,429.683,279.762,-78.588,116.960,-33.490,117.980
776,52731.518000,235.243,4.527,-58.770,425.739,273.727,-86.575,34.960,-341.490,-19.020
777,52731.565000,242.162,29.674,-91.642,425.766,278.387,-95.298,78.960,-398.490,-78.020
778,52731.600000,234.255,37.721,-125.510,422.878,281.142,-101.127,54.960,-296.490,-138.020
779,52731.640000,240.185,35.709,-111.564,420.920,280.023,-107.040,-56.040,-188.490,-135.020
780,52731.684000,238.208,46.774,-109.572,418.082,286.769,-107.877,-61.040,-115.490,-165.020
781,52731.719000,232.278,51.804,-113.556,417.136,289.607,-110.758,-126.040,-80.490,-176.020
782,52731.739000,226.347,53.815,-96.623,414.245,289.687,-105.859,-116.040,-61.490,-217.020
783,52731.780000,236.232,41.745,-88.654,405.623,299.225,-109.588,-45.040,-148.490,-301.020
784,52731.825000,228.324,49.792,-92.638,401.792,303.955,-113.414,-11.040,-261.490,-427.020
785,52731.859000,224.371,53.815,-98.615,393.196,317.268,-121.962,42.960,-379.490,-521.020
786,52731.906000,247.104,49.792,-104.591,384.528,322.836,-129.702,89.960,-483.490,-622.020
787,52731.940000,288.618,58.845,-97.619,371.106,338.842,-146.046,140.960,-485.490,-826.020
788,52731.982000,295.537,73.933,-82.677,353.780,350.085,-156.621,-6.040,-550.490,-865.020
789,52732.20000,276.757,56.833,-80.685,338.526,374.983,-164.926,-134.040,-629.490,-908.020
790,52732.45000,276.757,50.798,-76.700,329.765,369.979,-167.998,-438.040,-669.490,-803.020
791,52732.80000,239.197,48.786,-100.607,312.579,392.247,-162.636,-835.040,-624.490,-670.020
792,52732.122000,192.741,26.656,-184.280,305.973,411.382,-172.032,-235.040,-727.490,-435.020
793,52732.164000,190.764,-4.527,-7.969,302.992,405.313,-181.980,718.960,-154.490,-80.020
794,52732.204000,168.031,42.750,-56.778,320.238,391.546,-197.939,1238.960,539.510,135.980
795,52732.242000,170.008,54.821,-79.689,343.407,386.012,-195.071,482.960,878.510,390.980
796,52732.280000,189.776,49.792,-98.615,371.380,372.283,-169.820,116.960,1345.510,506.980
797,52732.320000,199.660,47.780,-121.525,395.472,359.293,-153.386,359.960,1628.510,653.980
798,52732.361000,212.510,92.039,-158.381,428.252,340.045,-116.479,742.960,1845.510,735.980
799,52732.383000,224.371,91.033,-191.253,452.183,307.012,-84.800,1237.960,1868.510,733.980
800,52732.420000,211.521,111.151,-216.156,468.570,295.155,-57.570,1617.960,1767.510,553.980
801,52732.459000,205.591,77.957,-217.152,475.235,279.234,-34.374,1566.960,1474.510,372.980
802,52732.500000,199.660,84.998,-161.370,473.268,272.743,-19.812,1661.960,1158.510,264.980
803,52732.541000,199.660,75.945,-134.475,477.116,269.048,-13.021,1401.960,1011.510,247.980
804,52732.582000,219.429,45.768,-74.708,480.902,257.716,-0.516,882.960,898.510,349.980
805,52732.628000,190.764,-9.556,-264.965,477.904,245.325,10.970,812.960,457.510,463.980
806,52732.661000,293.560,80.974,49.805,478.851,244.256,6.045,-737.040,-451.490,-135.020
807,52732.681000,253.035,87.010,-67.735,480.836,250.920,-0.667,1173.960,90.510,68.980
808,52732.719000,260.942,-18.609,-47.813,480.730,240.219,-1.886,210.960,94.510,49.980
809,52732.759000,255.012,31.686,-31.875,482.745,248.048,0.254,318.960,251.510,17.980
810,52732.803000,255.012,40.739,-33.868,482.728,246.128,1.192,181.960,233.510,51.980
811,52732.843000,254.023,17.603,-27.891,483.711,246.288,8.062,84.960,233.510,53.980
812,52732.883000,253.035,20.621,-28.887,488.486,238.698,13.787,-55.040,245.510,60.980
813,52732.923000,254.023,17.603,-25.899,485.624,241.690,18.751,-6.040,287.510,100.980
814,52732.963000,255.012,17.603,-20.918,487.478,232.129,24.427,4.960,312.510,119.980
815,52732.979000,265.884,15.591,-20.918,485.626,237.310,40.228,-39.040,414.510,137.980
816,52733.19000,262.919,32.692,-30.879,489.413,227.747,44.927,-177.040,510.510,171.980
817,52733.60000,267.861,19.615,-17.930,485.597,229.111,64.563,-500.040,542.510,127.980
818,52733.100000,234.255,-10.562,40.840,487.529,226.455,75.295,-683.040,224.510,-54.020
819,52733.142000,240.185,-39.733,48.809,486.530,222.627,78.150,-468.040,-44.490,-140.020
820,52733.183000,251.058,-7.544,37.852,485.596,226.458,76.272,-443.040,-354.490,-249.020
821,52733.222000,257.977,13.580,18.926,484.705,235.984,68.636,-646.040,-623.490,-256.020
822,52733.261000,259.954,48.786,7.969,486.565,230.005,60.662,-1054.040,-788.490,-172.020
823,52733.301000,260.942,8.550,-42.833,484.685,235.790,59.806,-1179.040,-768.490,-151.020
824,52733.322000,261.931,6.538,-75.704,482.765,239.439,50.076,-98.040,-663.490,-206.020
825,52733.363000,247.104,22.633,-57.774,484.684,242.824,26.620,931.960,-463.490,-249.020
826,52733.403000,222.394,27.662,-44.825,480.797,244.383,10.955,1272.960,-217.490,-150.020
827,52733.444000,221.405,34.703,-36.856,476.002,252.663,-7.503,1221.960,73.510,-133.020
828,52733.483000,215.475,36.715,-26.895,476.035,257.388,-13.283,1109.960,247.510,-89.020
829,52733.526000,224.371,-40.739,-43.829,479.919,258.440,-11.290,794.960,416.510,64.980
830,52733.560000,226.347,-0.503,-61.759,480.835,253.552,-13.358,835.960,372.510,208.980
831,52733.600000,279.722,-115.175,-33.868,484.574,239.135,-8.766,533.960,376.510,324.980
832,52733.620000,329.143,182.570,9.961,480.765,244.081,-2.781,-231.040,153.510,-178.020
833,52733.660000,255.012,-35.709,-45.821,482.740,248.005,-1.709,837.960,277.510,72.980
834,52733.706000,256.000,30.680,-56.778,484.666,247.053,-1.726,285.960,326.510,-33.020
835,52733.745000,258.965,30.680,-24.903,484.709,249.232,9.110,-399.040,373.510,-25.020
836,52733.780000,248.093,17.603,-15.938,485.704,249.500,20.886,143.960,524.510,54.980
837,52733.820000,248.093,16.597,-5.977,485.645,240.136,36.369,-176.040,460.510,37.980
838,52733.868000,251.058,22.633,3.984,485.729,247.105,44.369,-169.040,436.510,101.980
839,52733.903000,248.093,8.550,13.946,485.704,241.582,57.975,-154.040,354.510,122.980
840,52733.923000,253.035,0.503,17.930,487.653,241.730,63.867,-126.040,243.510,104.980
841,52733.963000,248.093,7.544,17.930,483.726,234.982,67.631,-83.040,178.510,66.980
842,52734.1000,256.000,5.532,2.988,483.674,229.200,69.464,-98.040,175.510,53.980
843,52734.43000,254.023,22.633,4.981,483.694,229.395,78.294,-153.040,238.510,67.980
844,52734.83000,254.023,15.591,4.981,486.584,226.661,85.104,-74.040,343.510,125.980
845,52734.121000,257.977,11.568,2.988,487.540,223.046,96.794,-108.040,453.510,143.980
846,52734.161000,256.988,21.627,6.973,483.645,216.600,114.295,-110.040,591.510,203.980
847,52734.201000,248.093,8.550,23.907,482.673,212.147,132.827,60.960,778.510,254.980
848,52734.222000,239.197,-23.639,57.774,482.696,212.362,142.638,-194.040,795.510,233.980
849,52734.260000,248.093,-3.521,45.821,480.627,194.328,161.847,-378.040,765.510,203.980
850,52734.300000,244.139,-2.515,57.774,478.781,198.689,184.495,-309.040,769.510,196.980
851,52734.342000,238.208,-41.745,84.669,472.894,186.399,201.861,-203.040,688.510,124.980
852,52734.380000,241.174,-4.527,75.704,469.021,182.802,216.483,-209.040,650.510,89.980
853,52734.421000,243.151,-22.633,78.693,464.259,187.005,233.238,-133.040,678.510,66.980
854,52734.463000,257.977,-30.680,77.696,458.387,176.614,248.685,-263.040,650.510,-13.020
855,52734.503000,262.919,-20.621,91.642,455.516,177.772,258.512,-451.040,493.510,-123.020
856,52734.543000,278.734,-6.538,106.584,452.658,179.923,269.341,-297.040,338.510,-139.020
857,52734.564000,264.896,-0.503,118.537,447.851,182.810,270.375,31.960,160.510,-95.020
858,52734.604000,247.104,-0.503,140.451,450.835,193.302,260.808,949.960,-122.490,-246.020
859,52734.646000,236.232,-7.544,39.844,451.029,218.933,234.899,1298.960,-568.490,-312.020
860,52734.687000,235.243,13.580,22.911,463.785,248.074,186.540,1709.960,-1356.490,-438.020
861,52734.725000,222.394,60.857,61.759,468.744,268.660,149.742,1687.960,-1505.490,-470.020
862,52734.767000,213.498,34.703,112.560,474.616,286.085,101.108,992.960,-1264.490,-456.020
863,52734.801000,204.602,42.750,143.440,473.622,291.103,64.933,420.960,-837.490,-388.020
864,52734.841000,206.579,33.697,144.436,466.879,295.718,57.176,-105.040,-254.490,-206.020
865,52734.862000,219.429,17.603,111.564,468.875,301.606,59.272,-65.040,159.510,-14.020
866,52734.901000,245.127,33.697,114.553,470.815,299.920,70.026,-257.040,333.510,85.980
867,52734.943000,238.208,32.692,102.599,470.803,296.274,80.732,-91.040,462.510,118.980
868,52734.983000,233.266,23.639,82.677,468.862,293.558,90.475,21.960,432.510,98.980
869,52735.24000,217.452,36.715,61.759,465.916,286.949,100.128,-24.040,354.510,113.980
870,52735.61000,211.521,21.627,37.852,461.070,283.299,112.786,-172.040,263.510,143.980
871,52735.101000,213.498,20.621,22.911,466.876,281.608,121.586,-339.040,57.510,168.980
872,52735.143000,216.463,26.656,8.965,470.712,276.921,127.374,-632.040,-135.490,176.980
873,52735.178000,228.324,-4.527,-1.992,478.273,258.550,126.983,-764.040,-446.490,231.980
874,52735.208000,305.421,-68.904,269.946,475.328,253.710,128.830,-96.040,-191.490,273.980
875,52735.245000,280.710,115.175,48.809,480.201,259.389,120.141,935.960,-256.490,66.980
876,52735.281000,265.884,62.868,34.864,479.226,261.947,104.505,507.960,-637.490,81.980
877,52735.321000,259.954,-31.686,-13.946,483.984,259.470,77.982,244.960,-886.490,259.980
878,52735.364000,240.185,42.750,2.988,488.732,255.137,55.341,211.960,-891.490,90.980
879,52735.405000,253.035,43.756,-6.973,491.530,248.003,38.517,-396.040,-837.490,113.980
880,52735.441000,263.907,25.650,7.969,494.429,249.757,28.755,206.960,-606.490,193.980
881,52735.484000,257.977,-1.509,6.973,496.245,240.715,13.849,153.960,-537.490,137.980
882,52735.503000,256.988,8.550,12.949,494.353,247.276,4.184,-164.040,-568.490,24.980
883,52735.545000,254.023,2.515,-5.977,494.263,241.128,-10.663,191.960,-574.490,-7.020
884,52735.585000,255.012,4.527,-22.911,494.312,249.520,-26.167,87.960,-527.490,-65.020
885,52735.631000,256.988,7.544,-19.922,491.336,244.379,-38.056,121.960,-468.490,-86.020
886,52735.669000,252.046,24.644,-42.833,488.366,239.302,-47.000,139.960,-366.490,-74.020
887,52735.701000,258.965,17.603,-29.883,487.460,246.930,-52.717,-57.040,-297.490,-49.020
888,52735.743000,254.023,21.627,-30.879,484.620,253.655,-54.535,-25.040,-267.490,-35.020
889,52735.783000,254.023,13.580,-34.864,486.562,255.507,-59.393,-54.040,-282.490,-39.020
890,52735.803000,246.116,36.715,-44.825,484.579,252.382,-68.293,-69.040,-274.490,-21.020
891,52735.843000,243.151,21.627,-38.848,481.684,254.188,-73.162,-56.040,-288.490,-0.020
892,52735.884000,246.116,14.585,-41.837,480.743,257.954,-77.984,-32.040,-324.490,-20.020
893,52735.925000,226.347,18.609,-50.802,477.789,253.913,-83.964,-160.040,-412.490,-70.020
894,52735.965000,261.931,27.662,-7.969,476.861,260.440,-95.589,-318.040,-639.490,-88.020
895,52736.5000,298.502,29.674,-40.840,473.002,263.143,-103.382,-389.040,-808.490,-91.020
896,52736.45000,270.826,38.727,-72.716,466.231,265.730,-115.107,-767.040,-729.490,-106.020
897,52736.88000,258.965,21.627,-64.747,458.550,271.502,-114.014,-1272.040,-603.490,-46.020
898,52736.103000,229.313,19.615,-92.638,455.792,283.426,-100.026,-2114.040,-524.490,169.980
899,52736.143000,215.475,24.644,-54.786,463.564,281.171,-73.582,-2339.040,-291.490,262.980
900,52736.183000,209.544,51.804,-50.802,461.654,280.505,-58.891,-1211.040,175.510,356.980
901,52736.228000,211.521,67.898,-56.778,467.471,278.037,-41.281,-623.040,357.510,304.980
902,52736.263000,238.208,0.503,-83.673,469.343,268.649,-27.757,296.960,539.510,148.980
903,52736.304000,237.220,69.910,-139.455,469.317,266.643,-30.743,849.960,248.510,-13.020
904,52736.346000,243.151,33.697,-81.681,467.430,273.247,-38.446,201.960,10.510,35.980
905,52736.386000,228.324,-64.880,-56.778,472.218,267.534,-35.621,766.960,306.510,312.980
906,52736.426000,217.452,127.246,-93.634,471.215,263.663,-34.728,-2.040,153.510,-29.020
907,52736.446000,284.664,61.862,-26.895,471.188,259.887,-29.909,462.960,333.510,118.980
908,52736.484000,258.965,27.662,-65.743,475.947,251.261,-27.148,252.960,278.510,158.980
909,52736.525000,257.977,15.591,-60.763,477.922,254.301,-22.173,-159.040,327.510,108.980
910,52736.566000,256.988,38.727,-59.767,479.867,251.773,-5.554,-247.040,438.510,117.980
911,52736.609000,257.977,21.627,-56.778,478.888,247.255,10.034,-257.040,607.510,140.980
912,52736.644000,252.046,38.727,-40.840,488.605,248.644,24.796,-401.040,675.510,171.980
913,52736.684000,257.977,45.768,-16.934,488.632,247.133,44.375,-541.040,635.510,229.980
914,52736.724000,263.907,43.756,-14.942,490.470,233.020,63.679,-596.040,598.510,187.980
915,52736.744000,260.942,28.668,-34.864,487.587,230.533,84.212,-527.040,596.510,54.980
916,52736.784000,256.988,23.639,-63.751,488.644,236.691,99.061,-828.040,379.510,6.980
917,52736.825000,208.556,120.204,-178.303,490.538,230.151,109.707,-1011.040,31.510,-33.020
918,52736.869000,224.371,100.086,-147.424,498.189,222.330,103.665,-2112.040,-789.490,-314.020
919,52736.904000,228.324,100.086,-125.510,498.232,228.026,97.908,-2153.040,-1142.490,-530.020
920,52736.945000,239.197,80.974,-117.541,500.219,238.228,75.583,-1195.040,-1333.490,-753.020
921,52736.986000,256.000,87.010,-99.611,492.624,260.677,40.762,-735.040,-1339.490,-826.020
922,52737.26000,259.954,67.898,-90.646,486.044,287.105,9.953,-929.040,-1339.490,-797.020
923,52737.46000,264.896,56.833,-88.654,469.756,307.829,-11.196,-1097.040,-1311.490,-748.020
924,52737.84000,265.884,48.786,-85.665,445.702,325.587,-31.446,-1150.040,-1277.490,-737.020
925,52737.124000,256.988,35.709,-71.720,430.403,345.651,-38.878,-952.040,-1228.490,-720.020
926,52737.169000,243.151,36.715,-60.763,407.289,357.874,-46.501,-714.040,-1135.490,-716.020
927,52737.204000,228.324,25.650,-59.767,388.069,374.773,-63.818,-77.040,-1010.490,-599.020
928,52737.246000,205.591,27.662,-21.914,374.595,384.997,-78.330,109.960,-852.490,-455.020
929,52737.289000,183.846,24.644,9.961,361.035,385.598,-89.132,127.960,-463.490,-176.020
930,52737.325000,142.332,0.503,-97.619,359.984,379.505,-101.037,364.960,-80.490,75.980
931,52737.364000,156.170,-68.904,-55.782,362.787,373.298,-119.802,1335.960,242.510,599.980
932,52737.399000,209.544,180.558,-210.179,362.637,359.533,-127.953,500.960,69.510,486.980
933,52737.428000,288.618,-21.627,-52.794,371.169,339.446,-118.574,505.960,474.510,746.980
934,52737.469000,286.641,-6.538,-48.809,382.619,324.823,-126.720,1099.960,464.510,701.980
935,52737.504000,298.502,94.051,-87.658,389.310,316.195,-124.936,-46.040,187.510,566.980
936,52737.551000,286.641,138.310,-114.553,392.153,309.492,-122.137,-24.040,71.510,330.980
937,52737.599000,311.351,58.845,-114.553,397.871,300.789,-123.299,334.960,76.510,310.980
938,52737.625000,237.220,10.562,-146.428,398.754,292.061,-123.491,45.960,124.510,204.980
939,52737.665000,206.579,52.809,-155.393,402.670,295.183,-115.568,-115.040,379.510,154.980
940,52737.694000,222.394,60.857,-120.529,411.404,295.527,-103.774,-39.040,558.510,176.980
941,52737.725000,231.290,44.762,-89.650,417.110,282.315,-89.345,-128.040,512.510,190.980
942,52737.771000,228.324,33.697,-73.712,419.084,284.470,-80.467,-159.040,321.510,144.980
943,52737.805000,222.394,30.680,-76.700,419.112,286.498,-76.499,-105.040,146.510,63.980
944,52737.846000,231.290,37.721,-78.693,421.063,287.552,-73.530,9.960,-13.490,-61.020
945,52737.895000,226.347,41.745,-91.642,417.189,287.471,-75.501,23.960,-108.490,-127.020
946,52737.924000,229.313,44.762,-86.661,413.359,292.223,-78.346,19.960,-165.490,-155.020
947,52737.969000,235.243,40.739,-96.623,417.223,293.081,-85.183,33.960,-218.490,-231.020
948,52737.985000,244.139,39.733,-97.619,407.660,305.500,-89.831,4.960,-229.490,-311.020
949,52738.26000,262.919,40.739,-106.584,399.968,311.163,-93.644,-32.040,-237.490,-438.020
950,52738.65000,260.942,68.904,-102.599,395.225,321.710,-97.343,-36.040,-217.490,-517.020
951,52738.105000,286.641,88.016,-101.603,388.510,328.353,-101.132,-132.040,-236.490,-602.020
952,52738.149000,282.687,97.069,-84.669,377.979,340.763,-105.782,-60.040,-328.490,-655.020
953,52738.186000,281.699,64.880,-66.739,369.327,347.366,-110.557,-173.040,-469.490,-700.020
954,52738.224000,262.919,33.697,-56.778,358.858,366.529,-117.018,-363.040,-584.490,-665.020
955,52738.264000,235.243,48.786,-70.724,349.318,380.933,-119.661,-681.040,-752.490,-648.020
956,52738.308000,219.429,29.674,-89.650,332.994,392.509,-115.516,-907.040,-718.490,-567.020
957,52738.328000,209.544,27.662,-137.463,332.115,403.028,-122.149,-514.040,-793.490,-434.020
958,52738.366000,204.602,3.521,-59.767,329.246,407.725,-127.934,359.960,-309.490,-173.020
959,52738.405000,170.008,12.574,-41.837,332.924,391.841,-145.931,1207.960,411.510,106.980
960,52738.454000,170.008,41.745,-65.743,358.015,387.080,-152.848,1110.960,1168.510,428.980
961,52738.490000,187.799,61.862,-83.673,388.827,368.375,-134.566,586.960,1643.510,563.980
962,52738.526000,224.371,69.910,-102.599,421.589,346.300,-93.799,-80.040,2055.510,841.980
963,52738.571000,258.965,75.945,-121.525,453.350,318.629,-42.372,211.960,2231.510,1055.980
964,52738.609000,266.873,104.110,-152.405,471.611,300.038,-13.326,1557.960,2186.510,1081.980
965,52738.635000,268.849,102.098,-163.362,482.086,274.769,24.381,2087.960,1917.510,939.980
966,52738.668000,245.127,92.039,-160.374,489.710,258.771,43.655,2051.960,1522.510,697.980
967,52738.708000,226.347,97.069,-153.401,488.616,242.581,58.004,1480.960,994.510,341.980
968,52738.751000,218.440,78.963,-122.521,482.794,239.720,62.831,888.960,527.510,228.980
969,52738.786000,214.486,98.075,-185.276,479.915,241.676,64.830,765.960,141.510,168.980
970,52738.828000,213.498,100.086,-179.300,477.995,244.440,59.003,315.960,-268.490,-43.020
971,52738.866000,258.965,69.910,-69.728,483.823,249.999,44.429,75.960,-434.490,-94.020
972,52738.906000,274.780,-2.515,-69.728,483.814,249.912,40.504,513.960,-108.490,91.980
973,52738.925000,257.977,31.686,-45.821,482.773,243.042,37.408,-113.040,-11.490,33.980
974,52738.965000,252.046,37.721,-39.844,484.809,251.950,44.474,9.960,142.510,70.980
975,52739.5000,253.035,26.656,-33.868,485.719,245.249,48.250,23.960,275.510,117.980
976,52739.63000,257.977,29.674,-32.872,485.710,243.394,52.132,-49.040,352.510,142.980
977,52739.89000,256.988,21.627,-19.922,486.697,243.598,60.964,-173.040,431.510,158.980
978,52739.125000,251.058,21.627,-1.992,488.586,236.130,73.551,-220.040,422.510,182.980
979,52739.165000,249.081,3.521,14.942,487.485,219.875,84.956,-81.040,344.510,154.980
980,52739.205000,247.104,-9.556,26.895,488.556,229.679,89.098,15.960,135.510,58.980
981,52739.249000,251.058,-0.503,19.922,488.565,230.650,89.120,12.960,-55.490,-29.020
982,52739.274000,254.023,19.615,-5.977,487.584,230.511,83.231,-9.040,-146.490,-65.020
983,52739.308000,248.093,17.603,-13.946,489.498,228.567,82.211,-22.040,-127.490,-51.020
984,52739.348000,255.012,21.627,-15.938,487.526,225.549,78.217,-8.040,-48.490,-11.020
985,52739.389000,253.035,17.603,-12.949,487.554,227.577,82.185,-3.040,14.510,17.980
986,52739.429000,256.000,18.609,-9.961,489.524,231.458,81.295,-17.040,65.510,40.980
987,52739.466000,254.023,12.574,0.000,485.668,232.434,83.269,-77.040,73.510,36.980
988,52739.509000,253.035,9.556,1.992,486.555,223.749,85.040,-87.040,53.510,24.980
989,52739.545000,254.023,12.574,0.996,485.573,220.956,90.860,-76.040,29.510,13.980
990,52739.565000,250.069,10.562,0.996,488.492,222.904,89.928,-65.040,16.510,7.980
991,52739.606000,254.023,9.556,-2.988,484.665,227.678,88.065,-49.040,8.510,-0.020
992,52739.645000,255.012,14.585,-1.992,487.593,229.713,91.058,-44.040,16.510,-1.020
993,52739.685000,252.046,10.562,-1.992,488.568,230.671,90.101,-29.040,18.510,6.980
994,52739.725000,254.023,14.585,-2.988,489.476,224.834,88.993,-29.040,29.510,12.980
995,52739.766000,253.035,13.580,0.996,487.557,225.851,91.953,-28.040,39.510,15.980
996,52739.806000,253.035,10.562,4.981,484.624,222.004,94.804,-27.040,33.510,12.980
997,52739.848000,252.046,11.568,0.996,487.576,226.908,95.899,-27.040,22.510,9.980
998,52739.868000,252.046,13.580,1.992,487.569,225.959,96.859,-43.040,9.510,8.980
999,52739.906000,252.046,13.580,3.984,487.580,226.951,97.862,-35.040,-0.490,11.980
1000,52739.946000,253.035,12.574,2.988,487.545,223.974,94.853,-3.040,-4.490,20.980
1001,52739.986000,254.023,11.568,3.984,486.604,226.855,93.935,1.960,-8.490,20.980
1002,52740.31000,252.046,10.562,0.000,491.417,224.033,95.844,6.960,-8.490,24.980
1003,52740.66000,256.000,11.568,0.000,490.464,225.038,97.825,-3.040,-4.490,27.980
1004,52740.108000,253.035,11.568,0.996,491.408,223.062,95.822,-8.040,4.510,34.980
1005,52740.148000,255.012,10.562,0.996,487.486,217.242,97.646,5.960,11.510,40.980
1006,52740.193000,255.012,11.568,0.996,490.374,216.257,95.669,11.960,17.510,42.980
1007,52740.206000,253.035,9.556,0.000,490.356,214.315,95.626,26.960,17.510,42.980
1008,52740.253000,253.035,8.550,1.992,490.398,218.242,97.674,17.960,11.510,34.980
1009,52740.298000,253.035,7.544,3.984,488.414,213.347,96.581,18.960,-2.490,31.980
1010,52740.330000,253.035,8.550,2.988,489.456,221.123,96.756,-2.040,-11.490,27.980
1011,52740.371000,256.000,9.556,1.992,493.275,216.263,94.694,-30.040,-3.490,23.980
1012,52740.408000,256.000,9.556,4.981,492.333,218.260,97.679,-51.040,42.510,37.980
1013,52740.446000,251.058,5.532,1.992,493.295,217.342,99.622,5.960,40.510,32.980
1014,52740.490000,254.023,4.527,1.992,491.346,216.309,97.633,46.960,13.510,26.980
1015,52740.510000,255.012,5.532,3.984,492.318,215.477,103.501,73.960,-14.490,11.980
1016,52740.546000,254.023,6.538,3.984,495.183,213.391,95.615,77.960,-22.490,3.980
1017,52740.590000,253.035,9.556,0.996,490.318,210.431,95.539,78.960,-22.490,3.980
