Sample, Time, ACCX, ACCY, ACCZ, MAGX, MAGY, MAGZ, GYRX, GYRY, GYRZ
0,52702.306000,240.216,76.245,-48.595,393.562,309.676,9.682,-125.200,-28.710,9.420
1,52702.337000,240.216,76.245,-50.599,396.205,318.302,7.985,-138.200,-23.710,11.420
2,52702.378000,240.216,74.225,-50.599,398.843,311.360,7.768,-124.200,-9.710,15.420
3,52702.398000,237.256,74.225,-50.599,397.964,313.963,7.849,-91.200,14.290,14.420
4,52702.468000,237.256,73.215,-51.601,397.081,311.358,7.762,-78.200,39.290,8.420
5,52702.498000,237.256,75.235,-54.607,396.207,308.838,10.656,-96.200,81.290,9.420
6,52702.560000,237.256,73.215,-48.595,394.458,315.865,13.858,-101.200,119.290,6.420
7,52702.592000,242.189,77.254,-33.566,396.234,315.139,18.805,-85.200,120.290,-2.580
8,52702.629000,236.270,73.215,-35.569,395.362,319.535,20.931,-46.200,88.290,-4.580
9,52702.638000,234.297,75.235,-38.575,392.723,310.098,24.588,-17.200,69.290,-8.580
10,52702.670000,237.256,79.274,-32.564,396.242,307.468,23.521,-9.200,46.290,-12.580
11,52702.700000,233.310,67.156,-44.587,394.489,311.863,25.644,-15.200,37.290,-18.580
12,52702.742000,240.216,76.245,-38.575,391.852,315.362,26.742,-142.200,20.290,-24.580
13,52702.784000,244.162,72.205,-35.569,393.625,315.476,30.723,-71.200,31.290,-22.580
14,52702.859000,236.270,85.333,-31.562,394.510,317.240,31.776,-70.200,17.290,-1.580
15,52702.879000,234.297,89.373,-36.571,389.226,315.529,32.697,11.800,51.290,32.420
16,52702.887000,229.364,82.304,-38.575,392.744,315.475,30.721,4.800,71.290,49.420
17,52702.920000,234.297,80.284,-27.554,392.748,309.483,33.505,23.800,57.290,67.420
18,52702.960000,245.148,72.205,-21.542,396.263,312.845,29.654,141.800,-4.710,54.420
19,52703.0,243.175,74.225,-29.558,398.018,310.186,27.587,156.800,-57.710,50.420
20,52703.50000,243.175,77.254,-31.562,397.128,310.101,24.602,195.800,-14.710,45.420
21,52703.87000,241.202,71.195,-49.597,399.763,307.443,22.538,38.800,4.290,60.420
22,52703.142000,234.297,70.185,-41.581,398.006,306.630,24.492,10.800,35.290,64.420
23,52703.187000,242.189,68.166,-33.566,397.125,305.761,24.461,-13.200,26.290,49.420
24,52703.204000,239.229,70.185,-36.571,398.009,305.790,25.458,-5.200,19.290,27.420
25,52703.220000,239.229,69.176,-36.571,399.766,310.915,22.651,2.800,12.290,16.420
26,52703.303000,240.216,69.176,-33.566,401.537,307.557,26.520,25.800,5.290,7.420
27,52703.319000,241.202,70.185,-36.571,399.770,301.479,26.317,23.800,-3.710,0.420
28,52703.344000,237.256,70.185,-37.573,400.651,308.368,24.557,30.800,-12.710,-1.580
29,52703.363000,240.216,70.185,-33.566,399.772,308.395,25.548,2.800,-26.710,-0.580
30,52703.421000,240.216,69.176,-38.575,399.764,308.311,22.567,-8.200,-27.710,-1.580
31,52703.461000,238.243,69.176,-39.577,398.889,308.366,24.552,21.800,-15.710,-2.580
32,52703.509000,241.202,69.176,-37.573,398.010,307.526,25.515,9.800,-15.710,-6.580
33,52703.606000,239.229,72.205,-38.575,395.358,306.572,22.496,29.800,-1.710,-7.580
34,52703.661000,237.256,71.195,-37.573,397.999,303.969,22.420,23.800,6.290,2.420
35,52703.699000,242.189,71.195,-39.577,398.001,307.441,22.533,7.800,8.290,5.420
36,52703.739000,238.243,71.195,-38.575,402.402,309.992,20.644,5.800,15.290,12.420
37,52703.878000,241.202,69.176,-35.569,398.000,304.837,22.448,19.800,13.290,13.420
38,52703.930000,239.229,68.166,-36.571,402.414,310.973,24.648,22.800,5.290,8.420
39,52703.948000,238.243,70.185,-34.568,402.399,309.096,19.622,33.800,-7.710,3.420
40,52703.978000,241.202,69.176,-36.571,398.001,298.818,24.239,19.800,-22.710,-2.580
41,52704.2000,240.216,73.215,-37.573,399.751,305.594,18.506,6.800,-28.710,-1.580
42,52704.51000,239.229,69.176,-41.581,399.751,302.150,19.388,14.800,-24.710,1.420
43,52704.52000,240.216,68.166,-42.583,398.866,303.829,17.453,16.800,-7.710,3.420
44,52704.70000,239.229,72.205,-40.579,396.233,313.403,18.749,1.800,4.290,7.420
45,52704.83000,240.216,70.185,-39.577,400.637,309.095,19.616,-9.200,17.290,15.420
46,52704.158000,239.229,69.176,-41.581,401.526,308.312,22.572,0.800,31.290,18.420
47,52704.190000,241.202,71.195,-36.571,398.884,310.046,22.620,-6.200,35.290,16.420
48,52704.240000,240.216,69.176,-38.575,397.999,308.281,21.567,-7.200,39.290,17.420
49,52704.268000,238.243,69.176,-35.569,403.281,303.077,21.415,-9.200,37.290,16.420
50,52704.323000,243.175,71.195,-38.575,404.174,307.502,24.541,-21.200,37.290,17.420
51,52704.323000,240.216,69.176,-39.577,402.411,306.633,24.507,-17.200,62.290,22.420
52,52704.356000,240.216,69.176,-39.577,402.423,306.746,28.482,-25.200,81.290,26.420
53,52704.373000,242.189,70.185,-37.573,400.655,306.688,26.489,-25.200,100.290,26.420
54,52704.385000,242.189,69.176,-38.575,398.024,304.223,31.365,-34.200,145.290,35.420
55,52704.469000,241.202,66.146,-36.571,399.792,300.837,34.240,-32.200,190.290,42.420
56,52704.485000,242.189,68.166,-36.571,399.814,300.194,42.163,-43.200,229.290,45.420
57,52704.563000,244.162,67.156,-31.562,403.352,302.913,46.235,-12.200,288.290,56.420
58,52704.663000,242.189,68.166,-22.544,402.478,302.129,49.186,3.800,311.290,59.420
59,52704.719000,244.162,65.136,-13.526,405.142,303.196,56.180,14.800,312.290,53.420
60,52704.758000,242.189,64.126,-4.509,402.520,304.260,63.157,24.800,271.290,32.420
61,52704.758000,241.202,67.156,0.501,400.760,304.286,64.145,17.800,215.290,24.420
62,52704.783000,241.202,65.136,4.509,397.241,298.292,66.918,18.800,142.290,18.420
63,52704.820000,242.189,65.136,6.513,402.530,299.192,67.957,13.800,43.290,7.420
64,52704.820000,244.162,66.146,-5.511,400.771,299.219,68.945,-5.200,0.290,2.420
65,52704.871000,241.202,64.126,-11.523,401.639,293.927,65.798,-5.200,-1.710,6.420
66,52704.889000,244.162,65.136,-8.517,402.530,302.636,67.076,-6.200,-5.710,1.420
67,52704.941000,246.135,67.156,-11.523,397.250,302.689,69.047,-10.200,11.290,5.420
68,52704.955000,243.175,66.146,-9.519,397.254,305.321,70.125,23.800,35.290,17.420
69,52705.1000,243.175,66.146,-3.507,399.005,297.454,67.889,23.800,26.290,15.420
70,52705.30000,245.148,65.136,-6.513,402.531,296.617,68.867,9.800,21.290,13.420
71,52705.51000,242.189,66.146,-6.513,399.009,294.906,69.793,12.800,20.290,16.420
72,52705.78000,243.175,65.136,-6.513,400.767,301.767,67.042,15.800,11.290,13.420
73,52705.103000,245.148,64.126,-5.511,403.418,304.429,69.123,10.800,4.290,11.420
74,52705.153000,242.189,66.146,-8.517,400.768,302.635,67.070,14.800,6.290,14.420
75,52705.170000,244.162,65.136,-9.519,399.019,305.350,71.125,15.800,12.290,15.420
76,52705.221000,246.135,64.126,-8.517,401.651,298.352,68.920,18.800,27.290,19.420
77,52705.270000,247.121,65.136,-6.513,400.768,295.747,68.833,18.800,48.290,21.420
78,52705.283000,244.162,64.126,-6.513,399.897,296.699,71.840,25.800,57.290,18.420
79,52705.331000,244.162,63.116,-4.509,402.544,302.777,72.046,14.800,49.290,13.420
80,52705.359000,243.175,64.126,-3.507,400.782,299.332,72.921,19.800,34.290,10.420
81,52705.383000,245.148,64.126,-3.507,398.138,297.594,72.856,4.800,21.290,3.420
82,52705.410000,245.148,62.107,-4.509,400.779,299.304,71.927,-0.200,19.290,2.420
83,52705.449000,244.162,62.107,-4.509,401.663,298.465,72.896,-13.200,17.290,0.420
84,52705.490000,244.162,63.116,-4.509,396.392,299.470,77.876,-10.200,20.290,-0.580
85,52705.550000,244.162,64.126,-5.511,403.421,293.258,72.732,-0.200,34.290,4.420
86,52705.651000,245.148,63.116,-2.505,403.432,293.371,76.708,4.800,40.290,4.420
87,52705.743000,245.148,64.126,0.501,402.556,300.314,76.931,3.800,33.290,1.420
88,52705.743000,245.148,66.146,-2.505,397.265,293.366,76.688,5.800,23.290,0.420
89,52705.783000,246.135,63.116,2.505,400.803,301.265,79.935,8.800,14.290,-2.580
90,52705.809000,244.162,65.136,-2.505,398.155,301.207,77.938,-6.200,6.290,-5.580
91,52705.809000,244.162,64.126,-2.505,397.276,292.611,80.636,-2.200,7.290,-4.580
92,52705.834000,245.148,64.126,-1.503,400.797,296.029,78.772,-8.200,7.290,-6.580
93,52705.846000,247.121,66.146,-1.503,399.035,299.471,77.885,-19.200,11.290,-9.580
94,52705.865000,245.148,66.146,-0.501,398.156,302.075,77.967,-17.200,10.290,-9.580
95,52705.900000,245.148,63.116,-0.501,398.155,301.207,77.938,-31.200,4.290,-10.580
96,52705.945000,245.148,64.126,-1.503,399.042,301.264,79.929,-37.200,-2.710,-14.580
97,52705.959000,244.162,65.136,-0.501,399.917,294.321,79.707,-70.200,-11.710,-21.580
98,52705.989000,245.148,66.146,1.503,396.400,299.554,80.858,-47.200,-5.710,-15.580
99,52706.23000,243.175,65.136,0.501,399.046,303.028,80.979,-19.200,-2.710,-10.580
100,52706.46000,246.135,66.146,1.503,400.806,300.425,80.901,-34.200,-8.710,-15.580
101,52706.60000,245.148,65.136,1.503,399.922,304.708,79.051,-23.200,-7.710,-14.580
102,52706.84000,244.162,66.146,-0.501,399.044,301.292,80.923,-27.200,-2.710,-13.580
103,52706.146000,245.148,66.146,1.503,400.816,303.114,83.967,-16.200,2.290,-8.580
104,52706.179000,244.162,66.146,0.501,398.167,302.188,81.942,-17.200,5.290,-6.580
105,52706.256000,244.162,65.136,2.505,395.522,291.826,83.584,-6.200,5.290,-5.580
106,52706.300000,244.162,66.146,1.503,395.521,297.846,81.793,-15.200,0.290,-7.580
107,52706.325000,245.148,67.156,2.505,398.163,296.980,81.773,-12.200,1.290,-5.580
108,52706.338000,245.148,66.146,0.501,395.523,297.006,82.759,-7.200,3.290,-7.580
109,52706.379000,243.175,65.136,3.507,396.411,303.111,83.953,-15.200,5.290,-8.580
110,52706.411000,244.162,66.146,0.501,396.422,302.355,87.900,-20.200,5.290,-11.580
111,52706.435000,242.189,68.166,6.513,397.301,306.640,86.056,-30.200,2.290,-5.580
112,52706.466000,242.189,65.136,0.501,399.058,304.009,84.983,-9.200,1.290,-3.580
113,52706.518000,245.148,66.146,2.505,394.648,297.929,84.772,-14.200,-0.710,-4.580
114,52706.531000,244.162,65.136,0.501,394.649,303.109,83.947,-8.200,4.290,-4.580
115,52706.565000,244.162,66.146,2.505,395.533,302.270,84.915,-17.200,4.290,1.420
116,52706.604000,244.162,68.166,5.511,396.416,301.431,85.884,2.800,3.290,7.420
117,52706.628000,244.162,66.146,4.509,398.179,303.168,85.946,6.800,-7.710,9.420
118,52706.685000,243.175,67.156,1.503,393.765,302.212,82.922,6.800,-10.710,10.420
119,52706.740000,242.189,66.146,1.503,393.763,299.608,82.837,17.800,-14.710,12.420
120,52706.764000,244.162,65.136,2.505,395.530,298.798,84.803,15.800,-17.710,11.420
121,52706.774000,245.148,66.146,1.503,396.403,295.270,82.705,20.800,-17.710,12.420
122,52706.805000,244.162,65.136,2.505,397.289,303.083,82.962,22.800,-19.710,10.420
123,52706.848000,245.148,65.136,0.501,398.175,297.960,85.777,11.800,-27.710,7.420
124,52706.901000,244.162,66.146,-1.503,397.281,299.555,80.861,11.800,-22.710,6.420
125,52707.19000,244.162,66.146,-0.501,394.635,298.657,79.830,-1.200,-19.710,1.420
126,52707.55000,245.148,65.136,0.501,397.283,302.159,80.946,-5.200,-16.710,3.420
127,52707.68000,243.175,67.156,1.503,397.276,299.498,78.873,-6.200,-20.710,-1.580
128,52707.153000,244.162,66.146,-1.503,394.628,296.864,77.786,-8.200,-25.710,-0.580
129,52707.201000,244.162,66.146,-0.501,397.289,302.215,82.933,-3.200,-23.710,0.420
130,52707.226000,244.162,66.146,-0.501,399.048,302.188,81.945,-5.200,-21.710,0.420
131,52707.270000,244.162,66.146,-0.501,396.402,301.290,80.915,-6.200,-19.710,0.420
132,52707.323000,244.162,66.146,-0.501,396.398,303.838,79.011,-6.200,-19.710,-3.580
133,52707.346000,243.175,66.146,-1.503,397.284,303.895,81.002,0.800,-21.710,-0.580
134,52707.370000,244.162,65.136,-0.501,399.037,299.500,78.879,-3.200,-22.710,1.420
135,52707.468000,244.162,66.146,-3.507,394.631,296.892,78.780,0.800,-15.710,3.420
136,52707.468000,244.162,65.136,-1.503,399.920,302.104,78.966,5.800,-11.710,3.420
137,52707.515000,244.162,65.136,-2.505,397.268,300.282,75.920,1.800,-10.710,4.420
138,52707.586000,245.148,66.146,-2.505,400.799,302.945,78.003,6.800,-6.710,7.420
139,52707.656000,244.162,64.126,-1.503,395.506,300.281,75.914,9.800,-4.710,7.420
140,52707.715000,243.175,65.136,-3.507,395.507,298.573,76.852,9.800,-6.710,5.420
141,52707.715000,245.148,66.146,-1.503,398.155,296.895,78.792,10.800,-3.710,6.420
142,52707.749000,244.162,65.136,-3.507,394.624,299.412,75.883,10.800,-1.710,6.420
143,52707.801000,243.175,64.126,-3.507,396.391,302.913,76.995,13.800,-0.710,7.420
144,52707.813000,244.162,65.136,-1.503,397.275,302.074,77.964,10.800,-4.710,6.420
145,52707.918000,245.148,65.136,-1.503,396.389,295.998,77.764,12.800,-6.710,5.420
146,52708.13000,244.162,65.136,-4.509,397.267,295.970,76.773,14.800,-4.710,4.420
147,52708.13000,245.148,65.136,-3.507,398.151,302.887,76.007,13.800,-1.710,4.420
148,52708.68000,245.148,64.126,-4.509,399.906,297.652,74.850,12.800,7.290,6.420
149,52708.68000,244.162,65.136,-3.507,399.912,298.576,76.866,9.800,9.290,5.420
150,52708.116000,245.148,66.146,-1.503,399.035,300.340,77.913,10.800,7.290,6.420
151,52708.135000,245.148,65.136,-1.503,397.272,302.046,76.970,4.800,1.290,5.420
152,52708.193000,245.148,64.126,-2.505,399.916,296.028,78.769,0.800,-2.710,0.420
153,52708.193000,242.189,65.136,-2.505,395.510,302.913,76.992,2.800,-5.710,1.420
154,52708.336000,245.148,66.146,-3.507,398.150,295.131,77.741,3.800,-4.710,2.420
155,52708.337000,245.148,66.146,-3.507,399.030,297.707,76.835,4.800,-4.710,3.420
156,52708.423000,244.162,65.136,-2.505,397.270,299.442,76.885,3.800,-2.710,2.420
157,52708.423000,245.148,66.146,-2.505,400.786,301.096,73.971,-3.200,-7.710,1.420
158,52708.461000,244.162,65.136,-3.507,399.032,300.311,76.919,-1.200,-8.710,0.420
159,52708.519000,244.162,65.136,-3.507,399.921,302.972,78.994,-1.200,-4.710,2.420
160,52708.536000,245.148,65.136,-1.503,399.917,302.076,77.972,-2.200,-2.710,1.420
161,52708.608000,244.162,65.136,-3.507,401.665,297.625,73.862,-3.200,-3.710,0.420
162,52708.608000,245.148,64.126,-3.507,399.911,296.840,76.809,-3.200,-5.710,1.420
163,52708.608000,243.175,65.136,-3.507,401.665,298.493,73.890,-6.200,-7.710,-0.580
164,52708.608000,246.135,67.156,-0.501,404.320,295.164,78.755,-8.200,-7.710,-0.580
165,52708.716000,243.175,65.136,-3.507,397.278,302.970,78.986,-4.200,-5.710,-0.580
166,52708.716000,245.148,63.116,-2.505,400.796,302.049,76.981,-3.200,-5.710,-1.580
167,52708.742000,244.162,66.146,-1.503,398.142,295.046,74.760,-4.200,-4.710,-2.580
168,52708.775000,244.162,65.136,-3.507,396.386,303.725,75.036,-5.200,-2.710,0.420
169,52708.794000,243.175,65.136,-3.507,399.038,300.368,78.907,-1.200,-1.710,-0.580
170,52708.855000,243.175,65.136,-4.509,400.793,295.133,77.750,-0.200,1.290,0.420
171,52708.855000,245.148,65.136,-3.507,399.033,297.736,77.829,-0.200,4.290,1.420
172,52708.970000,245.148,65.136,-3.507,395.511,300.337,77.902,-0.200,5.290,1.420
173,52708.970000,245.148,65.136,-5.511,399.031,295.132,77.744,0.800,6.290,1.420
174,52708.970000,243.175,65.136,-1.503,398.143,300.226,73.935,1.800,2.290,-0.580
175,52708.993000,245.148,65.136,-2.505,397.272,302.046,76.970,1.800,0.290,-0.580
176,52709.10000,243.175,66.146,-3.507,399.027,292.499,76.666,5.800,1.290,0.420
177,52709.45000,244.162,66.146,-2.505,398.148,295.971,76.776,2.800,1.290,0.420
178,52709.64000,243.175,65.136,-3.507,399.036,302.076,77.969,2.800,-0.710,-0.580
179,52709.158000,242.189,64.126,-2.505,398.153,302.047,76.973,3.800,-5.710,-1.580
180,52709.158000,243.175,61.097,5.511,397.270,303.754,76.032,-38.200,-45.710,-24.580
181,52709.158000,239.229,62.107,10.521,397.263,301.094,73.960,-91.200,-104.710,-39.580
182,52709.170000,236.270,59.077,18.536,399.023,298.491,73.881,-191.200,-234.710,-73.580
183,52709.195000,257.973,62.107,9.519,396.381,300.225,73.929,-416.200,-440.710,-112.580
184,52709.229000,255.013,93.412,-0.501,399.007,300.058,67.974,-308.200,-460.710,0.420
185,52709.266000,254.027,78.264,-49.597,406.050,293.987,67.800,-126.200,-336.710,117.420
186,52709.266000,225.418,85.333,-51.601,406.920,298.187,62.974,116.800,-11.710,186.420
187,52709.278000,255.013,79.274,-41.581,406.034,292.110,62.774,334.800,258.290,238.420
188,52709.304000,276.717,67.156,-52.603,406.922,293.035,64.793,829.800,588.290,314.420
189,52709.328000,202.728,100.481,-109.714,408.699,279.402,73.293,322.800,664.290,261.420
190,52709.353000,198.782,166.122,-226.943,403.338,284.685,45.643,1484.800,-210.710,-235.580
191,52709.375000,244.162,90.383,-183.859,401.460,303.352,0.565,2475.800,-1136.710,-717.580
192,52709.403000,233.310,85.333,-137.769,387.145,314.948,-79.536,2905.800,-1622.710,-718.580
193,52709.438000,238.243,80.284,-116.728,364.048,318.196,-148.021,1630.800,-1910.710,-572.580
194,52709.478000,230.351,78.264,-77.652,338.347,313.213,-200.894,724.800,-1841.710,-323.580
195,52709.509000,214.566,63.116,-71.640,320.676,316.137,-219.723,209.800,-1557.710,-238.580
196,52709.596000,196.809,66.146,-107.710,298.571,317.040,-248.561,-150.200,-1392.710,-225.580
197,52709.623000,187.931,54.028,-105.706,276.505,317.469,-263.513,-212.200,-1109.710,-147.580
198,52709.658000,183.985,53.018,-104.704,262.376,312.809,-274.632,62.800,-756.710,-58.580
199,52709.670000,157.349,53.018,-68.634,255.316,316.135,-279.512,186.800,-408.710,23.420
200,52709.695000,133.672,24.742,-6.513,250.020,312.575,-282.623,-6.200,272.290,60.420
201,52709.735000,217.526,228.734,-205.902,260.658,322.722,-261.407,-1224.200,855.290,57.420
202,52709.774000,311.245,135.826,-47.593,261.614,328.635,-236.387,-863.200,776.290,80.420
203,52709.809000,259.946,120.679,-57.613,266.050,329.816,-225.412,-623.200,810.290,18.420
204,52709.860000,264.879,127.748,-112.720,272.286,334.808,-202.391,-671.200,808.290,213.420
205,52709.873000,410.882,2.525,-75.648,282.940,344.256,-175.239,-945.200,786.290,213.420
206,52709.908000,258.960,60.087,-99.695,288.259,342.862,-163.352,-523.200,408.290,31.420
207,52709.956000,207.661,118.659,-38.575,293.567,342.223,-155.412,32.800,411.290,126.420
208,52709.990000,223.445,82.304,-59.616,295.334,341.413,-153.446,368.800,287.290,105.420
209,52710.30000,220.486,79.274,-79.656,297.975,347.435,-155.228,149.800,35.290,53.420
210,52710.69000,199.769,93.412,-80.658,300.606,343.012,-158.342,207.800,-5.710,38.420
211,52710.111000,216.540,91.393,-73.644,300.601,342.956,-160.330,153.800,-62.710,29.420
212,52710.136000,225.418,71.195,-100.697,301.464,334.164,-164.585,-37.200,-176.710,37.420
213,52710.174000,211.607,93.412,-87.671,300.572,334.918,-168.535,99.800,-166.710,53.420
214,52710.218000,214.566,107.550,-77.652,299.666,334.664,-177.483,376.800,-262.710,79.420
215,52710.269000,288.555,101.491,-46.591,301.384,329.931,-191.533,617.800,-369.710,187.420
216,52710.294000,257.973,79.274,-67.632,299.595,323.628,-199.687,389.800,-467.710,56.420
217,52710.363000,233.310,83.314,-169.832,292.497,320.541,-216.691,741.800,-533.710,-284.580
218,52710.391000,187.931,92.402,-217.926,281.855,312.073,-239.839,914.800,-512.710,-365.580
219,52710.445000,180.039,72.205,-198.888,271.237,306.435,-254.951,767.800,-556.710,-315.580
220,52710.475000,151.430,22.722,-170.834,262.384,309.450,-270.769,671.800,-452.710,-234.580
221,52710.510000,113.942,37.870,-153.800,261.480,304.044,-277.898,524.800,-236.710,-89.580
222,52710.539000,129.726,11.613,-103.703,256.172,301.239,-284.957,275.800,-201.710,-21.580
223,52710.579000,139.592,45.949,-56.611,260.593,303.987,-279.889,-497.200,215.290,271.420
224,52710.616000,128.740,179.250,-240.971,262.451,318.721,-249.615,-1952.200,41.290,128.420
225,52710.636000,200.755,53.018,-112.720,261.607,323.399,-237.550,-922.200,264.290,54.420
226,52710.676000,217.526,126.738,-76.650,259.899,331.688,-220.406,-1232.200,122.290,-24.580
227,52710.703000,271.784,113.609,-94.685,263.469,339.897,-206.226,-522.200,197.290,9.420
228,52710.738000,277.703,71.195,-120.736,269.649,339.174,-201.265,-54.200,311.290,66.420
229,52710.778000,266.852,73.215,-112.720,271.418,345.280,-200.068,-54.200,257.290,136.420
230,52710.818000,255.013,94.422,-70.638,275.829,341.895,-197.185,153.800,197.290,117.420
231,52710.835000,219.499,87.353,-54.607,276.700,340.076,-200.220,265.800,1.290,64.420
232,52710.896000,208.647,80.284,-48.595,273.150,338.952,-209.205,251.800,-444.710,-32.580
233,52710.945000,242.189,90.383,-43.585,268.706,331.666,-221.371,365.800,-759.710,-120.580
234,52710.969000,301.380,78.264,-20.540,260.710,324.965,-243.460,614.800,-1042.710,-199.580
235,52711.4000,344.786,74.225,-22.544,243.868,317.891,-278.498,1255.800,-1329.710,-187.580
236,52711.29000,341.827,105.531,-96.689,226.115,297.599,-320.919,1702.800,-1324.710,-230.580
237,52711.69000,244.162,125.728,-213.918,204.025,290.887,-343.054,457.800,-1478.710,-231.580
238,52711.98000,134.659,54.028,-133.761,193.424,286.286,-352.174,216.800,-1032.710,-266.580
239,52711.129000,86.320,15.653,-59.616,186.376,288.857,-353.106,-139.200,-287.710,-183.580
240,52711.167000,78.428,8.584,-76.650,200.522,300.573,-337.786,-555.200,845.290,128.420
241,52711.207000,72.509,31.811,-131.757,232.319,312.613,-311.475,-647.200,1395.290,279.420
242,52711.247000,103.091,35.850,-137.769,257.055,322.799,-289.220,-663.200,1803.290,424.420
243,52711.284000,145.511,62.107,-178.849,299.477,327.625,-242.257,-716.200,2217.290,626.420
244,52711.329000,187.931,94.422,-205.902,337.509,326.570,-188.547,-996.200,2126.290,663.420
245,52711.357000,188.917,96.442,-217.926,365.876,328.337,-126.834,-1482.200,1852.290,704.420
246,52711.387000,211.607,114.619,-200.892,378.323,320.849,-85.331,-2129.200,1312.290,625.420
247,52711.427000,231.337,98.462,-173.840,388.177,312.998,-25.975,-2113.200,928.290,576.420
248,52711.465000,209.634,100.481,-125.746,395.332,309.762,12.670,-1676.200,590.290,466.420
249,52711.508000,206.674,54.028,-202.896,397.128,306.657,25.484,-825.200,-381.710,-256.580
250,52711.548000,217.526,157.034,5.511,393.624,313.740,30.667,-631.200,141.290,-176.580
251,52711.568000,333.935,-28.781,-58.614,395.412,310.551,40.499,-498.200,76.290,65.420
252,52711.608000,268.825,67.156,-54.607,395.427,312.427,45.525,-522.200,198.290,-86.580
253,52711.649000,248.108,88.363,-24.548,393.686,313.491,52.505,-30.200,286.290,-23.580
254,52711.688000,252.054,77.254,-29.558,390.173,313.601,56.469,418.800,318.290,30.420
255,52711.728000,242.189,84.323,-5.511,391.042,308.310,53.321,373.800,160.290,16.420
256,52711.768000,230.351,82.304,-21.542,390.157,309.989,51.387,362.800,123.290,15.420
257,52711.809000,231.337,85.333,-16.532,391.029,317.660,46.674,256.800,66.290,-0.580
258,52711.830000,216.540,87.353,-27.554,391.915,321.161,47.783,153.800,22.290,-13.580
259,52711.869000,240.216,98.462,-14.528,387.501,319.337,44.731,162.800,-15.710,-28.580
260,52711.909000,251.067,65.136,-21.542,390.128,317.462,39.714,292.800,-88.710,2.420
261,52711.949000,265.865,61.097,-13.526,390.116,316.482,35.710,185.800,-197.710,16.420
262,52711.990000,268.825,65.136,-30.560,389.208,314.492,26.705,-18.200,-304.710,-29.580
263,52712.25000,260.933,68.166,-66.630,387.421,318.549,16.901,406.800,-547.710,-157.580
264,52712.45000,220.486,88.363,-93.683,386.497,325.013,0.227,484.800,-387.710,-144.580
265,52712.87000,204.701,36.860,-84.665,380.286,325.426,-15.667,523.800,-366.710,-129.580
266,52712.145000,199.769,55.037,-75.648,382.910,323.523,-21.678,-86.200,-235.710,184.420
267,52712.173000,196.809,74.225,-68.634,386.453,315.099,-13.003,-788.200,-257.710,269.420
268,52712.209000,195.823,65.136,-37.573,389.113,310.958,-6.178,-1183.200,-263.710,316.420
269,52712.248000,193.850,97.452,-45.589,391.790,312.166,5.785,-744.200,-60.710,197.420
270,52712.289000,233.310,155.014,41.581,393.563,307.968,10.620,-154.200,119.290,-112.580
271,52712.307000,259.946,202.477,30.560,397.118,307.413,21.536,-379.200,201.290,-64.580
272,52712.347000,320.123,-6.564,-66.630,398.003,309.177,22.589,-591.200,-150.710,154.420
273,52712.388000,256.000,75.235,-68.634,401.544,306.773,29.473,-679.200,-153.710,79.420
274,52712.427000,237.256,88.363,-66.630,400.674,301.705,34.271,-229.200,58.290,186.420
275,52712.467000,246.135,67.156,-65.628,404.218,301.905,41.240,-202.200,229.290,247.420
276,52712.507000,234.297,76.245,-47.593,405.982,286.423,45.708,-89.200,317.290,255.420
277,52712.533000,236.270,60.087,-51.601,410.417,288.444,55.718,-74.200,384.290,237.420
278,52712.568000,243.175,63.116,-18.536,411.312,281.698,62.453,-119.200,329.290,187.420
279,52712.618000,243.175,68.166,-9.519,413.975,281.897,69.419,-215.200,194.290,170.420
280,52712.652000,235.283,70.185,-18.536,413.103,278.537,73.279,-129.200,76.290,161.420
281,52712.692000,236.270,72.205,-45.589,413.105,276.829,74.216,-45.200,123.290,172.420
282,52712.727000,234.297,60.087,-55.609,414.871,270.839,77.007,26.800,286.290,211.420
283,52712.767000,239.229,76.245,-55.609,419.308,261.689,90.626,-28.200,545.290,324.420
284,52712.794000,251.067,59.077,-35.569,421.982,257.689,102.420,83.800,757.290,414.420
285,52712.829000,251.067,59.077,0.501,425.531,254.501,112.258,162.800,821.290,457.420
286,52712.868000,255.013,37.870,26.552,424.692,248.875,127.961,68.800,768.290,501.420
287,52712.910000,260.933,29.791,33.566,428.238,237.035,138.511,-145.200,683.290,496.420
288,52712.952000,250.081,27.771,57.613,428.277,225.362,155.013,-303.200,462.290,471.420
289,52712.990000,274.744,37.870,21.542,430.038,215.872,156.697,-141.200,-8.710,406.420
290,52713.10000,306.312,54.028,-27.554,431.789,213.185,153.636,588.800,140.290,248.420
291,52713.50000,293.487,92.402,9.519,430.898,214.807,149.714,639.800,103.290,89.420
292,52713.90000,273.757,58.067,12.524,430.880,224.970,141.107,341.800,-96.710,-175.580
293,52713.138000,248.108,12.623,24.548,429.992,234.376,136.444,52.800,-264.710,-237.580
294,52713.168000,195.823,-46.959,28.556,432.620,237.681,130.602,-346.200,-359.710,-155.580
295,52713.207000,182.998,-62.107,13.526,434.367,236.674,125.610,-6.200,-247.710,54.420
296,52713.248000,184.971,-1.515,6.513,435.236,235.694,121.609,11.800,-363.710,126.420
297,52713.272000,208.647,3.535,22.544,435.197,232.723,108.604,-55.200,-474.710,145.420
298,52713.329000,227.391,6.564,29.558,441.347,224.803,104.394,12.800,-462.710,72.420
299,52713.365000,238.243,25.751,38.575,443.951,221.835,91.398,26.800,-464.710,44.420
300,52713.392000,246.135,17.673,-6.513,446.566,226.735,80.642,74.800,-490.710,-27.580
301,52713.429000,218.513,135.826,31.562,446.517,225.388,63.717,133.800,-663.710,-211.580
302,52713.468000,262.906,60.087,7.515,445.641,232.332,63.940,-1334.200,-596.710,-301.580
303,52713.488000,367.476,47.968,78.654,443.006,234.122,65.975,-1084.200,-583.710,-370.580
304,52713.529000,214.566,64.126,-74.646,444.753,240.870,59.249,-587.200,-694.710,-538.580
305,52713.574000,246.135,60.087,-81.659,435.936,246.827,55.442,-508.200,-415.710,-535.580
306,52713.619000,261.919,61.097,-92.681,431.537,254.636,55.681,201.800,80.290,-311.580
307,52713.648000,256.000,61.097,-60.618,430.669,263.371,57.948,135.800,288.290,-261.580
308,52713.689000,244.162,61.097,-40.579,426.291,269.670,66.082,115.800,404.290,-245.580
309,52713.734000,240.216,76.245,-24.548,421.899,274.959,69.219,337.800,419.290,-145.580
310,52713.749000,233.310,73.215,0.501,421.913,271.656,75.070,145.800,282.290,-99.580
311,52713.788000,239.229,48.978,2.505,416.632,277.728,75.250,2.800,88.290,-133.580
312,52713.828000,237.256,72.205,14.528,412.226,280.301,74.326,-36.200,-200.710,-233.580
313,52713.870000,253.040,23.732,-29.558,408.685,287.885,66.617,-32.200,-297.710,-267.580
314,52713.915000,245.148,85.333,-56.611,409.557,294.689,61.876,164.800,-160.710,-312.580
315,52713.950000,238.243,76.245,-38.575,402.503,289.447,60.690,64.800,-52.710,-191.580
316,52713.970000,255.013,52.008,-15.530,402.511,300.731,61.056,482.800,1.290,-192.580
317,52714.20000,227.391,97.452,-26.552,400.733,304.873,54.234,189.800,-105.710,-168.580
318,52714.49000,242.189,80.284,-34.568,398.946,309.798,44.458,498.800,-114.710,-105.580
319,52714.89000,252.054,76.245,-15.530,396.282,306.995,37.408,285.800,-197.710,-142.580
320,52714.138000,251.067,81.294,-24.548,396.256,306.741,28.462,445.800,-125.710,-90.580
321,52714.172000,242.189,80.284,-45.589,394.478,308.307,22.550,364.800,-143.710,-34.580
322,52714.222000,238.243,62.107,-45.589,393.576,313.261,13.771,460.800,-128.710,-25.580
323,52714.230000,235.283,61.097,-41.581,392.666,312.978,3.829,337.800,-295.710,-26.580
324,52714.272000,222.459,63.116,-24.548,393.524,316.198,-5.001,443.800,-481.710,-94.580
325,52714.308000,222.459,70.185,-12.524,389.944,316.500,-24.863,422.800,-804.710,-156.580
326,52714.353000,228.378,38.880,-42.583,384.543,312.765,-64.721,1320.800,-1165.710,-333.580
327,52714.393000,340.840,117.649,-87.671,377.394,313.482,-100.468,1025.800,-1120.710,-211.580
328,52714.432000,276.717,73.215,-116.728,377.364,314.908,-111.345,757.800,-749.710,58.420
329,52714.452000,196.809,112.600,-125.746,372.903,308.322,-129.447,568.800,-420.710,59.420
330,52714.495000,123.807,93.412,-139.773,375.530,304.711,-134.520,329.800,-9.710,1.420
331,52714.529000,142.551,57.057,-194.881,375.528,302.975,-134.577,688.800,429.290,-100.580
332,52714.570000,160.308,27.771,-170.834,375.514,298.522,-138.693,781.800,480.290,-193.580
333,52714.610000,179.052,45.949,-154.802,376.398,295.975,-136.787,659.800,737.290,-40.580
334,52714.652000,202.728,62.107,-136.767,381.705,297.044,-129.784,385.800,587.290,-42.580
335,52714.699000,220.486,65.136,-142.779,386.989,291.000,-128.971,200.800,348.290,-47.580
336,52714.709000,247.121,84.323,-183.859,378.132,291.383,-145.867,523.800,-171.710,-214.580
337,52714.750000,239.229,68.166,-183.859,371.046,297.031,-160.602,659.800,-658.710,-381.580
338,52714.793000,214.566,49.988,-171.836,355.970,300.346,-196.290,1068.800,-1023.710,-485.580
339,52714.829000,204.701,54.028,-184.861,335.596,289.741,-233.440,1086.800,-1225.710,-506.580
340,52714.873000,194.836,44.939,-189.871,303.773,287.780,-271.339,845.800,-1482.710,-537.580
341,52714.908000,172.146,25.751,-173.840,287.839,282.696,-297.373,1043.800,-1340.710,-479.580
342,52714.950000,133.672,43.929,-153.800,260.428,267.887,-329.717,1172.800,-1024.710,-368.580
343,52714.970000,111.969,47.968,-163.820,242.740,262.018,-352.803,789.800,-672.710,-250.580
344,52715.8000,111.969,56.047,-155.804,225.079,255.563,-365.978,353.800,-460.710,-250.580
345,52715.49000,118.875,44.939,-153.800,219.788,256.371,-367.955,-16.200,-194.710,-227.580
346,52715.95000,137.618,42.919,-150.795,214.502,258.943,-368.881,-337.200,195.290,-72.580
347,52715.130000,166.227,64.126,-160.814,221.585,265.334,-357.728,-382.200,399.290,61.420
348,52715.172000,169.187,42.919,-121.738,226.016,265.590,-348.769,-412.200,470.290,121.420
349,52715.192000,147.484,37.870,-53.605,231.331,271.056,-339.638,-286.200,820.290,192.420
350,52715.230000,142.551,89.373,-153.800,245.479,277.621,-322.498,-948.200,889.290,59.420
351,52715.268000,177.079,39.890,-188.869,249.106,310.528,-293.615,-1925.200,405.290,-320.580
352,52715.308000,186.944,33.830,-243.977,246.522,318.005,-274.514,-361.200,644.290,-169.580
353,52715.348000,255.013,114.619,-46.591,247.464,323.777,-254.464,-1017.200,334.290,-84.580
354,52715.393000,283.622,76.245,-71.640,247.518,336.380,-238.167,-1529.200,141.290,-22.580
355,52715.433000,307.299,102.501,-107.710,250.212,343.777,-222.030,-484.200,395.290,27.420
356,52715.460000,291.514,114.619,-107.710,253.751,341.344,-216.140,278.800,628.290,5.420
357,52715.489000,275.730,101.491,-119.734,259.945,340.762,-206.209,13.800,615.290,32.420
358,52715.529000,257.973,111.590,-102.701,266.129,347.824,-201.988,41.800,651.290,116.420
359,52715.570000,214.566,89.373,-90.677,275.831,345.367,-197.072,300.800,677.290,113.420
360,52715.609000,191.877,70.185,-90.677,280.253,341.228,-190.241,214.800,510.290,51.420
361,52715.649000,184.971,76.245,-81.659,283.779,340.391,-189.264,135.800,333.290,-4.580
362,52715.669000,182.998,82.304,-77.652,286.421,336.081,-188.402,37.800,122.290,-50.580
363,52715.720000,220.486,85.333,-85.667,282.020,336.974,-187.395,43.800,-49.710,-60.580
364,52715.749000,249.094,95.432,-87.671,282.886,332.522,-191.508,61.800,-120.710,-38.580
365,52715.792000,263.892,105.531,-88.673,281.120,334.200,-193.445,-6.200,-185.710,15.420
366,52715.839000,269.811,97.452,-83.663,281.117,337.616,-195.321,43.800,-215.710,117.420
367,52715.875000,258.960,75.235,-63.624,280.229,340.135,-198.221,80.800,-332.710,134.420
368,52715.912000,237.256,96.442,-55.609,276.674,335.510,-208.312,138.800,-484.710,104.420
369,52715.932000,238.243,83.314,-42.583,274.869,330.775,-222.373,523.800,-658.710,7.420
370,52715.987000,280.663,56.047,-19.538,266.866,321.413,-246.535,778.800,-903.710,-57.580
371,52716.10000,289.541,62.107,-15.530,257.101,316.362,-271.555,1109.800,-1168.710,-176.580
372,52716.52000,303.353,89.373,-62.622,237.624,305.058,-302.766,921.800,-1630.710,-362.580
373,52716.90000,306.312,102.501,-110.716,210.223,299.825,-333.807,824.800,-1614.710,-334.580
374,52716.129000,182.998,107.550,-198.888,191.657,294.852,-355.873,417.800,-1451.710,-260.580
375,52716.150000,138.605,70.185,-137.769,180.186,288.627,-361.077,536.800,-678.710,-103.580
376,52716.194000,85.333,52.008,-90.677,183.696,288.489,-366.035,205.800,183.290,128.420
377,52716.230000,67.576,56.047,-106.708,211.062,288.204,-346.097,-409.200,943.290,243.420
378,52716.270000,71.522,35.850,-129.753,247.303,304.085,-306.739,-1113.200,1693.290,483.420
379,52716.312000,83.360,35.850,-155.804,292.388,313.422,-253.663,-1258.200,2288.290,698.420
380,52716.356000,129.726,68.166,-218.928,325.119,321.686,-207.612,-1307.200,2614.290,899.420
381,52716.395000,183.985,79.274,-265.018,363.201,321.977,-136.979,-1555.200,2393.290,926.420
382,52716.410000,201.742,96.442,-262.012,383.647,315.199,-70.603,-1733.200,1854.290,780.420
383,52716.450000,195.823,65.136,-202.896,392.600,307.151,-18.207,-1777.200,1044.290,529.420
384,52716.490000,157.349,254.990,-430.341,395.282,303.235,-3.430,-1623.200,-429.710,-446.580
385,52716.529000,220.486,280.237,74.646,390.880,310.148,-4.213,-518.200,-381.710,-373.580
386,52716.570000,376.355,-66.146,-92.681,391.786,313.846,3.854,215.800,-365.710,-74.580
387,52716.613000,285.595,31.811,-78.654,387.359,318.797,-4.937,-194.200,-577.710,-176.580
388,52716.633000,235.283,111.590,-115.726,382.073,322.237,-5.835,-50.200,-252.710,-108.580
389,52716.674000,223.445,81.294,-110.716,379.421,320.415,-8.881,137.800,306.290,39.420
390,52716.715000,235.283,85.333,-56.611,382.955,319.662,-4.923,82.800,397.290,59.420
391,52716.752000,218.513,90.383,-44.587,385.618,319.861,2.043,141.800,387.290,65.420
392,52716.792000,211.607,85.333,-46.591,384.741,313.869,4.825,143.800,361.290,66.420
393,52716.832000,218.513,80.284,-46.591,385.647,321.011,12.011,79.800,331.290,68.420
394,52716.872000,212.593,86.343,-23.546,389.177,318.494,14.919,75.800,242.290,77.420
395,52716.893000,220.486,92.402,-29.558,389.185,317.710,17.873,74.800,99.290,98.420
396,52716.933000,267.838,80.284,-21.542,393.583,315.921,15.843,86.800,30.290,140.420
397,52716.974000,286.582,39.890,-20.540,393.559,309.648,8.688,330.800,-82.710,142.420
398,52717.14000,278.690,45.949,-35.569,394.412,305.923,-0.367,344.800,-239.710,9.420
399,52717.53000,265.865,60.087,-52.603,394.400,304.942,-4.371,443.800,-29.710,87.420
400,52717.95000,231.337,91.393,-52.603,393.512,307.461,-7.271,94.800,-122.710,2.420
401,52717.139000,220.486,65.136,-57.613,390.851,302.110,-12.418,172.800,-145.710,-46.580
402,52717.154000,219.499,63.116,-69.636,389.958,304.573,-17.306,98.800,-26.710,5.420
403,52717.203000,224.432,76.245,-59.616,389.978,309.082,-11.201,-325.200,47.290,149.420
404,52717.231000,226.405,66.146,-56.611,394.405,300.687,-1.530,-615.200,51.290,164.420
405,52717.285000,226.405,73.215,-54.607,398.847,301.924,11.434,-764.200,51.290,143.420
406,52717.322000,231.337,66.146,-43.585,401.507,297.783,18.259,-756.200,13.290,106.420
407,52717.354000,228.378,65.136,-37.573,401.536,291.177,29.960,-714.200,-7.710,91.420
408,52717.370000,229.364,64.126,-35.569,404.192,290.452,34.910,-678.200,-42.710,63.420
409,52717.412000,230.351,89.373,-36.571,405.098,293.282,42.949,-595.200,-39.710,-13.580
410,52717.452000,242.189,56.047,-19.538,404.230,295.130,46.978,-242.200,54.290,-45.580
411,52717.498000,225.418,90.383,-47.593,402.474,296.053,48.988,-58.200,138.290,-99.580
412,52717.535000,275.730,41.909,-33.566,400.724,297.033,52.986,-229.200,-26.710,-65.580
413,52717.570000,248.108,60.087,-35.569,399.855,293.701,57.841,-440.200,-127.710,-86.580
414,52717.613000,245.148,83.314,-39.577,401.607,296.193,53.955,-307.200,-42.710,-92.580
415,52717.639000,251.067,91.393,-53.605,401.625,297.230,59.947,-95.200,142.290,17.420
416,52717.674000,246.135,88.363,-53.605,401.645,297.428,66.904,-48.200,296.290,95.420
417,52717.714000,241.202,72.205,-38.575,400.787,294.208,75.734,-27.200,426.290,161.420
418,52717.768000,240.216,69.176,-29.558,400.804,294.378,81.697,63.800,558.290,173.420
419,52717.794000,248.108,66.146,-16.532,399.965,290.488,97.456,-242.200,724.290,213.420
420,52717.837000,232.324,61.097,-6.513,398.240,282.229,112.078,-37.200,616.290,147.420
421,52717.853000,238.243,70.185,9.519,396.498,278.981,119.911,-37.200,517.290,129.420
422,52717.894000,241.202,62.107,16.532,396.532,282.763,130.956,58.800,430.290,106.420
423,52717.933000,244.162,65.136,20.540,397.421,282.848,133.941,-34.200,285.290,94.420
424,52717.982000,241.202,70.185,17.534,395.664,281.167,135.867,-60.200,255.290,122.420
425,52718.15000,243.175,67.156,13.526,394.800,274.448,143.590,-58.200,287.290,164.420
426,52718.54000,241.202,64.126,19.538,397.463,271.203,151.437,-65.200,233.290,183.420
427,52718.94000,248.108,61.097,21.542,396.588,266.947,154.275,-79.200,196.290,187.420
428,52718.114000,247.121,67.156,24.548,397.484,267.956,159.276,-193.200,188.290,225.420
429,52718.152000,244.162,59.077,29.558,402.777,255.977,164.862,-385.200,173.290,260.420
430,52718.194000,247.121,53.018,28.556,402.797,240.663,175.288,-548.200,179.290,267.420
431,52718.235000,242.189,41.909,35.569,408.107,246.072,182.431,-456.200,205.290,280.420
432,52718.275000,244.162,53.018,32.564,409.006,229.022,192.804,-482.200,238.290,324.420
433,52718.315000,254.027,33.830,48.595,409.023,221.436,200.502,-458.200,236.290,364.420
434,52718.333000,260.933,10.604,51.601,410.797,215.530,206.274,-169.200,185.290,371.420
435,52718.373000,262.906,15.653,39.577,414.327,211.277,209.126,113.800,75.290,327.420
436,52718.415000,275.730,10.604,-5.511,414.316,200.833,207.794,394.800,225.290,233.420
437,52718.454000,265.865,59.077,27.554,413.427,208.504,203.075,679.800,220.290,131.420
438,52718.494000,268.825,16.663,68.634,417.828,211.054,201.186,231.800,-23.710,117.420
439,52718.552000,262.906,-10.604,61.620,416.930,215.197,194.367,347.800,-48.710,98.420
440,52718.584000,250.081,-0.505,53.605,412.514,210.769,191.230,94.800,-146.710,99.420
441,52718.594000,223.445,-22.722,55.609,416.033,212.451,189.310,-149.200,-175.710,148.420
442,52718.634000,200.755,-17.673,36.571,418.664,203.717,187.049,-476.200,-267.710,243.420
443,52718.683000,199.769,-27.771,32.564,425.700,188.098,186.564,-609.200,-446.710,306.420
444,52718.712000,206.674,-3.535,28.556,429.214,187.148,183.566,-523.200,-500.710,314.420
445,52718.757000,211.607,-0.505,34.568,441.512,176.459,173.329,-541.200,-637.710,210.420
446,52718.793000,220.486,-8.584,45.589,446.769,169.294,165.169,-239.200,-613.710,72.420
447,52718.827000,225.418,25.751,38.575,452.014,162.855,152.068,60.800,-617.710,-100.580
448,52718.864000,215.553,15.653,47.593,450.217,173.716,137.520,274.800,-495.710,-205.580
449,52718.895000,429.626,82.304,187.867,449.316,165.762,132.294,-246.200,-389.710,-289.580
450,52718.938000,237.256,-38.880,-42.583,447.531,179.311,120.812,-826.200,-1049.710,-738.580
451,52718.975000,231.337,57.057,-90.677,443.972,192.746,105.349,-15.200,-689.710,-606.580
452,52719.29000,259.946,29.791,-73.644,441.309,204.614,95.795,301.800,-375.710,-616.580
453,52719.53000,253.040,50.998,-44.587,438.655,220.011,88.342,416.800,-251.710,-572.580
454,52719.74000,245.148,45.949,-51.601,432.479,229.385,82.669,192.800,-251.710,-554.580
455,52719.112000,246.135,61.097,-32.564,424.539,241.334,76.080,225.800,-212.710,-510.580
456,52719.157000,245.148,58.067,-37.573,421.884,251.551,69.452,161.800,-154.710,-431.580
457,52719.192000,248.108,62.107,-45.589,420.131,255.946,71.575,115.800,-74.710,-343.580
458,52719.235000,246.135,60.087,-43.585,416.595,258.407,66.679,114.800,10.290,-260.580
459,52719.275000,239.229,65.136,-38.575,411.310,262.715,65.809,52.800,14.290,-208.580
460,52719.295000,242.189,58.067,-25.550,409.548,270.469,64.069,140.800,-10.710,-180.580
461,52719.342000,245.148,65.136,-24.548,409.543,267.837,62.990,45.800,-85.710,-202.580
462,52719.373000,240.216,73.215,-20.540,403.370,278.108,58.339,82.800,-170.710,-207.580
463,52719.417000,244.162,79.274,-30.560,403.365,282.363,55.498,71.800,-266.710,-168.580
464,52719.460000,240.216,75.235,-58.614,398.939,281.295,48.498,42.800,-246.710,-133.580
465,52719.494000,245.148,72.205,-54.607,398.933,276.058,47.335,147.800,-149.710,-91.580
466,52719.534000,247.121,82.304,-45.589,399.812,285.523,44.666,147.800,-115.710,-41.580
467,52719.555000,238.243,69.176,-53.605,397.152,288.796,37.813,280.800,-60.710,-18.580
468,52719.594000,237.256,71.195,-37.573,398.891,288.571,29.867,288.800,-106.710,-7.580
469,52719.634000,217.526,63.116,-36.571,399.761,289.327,25.923,250.800,-280.710,-34.580
470,52719.677000,224.432,68.166,-51.601,400.622,289.131,18.968,158.800,-449.710,-43.580
471,52719.717000,174.119,66.146,-49.597,397.925,284.282,0.928,336.800,-600.710,-45.580
472,52719.757000,180.039,75.235,-41.581,399.635,286.352,-17.866,621.800,-712.710,-74.580
473,52719.773000,369.449,55.037,-77.652,399.565,283.940,-41.776,480.800,-720.710,87.420
474,52719.834000,292.501,62.107,-91.679,398.651,284.469,-53.678,662.800,-619.710,12.420
475,52719.858000,213.580,78.264,-103.703,398.600,284.830,-71.540,980.800,-265.710,-42.580
476,52719.894000,181.025,90.383,-116.728,392.379,276.535,-88.710,1040.800,-23.710,-111.580
477,52719.935000,167.214,88.363,-124.744,390.611,283.365,-92.466,695.800,256.290,-147.580
478,52719.973000,165.241,73.215,-124.744,387.963,283.307,-94.462,609.800,307.290,-270.580
479,52720.14000,181.025,74.225,-105.706,388.837,282.383,-96.476,383.800,408.290,-172.580
480,52720.34000,193.850,83.314,-100.697,390.632,284.430,-85.481,-517.200,300.290,-172.580
481,52720.74000,224.432,48.978,-98.693,389.790,290.844,-73.359,-626.200,229.290,-158.580
482,52720.114000,232.324,43.929,-89.675,388.951,298.153,-60.216,-387.200,239.290,-91.580
483,52720.155000,229.364,58.067,-65.628,395.129,302.582,-57.073,-517.200,209.290,-111.580
484,52720.194000,236.270,37.870,-38.575,389.889,303.029,-41.188,-566.200,358.290,-74.580
485,52720.235000,274.744,-45.949,-184.861,391.658,305.691,-39.110,287.800,351.290,-29.580
486,52720.255000,225.418,16.663,-107.710,393.413,303.031,-41.176,-94.200,10.290,99.420
487,52720.298000,230.351,30.801,-134.763,394.317,296.370,-31.460,-871.200,-22.710,48.420
488,52720.334000,249.094,87.353,-71.640,396.105,300.936,-23.362,-421.200,230.290,68.420
489,52720.374000,256.000,102.501,-53.605,397.023,301.303,-10.438,-194.200,457.290,70.420
490,52720.414000,241.202,66.146,-71.640,397.046,302.397,-2.459,-51.200,516.290,115.420
491,52720.455000,245.148,68.166,-60.618,397.956,299.235,8.364,-49.200,547.290,124.420
492,52720.495000,241.202,68.166,-61.620,397.102,297.780,18.244,185.800,693.290,134.420
493,52720.517000,243.175,61.097,-62.622,401.523,293.641,25.075,402.800,834.290,140.420
494,52720.559000,263.892,64.126,-56.611,400.678,291.402,37.909,480.800,965.290,196.420
495,52720.595000,241.202,81.294,-56.611,400.726,284.993,56.568,454.800,1266.290,385.420
496,52720.637000,228.378,65.136,-144.783,404.274,290.401,63.706,702.800,875.290,221.420
497,52720.679000,197.796,142.895,-195.883,403.334,298.432,41.124,2187.800,289.290,-101.580
498,52720.714000,210.620,78.264,-205.902,401.415,303.770,-15.309,2978.800,-654.710,-367.580
499,52720.758000,244.162,91.393,-194.881,390.633,308.565,-90.655,3153.800,-1251.710,-451.580
500,52720.784000,243.175,72.205,-155.804,378.130,289.647,-145.924,2513.800,-1656.710,-469.580
501,52720.844000,230.351,62.107,-127.750,354.156,290.346,-212.508,1990.800,-1629.710,-362.580
502,52720.868000,228.378,77.254,-110.716,330.197,266.212,-267.983,1752.800,-1381.710,-213.580
503,52720.905000,232.324,86.343,-100.697,307.165,239.085,-306.670,1359.800,-1097.710,-88.580
504,52720.940000,227.391,78.264,-84.665,294.767,235.852,-328.661,1107.800,-898.710,-38.580
505,52720.975000,216.540,94.422,-79.656,278.836,216.153,-350.204,806.800,-770.710,-41.580
506,52720.995000,210.620,84.323,-58.614,262.941,207.152,-361.470,381.800,-591.710,33.420
507,52721.35000,209.634,72.205,-46.591,247.931,199.047,-371.711,25.800,-449.710,114.420
508,52721.75000,206.674,64.126,-37.573,246.167,200.754,-372.654,-194.200,-311.710,124.420
509,52721.122000,179.052,60.087,-19.538,246.184,200.923,-366.691,-691.200,49.290,65.420
510,52721.158000,176.092,49.988,-2.505,249.755,215.179,-353.308,-929.200,431.290,47.420
511,52721.204000,135.645,107.550,-230.951,257.760,238.345,-331.678,-1194.200,800.290,97.420
512,52721.238000,154.389,-14.643,-172.838,251.624,255.869,-325.171,-1376.200,-245.710,-388.580
513,52721.258000,268.825,67.156,-99.695,245.499,270.930,-313.779,-818.200,-198.710,-273.580
514,52721.299000,270.798,141.886,-53.605,237.645,291.480,-292.284,-1862.200,-184.710,-220.580
515,52721.359000,293.487,99.471,-44.587,228.859,303.767,-286.949,-395.200,-30.710,-253.580
516,52721.398000,332.948,76.245,-156.806,227.111,303.038,-282.013,20.800,25.290,-153.580
517,52721.415000,278.690,73.215,-173.840,229.746,304.691,-284.930,294.800,166.290,-42.580
518,52721.455000,254.027,130.777,-117.730,233.273,305.590,-283.896,9.800,339.290,35.420
519,52721.475000,232.324,103.511,-122.740,242.085,303.889,-282.930,188.800,464.290,52.420
520,52721.574000,196.809,65.136,-139.773,251.797,299.809,-274.095,170.800,463.290,117.420
521,52721.589000,161.295,71.195,-130.755,260.614,293.853,-270.288,53.800,431.290,132.420
522,52721.638000,159.322,77.254,-112.720,263.258,292.147,-269.342,32.800,391.290,135.420
523,52721.655000,182.998,73.215,-97.691,268.555,291.395,-265.377,-220.200,165.290,111.420
524,52721.697000,191.877,68.166,-101.699,266.816,300.243,-259.138,-375.200,-32.710,86.420
525,52721.714000,211.607,81.294,-87.671,266.829,302.092,-255.106,-267.200,-146.710,75.420
526,52721.739000,245.148,81.294,-99.695,267.704,298.592,-256.209,22.800,-158.710,72.420
527,52721.779000,261.919,72.205,-83.663,264.166,298.449,-261.190,50.800,-288.710,110.420
528,52721.814000,282.636,82.304,-76.650,261.498,290.438,-268.410,139.800,-435.710,128.420
529,52721.863000,285.595,84.323,-76.650,257.946,291.021,-278.332,235.800,-626.710,173.420
530,52721.898000,281.649,72.205,-77.652,252.624,287.207,-290.389,495.800,-695.710,186.420
531,52721.938000,290.528,69.176,-31.562,249.033,272.753,-310.729,806.800,-758.710,161.420
532,52721.959000,259.946,87.353,-62.622,239.259,251.238,-335.290,1025.800,-960.710,-24.580
533,52721.999000,256.000,78.264,-119.734,225.081,238.344,-361.572,921.800,-1056.710,-57.580
534,52722.35000,205.688,97.452,-186.865,203.001,235.189,-380.612,517.800,-1305.710,-91.580
535,52722.95000,208.647,71.195,-100.697,191.518,235.738,-391.554,67.800,-1077.710,-54.580
536,52722.124000,157.349,47.968,-68.634,182.720,244.468,-389.313,-645.200,-572.710,75.420
537,52722.159000,121.834,17.673,-119.734,192.447,255.173,-379.004,-746.200,93.290,214.420
538,52722.200000,113.942,39.890,-144.783,213.635,263.395,-364.768,-505.200,788.290,358.420
539,52722.220000,122.821,42.919,-172.838,233.949,275.984,-349.399,-868.200,1065.290,500.420
540,52722.255000,135.645,44.939,-175.843,268.415,289.147,-314.107,-1014.200,1275.290,589.420
541,52722.295000,150.443,58.067,-200.892,299.368,298.976,-273.969,-1115.200,1466.290,630.420
542,52722.339000,167.214,70.185,-208.908,331.212,302.003,-229.084,-1133.200,1395.290,622.420
543,52722.394000,185.958,81.294,-208.908,346.278,305.491,-198.140,-1491.200,1216.290,579.420
544,52722.435000,194.836,82.304,-185.863,364.048,310.440,-146.287,-1572.200,1116.290,559.420
545,52722.444000,197.796,83.314,-174.841,379.135,303.794,-105.742,-1393.200,1003.290,511.420
546,52722.479000,215.553,82.304,-136.767,388.075,309.408,-60.846,-1251.200,831.290,377.420
547,52722.515000,231.337,83.314,-114.724,393.456,308.634,-27.093,-1274.200,753.290,250.420
548,52722.560000,231.337,77.254,-102.701,395.263,297.018,-8.597,-947.200,671.290,191.420
549,52722.595000,224.432,112.600,-98.693,397.975,302.008,14.412,-571.200,425.290,69.420
550,52722.640000,215.553,101.491,-186.865,395.349,302.175,20.367,-230.200,-7.710,-155.580
551,52722.680000,229.364,53.018,-72.642,390.037,304.494,10.496,364.800,-463.710,-277.580
552,52722.700000,204.701,116.639,-62.622,386.516,304.519,11.478,-432.200,-12.710,-297.580
553,52722.737000,300.393,42.919,-36.571,386.529,307.236,15.538,-369.200,-191.710,-237.580
554,52722.777000,235.283,67.156,-76.650,384.770,311.575,15.674,-259.200,-121.710,-232.580
555,52722.819000,242.189,105.531,-50.599,379.504,318.656,20.851,-353.200,34.290,-146.580
556,52722.860000,259.946,90.383,-49.597,380.409,317.174,29.743,-456.200,127.290,-27.580
557,52722.900000,248.108,82.304,-56.611,378.676,320.898,38.795,-212.200,261.290,30.420
558,52722.915000,242.189,81.294,-43.585,377.814,320.227,45.722,-26.200,398.290,59.420
559,52722.959000,219.499,86.343,-33.566,376.945,317.763,50.604,206.800,471.290,49.420
560,52722.997000,210.620,92.402,-18.536,379.584,312.557,50.444,271.800,458.290,54.420
561,52723.38000,202.728,83.314,-9.519,376.961,319.640,55.630,378.800,327.290,17.420
562,52723.77000,226.405,80.284,19.538,375.190,318.686,52.614,271.800,70.290,-56.580
563,52723.115000,277.703,43.929,-33.566,376.064,321.206,49.720,18.800,-138.710,-133.580
564,52723.159000,233.310,122.698,-13.526,370.770,325.429,45.868,-34.200,-168.710,-100.580
565,52723.180000,251.067,84.323,-25.550,369.876,323.580,41.833,226.800,-95.710,6.420
566,52723.220000,247.121,80.284,-43.585,373.391,322.630,38.835,88.800,-10.710,6.420
567,52723.260000,227.391,80.284,-55.609,373.405,326.215,42.923,248.800,161.290,37.420
568,52723.307000,236.270,76.245,-23.546,375.159,315.800,42.591,151.800,173.290,57.420
569,52723.338000,233.310,83.314,-23.546,376.044,327.896,41.000,-6.200,97.290,44.420
570,52723.379000,234.297,85.333,-13.526,375.168,327.084,42.957,22.800,58.290,40.420
571,52723.407000,232.324,87.353,-14.528,379.573,324.511,43.880,-120.200,-29.710,37.420
572,52723.440000,244.162,80.284,-21.542,376.933,324.538,44.866,-131.200,-53.710,18.420
573,52723.487000,236.270,85.333,-23.546,376.049,316.753,45.603,-143.200,-54.710,42.420
574,52723.520000,241.202,84.323,-30.560,376.930,312.442,46.459,-55.200,-14.710,49.420
575,52723.562000,238.243,71.195,-35.569,381.346,316.002,49.568,-168.200,21.290,72.420
576,52723.609000,234.297,92.402,-23.546,380.465,312.557,50.446,-120.200,50.290,78.420
577,52723.639000,239.229,75.235,-29.558,383.995,309.172,53.327,-257.200,53.290,130.420
578,52723.675000,237.256,77.254,-24.548,382.245,306.708,58.206,-254.200,103.290,144.420
579,52723.698000,241.202,73.215,-16.532,384.919,310.464,68.267,-166.200,117.290,158.420
580,52723.739000,242.189,72.205,-13.526,386.687,307.077,71.141,-218.200,103.290,151.420
581,52723.779000,243.175,67.156,-9.519,391.102,302.013,75.956,-245.200,62.290,161.420
582,52723.827000,244.162,67.156,-14.528,392.871,296.051,79.740,-232.200,49.290,148.420
583,52723.857000,242.189,69.176,-14.528,394.643,290.986,84.546,-172.200,65.290,160.420
584,52723.877000,241.202,70.185,-13.526,396.413,294.515,86.653,-132.200,108.290,164.420
585,52723.919000,244.162,62.107,-13.526,399.949,284.299,93.283,-135.200,127.290,182.420
586,52723.959000,244.162,67.156,-15.530,397.302,281.665,92.196,-122.200,166.290,196.420
587,52723.997000,243.175,66.146,-10.521,400.841,279.232,98.087,-68.200,219.290,229.420
588,52724.39000,248.108,48.978,-10.521,403.495,271.591,103.805,-106.200,242.290,233.420
589,52724.80000,247.121,58.067,-1.503,404.384,263.053,108.496,-52.200,285.290,258.420
590,52724.118000,245.148,59.077,5.511,407.043,266.668,113.587,-76.200,313.290,305.420
591,52724.138000,246.135,42.919,2.505,409.711,261.743,123.365,-217.200,332.290,324.420
592,52724.178000,240.216,54.028,11.523,415.022,254.245,134.062,-115.200,403.290,341.420
593,52724.218000,245.148,44.939,11.523,412.402,246.713,143.739,-22.200,456.290,376.420
594,52724.269000,249.094,35.850,11.523,415.948,238.317,153.408,-16.200,496.290,379.420
595,52724.298000,244.162,35.850,13.526,415.074,229.777,158.093,-13.200,602.290,414.420
596,52724.342000,263.892,31.811,16.532,414.235,220.707,174.677,47.800,724.290,496.420
597,52724.378000,257.973,10.604,36.571,416.917,212.480,190.306,-22.200,870.290,564.420
598,52724.399000,251.067,6.564,61.620,412.550,199.068,206.738,74.800,863.290,570.420
599,52724.439000,236.270,5.554,112.720,414.335,195.850,215.576,2.800,630.290,516.420
600,52724.485000,260.933,10.604,121.738,408.180,188.203,221.266,53.800,317.290,430.420
601,52724.520000,256.987,41.909,61.620,416.104,183.001,221.123,-388.200,-182.710,206.420
602,52724.569000,266.852,35.850,21.542,420.491,174.211,216.880,-867.200,-668.710,-37.580
603,52724.603000,272.771,8.584,28.556,428.396,161.056,211.513,-1408.200,-716.710,-122.580
604,52724.623000,246.135,-50.998,64.626,437.190,155.742,207.397,-634.200,-429.710,-116.580
605,52724.662000,222.459,-68.166,59.616,435.419,161.676,202.619,209.800,-115.710,-40.580
606,52724.708000,201.742,-43.929,58.614,434.520,168.394,194.890,704.800,9.290,79.420
607,52724.742000,197.796,-0.505,50.599,439.799,166.605,192.863,90.800,-176.710,85.420
608,52724.788000,204.701,-26.761,44.587,437.155,164.867,192.798,-463.200,-340.710,25.420
609,52724.822000,218.513,-30.801,57.613,442.426,160.419,188.699,-452.200,-295.710,67.420
610,52724.858000,216.540,-17.673,40.579,445.931,154.204,183.543,-120.200,-256.710,70.420
611,52724.879000,231.337,12.623,42.583,451.193,152.247,175.553,92.800,-453.710,-73.580
612,52724.940000,213.580,17.673,46.591,451.173,159.805,166.861,94.800,-277.710,-250.580
613,52724.958000,272.771,-110.580,88.673,450.287,168.372,163.164,466.800,-319.710,-246.580
614,52724.999000,346.759,-139.866,208.908,452.019,162.044,154.028,-67.200,-390.710,184.420
615,52725.40000,312.231,112.600,-53.605,452.873,171.254,142.413,-788.200,-954.710,-853.580
616,52725.85000,229.364,14.643,-72.642,450.196,175.226,129.625,-391.200,-1045.710,-706.580
617,52725.100000,240.216,1.515,-52.603,450.151,191.155,110.282,-265.200,-888.710,-808.580
618,52725.139000,254.027,82.304,-67.632,447.472,199.410,95.646,257.800,-578.710,-551.580
619,52725.199000,261.919,43.929,-72.642,444.831,205.456,94.841,-273.200,-311.710,-393.580
620,52725.220000,271.784,-16.663,-69.636,438.670,216.708,94.193,-49.200,28.290,-410.580
621,52725.260000,254.027,63.116,-36.571,432.514,223.704,96.386,421.800,360.290,-475.580
622,52725.299000,245.148,66.146,-16.532,429.887,241.090,97.935,449.800,459.290,-324.580
623,52725.339000,234.297,65.136,12.524,421.977,250.745,102.195,423.800,294.290,-186.580
624,52725.364000,238.243,50.998,4.509,421.101,254.244,103.299,339.800,130.290,-180.580
625,52725.414000,241.202,41.909,9.519,414.032,251.438,96.234,282.800,-77.710,-247.580
626,52725.442000,242.189,68.166,10.521,414.904,259.110,91.521,37.800,-294.710,-272.580
627,52725.512000,254.027,39.890,-1.503,412.240,264.930,82.764,-33.200,-373.710,-234.580
628,52725.527000,253.040,68.166,-27.554,409.582,274.251,75.114,111.800,-366.710,-261.580
629,52725.558000,256.987,72.205,-28.556,409.576,277.638,72.245,5.800,-252.710,-174.580
630,52725.578000,254.027,70.185,-50.599,406.917,279.203,66.330,121.800,-86.710,-83.580
631,52725.634000,250.081,68.166,-46.591,406.920,279.232,67.324,318.800,78.290,-33.580
632,52725.659000,239.229,65.136,-30.560,405.150,276.570,65.246,438.800,177.290,1.420
633,52725.699000,225.418,52.008,-37.573,403.385,279.984,63.365,343.800,150.290,6.420
634,52725.745000,183.985,75.235,-1.503,406.020,284.214,59.538,271.800,-16.710,-12.580
635,52725.779000,193.850,68.166,-2.505,407.762,276.262,54.321,0.800,-435.710,-83.580
636,52725.819000,291.514,10.604,10.521,403.299,280.847,32.610,383.800,-677.710,-193.580
637,52725.839000,326.042,61.097,-6.513,402.362,294.087,10.198,443.800,-964.710,-384.580
638,52725.885000,267.838,74.225,-77.652,395.266,293.603,-6.722,1018.800,-674.710,-341.580
639,52725.919000,237.256,122.698,-58.614,387.277,295.581,-28.529,1036.800,-205.710,-286.580
640,52725.963000,216.540,100.481,-68.634,382.859,304.061,-35.219,665.800,4.290,-241.580
641,52726.13000,195.823,65.136,-98.693,378.426,307.220,-46.054,924.800,218.290,-263.580
642,52726.62000,186.944,70.185,-86.669,377.541,314.079,-48.813,744.800,398.290,-183.580
643,52726.68000,196.809,69.176,-87.671,379.312,315.032,-45.797,74.800,404.290,-74.580
644,52726.103000,200.755,56.047,-81.659,378.459,318.757,-36.742,-221.200,303.290,-34.580
645,52726.142000,199.769,59.077,-73.644,376.719,317.245,-28.853,-219.200,178.290,9.420
646,52726.185000,181.025,70.185,-46.591,381.137,315.653,-23.925,-312.200,-53.710,-53.580
647,52726.228000,212.593,62.107,-50.599,381.133,311.313,-24.066,-270.200,-163.710,-61.580
648,52726.259000,353.665,64.126,-77.652,382.898,310.475,-23.095,-407.200,-219.710,26.420
649,52726.299000,258.960,93.412,-83.663,385.538,310.449,-24.080,-468.200,-435.710,196.420
650,52726.330000,216.540,52.008,-109.714,389.062,307.007,-23.188,-463.200,-234.710,173.420
651,52726.370000,219.499,81.294,-94.685,386.428,304.514,-19.305,-390.200,22.290,177.420
652,52726.400000,247.121,66.146,-90.677,391.741,302.196,-9.433,-361.200,272.290,191.420
653,52726.444000,239.229,61.097,-76.650,395.307,298.309,6.340,-378.200,388.290,155.420
654,52726.480000,252.054,48.978,-51.601,393.569,292.513,16.076,-273.200,471.290,81.420
655,52726.520000,236.270,72.205,-34.568,392.715,298.814,24.222,-37.200,485.290,-19.580
656,52726.540000,231.337,74.225,-28.556,397.135,299.826,29.234,92.800,462.290,-3.580
657,52726.585000,239.229,67.156,-34.568,393.634,296.605,38.055,119.800,432.290,20.420
658,52726.620000,242.189,73.215,-10.521,392.766,295.877,42.994,172.800,342.290,25.420
659,52726.662000,239.229,75.235,-19.538,391.891,299.377,44.097,145.800,250.290,63.420
660,52726.702000,245.148,79.274,-24.548,394.536,294.227,45.925,150.800,219.290,98.420
661,52726.743000,247.121,73.215,-24.548,393.663,293.443,48.875,33.800,227.290,140.420
662,52726.783000,250.081,52.008,-52.603,398.084,292.747,54.825,208.800,387.290,155.420
663,52726.799000,263.892,52.008,-56.611,394.586,290.422,64.668,428.800,734.290,177.420
664,52726.842000,272.771,56.047,-60.618,390.200,292.324,70.674,674.800,1057.290,227.420
665,52726.882000,276.717,49.988,-43.585,394.640,294.401,82.671,890.800,1333.290,337.420
666,52726.922000,247.121,69.176,-52.603,390.273,291.320,96.459,923.800,1281.290,474.420
667,52726.963000,229.364,60.087,-113.722,392.879,284.068,85.309,1765.800,766.290,412.420
668,52727.9000,212.593,95.432,-99.695,396.349,291.291,64.702,2373.800,152.290,43.420
669,52727.44000,214.566,32.821,-128.751,401.503,296.887,17.237,2616.800,-589.710,49.420
670,52727.64000,231.337,74.225,-108.712,406.615,298.617,-44.256,2417.800,-1104.710,-37.580
671,52727.105000,254.027,58.067,-94.685,402.899,290.679,-110.063,1913.800,-1479.710,-45.580
672,52727.140000,256.987,74.225,-90.677,396.612,280.000,-150.150,1652.800,-1574.710,1.420
673,52727.184000,259.946,85.333,-77.652,381.468,262.816,-205.370,1472.800,-1503.710,-5.580
674,52727.248000,260.933,94.422,-66.630,361.931,239.721,-254.839,1321.800,-1397.710,-2.580
675,52727.272000,242.189,109.570,-61.620,342.430,218.701,-292.324,893.800,-1275.710,-17.580
676,52727.280000,223.445,91.393,-50.599,317.682,215.290,-320.318,551.800,-1152.710,-29.580
677,52727.320000,214.566,89.373,-43.585,309.713,206.267,-332.552,179.800,-981.710,44.420
678,52727.364000,205.688,87.353,-36.571,294.710,207.710,-342.483,-468.200,-821.710,52.420
679,52727.419000,197.796,67.156,-9.519,278.857,221.530,-344.071,-803.200,-708.710,-21.580
680,52727.505000,195.823,13.633,28.556,269.200,232.192,-334.819,-1108.200,-311.710,-69.580
681,52727.541000,190.890,-2.525,-11.523,273.625,241.016,-329.554,-683.200,257.290,-181.580
682,52727.590000,164.254,54.028,-223.937,271.902,247.429,-317.436,-205.200,459.290,-250.580
683,52727.599000,229.364,39.890,-70.638,271.909,253.533,-316.244,-272.200,314.290,-223.580
684,52727.614000,286.582,84.323,-78.654,271.105,273.248,-293.761,-1367.200,331.290,-172.580
685,52727.662000,281.649,123.708,-82.661,273.779,280.448,-284.582,-285.200,593.290,-161.580
686,52727.727000,330.975,82.304,-88.673,279.992,286.951,-269.457,-333.200,580.290,-58.580
687,52727.743000,318.150,50.998,-93.683,284.424,293.255,-261.294,-252.200,393.290,-54.580
688,52727.764000,185.958,128.757,-78.654,287.090,293.483,-253.334,-179.200,305.290,-19.580
689,52727.771000,217.526,96.442,-103.703,287.975,290.936,-251.428,228.800,565.290,76.420
690,52727.807000,234.297,60.087,-119.734,297.680,288.508,-245.518,-63.200,594.290,95.420
691,52727.845000,224.432,89.373,-71.640,305.645,288.012,-232.599,-145.200,604.290,92.420
692,52727.882000,231.337,70.185,-67.632,315.364,288.300,-222.629,-62.200,562.290,107.420
693,52727.928000,239.229,68.166,-54.607,320.684,288.642,-210.685,-142.200,486.290,91.420
694,52727.964000,228.378,86.343,-37.573,325.978,296.486,-209.420,-126.200,337.290,77.420
695,52728.12000,233.310,68.166,-45.589,329.520,290.638,-201.655,112.800,179.290,42.420
696,52728.22000,228.378,81.294,-43.585,327.754,291.449,-203.620,99.800,58.290,31.420
697,52728.62000,234.297,69.176,-57.613,325.110,290.579,-203.657,33.800,-36.710,27.420
698,52728.106000,238.243,79.274,-51.601,327.741,281.844,-205.918,66.800,-76.710,28.420
699,52728.142000,228.378,85.333,-45.589,329.494,288.649,-210.656,58.800,-163.710,39.420
700,52728.181000,234.297,72.205,-46.591,323.316,285.088,-213.771,60.800,-262.710,24.420
701,52728.223000,237.256,63.116,-65.628,322.427,285.871,-216.727,-65.200,-330.710,17.420
702,52728.243000,237.256,81.294,-39.577,318.892,285.755,-220.714,59.800,-384.710,39.420
703,52728.291000,245.148,73.215,-42.583,312.700,282.053,-228.798,-14.200,-533.710,64.420
704,52728.327000,248.108,82.304,-55.609,310.888,275.526,-244.904,164.800,-741.710,73.420
705,52728.362000,270.798,82.304,-76.650,302.038,277.701,-259.756,299.800,-822.710,93.420
706,52728.405000,317.164,60.087,-83.663,294.057,272.008,-276.847,327.800,-852.710,146.420
707,52728.446000,307.299,61.097,-60.618,292.252,263.828,-290.027,422.800,-1014.710,179.420
708,52728.483000,300.393,72.205,-39.577,277.205,256.226,-313.161,593.800,-1167.710,173.420
709,52728.502000,280.663,87.353,-19.538,262.154,241.679,-336.520,897.800,-1215.710,99.420
710,52728.545000,255.013,130.777,-73.644,248.871,233.238,-358.682,653.800,-1102.710,106.420
711,52728.582000,217.526,94.422,-177.847,232.087,225.019,-372.905,10.800,-1477.710,29.420
712,52728.621000,168.200,66.146,-42.583,212.679,229.903,-383.731,-25.200,-979.710,-9.580
713,52728.664000,154.389,31.811,-34.568,215.336,237.802,-380.488,-715.200,-133.710,205.420
714,52728.705000,134.659,42.919,-83.663,236.537,247.872,-362.219,-642.200,592.290,302.420
715,52728.725000,146.497,31.811,-100.697,258.612,263.906,-347.726,-894.200,1395.290,529.420
716,52728.765000,172.146,65.136,-131.757,297.507,279.902,-304.384,-1130.200,1834.290,613.420
717,52728.805000,196.809,80.284,-163.820,336.435,285.876,-247.465,-1452.200,2025.290,664.420
718,52728.844000,232.324,90.383,-173.840,365.713,298.285,-177.459,-2110.200,1906.290,645.420
719,52728.884000,241.202,99.471,-173.840,382.603,305.838,-125.524,-2214.200,1733.290,632.420
720,52728.925000,234.297,101.491,-170.834,395.996,302.442,-62.040,-2063.200,1384.290,530.420
721,52728.967000,235.283,102.501,-169.832,403.188,303.016,-11.356,-1432.200,900.290,337.420
722,52728.982000,211.607,102.501,-155.804,403.281,298.765,22.268,-1273.200,375.290,166.420
723,52729.43000,217.526,67.156,-113.722,400.670,292.186,34.955,-924.200,-8.710,11.420
724,52729.65000,222.459,61.097,-97.691,398.912,293.948,36.000,-224.200,-160.710,-90.580
725,52729.107000,224.432,65.136,-79.656,397.151,295.683,36.050,-50.200,-170.710,-130.580
726,52729.141000,254.027,29.791,-77.652,393.609,300.663,28.257,-107.200,-395.710,-213.580
727,52729.182000,240.216,47.968,-21.542,391.824,296.125,21.153,53.800,-293.710,-179.580
728,52729.202000,222.459,93.412,-36.571,390.066,305.643,20.463,-17.200,-74.710,-255.580
729,52729.243000,228.378,81.294,-53.605,388.311,315.190,20.767,-283.200,-223.710,-296.580
730,52729.283000,289.541,74.225,13.526,385.673,321.264,20.956,-339.200,-367.710,-289.580
731,52729.323000,256.000,69.176,-60.618,382.153,318.714,22.848,-464.200,-465.710,-275.580
732,52729.368000,242.189,106.540,-65.628,378.608,316.778,15.823,1.800,-226.710,-194.580
733,52729.413000,239.229,95.432,-81.659,375.959,320.164,12.945,-6.200,-39.710,-85.580
734,52729.441000,239.229,93.412,-66.630,376.841,318.457,13.885,21.800,147.290,23.420
735,52729.463000,234.297,87.353,-56.611,380.384,317.788,20.826,13.800,284.290,96.420
736,52729.503000,230.351,80.284,-36.571,379.517,321.372,24.912,68.800,334.290,124.420
737,52729.543000,208.647,79.274,-22.544,376.002,318.010,28.763,55.800,291.290,111.420
738,52729.583000,216.540,75.235,-5.511,379.527,322.325,27.921,111.800,120.290,32.420
739,52729.625000,226.405,79.274,-39.577,378.651,318.069,30.760,-17.200,35.290,25.420
740,52729.665000,256.987,69.176,-24.548,378.655,319.833,31.810,133.800,63.290,37.420
741,52729.685000,259.946,86.343,-25.550,384.812,314.573,29.673,-93.200,-30.710,106.420
742,52729.726000,236.270,75.235,-41.581,383.925,317.960,26.801,166.800,52.290,144.420
743,52729.765000,253.040,64.126,-32.564,388.325,314.463,25.709,177.800,96.290,137.420
744,52729.806000,239.229,67.156,-14.528,389.214,311.104,29.574,130.800,197.290,152.420
745,52729.847000,239.229,68.166,-10.521,390.099,312.869,30.628,91.800,10.290,71.420
746,52729.883000,250.081,65.136,-15.530,385.678,312.697,24.650,82.800,-118.710,1.420
747,52729.935000,245.148,67.156,-26.552,388.308,307.406,21.508,38.800,-207.710,-19.580
748,52729.943000,233.310,74.225,-31.562,387.423,305.641,20.454,-67.200,-254.710,-22.580
749,52729.984000,229.364,75.235,-55.609,385.658,309.056,18.574,-296.200,-258.710,41.420
750,52730.30000,230.351,67.156,-52.603,387.419,308.189,18.551,-532.200,-301.710,93.420
751,52730.73000,229.364,64.126,-53.605,392.715,306.570,22.488,-776.200,-349.710,124.420
752,52730.105000,230.351,74.225,-56.611,392.741,299.067,33.167,-1081.200,-353.710,126.420
753,52730.143000,239.229,78.264,-32.564,396.272,297.419,36.104,-1158.200,-395.710,88.420
754,52730.164000,238.243,66.146,-44.587,398.057,295.069,44.970,-1054.200,-409.710,113.420
755,52730.205000,224.432,64.126,-41.581,402.476,287.458,51.688,-924.200,-411.710,71.420
756,52730.243000,196.809,23.732,3.507,406.004,281.469,54.484,-884.200,-235.710,111.420
757,52730.283000,203.715,187.329,-103.703,406.901,280.770,60.422,-146.200,88.290,-83.580
758,52730.324000,259.946,102.501,-63.624,406.892,287.574,55.678,-191.200,-314.710,41.420
759,52730.365000,256.000,48.978,-93.683,405.998,280.544,52.468,-281.200,-208.710,26.420
760,52730.406000,252.054,87.353,-67.632,406.897,282.450,58.491,-258.200,42.290,62.420
761,52730.428000,240.216,85.333,-75.648,410.435,279.150,64.353,9.800,395.290,169.420
762,52730.463000,241.202,71.195,-42.583,407.802,268.901,69.970,54.800,487.290,175.420
763,52730.504000,233.310,63.116,-28.556,408.706,274.307,77.099,73.800,492.290,148.420
764,52730.549000,231.337,72.205,-12.524,406.088,269.378,86.861,43.800,394.290,78.420
765,52730.585000,237.256,70.185,-17.534,404.349,273.914,93.954,-16.200,329.290,77.420
766,52730.628000,240.216,65.136,-14.528,401.705,267.865,94.742,94.800,300.290,84.420
767,52730.643000,239.229,63.116,0.501,405.249,268.932,101.739,45.800,149.290,45.420
768,52730.688000,249.094,71.195,-9.519,404.368,268.064,101.708,-0.200,91.290,62.420
769,52730.723000,241.202,75.235,-27.554,407.015,262.942,104.529,-18.200,109.290,105.420
770,52730.768000,243.175,71.195,-21.542,407.910,263.084,109.501,21.800,215.290,174.420
771,52730.804000,243.175,72.205,-20.540,409.672,258.773,110.360,-56.200,262.290,225.420
772,52730.849000,250.081,59.077,-26.552,412.339,257.292,119.258,29.800,395.290,288.420
773,52730.889000,249.094,59.077,-11.523,410.610,252.449,132.004,-112.200,552.290,346.420
774,52730.908000,246.135,49.988,6.513,413.289,243.326,146.611,-247.200,667.290,420.420
775,52730.948000,249.094,52.008,13.526,411.540,233.974,153.253,-195.200,549.290,407.420
776,52730.988000,247.121,53.018,19.538,415.104,220.595,170.704,-327.200,496.290,439.420
777,52731.28000,249.094,46.959,20.540,415.127,209.621,181.271,-331.200,462.290,470.420
778,52731.66000,249.094,32.821,19.538,414.277,197.863,194.789,-283.200,496.290,512.420
779,52731.108000,253.040,25.751,29.558,420.468,196.385,203.697,-196.200,563.290,544.420
780,52731.128000,254.027,14.643,40.579,419.616,182.023,217.130,-128.200,555.290,575.420
781,52731.170000,251.067,15.653,36.571,419.630,170.964,224.716,85.800,508.290,606.420
782,52731.215000,260.933,35.850,34.568,418.765,161.641,232.354,187.800,495.290,555.420
783,52731.244000,272.771,3.535,30.560,420.549,160.131,240.255,293.800,545.290,440.420
784,52731.284000,292.501,27.771,76.650,416.154,158.505,244.160,624.800,325.290,221.420
785,52731.325000,264.879,37.870,22.544,414.381,166.146,238.444,347.800,4.290,34.420
786,52731.367000,205.688,-0.505,60.618,418.761,175.388,227.835,320.800,-360.710,-154.580
787,52731.386000,199.769,-34.840,55.609,427.539,169.905,217.756,-313.200,-622.710,-75.580
788,52731.433000,183.985,-34.840,77.652,424.877,163.686,212.580,-610.200,-494.710,-60.580
789,52731.467000,199.769,-7.574,33.566,433.667,160.051,206.533,-565.200,-278.710,-17.580
790,52731.508000,248.108,-46.959,116.728,435.423,163.440,203.669,-117.200,-256.710,-59.580
791,52731.555000,275.730,-97.452,121.738,433.643,165.846,196.791,717.800,127.290,98.420
792,52731.584000,260.933,-54.028,128.751,434.533,170.243,198.922,999.800,264.290,130.420
793,52731.605000,251.067,-10.604,100.697,434.533,170.243,198.922,39.800,43.290,93.420
794,52731.645000,263.892,-53.018,106.708,434.548,172.119,203.948,-275.200,46.290,123.420
795,52731.689000,241.202,-23.732,72.642,430.156,161.897,210.553,-277.200,137.290,178.420
796,52731.724000,224.432,-10.604,49.597,429.283,150.782,216.148,-26.200,179.290,151.420
797,52731.764000,216.540,2.525,35.569,429.291,153.442,218.220,328.800,195.290,60.420
798,52731.809000,188.917,53.018,-4.509,420.491,163.012,219.495,530.800,-48.710,-163.580
799,52731.844000,196.809,46.959,10.521,419.591,171.438,210.829,824.800,-244.710,-376.580
800,52731.864000,181.025,93.412,-26.552,418.673,193.470,192.674,810.800,-534.710,-619.580
801,52731.910000,411.869,-245.901,290.067,414.267,196.042,191.751,-231.200,-95.710,-198.580
802,52731.945000,228.378,94.422,-124.744,417.761,205.227,179.151,-388.200,-973.710,-458.580
803,52731.985000,252.054,38.880,-10.521,420.369,210.910,165.442,-791.200,-1284.710,-899.580
804,52732.25000,234.297,57.057,-53.605,415.932,220.929,151.851,-458.200,-883.710,-707.580
805,52732.65000,269.811,38.880,-22.544,414.144,224.118,142.019,461.800,-508.710,-489.580
806,52732.84000,253.040,57.057,-27.554,414.121,241.980,129.689,221.800,-404.710,-482.580
807,52732.127000,249.094,43.929,-13.526,410.588,253.092,124.081,133.800,-185.710,-478.580
808,52732.168000,250.081,61.097,-1.503,403.535,265.098,119.483,355.800,-70.710,-407.580
809,52732.208000,252.054,74.225,-1.503,398.237,267.557,114.580,333.800,-59.710,-333.580
810,52732.246000,243.175,76.245,8.517,392.942,273.489,109.791,436.800,-47.710,-222.580
811,52732.285000,242.189,70.185,-21.542,392.932,275.112,105.872,136.800,-98.710,-168.580
812,52732.325000,251.067,63.116,-9.519,388.525,279.392,104.010,133.800,-34.710,-152.580
813,52732.352000,239.229,79.274,4.509,387.637,285.355,100.229,133.800,-56.710,-150.580
814,52732.404000,242.189,67.156,-19.538,388.511,287.875,97.335,101.800,-46.710,-114.580
815,52732.425000,252.054,66.146,-6.513,388.508,291.291,95.460,266.800,-19.710,-102.580
816,52732.469000,239.229,67.156,-14.528,382.321,286.777,89.335,297.800,-53.710,-97.580
817,52732.505000,221.472,81.294,-17.534,384.971,300.639,88.801,274.800,-102.710,-96.580
818,52732.545000,231.337,75.235,-16.532,382.317,296.213,85.670,190.800,-100.710,-95.580
819,52732.568000,237.256,76.245,-27.554,384.942,298.621,78.805,268.800,-40.710,-70.580
820,52732.605000,224.432,74.225,-25.550,385.810,301.085,73.923,243.800,-32.710,-39.580
821,52732.651000,271.784,64.126,-17.534,382.271,302.650,68.004,219.800,-74.710,-84.580
822,52732.693000,297.434,64.126,-23.546,378.738,306.006,64.130,385.800,-69.710,-56.580
823,52732.740000,255.013,62.107,-32.564,380.493,307.659,61.210,140.800,155.290,91.420
824,52732.777000,258.960,66.146,-41.581,381.337,299.538,50.027,563.800,-445.710,-22.580
825,52732.808000,239.229,82.304,-21.542,376.002,313.699,29.616,705.800,-378.710,-137.580
826,52732.828000,201.742,91.393,-77.652,377.728,311.626,17.639,762.800,-295.710,-224.580
827,52732.868000,198.782,53.018,-60.618,372.405,313.832,3.791,551.800,-263.710,-7.580
828,52732.908000,195.823,66.146,-43.585,375.911,312.797,-2.189,67.800,-186.710,67.420
829,52732.948000,199.769,61.097,-34.568,377.681,315.459,-0.111,-318.200,-113.710,132.420
830,52732.989000,183.985,136.836,5.511,375.051,314.730,4.822,-630.200,-54.710,7.420
831,52733.29000,211.607,115.629,-72.642,375.966,315.068,16.752,-913.200,-22.710,-190.580
832,52733.45000,391.152,-1.515,-28.556,375.976,313.445,20.671,-281.200,6.290,-40.580
833,52733.85000,240.216,63.116,-73.644,376.858,310.002,21.555,-442.200,-259.710,-2.580
834,52733.126000,228.378,86.343,-68.634,377.744,309.191,23.518,-384.200,-105.710,15.420
835,52733.166000,237.256,104.521,-60.618,380.394,311.853,25.598,-138.200,147.290,173.420
836,52733.205000,241.202,73.215,-52.603,383.058,309.476,33.474,-332.200,238.290,193.420
837,52733.246000,241.202,65.136,-42.583,385.734,305.504,46.262,-363.200,303.290,156.420
838,52733.286000,243.175,61.097,-33.566,386.633,303.098,53.138,-76.200,388.290,115.420
839,52733.306000,246.135,65.136,-21.542,387.525,291.144,59.704,-95.200,347.290,79.420
840,52733.348000,239.229,76.245,-8.517,384.906,299.991,65.941,-53.200,264.290,92.420
841,52733.388000,236.270,71.195,0.501,389.314,296.579,67.830,39.800,131.290,87.420
842,52733.428000,238.243,65.136,-11.523,388.434,294.002,68.737,58.800,36.290,75.420
843,52733.478000,242.189,72.205,-18.536,389.316,299.183,67.915,129.800,0.290,53.420
844,52733.514000,240.216,76.245,-20.540,386.664,294.785,65.777,92.800,7.290,66.420
845,52733.530000,247.121,68.166,-33.566,391.071,298.260,65.904,73.800,59.290,94.420
846,52733.570000,251.067,65.136,-36.571,391.954,297.421,66.873,131.800,144.290,103.420
847,52733.610000,276.717,61.097,-56.611,391.951,296.524,65.851,424.800,432.290,163.420
848,52733.650000,288.555,42.919,-56.611,393.733,285.523,75.429,622.800,902.290,320.420
849,52733.690000,233.310,84.323,-64.626,392.876,284.040,84.315,765.800,1032.290,308.420
850,52733.726000,232.324,70.185,-74.646,392.873,290.900,81.559,1142.800,573.290,202.420
851,52733.770000,233.310,77.254,-118.732,388.398,298.816,54.991,2227.800,255.290,-45.580
852,52733.790000,216.540,37.870,-130.755,389.195,307.463,23.498,2771.800,-124.710,-34.580
853,52733.830000,224.432,72.205,-131.757,389.919,305.915,-31.164,3028.800,-582.710,-174.580
854,52733.871000,228.378,73.215,-141.777,386.215,298.958,-92.967,2484.800,-980.710,-117.580
855,52733.908000,226.405,81.294,-142.779,379.872,286.007,-151.994,1946.800,-1293.710,-97.580
856,52733.949000,231.337,90.383,-145.785,367.384,274.986,-204.027,1206.800,-1526.710,-57.580
857,52733.992000,249.094,93.412,-134.763,355.840,269.764,-235.017,1077.800,-1556.710,-41.580
858,52734.26000,249.094,112.600,-122.740,336.319,251.990,-280.340,879.800,-1554.710,-102.580
859,52734.48000,239.229,112.600,-105.706,304.488,235.301,-317.725,743.800,-1588.710,-167.580
860,52734.88000,227.391,108.560,-95.687,270.045,230.119,-346.800,376.800,-1591.710,-176.580
861,52734.133000,217.526,83.314,-71.640,249.733,223.578,-362.965,175.800,-1385.710,-96.580
862,52734.166000,194.836,54.028,-42.583,226.779,217.034,-379.139,149.800,-1000.710,23.420
863,52734.216000,161.295,36.860,-28.556,217.948,211.651,-385.300,85.800,-511.710,144.420
864,52734.250000,154.389,37.870,-16.532,215.310,213.413,-384.258,-554.200,49.290,198.420
865,52734.270000,163.268,37.870,-7.515,222.403,230.248,-371.773,-1221.200,603.290,224.420
866,52734.310000,149.457,154.004,-246.982,228.632,252.403,-355.146,-1326.200,380.290,-174.580
867,52734.346000,157.349,10.604,-146.787,222.531,276.314,-337.509,-878.200,266.290,-222.580
868,52734.400000,213.580,68.166,-175.843,222.541,271.247,-332.709,16.800,445.290,-256.580
869,52734.430000,237.256,47.968,-115.726,232.263,272.431,-321.716,102.800,692.290,-225.580
870,52734.468000,317.164,63.116,-91.679,238.463,278.794,-311.560,-459.200,760.290,-79.580
871,52734.513000,301.380,77.254,-69.636,244.678,286.165,-296.406,-371.200,719.290,-146.580
872,52734.528000,259.946,127.748,-93.683,250.908,299.724,-277.079,-961.200,516.290,-30.580
873,52734.569000,234.297,122.698,-106.708,256.239,304.491,-262.013,-541.200,705.290,40.420
874,52734.614000,362.543,53.018,-73.644,263.317,306.513,-251.994,-127.200,589.290,13.420
875,52734.656000,198.782,126.738,-106.708,268.627,305.903,-243.060,-170.200,426.290,-0.580
876,52734.690000,193.850,109.570,-109.714,276.568,303.445,-238.150,236.800,643.290,126.420
877,52734.730000,215.553,73.215,-102.701,282.748,301.855,-233.216,158.800,673.290,131.420
878,52734.750000,210.620,81.294,-72.642,288.940,301.245,-224.280,85.800,587.290,97.420
879,52734.789000,225.418,68.166,-55.609,295.126,298.003,-216.421,22.800,422.290,43.420
880,52734.831000,234.297,86.343,-34.568,299.539,300.666,-214.334,-47.200,227.290,-20.580
881,52734.871000,227.391,76.245,-54.607,298.663,304.166,-213.231,30.800,51.290,-43.580
882,52734.911000,228.378,85.333,-57.613,296.894,302.372,-215.281,-43.200,-69.710,-34.580
883,52734.948000,232.324,87.353,-57.613,291.609,303.236,-215.269,19.800,-154.710,-27.580
884,52734.988000,228.378,89.373,-80.658,295.128,304.050,-217.218,-8.200,-208.710,1.420
885,52735.9000,227.391,88.363,-84.665,294.233,299.597,-221.337,96.800,-168.710,35.420
886,52735.56000,235.283,83.314,-77.652,293.342,302.088,-225.231,74.800,-174.710,56.420
887,52735.91000,235.283,77.254,-73.644,288.931,301.160,-227.261,133.800,-259.710,53.420
888,52735.139000,238.243,67.156,-72.642,285.386,299.225,-234.286,149.800,-396.710,28.420
889,52735.175000,248.108,85.333,-58.614,282.703,297.960,-248.238,144.800,-563.710,32.420
890,52735.229000,269.811,85.333,-71.640,273.864,292.492,-257.381,175.800,-741.710,62.420
891,52735.235000,287.568,80.284,-71.640,269.432,293.943,-267.278,78.800,-913.710,121.420
892,52735.270000,294.474,76.245,-69.636,262.342,290.072,-281.328,55.800,-1056.710,187.420
893,52735.311000,274.744,77.254,-53.605,252.600,286.114,-298.368,352.800,-1113.710,217.420
894,52735.354000,259.946,85.333,-39.577,242.831,271.543,-322.704,789.800,-1088.710,217.420
895,52735.388000,262.906,108.560,-60.618,230.441,259.771,-340.007,1180.800,-1188.710,162.420
896,52735.438000,248.108,87.353,-88.673,215.363,236.347,-370.605,799.800,-1398.710,143.420
897,52735.468000,211.607,81.294,-106.708,196.809,224.599,-386.933,517.800,-1118.710,226.420
898,52735.489000,122.821,106.540,-214.920,189.741,226.973,-394.823,-439.200,-869.710,165.420
899,52735.529000,122.821,55.037,-44.587,188.895,247.133,-387.220,-728.200,-415.710,121.420
900,52735.570000,124.794,22.722,-100.697,198.646,264.111,-369.757,-1523.200,508.290,314.420
901,52735.610000,138.605,33.830,-112.720,226.931,289.196,-342.042,-1073.200,1343.290,431.420
902,52735.648000,155.376,29.791,-122.740,271.108,299.987,-298.852,-816.200,1972.290,550.420
903,52735.689000,188.917,67.156,-155.804,314.432,306.748,-244.872,-779.200,2331.290,627.420
904,52735.731000,199.769,89.373,-183.859,340.982,306.242,-202.105,-1434.200,2383.290,624.420
905,52735.748000,211.607,101.491,-206.904,368.519,317.139,-124.210,-2123.200,2210.290,639.420
906,52735.788000,221.472,108.560,-195.883,382.826,313.214,-48.824,-2182.200,1889.290,657.420
907,52735.833000,221.472,128.757,-176.845,390.043,301.106,13.365,-2254.200,1110.290,545.420
908,52735.874000,216.540,117.649,-157.808,390.998,291.508,41.853,-2027.200,480.290,304.420
909,52735.910000,202.728,97.452,-114.724,391.955,286.221,69.488,-1484.200,23.290,-12.580
910,52735.950000,195.823,98.462,-93.683,385.784,295.652,65.803,-16.200,-766.710,-598.580
911,52735.970000,319.137,126.738,-25.550,379.605,302.422,60.045,-538.200,-561.710,-479.580
912,52736.10000,265.865,33.830,-91.679,378.705,299.649,53.994,-701.200,-805.710,-272.580
913,52736.50000,236.270,115.629,-58.614,381.341,309.926,49.371,-385.200,-496.710,-293.580
914,52736.93000,233.310,118.659,-60.618,375.167,311.573,46.425,-123.200,-190.710,-88.580
915,52736.139000,244.162,61.097,-67.632,374.295,311.657,49.404,-131.200,-2.710,-19.580
916,52736.173000,230.351,95.432,-32.564,376.949,310.903,53.360,-79.200,97.290,-26.580
917,52736.213000,229.364,78.264,-32.564,373.429,309.221,55.280,87.800,148.290,2.420
918,52736.233000,234.297,65.136,-26.552,371.663,314.343,52.462,168.800,123.290,-44.580
919,52736.273000,240.216,74.225,-22.544,375.185,312.610,52.417,129.800,-2.710,-83.580
920,52736.309000,237.256,72.205,-30.560,370.766,312.466,47.433,257.800,-34.710,-99.580
921,52736.351000,241.202,98.462,-29.558,369.886,321.089,45.724,242.800,-99.710,-95.580
922,52736.391000,237.256,103.511,-52.603,368.096,321.674,35.808,356.800,-31.710,-27.580
923,52736.431000,235.283,105.531,-52.603,369.846,316.383,32.663,351.800,33.290,54.420
924,52736.463000,228.378,83.314,-53.605,369.835,320.582,27.834,228.800,69.290,123.420
925,52736.493000,236.270,71.195,-51.601,374.239,316.273,28.701,-37.200,46.290,147.420
926,52736.530000,232.324,73.215,-37.573,372.495,309.553,36.421,-202.200,45.290,123.420
927,52736.571000,230.351,74.225,-37.573,375.150,314.848,39.581,-374.200,82.290,76.420
928,52736.613000,226.405,93.412,-16.532,376.044,313.253,44.497,-302.200,79.290,61.420
929,52736.649000,225.418,90.383,-29.558,380.465,311.689,50.418,-237.200,85.290,84.420
930,52736.689000,244.162,83.314,-26.552,378.721,310.149,57.314,-471.200,8.290,127.420
931,52736.709000,237.256,85.333,-45.589,383.137,302.509,63.038,-228.200,40.290,131.420
932,52736.754000,250.081,71.195,-40.579,385.798,303.548,69.038,-429.200,79.290,178.420
933,52736.789000,243.175,74.225,-37.573,385.803,291.537,73.613,-200.200,187.290,230.420
934,52736.830000,241.202,79.274,-37.573,387.571,288.151,76.488,-236.200,229.290,261.420
935,52736.874000,243.175,65.136,-26.552,392.876,279.728,85.169,-80.200,294.290,270.420
936,52736.914000,241.202,60.087,-24.548,395.532,274.691,90.972,-54.200,362.290,251.420
937,52736.930000,245.148,53.018,-19.538,393.802,275.868,101.927,-0.200,405.290,227.420
938,52736.969000,245.148,59.077,-0.501,394.690,269.905,105.708,28.800,419.290,169.420
939,52737.11000,242.189,62.107,7.515,396.460,262.235,110.430,68.800,354.290,160.420
940,52737.51000,240.216,67.156,21.542,399.116,268.398,113.618,82.800,264.290,172.420
941,52737.89000,243.175,56.047,7.515,399.132,266.831,119.525,37.800,214.290,202.420
942,52737.141000,248.108,57.057,3.507,400.903,260.897,124.303,-2.200,233.290,235.420
943,52737.174000,250.081,53.018,13.526,401.801,256.755,131.122,-72.200,251.290,244.420
944,52737.191000,246.135,61.097,15.530,403.569,253.369,133.997,-209.200,218.290,276.420
945,52737.235000,246.135,49.988,18.536,407.103,248.304,138.809,-115.200,218.290,317.420
946,52737.271000,245.148,45.949,14.528,408.893,239.963,150.460,-147.200,223.290,345.420
947,52737.315000,249.094,44.939,20.540,413.298,229.635,153.118,-209.200,250.290,396.420
948,52737.353000,253.040,27.771,18.536,416.834,219.419,159.749,-436.200,242.290,443.420
949,52737.410000,255.013,29.791,21.542,416.847,209.200,166.368,-276.200,251.290,464.420
950,52737.423000,253.040,37.870,37.573,424.786,189.495,174.691,-264.200,202.290,525.420
951,52737.453000,262.906,4.544,-2.505,423.043,184.511,182.468,-245.200,323.290,529.420
952,52737.494000,262.906,34.840,-13.526,426.591,179.588,192.249,-148.200,534.290,594.420
953,52737.530000,256.000,64.126,37.573,429.259,148.820,208.140,-1267.200,407.290,338.420
954,52737.575000,293.487,-24.742,75.648,425.773,137.985,223.665,-1484.200,269.290,138.420
955,52737.610000,299.407,-33.830,69.636,425.788,127.794,231.278,-873.200,319.290,32.420
956,52737.650000,274.744,-75.235,70.638,426.693,137.512,237.555,640.800,377.290,18.420
957,52737.670000,226.405,-50.998,72.642,422.288,152.152,234.044,841.800,232.290,-12.580
958,52737.710000,208.647,-49.988,65.628,424.932,153.890,234.108,-74.200,4.290,33.420
959,52737.750000,199.769,-37.870,64.626,421.402,146.075,233.844,-648.200,-224.710,36.420
960,52737.790000,197.796,-40.899,62.622,422.266,134.707,230.498,-721.200,-254.710,59.420
961,52737.836000,203.715,-33.830,49.597,423.144,130.368,230.360,-170.200,-89.710,58.420
962,52737.871000,210.620,-40.899,51.601,428.430,131.240,230.406,430.800,84.290,28.420
963,52737.899000,208.647,-12.623,49.597,423.143,139.831,227.689,875.800,179.290,1.420
964,52737.934000,216.540,13.633,57.613,422.263,145.878,226.889,766.800,-28.710,-70.580
965,52737.973000,229.364,11.613,55.609,418.727,155.227,220.230,393.800,-254.710,-202.580
966,52738.16000,272.771,-0.505,105.706,419.591,170.570,210.801,568.800,-441.710,-366.580
967,52738.54000,290.528,-56.047,160.814,419.588,178.297,208.073,599.800,28.290,-150.580
968,52738.90000,319.137,15.653,27.554,422.190,180.481,193.257,-226.200,-775.710,-563.580
969,52738.130000,233.310,37.870,-18.536,425.697,191.514,184.689,-611.200,-860.710,-571.580
970,52738.154000,266.852,18.682,-3.507,423.923,194.843,179.827,-387.200,-517.710,-578.580
971,52738.191000,255.013,24.742,-16.532,421.271,205.956,174.221,-44.200,-291.710,-457.580
972,52738.234000,250.081,40.899,9.519,417.742,213.653,170.487,-87.200,-200.710,-431.580
973,52738.280000,256.987,16.663,-1.503,412.443,215.245,165.557,-70.200,-103.710,-456.580
974,52738.313000,247.121,50.998,19.538,408.055,222.298,169.744,32.800,-28.710,-442.580
975,52738.361000,248.108,49.988,16.532,402.754,228.173,162.966,113.800,9.290,-355.580
976,52738.395000,250.081,52.008,12.524,400.125,238.643,165.284,230.800,43.290,-260.580
977,52738.415000,243.175,64.126,22.544,399.245,248.134,163.603,218.800,52.290,-222.580
978,52738.450000,244.162,59.077,20.540,394.843,251.603,163.701,272.800,60.290,-157.580
979,52738.495000,242.189,56.047,29.558,389.542,249.722,158.658,313.800,-18.710,-146.580
980,52738.531000,244.162,59.077,21.542,390.417,260.866,154.058,267.800,-115.710,-165.580
981,52738.591000,242.189,59.077,15.530,391.281,261.566,148.125,406.800,-199.710,-181.580
982,52738.614000,244.162,66.146,10.521,391.258,268.228,138.412,379.800,-215.710,-157.580
983,52738.631000,251.067,56.047,-2.505,389.479,271.502,131.561,341.800,-168.710,-153.580
984,52738.673000,241.202,75.235,8.517,385.941,279.982,124.874,202.800,-149.710,-120.580
985,52738.713000,249.094,63.116,8.517,387.695,284.211,121.045,305.800,-126.710,-98.580
986,52738.756000,247.121,56.047,-6.513,384.161,284.963,117.086,84.800,-141.710,-115.580
987,52738.791000,247.121,64.126,-10.521,382.388,289.161,112.252,117.800,-87.710,-125.580
988,52738.833000,247.121,78.264,-10.521,379.738,288.235,110.227,112.800,-10.710,-78.580
989,52738.876000,250.081,69.176,-14.528,381.511,291.793,113.327,64.800,77.290,-28.580
990,52738.896000,247.121,80.284,1.503,383.264,287.398,111.204,141.800,143.290,20.420
991,52738.941000,241.202,73.215,2.505,382.399,292.718,115.346,105.800,153.290,44.420
992,52738.975000,242.189,64.126,-0.501,381.517,295.293,114.434,109.800,165.290,31.420
993,52739.21000,238.243,67.156,4.509,380.642,292.773,117.328,75.800,144.290,11.420
994,52739.58000,246.135,64.126,6.513,378.868,290.923,113.291,62.800,128.290,-11.580
995,52739.94000,240.216,66.146,15.530,378.001,290.195,118.229,127.800,106.290,-43.580
996,52739.115000,237.256,65.136,14.528,374.472,291.004,116.258,56.800,4.290,-77.580
997,52739.155000,238.243,70.185,13.526,375.359,295.373,117.396,6.800,-78.710,-86.580
998,52739.195000,241.202,75.235,0.501,376.230,294.421,114.389,-111.200,-101.710,-62.580
999,52739.238000,242.189,78.264,-0.501,375.348,292.684,114.329,-96.200,-50.710,-37.580
1000,52739.279000,241.202,73.215,7.515,373.597,299.683,116.537,-58.200,-24.710,-13.580
1001,52739.313000,240.216,71.195,6.513,373.600,299.712,117.531,0.800,-13.710,2.420
1002,52739.353000,238.243,67.156,4.509,374.467,292.684,114.327,-25.200,-23.710,-18.580
1003,52739.374000,247.121,67.156,-2.505,375.368,300.637,119.553,-174.200,-38.710,-34.580
1004,52739.414000,238.243,78.264,6.513,375.359,295.373,117.396,-130.200,-12.710,-8.580
1005,52739.456000,240.216,73.215,3.507,375.368,292.882,121.287,-68.200,2.290,1.420
1006,52739.499000,238.243,74.225,8.517,373.611,299.824,121.507,-57.200,-4.710,13.420
1007,52739.535000,241.202,70.185,6.513,374.485,293.721,120.318,-65.200,-33.710,11.420
1008,52739.576000,243.175,67.156,6.513,374.483,291.117,120.234,-76.200,-57.710,-0.580
1009,52739.595000,243.175,73.215,7.515,372.734,297.276,123.407,-120.200,-82.710,-13.580
1010,52739.635000,243.175,68.166,4.509,373.595,285.012,119.040,-97.200,-55.710,-12.580
1011,52739.675000,245.148,77.254,4.509,374.493,289.493,124.153,-91.200,-19.710,-8.580
1012,52739.715000,241.202,70.185,9.519,376.262,294.731,125.322,-207.200,55.290,23.420
1013,52739.756000,240.216,71.195,10.521,374.516,293.163,131.223,-286.200,52.290,31.420
1014,52739.791000,242.189,66.146,10.521,377.168,290.673,135.123,-198.200,-8.710,-2.580
1015,52739.833000,244.162,75.235,6.513,374.522,290.643,134.120,-122.200,-15.710,-9.580
1016,52739.853000,240.216,73.215,9.519,378.044,284.598,134.929,-125.200,-1.710,7.420
1017,52739.891000,245.148,69.176,10.521,376.296,287.313,138.983,-114.200,-5.710,13.420
1018,52739.931000,242.189,72.205,10.521,378.056,284.711,138.904,-56.200,-24.710,5.420
1019,52739.976000,241.202,69.176,12.524,378.935,282.975,138.851,-17.200,-31.710,15.420
1020,52740.13000,242.189,72.205,9.519,379.814,287.259,137.007,6.800,-47.710,8.420
1021,52740.56000,241.202,72.205,8.517,380.687,283.732,134.909,43.800,-48.710,9.420
1022,52740.78000,243.175,70.185,8.517,379.807,288.911,134.081,78.800,-54.710,8.420
1023,52740.113000,241.202,70.185,7.515,376.278,290.588,132.138,129.800,-67.710,6.420
1024,52740.153000,243.175,70.185,5.511,378.027,283.561,128.937,140.800,-56.710,13.420
1025,52740.196000,243.175,71.195,7.515,381.541,282.611,125.938,91.800,-40.710,14.420
1026,52740.235000,242.189,70.185,5.511,380.654,289.442,122.185,93.800,-43.710,12.420
1027,52740.283000,243.175,71.195,2.505,379.773,292.885,121.301,85.800,-39.710,8.420
1028,52740.313000,244.162,70.185,2.505,381.534,287.706,122.132,72.800,-37.710,11.420
1029,52740.335000,242.189,71.195,4.509,377.125,285.939,121.067,95.800,-28.710,18.420
1030,52740.376000,244.162,67.156,4.509,378.875,281.516,117.950,87.800,-31.710,17.420
1031,52740.413000,242.189,68.166,2.505,379.756,284.960,117.072,77.800,-39.710,12.420
1032,52740.456000,242.189,67.156,2.505,380.634,292.688,114.347,51.800,-46.710,6.420
1033,52740.495000,245.148,69.176,-1.503,382.393,292.661,113.358,37.800,-46.710,-0.580
1034,52740.536000,244.162,69.176,-4.509,381.515,292.689,114.349,39.800,-30.710,4.420
1035,52740.556000,243.175,70.185,-5.511,382.382,289.105,110.264,48.800,-1.710,9.420
1036,52740.595000,246.135,69.176,-6.513,383.265,291.710,110.351,63.800,38.290,15.420
