Sample, Time, ACCX, ACCY, ACCZ, MAGX, MAGY, MAGZ, GYRX, GYRY, GYRZ
0,52555.365000,252.008,-3.507,-16.868,491.383,-264.098,61.071,-637.150,290.630,-142.930
1,52555.405000,250.012,-1.503,-11.907,494.315,-263.032,64.057,-633.150,252.630,-143.930
2,52555.441000,248.016,-1.503,-10.915,495.280,-263.097,61.106,-643.150,214.630,-136.930
3,52555.481000,251.010,-6.513,-6.946,494.374,-258.436,59.267,-619.150,132.630,-125.930
4,52555.521000,256.998,-6.513,-14.884,496.313,-257.673,51.422,-562.150,77.630,-103.930
5,52555.541000,260.990,-3.507,-6.946,500.240,-253.967,46.614,-519.150,178.630,-75.930
6,52555.583000,256.998,-2.505,-4.961,502.150,-255.884,44.597,-530.150,185.630,-63.930
7,52555.623000,255.002,5.511,-8.930,496.393,-251.264,43.732,-436.150,186.630,-43.930
8,52555.663000,235.041,19.538,-2.977,497.279,-256.951,42.591,-368.150,120.630,28.070
9,52555.704000,250.012,27.554,-3.969,496.304,-256.256,33.757,-401.150,-245.370,31.070
10,52555.744000,278.955,-7.515,-45.643,499.087,-263.255,17.829,-486.150,-359.370,39.070
11,52555.784000,239.033,-22.544,-16.868,497.211,-258.607,15.988,-396.150,137.630,75.070
12,52555.826000,244.023,-7.515,-16.868,497.118,-264.413,10.908,-234.150,11.630,88.070
13,52555.843000,256.000,3.507,-9.922,493.277,-261.631,10.979,-132.150,30.630,113.070
14,52555.888000,253.006,-2.505,-9.922,495.104,-269.221,8.804,-53.150,21.630,106.070
15,52555.923000,253.006,-0.501,-11.907,492.229,-266.478,6.908,-1.150,-56.370,105.070
16,52555.990000,252.008,-1.503,-16.868,492.224,-267.318,10.819,46.850,-35.370,110.070
17,52556.8000,250.012,2.505,-14.884,486.358,-270.238,10.728,37.850,-70.370,119.070
18,52556.44000,256.998,-3.507,-17.860,483.336,-277.083,3.647,-4.150,-156.370,116.070
19,52556.89000,256.000,-8.517,-17.860,479.481,-275.246,3.692,1.850,-91.370,144.070
20,52556.124000,254.004,-18.536,-12.899,483.330,-277.162,0.694,-21.150,-133.370,188.070
21,52556.143000,254.004,-20.540,-12.899,479.267,-289.536,-0.640,6.850,-107.370,203.070
22,52556.185000,249.014,-32.564,-10.915,475.382,-289.617,-1.633,-58.150,-79.370,190.070
23,52556.226000,255.002,-28.556,-21.829,467.506,-296.531,-8.724,-128.150,-128.370,155.070
24,52556.264000,256.000,-22.544,-17.860,469.489,-293.667,-8.641,-241.150,-94.370,137.070
25,52556.304000,252.008,-17.534,-21.829,465.443,-305.043,-7.980,-116.150,114.630,106.070
26,52556.344000,256.000,-42.583,-24.806,468.465,-297.437,-7.764,-85.150,169.630,115.070
27,52556.384000,241.029,-35.569,-17.860,461.496,-309.774,-6.151,-1.150,-39.370,101.070
28,52556.425000,250.012,-31.562,-24.806,463.484,-306.069,-9.979,84.850,-136.370,103.070
29,52556.446000,253.006,-32.564,-29.767,459.490,-313.715,-11.182,102.850,-113.370,79.070
30,52556.486000,246.020,-24.548,-21.829,457.566,-312.744,-9.191,21.850,-2.370,-4.930
31,52556.531000,248.016,-21.542,-19.845,463.425,-309.904,-12.053,-61.150,14.630,-42.930
32,52556.566000,251.010,-24.548,-19.845,462.478,-308.079,-13.971,-142.150,4.630,-49.930
33,52556.606000,255.002,-34.568,-16.868,463.392,-311.874,-15.059,-155.150,-0.370,-40.930
34,52556.643000,256.998,-42.583,-22.822,454.666,-311.105,-17.019,-137.150,-31.370,-12.930
35,52556.685000,256.998,-45.589,-29.767,462.484,-307.239,-17.882,-61.150,-46.370,-39.930
36,52556.705000,255.002,-38.575,-26.791,462.540,-302.669,-23.657,-59.150,-22.370,4.070
37,52556.745000,247.018,-36.571,-23.814,460.580,-304.482,-19.776,-0.150,52.630,-22.930
38,52556.811000,259.992,-35.569,-23.814,459.517,-311.063,-17.994,80.850,64.630,-47.930
39,52556.828000,251.010,-34.568,-16.868,465.506,-300.394,-10.802,142.850,115.630,-62.930
40,52556.863000,248.016,-25.550,-13.891,467.536,-294.614,-7.687,177.850,87.630,-81.930
41,52556.904000,245.021,-22.544,-8.930,467.493,-298.238,-1.886,209.850,127.630,-82.930
42,52556.944000,250.012,-21.542,-9.922,469.326,-305.749,-1.108,208.850,61.630,-77.930
43,52556.984000,250.012,-17.534,-13.891,472.382,-296.173,2.114,207.850,-50.370,-43.930
44,52557.5000,251.010,-22.544,-18.853,469.419,-299.944,3.972,217.850,-60.370,-47.930
45,52557.51000,252.008,-21.542,-20.837,473.420,-292.219,8.128,228.850,-31.370,-88.930
46,52557.86000,252.008,-15.530,-15.876,467.582,-293.247,8.089,214.850,-6.370,-121.930
47,52557.131000,257.996,-8.517,-20.837,474.465,-287.398,11.214,159.850,-26.370,-114.930
48,52557.163000,253.006,-6.513,-15.876,475.395,-290.982,18.001,98.850,25.630,-60.930
49,52557.205000,255.002,-7.515,-14.884,474.528,-283.510,15.257,37.850,8.630,-11.930
50,52557.266000,258.994,-19.538,-10.915,477.312,-292.032,13.057,51.850,1.630,1.070
51,52557.309000,254.004,-21.542,-12.899,475.460,-286.307,16.164,114.850,3.630,-12.930
52,52557.318000,253.006,-16.532,-9.922,476.399,-288.998,21.009,152.850,-2.370,-21.930
53,52557.343000,251.010,-10.521,-13.891,477.368,-289.011,20.027,125.850,-22.370,-30.930
54,52557.383000,251.010,-6.513,-13.891,481.227,-290.794,21.951,71.850,-24.370,-24.930
55,52557.424000,252.008,-11.523,-13.891,477.478,-281.446,20.237,16.850,-39.370,-19.930
56,52557.464000,254.004,-14.528,-16.868,478.364,-287.132,19.097,2.850,-41.370,-28.930
57,52557.510000,255.002,-12.524,-14.884,477.497,-280.421,23.217,-0.150,-21.370,-31.930
58,52557.545000,256.000,-14.528,-14.884,477.391,-287.172,18.111,-2.150,-22.370,-16.930
59,52557.588000,253.006,-13.526,-16.868,475.574,-278.689,18.344,-1.150,-15.370,-16.930
60,52557.626000,254.004,-10.521,-13.891,482.240,-287.156,16.152,-13.150,-12.370,-10.930
61,52557.648000,252.008,-12.524,-14.884,478.452,-280.618,15.344,-32.150,-13.370,4.070
62,52557.688000,256.998,-15.530,-16.868,479.344,-286.225,17.157,-43.150,-6.370,-0.930
63,52557.728000,253.006,-14.528,-16.868,478.429,-282.457,17.260,-51.150,18.630,2.070
64,52557.768000,252.008,-13.526,-14.884,480.393,-280.591,15.348,-71.150,23.630,6.070
65,52557.808000,255.002,-12.524,-16.868,477.468,-281.577,15.316,-108.150,12.630,3.070
66,52557.849000,252.008,-15.530,-14.884,480.401,-279.724,12.421,-124.150,10.630,-2.930
67,52557.885000,252.008,-15.530,-12.899,479.448,-278.739,14.414,-128.150,3.630,-5.930
68,52557.906000,255.002,-17.534,-14.884,477.452,-281.788,7.441,-124.150,0.630,-10.930
69,52557.948000,254.004,-15.530,-12.899,480.283,-287.394,8.273,-109.150,12.630,-17.930
70,52557.988000,252.008,-16.532,-8.930,482.323,-280.721,9.446,-97.150,1.630,-18.930
71,52558.29000,256.998,-20.540,-15.876,483.340,-277.030,5.616,-75.150,-20.370,-28.930
72,52558.65000,256.998,-17.534,-17.860,483.374,-275.060,8.622,-12.150,38.630,-49.930
73,52558.124000,256.000,-11.523,-18.853,481.316,-282.731,5.454,-9.150,45.630,-37.930
74,52558.145000,255.002,-5.511,-18.853,484.234,-282.611,8.413,-36.150,83.630,-33.930
75,52558.185000,257.996,-5.511,-13.891,484.170,-287.287,10.250,-96.150,122.630,-21.930
76,52558.205000,254.004,-4.509,-8.930,483.362,-275.979,9.580,-139.150,102.630,-42.930
77,52558.253000,255.002,-8.517,-5.953,485.288,-276.923,8.573,-122.150,106.630,-96.930
78,52558.291000,255.002,-6.513,-3.969,485.333,-274.034,10.621,-87.150,112.630,-143.930
79,52558.326000,256.000,-4.509,-16.868,489.329,-266.361,12.808,-28.150,94.630,-164.930
80,52558.369000,250.012,1.503,-27.783,490.312,-266.190,18.716,-7.150,193.630,-103.930
81,52558.404000,247.018,7.515,-17.860,493.177,-269.826,22.554,-20.150,301.630,-50.930
82,52558.444000,256.000,5.511,-12.899,492.340,-261.197,27.711,-132.150,228.630,-8.930
83,52558.465000,256.000,-2.505,-12.899,494.201,-266.817,28.541,-151.150,101.630,-30.930
84,52558.504000,253.006,-2.505,-8.930,493.352,-258.346,27.792,-138.150,43.630,-50.930
85,52558.550000,246.020,-0.501,-9.922,493.307,-261.236,25.744,-148.150,-94.370,-42.930
86,52558.593000,238.035,0.501,-11.907,490.410,-259.544,19.885,-105.150,-95.370,-7.930
87,52558.628000,241.029,2.505,-10.915,492.234,-267.187,15.741,-15.150,-158.370,61.070
88,52558.668000,252.008,-0.501,-13.891,489.359,-264.444,13.845,22.850,-184.370,91.070
89,52558.708000,259.992,-2.505,-15.876,491.286,-264.600,6.959,17.850,-200.370,65.070
90,52558.785000,257.996,2.505,-11.907,490.217,-271.260,5.788,-35.150,-187.370,68.070
91,52558.815000,255.002,-5.511,-11.907,491.223,-268.488,2.916,-16.150,-127.370,57.070
92,52558.831000,256.000,-12.524,-10.915,484.395,-270.555,-0.104,-20.150,-56.370,41.070
93,52558.848000,256.998,-13.526,-2.977,490.193,-272.337,0.840,24.850,-15.370,31.070
94,52558.888000,256.998,-7.515,-9.922,487.236,-275.268,-1.214,51.850,-49.370,50.070
95,52558.928000,251.010,-3.507,-6.946,488.278,-270.500,-0.096,62.850,-45.370,90.070
96,52558.973000,250.012,-4.509,-6.946,484.308,-276.281,-2.230,42.850,-70.370,123.070
97,52559.9000,256.000,-9.519,-10.915,478.455,-278.281,-3.279,16.850,-66.370,115.070
98,52559.49000,256.998,-17.534,-11.907,482.349,-277.307,-4.229,61.850,-12.370,104.070
99,52559.69000,257.996,-19.538,-7.938,481.304,-282.889,-0.452,135.850,46.630,89.070
100,52559.113000,258.994,-24.548,-4.961,480.355,-281.852,3.510,238.850,62.630,32.070
101,52559.148000,253.006,-9.519,-3.969,479.399,-281.681,10.398,258.850,47.630,-7.930
102,52559.196000,251.010,-3.507,-7.938,478.387,-284.532,10.317,165.850,-8.370,-8.930
103,52559.226000,252.008,-4.509,-14.884,478.462,-279.725,13.402,79.850,-26.370,7.070
104,52559.268000,253.006,-14.528,-13.891,474.563,-280.752,12.383,26.850,-28.370,10.070
105,52559.307000,256.000,-16.532,-15.876,476.408,-287.344,12.203,15.850,-28.370,-6.930
106,52559.348000,255.002,-15.530,-13.891,474.451,-288.343,11.188,49.850,-9.370,-2.930
107,52559.368000,255.002,-14.528,-12.899,476.491,-281.670,12.361,53.850,-11.370,9.070
108,52559.405000,255.002,-13.526,-12.899,478.391,-284.480,12.286,30.850,-10.370,25.070
109,52559.451000,254.004,-13.526,-12.899,477.420,-284.493,12.284,1.850,-20.370,31.070
110,52559.486000,255.002,-15.530,-15.876,477.387,-286.464,9.278,-24.150,-29.370,35.070
111,52559.526000,253.006,-16.532,-15.876,477.442,-282.681,9.383,-40.150,-10.370,32.070
112,52559.573000,254.004,-13.526,-15.876,479.265,-291.085,12.103,-81.150,-9.370,22.070
113,52559.608000,256.998,-14.528,-14.884,476.418,-286.451,10.260,-110.150,4.630,20.070
114,52559.654000,252.008,-12.524,-14.884,475.331,-294.109,7.095,-136.150,13.630,15.070
115,52559.669000,252.008,-12.524,-14.884,472.553,-284.746,5.383,-168.150,-1.370,13.070
116,52559.710000,253.006,-14.528,-15.876,477.390,-285.649,4.383,-189.150,-7.370,5.070
117,52559.751000,253.006,-17.534,-15.876,471.580,-284.025,-2.467,-193.150,-2.370,15.070
118,52559.796000,256.000,-19.538,-18.853,473.405,-291.642,-5.627,-187.150,0.630,16.070
119,52559.839000,254.004,-21.542,-14.884,475.394,-288.698,-2.591,-155.150,21.630,18.070
120,52559.866000,253.006,-21.542,-14.884,477.390,-284.888,-2.481,-104.150,43.630,17.070
121,52559.906000,253.006,-22.544,-14.884,480.261,-287.684,-2.554,-50.150,45.630,12.070
122,52559.930000,251.010,-20.540,-14.884,475.419,-286.833,-3.522,19.850,25.630,9.070
123,52559.978000,251.010,-21.542,-11.907,473.482,-286.808,-1.558,50.850,2.630,7.070
124,52560.6000,253.006,-22.544,-14.884,474.449,-286.847,-3.524,84.850,-21.370,-1.930
125,52560.46000,252.008,-21.542,-15.876,470.517,-290.606,-0.685,123.850,-19.370,-4.930
126,52560.88000,255.002,-19.538,-16.868,471.451,-293.376,1.207,135.850,-36.370,-7.930
127,52560.129000,253.006,-18.536,-15.876,473.437,-290.459,3.259,162.850,-38.370,-13.930
128,52560.166000,253.006,-17.534,-12.899,470.521,-290.553,1.284,178.850,-45.370,-24.930
129,52560.206000,253.006,-17.534,-11.907,475.367,-291.351,4.221,194.850,-58.370,-31.930
130,52560.231000,254.004,-15.530,-14.884,477.381,-286.542,6.325,204.850,-56.370,-34.930
131,52560.266000,255.002,-12.524,-14.884,476.343,-291.258,7.176,207.850,-40.370,-26.930
132,52560.306000,253.006,-13.526,-14.884,478.367,-285.557,7.338,184.850,-40.370,-11.930
133,52560.351000,255.002,-17.534,-13.891,476.353,-291.126,12.097,190.850,-42.370,-13.930
134,52560.388000,255.002,-17.534,-16.868,476.497,-281.591,15.314,197.850,-28.370,-22.930
135,52560.429000,256.000,-14.528,-19.845,472.540,-287.215,19.085,194.850,4.630,-14.930
136,52560.469000,256.998,-14.528,-19.845,477.452,-283.311,21.169,181.850,41.630,-6.930
137,52560.509000,252.008,-13.526,-17.860,476.391,-289.865,23.936,170.850,60.630,-5.930
138,52560.529000,251.010,-13.526,-12.899,480.372,-283.164,25.113,162.850,53.630,-15.930
139,52560.569000,251.010,-12.524,-14.884,480.351,-284.976,28.013,136.850,25.630,-21.930
140,52560.609000,254.004,-10.521,-16.868,480.422,-280.222,29.129,105.850,12.630,-15.930
141,52560.650000,252.008,-11.523,-15.876,477.482,-282.154,29.070,76.850,20.630,-5.930
142,52560.690000,254.004,-11.523,-17.860,477.561,-277.295,34.124,34.850,8.630,-5.930
143,52560.726000,253.006,-13.526,-12.899,479.465,-280.051,36.017,24.850,9.630,-9.930
144,52560.788000,253.006,-13.526,-12.899,479.453,-280.971,36.975,16.850,-2.370,-13.930
145,52560.810000,253.006,-10.521,-14.884,478.437,-283.874,34.926,3.850,-15.370,-11.930
146,52560.830000,253.006,-11.523,-13.891,478.498,-280.013,37.984,-15.150,-10.370,-8.930
147,52560.870000,255.002,-10.521,-16.868,482.361,-280.982,35.013,-44.150,-3.370,-8.930
148,52560.910000,252.008,-11.523,-16.868,478.530,-277.307,33.141,-60.150,2.630,-4.930
149,52560.966000,254.004,-11.523,-17.860,480.443,-279.171,33.093,-69.150,-5.370,-1.930
150,52560.988000,252.008,-11.523,-16.868,476.478,-284.900,32.927,-71.150,-3.370,-0.930
151,52561.28000,254.004,-13.526,-11.907,480.414,-281.089,32.056,-62.150,11.630,-1.930
152,52561.69000,255.002,-13.526,-12.899,475.598,-278.373,30.156,-59.150,-6.370,-0.930
153,52561.110000,254.004,-13.526,-14.884,482.422,-276.359,31.207,-51.150,-2.370,1.070
154,52561.126000,254.004,-15.530,-15.876,479.394,-284.045,28.037,-49.150,-19.370,-5.930
155,52561.166000,253.006,-10.521,-13.891,483.343,-279.288,27.193,-44.150,-1.370,-9.930
156,52561.210000,253.006,-12.524,-13.891,480.388,-282.192,26.123,-56.150,-6.370,-6.930
157,52561.250000,256.000,-13.526,-14.884,481.439,-276.531,25.299,-56.150,-9.370,-10.930
158,52561.290000,256.000,-12.524,-13.891,479.445,-280.315,26.174,-54.150,22.630,-11.930
159,52561.330000,253.006,-10.521,-13.891,484.335,-277.462,24.294,-62.150,28.630,-6.930
160,52561.383000,252.008,-13.526,-12.899,477.413,-286.121,22.075,-62.150,7.630,-0.930
161,52561.410000,254.004,-11.523,-13.891,478.490,-278.595,20.318,-57.150,0.630,0.070
162,52561.430000,254.004,-11.523,-15.876,479.358,-286.041,24.047,-66.150,-0.370,3.070
163,52561.470000,253.006,-11.523,-14.884,481.417,-277.582,21.335,-73.150,-1.370,3.070
164,52561.510000,252.008,-11.523,-13.891,477.509,-279.502,22.259,-84.150,-3.370,12.070
165,52561.555000,253.006,-12.524,-13.891,479.456,-278.634,18.352,-80.150,-10.370,12.070
166,52561.603000,251.010,-15.530,-13.891,475.574,-278.689,18.344,-58.150,-10.370,10.070
167,52561.633000,253.006,-12.524,-14.884,480.364,-282.508,14.311,-44.150,-23.370,11.070
168,52561.674000,255.002,-14.528,-15.876,478.370,-286.292,15.186,-25.150,-18.370,12.070
169,52561.709000,256.000,-15.530,-14.884,476.399,-288.237,14.145,-20.150,-19.370,16.070
170,52561.729000,255.002,-14.528,-16.868,481.313,-284.307,17.213,-7.150,13.630,10.070
171,52561.770000,252.008,-12.524,-15.876,477.428,-284.388,16.221,-2.150,13.630,9.070
172,52561.810000,253.006,-10.521,-15.876,477.389,-287.199,17.126,-8.150,2.630,13.070
173,52561.850000,253.006,-13.526,-12.899,479.423,-280.604,15.346,-3.150,0.630,9.070
174,52561.890000,253.006,-14.528,-15.876,475.462,-286.280,17.149,5.850,1.630,1.070
175,52561.931000,252.008,-18.536,-13.891,477.489,-280.526,19.279,18.850,16.630,-9.930
176,52561.971000,256.998,-9.519,-11.907,482.325,-281.456,17.294,34.850,-19.370,-8.930
177,52561.991000,257.996,-5.511,-6.946,479.397,-282.469,16.278,13.850,-16.370,9.070
178,52562.33000,257.996,-4.509,-6.946,480.370,-282.429,17.264,-34.150,-31.370,39.070
179,52562.69000,267.977,-13.526,-11.907,477.428,-284.388,16.221,-71.150,-17.370,67.070
180,52562.109000,282.947,-12.524,-7.938,478.270,-293.725,19.897,-86.150,167.630,151.070
181,52562.149000,261.988,-24.548,16.868,471.536,-289.960,22.941,-261.150,382.630,229.070
182,52562.188000,231.049,-43.585,27.783,468.546,-295.622,24.746,-436.150,305.630,150.070
183,52562.230000,205.099,-58.614,-30.760,471.507,-292.639,28.769,-215.150,415.630,-61.930
184,52562.271000,232.047,-40.579,-9.922,470.637,-286.742,37.784,202.850,92.630,-259.930
185,52562.291000,277.957,-34.568,-40.682,475.447,-289.536,36.730,408.850,-182.370,17.070
186,52562.331000,254.004,-25.550,-34.729,472.577,-287.502,43.667,471.850,53.630,-1.930
187,52562.385000,246.020,4.509,-9.922,477.375,-291.977,50.436,478.850,81.630,-85.930
188,52562.409000,244.023,-24.548,21.829,476.519,-285.135,59.478,558.850,-41.370,-108.930
189,52562.456000,267.977,5.511,27.783,479.443,-284.174,58.526,471.850,-14.370,-111.930
190,52562.491000,254.004,13.526,-4.961,481.512,-276.345,67.599,363.850,-22.370,139.070
191,52562.541000,249.014,-5.511,1.984,476.565,-283.768,75.253,120.850,111.630,169.070
192,52562.571000,271.969,-6.513,-17.860,474.611,-283.953,69.343,-158.150,-133.370,21.070
193,52562.588000,242.027,-2.505,0.992,472.605,-287.895,64.312,-274.150,-17.370,-13.930
194,52562.629000,231.049,-4.509,10.915,477.574,-279.421,60.622,-519.150,-40.370,1.070
195,52562.680000,241.029,14.528,28.775,470.527,-295.068,44.437,-744.150,-130.370,168.070
196,52562.709000,261.988,-15.530,21.829,471.449,-297.997,40.423,-723.150,406.630,235.070
197,52562.750000,272.967,-23.546,-19.845,465.610,-297.502,26.656,-801.150,-170.370,179.070
198,52562.796000,292.928,-34.568,-61.519,463.588,-301.654,13.750,-691.150,-346.370,282.070
199,52562.830000,270.971,-71.640,-69.457,460.481,-313.438,-1.337,-336.150,-256.370,275.070
200,52562.878000,245.021,-56.611,-36.713,454.595,-317.382,-4.407,-92.150,-147.370,282.070
201,52562.896000,212.086,-69.636,-9.922,455.472,-323.962,-3.605,148.850,-25.370,129.070
202,52562.933000,214.082,-68.634,-7.938,451.591,-323.990,-2.629,195.850,-36.370,-7.930
203,52562.973000,231.049,-57.613,-11.907,453.594,-320.101,0.433,259.850,-70.370,-71.930
204,52563.13000,243.025,-63.624,-20.837,453.613,-319.077,3.413,256.850,-12.370,-60.930
205,52563.53000,248.016,-63.624,-2.977,457.463,-321.753,7.279,223.850,24.630,-87.930
206,52563.95000,241.029,-69.636,-9.922,459.579,-310.246,12.521,359.850,-42.370,-162.930
207,52563.131000,233.045,-69.636,-5.953,463.466,-310.139,14.498,553.850,-65.370,-335.930
208,52563.173000,264.982,20.540,-9.922,474.289,-301.187,25.585,494.850,217.630,-372.930
209,52563.193000,260.990,59.616,21.829,477.261,-298.834,41.393,588.850,212.630,-67.930
210,52563.233000,299.914,58.614,-25.798,472.317,-305.443,44.151,336.850,-12.370,179.070
211,52563.273000,285.942,62.622,-12.899,470.529,-295.042,45.421,-88.150,122.630,-34.930
212,52563.313000,258.994,52.603,4.961,467.539,-300.704,47.226,-187.150,128.630,-71.930
213,52563.353000,236.039,32.564,18.853,471.461,-297.839,46.329,-248.150,79.630,-50.930
214,52563.389000,234.043,1.503,19.845,470.560,-292.337,40.579,-353.150,49.630,-85.930
215,52563.430000,252.008,-38.575,8.930,470.488,-297.118,38.478,-418.150,-23.370,-157.930
216,52563.450000,254.004,-42.583,-4.961,476.376,-291.598,29.789,-385.150,-38.370,-203.930
217,52563.490000,268.975,-62.622,-22.822,479.374,-285.069,25.058,-256.150,-165.370,-102.930
218,52563.530000,278.955,-65.628,-35.721,474.444,-289.971,20.979,-106.150,-13.370,20.070
219,52563.574000,263.984,-58.614,-22.822,476.415,-288.026,22.020,-14.150,102.630,74.070
220,52563.623000,247.018,-60.618,-19.845,471.536,-289.960,22.941,48.850,129.630,85.070
221,52563.661000,243.025,-45.589,-0.992,473.487,-289.801,27.867,69.850,101.630,44.070
222,52563.694000,233.045,-38.575,0.992,468.542,-296.436,29.642,128.850,49.630,37.070
223,52563.732000,238.035,-30.560,-2.977,473.466,-292.374,37.632,237.850,71.630,0.070
224,52563.753000,224.062,-18.536,11.907,472.502,-292.309,40.583,386.850,82.630,-146.930
225,52563.793000,221.068,-3.507,23.814,478.391,-288.313,45.622,517.850,68.630,-243.930
226,52563.829000,254.004,-9.519,20.837,481.411,-282.255,58.582,688.850,-183.370,-195.930
227,52563.869000,280.951,-7.515,-20.837,483.451,-275.582,59.755,621.850,-225.370,3.070
228,52563.910000,286.940,-8.517,-46.636,485.337,-279.337,59.654,322.850,-44.370,-17.930
229,52563.951000,296.920,-5.511,-39.690,482.435,-279.247,64.569,214.850,-70.370,23.070
230,52563.993000,271.969,-2.505,-23.814,482.435,-279.247,64.569,144.850,-36.370,76.070
231,52564.33000,249.014,13.526,-8.930,483.469,-275.345,68.614,13.850,86.630,21.070
232,52564.53000,228.055,15.530,-1.984,484.363,-280.165,64.547,-202.150,36.630,25.070
233,52564.98000,227.057,-2.505,5.953,478.622,-274.574,64.693,-388.150,8.630,24.070
234,52564.134000,236.039,-3.507,4.961,483.365,-281.308,57.628,-422.150,29.630,16.070
235,52564.170000,246.020,-13.526,11.907,477.568,-278.738,50.805,-437.150,-60.370,33.070
236,52564.210000,255.002,-30.560,3.969,477.465,-284.675,40.803,-466.150,-196.370,11.070
237,52564.251000,245.021,-36.571,15.876,477.530,-280.000,38.966,-347.150,168.630,-46.930
238,52564.291000,263.984,-40.579,0.992,483.411,-276.109,40.068,-11.150,131.630,-266.930
239,52564.331000,307.899,-6.513,-22.822,484.464,-270.421,40.228,191.850,-178.370,-148.930
240,52564.351000,302.908,-8.517,-30.760,485.350,-276.107,39.088,254.850,-148.370,-30.930
241,52564.395000,258.994,-21.542,-6.946,484.440,-272.260,42.144,333.850,82.630,-26.930
242,52564.430000,225.060,-13.526,4.961,485.514,-266.309,52.147,427.850,45.630,-70.930
243,52564.470000,207.096,-11.523,32.744,486.532,-264.141,62.046,546.850,138.630,-225.930
244,52564.514000,224.062,3.507,58.543,489.627,-252.515,71.227,634.850,27.630,-247.930
245,52564.554000,298.916,-18.536,-11.907,491.555,-253.433,71.204,732.850,-328.370,-146.930
246,52564.594000,299.914,-20.540,-67.473,501.332,-248.541,72.340,526.850,-102.370,-301.930
247,52564.633000,280.951,4.509,-55.566,501.468,-239.872,78.483,439.850,-67.370,-367.930
248,52564.653000,259.992,26.552,-32.744,510.449,-222.753,77.991,359.850,-226.370,-326.930
249,52564.693000,231.049,37.573,-21.829,511.538,-214.308,75.277,188.850,-193.370,-246.930
250,52564.730000,213.084,39.577,-9.922,512.518,-213.401,73.337,4.850,-109.370,-190.930
251,52564.775000,223.064,38.575,-9.922,512.480,-215.424,68.362,-208.150,-94.370,-123.930
252,52564.811000,218.074,35.569,-6.946,516.382,-213.583,64.486,-289.150,-75.370,-67.930
253,52564.851000,220.070,42.583,-15.876,516.353,-214.739,56.585,-442.150,-35.370,-9.930
254,52564.896000,212.086,49.597,-18.853,513.409,-216.725,54.557,-581.150,13.630,107.070
255,52564.941000,213.084,22.544,3.969,516.224,-222.541,47.515,-590.150,59.630,368.070
256,52564.951000,281.949,-25.550,23.814,512.286,-225.618,40.537,-453.150,-197.370,257.070
257,52564.999000,368.780,-23.546,-24.806,506.311,-235.341,33.372,-315.150,-42.370,66.070
258,52565.36000,361.793,-36.571,-30.760,511.280,-226.867,29.681,-363.150,-131.370,-155.930
259,52565.75000,305.903,-40.579,-41.674,510.252,-230.689,28.590,46.850,221.630,-119.930
260,52565.118000,232.047,-2.505,-4.961,514.195,-228.322,44.400,291.850,401.630,-41.930
261,52565.153000,203.103,32.564,6.946,510.328,-228.927,59.131,311.850,349.630,56.070
262,52565.194000,195.119,34.568,10.915,508.499,-222.125,67.186,276.850,361.630,134.070
263,52565.223000,230.051,33.566,-12.899,507.498,-224.844,72.026,119.850,132.630,123.070
264,52565.251000,240.031,36.571,-15.876,506.398,-234.209,75.698,84.850,112.630,120.070
265,52565.291000,257.996,39.577,-13.891,507.270,-240.841,74.532,-69.150,-11.370,117.070
266,52565.331000,252.008,18.536,-26.791,498.515,-242.750,78.398,-41.150,12.630,78.070
267,52565.373000,246.020,11.523,-20.837,503.458,-236.141,75.640,-51.150,-31.370,93.070
268,52565.411000,232.047,-2.505,-11.907,499.481,-242.789,76.432,-173.150,50.630,201.070
269,52565.458000,220.070,-4.509,0.000,497.428,-250.408,75.233,-292.150,111.630,278.070
270,52565.495000,220.070,-23.546,12.899,487.625,-256.404,68.164,-315.150,-82.370,427.070
271,52565.515000,252.008,-35.569,46.636,479.671,-269.700,69.748,-241.150,107.630,508.070
272,52565.555000,249.014,-25.550,-2.977,475.739,-272.697,65.724,-471.150,15.630,162.070
273,52565.608000,287.938,-17.534,-15.876,473.833,-269.967,62.846,16.850,75.630,-50.930
274,52565.643000,326.862,-20.540,-37.705,477.560,-280.366,60.596,191.850,-262.370,208.070
275,52565.671000,307.899,-18.536,-39.690,475.646,-277.741,53.780,13.850,-177.370,106.070
276,52565.711000,274.963,-26.552,-1.984,475.499,-288.091,55.459,-31.150,103.630,104.070
277,52565.755000,236.039,-45.589,9.922,476.540,-283.322,56.577,-34.150,-26.370,84.070
278,52565.801000,221.068,-25.550,5.953,475.466,-290.822,59.318,96.850,36.630,25.070
279,52565.816000,216.078,-18.536,19.845,474.615,-283.139,64.448,205.850,118.630,9.070
280,52565.856000,210.090,-24.548,33.736,470.646,-289.682,69.177,239.850,27.630,-47.930
281,52565.895000,237.037,-4.509,33.736,473.688,-281.051,72.373,246.850,-164.370,-34.930
282,52565.935000,268.975,3.507,8.930,472.649,-285.793,72.240,187.850,-75.370,79.070
283,52565.974000,278.955,-11.523,-10.915,473.692,-280.998,74.342,193.850,2.630,159.070
284,52566.35000,278.955,-10.521,-33.736,473.621,-285.753,73.226,-7.150,-26.370,54.070
285,52566.58000,279.953,-5.511,-30.760,476.545,-284.792,72.274,-131.150,-35.370,10.070
286,52566.98000,265.980,-17.534,-9.922,475.527,-287.722,69.240,-134.150,-68.370,-6.930
287,52566.112000,258.994,-13.526,-4.961,475.574,-284.045,65.408,-129.150,-71.370,-18.930
288,52566.153000,240.031,-3.507,10.915,476.427,-291.701,61.262,-138.150,-47.370,62.070
289,52566.191000,217.076,-14.528,19.845,471.624,-288.040,59.389,-259.150,-84.370,129.070
290,52566.231000,220.070,-5.511,29.767,469.518,-298.654,52.204,-469.150,68.630,211.070
291,52566.279000,235.041,-21.542,36.713,464.633,-300.667,50.173,-523.150,169.630,187.070
292,52566.325000,282.947,-2.505,-25.798,462.522,-310.572,34.156,-642.150,-125.370,176.070
293,52566.353000,283.945,-45.589,-46.636,455.709,-310.905,25.283,-329.150,-327.370,357.070
294,52566.378000,278.955,-56.611,-65.488,454.602,-318.826,12.274,-161.150,-420.370,373.070
295,52566.413000,259.992,-54.607,-49.612,446.746,-324.715,8.163,-35.150,-163.370,304.070
296,52566.453000,222.066,-65.628,-28.775,444.697,-332.281,8.932,22.850,-27.370,239.070
297,52566.509000,213.084,-64.626,-17.860,444.544,-342.710,7.658,90.850,-54.370,143.070
298,52566.533000,223.064,-62.622,-15.876,438.863,-333.257,10.862,200.850,-160.370,47.070
299,52566.579000,223.064,-59.616,-11.907,440.760,-336.119,8.819,252.850,-161.370,-6.930
300,52566.614000,219.072,-64.626,-11.907,440.720,-338.929,9.724,212.850,-221.370,-24.930
301,52566.655000,219.072,-63.624,-18.853,441.740,-335.212,6.878,119.850,-203.370,-119.930
302,52566.675000,218.074,-52.603,-10.915,445.699,-329.562,4.091,-61.150,-48.370,-247.930
303,52566.714000,268.975,8.517,7.938,444.789,-324.953,0.284,-95.150,-5.370,-158.930
304,52566.755000,321.871,28.556,-9.922,448.573,-330.783,-7.741,-211.150,-147.370,149.070
305,52566.795000,334.846,-2.505,-39.690,442.737,-331.784,-6.795,-275.150,15.630,191.070
306,52566.835000,298.916,-22.544,-21.829,446.624,-330.915,-11.682,-272.150,75.630,45.070
307,52566.876000,260.990,-24.548,-13.891,448.522,-333.751,-12.742,-242.150,150.630,-113.930
308,52566.915000,232.047,-42.583,-9.922,445.694,-328.092,-11.605,-189.150,158.630,-143.930
309,52566.955000,226.058,-59.616,-21.829,449.547,-329.955,-12.634,-56.150,105.630,-141.930
310,52566.975000,236.039,-62.622,-32.744,450.681,-319.381,-6.437,97.850,112.630,-119.930
311,52567.16000,240.031,-67.632,-33.736,451.536,-327.773,-2.734,130.850,141.630,-127.930
312,52567.56000,251.010,-64.626,-35.721,453.598,-320.049,2.402,127.850,193.630,-67.930
313,52567.97000,247.018,-66.630,-32.744,456.463,-323.685,6.240,147.850,186.630,-24.930
314,52567.134000,245.021,-66.630,-22.822,453.669,-316.817,17.246,168.850,168.630,-8.930
315,52567.173000,245.021,-56.611,-25.798,460.446,-318.480,22.129,209.850,170.630,-60.930
316,52567.217000,232.047,-42.583,-12.899,457.527,-320.149,31.914,268.850,257.630,-134.930
317,52567.253000,225.060,-36.571,-9.922,463.422,-316.074,39.906,425.850,163.630,-233.930
318,52567.273000,231.049,-10.521,-1.984,464.666,-298.696,53.179,430.850,70.630,-320.930
319,52567.314000,250.012,-5.511,6.946,468.588,-295.831,52.281,510.850,-79.370,-415.930
320,52567.355000,265.980,6.513,33.736,477.450,-287.931,60.385,670.850,-147.370,-214.930
321,52567.395000,264.982,-1.503,-56.558,478.496,-283.111,63.472,477.850,-185.370,66.070
322,52567.435000,281.949,2.505,-19.845,476.582,-282.008,70.384,181.850,103.630,20.070
323,52567.475000,284.943,-4.509,-28.775,478.478,-284.870,68.341,56.850,-13.370,24.070
324,52567.519000,263.984,-12.524,-16.868,480.382,-287.627,70.234,19.850,53.630,-40.930
325,52567.554000,240.031,4.509,-6.946,478.559,-279.984,74.378,-71.150,65.630,-112.930
326,52567.574000,231.049,2.505,-8.930,482.381,-283.791,71.328,-196.150,19.630,-72.930
327,52567.614000,238.035,-1.503,-2.977,482.416,-281.033,68.454,-326.150,22.630,-17.930
328,52567.654000,243.025,-9.519,0.992,483.367,-282.043,65.477,-352.150,-22.370,12.070
329,52567.694000,238.035,-9.519,6.946,481.437,-280.390,57.651,-361.150,-71.370,46.070
330,52567.739000,244.023,-12.524,-0.992,476.467,-287.342,47.613,-402.150,-165.370,84.070
331,52567.774000,253.006,-22.544,3.969,477.453,-285.595,41.761,-427.150,-94.370,107.070
332,52567.812000,256.998,-32.564,-0.992,472.462,-294.358,34.624,-410.150,0.630,-14.930
333,52567.858000,273.965,-37.573,-13.891,480.359,-284.871,31.950,-231.150,52.630,-109.930
334,52567.873000,284.943,-28.556,-29.767,476.427,-287.868,27.926,-24.150,-32.370,-52.930
335,52567.914000,283.945,-25.550,-34.729,480.327,-286.815,29.929,31.850,-29.370,16.070
336,52567.954000,264.982,-35.569,-12.899,477.303,-294.448,28.728,10.850,69.630,13.070
337,52567.994000,246.020,-37.573,-10.915,478.422,-284.846,33.915,63.850,72.630,-55.930
338,52568.38000,238.035,-33.566,-4.961,484.206,-287.574,34.832,212.850,57.630,-66.930
339,52568.78000,240.031,-24.548,-1.984,482.417,-277.961,41.982,379.850,49.630,-64.930
340,52568.118000,243.025,-8.517,0.000,484.339,-280.481,52.735,476.850,96.630,-133.930
341,52568.138000,246.020,-9.519,8.930,480.572,-272.892,55.890,565.850,-75.370,-210.930
342,52568.178000,277.957,14.528,18.853,489.379,-268.775,63.889,401.850,-69.370,-364.930
343,52568.219000,273.965,-7.515,26.791,491.389,-264.019,64.024,537.850,-96.370,-309.930
344,52568.255000,269.973,-49.597,-51.597,497.463,-247.650,72.359,718.850,-194.370,-347.930
345,52568.296000,263.984,-3.507,-39.690,501.470,-239.846,79.468,552.850,33.630,-393.930
346,52568.339000,238.035,-0.501,-36.713,507.514,-224.633,79.901,394.850,-103.370,-433.930
347,52568.378000,234.043,14.528,-35.721,513.493,-214.096,82.172,306.850,-225.370,-340.930
348,52568.418000,238.035,36.571,-26.791,520.399,-205.647,76.516,121.850,-189.370,-305.930
349,52568.435000,236.039,43.585,-16.868,521.429,-201.037,71.728,-59.150,-161.370,-234.930
350,52568.475000,242.027,40.579,-17.860,521.397,-202.981,69.707,-184.150,-181.370,-189.930
351,52568.515000,248.016,42.583,-18.853,521.395,-202.246,61.859,-175.150,-159.370,-162.930
352,52568.555000,244.023,35.569,-18.853,523.355,-200.432,57.978,-160.150,-178.370,-92.930
353,52568.595000,237.037,51.601,-19.845,526.354,-193.903,53.247,-164.150,-88.370,-10.930
354,52568.636000,240.031,55.609,-7.938,528.234,-197.737,50.192,-194.150,-57.370,217.070
355,52568.676000,228.055,27.554,6.946,522.198,-212.083,46.832,-220.150,-76.370,408.070
356,52568.718000,266.979,-12.524,-9.922,519.242,-214.226,38.899,-157.150,-154.370,378.070
357,52568.737000,293.926,-22.544,-26.791,511.264,-228.600,35.535,-194.150,-79.370,165.070
358,52568.799000,293.926,-36.571,-17.860,513.359,-218.144,36.813,-122.150,59.630,-104.930
359,52568.816000,290.932,-23.546,-32.744,516.259,-218.261,30.913,-7.150,57.630,-226.930
360,52568.857000,262.986,3.507,-34.729,521.227,-211.336,39.966,70.850,262.630,-71.930
361,52568.896000,241.029,30.560,-19.845,519.250,-214.882,49.700,62.850,384.630,54.070
362,52568.936000,230.051,37.573,-0.992,517.345,-213.675,60.550,-3.150,244.630,118.070
363,52568.976000,240.031,28.556,-10.915,519.171,-222.053,64.255,-8.150,181.630,96.070
364,52569.16000,246.020,44.587,-25.798,515.274,-223.053,64.220,-48.150,202.630,48.070
365,52569.35000,246.020,39.577,-19.845,513.296,-225.865,66.106,-99.150,137.630,112.070
366,52569.77000,251.010,33.566,-20.837,510.425,-223.069,66.179,-197.150,123.630,122.070
367,52569.119000,248.016,12.524,-17.860,507.505,-223.977,69.100,-153.150,102.630,133.070
368,52569.156000,253.006,6.513,-14.884,504.511,-229.692,68.936,-185.150,89.630,163.070
369,52569.195000,248.016,-3.507,-10.915,499.563,-236.354,69.726,-228.150,80.630,158.070
370,52569.237000,242.027,-4.509,-4.961,496.459,-249.634,69.351,-223.150,28.630,195.070
371,52569.277000,239.033,-4.509,-2.977,497.470,-246.022,62.568,-195.150,-25.370,265.070
372,52569.317000,233.045,-9.519,-10.915,496.358,-255.545,60.334,-118.150,-130.370,330.070
373,52569.338000,249.014,-14.528,5.953,490.454,-260.514,54.284,-49.150,-198.370,365.070
374,52569.379000,270.971,4.509,-2.977,483.531,-268.412,45.200,-329.150,-143.370,337.070
375,52569.415000,256.998,-11.523,-19.845,486.360,-274.044,45.048,-416.150,132.630,92.070
376,52569.472000,256.000,-40.579,-3.969,482.466,-275.019,45.998,-125.150,273.630,-166.930
377,52569.497000,298.916,-29.558,-27.783,486.429,-269.316,45.180,103.850,-184.370,11.070
378,52569.540000,275.961,-17.534,-27.783,481.507,-274.113,45.038,142.850,60.630,63.070
379,52569.581000,245.021,-6.513,-6.946,479.534,-276.846,49.877,63.850,26.630,157.070
380,52569.655000,226.058,-22.544,-6.946,479.438,-283.465,49.693,124.850,-47.370,127.070
381,52569.683000,240.031,-13.526,-0.992,474.603,-282.536,51.678,239.850,-135.370,43.070
382,52569.699000,265.980,3.507,4.961,478.487,-282.454,52.670,174.850,-125.370,65.070
383,52569.721000,269.973,-1.503,2.977,480.446,-280.667,47.805,20.850,-117.370,150.070
384,52569.760000,268.975,-22.544,-8.930,474.583,-283.560,48.698,-98.150,-26.370,127.070
385,52569.824000,246.020,-29.558,-3.969,476.495,-285.451,47.665,-14.150,46.630,56.070
386,52569.916000,248.016,-22.544,-2.977,475.497,-287.356,47.611,80.850,-40.370,85.070
387,52569.949000,253.006,-11.523,-11.907,473.559,-287.330,49.575,34.850,-56.370,127.070
388,52569.990000,256.998,-3.507,-14.884,467.576,-297.920,45.336,-132.150,34.630,192.070
389,52569.997000,256.000,-18.536,-13.891,466.601,-297.987,43.366,-314.150,-28.370,282.070
390,52570.12000,253.006,-28.556,-21.829,462.553,-308.628,36.178,-346.150,-7.370,285.070
391,52570.39000,252.008,-33.566,-22.822,452.701,-318.327,31.957,-308.150,-27.370,316.070
392,52570.90000,250.012,-38.575,-32.744,450.718,-320.430,25.010,-282.150,-166.370,345.070
393,52570.126000,246.020,-45.589,-30.760,447.641,-331.057,17.824,-284.150,-115.370,324.070
394,52570.194000,245.021,-53.605,-28.775,443.638,-338.809,12.683,-229.150,-95.370,310.070
395,52570.218000,245.021,-56.611,-29.767,434.849,-341.928,6.680,-223.150,-75.370,281.070
396,52570.246000,240.031,-59.616,-23.814,433.800,-346.801,1.625,-218.150,-47.370,233.070
397,52570.271000,233.045,-64.626,-23.814,431.779,-351.689,-3.433,-244.150,-55.370,182.070
398,52570.310000,228.055,-65.628,-25.798,428.916,-348.026,-6.286,-181.150,-50.370,88.070
399,52570.335000,226.058,-67.632,-28.775,426.020,-347.096,-5.282,-103.150,-1.370,-68.930
400,52570.371000,222.066,-71.640,-12.899,434.799,-343.347,-11.064,-134.150,-12.370,-243.930
401,52570.420000,245.021,-29.558,-7.938,435.864,-336.740,-11.862,-104.150,-93.370,-285.930
402,52570.444000,317.879,10.521,-11.907,437.687,-344.383,-16.006,-18.150,-71.370,86.070
403,52570.500000,320.873,-11.523,-28.775,433.818,-343.493,-15.988,-74.150,16.630,317.070
404,52570.521000,278.955,-40.579,-7.938,432.773,-349.075,-12.211,-147.150,314.630,189.070
405,52570.552000,249.014,-62.622,-11.907,427.906,-350.089,-12.247,-183.150,301.630,82.070
406,52570.582000,230.051,-76.650,-14.884,426.906,-352.782,-6.422,-21.150,231.630,-4.930
407,52570.638000,232.047,-82.661,-11.907,424.020,-351.720,-0.496,177.850,217.630,12.070
408,52570.683000,233.045,-70.638,-14.884,425.064,-347.686,8.471,217.850,255.630,6.070
409,52570.731000,225.060,-80.658,-26.791,424.003,-355.002,18.101,281.850,321.630,7.070
410,52570.780000,215.080,-80.658,-12.899,427.912,-354.605,30.906,305.850,278.630,-65.930
411,52570.803000,230.051,-55.609,-0.992,431.876,-349.664,36.952,266.850,129.630,-127.930
412,52570.817000,243.025,-52.603,-16.868,433.829,-349.478,42.862,247.850,41.630,-162.930
413,52570.845000,253.006,-57.613,-10.915,434.928,-340.901,45.070,261.850,37.630,-199.930
414,52570.882000,255.002,-45.589,-0.992,441.831,-334.027,51.174,313.850,12.630,-231.930
415,52570.925000,251.010,-40.579,-9.922,444.743,-334.747,58.044,364.850,43.630,-211.930
416,52570.962000,240.031,-27.554,3.969,449.803,-321.256,65.313,437.850,-16.370,-261.930
417,52571.3000,234.043,-19.538,10.915,456.690,-315.354,70.407,490.850,-30.370,-331.930
418,52571.44000,242.027,-7.515,37.705,460.705,-307.444,81.453,516.850,66.630,-325.930
419,52571.93000,267.977,10.521,56.558,460.758,-304.449,87.438,366.850,-28.370,-75.930
420,52571.103000,293.926,-1.503,-40.682,460.825,-299.748,86.586,107.850,-100.370,64.070
421,52571.160000,257.996,-21.542,-14.884,458.789,-306.368,87.382,-170.150,47.630,-112.930
422,52571.185000,267.977,-25.550,-20.837,461.844,-296.030,83.740,-247.150,-38.370,-123.930
423,52571.222000,248.016,-15.530,0.992,466.615,-300.874,76.728,-281.150,-40.370,-184.930
424,52571.265000,233.045,-4.509,-0.992,465.780,-291.458,76.005,-304.150,-29.370,-111.930
425,52571.302000,220.070,-8.517,1.984,467.669,-293.637,64.144,-406.150,-101.370,9.070
426,52571.358000,217.076,-3.507,6.946,464.684,-297.698,55.174,-630.150,-120.370,131.070
427,52571.383000,247.018,-45.589,38.698,463.619,-302.782,42.244,-683.150,-8.370,127.070
428,52571.410000,256.000,-72.642,24.806,464.605,-301.035,36.392,-437.150,-64.370,-234.930
429,52571.441000,298.916,-35.569,-14.884,467.591,-295.425,32.619,-141.150,-141.370,-237.930
430,52571.484000,311.891,-41.581,-22.822,468.522,-297.461,26.662,22.850,-162.370,-81.930
431,52571.522000,291.930,-27.554,-10.915,472.495,-290.866,23.901,110.850,-120.370,-19.930
432,52571.563000,273.965,-17.534,-6.946,470.550,-291.707,28.793,130.850,-19.370,-55.930
433,52571.605000,240.031,-24.548,0.000,475.409,-291.559,31.756,267.850,171.630,-198.930
434,52571.647000,210.090,-26.552,27.783,478.398,-287.446,42.695,477.850,202.630,-292.930
435,52571.683000,203.103,-24.548,39.690,481.537,-272.957,52.939,635.850,153.630,-391.930
436,52571.702000,225.060,9.519,46.636,489.438,-264.940,65.963,640.850,123.630,-295.930
437,52571.745000,279.953,-66.630,-32.744,489.582,-255.404,69.179,990.850,-387.370,-272.930
438,52571.783000,283.945,-12.524,-44.651,496.477,-249.397,78.210,916.850,-157.370,-451.930
439,52571.827000,277.957,10.521,-49.612,503.580,-228.418,81.756,772.850,-231.370,-434.930
440,52571.863000,258.994,16.532,-39.690,506.608,-220.733,84.926,632.850,-202.370,-385.930
441,52571.908000,240.031,43.585,-23.814,516.397,-214.922,85.104,407.850,-129.370,-329.930
442,52571.945000,230.051,41.581,-16.868,518.453,-207.276,87.288,254.850,-166.370,-225.930
443,52571.991000,238.035,35.569,-18.853,521.441,-201.640,84.499,116.850,-184.370,-204.930
444,52572.8000,245.021,38.575,-19.845,524.435,-195.164,77.798,56.850,-204.370,-178.930
445,52572.45000,249.014,53.605,-25.798,524.512,-189.569,75.003,1.850,-111.370,-168.930
446,52572.82000,247.018,62.622,-24.806,526.439,-190.487,74.981,-78.150,-42.370,-121.930
447,52572.125000,235.041,55.609,-20.837,527.510,-183.040,70.272,-133.150,-103.370,-99.930
448,52572.200000,240.031,49.597,-18.853,525.462,-189.819,65.162,-163.150,-93.370,-68.930
449,52572.232000,244.023,50.599,-17.860,527.500,-183.172,65.350,-160.150,-100.370,-24.930
450,52572.258000,235.041,57.613,-23.814,530.374,-185.153,60.382,-161.150,-45.370,68.070
451,52572.313000,204.101,53.605,-16.868,524.436,-192.854,58.191,-222.150,72.630,246.070
452,52572.365000,241.029,11.523,-9.922,519.398,-205.295,54.885,-277.150,-175.370,427.070
453,52572.432000,322.869,-55.609,-30.760,514.534,-204.734,43.089,-457.150,-205.370,317.070
454,52572.462000,322.869,-53.605,2.977,512.475,-212.431,38.937,-352.150,-49.370,44.070
455,52572.517000,306.901,-42.583,-36.713,510.502,-213.641,30.048,-171.150,-207.370,-8.930
456,52572.560000,287.938,-32.564,-39.690,512.463,-212.589,33.031,-30.150,173.630,39.070
457,52572.605000,257.996,-4.509,-18.853,515.426,-209.580,38.038,-161.150,282.630,54.070
458,52572.660000,235.041,22.544,-8.930,511.402,-219.905,42.662,-252.150,355.630,76.070
459,52572.685000,233.045,27.554,-4.961,511.436,-217.935,45.668,-257.150,327.630,138.070
460,52572.717000,238.035,29.558,-14.884,507.467,-224.477,50.397,-183.150,333.630,201.070
461,52572.735000,243.025,29.558,-13.891,507.279,-238.425,58.861,-84.150,279.630,198.070
462,52572.760000,255.002,37.573,-13.891,505.442,-231.728,62.979,-33.150,176.630,153.070
463,52572.797000,254.004,30.560,-23.814,499.485,-241.214,64.672,-71.150,82.630,140.070
464,52572.826000,236.039,22.544,-25.798,502.452,-237.390,64.784,-63.150,90.630,133.070
465,52572.865000,235.041,7.515,-14.884,496.549,-243.094,66.582,21.850,106.630,177.070
466,52572.898000,232.047,-5.511,-16.868,494.547,-247.744,70.384,-16.150,59.630,271.070
467,52572.922000,226.058,-10.521,-12.899,489.598,-254.432,70.190,-67.150,4.630,351.070
468,52572.953000,218.074,-18.536,-8.930,485.597,-262.158,66.034,-165.150,-116.370,575.070
469,52573.5000,231.049,-30.560,6.946,472.670,-283.219,62.475,-216.150,-7.370,710.070
470,52573.61000,261.988,-61.620,53.581,468.580,-295.936,48.344,-450.150,-281.370,94.070
471,52573.73000,305.903,-39.577,-83.349,469.667,-287.517,44.646,92.850,-192.370,-184.930
472,52573.111000,286.940,-29.558,1.984,469.665,-289.066,57.389,651.850,258.630,162.070
473,52573.136000,301.910,-21.542,-63.504,461.875,-291.041,58.305,406.850,-267.370,205.070
474,52573.165000,266.979,-34.568,-4.961,464.783,-291.814,63.206,145.850,32.630,130.070
475,52573.202000,235.041,-41.581,9.922,462.720,-300.326,63.950,69.850,-153.370,106.070
476,52573.233000,237.037,-39.577,-12.899,465.696,-295.609,62.119,75.850,-100.370,41.070
477,52573.260000,234.043,-43.585,1.984,462.747,-298.434,64.003,180.850,86.630,-4.930
478,52573.295000,235.041,-34.568,14.884,465.744,-293.454,72.015,315.850,120.630,-32.930
479,52573.315000,251.010,-28.556,16.868,461.862,-294.271,78.871,341.850,32.630,-60.930
480,52573.363000,258.994,-7.515,27.783,465.766,-293.165,82.843,175.850,-14.370,-48.930
481,52573.401000,257.996,-0.501,12.899,469.621,-295.001,82.798,323.850,-78.370,29.070
482,52573.433000,258.994,-11.523,-19.845,463.747,-299.575,91.513,326.850,140.630,106.070
483,52573.476000,260.990,12.524,-27.783,468.671,-294.751,92.640,-51.150,155.630,45.070
484,52573.521000,266.979,-2.505,-25.798,464.851,-290.157,89.810,-265.150,24.630,-50.930
485,52573.556000,267.977,-23.546,-23.814,466.792,-289.368,82.950,-258.150,-69.370,-41.930
486,52573.601000,256.998,-12.524,-20.837,462.909,-289.423,82.942,-204.150,-53.370,-41.930
487,52573.618000,237.037,-3.507,-10.915,463.780,-296.082,80.791,-247.150,-27.370,-22.930
488,52573.661000,228.055,-2.505,-2.977,464.815,-290.631,72.092,-345.150,-36.370,8.070
489,52573.698000,230.051,-12.524,10.915,460.753,-302.218,64.878,-446.150,-1.370,75.070
490,52573.741000,237.037,-26.552,9.922,463.708,-298.552,59.083,-512.150,-137.370,160.070
491,52573.796000,247.018,-38.575,0.000,462.599,-306.500,45.089,-506.150,-228.370,213.070
492,52573.827000,263.984,-40.579,1.984,452.811,-310.762,32.167,-494.150,-242.370,290.070
493,52573.867000,279.953,-47.593,-2.977,452.614,-323.292,22.966,-530.150,-145.370,336.070
494,52573.940000,282.947,-31.562,-2.977,447.647,-330.217,13.913,-629.150,-49.370,358.070
495,52573.952000,273.965,-28.556,-24.806,439.820,-333.427,3.974,-688.150,270.630,443.070
496,52574.0,256.000,-49.597,-16.868,430.807,-352.490,2.445,-673.150,414.630,389.070
497,52574.35000,247.018,-56.611,-14.884,426.962,-349.761,0.547,-350.150,278.630,338.070
498,52574.61000,234.043,-71.640,-28.775,419.039,-360.352,-2.711,-150.150,53.630,368.070
499,52574.110000,243.025,-53.605,-40.682,418.043,-362.230,-1.782,-119.150,-170.370,303.070
500,52574.141000,240.031,-65.628,-35.721,411.093,-372.781,-4.054,120.850,-35.370,300.070
501,52574.165000,232.047,-84.665,-26.791,405.238,-375.569,0.777,118.850,-81.370,252.070
502,52574.205000,229.053,-80.658,-26.791,399.383,-377.595,-1.257,70.850,-115.370,157.070
503,52574.218000,232.047,-80.658,-24.806,400.363,-376.689,-3.197,58.850,-104.370,112.070
504,52574.261000,233.045,-85.667,-18.853,399.229,-388.024,-2.531,91.850,-102.370,79.070
505,52574.298000,232.047,-85.667,-23.814,398.412,-377.609,-1.259,190.850,-129.370,58.070
506,52574.341000,236.039,-88.673,-21.829,397.308,-387.027,0.444,199.850,-19.370,36.070
507,52574.397000,239.033,-76.650,-17.860,395.494,-378.491,2.646,87.850,30.630,19.070
508,52574.422000,245.021,-85.667,-9.922,392.476,-386.044,4.398,50.850,-86.370,80.070
509,52574.466000,250.012,-96.689,-12.899,396.359,-385.989,4.406,180.850,-59.370,145.070
510,52574.501000,253.006,-99.695,-13.891,390.398,-396.290,10.995,231.850,59.630,106.070
511,52574.525000,242.027,-92.681,-12.899,391.500,-387.660,15.171,281.850,126.630,48.070
512,52574.556000,229.053,-84.665,-9.922,396.287,-393.054,22.898,256.850,198.630,-16.930
513,52574.601000,229.053,-78.654,-18.853,393.407,-391.913,31.777,232.850,252.630,-88.930
514,52574.637000,223.064,-80.658,-12.899,400.220,-391.580,40.651,215.850,310.630,-178.930
515,52574.686000,224.062,-81.659,-9.922,405.292,-377.930,53.826,268.850,197.630,-283.930
516,52574.721000,237.037,-61.620,0.992,407.200,-380.634,57.688,358.850,132.630,-341.930
517,52574.788000,241.029,-54.607,8.930,412.244,-368.114,63.947,405.850,22.630,-367.930
518,52574.823000,256.000,-33.566,28.775,423.985,-362.144,69.050,323.850,-100.370,-342.930
519,52574.841000,264.982,-45.589,10.915,430.023,-347.771,73.395,365.850,-200.370,-291.930
520,52574.873000,265.980,-47.593,15.876,433.966,-343.855,76.461,395.850,-75.370,-286.930
521,52574.897000,254.004,-20.540,18.853,439.887,-337.914,83.522,378.850,66.630,-340.930
522,52574.941000,247.018,10.521,12.899,446.712,-336.662,91.437,342.850,126.630,-326.930
523,52574.976000,248.016,11.523,17.860,450.858,-319.375,99.794,343.850,53.630,-245.930
524,52575.21000,261.988,6.513,-2.977,457.727,-314.471,102.892,104.850,-89.370,-228.930
525,52575.57000,269.973,13.526,-8.930,453.817,-315.656,95.968,-67.150,-80.370,-236.930
526,52575.115000,262.986,6.513,1.984,457.787,-309.087,92.222,-165.150,-59.370,-153.930
527,52575.126000,247.018,8.517,10.915,457.852,-304.412,90.385,-233.150,14.630,-110.930
528,52575.163000,221.068,8.517,18.853,458.760,-308.286,86.345,-283.150,102.630,-39.930
529,52575.202000,218.074,1.503,21.829,457.732,-312.108,85.253,-524.150,257.630,-24.930
530,52575.247000,216.078,-53.605,47.628,464.619,-305.445,83.483,-576.150,346.630,-248.930
531,52575.280000,273.965,-72.642,1.984,464.636,-302.924,71.750,-513.150,-178.370,-335.930
532,52575.322000,304.904,-56.611,-22.822,465.648,-299.312,64.967,-214.150,-144.370,-121.930
533,52575.360000,314.885,-69.636,-57.550,467.489,-305.957,62.818,15.850,-148.370,61.070
534,52575.377000,263.984,-76.650,-16.868,466.475,-308.834,61.752,-72.150,-9.370,157.070
535,52575.421000,220.070,-57.613,2.977,461.602,-309.927,58.763,-93.150,2.630,147.070
536,52575.463000,215.080,-35.569,12.899,458.701,-309.049,57.799,-116.150,-4.370,118.070
537,52575.506000,222.066,-27.554,17.860,455.723,-313.792,58.645,-105.150,52.630,58.070
538,52575.540000,225.060,-32.564,9.922,458.676,-310.914,58.730,-44.150,-38.370,-17.930
539,52575.582000,248.016,-42.583,-0.992,459.526,-318.597,53.600,85.850,-72.370,-164.930
540,52575.625000,282.947,-12.524,13.891,464.592,-304.265,56.958,147.850,-75.370,-215.930
541,52575.662000,281.949,-14.528,16.868,465.551,-305.170,57.918,233.850,-144.370,-62.930
542,52575.674000,244.023,-44.587,-19.845,466.630,-298.379,64.011,221.850,178.630,-20.930
543,52575.715000,255.002,-19.538,-4.961,464.559,-307.758,67.681,123.850,96.630,6.070
544,52575.763000,278.955,-34.568,-17.860,467.603,-298.339,64.997,31.850,-143.370,-7.930
545,52575.790000,273.965,-16.532,-13.891,467.575,-300.230,64.944,11.850,-68.370,-102.930
546,52575.831000,252.008,-3.507,-8.930,465.620,-301.204,64.914,-17.150,-17.370,-98.930
547,52575.871000,226.058,-11.523,-1.984,468.498,-303.133,61.914,-132.150,-59.370,-68.930
548,52575.926000,220.070,-7.515,2.977,469.569,-295.685,57.205,-205.150,-23.370,-25.930
549,52575.954000,235.041,-20.540,17.860,469.483,-301.412,55.079,-277.150,47.630,80.070
550,52575.974000,258.994,-48.595,16.868,470.453,-300.637,48.216,-149.150,-114.370,-69.930
551,52576.22000,288.936,-45.589,12.899,470.541,-294.123,44.463,127.850,-181.370,-231.930
552,52576.64000,292.928,-31.562,5.953,478.446,-285.291,52.591,498.850,-184.370,-237.930
553,52576.97000,281.949,-21.542,13.891,482.341,-285.078,58.505,630.850,-36.370,-268.930
554,52576.137000,256.998,-6.513,21.829,485.479,-270.589,68.750,708.850,69.630,-292.930
555,52576.175000,243.025,-1.503,21.829,486.613,-260.016,74.947,758.850,1.630,-321.930
556,52576.215000,231.049,-33.566,4.961,492.548,-253.891,88.898,944.850,-95.370,-380.930
557,52576.256000,234.043,-4.509,-12.899,499.612,-235.722,93.350,944.850,-158.370,-399.930
558,52576.276000,256.998,-6.513,-26.791,504.676,-222.178,102.588,913.850,-215.370,-374.930
559,52576.315000,265.980,-0.501,-48.620,512.553,-214.476,103.799,631.850,-239.370,-367.930
560,52576.355000,246.020,-0.501,-39.690,512.610,-210.668,104.888,547.850,-123.370,-341.930
561,52576.391000,253.006,20.540,-37.705,517.640,-198.332,104.256,449.850,-137.370,-237.930
562,52576.457000,246.020,32.564,-36.713,518.715,-191.593,108.380,368.850,-158.370,-136.930
563,52576.481000,242.027,39.577,-31.752,522.727,-182.187,104.714,242.850,-156.370,-88.930
564,52576.512000,238.035,47.593,-35.721,520.756,-184.133,103.673,41.850,-164.370,-68.930
565,52576.554000,233.045,53.605,-23.814,524.670,-181.372,98.838,-75.150,-159.370,-47.930
566,52576.576000,235.041,45.589,-32.744,519.702,-188.297,89.785,-232.150,-215.370,24.070
567,52576.614000,232.047,48.595,-33.736,522.588,-189.360,83.858,-312.150,-176.370,126.070
568,52576.665000,232.047,39.577,-20.837,518.513,-201.892,76.618,-399.150,-159.370,319.070
569,52576.692000,256.998,-10.521,-2.977,519.423,-205.740,73.561,-278.150,-81.370,267.070
570,52576.736000,295.922,-11.523,-13.891,517.361,-213.464,68.425,-470.150,-37.370,139.070
571,52576.772000,327.860,-45.589,-24.806,513.490,-211.839,60.595,-414.150,1.630,-12.930
572,52576.815000,299.914,-35.569,-23.814,516.335,-216.499,61.454,-162.150,150.630,-9.930
573,52576.835000,264.982,-4.509,-25.798,515.375,-216.381,66.373,-45.150,237.630,51.070
574,52576.876000,230.051,31.562,-24.806,513.477,-214.307,74.297,-87.150,469.630,79.070
575,52576.912000,212.086,44.587,-1.984,510.589,-214.032,86.103,-108.150,468.630,123.070
576,52576.970000,238.035,30.560,-15.876,506.524,-227.194,90.648,-163.150,213.630,180.070
577,52576.992000,252.008,28.556,-20.837,506.567,-224.331,91.711,-167.150,184.630,135.070
578,52577.32000,253.006,42.583,-20.837,502.649,-227.144,94.577,-218.150,158.630,108.070
579,52577.72000,246.020,27.554,-26.791,501.622,-230.967,93.486,-222.150,168.630,95.070
580,52577.112000,250.012,17.534,-21.829,498.572,-240.464,93.216,-229.150,75.630,134.070
581,52577.132000,244.023,4.509,-14.884,495.694,-238.535,96.216,-235.150,174.630,239.070
582,52577.171000,233.045,0.501,-7.938,493.607,-248.124,92.011,-365.150,158.630,314.070
583,52577.227000,215.080,-16.532,-0.992,484.738,-257.652,93.699,-441.150,101.630,431.070
584,52577.252000,227.057,-38.575,19.845,475.738,-275.008,85.332,-492.150,64.630,610.070
585,52577.292000,248.016,-59.616,68.465,467.747,-290.327,81.941,-609.150,43.630,508.070
586,52577.340000,264.982,-50.599,-63.504,470.707,-285.059,65.372,-381.150,-276.370,-133.930
587,52577.374000,291.930,-22.544,-14.884,466.744,-291.523,73.054,147.850,556.630,94.070
588,52577.424000,289.934,-50.599,-7.938,462.888,-290.474,78.978,179.850,-0.370,304.070
589,52577.451000,313.887,-44.587,-38.698,460.828,-298.172,74.826,-117.150,20.630,71.070
590,52577.474000,266.979,-36.571,2.977,461.783,-299.130,73.818,-49.150,-62.370,83.070
591,52577.512000,230.051,-29.558,-2.977,465.565,-305.748,71.673,-18.150,-32.370,74.070
592,52577.554000,225.060,-36.571,1.984,461.767,-300.102,72.807,-36.150,63.630,30.070
593,52577.599000,217.076,-29.558,26.791,461.797,-298.185,73.844,45.850,109.630,-8.930
594,52577.634000,237.037,-29.558,19.845,459.891,-296.216,77.830,240.850,4.630,-102.930
595,52577.674000,257.996,-20.540,33.736,466.656,-298.798,83.671,361.850,12.630,-91.930
596,52577.722000,273.965,-8.517,34.729,462.910,-290.185,89.806,455.850,42.630,76.070
597,52577.744000,272.967,-23.546,-13.891,457.023,-295.678,99.479,471.850,-20.370,221.070
598,52577.774000,262.986,-7.515,-12.899,461.900,-294.532,104.438,283.850,88.630,79.070
599,52577.814000,263.984,-2.505,-31.752,462.735,-303.187,98.297,-187.150,-91.370,-34.930
600,52577.854000,257.996,-4.509,-19.845,464.781,-295.673,95.558,-292.150,21.630,-78.930
601,52577.897000,244.023,-5.511,-0.992,463.717,-301.492,90.477,-301.150,27.630,-50.930
602,52577.935000,238.035,-4.509,-3.969,463.686,-303.436,88.455,-374.150,76.630,9.070
603,52577.976000,233.045,-12.524,2.977,461.813,-297.974,81.719,-499.150,52.630,42.070
604,52578.17000,243.025,-21.542,4.961,459.822,-300.944,77.698,-592.150,27.630,81.070
605,52578.37000,248.016,-20.540,4.961,460.686,-306.920,65.730,-646.150,21.630,115.070
606,52578.75000,246.020,-24.548,-0.992,454.758,-312.966,54.732,-743.150,-57.370,165.070
607,52578.115000,239.033,-38.575,1.984,451.751,-318.077,41.798,-781.150,-33.370,236.070
608,52578.157000,251.010,-45.589,25.798,446.752,-326.946,30.723,-812.150,-35.370,295.070
609,52578.202000,262.986,-44.587,25.798,445.690,-331.217,12.898,-892.150,-10.370,184.070
610,52578.235000,256.000,-7.515,-25.798,438.843,-333.520,1.019,-1037.150,34.630,183.070
611,52578.284000,254.004,-62.622,-17.860,437.778,-339.365,-5.047,-703.150,321.630,230.070
612,52578.319000,262.986,-80.658,-19.845,430.867,-346.344,-15.089,-381.150,-168.370,287.070
613,52578.334000,288.936,-33.566,-56.558,430.863,-346.397,-17.058,245.850,-233.370,331.070
614,52578.374000,253.006,-71.640,-30.760,419.058,-357.804,-13.460,172.850,-23.370,337.070
615,52578.414000,234.043,-82.661,-30.760,412.274,-357.769,-8.553,203.850,17.630,290.070
616,52578.465000,214.082,-74.646,-8.930,412.136,-367.225,-8.816,69.850,-115.370,126.070
617,52578.497000,227.057,-74.646,-5.953,413.022,-372.912,-9.956,28.850,-120.370,41.070
618,52578.532000,221.068,-72.642,-3.969,407.220,-371.182,-12.869,-22.150,-103.370,0.070
619,52578.574000,229.053,-77.652,-14.884,412.165,-364.546,-14.643,-45.150,-166.370,-33.930
620,52578.620000,244.023,-72.642,-13.891,415.034,-367.368,-15.700,25.850,-73.370,-107.930
621,52578.647000,263.984,-60.618,10.915,416.154,-356.979,-16.393,48.850,-33.370,-136.930
622,52578.689000,284.943,-49.597,-2.977,417.024,-363.637,-18.544,39.850,-97.370,85.070
623,52578.717000,269.973,-64.626,-2.977,411.216,-362.748,-17.545,166.850,-28.370,240.070
624,52578.757000,263.984,-67.632,-7.938,407.249,-369.264,-11.832,161.850,107.630,154.070
625,52578.797000,244.023,-75.648,-3.969,408.307,-364.285,-2.839,239.850,205.630,-11.930
626,52578.836000,245.021,-67.632,-5.953,412.129,-369.615,7.839,314.850,271.630,-70.930
627,52578.876000,247.018,-70.638,-1.984,411.279,-362.693,19.833,373.850,284.630,-64.930
628,52578.897000,248.016,-73.644,-4.961,413.150,-368.943,32.450,408.850,230.630,-58.930
629,52578.945000,239.033,-77.652,2.977,414.245,-361.180,39.553,472.850,191.630,-62.930
630,52578.979000,235.041,-75.648,1.984,418.138,-361.754,51.346,531.850,141.630,-52.930
631,52579.25000,233.045,-63.624,4.961,419.186,-357.668,62.282,455.850,126.630,-104.930
632,52579.57000,224.062,-45.589,7.938,422.106,-358.283,73.089,432.850,103.630,-202.930
633,52579.100000,218.074,-48.595,15.876,421.303,-347.684,81.251,617.850,39.630,-315.930
634,52579.140000,227.057,-17.534,21.829,433.154,-334.910,93.430,750.850,-14.370,-526.930
635,52579.180000,236.039,-13.526,90.295,439.255,-317.412,108.681,799.850,71.630,-576.930
636,52579.200000,262.986,-13.526,-33.736,445.107,-315.438,108.746,891.850,-692.370,150.070
637,52579.240000,297.918,-18.536,-44.651,444.105,-318.157,113.587,298.850,-154.370,-13.930
638,52579.279000,294.924,-17.534,-9.922,452.904,-313.384,110.783,-212.150,46.630,-356.930
639,52579.314000,267.977,-36.571,-15.876,457.806,-309.612,107.946,-139.150,-70.370,-234.930
640,52579.355000,257.996,-23.546,12.899,461.838,-299.181,107.259,21.850,-121.370,-138.930
641,52579.396000,243.025,-19.538,9.922,458.892,-301.192,104.247,-0.150,-191.370,-100.930
642,52579.437000,233.045,-17.534,1.984,461.822,-299.392,99.384,-89.150,-151.370,-58.930
643,52579.479000,240.031,-14.528,16.868,460.790,-303.267,96.324,-190.150,3.630,-23.930
644,52579.496000,239.033,-12.524,20.837,465.741,-295.791,90.638,-231.150,-48.370,9.070
645,52579.536000,231.049,-13.526,20.837,456.887,-303.585,86.472,-299.150,-59.370,25.070
646,52579.575000,229.053,-29.558,18.853,462.668,-305.604,78.557,-430.150,-133.370,126.070
647,52579.620000,262.986,-35.569,18.853,459.682,-309.665,69.587,-507.150,-94.370,110.070
648,52579.659000,283.945,-60.618,-13.891,459.753,-304.149,63.839,-338.150,-10.370,-175.930
649,52579.700000,287.938,-56.611,-19.845,463.549,-309.821,61.720,19.850,20.630,-120.930
650,52579.740000,273.965,-36.571,-22.822,462.567,-310.754,62.676,301.850,-138.370,41.070
651,52579.774000,262.986,-31.562,-12.899,460.757,-302.165,66.846,127.850,13.630,74.070
652,52579.795000,240.031,-35.569,2.977,459.712,-306.986,63.760,-28.150,-9.370,7.070
653,52579.834000,231.049,-36.571,1.984,460.712,-305.055,64.799,-55.150,-14.370,-125.930
654,52579.875000,224.062,-29.558,9.922,467.601,-298.366,64.013,114.850,-48.370,-186.930
655,52579.920000,246.020,-32.564,9.922,464.695,-298.328,66.960,345.850,-104.370,-246.930
656,52579.960000,285.942,-11.523,32.744,473.637,-284.781,74.237,497.850,-70.370,-247.930
657,52579.999000,272.967,-15.530,1.984,478.459,-287.417,79.089,574.850,-219.370,-187.930
658,52580.39000,271.969,-37.573,-7.938,483.513,-274.005,83.406,857.850,-116.370,-207.930
659,52580.79000,262.986,-23.546,-14.884,486.577,-264.323,90.565,822.850,-75.370,-269.930
660,52580.99000,256.998,-10.521,-20.837,487.721,-253.617,101.685,649.850,0.630,-379.930
661,52580.136000,259.992,-9.519,-25.798,492.739,-242.962,108.875,541.850,-16.370,-356.930
662,52580.184000,249.014,-18.536,-14.884,497.665,-238.113,110.985,455.850,-65.370,-354.930
663,52580.226000,230.051,-11.523,-21.829,506.553,-228.349,118.157,397.850,-96.370,-293.930
664,52580.260000,236.039,3.507,-19.845,501.831,-219.040,115.457,313.850,-106.370,-254.930
665,52580.307000,238.035,13.526,-15.876,510.718,-208.514,115.765,183.850,-214.370,-186.930
666,52580.336000,248.016,19.538,-27.783,511.665,-209.578,110.819,90.850,-242.370,-143.930
667,52580.376000,248.016,32.564,-23.814,516.605,-203.021,106.091,28.850,-201.370,-96.930
668,52580.396000,239.033,24.548,-23.814,513.584,-209.840,99.995,-51.150,-240.370,-46.930
669,52580.436000,238.035,37.573,-25.798,515.610,-203.351,94.277,-158.150,-246.370,-48.930
670,52580.476000,240.031,35.569,-19.845,516.547,-204.546,84.410,-266.150,-263.370,-11.930
671,52580.516000,234.043,27.554,-25.798,520.427,-203.756,76.569,-255.150,-333.370,15.070
672,52580.561000,227.057,22.544,-25.798,514.502,-209.749,67.540,-193.150,-260.370,41.070
673,52580.595000,237.037,22.544,-25.798,514.435,-213.690,61.529,-210.150,-110.370,156.070
674,52580.636000,257.996,1.503,-20.837,512.388,-220.468,56.419,-223.150,-94.370,177.070
675,52580.659000,309.895,-20.540,-32.744,512.434,-216.791,52.587,-335.150,-17.370,63.070
676,52580.697000,323.867,-34.568,-21.829,512.362,-221.572,50.486,-193.150,29.630,8.070
677,52580.737000,286.940,-2.505,-30.760,513.378,-218.669,52.536,20.850,142.630,38.070
678,52580.777000,256.000,20.540,-26.791,512.290,-227.875,62.114,100.850,348.630,122.070
679,52580.816000,233.045,43.585,-11.907,509.474,-222.059,69.156,-0.150,324.630,153.070
680,52580.856000,233.045,28.556,-10.915,508.366,-232.290,75.755,-100.150,242.630,87.070
681,52580.895000,249.014,33.566,-14.884,505.509,-228.549,75.854,-222.150,186.630,63.070
682,52580.937000,247.018,35.569,-28.775,499.611,-234.200,79.622,-270.150,223.630,70.070
683,52580.957000,250.012,16.532,-25.798,495.754,-233.151,85.546,-209.150,294.630,109.070
684,52580.997000,250.012,3.507,-14.884,500.462,-243.405,88.220,-220.150,219.630,151.070
685,52581.37000,249.014,-2.505,-16.868,492.705,-242.649,85.277,-350.150,176.630,198.070
686,52581.77000,230.051,-15.530,-4.961,491.665,-247.391,85.143,-445.150,160.630,224.070
687,52581.117000,215.080,-21.542,-2.977,490.547,-256.992,79.956,-509.150,-21.370,283.070
688,52581.159000,221.068,-21.542,-6.946,485.495,-269.617,69.760,-451.150,-91.370,417.070
689,52581.200000,221.068,-39.577,25.798,474.633,-282.141,66.443,-330.150,-109.370,474.070
690,52581.241000,273.965,-49.597,23.814,472.614,-286.241,55.506,-406.150,-251.370,182.070
691,52581.262000,291.930,-8.517,-64.496,473.534,-289.195,50.507,-379.150,201.630,-94.930
692,52581.304000,297.918,-32.564,-9.922,471.707,-281.605,52.682,-86.150,344.630,35.070
693,52581.337000,296.920,-40.579,-43.659,466.732,-290.158,53.420,74.850,-326.370,196.070
694,52581.379000,282.947,-30.560,-19.845,469.614,-292.035,52.389,56.850,8.630,152.070
695,52581.420000,243.025,-34.568,-10.915,467.502,-304.250,55.980,1.850,37.630,169.070
696,52581.460000,229.053,-33.566,-5.953,462.651,-304.292,56.954,14.850,68.630,109.070
697,52581.501000,223.064,-34.568,1.984,463.614,-305.145,59.883,117.850,87.630,45.070
698,52581.541000,223.064,-34.568,15.876,461.741,-300.445,60.010,204.850,161.630,-75.930
699,52581.566000,219.072,-18.536,39.690,466.658,-297.249,70.927,247.850,19.630,-130.930
700,52581.601000,268.975,-9.519,-5.953,463.714,-299.235,68.900,182.850,-31.370,-22.930
701,52581.641000,274.963,3.507,-6.946,465.619,-302.753,77.658,246.850,108.630,203.070
702,52581.681000,271.969,-39.577,-38.698,459.836,-299.998,77.725,142.850,72.630,127.070
703,52581.722000,273.965,-16.532,-26.791,460.693,-307.602,75.547,-256.150,-33.370,-54.930
704,52581.762000,251.010,-21.542,-18.853,460.804,-299.249,69.878,-259.150,-47.370,-127.930
705,52581.802000,255.002,-14.528,-21.829,465.571,-304.907,67.762,-120.150,10.630,-62.930
706,52581.837000,244.023,-2.505,-6.946,465.679,-297.368,66.988,-173.150,89.630,-24.930
707,52581.857000,239.033,-10.521,-0.992,467.632,-296.422,66.034,-292.150,56.630,17.070
708,52581.897000,244.023,-12.524,-3.969,465.614,-301.283,61.961,-330.150,22.630,34.070
709,52581.946000,245.021,-14.528,0.992,462.602,-307.996,59.802,-350.150,93.630,91.070
710,52581.982000,242.027,-14.528,8.930,457.748,-307.303,52.928,-412.150,98.630,191.070
711,52582.22000,246.020,-30.560,16.868,453.791,-312.165,49.835,-421.150,-22.370,247.070
712,52582.62000,255.002,-54.607,16.868,450.796,-317.119,42.807,-342.150,-75.370,262.070
713,52582.110000,253.006,-32.564,12.899,448.713,-325.894,33.707,-521.150,-45.370,285.070
714,52582.137000,270.971,-35.569,-7.938,439.896,-330.904,27.651,-607.150,-42.370,244.070
715,52582.164000,256.000,-59.616,-16.868,434.868,-342.452,22.403,-353.150,138.630,213.070
716,52582.199000,260.990,-48.595,-21.829,432.877,-345.422,18.383,-138.150,13.630,229.070
717,52582.239000,253.006,-42.583,-25.798,430.930,-345.528,15.426,-44.150,-17.370,247.070
718,52582.287000,238.035,-54.607,-25.798,420.193,-349.515,13.330,-75.150,-45.370,245.070
719,52582.321000,231.049,-62.622,-15.876,422.066,-354.215,13.202,-77.150,-118.370,203.070
720,52582.369000,234.043,-63.624,-19.845,414.183,-361.996,9.038,-77.150,-161.370,148.070
721,52582.402000,236.039,-65.628,-15.876,411.278,-361.170,6.105,-41.150,-113.370,108.070
722,52582.422000,234.043,-69.636,-4.961,412.158,-366.936,2.012,70.850,-138.370,79.070
723,52582.462000,230.051,-65.628,-14.884,412.296,-357.479,2.275,62.850,-147.370,62.070
724,52582.515000,234.043,-73.644,-25.798,410.181,-368.960,-1.982,82.850,-176.370,-2.930
725,52582.540000,234.043,-47.593,-11.907,415.155,-360.433,-3.704,3.850,-206.370,-82.930
726,52582.580000,228.055,-68.634,-22.822,416.048,-365.253,-7.771,10.850,-177.370,-140.930
727,52582.621000,242.027,-66.630,-12.899,417.111,-358.672,-9.553,48.850,-264.370,-178.930
728,52582.665000,271.969,-40.579,-24.806,421.970,-357.763,-13.454,74.850,-260.370,-165.930
729,52582.709000,297.918,-41.581,-28.775,421.160,-346.482,-15.109,20.850,-133.370,-13.930
730,52582.742000,270.971,-66.630,-21.829,417.195,-352.211,-15.275,-31.150,65.630,14.070
731,52582.765000,253.006,-73.644,-18.853,420.198,-346.390,-11.174,-5.150,99.630,-26.930
732,52582.799000,255.002,-68.634,-16.868,419.204,-348.243,-9.260,84.850,125.630,-40.930
733,52582.839000,246.020,-76.650,-16.868,422.157,-346.126,-2.310,164.850,209.630,-39.930
734,52582.882000,242.027,-57.613,-1.984,423.008,-354.570,-0.577,195.850,127.630,-25.930
735,52582.922000,244.023,-64.626,-14.884,423.138,-346.742,9.477,244.850,109.630,-10.930
736,52582.962000,240.031,-64.626,-7.938,424.982,-354.121,15.177,293.850,98.630,9.070
737,52583.2000,238.035,-62.622,-18.853,426.063,-347.304,22.254,302.850,83.630,-22.930
738,52583.21000,242.027,-59.616,-1.984,427.981,-349.876,31.038,264.850,159.630,-77.930
739,52583.61000,245.021,-51.601,-3.969,427.003,-350.757,33.962,243.850,131.630,-118.930
740,52583.109000,241.029,-49.597,-6.946,432.010,-341.021,42.110,308.850,99.630,-171.930
741,52583.140000,236.039,-39.577,-1.984,434.087,-332.325,48.257,344.850,125.630,-231.930
742,52583.180000,243.025,-23.546,-2.977,440.966,-327.290,56.278,376.850,3.630,-281.930
743,52583.220000,259.992,-15.530,3.969,442.039,-320.578,59.417,326.850,26.630,-329.930
744,52583.262000,263.984,-5.511,14.884,453.784,-314.555,66.490,305.850,30.630,-370.930
745,52583.304000,257.996,-38.575,17.860,456.831,-305.845,72.639,382.850,-90.370,-235.930
746,52583.319000,259.992,-29.558,-16.868,456.904,-301.064,74.739,372.850,-21.370,-220.930
747,52583.372000,244.023,-15.530,-4.961,459.781,-304.542,84.483,394.850,197.630,-168.930
748,52583.400000,248.016,-2.505,-13.891,462.882,-292.076,89.753,211.850,34.630,-18.930
749,52583.440000,264.982,-4.509,-38.698,461.896,-293.062,88.741,-132.150,-20.370,-34.930
750,52583.479000,252.008,-17.534,-21.829,462.870,-292.234,83.847,-282.150,48.630,-26.930
751,52583.525000,252.008,-29.558,-8.930,461.815,-297.948,82.703,-280.150,1.630,-9.930
752,52583.560000,244.023,-12.524,-3.969,462.760,-299.038,76.773,-376.150,24.630,-15.930
753,52583.602000,218.074,-13.526,-0.992,461.785,-299.104,74.802,-443.150,53.630,37.070
754,52583.622000,216.078,-30.560,-1.984,460.765,-301.299,63.919,-495.150,-34.370,129.070
755,52583.664000,258.994,-38.575,14.884,458.684,-310.048,55.804,-451.150,-139.370,125.070
756,52583.704000,268.975,-65.628,13.891,463.619,-303.544,49.108,-362.150,-36.370,-68.930
757,52583.737000,279.953,-41.581,-25.798,462.650,-302.770,43.226,-68.150,15.630,-214.930
758,52583.780000,277.957,-27.554,-15.876,465.637,-297.921,46.317,137.850,-106.370,-62.930
759,52583.822000,282.947,-34.568,-28.775,460.665,-305.660,42.159,113.850,-164.370,41.070
760,52583.860000,256.998,-30.560,-3.969,464.635,-299.879,44.293,21.850,-33.370,26.070
761,52583.899000,232.047,-39.577,13.891,461.681,-302.757,44.208,10.850,20.630,3.070
762,52583.920000,219.072,-44.587,10.915,463.711,-296.977,47.323,166.850,66.630,-145.930
763,52583.962000,223.064,-35.569,15.876,467.647,-293.927,53.316,376.850,-6.370,-277.930
764,52584.5000,265.980,-13.526,41.674,475.619,-280.394,60.592,546.850,-96.370,-369.930
765,52584.42000,287.938,7.515,10.915,482.398,-281.270,59.595,540.850,-388.370,-291.930
766,52584.84000,281.949,-60.618,-37.705,486.570,-262.118,67.020,925.850,-252.370,-243.930
767,52584.142000,261.988,5.511,-27.783,486.574,-262.826,75.853,839.850,23.630,-310.930
768,52584.160000,251.010,14.528,-27.783,491.703,-244.606,83.253,573.850,64.630,-314.930
769,52584.200000,253.006,-2.505,-33.736,494.585,-247.244,89.087,375.850,-88.370,-255.930
770,52584.220000,243.025,-8.517,-24.806,501.632,-230.074,91.543,324.850,-48.370,-242.930
771,52584.259000,223.064,-6.513,-26.791,499.663,-231.992,91.487,308.850,-142.370,-194.930
772,52584.307000,234.043,4.509,-31.752,503.573,-230.046,91.547,263.850,-202.370,-151.930
773,52584.344000,249.014,21.542,-29.767,509.434,-227.179,89.670,190.850,-184.370,-127.930
774,52584.384000,257.996,28.556,-36.713,508.579,-218.788,85.967,75.850,-191.370,-102.930
775,52584.424000,246.020,44.587,-30.760,509.518,-219.957,77.084,-58.150,-191.370,-59.930
776,52584.460000,240.031,33.566,-28.775,511.437,-220.980,73.124,-145.150,-214.370,-26.930
777,52584.480000,233.045,26.552,-24.806,512.414,-220.126,69.215,-74.150,-244.370,33.070
778,52584.529000,242.027,20.540,-29.767,503.624,-223.245,63.212,0.850,-273.370,87.070
779,52584.564000,254.004,1.503,-37.705,510.346,-227.168,54.262,151.850,-265.370,141.070
780,52584.600000,260.990,0.501,-38.698,507.475,-224.372,54.335,180.850,-226.370,166.070
781,52584.640000,260.990,13.526,-26.791,506.420,-230.086,53.190,178.850,-99.370,238.070
782,52584.685000,270.971,12.524,-40.682,501.502,-234.069,48.153,-166.150,-263.370,211.070
783,52584.725000,263.984,-6.513,-43.659,502.342,-242.645,44.965,-250.150,57.630,99.070
784,52584.771000,249.014,-39.577,-17.860,498.403,-246.509,43.867,-188.150,-63.370,116.070
785,52584.785000,258.994,-36.571,-10.915,497.448,-244.789,38.012,-24.150,-91.370,113.070
786,52584.825000,260.990,-37.573,-23.814,500.320,-247.558,38.923,35.850,-80.370,79.070
787,52584.861000,261.988,-35.569,-24.806,497.454,-244.710,40.965,54.850,27.630,67.070
788,52584.905000,256.000,-16.532,-19.845,495.516,-244.685,42.930,68.850,101.630,37.070
789,52584.944000,253.006,1.503,-28.775,497.403,-249.201,49.692,23.850,135.630,14.070
790,52584.994000,258.994,22.544,-42.667,493.485,-252.014,52.558,3.850,158.630,27.070
791,52585.21000,262.986,12.524,-41.674,496.493,-245.354,52.749,-3.150,246.630,-8.930
792,52585.61000,265.980,10.521,-42.667,496.431,-250.764,62.434,-25.150,243.630,-59.930
793,52585.81000,265.980,15.530,-48.620,500.410,-244.851,69.491,-39.150,249.630,-93.930
794,52585.120000,250.012,19.538,-38.698,499.385,-248.647,69.383,-98.150,319.630,-81.930
795,52585.166000,238.035,17.534,-42.667,501.421,-242.788,75.451,-132.150,370.630,-5.930
796,52585.201000,237.037,9.519,-34.729,493.548,-251.198,83.073,-198.150,344.630,60.070
797,52585.244000,234.043,7.515,-32.744,492.538,-254.784,90.841,-230.150,352.630,159.070
798,52585.281000,233.045,-8.517,-22.822,487.669,-255.825,89.820,-300.150,273.630,237.070
799,52585.321000,226.058,-35.569,-21.829,482.769,-259.571,93.642,-436.150,135.630,330.070
800,52585.367000,232.047,-40.579,-13.891,474.742,-276.886,86.261,-550.150,107.630,467.070
801,52585.390000,244.023,-75.648,48.620,469.669,-292.085,85.830,-502.150,288.630,648.070
802,52585.429000,279.953,-9.519,-17.860,460.769,-301.246,65.888,-800.150,-339.370,201.070
803,52585.465000,258.994,-14.528,-32.744,465.699,-296.344,69.967,-518.150,462.630,-36.930
804,52585.505000,298.916,-40.579,-13.891,460.673,-308.627,72.568,-96.150,28.630,149.070
805,52585.541000,292.928,-33.566,-43.659,461.665,-306.801,69.670,-60.150,-210.370,171.070
806,52585.586000,273.965,-58.614,-21.829,453.749,-317.313,69.364,-163.150,200.630,80.070
807,52585.624000,233.045,-51.601,19.845,449.899,-314.636,65.497,-209.150,-146.370,118.070
808,52585.664000,230.051,-43.585,-11.907,452.793,-315.593,63.508,-135.150,-31.370,73.070
809,52585.691000,227.057,-39.577,7.938,451.799,-317.446,65.423,-5.150,69.630,-34.930
810,52585.722000,239.033,-28.556,2.977,450.907,-311.838,63.610,35.850,54.630,-106.930
811,52585.764000,256.998,-27.554,4.961,457.810,-304.965,69.714,-79.150,77.630,-219.930
812,52585.804000,272.967,-16.532,15.876,464.520,-309.807,61.722,-122.150,94.630,-239.930
813,52585.851000,282.947,-20.540,19.845,461.806,-296.530,65.037,-86.150,35.630,-60.930
814,52585.881000,267.977,-60.618,1.984,463.650,-303.910,70.737,370.850,72.630,-60.930
815,52585.931000,252.008,-11.523,19.845,466.696,-295.988,82.766,490.850,168.630,-148.930
816,52585.966000,237.037,-1.503,16.868,466.834,-287.293,89.893,449.850,141.630,-80.930
817,52585.986000,235.041,-2.505,4.961,465.790,-292.849,94.655,300.850,118.630,-15.930
818,52586.25000,244.023,10.521,-7.938,462.906,-291.760,101.566,6.850,115.630,15.070
819,52586.72000,256.998,-1.503,-7.938,464.910,-287.083,98.748,-185.150,22.630,10.070
820,52586.104000,243.025,-17.534,-13.891,464.808,-293.782,95.611,-272.150,-48.370,12.070
821,52586.151000,243.025,-27.554,-14.884,464.887,-288.161,93.800,-289.150,16.630,12.070
822,52586.185000,231.049,-19.538,-2.977,463.817,-294.059,85.765,-264.150,4.630,58.070
823,52586.225000,221.068,-18.536,0.000,461.833,-296.950,84.698,-257.150,-90.370,217.070
824,52586.266000,228.055,-23.546,20.837,455.802,-310.455,77.427,-298.150,-45.370,353.070
825,52586.286000,274.963,-71.640,54.574,450.858,-316.303,73.322,-366.150,-139.370,269.070
826,52586.329000,260.990,-29.558,-5.953,455.778,-310.010,58.751,-376.150,-201.370,-113.930
827,52586.362000,289.934,16.532,-15.876,451.857,-312.088,53.768,-506.150,15.630,-27.930
828,52586.402000,266.979,-32.564,-12.899,449.875,-314.191,46.821,-387.150,-129.370,313.070
829,52586.451000,270.971,-55.609,-33.736,441.910,-326.857,36.619,-229.150,-190.370,401.070
830,52586.485000,259.992,-57.613,-36.713,439.812,-337.366,33.373,-120.150,-137.370,362.070
831,52586.525000,245.021,-54.607,-15.876,434.897,-341.296,30.304,-191.150,-79.370,253.070
832,52586.565000,243.025,-56.611,-21.829,433.913,-341.494,23.412,-187.150,-110.370,231.070
833,52586.585000,238.035,-73.644,-14.884,424.088,-349.302,19.244,-110.150,-42.370,219.070
834,52586.622000,231.049,-75.648,-9.922,428.932,-350.126,21.196,29.850,-81.370,211.070
835,52586.665000,228.055,-81.659,-12.899,419.081,-359.799,17.960,134.850,-165.370,170.070
836,52586.706000,234.043,-72.642,-28.775,419.134,-356.043,17.081,233.850,-146.370,168.070
837,52586.745000,237.037,-70.638,-23.814,414.085,-370.164,21.597,222.850,-113.370,166.070
838,52586.786000,233.045,-68.634,-25.798,411.285,-362.614,22.786,104.850,-61.370,128.070
839,52586.836000,234.043,-71.640,-14.884,411.218,-367.316,23.639,15.850,-32.370,88.070
840,52586.845000,236.039,-59.616,-0.992,411.258,-364.505,22.734,-68.150,13.630,-8.930
841,52586.894000,248.016,-46.591,1.984,412.149,-369.351,17.682,-176.150,52.630,-31.930
842,52586.922000,268.975,-15.530,5.953,414.157,-364.622,16.834,-212.150,-30.370,64.070
843,52586.974000,290.932,-16.532,-0.992,411.090,-374.357,7.705,-256.150,-114.370,103.070
844,52587.9000,271.969,-26.552,14.884,412.113,-370.587,6.828,-190.150,-71.370,98.070
845,52587.45000,265.980,-36.571,5.953,408.144,-375.607,-2.170,-171.150,-104.370,27.070
846,52587.97000,263.984,-41.581,-7.938,407.287,-367.241,-6.857,-186.150,-101.370,7.070
847,52587.126000,259.992,-45.589,-12.899,408.142,-374.872,-10.019,-169.150,59.630,-25.930
848,52587.152000,243.025,-61.620,-6.946,404.347,-369.174,-6.916,-199.150,247.630,-54.930
849,52587.182000,231.049,-88.673,-4.961,409.168,-371.837,-3.048,-141.150,320.630,-106.930
850,52587.224000,233.045,-94.685,-18.853,410.266,-363.260,-0.840,56.850,227.630,-119.930
851,52587.267000,244.023,-87.671,-22.822,412.206,-364.020,5.044,208.850,202.630,-70.930
852,52587.307000,241.029,-73.644,-19.845,412.267,-360.920,14.966,205.850,166.630,-115.930
853,52587.342000,237.037,-75.648,-11.907,416.187,-358.842,19.949,201.850,149.630,-109.930
854,52587.385000,227.057,-77.652,4.961,416.260,-354.822,28.913,292.850,124.630,-59.930
855,52587.426000,235.041,-70.638,-14.884,417.212,-356.595,32.800,217.850,68.630,-37.930
856,52587.445000,253.006,-71.640,-13.891,415.333,-352.734,36.839,125.850,71.630,-94.930
857,52587.494000,256.998,-69.636,-9.922,423.134,-350.628,40.845,171.850,31.630,-147.930
858,52587.526000,250.012,-66.630,-5.953,425.015,-355.223,44.654,272.850,88.630,-143.930
859,52587.567000,240.031,-52.603,4.961,430.063,-342.650,52.882,318.850,88.630,-172.930
860,52587.601000,223.064,-34.568,18.853,430.012,-347.142,61.609,394.850,125.630,-257.930
861,52587.643000,223.064,-34.568,8.930,435.986,-337.445,67.790,511.850,45.630,-362.930
862,52587.682000,243.025,-15.530,39.690,444.021,-320.024,79.108,528.850,60.630,-412.930
863,52587.724000,280.951,-0.501,8.930,447.959,-316.948,86.086,479.850,-151.370,-59.930
864,52587.744000,271.969,-21.542,-32.744,444.121,-314.113,88.125,238.850,10.630,117.070
865,52587.785000,260.990,-36.571,-11.907,444.114,-314.980,91.052,-95.150,71.630,-18.930
866,52587.829000,267.977,-43.585,-16.868,444.039,-319.787,87.967,-222.150,-179.370,-56.930
867,52587.864000,268.975,-31.562,-11.907,448.945,-315.201,80.234,-214.150,-108.370,-112.930
868,52587.919000,254.004,-14.528,0.992,450.807,-320.033,75.185,-142.150,-62.370,-87.930
869,52587.946000,236.039,-17.534,5.953,448.005,-312.509,75.390,-165.150,13.630,-14.930
870,52587.989000,224.062,-15.530,17.860,448.887,-318.248,72.281,-258.150,68.630,61.070
871,52588.24000,215.080,-24.548,18.853,445.991,-316.556,66.421,-338.150,82.630,121.070
872,52588.44000,229.053,-36.571,26.791,440.978,-327.132,62.184,-425.150,-14.370,153.070
873,52588.89000,268.975,-54.607,20.837,443.925,-323.572,52.452,-432.150,-53.370,48.070
874,52588.126000,264.982,-47.593,-5.953,443.701,-338.754,50.062,-276.150,44.630,-86.930
875,52588.165000,264.982,-47.593,-3.969,441.996,-322.680,51.490,-17.150,73.630,-9.930
876,52588.206000,275.961,-58.614,-16.868,443.862,-327.459,48.409,110.850,-108.370,-8.930
877,52588.254000,281.949,-46.591,-18.853,441.917,-327.540,46.437,113.850,-164.370,-4.930
878,52588.284000,264.982,-49.597,-2.977,442.903,-326.554,47.449,32.850,-95.370,-3.930
879,52588.324000,252.008,-63.624,-6.946,441.962,-324.650,48.484,-10.150,3.630,-73.930
880,52588.344000,232.047,-53.605,4.961,446.819,-324.529,50.463,66.850,109.630,-108.930
881,52588.384000,227.057,-41.581,8.930,446.924,-317.804,54.585,157.850,52.630,-105.930
882,52588.422000,232.047,-34.568,10.915,453.654,-322.383,56.436,218.850,-6.370,-126.930
883,52588.465000,238.035,-31.562,2.977,455.782,-309.957,60.719,283.850,-75.370,-144.930
884,52588.505000,252.008,-27.554,0.992,451.903,-309.959,62.680,339.850,-51.370,-167.930
885,52588.545000,275.961,-17.534,28.775,460.753,-302.979,71.742,336.850,49.630,-127.930
886,52588.585000,266.979,-43.585,34.729,462.671,-304.790,73.662,477.850,-58.370,-94.930
887,52588.629000,256.998,-52.603,15.876,465.794,-291.273,82.895,871.850,-156.370,-205.930
888,52588.645000,256.998,-5.511,8.930,468.769,-288.106,93.808,967.850,-191.370,-207.930
889,52588.694000,256.998,-3.507,9.922,470.953,-272.659,105.061,1000.850,-197.370,-210.930
890,52588.727000,257.996,-43.585,-10.915,476.853,-267.743,109.142,1187.850,-175.370,-317.930
891,52588.765000,246.020,-20.540,-14.884,481.963,-252.070,127.292,1100.850,-186.370,-368.930
892,52588.809000,244.023,-0.501,-36.713,488.868,-244.408,127.517,770.850,-289.370,-304.930
893,52588.856000,256.000,3.507,-38.698,494.847,-233.871,129.787,429.850,-329.370,-298.930
894,52588.885000,246.020,-3.507,-39.690,498.816,-227.329,125.058,175.850,-202.370,-294.930
895,52588.925000,237.037,5.511,-29.767,500.831,-221.733,121.282,49.850,-141.370,-200.930
896,52588.945000,243.025,7.515,-25.798,505.793,-214.125,120.518,3.850,-148.370,-148.930
897,52588.984000,247.018,15.530,-32.744,505.871,-207.743,111.844,-150.150,-157.370,-101.930
898,52589.24000,250.012,25.550,-37.705,505.847,-208.820,106.896,-258.150,-191.370,-105.930
899,52589.64000,245.021,30.560,-31.752,511.553,-216.408,102.760,-348.150,-185.370,-71.930
900,52589.115000,243.025,35.569,-36.713,512.635,-207.280,90.229,-517.150,-265.370,-12.930
901,52589.149000,247.018,32.564,-38.698,509.602,-214.257,78.226,-496.150,-258.370,8.070
902,52589.196000,248.016,21.542,-25.798,511.504,-215.517,65.407,-491.150,-276.370,35.070
903,52589.210000,241.029,22.544,-38.698,510.417,-222.413,55.378,-525.150,-207.370,0.070
904,52589.255000,234.043,29.558,-32.744,512.405,-217.947,44.685,-526.150,-164.370,20.070
905,52589.294000,256.998,19.538,-30.760,508.431,-223.020,33.718,-470.150,-249.370,114.070
906,52589.325000,272.967,1.503,-43.659,511.295,-225.133,23.828,-472.150,-190.370,150.070
907,52589.365000,288.936,-28.556,-33.736,503.459,-229.236,15.832,-488.150,-47.370,14.070
908,52589.404000,279.953,-47.593,-22.822,505.355,-232.860,20.652,-327.150,64.630,-24.930
909,52589.447000,258.994,-28.556,-21.829,503.414,-232.126,13.784,-193.150,93.630,-2.930
910,52589.494000,256.998,-16.532,-18.853,507.387,-226.292,17.887,-118.150,111.630,77.070
911,52589.505000,257.996,-8.517,-21.829,504.343,-235.710,20.571,-118.150,149.630,72.070
912,52589.545000,250.012,-2.505,-27.783,505.316,-235.670,21.558,-72.150,189.630,60.070
913,52589.589000,249.014,-2.505,-28.775,505.352,-233.674,25.548,-2.150,192.630,41.070
914,52589.630000,254.004,14.528,-32.744,503.428,-233.464,34.403,112.850,231.630,68.070
915,52589.665000,252.008,26.552,-22.822,505.189,-246.518,39.944,200.850,217.630,86.070
916,52589.710000,254.004,24.548,-26.791,504.321,-239.833,43.079,165.850,186.630,55.070
917,52589.745000,258.994,29.558,-23.814,503.335,-241.580,48.931,76.850,184.630,-0.930
918,52589.786000,251.010,26.552,-24.806,501.496,-235.671,58.928,35.850,206.630,8.070
919,52589.811000,247.018,19.538,-19.845,498.435,-246.088,59.617,71.850,298.630,70.070
920,52589.847000,240.031,14.528,-9.922,498.414,-248.661,69.381,52.850,237.630,127.070
921,52589.885000,239.033,4.509,-15.876,497.447,-248.622,71.348,17.850,206.630,178.070
922,52589.925000,230.051,-0.501,-13.891,493.481,-255.139,77.062,-68.150,191.630,251.070
923,52589.967000,226.058,-17.534,0.992,486.586,-262.668,81.759,-99.150,194.630,367.070
924,52590.5000,230.051,-33.566,-13.891,479.730,-266.626,78.686,-225.150,-49.370,478.070
925,52590.50000,235.041,-31.562,-3.969,473.751,-277.163,76.416,-216.150,15.630,558.070
926,52590.85000,251.010,-47.593,20.837,461.948,-287.783,74.134,-373.150,49.630,562.070
927,52590.105000,254.004,-47.593,4.961,464.685,-298.459,62.038,-571.150,-250.370,-93.930
928,52590.146000,322.869,-17.534,-55.566,466.710,-291.970,56.320,-186.150,253.630,-119.930
929,52590.186000,295.922,-32.564,-10.915,466.636,-297.539,60.100,167.850,-150.370,287.070
930,52590.241000,283.945,-41.581,-41.674,458.755,-306.054,63.784,192.850,-25.370,344.070
931,52590.270000,246.020,-48.595,-0.992,454.837,-308.867,66.650,4.850,169.630,269.070
932,52590.307000,225.060,-36.571,-5.953,451.888,-311.693,68.533,7.850,-17.370,210.070
933,52590.349000,220.070,-39.577,0.000,451.805,-317.367,68.376,46.850,42.630,124.070
934,52590.391000,230.051,-41.581,6.946,448.899,-317.329,71.323,186.850,-26.370,6.070
935,52590.411000,239.033,-39.577,9.922,451.888,-312.454,75.398,253.850,-47.370,-92.930
936,52590.451000,248.016,-26.552,14.884,451.931,-309.591,76.461,225.850,-137.370,-148.930
937,52590.491000,266.979,-21.542,6.946,455.873,-304.939,71.679,108.850,-192.370,-96.930
938,52590.542000,271.969,-10.521,26.791,456.751,-311.492,73.465,250.850,-72.370,-30.930
939,52590.566000,272.967,-34.568,-20.837,456.822,-306.738,74.581,309.850,88.630,21.070
940,52590.609000,254.004,-5.511,-7.938,455.842,-308.406,83.386,68.850,92.630,-49.930
941,52590.649000,249.014,-4.509,-4.961,461.642,-309.401,78.450,-76.150,-34.370,-67.930
942,52590.686000,262.986,-34.568,-15.876,460.734,-304.765,75.626,-61.150,-108.370,-72.930
943,52590.706000,252.008,-10.521,-13.891,463.728,-299.050,75.790,-28.150,-53.370,-75.930
944,52590.745000,247.018,-8.517,-15.876,462.697,-302.926,72.730,-106.150,5.630,-3.930
945,52590.786000,244.023,-13.526,-14.884,463.691,-301.073,70.816,-230.150,17.630,17.070
946,52590.826000,249.014,-16.532,-7.938,458.763,-305.949,67.721,-356.150,127.630,59.070
947,52590.866000,251.010,-23.546,-1.984,458.779,-304.977,68.732,-408.150,134.630,114.070
948,52590.906000,246.020,-35.569,-9.922,456.690,-314.593,63.543,-399.150,73.630,176.070
949,52590.946000,243.025,-35.569,-12.899,452.779,-315.777,56.618,-491.150,119.630,266.070
950,52590.995000,241.029,-23.546,18.853,443.951,-321.707,51.520,-651.150,318.630,380.070
951,52591.9000,266.979,-57.613,17.860,440.895,-330.522,41.434,-719.150,50.630,122.070
952,52591.47000,272.967,-7.515,-31.752,441.794,-334.501,33.456,-713.150,106.630,193.070
953,52591.87000,260.990,-49.597,-22.822,432.897,-345.159,28.226,-596.150,143.630,299.070
954,52591.127000,249.014,-67.632,-27.783,430.818,-353.881,21.095,-297.150,12.630,245.070
955,52591.170000,248.016,-73.644,-20.837,422.048,-355.975,18.071,-140.150,4.630,241.070
956,52591.207000,232.047,-73.644,-15.876,416.138,-361.784,15.932,-103.150,-82.370,213.070
957,52591.251000,239.033,-64.626,-16.868,416.183,-358.133,11.116,-97.150,-123.370,185.070
958,52591.271000,237.037,-71.640,-10.915,410.245,-365.833,8.925,-46.150,-81.370,161.070
959,52591.306000,235.041,-69.636,-16.868,413.157,-365.792,8.931,69.850,-136.370,104.070
960,52591.371000,241.029,-72.642,-18.853,411.202,-366.765,8.900,79.850,-142.370,75.070
961,52591.386000,248.016,-73.644,-13.891,408.325,-364.048,6.020,26.850,-111.370,30.070
962,52591.427000,247.018,-80.658,-16.868,410.168,-370.667,4.856,13.850,-43.370,30.070
963,52591.481000,243.025,-86.669,-17.860,407.288,-368.764,6.871,17.850,-19.370,24.070
964,52591.510000,233.045,-83.663,-15.876,406.209,-376.317,7.643,68.850,-36.370,7.070
965,52591.549000,231.049,-79.656,-13.891,406.313,-368.830,4.900,89.850,-59.370,-43.930
966,52591.567000,236.039,-75.648,-15.876,408.329,-363.996,7.989,72.850,-58.370,-116.930
967,52591.621000,237.037,-69.636,-15.876,413.192,-363.034,6.057,40.850,-68.370,-185.930
968,52591.650000,248.016,-54.607,-3.969,418.085,-360.155,5.161,5.850,-107.370,-225.930
969,52591.690000,264.982,-33.566,-9.922,420.989,-360.219,1.230,26.850,-161.370,-169.930
970,52591.730000,271.969,-14.528,-1.984,425.838,-360.203,-0.729,68.850,-160.370,-17.930
971,52591.769000,259.992,-20.540,0.000,418.986,-364.108,-1.832,175.850,-172.370,187.070
972,52591.820000,252.008,-21.542,0.000,418.988,-364.082,-0.848,178.850,-115.370,158.070
973,52591.850000,250.012,-16.532,-3.969,412.255,-360.316,2.196,117.850,-41.370,87.070
974,52591.871000,252.008,-10.521,-8.930,414.088,-367.827,2.974,-29.150,50.630,32.070
975,52591.911000,256.000,-21.542,-12.899,415.019,-370.624,3.881,-162.150,100.630,28.070
976,52591.951000,257.996,-34.568,-19.845,415.149,-361.273,0.207,-258.150,154.630,34.070
977,52591.991000,249.014,-67.632,-8.930,407.423,-358.573,-0.714,-283.150,174.630,16.070
978,52592.27000,244.023,-79.656,-12.899,415.119,-363.191,-0.830,-211.150,203.630,-18.930
979,52592.67000,243.025,-97.691,-14.884,412.170,-366.016,1.054,-43.150,170.630,-1.930
980,52592.107000,245.021,-97.691,-22.822,412.206,-364.020,5.044,52.850,136.630,27.070
981,52592.159000,245.021,-91.679,-16.868,410.200,-369.484,13.741,128.850,176.630,63.070
982,52592.167000,237.037,-84.665,-14.884,413.098,-370.389,13.721,177.850,123.630,79.070
983,52592.207000,233.045,-81.659,-12.899,409.175,-374.042,20.498,210.850,116.630,80.070
984,52592.247000,236.039,-74.646,-15.876,405.434,-365.349,29.586,221.850,92.630,39.070
985,52592.290000,234.043,-71.640,-18.853,408.244,-372.768,33.319,192.850,116.630,-39.930
986,52592.342000,228.055,-67.632,-12.899,406.442,-363.312,34.562,196.850,8.630,-137.930
987,52592.367000,233.045,-65.628,-21.829,414.251,-360.339,35.642,231.850,-87.370,-209.930
988,52592.409000,245.021,-62.622,-20.837,420.181,-353.506,40.760,308.850,-222.370,-279.930
989,52592.449000,257.996,-33.566,-18.853,425.062,-351.546,40.822,411.850,-153.370,-394.930
990,52592.469000,260.990,-13.526,14.884,436.830,-343.684,45.979,405.850,-65.370,-396.930
991,52592.509000,263.984,-63.624,-36.713,430.137,-337.082,49.102,542.850,-379.370,-59.930
992,52592.552000,241.029,-42.583,-0.992,435.032,-334.938,56.055,523.850,-82.370,-121.930
993,52592.587000,241.029,-30.560,-19.845,440.923,-330.915,62.079,381.850,40.630,-164.930
994,52592.627000,243.025,-37.573,-1.984,436.102,-329.039,64.090,219.850,-28.370,-115.930
995,52592.675000,256.000,-14.528,-10.915,442.030,-322.232,68.224,97.850,-15.370,-143.930
996,52592.712000,258.994,-16.532,-4.961,442.059,-320.315,69.261,-71.150,161.630,-220.930
997,52592.759000,263.984,-25.550,-4.961,447.974,-314.453,73.368,-209.150,236.630,-212.930
998,52592.772000,259.992,-28.556,29.767,446.940,-318.355,69.323,-351.150,132.630,-70.930
999,52592.812000,255.002,-43.585,25.798,454.766,-313.622,65.534,-350.150,40.630,32.070
1000,52592.849000,239.033,-58.614,16.868,446.922,-318.592,60.464,-203.150,-47.370,22.070
1001,52592.889000,247.018,-41.581,-4.961,449.791,-321.414,59.407,-79.150,-178.370,39.070
1002,52592.931000,254.004,-20.540,-23.814,446.831,-323.609,49.505,-166.150,-189.370,61.070
1003,52592.971000,252.008,-33.566,-20.837,448.829,-319.012,43.735,-307.150,-94.370,46.070
1004,52593.9000,256.000,-40.579,-11.907,444.844,-325.765,40.589,-331.150,-54.370,4.070
1005,52593.49000,254.004,-43.585,-9.922,445.911,-318.370,33.911,-298.150,-26.370,0.070
1006,52593.69000,247.018,-39.577,-3.969,441.939,-324.178,30.792,-246.150,6.630,29.070
1007,52593.110000,251.010,-45.589,-8.930,446.843,-319.618,22.075,-222.150,-72.370,25.070
1008,52593.152000,249.014,-40.579,-13.891,448.616,-330.991,19.794,-156.150,-80.370,-3.930
1009,52593.194000,247.018,-38.575,-13.891,448.759,-320.694,16.147,-118.150,-65.370,-10.930
1010,52593.234000,253.006,-34.568,-19.845,449.637,-326.486,11.069,-122.150,-82.370,-2.930
1011,52593.270000,253.006,-32.564,-13.891,445.764,-325.648,9.119,-118.150,-44.370,8.070
1012,52593.312000,250.012,-38.575,-10.915,445.817,-321.892,8.239,-110.150,-47.370,-0.930
1013,52593.340000,251.010,-34.568,-12.899,442.917,-321.014,7.275,-108.150,-35.370,6.070
1014,52593.385000,253.006,-35.569,-16.868,444.732,-328.762,-0.806,-108.150,-42.370,23.070
1015,52593.412000,251.010,-39.577,-15.876,447.607,-331.505,1.090,-108.150,-37.370,30.070
1016,52593.452000,253.006,-38.575,-19.845,444.736,-328.709,1.163,-81.150,-33.370,15.070
1017,52593.492000,251.010,-37.573,-14.884,443.871,-321.211,-0.597,-66.150,-9.370,8.070
1018,52593.539000,250.012,-33.566,-16.868,445.807,-321.262,-3.546,-85.150,-27.370,17.070
