Sample, Time, ACCX, ACCY, ACCZ, MAGX, MAGY, MAGZ, GYRX, GYRY, GYRZ
0,52824.421000,215.708,120.471,101.376,476.368,-145.562,223.147,788.220,368.400,203.940
1,52824.440000,214.726,111.435,103.424,472.686,-139.023,232.232,799.220,399.400,309.940
2,52824.480000,203.916,117.459,108.544,472.661,-141.616,240.134,805.220,379.400,358.940
3,52824.536000,200.967,104.408,108.544,463.228,-140.629,250.087,760.220,245.400,449.940
4,52824.569000,200.967,96.376,98.304,453.625,-152.391,263.748,603.220,210.400,474.940
5,52824.602000,195.071,82.322,100.352,450.709,-158.724,269.577,529.220,201.400,492.940
6,52824.642000,194.088,81.318,95.232,444.927,-166.947,274.366,444.220,183.400,506.940
7,52824.683000,196.054,73.286,112.640,431.786,-160.475,286.420,351.220,267.400,539.940
8,52824.698000,255.017,63.247,135.168,423.115,-172.399,291.127,319.220,207.400,555.940
9,52824.738000,263.862,58.227,135.168,414.571,-175.143,297.023,236.220,63.400,546.940
10,52824.801000,243.225,45.176,105.472,412.566,-183.414,296.844,183.220,-139.600,495.940
11,52824.825000,223.570,38.149,83.968,404.884,-191.739,297.651,22.220,-110.600,364.940
12,52824.860000,218.656,33.129,92.160,401.928,-200.080,294.485,-196.780,37.400,269.940
13,52824.902000,221.605,31.122,101.376,398.962,-209.299,293.290,-244.780,64.400,227.940
14,52824.922000,223.570,19.075,110.592,391.329,-213.979,293.179,-313.780,152.400,163.940
15,52824.962000,215.708,12.047,114.688,390.158,-230.482,292.826,-277.780,119.400,150.940
16,52825.2000,218.656,0.000,123.904,379.618,-239.840,289.627,-330.780,171.400,144.940
17,52825.42000,222.587,-7.027,132.096,380.520,-243.433,292.536,-302.780,193.400,80.940
18,52825.83000,212.760,-8.031,139.264,376.756,-241.690,290.578,-294.780,198.400,45.940
19,52825.118000,209.812,-10.039,144.384,370.944,-251.803,292.343,-262.780,139.400,32.940
20,52825.165000,206.864,-13.051,141.312,367.181,-250.060,290.386,-241.780,110.400,8.940
21,52825.181000,212.760,-16.063,140.288,364.279,-254.678,290.283,-177.780,106.400,-13.060
22,52825.221000,210.795,-19.075,143.360,371.878,-252.707,292.326,-95.780,85.400,-39.060
23,52825.260000,207.846,-15.059,141.312,369.042,-252.706,294.311,-22.780,30.400,-76.060
24,52825.302000,212.760,-8.031,135.168,371.914,-249.978,291.389,56.220,-11.600,-108.060
25,52825.342000,216.691,-7.027,135.168,371.931,-249.004,294.394,83.220,-26.600,-132.060
26,52825.382000,218.656,-1.004,135.168,375.810,-241.703,290.576,131.220,-39.600,-150.060
27,52825.402000,220.622,10.039,128.000,378.641,-242.523,293.547,137.220,-64.600,-180.060
28,52825.445000,219.639,19.075,116.736,381.535,-238.762,296.615,165.220,-54.600,-189.060
29,52825.480000,216.691,20.078,117.760,384.579,-224.008,299.918,203.220,-33.600,-163.060
30,52825.520000,221.605,26.102,111.616,386.534,-219.402,300.019,259.220,-5.600,-146.060
31,52825.561000,221.605,23.090,112.640,386.653,-211.079,304.174,312.220,54.400,-100.060
32,52825.601000,220.622,27.106,115.712,387.679,-206.291,314.224,404.220,73.400,-41.060
33,52825.641000,218.656,32.125,119.808,389.636,-201.665,315.320,443.220,99.400,-21.060
34,52825.660000,216.691,42.165,121.856,382.129,-197.945,323.345,531.220,113.400,-7.060
35,52825.705000,216.691,57.224,122.880,388.949,-184.018,328.625,527.220,103.400,-36.060
36,52825.740000,214.726,70.275,122.880,385.243,-179.292,338.667,522.220,91.400,-63.060
37,52825.780000,210.795,83.325,122.880,384.545,-161.761,346.001,455.220,52.400,-113.060
38,52825.826000,205.881,86.337,120.832,387.436,-158.040,347.079,372.220,7.400,-140.060
39,52825.863000,201.950,90.353,115.712,391.325,-150.622,349.232,271.220,-30.600,-141.060
40,52825.883000,201.950,90.353,115.712,387.623,-145.077,354.318,127.220,-48.600,-103.060
41,52825.922000,208.829,92.361,113.664,393.316,-143.287,348.397,36.220,-72.600,-80.060
42,52825.962000,209.812,92.361,115.712,391.370,-147.016,346.325,-116.780,-113.600,-65.060
43,52826.1000,210.795,88.345,105.472,397.082,-144.231,344.403,-191.780,-150.600,-57.060
44,52826.42000,210.795,89.349,100.352,400.824,-146.988,341.366,-272.780,-161.600,-52.060
45,52826.83000,207.846,82.322,105.472,403.559,-153.559,331.284,-370.780,-178.600,-64.060
46,52826.120000,212.760,79.310,102.400,404.442,-157.367,323.247,-442.780,-166.600,-77.060
47,52826.140000,236.345,74.290,110.592,404.305,-166.665,316.087,-543.780,-87.600,-81.060
48,52826.180000,216.691,61.239,119.808,408.974,-170.423,308.057,-559.780,-108.600,-77.060
49,52826.225000,213.743,54.212,107.520,406.974,-177.855,303.917,-549.780,-103.600,-40.060
50,52826.260000,216.691,49.192,105.472,410.634,-186.206,295.788,-634.780,-68.600,-9.060
51,52826.300000,222.587,42.165,113.664,404.752,-200.219,285.534,-609.780,-42.600,-14.060
52,52826.340000,223.570,35.137,118.784,409.480,-200.195,283.552,-504.780,-60.600,-32.060
53,52826.380000,222.587,27.106,118.784,407.399,-213.202,275.315,-491.780,-74.600,-33.060
54,52826.400000,220.622,26.102,112.640,411.158,-214.224,267.342,-452.780,-80.600,-17.060
55,52826.440000,224.553,26.102,119.808,409.131,-223.528,261.173,-446.780,-40.600,11.940
56,52826.482000,221.605,23.090,122.880,408.190,-222.702,257.211,-405.780,-48.600,17.940
57,52826.522000,222.587,16.063,124.928,405.204,-232.934,251.021,-307.780,-38.600,25.940
58,52826.561000,218.656,11.043,117.760,407.120,-231.097,250.068,-228.780,-43.600,44.940
59,52826.610000,215.708,9.035,116.736,405.156,-235.800,244.992,-194.780,-41.600,49.940
60,52826.640000,213.743,6.024,124.928,401.329,-238.657,241.942,-143.780,-30.600,66.940
61,52826.668000,213.743,9.035,121.856,404.138,-240.510,238.923,-86.780,-36.600,76.940
62,52826.705000,218.656,5.020,123.904,400.241,-248.786,239.735,0.220,-14.600,100.940
63,52826.745000,216.691,4.016,121.856,398.411,-244.230,239.830,121.220,-16.600,116.940
64,52826.785000,216.691,3.012,115.712,398.393,-245.984,243.771,249.220,-10.600,121.940
65,52826.826000,220.622,6.024,115.712,397.463,-245.042,245.779,323.220,15.400,119.940
66,52826.861000,225.536,11.043,118.784,391.859,-240.399,252.832,434.220,56.400,137.940
67,52826.881000,226.518,16.063,124.928,391.844,-242.115,258.763,513.220,91.400,167.940
68,52826.921000,224.553,20.078,125.952,386.311,-232.794,270.889,570.220,84.400,199.940
69,52826.967000,221.605,21.082,120.832,386.398,-227.161,277.971,621.220,57.400,215.940
70,52827.2000,222.587,23.090,117.760,382.596,-228.945,282.901,575.220,43.400,218.940
71,52827.52000,224.553,24.094,115.712,380.711,-228.873,287.873,519.220,8.400,228.940
72,52827.90000,224.553,23.090,120.832,377.964,-223.218,297.935,470.220,-5.600,225.940
73,52827.111000,224.553,22.086,121.856,375.118,-224.113,300.896,392.220,-42.600,208.940
74,52827.143000,225.536,23.090,113.664,373.260,-222.189,306.902,351.220,-71.600,186.940
75,52827.201000,225.536,23.090,114.688,374.187,-223.171,302.904,297.220,-75.600,157.940
76,52827.226000,224.553,23.090,113.664,374.180,-224.028,305.870,196.220,-84.600,106.940
77,52827.271000,226.518,26.102,111.616,374.306,-214.847,307.060,166.220,-88.600,81.940
78,52827.305000,228.484,26.102,111.616,379.041,-214.746,309.058,111.220,-86.600,50.940
79,52827.343000,227.501,26.102,110.592,376.152,-218.448,308.975,45.220,-103.600,4.940
80,52827.365000,223.570,25.098,105.472,380.940,-213.883,305.101,30.220,-116.600,-10.060
81,52827.402000,226.518,27.106,105.472,383.722,-217.588,301.048,-33.780,-98.600,-43.060
82,52827.443000,226.518,28.110,105.472,385.583,-219.473,297.032,-45.780,-105.600,-65.060
83,52827.483000,226.518,28.110,102.400,389.457,-212.991,298.170,-74.780,-113.600,-78.060
84,52827.531000,223.570,30.118,100.352,387.496,-217.675,294.089,-68.780,-108.600,-86.060
85,52827.565000,223.570,30.118,96.256,396.050,-214.814,294.162,-69.780,-113.600,-98.060
86,52827.591000,228.484,33.129,98.304,396.997,-214.022,287.218,-113.780,-80.600,-116.060
87,52827.625000,233.397,36.141,98.304,398.004,-209.448,286.323,-115.780,-64.600,-127.060
88,52827.661000,235.363,36.141,99.328,398.974,-207.623,285.368,-109.780,-36.600,-128.060
89,52827.702000,239.294,38.149,99.328,401.845,-204.895,282.447,-60.780,-10.600,-117.060
90,52827.743000,233.397,38.149,98.304,399.863,-211.353,281.312,-53.780,30.400,-118.060
91,52827.783000,223.570,40.157,102.400,400.834,-210.288,288.298,-61.780,59.400,-125.060
92,52827.823000,218.656,45.176,102.400,400.915,-203.953,284.454,-56.780,71.400,-125.060
93,52827.843000,220.622,46.180,107.520,403.757,-203.876,286.450,-85.780,84.400,-107.060
94,52827.883000,218.656,45.176,110.592,405.714,-199.251,287.546,-88.780,67.400,-84.060
95,52827.926000,224.553,46.180,106.496,405.625,-205.683,286.414,-74.780,39.400,-51.060
96,52827.966000,226.518,41.161,105.472,400.033,-199.365,285.545,-69.780,30.400,-17.060
97,52828.5000,225.536,39.153,106.496,403.785,-202.005,288.479,-51.780,24.400,-6.060
98,52828.45000,224.553,42.165,106.496,400.920,-203.894,287.440,-43.780,26.400,-10.060
99,52828.86000,223.570,40.157,107.520,402.786,-205.721,286.409,-23.780,14.400,-18.060
100,52828.111000,223.570,41.161,107.520,402.852,-200.322,281.551,-60.780,13.400,-32.060
101,52828.145000,222.587,41.161,109.568,405.598,-207.535,285.380,-84.780,4.400,-31.060
102,52828.191000,225.536,42.165,108.544,400.979,-199.352,285.547,-92.780,1.400,-23.060
103,52828.226000,223.570,39.153,109.568,404.739,-201.135,285.515,-103.780,1.400,-24.060
104,52828.266000,222.587,39.153,110.592,406.488,-211.265,281.323,-126.780,-9.600,-30.060
105,52828.305000,219.639,38.149,111.616,402.781,-205.779,283.424,-144.780,-7.600,-44.060
106,52828.331000,224.553,38.149,109.568,408.466,-204.847,280.468,-146.780,-28.600,-50.060
107,52828.367000,221.605,42.165,110.592,404.583,-211.427,274.354,-229.780,-55.600,-72.060
108,52828.428000,224.553,41.161,112.640,408.328,-214.164,272.312,-244.780,-56.600,-67.060
109,52828.456000,224.553,42.165,110.592,410.248,-211.508,266.404,-284.780,-80.600,-69.060
110,52828.482000,221.605,46.180,109.568,412.048,-217.954,263.286,-317.780,-97.600,-81.060
111,52828.522000,222.587,35.137,109.568,413.893,-220.795,257.260,-362.780,-108.600,-80.060
112,52828.562000,224.553,34.133,110.592,416.655,-225.514,248.212,-371.780,-109.600,-76.060
113,52828.592000,221.605,36.141,108.544,414.809,-221.913,246.297,-353.780,-108.600,-88.060
114,52828.636000,226.518,28.110,104.448,421.337,-228.336,241.196,-328.780,-79.600,-79.060
115,52828.671000,224.553,25.098,106.496,417.607,-223.124,229.366,-364.780,-47.600,-97.060
116,52828.702000,226.518,31.122,106.496,421.337,-226.797,226.310,-340.780,-75.600,-102.060
117,52828.743000,225.536,29.114,108.544,426.010,-230.496,221.265,-300.780,-65.600,-104.060
118,52828.785000,227.501,30.118,107.520,424.055,-235.102,221.164,-306.780,-54.600,-94.060
119,52828.803000,227.501,31.122,105.472,427.738,-241.641,212.078,-281.780,-66.600,-82.060
120,52828.850000,227.501,33.129,105.472,427.828,-234.429,206.264,-250.780,-70.600,-66.060
121,52828.885000,225.536,31.122,105.472,430.608,-238.153,201.216,-268.780,-57.600,-66.060
122,52828.926000,227.501,32.125,103.424,432.569,-232.710,197.356,-264.780,-76.600,-55.060
123,52828.962000,227.501,28.110,104.448,433.464,-236.381,196.284,-251.780,-74.600,-54.060
124,52829.3000,228.484,26.102,105.472,432.511,-236.472,192.302,-250.780,-71.600,-41.060
125,52829.43000,228.484,26.102,106.496,433.396,-240.260,185.261,-272.780,-73.600,-48.060
126,52829.71000,227.501,26.102,105.472,435.283,-240.294,182.279,-225.780,-69.600,-32.060
127,52829.107000,227.501,26.102,102.400,438.934,-249.522,176.120,-262.780,-92.600,-35.060
128,52829.143000,226.518,23.090,107.520,434.239,-246.076,168.229,-264.780,-92.600,-31.060
129,52829.183000,230.449,22.086,98.304,440.900,-243.240,168.300,-267.780,-133.600,-24.060
130,52829.223000,229.466,19.075,99.328,439.862,-248.945,158.230,-260.780,-113.600,-14.060
131,52829.263000,231.432,16.063,95.232,440.840,-246.262,154.310,-248.780,-160.600,-20.060
132,52829.283000,232.415,15.059,93.184,442.624,-253.664,149.182,-212.780,-144.600,-4.060
133,52829.323000,231.432,13.051,98.304,443.614,-249.285,138.336,-224.780,-169.600,-0.060
134,52829.363000,234.380,13.051,95.232,443.572,-252.092,135.292,-196.780,-178.600,-5.060
135,52829.405000,231.432,11.043,94.208,445.431,-253.997,130.281,-170.780,-207.600,-12.060
136,52829.445000,234.380,12.047,87.040,440.660,-256.067,121.278,-106.780,-199.600,-8.060
137,52829.485000,234.380,13.051,84.992,448.261,-253.297,117.370,-95.780,-177.600,-12.060
138,52829.525000,239.294,9.035,84.992,446.313,-257.045,114.303,-67.780,-173.600,-8.060
139,52829.545000,240.276,11.043,86.016,448.242,-253.512,106.424,-33.780,-163.600,7.940
140,52829.586000,238.311,10.039,84.992,449.155,-256.209,108.358,-9.780,-152.600,8.940
141,52829.627000,239.294,12.047,79.872,451.014,-258.113,103.347,14.220,-150.600,2.940
142,52829.666000,238.311,14.055,80.896,448.193,-256.397,99.400,2.220,-114.600,7.940
143,52829.706000,238.311,15.059,80.896,448.190,-256.436,97.410,14.220,-84.600,14.940
144,52829.745000,241.259,13.051,73.728,446.242,-260.184,94.344,12.220,-119.600,20.940
145,52829.766000,242.242,14.055,73.728,446.305,-255.603,94.441,10.220,-68.600,40.940
146,52829.807000,242.242,17.067,81.920,444.314,-262.938,95.277,-24.780,-58.600,35.940
147,52829.843000,239.294,15.059,78.848,447.148,-262.959,92.297,-0.780,-74.600,45.940
148,52829.895000,238.311,12.047,74.752,446.150,-266.655,91.222,-21.780,-59.600,59.940
149,52829.938000,237.328,14.055,73.728,443.308,-266.732,89.227,-64.780,-50.600,52.940
150,52829.966000,239.294,9.035,72.704,442.315,-269.590,84.191,-53.780,-33.600,56.940
151,52830.6000,242.242,8.031,76.800,444.263,-265.842,87.258,-64.780,-33.600,59.940
152,52830.25000,242.242,6.024,76.800,444.256,-265.920,83.278,-79.780,-21.600,60.940
153,52830.63000,243.225,8.031,78.848,438.516,-270.576,83.170,-59.780,-13.600,66.940
154,52830.113000,240.276,3.012,75.776,447.033,-270.464,83.185,-86.780,-33.600,79.940
155,52830.143000,244.207,-4.016,79.872,435.595,-276.188,79.068,-87.780,-26.600,91.940
156,52830.183000,242.242,-3.012,77.824,436.478,-280.776,77.977,-72.780,-12.600,57.940
157,52830.227000,240.276,-7.027,77.824,438.334,-283.480,78.917,-28.780,-9.600,54.940
158,52830.247000,240.276,-13.051,76.800,436.463,-281.712,76.962,-18.780,-30.600,39.940
159,52830.287000,233.397,-14.055,77.824,436.513,-278.047,77.040,32.220,-17.600,34.940
160,52830.325000,234.380,-16.063,77.824,436.417,-285.337,78.874,114.220,-24.600,38.940
161,52830.366000,237.328,-15.059,76.800,436.493,-279.821,79.986,227.220,6.400,31.940
162,52830.406000,232.415,-17.067,80.896,432.712,-279.832,81.970,261.220,9.400,49.940
163,52830.445000,238.311,-23.090,75.776,437.480,-277.801,88.983,274.220,-24.600,80.940
164,52830.492000,241.259,-27.106,73.728,434.542,-285.148,89.817,264.220,-88.600,86.940
165,52830.506000,244.207,-24.094,65.536,433.685,-278.728,90.947,323.220,-95.600,65.940
166,52830.548000,257.965,-7.027,58.368,437.495,-277.625,97.938,403.220,-23.600,-37.060
167,52830.588000,243.225,7.027,73.728,437.494,-278.404,104.884,420.220,9.400,-145.060
168,52830.637000,235.363,15.059,68.608,441.436,-267.283,109.105,505.220,-49.600,-245.060
169,52830.665000,237.328,22.086,57.344,447.181,-262.568,112.198,423.220,-41.600,-255.060
170,52830.705000,239.294,25.098,60.416,447.370,-249.587,120.431,364.220,-7.600,-204.060
171,52830.751000,241.259,27.106,66.560,452.154,-245.820,122.508,320.220,10.400,-137.060
172,52830.766000,240.276,29.114,68.608,451.222,-244.897,123.521,307.220,-12.600,-98.060
173,52830.807000,242.242,33.129,62.464,451.309,-239.264,130.603,290.220,3.400,-79.060
174,52830.847000,241.259,38.149,67.584,451.331,-238.231,136.593,224.220,51.400,-75.060
175,52830.888000,243.225,41.161,65.536,451.308,-240.043,137.549,165.220,65.400,-85.060
176,52830.925000,242.242,41.161,68.608,457.164,-227.104,139.823,123.220,114.400,-77.060
177,52830.966000,243.225,41.161,72.704,456.220,-227.096,140.816,95.220,156.400,-75.060
178,52830.986000,240.276,35.137,76.800,455.333,-223.327,146.863,91.220,178.400,-71.060
179,52831.27000,238.311,32.125,75.776,456.334,-220.371,156.873,39.220,219.400,-59.060
180,52831.74000,235.363,33.129,78.848,453.452,-223.995,160.771,82.220,251.400,-34.060
181,52831.107000,242.242,37.145,78.848,451.631,-219.322,166.835,99.220,188.400,3.940
182,52831.147000,261.896,36.141,69.632,451.626,-220.161,170.796,-89.780,192.400,-23.060
183,52831.186000,262.879,39.153,74.752,453.555,-218.167,177.804,129.220,313.400,9.940
184,52831.227000,263.862,26.102,72.704,446.935,-218.975,187.723,272.220,381.400,71.940
185,52831.247000,260.914,9.035,82.944,446.997,-215.934,202.707,393.220,455.400,126.940
186,52831.286000,198.019,-1.004,57.344,439.416,-218.470,218.556,667.220,278.400,174.940
187,52831.326000,216.691,-14.055,67.584,430.111,-209.044,238.636,864.220,530.400,241.940
188,52831.367000,207.846,-4.016,99.328,429.256,-204.144,255.648,1179.220,547.400,260.940
189,52831.416000,205.881,4.016,97.280,417.090,-197.327,284.619,1592.220,466.400,301.940
190,52831.448000,245.190,36.141,79.872,407.066,-172.163,313.985,1915.220,636.400,329.940
191,52831.468000,201.950,108.424,147.456,396.928,-155.264,342.179,1835.220,543.400,189.940
192,52831.508000,201.950,125.490,150.528,384.156,-122.925,365.725,1485.220,489.400,137.940
193,52831.548000,191.140,119.467,167.936,380.576,-109.019,376.957,1182.220,555.400,119.940
194,52831.595000,186.226,113.443,152.576,371.315,-96.006,393.134,992.220,379.400,219.940
195,52831.628000,196.054,115.451,144.384,365.799,-84.950,400.324,682.220,235.400,294.940
196,52831.668000,198.019,110.431,135.168,363.007,-82.122,406.348,364.220,137.400,357.940
197,52831.726000,199.985,88.345,124.928,359.081,-92.289,404.136,65.220,-45.600,369.940
198,52831.733000,201.950,76.298,116.736,363.799,-93.162,403.130,-72.780,-154.600,303.940
199,52831.768000,200.967,65.255,115.712,365.621,-97.815,398.061,-290.780,-244.600,174.940
200,52831.807000,203.916,66.259,111.616,370.125,-113.503,388.782,-440.780,-249.600,73.940
201,52831.848000,199.985,63.247,100.352,379.535,-116.302,379.784,-449.780,-251.600,2.940
202,52831.887000,204.898,63.247,102.400,381.216,-131.071,372.510,-504.780,-169.600,-86.060
203,52831.927000,205.881,66.259,99.328,384.972,-132.133,362.547,-533.780,-91.600,-108.060
204,52831.948000,197.036,62.243,87.040,385.765,-143.153,360.324,-517.780,-80.600,-95.060
205,52831.990000,233.397,63.247,73.728,386.700,-143.277,353.360,-642.780,97.400,-59.060
206,52832.30000,239.294,33.129,109.568,383.672,-157.076,352.067,-761.780,143.400,29.940
207,52832.70000,285.482,10.039,118.784,380.685,-167.308,345.877,-554.780,152.400,119.940
208,52832.110000,292.361,4.016,132.096,377.604,-184.811,342.516,-445.780,181.400,168.940
209,52832.151000,293.344,2.008,135.168,375.686,-186.668,342.474,-215.780,151.400,132.940
210,52832.192000,276.637,13.051,115.712,376.677,-183.829,346.514,175.220,-5.600,54.940
211,52832.208000,252.069,19.075,89.088,377.633,-183.699,352.486,364.220,-31.600,53.940
212,52832.248000,226.518,15.059,70.656,379.651,-174.513,352.685,517.220,-98.600,108.940
213,52832.288000,211.777,7.027,54.272,383.489,-170.759,354.760,521.220,-182.600,149.940
214,52832.328000,207.846,1.004,43.008,384.600,-158.818,356.010,638.220,-234.600,182.940
215,52832.368000,206.864,5.020,31.744,387.487,-155.135,355.098,786.220,-290.600,182.940
216,52832.420000,181.313,10.039,76.800,391.438,-143.136,357.349,958.220,-352.600,95.940
217,52832.427000,214.726,65.255,59.392,399.367,-117.287,362.884,1509.220,-305.600,-82.060
218,52832.466000,248.138,119.467,134.144,401.654,-88.784,367.472,1160.220,-111.600,-153.060
219,52832.506000,264.845,138.541,168.960,399.880,-80.486,371.625,859.220,104.400,-164.060
220,52832.571000,236.345,117.459,143.360,401.987,-64.867,372.955,435.220,70.400,20.940
221,52832.605000,213.743,89.349,126.976,405.841,-60.158,377.039,298.220,-44.600,226.940
222,52832.626000,186.226,74.290,84.992,399.949,-75.827,375.703,-180.780,50.400,273.940
223,52832.670000,181.313,69.271,80.896,400.832,-80.415,374.612,-245.780,2.400,201.940
224,52832.690000,191.140,75.294,64.512,404.439,-92.450,365.409,-346.780,-89.600,59.940
225,52832.728000,200.967,78.306,60.416,402.520,-94.327,364.372,-742.780,-31.600,-132.060
226,52832.767000,223.570,60.235,54.272,403.305,-105.444,357.174,-1105.780,-69.600,-161.060
227,52832.808000,244.207,49.192,49.152,403.983,-123.969,345.840,-1329.780,-63.600,-159.060
228,52832.850000,273.689,5.020,71.680,408.374,-147.902,336.385,-1446.780,28.400,-23.060
229,52832.890000,330.687,-24.094,110.592,404.249,-171.947,326.915,-1169.780,199.400,26.940
230,52832.910000,292.361,-14.055,134.144,401.248,-183.115,319.711,-726.780,-26.600,-37.060
231,52832.950000,257.965,10.039,78.848,404.895,-192.382,311.562,-537.780,-243.600,-139.060
232,52832.990000,224.553,5.020,48.128,409.742,-183.275,305.795,-303.780,-194.600,-179.060
233,52833.31000,214.726,6.024,45.056,418.153,-189.790,294.728,-408.780,-236.600,-321.060
234,52833.71000,208.829,5.020,28.672,425.794,-183.473,284.927,-440.780,-266.600,-365.060
235,52833.107000,231.432,0.000,31.744,434.230,-188.156,273.899,-401.780,-241.600,-349.060
236,52833.150000,246.173,-1.004,57.344,438.121,-179.938,270.101,-312.780,-156.600,-336.060
237,52833.170000,242.242,1.004,74.752,441.910,-179.070,265.152,-156.780,-143.600,-388.060
238,52833.208000,237.328,26.102,50.176,448.725,-164.441,259.506,-62.780,-294.600,-482.060
239,52833.247000,238.311,34.133,67.584,456.388,-157.090,255.695,-48.780,-236.600,-475.060
240,52833.287000,246.173,41.161,59.392,464.086,-147.030,249.952,74.220,-237.600,-512.060
241,52833.330000,257.965,60.235,75.776,467.131,-131.496,246.309,0.220,-29.600,-519.060
242,52833.381000,273.689,104.408,112.640,468.217,-122.147,255.461,38.220,181.400,-483.060
243,52833.410000,246.173,103.404,128.000,475.012,-110.052,260.702,-55.780,83.400,-393.060
244,52833.431000,221.605,101.396,76.800,476.029,-104.601,257.836,-99.780,-53.600,-305.060
245,52833.468000,199.002,95.373,84.992,476.084,-100.878,260.899,-112.780,146.400,-231.060
246,52833.508000,198.019,91.357,97.280,476.098,-99.942,261.913,-176.780,102.400,-212.060
247,52833.548000,199.985,98.384,92.160,477.088,-97.103,265.954,-240.780,65.400,-194.060
248,52833.590000,201.950,90.353,79.872,477.124,-94.375,265.017,-395.780,79.400,-185.060
249,52833.630000,207.846,94.369,69.632,479.949,-95.273,264.008,-442.780,83.400,-178.060
250,52833.650000,219.639,97.380,66.560,477.001,-103.516,265.817,-452.780,122.400,-176.060
251,52833.697000,221.605,96.376,73.728,477.894,-107.207,263.751,-576.780,126.400,-157.060
252,52833.746000,224.553,96.376,81.920,473.228,-102.650,265.830,-602.780,124.400,-149.060
253,52833.767000,214.726,85.333,91.136,473.994,-115.522,262.573,-668.780,136.400,-118.060
254,52833.808000,203.916,73.286,96.256,472.094,-116.405,265.536,-766.780,72.400,-109.060
255,52833.851000,200.967,76.298,106.496,470.913,-133.025,259.212,-767.780,58.400,-144.060
256,52833.891000,208.829,80.314,116.736,470.967,-128.542,254.335,-803.780,15.400,-235.060
257,52833.911000,202.933,87.341,113.664,476.580,-132.307,245.311,-794.780,-89.600,-278.060
258,52833.957000,209.812,96.376,103.424,474.649,-134.320,237.308,-844.780,-132.600,-320.060
259,52834.1000,207.846,94.369,96.256,474.534,-141.825,228.197,-903.780,-205.600,-322.060
260,52834.28000,200.967,96.376,93.184,484.831,-148.393,213.153,-924.780,-268.600,-295.060
261,52834.67000,262.879,85.333,103.424,481.867,-156.052,198.066,-991.780,-126.600,-186.060
262,52834.108000,228.484,22.086,150.528,479.918,-159.820,194.004,-922.780,11.400,-21.060
263,52834.128000,217.674,21.082,185.344,478.895,-165.349,192.890,-702.780,70.400,40.940
264,52834.167000,217.674,21.082,186.368,477.749,-179.240,185.630,-478.780,-35.600,73.940
265,52834.208000,214.726,18.071,181.248,475.833,-180.318,178.642,-383.780,-71.600,83.940
266,52834.248000,198.019,20.078,183.296,472.885,-187.782,173.506,-239.780,-198.600,33.940
267,52834.290000,186.226,20.078,160.768,476.595,-192.469,165.454,-165.780,-269.600,38.940
268,52834.330000,195.071,6.024,146.432,475.567,-198.056,161.355,-229.780,-202.600,101.940
269,52834.378000,201.950,-7.027,146.432,478.322,-203.613,156.268,-189.780,-68.600,198.940
270,52834.393000,199.985,-22.086,135.168,471.723,-201.868,156.295,35.220,-22.600,227.940
271,52834.431000,200.967,-20.078,135.168,471.641,-208.223,159.144,215.220,83.400,186.940
272,52834.473000,193.106,-22.086,124.928,466.855,-212.768,164.013,301.220,80.400,114.940
273,52834.510000,205.881,-10.039,109.568,466.017,-205.354,169.143,481.220,42.400,58.940
274,52834.548000,235.363,1.004,108.544,467.027,-201.521,177.183,598.220,192.400,-59.060
275,52834.588000,230.449,28.110,119.808,464.304,-194.034,187.285,789.220,244.400,-136.060
276,52834.610000,218.656,64.251,123.904,464.508,-180.876,204.474,911.220,252.400,-198.060
277,52834.657000,215.708,78.306,102.400,467.556,-166.843,217.708,918.220,158.400,-188.060
278,52834.692000,224.553,81.318,102.400,463.966,-153.833,229.915,691.220,215.400,-144.060
279,52834.732000,222.587,90.353,119.808,462.090,-152.883,232.916,468.220,122.400,-90.060
280,52834.770000,223.570,95.373,111.616,465.996,-144.491,238.074,320.220,54.400,-51.060
281,52834.808000,218.656,95.373,111.616,463.189,-142.618,242.088,156.220,26.400,-19.060
282,52834.852000,220.622,93.365,105.472,465.116,-139.883,240.160,-101.780,-86.600,19.940
283,52834.868000,216.691,81.318,94.208,465.891,-151.878,234.932,-234.780,-146.600,48.940
284,52834.908000,217.674,75.294,91.136,468.676,-154.784,224.928,-316.780,-181.600,53.940
285,52834.952000,217.674,70.275,84.992,465.837,-154.822,224.923,-360.780,-188.600,38.940
286,52835.6000,212.760,69.271,91.136,465.681,-165.114,213.763,-417.780,-180.600,29.940
287,52835.36000,215.708,64.251,86.016,468.437,-170.671,208.676,-443.780,-203.600,26.940
288,52835.76000,223.570,61.239,94.208,469.278,-177.286,197.595,-516.780,-190.600,38.940
289,52835.91000,242.242,63.247,110.592,469.264,-177.442,189.635,-561.780,-154.600,24.940
290,52835.131000,232.415,54.212,128.000,465.400,-182.268,179.580,-644.780,-250.600,51.940
291,52835.171000,238.311,34.133,101.376,467.133,-192.574,166.433,-548.780,-225.600,34.940
292,52835.216000,243.225,37.145,148.480,467.029,-199.182,156.346,-754.780,-146.600,-100.060
293,52835.256000,224.553,38.149,154.624,473.651,-198.354,147.421,-577.780,-196.600,-154.060
294,52835.290000,203.916,19.075,124.928,471.637,-205.962,134.326,-637.780,-264.600,-135.060
295,52835.337000,209.812,-2.008,140.288,472.619,-202.441,126.445,-834.780,-168.600,-87.060
296,52835.351000,206.864,-3.012,157.696,475.390,-206.283,115.427,-623.780,-98.600,-62.060
297,52835.392000,203.916,-5.020,157.696,477.198,-211.872,109.343,-312.780,-2.600,1.940
298,52835.432000,200.967,-5.020,153.600,474.343,-212.864,107.328,-193.780,-35.600,43.940
299,52835.472000,192.123,-1.004,140.288,473.342,-216.600,104.263,-76.780,-50.600,62.940
300,52835.511000,176.399,-10.039,131.072,470.403,-223.967,104.102,33.220,-117.600,84.940
301,52835.565000,196.054,-3.012,113.664,476.152,-218.434,102.239,132.220,-160.600,78.940
302,52835.590000,268.775,-15.059,140.288,474.286,-216.607,103.270,236.220,48.400,132.940
303,52835.611000,282.534,-29.114,150.528,471.396,-221.089,110.133,667.220,124.400,202.940
304,52835.650000,274.672,-5.020,133.120,470.514,-218.040,126.110,889.220,111.400,199.940
305,52835.690000,212.760,19.075,106.496,467.659,-221.352,145.928,1435.220,28.400,179.940
306,52835.732000,202.933,49.192,68.608,466.867,-211.092,156.092,1435.220,40.400,196.940
307,52835.777000,199.985,73.286,70.656,468.909,-201.613,171.216,1138.220,95.400,161.940
308,52835.810000,203.916,87.341,88.064,463.244,-202.311,186.113,1046.220,169.400,170.940
309,52835.830000,210.795,86.337,82.944,463.412,-191.103,197.292,762.220,139.400,127.940
310,52835.870000,227.501,85.333,94.208,460.560,-192.836,204.214,412.220,90.400,134.940
311,52835.910000,228.484,85.333,84.992,456.800,-191.054,204.246,315.220,-53.600,147.940
312,52835.950000,170.503,54.212,69.632,454.866,-193.866,202.194,196.220,-213.600,233.940
313,52835.991000,275.655,64.251,58.368,451.020,-198.477,203.085,-27.780,1.400,237.940
314,52836.31000,248.138,41.161,133.120,445.200,-208.688,199.875,-63.780,51.400,239.940
315,52836.83000,228.484,22.086,129.024,446.114,-211.366,202.803,224.220,-128.600,340.940
316,52836.92000,251.086,26.102,71.680,443.146,-220.604,200.613,107.220,-125.600,306.940
317,52836.133000,249.121,32.125,103.424,440.215,-227.113,197.486,-53.780,-34.600,227.940
318,52836.173000,238.311,42.165,124.928,433.558,-229.890,200.401,46.220,-81.600,121.940
319,52836.211000,210.795,15.059,95.232,436.355,-232.660,197.362,-0.780,-136.600,115.940
320,52836.251000,215.708,2.008,95.232,433.522,-231.859,193.397,-155.780,-61.600,148.940
321,52836.300000,223.570,0.000,113.664,432.524,-235.556,192.322,-132.780,-34.600,146.940
322,52836.310000,224.553,-1.004,118.784,436.279,-237.396,189.304,-61.780,-9.600,100.940
323,52836.350000,229.466,0.000,121.856,433.388,-241.118,188.226,40.220,-8.600,37.940
324,52836.391000,231.432,4.016,114.688,429.570,-243.858,191.146,114.220,-35.600,-22.060
325,52836.438000,229.466,3.012,113.664,433.382,-241.956,192.187,174.220,-41.600,-41.060
326,52836.481000,229.466,3.012,112.640,437.319,-230.893,193.423,238.220,-36.600,-42.060
327,52836.511000,240.276,1.004,108.544,439.219,-230.790,197.407,298.220,10.400,-10.060
328,52836.558000,230.449,1.004,104.448,437.308,-232.569,201.344,445.220,69.400,27.940
329,52836.572000,219.639,3.012,95.232,438.449,-219.496,213.560,571.220,156.400,51.940
330,52836.616000,209.812,-3.012,84.992,439.485,-213.811,222.634,767.220,233.400,99.940
331,52836.651000,223.570,0.000,79.872,429.216,-206.151,246.653,985.220,443.400,174.940
332,52836.691000,231.432,6.024,90.112,424.657,-195.727,267.756,1215.220,519.400,214.940
333,52836.737000,257.965,58.227,110.592,416.297,-186.307,286.842,1460.220,706.400,204.940
334,52836.770000,244.207,93.365,124.928,407.143,-166.647,315.097,1449.220,591.400,115.940
335,52836.793000,231.432,123.482,111.616,402.759,-143.396,336.473,1376.220,449.400,102.940
336,52836.830000,227.501,120.471,125.952,395.356,-133.067,354.585,987.220,367.400,149.940
337,52836.871000,200.967,109.427,134.144,390.769,-123.734,366.712,787.220,251.400,256.940
338,52836.917000,189.175,101.396,112.640,388.919,-120.952,369.753,487.220,43.400,376.940
339,52836.957000,193.106,84.329,100.352,386.014,-125.610,367.660,334.220,-21.600,444.940
340,52836.992000,199.002,65.255,104.448,385.944,-131.048,370.528,119.220,-60.600,448.940
341,52837.32000,206.864,60.235,99.328,385.841,-138.416,368.382,-85.780,-151.600,375.940
342,52837.52000,227.501,57.224,110.592,386.685,-144.992,359.291,-155.780,-123.600,332.940
343,52837.92000,232.415,49.192,105.472,390.449,-145.956,354.303,-42.780,-195.600,270.940
344,52837.138000,232.415,49.192,98.304,389.398,-153.356,351.160,-51.780,-205.600,233.940
345,52837.181000,231.432,41.161,96.256,388.316,-162.647,344.993,-23.780,-194.600,215.940
346,52837.217000,224.553,40.157,83.968,394.880,-167.120,345.902,-26.780,-191.600,159.940
347,52837.253000,223.570,36.141,84.992,394.779,-173.690,337.805,-98.780,-139.600,114.940
348,52837.293000,220.622,43.169,82.944,400.563,-165.447,334.011,-22.780,-109.600,60.940
349,52837.328000,218.656,47.184,77.824,398.668,-166.271,339.958,-21.780,7.400,4.940
350,52837.351000,210.795,54.212,82.944,397.620,-172.853,331.859,-60.780,35.400,-27.060
351,52837.391000,219.639,58.227,92.160,389.105,-172.946,332.840,-61.780,196.400,39.940
352,52837.432000,220.622,44.173,97.280,389.129,-171.893,339.824,-128.780,266.400,124.940
353,52837.472000,226.518,46.180,91.136,379.512,-183.830,344.529,-182.780,310.400,165.940
354,52837.512000,215.708,25.098,95.232,378.563,-183.882,342.538,-299.780,242.400,250.940
355,52837.532000,247.155,-2.008,107.520,369.922,-193.136,343.322,-337.780,257.400,304.940
356,52837.585000,264.845,-27.106,122.880,365.940,-207.805,344.994,-191.780,209.400,283.940
357,52837.627000,293.344,-12.047,123.904,362.171,-206.900,346.997,21.220,224.400,128.940
358,52837.653000,283.516,-14.055,139.264,355.480,-212.387,351.843,190.220,193.400,24.940
359,52837.695000,257.965,5.020,103.424,357.595,-196.671,358.149,422.220,38.400,-50.060
360,52837.732000,240.276,8.031,84.992,355.784,-191.121,362.243,414.220,-31.600,-25.060
361,52837.772000,216.691,-2.008,80.896,358.605,-192.837,366.189,366.220,-39.600,47.940
362,52837.793000,204.898,-1.004,75.776,359.705,-181.792,368.415,465.220,-133.600,80.940
363,52837.838000,201.950,-8.031,68.608,361.738,-171.651,370.623,547.220,-142.600,111.940
364,52837.875000,207.846,-3.012,83.968,365.600,-166.084,371.742,647.220,-227.600,140.940
365,52837.920000,279.585,-11.043,75.776,364.773,-157.774,375.896,743.220,-196.600,76.940
366,52837.955000,233.397,39.153,145.408,370.626,-144.873,376.179,680.220,-272.600,-27.060
367,52837.991000,238.311,67.263,97.280,373.679,-129.242,377.511,728.220,-212.600,-205.060
368,52838.11000,224.553,75.294,109.568,380.552,-111.611,384.859,507.220,-150.600,-201.060
369,52838.55000,218.656,78.306,126.976,384.433,-104.290,382.036,507.220,9.400,-121.060
370,52838.95000,219.639,78.306,133.120,378.836,-98.791,386.124,464.220,40.400,-5.060
371,52838.133000,203.916,69.271,118.784,381.813,-88.676,386.343,182.220,-29.600,52.940
372,52838.180000,206.864,69.271,92.160,385.506,-95.097,383.228,-288.780,-179.600,66.940
373,52838.213000,211.777,66.259,94.208,385.438,-99.736,380.146,-417.780,-142.600,19.940
374,52838.262000,209.812,64.251,90.112,391.013,-106.250,371.063,-446.780,-184.600,-64.060
375,52838.277000,211.777,66.259,76.800,394.693,-112.827,359.988,-541.780,-131.600,-129.060
376,52838.312000,214.726,61.239,88.064,392.618,-125.756,355.731,-683.780,-76.600,-161.060
377,52838.352000,220.622,53.208,78.848,398.222,-130.399,348.678,-733.780,-60.600,-152.060
378,52838.400000,227.501,45.176,70.656,400.887,-142.407,341.464,-813.780,5.400,-141.060
379,52838.436000,230.449,44.173,72.704,401.700,-151.654,336.295,-783.780,15.400,-121.060
380,52838.475000,227.501,24.094,66.560,400.587,-162.855,326.109,-753.780,-6.600,-81.060
381,52838.502000,251.086,9.035,65.536,398.582,-171.125,325.930,-669.780,59.400,-33.060
382,52838.536000,297.274,2.008,82.944,394.738,-174.937,320.870,-513.780,194.400,31.940
383,52838.576000,308.084,-5.020,125.952,395.513,-187.712,322.588,-406.780,204.400,38.940
384,52838.616000,261.896,-2.008,91.136,392.710,-185.020,321.647,-227.780,-15.600,-8.060
385,52838.663000,244.207,12.047,53.248,394.592,-185.113,315.680,-62.780,-85.600,-101.060
386,52838.692000,213.743,8.031,40.960,401.229,-184.109,315.711,-26.780,-20.600,-127.060
387,52838.732000,215.708,12.047,43.008,403.081,-186.871,313.666,-97.780,-45.600,-172.060
388,52838.753000,232.415,7.027,59.392,402.219,-180.510,311.811,-89.780,10.400,-133.060
389,52838.800000,247.155,3.012,79.872,402.192,-182.362,310.776,-129.780,-14.600,-106.060
390,52838.835000,254.035,12.047,78.848,404.058,-184.188,309.746,-43.780,-115.600,-99.060
391,52838.876000,249.121,11.043,84.992,409.727,-184.211,304.780,-72.780,-126.600,-118.060
392,52838.918000,247.155,17.067,89.088,410.670,-184.238,302.792,-42.780,-160.600,-148.060
393,52838.953000,273.689,28.110,81.920,413.665,-172.368,299.070,21.220,-117.600,-189.060
394,52838.973000,250.104,36.141,112.640,416.545,-169.543,301.124,105.220,-188.600,-182.060
395,52839.30000,236.345,41.161,108.544,423.255,-163.063,300.277,182.220,-261.600,-90.060
396,52839.70000,207.846,51.200,76.800,427.073,-160.323,297.357,350.220,-245.600,-32.060
397,52839.100000,224.553,61.239,76.800,426.205,-154.799,299.463,355.220,-99.600,-6.060
398,52839.141000,231.432,67.263,111.616,422.401,-156.604,303.397,327.220,87.400,0.940
399,52839.176000,223.570,69.271,141.312,425.395,-145.514,306.622,271.220,33.400,1.940
400,52839.222000,206.864,65.255,124.928,427.257,-148.159,310.547,93.220,9.400,-51.060
401,52839.236000,200.967,66.259,107.520,427.337,-142.604,313.649,-15.780,13.400,-95.060
402,52839.275000,192.123,75.294,110.592,423.545,-142.732,309.662,-37.780,52.400,-147.060
403,52839.313000,186.226,83.325,110.592,427.257,-148.159,310.547,-187.780,74.400,-225.060
404,52839.352000,184.261,87.341,98.304,425.377,-147.268,310.563,-336.780,9.400,-217.060
405,52839.398000,198.019,80.314,73.728,426.316,-147.334,306.584,-609.780,99.400,-169.060
406,52839.433000,225.536,67.263,78.848,421.492,-153.868,303.454,-937.780,187.400,-113.060
407,52839.455000,230.449,36.141,111.616,420.384,-165.010,296.253,-999.780,213.400,-22.060
408,52839.502000,249.121,22.086,105.472,419.283,-176.075,293.032,-913.780,164.400,9.940
409,52839.542000,266.810,17.067,100.352,413.470,-185.428,286.857,-666.780,107.400,81.940
410,52839.576000,273.689,13.051,100.352,412.351,-198.247,287.577,-360.780,102.400,127.940
411,52839.615000,266.810,2.008,109.568,411.237,-210.228,284.336,-244.780,64.400,104.940
412,52839.655000,246.173,6.024,106.496,413.165,-207.474,283.403,-98.780,-22.600,34.940
413,52839.712000,219.639,3.012,93.184,413.076,-213.907,282.271,-30.780,-114.600,-38.060
414,52839.733000,218.656,3.012,87.040,416.038,-204.727,281.476,48.220,-128.600,-101.060
415,52839.755000,202.933,7.027,104.448,418.936,-200.148,279.589,38.220,-129.600,-130.060
416,52839.793000,202.933,18.071,99.328,425.650,-193.628,280.732,225.220,-151.600,-189.060
417,52839.835000,207.846,47.184,84.992,428.590,-186.242,281.888,272.220,-58.600,-261.060
418,52839.905000,225.536,77.302,117.760,426.781,-180.673,286.977,293.220,150.400,-299.060
419,52839.921000,236.345,77.302,146.432,433.523,-172.281,290.150,99.220,169.400,-240.060
420,52839.957000,224.553,77.302,139.264,426.918,-171.375,294.138,-1.780,147.400,-155.060
421,52839.977000,205.881,68.267,125.952,426.023,-167.703,295.209,-114.780,30.400,-54.060
422,52840.17000,200.967,60.235,110.592,431.571,-176.848,292.039,-161.780,-43.600,-30.060
423,52840.57000,200.967,63.247,111.616,431.691,-167.745,289.249,-277.780,-5.600,-83.060
424,52840.97000,195.071,60.235,121.856,426.922,-170.556,289.182,-355.780,14.400,-150.060
425,52840.141000,218.656,62.243,110.592,430.608,-177.056,282.087,-433.780,28.400,-197.060
426,52840.178000,224.553,37.145,107.520,431.548,-177.121,278.108,-521.780,28.400,-176.060
427,52840.193000,240.276,29.114,102.400,431.471,-182.638,276.996,-365.780,36.400,-134.060
428,52840.233000,231.432,12.047,122.880,431.493,-180.844,275.045,-204.780,87.400,-47.060
429,52840.281000,238.311,11.043,124.928,429.578,-182.663,276.993,-92.780,176.400,4.940
430,52840.315000,228.484,11.043,130.048,430.558,-180.720,282.009,49.220,114.400,-1.060
431,52840.356000,212.760,6.024,99.328,427.692,-182.610,280.970,115.220,55.400,-23.060
432,52840.396000,216.691,13.051,99.328,426.794,-179.757,286.997,197.220,84.400,-54.060
433,52840.436000,213.743,24.094,95.232,428.804,-171.428,290.161,315.220,74.400,-69.060
434,52840.456000,221.605,56.220,111.616,427.003,-165.761,300.225,361.220,135.400,-132.060
435,52840.496000,230.449,70.275,120.832,426.206,-154.780,300.458,322.220,113.400,-233.060
436,52840.543000,234.380,82.322,132.096,431.057,-146.394,304.622,158.220,-1.600,-316.060
437,52840.577000,225.536,82.322,108.544,434.998,-134.512,300.902,16.220,-122.600,-315.060
438,52840.617000,216.691,75.294,102.400,439.737,-133.592,297.945,-121.780,-145.600,-276.060
439,52840.657000,213.743,79.310,95.232,442.585,-132.678,295.979,-130.780,-186.600,-270.060
440,52840.685000,212.760,89.349,82.944,448.367,-124.455,291.190,-190.780,-239.600,-313.060
441,52840.721000,212.760,95.373,80.896,453.994,-127.285,283.181,-313.780,-236.600,-350.060
442,52840.757000,209.812,97.380,76.800,460.634,-125.482,277.261,-394.780,-211.600,-355.060
443,52840.798000,216.691,112.439,77.824,463.454,-125.659,266.321,-527.780,-174.600,-336.060
444,52840.838000,218.656,104.408,78.848,469.115,-125.779,256.380,-763.780,-192.600,-278.060
445,52840.878000,218.656,103.404,81.920,475.717,-126.725,250.402,-793.780,-278.600,-226.060
446,52840.915000,216.691,92.361,89.088,477.554,-129.663,239.401,-863.780,-343.600,-185.060
447,52840.946000,216.691,93.365,90.112,481.209,-137.293,221.341,-929.780,-376.600,-144.060
448,52840.976000,217.674,90.353,87.040,486.748,-145.776,205.254,-957.780,-433.600,-160.060
449,52841.17000,205.881,89.349,83.968,490.434,-150.736,183.272,-930.780,-571.600,-122.060
450,52841.57000,203.916,85.333,80.896,492.250,-154.688,167.276,-971.780,-554.600,-105.060
451,52841.98000,274.672,82.322,110.592,491.104,-167.039,145.130,-1189.780,-418.600,-143.060
452,52841.138000,251.086,31.122,114.688,497.510,-180.285,118.997,-1180.780,-643.600,-11.060
453,52841.158000,239.294,9.035,128.000,499.241,-189.851,96.914,-910.780,-525.600,93.940
454,52841.198000,248.138,4.016,123.904,495.329,-197.542,80.830,-943.780,-360.600,111.940
455,52841.238000,232.415,-8.031,147.456,495.207,-204.365,59.797,-932.780,-285.600,74.940
456,52841.278000,223.570,-8.031,135.168,491.485,-199.055,52.942,-744.780,-229.600,22.940
457,52841.315000,208.829,-10.039,123.904,490.469,-202.966,40.922,-507.780,-241.600,25.940
458,52841.362000,210.795,-24.094,123.904,492.341,-203.175,28.984,-471.780,-299.600,73.940
459,52841.396000,227.501,-30.118,115.712,487.490,-210.801,16.879,-277.780,-293.600,140.940
460,52841.423000,231.432,-37.145,107.520,487.441,-213.686,9.855,-54.780,-246.600,166.940
461,52841.457000,233.397,-32.125,104.448,484.567,-215.673,3.841,95.220,-226.600,139.940
462,52841.500000,233.397,-25.098,79.872,480.646,-225.781,4.615,303.220,-186.600,73.940
463,52841.535000,221.605,-26.102,66.560,484.495,-221.130,5.714,425.220,-109.600,54.940
464,52841.585000,210.795,-21.082,51.200,484.450,-224.736,8.621,537.220,-79.600,23.940
465,52841.618000,233.397,-10.039,48.128,482.661,-218.153,18.705,744.220,107.400,-42.060
466,52841.638000,222.587,14.055,66.560,487.447,-215.147,28.722,896.220,121.400,-106.060
467,52841.676000,246.173,27.106,56.320,488.515,-207.552,41.816,1034.220,168.400,-227.060
468,52841.720000,263.862,56.220,75.776,486.753,-199.897,59.880,806.220,234.400,-258.060
469,52841.762000,265.827,68.267,83.968,492.535,-193.214,69.977,693.220,221.400,-204.060
470,52841.808000,265.827,64.251,80.896,495.362,-194.852,77.903,169.220,128.400,-146.060
471,52841.835000,255.017,60.235,73.728,495.399,-192.104,77.962,-88.780,87.400,-72.060
472,52841.882000,241.259,60.235,68.608,494.540,-185.703,78.097,-205.780,75.400,-69.060
473,52841.897000,237.328,58.227,58.368,500.195,-187.441,79.063,-314.780,-9.600,-90.060
474,52841.937000,228.484,57.224,46.080,502.160,-181.179,70.247,-359.780,-28.600,-111.060
475,52841.976000,227.501,58.227,48.128,499.371,-177.552,70.320,-328.780,-32.600,-140.060
476,52842.18000,228.484,56.220,50.176,502.199,-177.651,63.360,-333.780,-77.600,-109.060
477,52842.55000,233.397,58.227,53.248,498.439,-175.089,56.446,-495.780,-101.600,-93.060
478,52842.105000,227.501,59.231,56.320,500.263,-179.723,52.372,-568.780,-164.600,-57.060
479,52842.143000,227.501,57.224,54.272,502.994,-186.332,40.300,-687.780,-176.600,-26.060
480,52842.171000,221.605,61.239,57.344,503.010,-183.838,27.423,-826.780,-227.600,-41.060
481,52842.198000,211.777,65.255,71.680,504.896,-182.351,8.559,-1004.780,-313.600,-48.060
482,52842.240000,268.775,43.169,39.936,503.916,-182.754,-11.344,-1165.780,-348.600,-34.060
483,52842.291000,271.724,-3.012,86.016,498.246,-180.432,-29.206,-1482.780,-406.600,92.940
484,52842.316000,290.395,5.020,126.976,497.202,-185.435,-50.202,-1511.780,-286.600,-5.060
485,52842.375000,288.430,-20.078,121.856,495.424,-174.876,-70.867,-1397.780,-212.600,-34.060
486,52842.385000,277.620,-26.102,116.736,496.287,-178.919,-90.845,-1357.780,-211.600,-53.060
487,52842.430000,220.622,-24.094,99.328,497.364,-168.147,-102.549,-1047.780,-225.600,-95.060
488,52842.456000,173.451,-23.090,77.824,495.487,-165.677,-115.430,-545.780,-267.600,-61.060
489,52842.497000,158.710,-35.137,68.608,490.800,-161.374,-126.286,-360.780,-318.600,79.940
490,52842.538000,206.864,-46.180,55.296,488.845,-165.200,-133.333,-43.780,-216.600,163.940
491,52842.586000,320.860,-81.318,93.184,486.879,-170.702,-132.458,249.220,-38.600,297.940
492,52842.617000,307.102,-97.380,110.592,484.798,-185.249,-125.809,762.220,-80.600,353.940
493,52842.638000,270.741,-73.286,90.112,482.680,-202.543,-119.217,1247.220,-28.600,210.940
494,52842.682000,223.570,-44.173,51.200,484.610,-201.310,-104.269,1540.220,27.400,70.940
495,52842.723000,200.967,-41.161,41.984,484.493,-212.692,-77.656,1880.220,226.400,22.940
496,52842.760000,204.898,-35.137,34.816,487.320,-217.410,-39.956,2217.220,369.400,91.940
497,52842.798000,207.846,-35.137,24.576,487.215,-228.637,-5.383,2405.220,423.400,230.940
498,52842.840000,230.449,-24.094,17.408,479.682,-231.386,46.269,2736.220,635.400,353.940
499,52842.860000,278.603,24.094,40.960,478.874,-224.381,77.250,2801.220,789.400,315.940
500,52842.901000,297.274,80.314,96.256,474.347,-215.125,132.146,2658.220,912.400,184.940
501,52842.941000,291.378,101.396,81.920,470.733,-206.247,167.142,1837.220,489.400,106.940
502,52842.978000,277.620,122.478,90.112,466.223,-192.937,195.268,1421.220,475.400,115.940
503,52843.20000,239.294,80.314,101.376,463.483,-187.964,217.252,1070.220,419.400,300.940
504,52843.63000,202.933,47.184,83.968,458.736,-190.521,230.121,927.220,333.400,511.940
505,52843.97000,189.175,38.149,77.824,445.496,-191.359,243.014,804.220,342.400,600.940
506,52843.116000,187.209,27.106,70.656,436.860,-202.114,260.676,745.220,302.400,598.940
507,52843.161000,203.916,25.098,72.704,432.284,-191.884,271.827,770.220,127.400,540.940
508,52843.196000,224.553,30.118,83.968,426.565,-196.286,284.656,897.220,106.400,377.940
509,52843.237000,250.104,40.157,88.064,424.750,-191.555,293.705,954.220,63.400,297.940
510,52843.285000,249.121,44.173,98.304,420.243,-175.906,300.994,933.220,66.400,254.940
511,52843.318000,252.069,49.192,97.280,419.360,-172.098,309.031,735.220,-22.600,223.940
512,52843.342000,240.276,49.192,86.016,417.544,-166.607,310.140,600.220,-85.600,237.940
513,52843.383000,223.570,42.165,76.800,422.277,-166.525,311.143,528.220,-81.600,232.940
514,52843.422000,219.639,44.173,80.896,416.622,-165.567,317.123,437.220,-1.600,207.940
515,52843.462000,209.812,48.188,73.728,419.489,-163.658,319.157,456.220,14.400,157.940
516,52843.511000,209.812,51.200,76.800,414.796,-161.732,327.148,363.220,139.400,122.940
517,52843.537000,201.950,55.216,79.872,412.981,-156.221,329.252,263.220,151.400,110.940
518,52843.585000,200.967,57.224,74.752,411.990,-159.840,332.158,150.220,226.400,98.940
519,52843.597000,210.795,54.212,79.872,402.515,-161.641,340.062,-123.780,383.400,176.940
520,52843.637000,221.605,44.173,90.112,398.594,-171.749,340.836,-404.780,333.400,207.940
521,52843.680000,254.035,15.059,91.136,383.371,-178.303,343.658,-374.780,382.400,335.940
522,52843.721000,301.205,-27.106,120.832,374.701,-189.448,341.419,-370.780,458.400,467.940
523,52843.762000,327.739,-43.169,161.792,361.301,-201.396,348.107,-377.780,508.400,469.940
524,52843.802000,306.119,-45.176,161.792,355.534,-208.683,353.911,-11.780,249.400,268.940
525,52843.821000,270.741,-11.043,88.064,357.400,-211.270,360.821,190.220,14.400,79.940
526,52843.860000,221.605,-14.055,62.464,353.663,-207.675,359.898,479.220,41.400,3.940
527,52843.902000,203.916,-2.008,61.440,357.596,-197.431,366.089,407.220,-21.600,-22.060
528,52843.942000,200.967,-7.027,50.176,359.528,-194.638,367.146,270.220,-141.600,10.940
529,52843.980000,218.656,-26.102,56.320,363.451,-184.510,367.368,276.220,-118.600,106.940
530,52844.27000,230.449,-31.122,65.536,359.608,-189.082,370.249,421.220,-120.600,97.940
531,52844.57000,247.155,-26.102,78.848,365.425,-178.910,371.468,647.220,-208.600,-2.060
532,52844.82000,245.190,18.071,128.000,370.392,-162.240,377.798,1066.220,-265.600,-155.060
533,52844.117000,233.397,38.149,88.064,378.385,-131.791,384.426,1154.220,-157.600,-288.060
534,52844.158000,234.380,73.286,122.880,374.822,-116.149,390.721,691.220,-49.600,-271.060
535,52844.202000,241.259,83.325,139.264,377.914,-97.750,393.107,529.220,45.400,-248.060
536,52844.242000,235.363,83.325,138.240,383.692,-90.346,393.273,364.220,-53.600,-137.060
537,52844.283000,209.812,68.267,105.472,379.848,-94.938,395.159,19.220,-121.600,4.940
538,52844.297000,199.985,63.247,88.064,383.676,-91.301,391.263,-226.780,-54.600,23.940
539,52844.339000,187.209,61.239,76.800,391.129,-99.505,388.116,-184.780,-151.600,-101.060
540,52844.378000,198.019,71.278,49.152,391.153,-96.913,380.214,-420.780,-170.600,-229.060
541,52844.418000,210.795,76.298,66.560,391.951,-107.114,373.036,-675.780,-14.600,-294.060
542,52844.458000,213.743,62.243,77.824,393.799,-109.916,369.000,-1024.780,14.400,-265.060
543,52844.507000,209.812,61.239,78.848,395.478,-124.705,360.731,-1310.780,-40.600,-225.060
544,52844.543000,208.829,12.047,61.440,398.890,-150.580,346.260,-1601.780,-31.600,-176.060
545,52844.557000,275.655,-4.016,74.752,392.891,-172.896,332.846,-1290.780,194.400,-16.060
546,52844.625000,336.583,-18.071,124.928,390.835,-184.831,332.589,-1012.780,346.400,25.940
547,52844.638000,299.240,-9.035,139.264,387.791,-199.585,329.287,-636.780,62.400,-130.060
548,52844.680000,257.965,7.027,70.656,392.488,-201.472,323.286,-327.780,-202.600,-233.060
549,52844.727000,242.242,1.004,53.248,396.363,-194.210,317.478,-210.780,-184.600,-225.060
550,52844.763000,213.743,-11.043,60.416,400.023,-202.561,309.349,-359.780,-153.600,-239.060
551,52844.798000,204.898,-5.020,66.560,406.642,-202.532,306.375,-328.780,-166.600,-271.060
552,52844.818000,211.777,0.000,60.416,411.463,-195.258,300.569,-210.780,-167.600,-328.060
553,52844.858000,231.432,2.008,70.656,418.142,-190.687,295.703,-130.780,-153.600,-361.060
554,52844.901000,253.052,13.051,93.184,420.985,-189.831,290.753,-119.780,-158.600,-397.060
555,52844.941000,267.793,21.082,96.256,426.819,-177.924,287.036,-142.780,-206.600,-439.060
556,52844.980000,273.689,45.176,115.712,436.286,-176.981,282.097,-238.780,-270.600,-437.060
557,52845.22000,245.190,42.165,130.048,445.834,-169.702,273.314,-260.780,-216.600,-483.060
558,52845.45000,209.812,58.227,87.040,453.554,-157.849,265.621,-165.780,-364.600,-429.060
559,52845.78000,235.363,77.302,82.944,460.223,-154.155,262.725,-136.780,-134.600,-398.060
560,52845.118000,233.397,72.282,122.880,460.274,-150.471,263.798,-80.780,85.400,-302.060
561,52845.158000,228.484,75.294,126.976,464.070,-149.525,262.830,-162.780,-26.600,-231.060
562,52845.200000,219.639,63.247,98.304,465.139,-140.390,261.036,-250.780,-58.600,-174.060
563,52845.252000,210.795,55.216,93.184,466.058,-142.229,260.004,-138.780,24.400,-197.060
564,52845.282000,205.881,61.239,83.968,466.122,-137.629,261.097,-90.780,-2.600,-234.060
565,52845.299000,206.864,64.251,84.992,469.040,-132.056,263.209,-122.780,53.400,-301.060
566,52845.338000,205.881,69.271,84.992,471.989,-123.792,262.394,-190.780,30.400,-331.060
567,52845.408000,205.881,80.314,84.992,470.070,-125.669,261.357,-199.780,24.400,-346.060
568,52845.436000,205.881,88.345,86.016,471.054,-122.908,261.417,-251.780,38.400,-361.060
569,52845.462000,207.846,98.384,90.112,473.061,-114.619,262.591,-318.780,8.400,-315.060
570,52845.502000,212.760,98.384,90.112,473.977,-116.497,259.569,-382.780,11.400,-227.060
571,52845.521000,213.743,94.369,96.256,475.854,-117.427,257.562,-425.780,-11.600,-150.060
572,52845.560000,217.674,95.373,95.232,473.945,-118.407,255.549,-397.780,-60.600,-83.060
573,52845.608000,223.570,94.369,90.112,474.803,-124.048,247.474,-349.780,-113.600,-23.060
574,52845.642000,224.553,92.361,97.280,470.081,-123.233,245.495,-294.780,-150.600,30.940
575,52845.690000,223.570,85.333,90.112,473.742,-131.565,238.360,-258.780,-191.600,74.940
576,52845.732000,226.518,69.271,117.760,471.721,-140.790,236.172,-280.780,-180.600,140.940
577,52845.759000,211.777,57.224,121.856,474.493,-144.612,226.148,-120.780,-204.600,115.940
578,52845.783000,231.432,62.243,124.928,469.599,-156.585,225.886,-220.780,-228.600,100.940
579,52845.820000,241.259,42.165,152.576,472.314,-164.929,218.750,-312.780,-158.600,79.940
580,52845.861000,238.311,44.173,159.744,478.961,-162.269,209.865,-289.780,-197.600,45.940
581,52845.902000,239.294,41.161,151.552,475.039,-171.617,202.697,-296.780,-171.600,63.940
582,52845.941000,224.553,20.078,129.024,473.152,-170.804,198.733,-177.780,-168.600,89.940
583,52845.982000,196.054,15.059,102.400,474.918,-179.959,197.546,-64.780,-121.600,66.940
584,52846.2000,177.382,16.063,92.160,475.922,-175.425,194.661,-6.780,-89.600,58.940
585,52846.42000,184.261,9.035,71.680,474.927,-179.082,195.576,92.220,-106.600,85.940
586,52846.91000,170.503,20.078,71.680,476.829,-178.180,193.609,188.220,-52.600,99.940
587,52846.125000,233.397,40.157,60.416,471.108,-181.842,197.501,235.220,64.400,49.940
588,52846.160000,294.326,106.416,109.568,472.187,-172.570,202.673,175.220,235.400,-123.060
589,52846.201000,276.637,102.400,123.904,467.417,-176.161,209.552,248.220,115.400,-86.060
590,52846.242000,249.121,84.329,96.256,471.279,-170.594,210.671,77.220,20.400,50.940
591,52846.262000,216.691,59.231,72.704,469.249,-180.697,210.453,-6.780,-76.600,193.940
592,52846.302000,214.726,62.243,77.824,469.162,-187.110,210.316,-7.780,3.400,245.940
593,52846.342000,212.760,63.247,80.896,462.564,-185.345,211.339,8.220,-11.600,229.940
594,52846.388000,221.605,72.282,69.632,464.373,-190.915,206.249,-53.780,-77.600,152.940
595,52846.421000,226.518,68.267,60.416,458.655,-193.777,204.191,-108.780,-46.600,107.940
596,52846.461000,230.449,60.235,50.176,455.741,-199.312,204.069,-289.780,20.400,156.940
597,52846.482000,263.862,46.180,69.632,450.906,-206.742,201.914,-414.780,229.400,196.940
598,52846.521000,214.726,14.055,96.256,444.113,-219.577,205.609,-435.780,247.400,197.940
599,52846.565000,215.708,15.059,78.848,440.282,-223.253,207.515,-345.780,336.400,180.940
600,52846.605000,228.484,39.153,126.976,434.526,-229.624,213.339,-485.780,492.400,23.940
601,52846.640000,219.639,30.118,149.504,428.769,-236.014,218.167,-377.780,444.400,-59.060
602,52846.680000,209.812,33.129,140.288,422.130,-237.817,224.087,-559.780,315.400,-23.060
603,52846.720000,203.916,10.039,126.976,416.253,-251.771,216.819,-680.780,171.400,71.940
604,52846.740000,204.898,1.004,154.624,412.453,-251.996,207.857,-719.780,155.400,128.940
605,52846.780000,219.639,-17.067,151.552,412.255,-265.855,201.594,-513.780,101.400,147.940
606,52846.836000,213.743,-7.027,151.552,410.283,-271.436,198.488,-353.780,17.400,143.940
607,52846.865000,198.019,-3.012,144.384,406.458,-274.254,197.428,-223.780,-79.600,149.940
608,52846.905000,190.157,-11.043,143.360,403.558,-278.092,190.379,-236.780,-157.600,184.940
609,52846.945000,191.140,-22.086,141.312,402.420,-291.126,180.154,-214.780,-190.600,174.940
610,52846.965000,217.674,-14.055,147.456,401.493,-289.365,177.206,-186.780,-182.600,161.940
611,52847.3000,223.570,-30.118,148.480,403.340,-292.185,172.175,-151.780,-188.600,198.940
612,52847.43000,228.484,-27.106,136.192,406.976,-302.350,165.002,-122.780,-267.600,168.940
613,52847.87000,231.432,-32.125,122.880,404.108,-303.498,155.027,-309.780,-295.600,149.940
614,52847.127000,216.691,-34.133,125.952,403.922,-315.681,140.843,-401.780,-330.600,88.940
615,52847.160000,214.726,-43.169,116.736,404.922,-310.426,128.026,-427.780,-335.600,38.940
616,52847.201000,220.622,-56.220,123.904,407.628,-318.868,115.914,-414.780,-289.600,-11.060
617,52847.221000,214.726,-57.224,126.976,412.411,-314.361,109.055,-274.780,-254.600,-91.060
618,52847.277000,211.777,-57.224,132.096,414.333,-310.906,97.196,-254.780,-222.600,-175.060
619,52847.305000,206.864,-60.235,124.928,425.797,-301.790,87.460,-208.780,-144.600,-300.060
620,52847.351000,200.967,-56.220,132.096,427.749,-297.223,85.571,-120.780,-56.600,-372.060
621,52847.386000,184.261,-57.224,121.856,442.169,-280.545,85.947,-24.780,-26.600,-405.060
622,52847.435000,188.192,-55.216,106.496,442.253,-274.171,84.094,236.220,55.400,-412.060
623,52847.470000,198.019,-37.145,75.776,452.777,-266.529,93.224,418.220,114.400,-433.060
624,52847.490000,231.432,-7.027,62.464,461.628,-243.259,106.662,746.220,198.400,-485.060
625,52847.523000,278.603,19.075,64.512,468.557,-223.445,131.960,1143.220,421.400,-569.060
626,52847.561000,325.773,98.384,123.904,470.811,-199.171,154.362,1275.220,520.400,-608.060
627,52847.601000,299.240,141.553,146.432,466.296,-184.380,164.617,693.220,306.400,-422.060
628,52847.641000,316.929,117.459,124.928,477.744,-178.538,174.704,46.220,224.400,-94.060
629,52847.681000,263.862,75.294,102.400,474.869,-181.305,175.636,43.220,15.400,59.940
630,52847.702000,204.898,52.204,74.752,478.692,-179.266,183.642,628.220,27.400,183.940
631,52847.751000,177.382,39.153,69.632,477.699,-182.904,185.552,552.220,-49.600,164.940
632,52847.786000,148.883,42.165,54.272,477.759,-178.363,183.660,462.220,-71.600,127.940
633,52847.827000,178.365,37.145,56.320,475.860,-179.226,187.617,313.220,-121.600,116.940
634,52847.866000,228.484,49.192,68.608,476.819,-178.297,187.638,485.220,-37.600,73.940
635,52847.917000,250.104,72.282,86.016,476.971,-167.284,188.868,264.220,-85.600,-14.060
636,52847.946000,256.983,72.282,86.016,480.767,-166.338,187.899,106.220,-139.600,-46.060
637,52847.968000,244.207,66.259,82.944,480.755,-166.474,180.933,-171.780,-240.600,-6.060
638,52848.1000,235.363,56.220,53.248,484.414,-174.825,172.804,-398.780,-326.600,-21.060
639,52848.41000,239.294,71.278,43.008,487.264,-172.352,156.947,-520.780,-379.600,-75.060
640,52848.95000,240.276,59.231,46.080,492.826,-179.022,139.904,-686.780,-418.600,-155.060
641,52848.121000,226.518,59.231,67.584,498.547,-173.821,121.125,-793.780,-469.600,-220.060
642,52848.163000,243.225,68.267,56.320,504.096,-180.646,96.122,-1083.780,-570.600,-279.060
643,52848.184000,227.501,64.251,76.800,506.983,-175.424,80.323,-1341.780,-546.600,-177.060
644,52848.225000,240.276,42.165,87.040,509.797,-174.140,50.516,-1718.780,-473.600,-122.060
645,52848.265000,250.104,9.035,106.496,511.578,-180.041,28.511,-1274.780,-165.600,-1.060
646,52848.305000,249.121,-32.125,116.736,507.781,-180.228,21.539,-913.780,-15.600,98.940
647,52848.346000,242.242,-36.141,100.352,508.634,-186.706,17.423,-571.780,121.400,189.940
648,52848.391000,223.570,-37.145,86.016,507.711,-185.666,24.407,119.220,348.400,102.940
649,52848.431000,200.967,-32.125,52.224,502.031,-186.540,30.347,243.220,217.400,0.940
650,52848.445000,191.140,-26.102,38.912,505.920,-179.882,40.441,420.220,103.400,-41.060
651,52848.498000,165.589,-8.031,11.264,505.007,-177.965,45.454,582.220,-26.600,-90.060
652,52848.521000,194.088,34.133,5.120,508.944,-167.681,53.636,581.220,145.400,-215.060
653,52848.583000,281.551,112.439,46.080,510.018,-160.008,70.709,598.220,442.400,-316.060
654,52848.606000,342.480,80.314,142.336,510.063,-157.941,82.689,333.220,541.400,-66.060
655,52848.646000,321.843,112.439,181.248,507.313,-153.086,98.703,88.220,520.400,-2.060
656,52848.666000,301.205,85.333,143.360,507.198,-161.370,96.537,32.220,40.400,148.940
657,52848.707000,256.983,57.224,74.752,504.411,-158.484,105.546,213.220,125.400,197.940
658,52848.746000,208.829,57.224,58.368,504.344,-163.883,110.404,446.220,142.400,152.940
659,52848.801000,185.244,61.239,39.936,504.389,-161.056,114.443,562.220,112.400,103.940
660,52848.827000,176.399,70.275,50.176,500.592,-162.782,122.358,362.220,80.400,25.940
661,52848.870000,200.967,83.325,68.608,496.874,-158.193,125.434,253.220,122.400,-10.060
662,52848.902000,210.795,93.365,78.848,500.535,-168.065,133.186,207.220,97.400,54.940
663,52848.922000,244.207,101.396,94.208,497.749,-164.398,135.249,33.220,36.400,148.940
664,52848.965000,248.138,97.380,106.496,494.850,-168.997,136.142,22.220,-22.600,270.940
665,52849.6000,242.242,86.337,101.376,492.800,-180.094,131.924,-34.780,-111.600,380.940
666,52849.43000,226.518,66.259,93.184,485.106,-189.336,132.711,-25.780,-116.600,478.940
667,52849.83000,238.311,50.196,105.472,479.207,-205.862,134.339,-60.780,9.400,487.940
668,52849.126000,220.622,3.012,101.376,470.523,-217.943,131.086,-33.780,31.400,540.940
669,52849.146000,218.656,-18.071,104.448,463.733,-230.739,136.771,-56.780,59.400,561.940
670,52849.186000,246.173,-24.094,118.784,457.854,-245.492,135.454,66.220,127.400,516.940
671,52849.231000,237.328,-21.082,117.760,451.165,-250.959,141.295,324.220,95.400,436.940
672,52849.263000,225.536,-16.063,99.328,447.318,-256.350,149.132,545.220,87.400,408.940
673,52849.303000,214.726,-11.043,86.016,436.777,-267.266,159.825,549.220,78.400,364.940
674,52849.349000,212.760,-15.059,87.040,433.953,-267.128,168.776,526.220,84.400,340.940
675,52849.387000,218.656,-16.063,90.112,423.541,-268.064,174.708,508.220,70.400,362.940
676,52849.402000,228.484,-17.067,92.160,419.660,-276.164,184.476,580.220,76.400,403.940
677,52849.443000,235.363,-21.082,93.184,411.202,-273.275,197.456,676.220,78.400,385.940
678,52849.483000,232.415,-14.055,97.280,405.519,-274.948,209.347,761.220,92.400,346.940
679,52849.526000,223.570,-6.024,96.256,400.804,-275.595,226.235,826.220,64.400,277.940
680,52849.566000,236.345,-7.027,86.016,393.273,-273.687,235.216,893.220,25.400,265.940
681,52849.606000,237.328,-3.012,88.064,394.225,-274.376,246.144,877.220,10.400,280.940
682,52849.626000,234.380,-5.020,84.992,389.576,-269.624,258.174,842.220,-46.600,277.940
683,52849.669000,231.432,-4.016,84.992,382.237,-253.935,269.438,839.220,-75.600,269.940
684,52849.702000,238.311,-2.008,92.160,379.377,-256.525,279.325,755.220,-96.600,248.940
685,52849.749000,243.225,-9.035,98.304,376.687,-246.349,286.500,718.220,-143.600,211.940
686,52849.797000,253.052,1.004,120.832,374.879,-240.760,292.584,656.220,-61.600,153.940
687,52849.831000,267.793,18.071,117.760,374.007,-236.055,299.646,638.220,-78.600,62.940
688,52849.864000,234.380,23.090,120.832,378.811,-231.295,305.722,440.220,-157.600,-0.060
689,52849.887000,224.553,27.106,116.736,376.082,-223.886,311.843,253.220,-116.600,-36.060
690,52849.928000,208.829,19.075,101.376,377.004,-225.706,311.806,158.220,-164.600,-23.060
691,52849.963000,216.691,38.149,117.760,379.839,-225.707,309.821,77.220,-16.600,-84.060
692,52850.3000,225.536,36.141,143.360,382.819,-215.553,312.031,-53.780,-0.600,-152.060
693,52850.43000,215.708,35.137,126.976,382.728,-222.005,309.904,-188.780,-57.600,-166.060
694,52850.86000,217.674,32.125,104.448,384.703,-215.626,307.059,-209.780,-85.600,-144.060
695,52850.112000,213.743,20.078,98.304,386.503,-222.073,303.940,-200.780,-11.600,-145.060
696,52850.148000,227.501,26.102,100.352,386.578,-216.576,304.057,-158.780,6.400,-153.060
697,52850.183000,245.190,26.102,88.064,385.684,-212.904,305.129,-23.780,107.400,-110.060
698,52850.228000,234.380,11.043,104.448,386.637,-212.814,309.111,115.220,140.400,-55.060
699,52850.263000,238.311,0.000,90.112,381.884,-215.429,318.994,311.220,203.400,60.940
700,52850.307000,237.328,1.004,83.968,379.251,-201.510,330.228,669.220,298.400,70.940
701,52850.343000,225.536,15.059,82.944,368.056,-191.310,344.353,981.220,344.400,34.940
702,52850.363000,223.570,33.129,91.136,365.469,-174.544,360.620,1155.220,440.400,-3.060
703,52850.403000,214.726,50.196,108.544,356.365,-150.460,381.012,1196.220,452.400,-13.060
704,52850.446000,204.898,64.251,112.640,345.225,-136.536,398.201,1298.220,422.400,0.940
705,52850.487000,202.933,76.298,121.856,336.218,-105.142,417.754,1184.220,437.400,-9.060
706,52850.533000,199.002,89.349,132.096,325.147,-85.799,431.079,1021.220,466.400,11.940
707,52850.567000,199.985,100.392,139.264,320.600,-72.919,437.315,867.220,405.400,13.940
708,52850.595000,195.071,103.404,155.648,308.527,-57.312,447.575,631.220,379.400,28.940
709,52850.631000,180.330,106.416,150.528,302.076,-45.372,453.788,536.220,282.400,43.940
710,52850.663000,183.278,118.463,156.672,298.386,-38.912,458.893,182.220,152.400,-1.060
711,52850.703000,179.347,109.427,168.960,296.419,-44.434,458.773,-83.780,16.400,-10.060
712,52850.745000,173.451,111.435,153.600,298.311,-44.409,458.776,-402.780,-198.600,-37.060
713,52850.787000,172.468,107.420,147.456,306.555,-62.892,444.470,-649.780,-319.600,-61.060
714,52850.827000,185.244,95.373,163.840,317.761,-72.956,437.310,-918.780,-395.600,-95.060
715,52850.845000,192.123,101.396,147.456,330.599,-101.454,422.797,-1323.780,-523.600,-243.060
716,52850.885000,196.054,104.408,118.784,343.578,-119.057,403.544,-1629.780,-546.600,-372.060
717,52850.925000,197.036,91.357,108.544,362.022,-151.398,376.027,-1899.780,-539.600,-454.060
718,52850.964000,209.812,65.255,81.920,371.248,-166.361,353.841,-2308.780,-545.600,-629.060
719,52851.4000,217.674,41.161,95.232,384.936,-199.818,319.331,-2616.780,-561.600,-624.060
720,52851.52000,271.724,20.078,90.112,401.674,-216.903,277.218,-2571.780,-425.600,-606.060
721,52851.87000,254.035,-26.102,119.808,414.539,-240.470,233.966,-2303.780,-474.600,-529.060
722,52851.107000,254.035,-3.012,119.808,427.669,-245.520,201.055,-1901.780,-375.600,-557.060
723,52851.147000,230.449,6.024,103.424,438.983,-246.637,183.144,-1330.780,-362.600,-553.060
724,52851.187000,217.674,21.082,81.920,451.209,-249.672,160.221,-964.780,-397.600,-557.060
725,52851.227000,218.656,29.114,78.848,459.923,-232.621,136.725,-847.780,-371.600,-573.060
726,52851.267000,234.380,35.137,87.040,471.249,-232.823,118.834,-885.780,-387.600,-551.060
727,52851.308000,228.484,43.169,90.112,477.991,-221.352,92.233,-899.780,-491.600,-490.060
728,52851.328000,232.415,36.141,80.896,483.668,-218.978,69.415,-995.780,-472.600,-400.060
729,52851.369000,236.345,31.122,83.968,490.438,-207.176,59.730,-845.780,-417.600,-304.060
730,52851.409000,235.363,25.098,89.088,494.224,-204.807,37.904,-830.780,-373.600,-194.060
731,52851.452000,230.449,16.063,73.728,497.081,-201.475,19.081,-832.780,-388.600,-107.060
732,52851.489000,227.501,9.035,74.752,495.119,-204.620,0.113,-713.780,-318.600,-31.060
733,52851.527000,231.432,1.004,71.680,498.899,-203.868,-10.806,-686.780,-201.600,24.940
734,52851.564000,224.553,-8.031,79.872,496.100,-200.358,-16.703,-689.780,-129.600,28.940
735,52851.592000,208.829,-13.051,79.872,494.131,-205.120,-24.765,-556.780,-44.600,26.940
736,52851.628000,202.933,-17.067,53.248,494.252,-195.238,-34.501,-416.780,-29.600,-16.060
737,52851.671000,272.706,-12.047,50.176,498.007,-197.858,-30.572,-216.780,238.400,-40.060
738,52851.704000,267.793,-6.024,78.848,499.093,-188.509,-21.420,116.220,313.400,-34.060
739,52851.752000,254.035,6.024,106.496,496.297,-186.499,-10.440,374.220,378.400,-127.060
740,52851.788000,230.449,38.149,93.184,499.205,-182.582,0.588,552.220,292.400,-187.060
741,52851.809000,268.775,49.192,69.632,498.271,-183.218,15.493,495.220,317.400,-57.060
742,52851.847000,302.188,72.282,114.688,499.300,-178.391,27.533,495.220,335.400,-9.060
743,52851.888000,264.845,68.267,110.592,500.198,-182.783,36.393,499.220,59.400,51.940
744,52851.935000,248.138,59.231,73.728,502.161,-177.320,33.528,489.220,-127.600,113.940
745,52851.967000,220.622,51.200,55.296,499.290,-180.048,36.449,237.220,-170.600,116.940
746,52852.6000,216.691,48.188,51.200,502.976,-186.547,29.354,26.220,-263.600,92.940
747,52852.46000,221.605,46.180,38.912,497.363,-181.242,23.491,-116.780,-268.600,30.940
748,52852.66000,222.587,43.169,44.032,500.133,-185.084,12.472,-379.780,-260.600,-32.060
749,52852.108000,278.603,27.106,59.392,497.323,-181.711,-0.390,-678.780,-202.600,-113.060
750,52852.144000,238.311,-17.067,130.048,503.003,-180.837,-6.331,-874.780,-33.600,-49.060
751,52852.187000,228.484,-20.078,90.112,504.967,-174.594,-16.142,-624.780,-119.600,-223.060
752,52852.232000,232.415,-25.098,65.536,504.989,-172.021,-25.039,-445.780,-60.600,-175.060
753,52852.266000,234.380,-46.180,70.656,507.944,-163.700,-22.868,-182.780,111.400,-238.060
754,52852.286000,211.777,-30.118,73.728,512.725,-160.752,-15.836,311.220,198.400,-321.060
755,52852.325000,208.829,-9.035,43.008,514.741,-152.345,-8.691,807.220,200.400,-328.060
756,52852.372000,162.641,34.133,55.296,512.956,-145.723,3.383,1138.220,183.400,-382.060
757,52852.409000,202.933,75.294,27.648,522.664,-129.653,22.637,1067.220,352.400,-467.060
758,52852.446000,291.378,157.616,89.088,521.902,-118.262,43.766,724.220,541.400,-457.060
759,52852.487000,280.568,120.471,134.144,522.965,-110.725,53.874,293.220,390.400,-230.060
760,52852.527000,263.862,123.482,114.688,522.131,-103.272,60.994,93.220,89.400,-19.060
761,52852.552000,235.363,80.314,78.848,521.145,-106.053,59.939,-140.780,36.400,166.940
762,52852.592000,211.777,73.286,56.320,525.748,-115.190,57.762,-107.780,47.400,217.940
763,52852.626000,203.916,78.306,46.080,517.105,-124.484,56.556,-105.780,30.400,274.940
764,52852.669000,200.967,73.286,33.792,520.868,-126.227,58.514,-56.780,37.400,281.940
765,52852.709000,206.864,69.271,53.248,514.085,-138.185,60.239,-41.780,84.400,192.940
766,52852.749000,217.674,73.286,74.752,513.058,-144.533,64.081,26.220,122.400,171.940
767,52852.767000,218.656,79.310,79.872,510.272,-140.867,66.144,40.220,14.400,189.940
768,52852.811000,229.466,85.333,81.920,509.162,-152.808,64.894,48.220,-27.600,210.940
769,52852.846000,235.363,83.325,74.752,508.046,-164.809,60.658,-72.780,-128.600,305.940
770,52852.886000,235.363,82.322,72.704,503.224,-171.323,58.523,16.220,-175.600,365.940
771,52852.931000,231.432,76.298,67.584,496.557,-174.217,55.468,48.220,-226.600,427.940
772,52852.976000,225.536,67.263,54.272,491.594,-190.848,51.128,52.220,-314.600,470.940
773,52853.13000,272.706,58.227,66.560,485.775,-200.280,40.972,-88.780,-225.600,450.940
774,52853.26000,301.205,24.094,112.640,476.999,-218.813,35.591,-249.780,-138.600,441.940
775,52853.67000,278.603,-44.173,125.952,472.115,-229.908,33.359,18.220,-136.600,581.940
776,52853.109000,256.000,-49.192,116.736,461.488,-246.438,37.964,226.220,-25.600,523.940
777,52853.157000,229.466,-33.129,114.688,457.533,-259.255,40.670,109.220,-24.600,343.940
778,52853.190000,237.328,-34.133,105.472,455.666,-257.448,40.705,38.220,41.400,237.940
779,52853.226000,215.708,-35.137,130.048,448.891,-268.529,40.460,-77.780,39.400,161.940
780,52853.246000,206.864,-39.153,117.760,449.750,-274.930,40.325,-107.780,-61.600,129.940
781,52853.290000,205.881,-46.180,103.424,442.132,-277.895,34.282,-83.780,-116.600,164.940
782,52853.329000,202.933,-47.184,108.544,442.109,-279.708,35.238,6.220,-116.600,220.940
783,52853.366000,198.019,-61.239,122.880,432.622,-281.646,36.178,170.220,-140.600,257.940
784,52853.413000,208.829,-67.263,113.664,434.368,-292.575,37.937,437.220,-134.600,304.940
785,52853.448000,228.484,-68.267,109.568,427.692,-297.126,43.798,595.220,-140.600,294.940
786,52853.493000,235.363,-67.263,105.472,423.865,-300.743,48.689,663.220,-140.600,248.940
787,52853.506000,242.242,-73.286,99.328,421.046,-300.547,60.624,744.220,-90.600,167.940
788,52853.548000,253.052,-83.325,87.040,418.184,-303.157,69.516,928.220,-30.600,126.940
789,52853.601000,246.173,-83.325,80.896,422.065,-298.136,89.522,1265.220,55.400,72.940
790,52853.627000,229.466,-79.310,53.248,422.131,-296.595,121.383,1835.220,163.400,51.940
791,52853.673000,225.536,-67.263,35.840,422.414,-280.201,163.507,2321.220,347.400,63.940
792,52853.707000,248.138,-17.067,29.696,417.194,-251.817,213.835,2818.220,518.400,-26.060
793,52853.747000,226.518,97.380,63.488,412.823,-229.189,250.117,2990.220,601.400,-223.060
794,52853.768000,225.536,149.584,71.680,409.640,-189.084,289.757,2495.220,439.400,-282.060
795,52853.807000,220.622,134.525,87.040,412.018,-155.669,311.359,1352.220,157.400,-290.060
796,52853.852000,218.656,124.486,126.976,409.314,-146.428,317.520,512.220,82.400,-116.060
797,52853.887000,219.639,108.424,121.856,413.141,-143.571,320.570,91.220,31.400,-14.060
798,52853.927000,208.829,84.329,112.640,414.027,-148.120,321.469,-307.780,-25.600,167.940
799,52853.967000,208.829,63.247,102.400,410.987,-162.055,313.211,-392.780,-65.600,208.940
800,52853.987000,216.691,53.208,91.136,410.845,-171.412,303.065,-585.780,-127.600,191.940
801,52854.37000,220.622,52.204,95.232,412.592,-181.562,297.879,-534.780,-77.600,120.940
802,52854.75000,220.622,51.200,107.520,411.572,-186.292,290.814,-484.780,-141.600,40.940
803,52854.107000,231.432,48.188,88.064,414.343,-190.893,287.736,-466.780,-165.600,26.940
804,52854.148000,228.484,37.145,89.088,419.909,-197.524,272.684,-470.780,-161.600,23.940
805,52854.188000,233.397,32.125,95.232,419.731,-209.609,263.475,-431.780,-174.600,52.940
806,52854.230000,233.397,30.118,95.232,422.547,-210.605,257.490,-273.780,-143.600,79.940
807,52854.250000,233.397,28.110,101.376,419.602,-218.050,253.348,-189.780,-76.600,112.940
808,52854.291000,230.449,31.122,97.280,422.392,-221.657,254.270,-7.780,-18.600,167.940
809,52854.332000,217.674,31.122,111.616,421.396,-225.334,254.191,76.220,80.400,203.940
810,52854.372000,199.002,35.137,117.760,414.791,-224.427,258.179,148.220,112.400,247.940
811,52854.418000,202.933,50.196,99.328,413.836,-225.317,260.148,184.220,117.400,297.940
812,52854.452000,217.674,47.184,98.304,405.152,-238.158,264.835,71.220,193.400,390.940
813,52854.472000,216.691,35.137,80.896,394.709,-241.005,266.748,-58.780,204.400,511.940
814,52854.518000,234.380,22.086,79.872,391.776,-248.293,270.567,-121.780,256.400,697.940
815,52854.552000,234.380,-30.118,73.728,375.416,-268.641,271.104,-131.780,254.400,826.940
816,52854.587000,251.086,-47.184,59.392,361.960,-284.332,273.734,23.220,144.400,752.940
817,52854.628000,284.499,-68.267,88.064,351.384,-297.198,278.418,146.220,209.400,622.940
818,52854.672000,309.067,-60.235,96.256,338.140,-298.094,288.326,553.220,148.400,269.940
819,52854.713000,293.344,-43.169,106.496,334.482,-289.723,297.450,794.220,167.400,113.940
820,52854.727000,279.585,-38.149,95.232,335.682,-272.109,307.773,726.220,59.400,9.940
821,52854.767000,246.173,-31.122,91.136,336.706,-267.340,316.828,494.220,-30.600,-55.060
822,52854.817000,207.846,-37.145,80.896,340.623,-258.051,321.010,341.220,-122.600,-88.060
823,52854.850000,198.019,-42.165,62.464,348.251,-253.428,318.136,294.220,-245.600,-126.060
824,52854.893000,188.192,-60.235,66.560,355.041,-241.392,320.391,505.220,-391.600,-188.060
825,52854.927000,218.656,-8.031,125.952,358.040,-230.244,326.601,701.220,-267.600,-312.060
826,52854.948000,246.173,11.043,138.240,367.813,-208.015,333.056,874.220,-87.600,-527.060
827,52854.991000,238.311,46.180,165.888,374.746,-185.842,338.512,692.220,-24.600,-505.060
828,52855.39000,215.708,59.231,133.120,383.478,-170.117,340.849,533.220,-151.600,-392.060
829,52855.68000,217.674,63.247,116.736,386.358,-167.292,342.902,268.220,-151.600,-146.060
830,52855.108000,198.019,53.208,107.520,389.176,-168.268,337.912,-30.780,-149.600,-41.060
831,52855.151000,193.106,36.141,79.872,391.062,-168.321,333.935,-349.780,-316.600,-72.060
832,52855.191000,206.864,48.188,62.464,404.210,-173.935,318.916,-437.780,-331.600,-136.060
833,52855.216000,209.812,50.196,62.464,406.110,-172.293,308.013,-506.780,-262.600,-212.060
834,52855.248000,216.691,56.220,68.608,411.733,-175.161,298.014,-631.780,-204.600,-242.060
835,52855.289000,232.415,55.216,56.320,419.196,-182.488,292.895,-704.780,-142.600,-233.060
836,52855.331000,230.449,48.188,49.152,422.014,-182.685,280.960,-920.780,-109.600,-154.060
837,52855.368000,282.534,40.157,56.320,421.814,-195.803,265.761,-880.780,42.400,-33.060
838,52855.413000,268.775,2.008,89.088,419.699,-211.520,259.455,-1073.780,148.400,90.940
839,52855.433000,278.603,7.027,86.016,416.670,-224.559,250.222,-1115.780,162.400,103.940
840,52855.469000,256.983,-9.035,87.040,411.617,-246.862,236.809,-1077.780,194.400,124.940
841,52855.535000,266.810,-16.063,81.920,411.505,-254.328,229.688,-1123.780,208.400,97.940
842,52855.549000,258.948,-24.094,82.944,406.621,-264.643,220.509,-923.780,163.400,27.940
843,52855.589000,235.363,-13.051,74.752,407.499,-269.290,216.433,-477.780,207.400,-129.060
844,52855.632000,228.484,5.020,41.984,415.169,-261.860,216.602,-178.780,-34.600,-267.060
845,52855.672000,225.536,7.027,47.104,416.078,-264.596,216.546,44.220,11.400,-234.060
846,52855.692000,224.553,9.035,53.248,417.180,-252.752,212.821,103.220,57.400,-213.060
847,52855.742000,235.363,6.024,66.560,416.265,-250.854,216.838,88.220,69.400,-81.060
848,52855.771000,253.052,18.071,73.728,417.270,-247.080,221.893,84.220,73.400,-22.060
849,52855.813000,242.242,18.071,76.800,416.270,-250.796,219.823,-27.780,6.400,-17.060
850,52855.853000,251.086,9.035,74.752,417.226,-249.906,217.855,-39.780,54.400,31.940
851,52855.888000,253.052,0.000,82.944,413.461,-248.943,222.843,-33.780,87.400,56.940
852,52855.923000,248.138,-3.012,79.872,409.630,-252.618,224.748,39.220,60.400,68.940
853,52855.950000,244.207,-3.012,61.440,405.785,-257.210,226.634,177.220,43.400,103.940
854,52855.996000,234.380,-2.008,54.272,409.668,-250.630,232.747,271.220,84.400,115.940
855,52856.38000,234.380,-7.027,58.368,404.991,-247.749,242.748,316.220,28.400,68.940
856,52856.96000,236.345,-6.024,64.512,404.997,-247.671,246.729,383.220,26.400,48.940
857,52856.117000,247.155,-6.024,75.776,401.239,-245.869,247.756,318.220,29.400,33.940
858,52856.151000,256.000,-4.016,77.824,395.646,-240.330,253.833,260.220,-21.600,-13.060
859,52856.172000,257.965,-8.031,81.920,401.338,-239.319,254.858,218.220,-75.600,-60.060
860,52856.212000,249.121,-17.067,81.920,402.323,-236.539,255.913,127.220,-152.600,-140.060
861,52856.253000,240.276,-18.071,78.848,408.049,-232.819,255.006,176.220,-262.600,-195.060
862,52856.293000,293.344,6.024,79.872,413.840,-224.499,255.192,357.220,-168.600,-298.060
863,52856.347000,260.914,45.176,129.024,416.776,-217.931,261.304,372.220,-67.600,-403.060
864,52856.381000,219.639,42.165,120.832,428.366,-200.413,259.704,239.220,-246.600,-491.060
865,52856.421000,212.760,58.227,88.064,435.067,-194.810,260.828,50.220,-98.600,-407.060
866,52856.434000,211.777,56.220,121.856,432.269,-192.060,262.872,119.220,87.400,-319.060
867,52856.474000,216.691,64.251,143.360,430.510,-182.826,268.039,244.220,156.400,-192.060
868,52856.514000,189.175,70.275,142.336,435.371,-173.543,271.228,-10.780,124.400,-190.060
869,52856.549000,185.244,73.286,139.264,432.516,-175.316,276.159,-129.780,147.400,-152.060
870,52856.598000,184.261,76.298,141.312,434.467,-170.749,274.270,-164.780,93.400,-87.060
871,52856.633000,185.244,71.278,140.288,429.602,-180.850,276.037,-224.780,22.400,-72.060
872,52856.649000,193.106,74.290,151.552,434.350,-179.053,271.109,-449.780,-43.600,-17.060
873,52856.693000,199.002,65.255,157.696,433.299,-186.453,267.966,-491.780,-85.600,-39.060
874,52856.733000,201.950,63.247,131.072,437.915,-193.895,258.863,-562.780,-137.600,-70.060
875,52856.787000,224.553,60.235,130.048,434.999,-198.689,249.805,-540.780,-93.600,-75.060
876,52856.809000,220.622,86.337,125.952,440.660,-198.809,239.864,-685.780,-105.600,-137.060
877,52856.849000,210.795,82.322,114.688,435.759,-209.320,220.735,-946.780,-219.600,-164.060
878,52856.889000,204.898,75.294,91.136,441.402,-211.194,214.736,-1288.780,-135.600,-149.060
879,52856.909000,206.864,71.278,81.920,444.996,-222.626,189.632,-1555.780,-126.600,-201.060
880,52856.950000,225.536,40.157,71.680,446.670,-235.934,163.490,-1971.780,-110.600,-165.060
881,52856.989000,228.484,-25.098,77.824,449.293,-248.431,131.400,-2191.780,-163.600,-63.060
882,52857.31000,248.138,-46.180,92.160,448.084,-264.603,101.215,-2175.780,-64.600,-47.060
883,52857.73000,250.104,-47.184,97.280,446.101,-269.540,84.198,-1781.780,19.400,-176.060
884,52857.114000,269.758,-46.180,100.352,447.944,-270.861,62.291,-1389.780,62.400,-193.060
885,52857.129000,263.862,-37.145,94.208,453.720,-261.937,46.575,-1076.780,-50.600,-309.060
886,52857.169000,228.484,-29.114,83.968,456.592,-257.670,28.766,-883.780,-83.600,-367.060
887,52857.211000,221.605,-39.153,94.208,464.299,-246.732,21.054,-625.780,-72.600,-316.060
888,52857.252000,222.587,-43.169,112.640,464.259,-248.740,12.059,-383.780,-53.600,-167.060
889,52857.301000,230.449,-45.176,124.928,466.202,-245.051,12.140,-271.780,2.400,-112.060
890,52857.334000,226.518,-34.133,116.736,471.975,-237.705,9.321,-96.780,-21.600,-97.060
891,52857.383000,225.536,-22.086,114.688,474.751,-242.248,9.229,111.220,-54.600,-76.060
892,52857.389000,222.587,-20.078,106.496,472.880,-240.480,7.274,235.220,-162.600,-85.060
893,52857.431000,226.518,-22.086,103.424,475.846,-231.262,8.470,349.220,-213.600,-47.060
894,52857.473000,218.656,-24.094,101.376,475.846,-231.262,8.470,378.220,-289.600,0.940
895,52857.509000,237.328,-23.090,104.448,473.870,-236.881,3.374,405.220,-279.600,44.940
896,52857.549000,229.466,-26.102,106.496,474.796,-238.643,6.322,448.220,-247.600,106.940
897,52857.591000,215.708,-27.106,100.352,471.852,-246.068,3.175,426.220,-240.600,126.940
898,52857.611000,209.812,-25.098,88.064,474.728,-243.282,3.239,447.220,-207.600,130.940
899,52857.652000,209.812,-28.110,82.944,473.739,-246.881,7.139,463.220,-150.600,164.940
900,52857.699000,230.449,-30.118,87.040,466.203,-244.271,5.195,426.220,-58.600,184.940
901,52857.733000,229.466,-29.114,80.896,469.028,-245.929,12.126,322.220,-28.600,193.940
902,52857.773000,234.380,-31.122,74.752,469.944,-248.587,16.049,240.220,25.400,184.940
903,52857.819000,232.415,-25.098,65.536,466.165,-248.559,20.023,214.220,51.400,120.940
904,52857.856000,230.449,-17.067,56.320,469.882,-253.928,23.893,141.220,70.400,47.940
905,52857.874000,251.086,-4.016,65.536,467.040,-254.764,29.838,256.220,184.400,-31.060
906,52857.911000,267.793,22.086,81.920,466.202,-247.350,34.968,352.220,182.400,-138.060
907,52857.958000,306.119,37.145,88.064,469.096,-244.369,44.982,292.220,260.400,-155.060
908,52858.2000,299.240,44.173,100.352,474.838,-240.454,54.026,286.220,236.400,-119.060
909,52858.42000,248.138,38.149,92.160,479.658,-234.739,62.112,162.220,94.400,-74.060
910,52858.84000,225.536,27.106,52.224,472.143,-231.116,65.162,189.220,68.400,-19.060
911,52858.101000,230.449,29.114,52.224,475.996,-226.426,68.251,202.220,110.400,-18.060
912,52858.138000,245.190,46.180,74.752,474.077,-229.063,75.154,186.220,192.400,-78.060
913,52858.171000,248.138,53.208,74.752,477.983,-220.670,80.312,93.220,188.400,-156.060
914,52858.223000,235.363,42.165,73.728,476.014,-226.212,79.197,-126.780,111.400,-119.060
915,52858.251000,230.449,31.122,69.632,476.044,-224.321,82.221,-279.780,32.400,-52.060
916,52858.296000,226.518,22.086,66.560,480.833,-219.736,79.341,-309.780,19.400,-8.060
917,52858.338000,234.380,15.059,66.560,480.789,-222.563,75.303,-205.780,86.400,-68.060
918,52858.352000,238.311,18.071,72.704,478.973,-217.071,76.412,-138.780,142.400,-81.060
919,52858.391000,230.449,30.118,80.896,477.049,-219.767,80.330,-37.780,163.400,-122.060
920,52858.460000,239.294,32.125,70.656,479.995,-212.322,84.471,-39.780,86.400,-90.060
921,52858.496000,241.259,32.125,80.896,479.973,-214.115,86.422,28.220,237.400,-24.060
922,52858.512000,242.242,40.157,91.136,484.738,-212.123,91.445,74.220,216.400,-11.060
923,52858.553000,245.190,52.204,75.776,480.886,-217.572,96.296,-132.780,183.400,-9.060
924,52858.588000,232.415,46.180,80.896,477.142,-214.835,98.338,21.220,143.400,77.940
925,52858.616000,233.397,54.212,80.896,478.022,-220.221,103.198,-75.780,127.400,108.940
926,52858.656000,226.518,48.188,77.824,472.256,-226.709,103.052,-40.780,37.400,121.940
927,52858.698000,233.397,57.224,60.416,471.326,-224.987,98.114,-83.780,-71.600,135.940
928,52858.736000,230.449,49.192,57.344,470.260,-234.103,100.902,-60.780,-107.600,143.940
929,52858.776000,229.466,43.169,63.488,464.511,-238.856,95.819,-9.780,-82.600,197.940
930,52858.811000,222.587,36.141,68.608,464.417,-245.347,91.702,-70.780,-88.600,239.940
931,52858.831000,255.017,22.086,92.160,457.777,-246.389,89.681,-332.780,-48.600,234.940
932,52858.879000,295.309,-10.039,149.504,450.964,-260.238,88.382,-247.780,78.400,202.940
933,52858.914000,265.827,-73.286,162.816,447.125,-264.772,93.253,-57.780,166.400,358.940
934,52858.958000,242.242,-95.373,152.576,434.692,-274.934,96.997,65.220,225.400,432.940
935,52858.992000,207.846,-62.243,158.720,429.797,-287.685,103.680,126.220,272.400,202.940
936,52859.32000,194.088,-43.169,161.792,426.935,-290.296,112.572,217.220,248.400,-31.060
937,52859.76000,186.226,-40.157,159.744,426.033,-287.482,116.609,168.220,172.400,-77.060
938,52859.118000,188.192,-44.173,149.504,423.292,-280.989,122.711,5.220,122.400,-59.060
939,52859.136000,189.175,-42.165,160.768,425.147,-283.712,122.656,-49.780,90.400,-32.060
940,52859.182000,193.106,-39.153,162.816,423.223,-286.408,126.575,-30.780,27.400,12.940
941,52859.222000,193.106,-39.153,160.768,420.354,-288.336,123.545,17.220,-30.600,33.940
942,52859.262000,196.054,-42.165,161.792,421.337,-285.595,122.611,74.220,-94.600,49.940
943,52859.297000,202.933,-39.153,145.408,421.249,-292.008,122.474,143.220,-172.600,49.940
944,52859.312000,212.760,-53.208,145.408,422.245,-288.331,122.554,129.220,-122.600,77.940
945,52859.357000,202.933,-59.231,143.360,420.265,-294.769,122.414,280.220,-93.600,70.940
946,52859.396000,206.864,-54.212,137.216,418.459,-289.160,129.493,431.220,-36.600,79.940
947,52859.443000,193.106,-50.196,129.024,417.539,-288.100,137.471,682.220,-60.600,85.940
948,52859.472000,187.209,-45.176,106.496,422.346,-283.301,145.537,637.220,-112.600,85.940
949,52859.512000,251.086,-26.102,113.664,419.546,-281.350,153.532,722.220,15.400,55.940
950,52859.563000,228.484,12.047,131.072,421.510,-277.407,166.549,759.220,-52.600,-59.060
951,52859.583000,238.311,27.106,115.712,425.398,-269.989,168.702,607.220,-129.600,-104.060
952,52859.612000,229.466,26.102,108.544,433.152,-256.965,173.964,383.220,-250.600,-149.060
953,52859.653000,221.605,24.094,105.472,437.904,-255.129,171.026,340.220,-348.600,-177.060
954,52859.692000,205.881,31.122,79.872,443.611,-252.403,166.119,306.220,-475.600,-209.060
955,52859.733000,198.019,44.173,72.704,449.477,-237.807,159.476,262.220,-495.600,-279.060
956,52859.772000,215.708,31.122,60.416,455.201,-233.346,149.633,270.220,-444.600,-280.060
957,52859.792000,278.603,35.137,80.896,459.066,-227.741,152.742,332.220,-119.600,-241.060
958,52859.832000,275.655,-19.075,113.664,461.960,-223.980,155.810,750.220,55.400,1.940
959,52859.872000,257.965,-19.075,112.640,461.137,-216.391,169.896,888.220,118.400,182.940
960,52859.918000,252.069,0.000,84.992,456.350,-222.495,188.657,1151.220,266.400,273.940
961,52859.953000,235.363,6.024,88.064,449.039,-205.695,209.891,1308.220,361.400,237.940
962,52859.996000,201.950,56.220,79.872,446.404,-193.335,235.016,1456.220,314.400,99.940
963,52860.49000,212.760,93.365,82.944,444.633,-185.777,248.104,1294.220,308.400,-37.060
964,52860.71000,220.622,92.361,103.424,441.155,-165.301,267.433,1123.220,231.400,-80.060
965,52860.97000,223.570,101.396,118.784,440.380,-154.066,280.601,696.220,246.400,-81.060
966,52860.133000,220.622,101.396,126.976,432.871,-150.365,287.632,446.220,190.400,-12.060
967,52860.193000,213.743,91.357,132.096,434.888,-141.959,294.776,248.220,208.400,95.940
968,52860.217000,204.898,83.325,123.904,429.165,-145.640,297.673,156.220,92.400,151.940
969,52860.272000,203.916,82.322,108.544,429.139,-147.491,296.639,83.220,-34.600,163.940
970,52860.281000,202.933,75.294,108.544,431.028,-147.505,294.652,18.220,-112.600,170.940
971,52860.318000,207.846,75.294,103.424,429.925,-158.590,290.436,-31.780,-165.600,147.940
972,52860.384000,210.795,75.294,97.280,431.814,-158.604,288.449,-27.780,-164.600,149.940
973,52860.403000,219.639,63.247,101.376,435.507,-165.025,285.334,-32.780,-146.600,215.940
974,52860.450000,215.708,60.235,101.376,435.399,-172.452,280.203,-2.780,-143.600,237.940
975,52860.477000,223.570,58.227,107.520,431.548,-177.121,278.108,-40.780,-96.600,282.940
976,52860.516000,223.570,51.200,112.640,432.505,-176.212,277.134,45.220,-58.600,321.940
977,52860.551000,216.691,46.180,100.352,426.729,-183.597,277.963,61.220,-56.600,326.940
978,52860.589000,212.760,47.184,99.328,425.699,-189.204,272.869,79.220,-49.600,327.940
979,52860.619000,213.743,38.149,103.424,422.838,-191.034,274.815,42.220,-16.600,337.940
980,52860.657000,204.898,40.157,97.280,423.583,-205.700,273.510,23.220,-7.600,326.940
981,52860.697000,216.691,32.125,96.256,416.955,-205.826,271.508,-78.780,71.400,343.940
982,52860.737000,227.501,29.114,91.136,413.008,-217.786,271.248,-197.780,123.400,326.940
983,52860.777000,243.225,14.055,96.256,403.459,-224.304,272.089,-400.780,223.400,360.940
984,52860.798000,242.242,1.004,95.232,398.410,-247.329,268.608,-478.780,244.400,351.940
985,52860.842000,242.242,-12.047,96.256,393.698,-245.617,265.654,-494.780,263.400,328.940
986,52860.879000,237.328,-24.094,97.280,386.921,-256.738,263.418,-546.780,273.400,239.940
987,52860.913000,267.793,-28.110,92.160,379.223,-266.018,262.214,-444.780,303.400,131.940
988,52860.967000,279.585,-30.118,129.024,373.485,-270.655,263.102,-386.780,381.400,-5.060
989,52861.8000,266.810,-28.110,137.216,375.372,-271.468,267.066,-286.780,316.400,-76.060
990,52861.27000,250.104,-9.035,111.616,372.578,-267.899,264.153,-78.780,260.400,-158.060
991,52861.68000,240.276,-11.043,113.664,371.640,-267.814,269.127,50.220,251.400,-174.060
992,52861.94000,233.397,-4.016,92.160,375.497,-263.066,275.202,-59.780,121.400,-227.060
993,52861.134000,225.536,-3.012,82.944,380.201,-264.875,273.181,-45.780,60.400,-155.060
994,52861.189000,216.691,-5.020,82.944,379.343,-258.455,274.311,-119.780,-24.600,-147.060
995,52861.217000,220.622,-1.004,89.088,383.102,-260.257,273.283,-75.780,-13.600,-98.060
996,52861.263000,220.622,-2.008,92.160,385.011,-258.497,268.351,-20.780,-17.600,-49.060
997,52861.277000,219.639,-2.008,96.256,382.162,-259.431,269.321,27.220,-26.600,-14.060
998,52861.316000,223.570,-1.004,94.208,385.991,-256.555,273.366,92.220,-9.600,17.940
999,52861.358000,226.518,0.000,96.256,382.154,-260.289,272.287,135.220,17.400,44.940
1000,52861.398000,231.432,-2.008,101.376,384.037,-261.141,274.261,185.220,17.400,55.940
1001,52861.443000,229.466,-2.008,99.328,385.080,-254.618,279.374,261.220,-13.600,49.940
1002,52861.476000,223.570,1.004,111.616,380.371,-252.868,278.410,189.220,50.400,48.940
1003,52861.494000,227.501,5.020,116.736,381.376,-249.093,283.465,140.220,64.400,1.940
1004,52861.547000,219.639,7.027,119.808,383.322,-245.365,285.536,35.220,43.400,-46.060
1005,52861.584000,220.622,11.043,104.448,385.210,-246.158,290.495,-50.780,3.400,-83.060
1006,52861.649000,223.570,3.012,100.352,384.236,-248.042,288.465,-211.780,140.400,-83.060
1007,52861.666000,225.536,-3.012,119.808,387.121,-244.379,286.558,-300.780,166.400,-128.060
1008,52861.699000,222.587,-6.024,120.832,388.948,-248.974,284.473,-234.780,104.400,-187.060
1009,52861.734000,225.536,-1.004,113.664,390.886,-245.343,281.569,-202.780,36.400,-245.060
1010,52861.754000,225.536,-3.012,111.616,391.845,-244.414,281.591,-235.780,60.400,-277.060
1011,52861.834000,221.605,-9.035,119.808,398.553,-237.953,279.749,-167.780,0.400,-352.060
1012,52861.852000,226.518,-6.024,113.664,402.388,-234.238,279.834,-93.780,8.400,-409.060
1013,52861.878000,224.553,-1.004,118.784,408.113,-230.538,277.931,-161.780,-14.600,-469.060
1014,52861.914000,219.639,-1.004,113.664,415.785,-223.089,279.096,-1.780,-56.600,-482.060
1015,52861.954000,216.691,8.031,121.856,423.608,-203.867,273.549,-64.780,-15.600,-495.060
1016,52861.975000,216.691,13.051,119.808,430.298,-199.160,275.648,43.220,-34.600,-504.060
1017,52862.18000,215.708,33.129,118.784,433.260,-189.981,274.853,103.220,27.400,-525.060
1018,52862.58000,210.795,55.216,128.000,440.052,-177.925,278.104,157.220,46.400,-521.060
1019,52862.97000,210.795,72.282,133.120,445.899,-165.862,282.348,186.220,30.400,-485.060
1020,52862.138000,205.881,83.325,130.048,447.111,-146.572,284.749,128.220,16.400,-431.060
1021,52862.184000,204.898,82.322,126.976,452.839,-142.832,284.837,73.220,22.400,-377.060
1022,52862.221000,204.898,83.325,123.904,453.889,-135.452,286.985,13.220,18.400,-330.060
1023,52862.237000,205.881,84.329,131.072,451.242,-121.689,290.258,-26.780,-1.600,-290.060
1024,52862.277000,205.881,82.322,122.880,456.031,-117.104,287.379,11.220,-74.600,-235.060
1025,52862.323000,203.916,80.314,113.664,461.727,-115.275,283.448,24.220,-72.600,-228.060
1026,52862.366000,205.881,88.345,111.616,460.838,-111.545,287.504,89.220,-59.600,-212.060
1027,52862.402000,206.864,101.396,106.496,469.368,-109.737,280.593,115.220,-11.600,-185.060
1028,52862.439000,204.898,103.404,101.376,464.761,-100.638,280.780,103.220,-36.600,-131.060
1029,52862.459000,206.864,107.420,101.376,466.757,-93.245,282.930,88.220,-9.600,-30.060
1030,52862.508000,203.916,97.380,109.568,465.750,-97.818,283.825,29.220,13.400,7.940
1031,52862.534000,203.916,98.384,114.688,464.837,-95.901,288.838,21.220,40.400,62.940
1032,52862.582000,207.846,99.388,113.664,461.839,-107.809,290.569,9.220,19.400,121.940
1033,52862.616000,209.812,98.384,114.688,462.871,-101.403,289.713,-15.780,14.400,141.940
1034,52862.663000,208.829,95.373,109.568,457.095,-108.788,290.542,9.220,4.400,185.940
1035,52862.706000,207.846,92.361,108.544,458.049,-107.918,287.578,-15.780,-24.600,214.940
1036,52862.719000,207.846,91.357,109.568,454.056,-123.483,290.224,-7.780,-48.600,220.940
1037,52862.759000,209.812,90.353,107.520,455.981,-120.769,287.301,-61.780,-97.600,221.940
1038,52862.799000,207.846,92.361,104.448,454.907,-129.981,285.114,-97.780,-117.600,220.940
1039,52862.852000,212.760,89.349,107.520,454.711,-143.821,279.846,-164.780,-134.600,206.940
