Sample, Time, ACCX, ACCY, ACCZ, MAGX, MAGY, MAGZ, GYRX, GYRY, GYRZ
0,52461.31000,213.743,58.227,115.712,376.408,-138.190,386.276,-53.780,133.400,-20.060
1,52461.77000,211.777,61.239,123.904,377.343,-139.074,387.253,-48.780,122.400,-20.060
2,52461.97000,211.777,62.243,132.096,378.334,-136.235,391.294,-40.780,113.400,-15.060
3,52461.157000,210.795,61.239,133.120,373.636,-133.588,389.354,-37.780,99.400,-10.060
4,52461.187000,208.829,61.239,131.072,375.497,-136.253,392.284,-27.780,79.400,-3.060
5,52461.216000,205.881,61.239,132.096,373.543,-140.839,393.178,-27.780,48.400,1.940
6,52461.268000,206.864,59.231,128.000,370.803,-133.567,392.334,-33.780,33.400,11.940
7,52461.296000,206.864,59.231,126.976,370.729,-139.044,393.212,-52.780,25.400,12.940
8,52461.337000,207.846,59.231,128.000,370.785,-134.542,389.329,-49.780,36.400,27.940
9,52461.351000,208.829,58.227,130.048,371.650,-140.864,393.175,-39.780,46.400,26.940
10,52461.391000,210.795,60.235,128.000,367.792,-146.391,394.046,-36.780,42.400,18.940
11,52461.434000,209.812,62.243,126.976,364.942,-147.325,395.017,-51.780,53.400,15.940
12,52461.474000,212.760,62.243,129.024,364.032,-144.609,394.078,-42.780,53.400,29.940
13,52461.514000,215.708,61.239,131.072,362.152,-143.718,394.095,-57.780,40.400,25.940
14,52461.556000,214.726,60.235,128.000,362.050,-151.067,392.943,-72.780,36.400,16.940
15,52461.602000,212.760,61.239,125.952,362.028,-152.860,394.894,-79.780,29.400,-3.060
16,52461.622000,208.829,57.224,122.880,362.021,-153.717,397.860,-72.780,41.400,-20.060
17,52461.651000,202.933,58.227,119.808,359.216,-151.045,395.924,-74.780,48.400,-30.060
18,52461.691000,205.881,66.259,124.928,357.347,-149.258,394.964,-105.780,110.400,-100.060
19,52461.732000,207.846,69.271,136.192,352.568,-152.946,396.868,-209.780,147.400,-163.060
20,52461.788000,199.002,63.247,132.096,351.531,-159.410,394.740,-295.780,76.400,-203.060
21,52461.816000,192.123,44.173,115.712,354.279,-165.825,392.618,-447.780,7.400,-184.060
22,52461.834000,231.432,20.078,128.000,352.330,-169.592,388.556,-543.780,109.400,-150.060
23,52461.882000,236.345,14.055,163.840,350.372,-174.237,386.465,-570.780,216.400,-184.060
24,52461.911000,219.639,31.122,155.648,347.381,-185.288,385.231,-497.780,151.400,-181.060
25,52461.951000,202.933,22.086,136.192,343.533,-189.918,385.127,-459.780,100.400,-185.060
26,52461.991000,203.916,19.075,130.048,345.419,-189.971,381.150,-362.780,101.400,-174.060
27,52462.51000,201.950,11.043,143.360,344.473,-189.984,381.148,-262.780,111.400,-145.060
28,52462.72000,202.933,8.031,150.528,338.673,-199.181,382.933,-53.780,121.400,-32.060
29,52462.99000,199.002,4.016,145.408,337.768,-196.406,384.980,77.220,111.400,20.940
30,52462.137000,193.106,11.043,150.528,335.041,-188.978,392.097,199.220,127.400,34.940
31,52462.171000,193.106,18.071,155.648,332.219,-188.041,395.096,368.220,110.400,42.940
32,52462.218000,197.036,22.086,158.720,328.531,-181.561,401.197,491.220,82.400,81.940
33,52462.252000,198.019,25.098,158.720,326.776,-172.288,408.354,541.220,15.400,124.940
34,52462.298000,192.123,24.094,150.528,324.966,-166.719,413.443,558.220,-87.600,181.940
35,52462.328000,223.570,43.169,166.912,321.297,-158.484,415.602,599.220,-30.600,180.940
36,52462.351000,207.846,64.251,158.720,327.194,-142.757,419.924,534.220,-75.600,183.940
37,52462.391000,219.639,77.302,161.792,323.431,-141.774,425.907,361.220,14.400,114.940
38,52462.433000,194.088,77.302,173.056,321.686,-131.604,432.089,372.220,88.400,124.940
39,52462.473000,183.278,78.306,169.984,316.997,-128.860,435.124,523.220,81.400,177.940
40,52462.518000,173.451,76.298,155.648,314.224,-124.278,437.207,509.220,132.400,160.940
41,52462.553000,175.417,90.353,168.960,309.698,-110.383,448.437,464.220,176.400,62.940
42,52462.576000,164.607,103.404,171.008,306.025,-102.968,455.552,365.220,114.400,-23.060
43,52462.619000,156.745,113.443,165.888,301.446,-91.998,457.768,248.220,61.400,-116.060
44,52462.656000,148.883,106.416,158.720,308.081,-91.013,456.804,98.220,-30.600,-157.060
45,52462.692000,148.883,111.435,171.008,309.079,-87.317,457.879,-25.780,-56.600,-206.060
46,52462.731000,145.935,112.439,163.840,311.846,-91.977,451.816,-138.780,-150.600,-217.060
47,52462.772000,141.021,102.400,154.624,315.699,-86.508,447.959,-162.780,-176.600,-171.060
48,52462.792000,172.468,110.431,183.296,324.122,-92.887,443.857,-225.780,-93.600,-176.060
49,52462.836000,182.296,117.459,163.840,326.944,-93.824,440.858,-146.780,-167.600,-164.060
50,52462.877000,178.365,122.478,152.576,327.003,-89.282,438.965,-23.780,-169.600,-110.060
51,52462.912000,174.434,111.435,148.480,335.552,-86.480,436.054,1.220,-187.600,2.940
52,52462.952000,172.468,106.416,144.384,335.466,-92.873,436.912,-14.780,-203.600,137.940
53,52462.992000,170.503,105.412,132.096,343.047,-91.117,428.009,-6.780,-178.600,210.940
54,52463.32000,171.486,104.408,132.096,343.800,-104.905,424.733,-5.780,-133.600,226.940
55,52463.59000,173.451,101.396,133.120,341.859,-108.575,425.646,-38.780,-84.600,240.940
56,52463.94000,184.261,97.380,139.264,343.672,-114.105,422.547,-35.780,-18.600,270.940
57,52463.134000,204.898,84.329,136.192,343.640,-116.795,425.474,-26.780,39.400,299.940
58,52463.174000,205.881,75.294,141.312,334.991,-126.147,421.284,-20.780,82.400,317.940
59,52463.214000,201.950,65.255,145.408,333.957,-132.572,421.145,-8.780,55.400,297.940
60,52463.258000,204.898,55.216,135.168,328.270,-133.525,423.106,-13.780,68.400,282.940
61,52463.278000,211.777,45.176,144.384,326.390,-132.633,423.122,12.220,71.400,253.940
62,52463.314000,214.726,38.149,149.504,325.381,-137.227,423.023,9.220,89.400,208.940
63,52463.354000,227.501,36.141,150.528,320.516,-147.328,424.790,-2.780,91.400,165.940
64,52463.392000,226.518,28.110,156.672,317.752,-141.868,424.902,-31.780,109.400,155.940
65,52463.432000,216.691,28.110,154.624,317.505,-160.152,426.502,-47.780,52.400,112.940
66,52463.482000,212.760,28.110,145.408,314.711,-156.583,423.590,-63.780,5.400,108.940
67,52463.518000,206.864,24.094,139.264,314.761,-152.919,423.668,-100.780,-14.600,111.940
68,52463.538000,207.846,20.078,142.336,317.472,-162.082,421.487,-118.780,-33.600,110.940
69,52463.572000,214.726,15.059,141.312,312.724,-163.099,419.470,-92.780,-43.600,128.940
70,52463.618000,211.777,11.043,138.240,318.360,-165.831,416.436,-78.780,-67.600,149.940
71,52463.657000,210.795,10.039,134.144,314.494,-171.437,413.327,-69.780,-82.600,148.940
72,52463.693000,217.674,8.031,132.096,314.403,-177.889,411.200,-25.780,-89.600,143.940
73,52463.738000,212.760,8.031,132.096,316.330,-175.154,409.272,49.220,-100.600,117.940
74,52463.752000,213.743,10.039,125.952,319.160,-175.994,411.248,82.220,-100.600,87.940
75,52463.806000,217.674,12.047,125.952,322.058,-171.415,409.360,77.220,-85.600,41.940
76,52463.836000,216.691,12.047,123.904,323.872,-176.926,407.256,45.220,-90.600,6.940
77,52463.901000,218.656,10.039,125.952,324.865,-173.288,405.346,3.220,-95.600,-14.060
78,52463.917000,219.639,9.035,124.928,326.763,-173.204,408.334,-33.780,-104.600,-47.060
79,52463.983000,216.691,6.024,123.904,327.776,-167.792,403.478,-14.780,-110.600,-60.060
80,52463.999000,212.760,5.020,130.048,331.472,-174.175,402.353,-27.780,-131.600,-75.060
81,52464.19000,214.726,4.016,132.096,338.191,-166.817,399.535,43.220,-142.600,-76.060
82,52464.62000,219.639,11.043,143.360,342.932,-165.877,397.573,76.220,-106.600,-92.060
83,52464.97000,223.570,13.051,142.336,344.851,-164.000,398.611,192.220,-108.600,-65.060
84,52464.136000,221.605,15.059,137.216,348.787,-152.957,398.851,255.220,-135.600,-67.060
85,52464.177000,219.639,34.133,129.024,355.487,-147.353,399.975,274.220,-150.600,-91.060
86,52464.217000,215.708,60.235,111.616,358.385,-143.553,405.034,409.220,-193.600,-162.060
87,52464.267000,216.691,98.384,106.496,361.304,-137.181,401.195,427.220,-167.600,-222.060
88,52464.276000,213.743,110.431,108.544,367.282,-115.119,401.673,414.220,-113.600,-217.060
89,52464.332000,206.864,110.431,106.496,369.267,-108.622,404.798,389.220,-107.600,-187.060
90,52464.359000,202.933,108.424,109.568,377.027,-94.761,406.100,228.220,-71.600,-143.060
91,52464.394000,192.123,100.392,106.496,378.907,-95.652,406.083,19.220,-121.600,-111.060
92,52464.434000,191.140,99.388,95.232,383.693,-91.106,401.214,-33.780,-128.600,-116.060
93,52464.473000,192.123,105.412,99.328,381.733,-95.770,398.128,-103.780,-118.600,-138.060
94,52464.497000,201.950,101.396,99.328,385.488,-97.611,395.110,-174.780,-154.600,-137.060
95,52464.533000,230.449,91.357,116.736,386.547,-89.354,395.288,-157.780,-79.600,-116.060
96,52464.576000,220.622,79.310,129.024,389.322,-93.137,387.254,-50.780,-55.600,-22.060
97,52464.618000,219.639,74.290,128.000,389.315,-93.994,390.220,-38.780,-70.600,52.940
98,52464.663000,217.674,67.263,111.616,388.174,-107.827,385.945,-168.780,-78.600,114.940
99,52464.698000,212.760,62.243,108.544,392.006,-104.151,384.040,-246.780,-71.600,142.940
100,52464.743000,218.656,52.204,109.568,388.075,-114.376,378.843,-219.780,-70.600,144.940
101,52464.762000,216.691,48.188,108.544,392.743,-118.914,377.759,-279.780,-94.600,116.940
102,52464.796000,217.674,45.176,108.544,389.713,-132.733,375.471,-225.780,-61.600,127.940
103,52464.836000,218.656,40.157,106.496,387.865,-129.152,372.561,-125.780,-76.600,143.940
104,52464.874000,223.570,40.157,106.496,385.932,-131.964,370.509,-33.780,-26.600,148.940
105,52464.914000,223.570,43.169,111.616,387.757,-136.578,367.429,35.220,8.400,151.940
106,52464.954000,222.587,40.157,108.544,382.941,-143.015,369.274,82.220,0.400,149.940
107,52464.982000,223.570,43.169,106.496,382.985,-140.188,373.313,78.220,36.400,130.940
108,52465.22000,221.605,46.180,106.496,381.989,-143.865,373.233,66.220,29.400,109.940
109,52465.58000,226.518,42.165,106.496,381.010,-146.568,376.158,91.220,52.400,92.940
110,52465.112000,225.536,42.165,111.616,378.212,-143.818,378.202,89.220,74.400,80.940
111,52465.139000,224.553,46.180,111.616,377.228,-146.579,378.142,77.220,81.400,44.940
112,52465.173000,223.570,45.176,109.568,375.452,-138.319,380.304,89.220,77.400,18.940
113,52465.213000,220.622,50.196,111.616,373.600,-135.557,382.350,79.220,89.400,-0.060
114,52465.238000,218.656,50.196,112.640,371.701,-136.420,386.307,72.220,91.400,-5.060
115,52465.274000,220.622,52.204,115.712,367.855,-141.031,387.198,35.220,72.400,-18.060
116,52465.321000,220.622,51.200,110.592,371.703,-136.400,387.302,-5.780,60.400,-22.060
117,52465.363000,218.656,51.200,117.760,371.683,-138.174,390.248,-46.780,53.400,-28.060
118,52465.398000,217.674,50.196,115.712,366.901,-141.901,390.162,-65.780,24.400,-35.060
119,52465.438000,217.674,50.196,115.712,367.955,-133.702,387.354,-79.780,26.400,-35.060
120,52465.471000,217.674,50.196,117.760,367.824,-143.701,391.119,-90.780,29.400,-35.060
121,52465.499000,216.691,49.192,115.712,366.014,-137.372,388.268,-90.780,25.400,-36.060
122,52465.539000,217.674,49.192,116.736,368.792,-141.896,389.170,-95.780,28.400,-36.060
123,52465.586000,219.639,50.196,117.760,367.794,-145.592,388.095,-95.780,30.400,-37.060
124,52465.614000,216.691,47.184,117.760,368.750,-144.703,386.126,-90.780,21.400,-32.060
125,52465.654000,216.691,48.188,121.856,369.746,-141.026,386.206,-83.780,28.400,-30.060
126,52465.694000,218.656,47.184,120.832,365.853,-149.262,389.009,-68.780,27.400,-29.060
127,52465.714000,216.691,47.184,121.856,366.882,-142.895,386.162,-47.780,19.400,-14.060
128,52465.754000,216.691,49.192,122.880,366.781,-150.244,385.011,-49.780,21.400,-18.060
129,52465.794000,214.726,49.192,121.856,365.919,-144.643,391.097,-33.780,16.400,-21.060
130,52465.836000,215.708,49.192,121.856,364.047,-142.894,388.147,-25.780,18.400,-19.060
131,52465.876000,214.726,48.188,122.880,365.878,-147.430,389.048,-21.780,16.400,-18.060
132,52465.916000,215.708,48.188,121.856,362.065,-149.351,387.012,-13.780,10.400,-12.060
133,52465.936000,216.691,47.184,122.880,364.996,-142.842,390.139,-2.780,-3.600,-1.060
134,52465.987000,215.708,49.192,120.832,365.855,-149.243,390.004,2.220,-20.600,-4.060
135,52466.16000,215.708,49.192,122.880,364.902,-149.333,386.022,5.220,-26.600,4.940
136,52466.56000,216.691,48.188,122.880,365.909,-144.760,385.126,2.220,-35.600,9.940
137,52466.96000,214.726,51.200,120.832,364.911,-148.456,384.051,4.220,-30.600,6.940
138,52466.136000,216.691,50.196,118.784,365.933,-142.947,384.170,10.220,-20.600,2.940
139,52466.187000,215.708,49.192,121.856,367.794,-145.592,388.095,12.220,-13.600,4.940
140,52466.196000,217.674,49.192,115.712,366.778,-151.043,390.962,23.220,-25.600,3.940
141,52466.236000,216.691,48.188,122.880,368.623,-153.884,384.936,13.220,-6.600,-0.060
142,52466.276000,215.708,51.200,123.904,366.809,-148.373,387.040,13.220,-8.600,-5.060
143,52466.322000,217.674,49.192,123.904,368.678,-150.160,387.999,6.220,6.400,-10.060
144,52466.374000,214.726,47.184,115.712,365.936,-142.908,386.160,-24.780,37.400,3.940
145,52466.396000,210.795,54.212,112.640,368.773,-142.890,385.170,106.220,-38.600,17.940
146,52466.426000,230.449,57.224,91.136,372.583,-141.008,385.216,74.220,-162.600,0.940
147,52466.454000,223.570,59.231,132.096,376.362,-141.036,381.242,123.220,-272.600,56.940
148,52466.499000,222.587,57.224,123.904,381.137,-137.387,377.349,223.220,-324.600,84.940
149,52466.539000,222.587,48.188,122.880,383.935,-140.137,375.305,211.220,-323.600,62.940
150,52466.579000,215.708,43.169,116.736,389.633,-138.288,372.369,-11.780,-110.600,56.940
151,52466.614000,214.726,59.231,108.544,384.935,-136.421,377.375,-199.780,342.400,45.940
152,52466.654000,235.363,45.176,-2.048,381.044,-143.858,374.227,170.220,117.400,82.940
153,52466.674000,233.397,68.267,118.784,375.425,-140.171,379.270,29.220,212.400,38.940
154,52466.721000,227.501,60.235,139.264,375.314,-148.397,380.090,73.220,-11.600,85.940
155,52466.766000,227.501,45.176,131.072,374.429,-143.848,379.190,-11.780,-94.600,82.940
156,52466.801000,219.639,38.149,103.424,371.545,-146.712,375.147,-180.780,11.400,34.940
157,52466.841000,207.846,39.153,109.568,375.247,-153.036,377.007,-128.780,-49.600,57.940
158,52466.876000,219.639,39.153,104.448,371.369,-159.558,373.878,-179.780,111.400,29.940
159,52466.896000,220.622,41.161,116.736,365.658,-162.322,376.795,-61.780,96.400,36.940
160,52466.936000,228.484,41.161,116.736,368.541,-159.458,380.839,-22.780,120.400,20.940
161,52466.977000,224.553,41.161,116.736,367.620,-157.639,380.876,-20.780,122.400,12.940
162,52467.18000,219.639,42.165,119.808,362.878,-158.598,381.843,2.220,92.400,-1.060
163,52467.58000,215.708,42.165,117.760,361.972,-155.823,383.890,-26.780,60.400,-14.060
164,52467.98000,215.708,40.157,122.880,359.135,-155.841,384.880,-47.780,38.400,-16.060
165,52467.138000,218.656,38.149,117.760,361.958,-156.758,382.876,-57.780,22.400,-24.060
166,52467.163000,219.639,40.157,120.832,360.899,-165.016,382.698,-65.780,23.400,-30.060
167,52467.208000,218.656,39.153,121.856,359.967,-164.093,383.711,-58.780,6.400,-30.060
168,52467.237000,219.639,39.153,117.760,362.883,-158.539,384.828,-47.780,10.400,-32.060
169,52467.277000,218.656,39.153,121.856,360.912,-164.100,382.718,-60.780,18.400,-34.060
170,52467.317000,217.674,41.161,119.808,361.908,-160.423,382.798,-29.780,5.400,-26.060
171,52467.363000,216.691,41.161,121.856,361.855,-164.127,380.729,-29.780,20.400,-27.060
172,52467.397000,215.708,40.157,123.904,363.792,-161.275,384.772,-36.780,-1.600,-23.060
173,52467.423000,218.656,41.161,120.832,360.978,-159.480,384.806,-21.780,-10.600,-18.060
174,52467.468000,216.691,40.157,122.880,362.844,-161.307,383.775,-18.780,-15.600,-19.060
175,52467.498000,217.674,41.161,120.832,363.801,-160.398,382.801,-14.780,-23.600,-17.060
176,52467.538000,217.674,40.157,119.808,364.647,-167.715,382.647,-11.780,-24.600,-14.060
177,52467.577000,219.639,41.161,120.832,367.533,-164.052,380.739,1.220,-21.600,-9.060
178,52467.623000,217.674,42.165,120.832,367.523,-164.929,382.710,-8.780,-14.600,-3.060
179,52467.637000,216.691,45.176,121.856,365.718,-158.541,382.843,-3.780,-21.600,-11.060
180,52467.686000,220.622,49.192,118.784,364.733,-161.321,381.788,-6.780,-32.600,2.940
181,52467.734000,222.587,48.188,113.664,365.681,-161.289,382.785,-25.780,-42.600,9.940
182,52467.761000,228.484,45.176,116.736,367.609,-158.535,381.852,-22.780,31.400,9.940
183,52467.797000,230.449,47.184,126.976,365.701,-159.515,379.839,-18.780,25.400,19.940
184,52467.837000,209.812,57.224,81.920,363.746,-164.121,379.738,77.220,-115.600,-10.060
185,52467.878000,221.605,75.294,86.016,369.504,-157.711,375.904,-161.780,53.400,-217.060
186,52467.898000,200.967,61.239,100.352,370.338,-165.944,375.730,-388.780,68.400,-312.060
187,52467.938000,180.330,44.173,87.040,371.280,-165.990,372.747,-576.780,-41.600,-285.060
188,52467.978000,254.035,1.004,93.184,366.460,-171.705,364.661,-831.780,258.400,-248.060
189,52468.18000,241.259,13.051,129.024,364.439,-180.931,362.472,-711.780,288.400,-244.060
190,52468.66000,258.948,21.082,144.384,359.621,-187.387,363.322,-589.780,225.400,-301.060
191,52468.101000,240.276,28.110,99.328,363.414,-186.479,360.363,-466.780,34.400,-349.060
192,52468.121000,213.743,21.082,96.256,363.284,-195.699,357.183,-518.780,114.400,-376.060
193,52468.158000,207.846,17.067,97.280,366.132,-194.784,355.217,-488.780,114.400,-323.060
194,52468.198000,204.898,4.016,111.616,363.212,-200.397,351.115,-424.780,138.400,-236.060
195,52468.238000,212.760,1.004,128.000,365.995,-204.862,355.003,-221.780,168.400,-124.060
196,52468.278000,212.760,3.012,139.264,359.513,-194.813,358.191,17.220,168.400,-76.060
197,52468.326000,206.864,10.039,139.264,356.652,-196.644,360.137,204.220,116.400,-43.060
198,52468.359000,211.777,15.059,142.336,353.975,-185.551,367.332,384.220,44.400,-3.060
199,52468.381000,208.829,14.055,139.264,356.821,-185.436,371.317,551.220,-2.600,61.940
200,52468.419000,215.708,15.059,136.192,351.317,-173.464,378.526,714.220,9.400,119.940
201,52468.459000,281.551,63.247,165.888,346.741,-163.235,389.678,720.220,208.400,30.940
202,52468.502000,220.622,96.376,166.912,342.258,-146.534,403.952,757.220,278.400,71.940
203,52468.543000,186.226,91.357,145.408,334.799,-139.168,411.060,699.220,195.400,128.940
204,52468.577000,186.226,110.431,135.168,333.023,-131.669,421.163,589.220,268.400,166.940
205,52468.597000,185.244,98.384,149.504,325.495,-129.741,431.139,528.220,329.400,247.940
206,52468.637000,173.451,93.365,158.720,312.449,-115.999,440.364,415.220,296.400,237.940
207,52468.677000,168.537,90.353,155.648,303.076,-110.451,449.420,285.220,265.400,148.940
208,52468.721000,164.607,100.392,152.576,297.428,-108.636,452.434,165.220,213.400,12.940
209,52468.762000,145.935,103.404,174.080,293.557,-115.079,453.286,-1.780,144.400,-88.060
210,52468.802000,137.090,111.435,178.176,291.702,-112.356,453.341,-237.780,42.400,-245.060
211,52468.837000,140.038,113.443,166.912,299.256,-113.211,451.345,-718.780,-140.600,-496.060
212,52468.857000,144.952,110.431,169.984,305.573,-134.428,438.967,-1054.780,-220.600,-615.060
213,52468.898000,162.641,104.408,163.840,314.902,-142.802,425.873,-1251.780,-256.600,-711.060
214,52468.959000,165.589,90.353,140.288,328.797,-163.063,410.542,-1303.780,-353.600,-739.060
215,52468.977000,184.261,36.141,152.576,337.227,-167.804,396.529,-1446.780,-235.600,-637.060
216,52469.22000,207.846,-36.141,195.584,339.774,-187.356,378.213,-1303.780,6.400,-396.060
217,52469.62000,199.002,-9.035,228.352,338.718,-194.815,372.085,-693.780,171.400,-246.060
218,52469.101000,199.002,3.012,202.752,335.864,-196.568,378.011,-48.780,197.400,-75.060
219,52469.121000,197.036,14.055,181.248,339.760,-189.052,385.139,623.220,115.400,126.940
220,52469.157000,199.985,-3.012,147.456,332.308,-181.608,396.228,1024.220,47.400,312.940
221,52469.197000,168.537,-20.078,141.312,329.697,-165.896,405.510,1683.220,12.400,603.940
222,52469.238000,154.779,68.267,158.720,325.390,-136.350,421.052,2248.220,16.400,655.940
223,52469.288000,144.952,171.671,199.680,323.142,-94.829,438.841,2049.220,128.400,440.940
224,52469.319000,125.298,197.773,219.136,315.984,-65.476,446.418,1189.220,133.400,182.940
225,52469.341000,127.263,185.725,199.680,318.976,-54.406,448.647,606.220,-2.600,151.940
226,52469.382000,144.952,152.596,165.888,323.643,-58.944,447.563,360.220,-249.600,328.940
227,52469.421000,133.159,132.518,148.480,331.241,-56.213,441.665,46.220,-402.600,342.940
228,52469.463000,142.987,130.510,114.688,347.198,-64.460,430.572,-422.780,-627.600,206.940
229,52469.498000,168.537,117.459,88.064,360.068,-90.268,413.133,-941.780,-650.600,42.940
230,52469.538000,181.313,111.435,74.752,373.090,-104.284,389.977,-1217.780,-624.600,-110.060
231,52469.579000,203.916,95.373,75.776,381.309,-124.600,375.632,-1478.780,-576.600,-224.060
232,52469.599000,216.691,98.384,80.896,396.120,-145.959,350.333,-1966.780,-603.600,-395.060
233,52469.639000,267.793,41.161,98.304,405.155,-173.942,317.922,-2033.780,-536.600,-242.060
234,52469.686000,310.050,-28.110,163.840,413.393,-191.724,292.690,-1616.780,-89.600,-127.060
235,52469.719000,317.912,-27.106,237.568,412.211,-207.584,278.426,-1175.780,126.400,6.940
236,52469.761000,253.052,12.047,171.008,418.013,10.356,276.111,-811.780,67.400,-89.060
237,52469.802000,195.071,-2.008,149.504,415.759,-224.161,271.116,-543.780,104.400,-70.060
238,52469.824000,179.347,-5.020,104.448,423.225,-230.669,261.042,-403.780,-213.600,-190.060
239,52469.859000,165.589,-2.008,83.968,428.042,-223.453,252.251,-130.780,-269.600,-57.060
240,52469.899000,189.175,-19.075,83.968,429.833,-230.777,251.103,215.220,-198.600,183.940
241,52469.939000,209.812,-28.110,100.352,426.062,-229.891,252.111,385.220,-104.600,307.940
242,52469.979000,240.276,-30.118,105.472,425.176,-225.343,251.212,741.220,-5.600,355.940
243,52470.21000,221.605,-27.106,112.640,423.434,-215.914,266.330,938.220,86.400,326.940
244,52470.68000,220.622,-13.051,112.640,419.711,-212.923,281.307,1132.220,158.400,266.940
245,52470.83000,210.795,-3.012,107.520,416.172,-197.008,301.534,1123.220,240.400,245.940
246,52470.123000,192.123,-17.067,97.280,412.576,-184.836,317.702,1184.220,270.400,268.940
247,52470.163000,189.175,0.000,70.656,407.962,-177.355,328.795,1227.220,295.400,187.940
248,52470.204000,225.536,31.122,70.656,401.720,-151.420,348.236,1194.220,382.400,41.940
249,52470.239000,239.294,122.478,99.328,398.258,-129.209,362.628,1236.220,491.400,-178.060
250,52470.279000,260.914,148.580,126.976,390.123,-103.299,382.066,831.220,502.400,-251.060
251,52470.299000,274.672,139.545,122.880,386.524,-90.387,389.298,378.220,414.400,-216.060
252,52470.339000,299.240,145.569,144.384,383.767,-84.849,393.390,59.220,438.400,-222.060
253,52470.379000,237.328,117.459,132.096,377.069,-91.194,401.202,103.220,211.400,33.940
254,52470.419000,204.898,67.263,68.608,379.051,-84.736,402.337,33.220,69.400,157.940
255,52470.466000,183.278,59.231,52.224,377.111,-88.387,404.246,74.220,-67.600,104.940
256,52470.501000,200.967,73.286,70.656,377.204,-81.915,407.368,163.220,20.400,3.940
257,52470.541000,207.846,92.361,90.112,380.987,-81.885,406.379,260.220,-6.600,-74.060
258,52470.561000,213.743,109.427,93.184,378.255,-74.515,410.511,230.220,49.400,-80.060
259,52470.604000,224.553,105.412,92.160,380.123,-76.322,410.475,9.220,-20.600,-32.060
260,52470.639000,226.518,97.380,89.088,372.552,-76.422,410.462,-184.780,-21.600,7.940
261,52470.681000,223.570,92.361,96.256,379.927,-90.162,405.207,-248.780,-100.600,71.940
262,52470.719000,220.622,95.373,98.304,379.959,-87.472,402.280,-240.780,-168.600,102.940
263,52470.759000,226.518,99.388,95.232,381.749,-94.815,400.138,-309.780,-217.600,87.940
264,52470.779000,238.311,105.412,100.352,385.383,-104.999,391.969,-344.780,-175.600,47.940
265,52470.819000,257.965,104.408,143.360,385.342,-107.786,389.920,-402.780,-76.600,31.940
266,52470.861000,229.466,79.310,151.552,382.286,-123.457,386.598,-534.780,-28.600,36.940
267,52470.901000,196.054,43.169,128.000,380.251,-133.618,383.395,-674.780,-111.600,-11.060
268,52470.939000,213.743,5.020,125.952,383.902,-142.827,378.232,-559.780,-30.600,27.940
269,52470.982000,213.743,15.059,147.456,377.120,-154.005,373.010,-543.780,56.400,-14.060
270,52471.29000,207.846,18.071,151.552,374.117,-165.972,371.757,-411.780,70.400,-34.060
271,52471.44000,187.209,16.063,135.168,376.038,-164.076,373.789,-229.780,38.400,-52.060
272,52471.86000,194.088,14.055,123.904,372.144,-171.552,368.651,-217.780,70.400,-81.060
273,52471.122000,191.140,12.047,126.976,370.207,-175.183,371.555,-115.780,107.400,-34.060
274,52471.162000,187.209,7.027,141.312,364.571,-172.451,374.589,74.220,136.400,44.940
275,52471.202000,190.157,1.004,160.768,360.743,-176.088,378.484,180.220,159.400,105.940
276,52471.242000,199.002,8.031,158.720,358.044,-166.788,387.630,533.220,81.400,192.940
277,52471.263000,209.812,9.035,136.192,352.513,-156.669,393.805,698.220,54.400,292.940
278,52471.299000,206.864,14.055,146.432,342.144,-154.798,402.781,759.220,25.400,317.940
279,52471.339000,196.054,17.067,150.528,345.997,-150.109,405.870,893.220,-97.600,283.940
280,52471.379000,206.864,24.094,143.360,346.221,-134.398,413.167,970.220,-120.600,277.940
281,52471.419000,273.689,69.271,153.600,342.685,-116.905,420.497,1006.220,-75.600,254.940
282,52471.459000,229.466,108.424,166.912,339.135,-100.348,426.812,831.220,41.400,154.940
283,52471.504000,212.760,102.400,160.768,338.443,-81.979,430.186,817.220,47.400,108.940
284,52471.529000,200.967,112.439,135.168,339.505,-74.462,439.299,742.220,130.400,77.940
285,52471.566000,186.226,97.380,133.120,330.264,-58.895,445.585,774.220,128.400,143.940
286,52471.599000,169.520,95.373,132.096,329.489,-46.901,450.812,630.220,59.400,106.940
287,52471.641000,163.624,104.408,130.048,327.715,-38.602,454.964,382.220,-2.600,3.940
288,52471.688000,160.676,116.455,138.240,328.797,-28.532,454.186,243.220,-22.600,-94.060
289,52471.723000,160.676,125.490,146.432,326.013,-24.846,457.244,73.220,-7.600,-242.060
290,52471.746000,162.641,132.518,150.528,329.808,-23.919,455.280,-117.780,-89.600,-292.060
291,52471.779000,163.624,132.518,147.456,333.661,-18.450,451.424,-251.780,-159.600,-331.060
292,52471.819000,170.503,137.537,143.360,340.181,-25.751,448.294,-440.780,-245.600,-387.060
293,52471.859000,168.537,134.525,146.432,348.675,-26.671,442.319,-587.780,-313.600,-416.060
294,52471.901000,162.641,134.525,134.144,357.111,-31.354,431.291,-731.780,-423.600,-461.060
295,52471.941000,170.503,136.533,129.024,367.407,-38.702,423.193,-898.780,-442.600,-497.060
296,52471.981000,161.658,127.498,146.432,374.732,-55.326,410.914,-1019.780,-451.600,-491.060
297,52472.1000,145.935,123.482,133.120,389.662,-69.142,396.717,-1119.780,-502.600,-514.060
298,52472.41000,154.779,125.490,130.048,399.844,-83.994,379.507,-1246.780,-501.600,-491.060
299,52472.82000,151.831,125.490,126.976,415.727,-96.939,362.346,-1379.780,-503.600,-476.060
300,52472.122000,187.209,110.431,137.216,418.476,-101.814,345.338,-1597.780,-364.600,-410.060
301,52472.166000,194.088,99.388,135.168,423.814,-124.955,328.939,-1533.780,-275.600,-368.060
302,52472.206000,189.175,96.376,126.976,429.362,-132.560,310.882,-1497.780,-212.600,-358.060
303,52472.226000,174.434,82.322,99.328,433.849,-148.443,291.652,-1606.780,-214.600,-318.060
304,52472.266000,215.708,41.161,134.144,441.010,-176.236,270.184,-1970.780,-169.600,-214.060
305,52472.306000,320.860,-8.031,179.200,439.894,-187.477,258.008,-1288.780,78.400,8.940
306,52472.346000,348.376,-2.008,244.736,438.891,-191.232,253.948,-669.780,325.400,85.940
307,52472.388000,262.879,14.055,205.824,432.091,-204.145,253.663,-315.780,235.400,102.940
308,52472.426000,222.587,31.122,168.960,434.990,-199.566,251.775,-100.780,8.400,-6.060
309,52472.461000,168.537,19.075,131.072,436.751,-209.540,255.544,36.220,-11.600,103.940
310,52472.481000,146.917,20.078,98.304,437.695,-208.787,246.610,41.220,-270.600,210.940
311,52472.522000,185.244,-9.035,99.328,433.771,-218.934,245.393,99.220,-211.600,394.940
312,52472.562000,205.881,-22.086,106.496,434.729,-218.006,245.415,285.220,-106.600,505.940
313,52472.601000,220.622,-25.098,97.280,429.740,-237.248,247.982,728.220,-0.600,591.940
314,52472.641000,245.190,-28.110,97.280,420.509,-222.345,267.183,1106.220,134.400,644.940
315,52472.688000,256.983,-28.110,93.184,407.318,-221.077,294.046,1548.220,278.400,754.940
316,52472.703000,269.758,-30.118,139.264,399.893,-212.541,314.109,2045.220,475.400,837.940
317,52472.743000,219.639,-1.004,123.904,387.107,-182.678,351.528,2629.220,418.400,785.940
318,52472.782000,157.727,86.337,107.520,371.450,-154.762,384.922,2701.220,578.400,654.940
319,52472.826000,186.226,150.588,200.704,354.034,-116.833,416.537,2421.220,690.400,491.940
320,52472.866000,164.607,145.569,203.776,338.510,-78.119,440.214,2027.220,655.400,433.940
321,52472.901000,174.434,155.608,152.576,335.013,-57.858,448.598,1592.220,305.400,499.940
322,52472.941000,173.451,118.463,133.120,331.438,-43.133,454.873,1161.220,70.400,598.940
323,52472.961000,177.382,115.451,114.688,330.667,-30.320,455.145,742.220,-65.600,617.940
324,52473.1000,183.278,100.392,91.136,336.354,-29.368,453.184,508.220,-298.600,554.940
325,52473.41000,187.209,96.376,70.656,342.855,-37.642,447.050,177.220,-311.600,456.940
326,52473.82000,199.985,100.392,65.536,350.403,-38.576,441.074,-184.780,-298.600,271.940
327,52473.122000,197.036,88.345,71.680,352.125,-50.558,435.848,-417.780,-343.600,185.940
328,52473.173000,201.950,72.282,59.392,357.624,-62.588,425.654,-566.780,-272.600,55.940
329,52473.203000,202.933,63.247,72.704,363.103,-75.612,411.460,-632.780,-333.600,-50.060
330,52473.223000,254.035,56.220,103.424,365.716,-91.305,403.172,-709.780,-119.600,-51.060
331,52473.268000,269.758,28.110,113.664,370.291,-102.314,398.966,-832.780,-41.600,-41.060
332,52473.302000,357.221,11.043,177.152,369.181,-114.256,397.716,-783.780,263.400,-2.060
333,52473.342000,272.706,-14.055,161.792,358.479,-135.523,394.264,-886.780,183.400,115.940
334,52473.388000,250.104,1.004,116.736,362.097,-146.662,384.085,-977.780,-183.600,-141.060
335,52473.422000,180.330,3.012,51.200,370.344,-165.106,371.769,-1065.780,-182.600,-328.060
336,52473.448000,197.036,7.027,88.064,372.113,-172.683,357.686,-1192.780,-104.600,-395.060
337,52473.484000,230.449,-15.059,90.112,379.524,-183.694,351.495,-1027.780,-110.600,-343.060
338,52473.527000,228.484,-8.031,100.352,382.221,-193.013,341.354,-864.780,-86.600,-311.060
339,52473.572000,256.983,-13.051,81.920,389.686,-199.540,330.285,-666.780,-168.600,-355.060
340,52473.607000,244.207,-5.020,74.752,396.292,-199.668,319.351,-393.780,-212.600,-378.060
341,52473.647000,235.363,-2.008,64.512,407.584,-203.338,311.333,-253.780,-340.600,-436.060
342,52473.687000,241.259,7.027,58.368,414.394,-189.528,310.642,-82.780,-377.600,-413.060
343,52473.712000,250.104,5.020,69.632,424.989,-174.129,295.071,-24.780,-454.600,-400.060
344,52473.747000,253.052,9.035,88.064,437.290,-173.206,287.152,-159.780,-506.600,-365.060
345,52473.784000,239.294,3.012,94.208,444.034,-163.256,276.433,97.220,-497.600,-373.060
346,52473.824000,255.017,10.039,91.136,456.462,-153.153,269.704,66.220,-438.600,-352.060
347,52473.864000,297.274,15.059,94.208,462.281,-142.181,264.973,123.220,-128.600,-356.060
348,52473.904000,266.810,89.349,130.048,464.226,-138.472,266.049,44.220,-25.600,-548.060
349,52473.924000,221.605,87.341,118.784,472.994,-120.018,267.449,59.220,-4.600,-607.060
350,52473.964000,208.829,104.408,61.440,474.083,-109.869,270.651,174.220,69.400,-566.060
351,52474.11000,211.777,110.431,73.728,475.318,-89.546,279.042,159.220,217.400,-487.060
352,52474.58000,199.002,107.420,88.064,474.433,-85.757,286.084,111.220,256.400,-311.060
353,52474.83000,192.123,107.420,87.040,471.693,-79.245,293.181,115.220,215.400,-243.060
354,52474.122000,187.209,102.400,76.800,469.013,-68.191,298.386,134.220,235.400,-218.060
355,52474.163000,183.278,117.459,87.040,464.368,-62.620,305.460,186.220,213.400,-235.060
356,52474.183000,173.451,119.467,103.424,466.386,-54.194,313.599,80.220,149.400,-243.060
357,52474.223000,174.434,144.565,119.808,463.631,-48.637,318.687,51.220,170.400,-272.060
358,52474.263000,180.330,163.639,162.816,460.904,-40.430,318.857,-37.780,226.400,-236.060
359,52474.303000,178.365,171.671,173.056,453.222,-49.535,326.609,-132.780,190.400,-120.060
360,52474.349000,168.537,164.643,149.504,451.367,-46.811,326.664,-388.780,134.400,-55.060
361,52474.387000,157.727,145.569,100.352,453.072,-60.528,326.375,-416.780,65.400,10.940
362,52474.408000,163.624,125.490,88.064,451.977,-71.515,327.134,-612.780,-81.600,70.940
363,52474.452000,217.674,92.361,107.520,446.082,-87.223,323.807,-850.780,34.400,154.940
364,52474.486000,233.397,51.200,120.832,445.046,-93.668,322.674,-778.780,89.400,228.940
365,52474.539000,239.294,51.200,137.216,440.091,-110.201,323.309,-505.780,189.400,280.940
366,52474.564000,216.691,45.176,128.000,433.296,-123.075,325.014,-299.780,119.400,264.940
367,52474.604000,197.036,39.153,108.544,424.648,-133.187,328.765,-114.780,174.400,240.940
368,52474.644000,194.088,40.157,114.688,417.979,-136.881,331.660,102.220,205.400,301.940
369,52474.664000,203.916,23.090,117.760,415.114,-139.530,338.562,341.220,181.400,400.940
370,52474.704000,213.743,18.071,118.784,407.543,-140.410,345.495,607.220,191.400,504.940
371,52474.744000,217.674,16.063,117.760,397.996,-147.669,355.273,837.220,199.400,536.940
372,52474.784000,220.622,20.078,113.664,388.622,-142.901,371.274,906.220,246.400,513.940
373,52474.827000,256.000,34.133,133.120,370.898,-125.517,382.559,945.220,398.400,433.940
374,52474.869000,270.741,60.235,171.008,363.406,-121.621,399.540,1017.220,561.400,459.940
375,52474.883000,233.397,96.376,180.224,351.313,-107.787,412.747,985.220,645.400,507.940
376,52474.926000,192.123,74.290,131.072,332.524,-100.279,434.761,1081.220,588.400,540.940
377,52474.966000,163.624,97.380,135.168,313.851,-83.707,451.995,1186.220,636.400,534.940
378,52475.7000,140.038,104.408,173.056,293.228,-71.682,472.113,939.220,698.400,460.940
379,52475.48000,141.021,113.443,189.440,276.380,-59.724,486.267,759.220,646.400,330.940
380,52475.88000,123.332,127.498,201.728,267.010,-53.378,489.372,540.220,498.400,180.940
381,52475.126000,126.280,128.502,179.200,256.709,-46.088,494.486,284.220,243.400,50.940
382,52475.143000,127.263,129.506,173.056,252.096,-37.828,498.633,110.220,114.400,-78.060
383,52475.183000,124.315,136.533,186.368,255.880,-37.797,497.645,-226.780,-125.600,-202.060
384,52475.223000,132.177,126.494,173.056,260.485,-46.915,496.463,-448.780,-237.600,-266.060
385,52475.271000,134.142,123.482,167.936,266.955,-57.101,486.309,-597.780,-339.600,-323.060
386,52475.304000,139.056,120.471,173.056,278.149,-68.081,479.130,-719.780,-346.600,-418.060
387,52475.353000,136.107,118.463,176.128,287.483,-76.396,469.020,-857.780,-349.600,-493.060
388,52475.368000,132.177,111.435,166.912,301.498,-88.314,458.841,-941.780,-359.600,-532.060
389,52475.408000,137.090,104.408,160.768,312.596,-105.804,446.549,-1055.780,-371.600,-552.060
390,52475.449000,142.987,99.388,161.792,321.932,-114.100,437.435,-1152.780,-383.600,-615.060
391,52475.483000,153.797,98.384,149.504,334.088,-122.573,417.380,-1326.780,-381.600,-740.060
392,52475.527000,175.417,97.380,150.528,349.986,-134.583,401.233,-1447.780,-310.600,-835.060
393,52475.568000,203.916,89.349,166.912,361.060,-153.126,381.957,-1630.780,-238.600,-886.060
394,52475.617000,216.691,35.137,180.224,371.281,-164.431,358.855,-1747.780,-185.600,-796.060
395,52475.626000,264.845,32.125,208.896,381.435,-181.915,347.557,-1585.780,-88.600,-752.060
396,52475.669000,253.052,7.027,239.616,386.061,-188.480,336.483,-1202.780,3.400,-573.060
397,52475.703000,207.846,17.067,206.848,396.484,-185.867,322.629,-953.780,-36.600,-486.060
398,52475.762000,184.261,29.114,177.152,403.918,-195.065,315.482,-672.780,-196.600,-450.060
399,52475.791000,152.814,25.098,160.768,415.334,-188.814,299.718,-541.780,-406.600,-386.060
400,52475.826000,158.710,17.067,143.360,425.651,-194.388,288.673,-423.780,-479.600,-260.060
401,52475.868000,173.451,10.039,132.096,432.342,-188.122,276.881,-246.780,-501.600,-110.060
402,52475.902000,192.123,-1.004,142.336,439.874,-190.010,268.895,-0.780,-436.600,76.940
403,52475.929000,214.726,2.008,129.024,446.463,-191.112,254.956,211.220,-436.600,181.940
404,52475.971000,211.777,0.000,128.000,446.486,-189.299,254.000,576.220,-329.600,296.940
405,52476.4000,216.691,1.004,115.712,447.489,-185.544,258.060,818.220,-251.600,375.940
406,52476.48000,214.726,1.004,108.544,445.611,-184.634,259.071,1091.220,-176.600,426.940
407,52476.88000,208.829,-1.004,93.184,447.561,-181.626,271.074,1353.220,-93.600,547.940
408,52476.107000,219.639,-5.020,104.448,442.013,-174.021,289.131,1670.220,141.400,642.940
409,52476.153000,225.536,3.012,112.640,432.799,-158.142,311.337,2148.220,245.400,648.940
410,52476.213000,239.294,88.345,108.544,422.891,-124.694,342.868,2617.220,487.400,543.940
411,52476.237000,203.916,150.588,117.760,412.134,-83.968,372.564,2609.220,575.400,301.940
412,52476.279000,227.501,191.749,136.192,405.817,-62.750,384.941,1994.220,579.400,194.940
413,52476.309000,204.898,171.671,152.576,393.881,-37.845,402.363,1691.220,559.400,354.940
414,52476.344000,187.209,155.608,128.000,388.607,-9.325,412.908,1677.220,455.400,530.940
415,52476.364000,178.365,136.533,97.280,379.247,-2.862,421.984,1416.220,285.400,694.940
416,52476.404000,178.365,123.482,90.112,376.718,19.205,428.417,1172.220,194.400,723.940
417,52476.446000,180.330,125.490,93.184,374.836,20.077,427.438,807.220,45.400,675.940
418,52476.487000,195.071,123.482,83.968,374.816,18.303,430.385,737.220,17.400,635.940
419,52476.526000,204.898,120.471,77.824,376.800,25.560,425.569,543.220,-18.600,593.940
420,52476.566000,205.881,110.431,84.992,378.596,18.294,427.406,308.220,-64.600,548.940
421,52476.586000,217.674,104.408,81.920,378.559,15.546,427.348,178.220,-72.600,486.940
422,52476.629000,205.881,99.388,66.560,381.264,6.325,422.182,161.220,-92.600,422.940
423,52476.664000,200.967,97.380,51.200,382.179,4.427,418.165,108.220,-100.600,350.940
424,52476.704000,197.036,96.376,50.176,380.212,-1.095,418.044,-27.780,-49.600,247.940
425,52476.751000,192.123,90.353,60.416,380.124,-7.508,417.907,-172.780,-38.600,175.940
426,52476.784000,219.639,91.357,84.992,377.110,-20.371,417.629,-449.780,176.400,70.940
427,52476.831000,224.553,72.282,84.992,376.021,-30.520,414.428,-649.780,15.400,51.940
428,52476.846000,238.311,33.129,95.232,375.884,-40.597,414.213,-713.780,243.400,114.940
429,52476.891000,305.136,-5.020,128.000,367.008,-67.239,415.622,-939.780,380.400,147.940
430,52476.944000,299.240,-12.047,141.312,358.249,-85.576,420.192,-723.780,396.400,130.940
431,52476.966000,271.724,1.004,144.384,347.727,-93.959,419.998,-703.780,336.400,-49.060
432,52477.9000,245.190,6.024,112.640,347.588,-104.056,418.788,-621.780,116.400,-187.060
433,52477.47000,215.708,6.024,81.920,348.453,-109.618,414.693,-605.780,-28.600,-292.060
434,52477.67000,203.916,0.000,81.920,349.291,-117.032,409.563,-563.780,-11.600,-284.060
435,52477.107000,210.795,-2.008,84.992,351.003,-129.892,406.308,-455.780,-27.600,-143.060
436,52477.146000,213.743,-6.024,86.016,355.749,-128.894,407.331,-414.780,14.400,-82.060
437,52477.186000,221.605,-5.020,95.232,352.750,-140.042,401.121,-336.780,-29.600,-76.060
438,52477.234000,230.449,-3.012,94.208,357.523,-136.412,396.232,-206.780,-141.600,-117.060
439,52477.268000,248.138,-6.024,100.352,358.493,-134.587,395.278,-161.780,-177.600,-165.060
440,52477.308000,266.810,-2.008,106.496,366.987,-135.508,389.303,-126.780,-220.600,-219.060
441,52477.328000,298.257,9.035,110.592,369.862,-132.741,388.372,-128.780,-225.600,-294.060
442,52477.368000,287.447,21.082,129.024,372.777,-126.428,381.548,-181.780,-220.600,-328.060
443,52477.406000,273.689,24.094,129.024,381.240,-130.019,379.495,-231.780,-246.600,-372.060
444,52477.447000,236.345,40.157,120.832,383.139,-129.156,375.537,-194.780,-81.600,-387.060
445,52477.488000,200.967,56.220,105.472,390.909,-114.397,375.863,24.220,-161.600,-348.060
446,52477.528000,194.088,75.294,77.824,393.775,-112.508,376.902,90.220,14.400,-363.060
447,52477.572000,194.088,99.388,104.448,393.003,-100.474,384.120,131.220,240.400,-393.060
448,52477.587000,197.036,107.420,139.264,386.453,-95.845,391.171,64.220,375.400,-286.060
449,52477.626000,198.019,100.392,145.408,383.699,-90.268,397.253,93.220,393.400,-199.060
450,52477.666000,191.140,93.365,128.000,373.369,-85.630,407.283,110.220,391.400,-136.060
451,52477.707000,179.347,93.365,125.952,366.874,-77.277,417.398,114.220,347.400,-140.060
452,52477.747000,168.537,95.373,131.072,363.014,-83.584,425.215,-35.780,203.400,-196.060
453,52477.786000,152.814,109.427,139.264,360.330,-72.569,428.429,-65.780,129.400,-218.060
454,52477.806000,149.866,128.502,162.816,355.540,-76.394,423.367,-317.780,38.400,-288.060
455,52477.847000,156.745,141.553,173.056,360.243,-78.982,428.293,-565.780,-4.600,-343.060
456,52477.909000,155.762,135.529,175.104,360.095,-89.177,422.108,-796.780,-177.600,-304.060
457,52477.927000,155.762,119.467,154.624,367.447,-103.949,410.863,-1097.780,-292.600,-309.060
458,52477.967000,159.693,98.384,118.784,371.929,-120.670,395.594,-1125.780,-378.600,-277.060
459,52478.7000,222.587,76.298,144.384,376.378,-140.081,383.252,-1208.780,-180.600,-200.060
460,52478.47000,214.726,21.082,168.960,379.995,-151.239,372.079,-1013.780,-154.600,-137.060
461,52478.66000,258.948,22.086,176.128,379.776,-166.891,367.767,-441.780,-89.600,17.940
462,52478.106000,263.862,20.078,167.936,378.796,-168.833,362.751,-134.780,-89.600,60.940
463,52478.146000,229.466,35.137,133.120,381.546,-175.228,361.624,110.220,-143.600,94.940
464,52478.186000,196.054,35.137,84.992,382.608,-166.932,363.792,325.220,-150.600,133.940
465,52478.227000,190.157,34.133,86.016,379.797,-165.098,365.816,341.220,-60.600,212.940
466,52478.267000,199.002,25.098,114.688,373.131,-168.752,370.701,430.220,102.400,337.940
467,52478.288000,206.864,17.067,117.760,366.596,-163.187,378.767,729.220,89.400,502.940
468,52478.328000,206.864,10.039,147.456,356.276,-157.652,387.822,980.220,196.400,637.940
469,52478.374000,208.829,8.031,147.456,345.088,-147.373,405.927,1362.220,146.400,747.940
470,52478.408000,206.864,2.008,136.192,334.007,-128.908,421.223,1596.220,86.400,806.940
471,52478.447000,249.121,24.094,142.336,326.688,-111.445,429.541,1776.220,121.400,808.940
472,52478.488000,235.363,135.529,152.576,314.657,-93.031,442.846,1646.220,167.400,526.940
473,52478.531000,170.503,135.529,153.600,312.246,-62.661,452.440,1386.220,113.400,274.940
474,52478.557000,156.745,171.671,152.576,311.600,-41.446,460.848,1160.220,52.400,16.940
475,52478.592000,153.797,169.663,171.008,303.430,-16.726,466.335,794.220,95.400,36.940
476,52478.637000,147.900,150.588,171.008,300.564,-18.615,465.296,231.220,-24.600,36.940
477,52478.674000,138.073,131.514,156.672,305.308,-17.636,465.324,-308.780,-129.600,11.940
478,52478.708000,148.883,127.498,153.600,312.656,-33.228,459.035,-600.780,-272.600,-98.060
479,52478.748000,160.676,130.510,132.096,323.833,-45.182,448.851,-914.780,-406.600,-230.060
480,52478.773000,150.848,122.478,126.976,331.028,-71.027,433.392,-1212.780,-505.600,-418.060
481,52478.808000,153.797,121.475,126.976,346.013,-81.119,422.258,-1401.780,-519.600,-508.060
482,52478.852000,170.503,106.416,116.736,359.021,-96.850,405.034,-1609.780,-499.600,-595.060
483,52478.891000,179.347,92.361,106.496,371.895,-121.840,382.639,-1670.780,-503.600,-659.060
484,52478.932000,199.002,83.325,89.088,386.806,-135.870,357.496,-1853.780,-532.600,-724.060
485,52478.969000,243.225,62.243,120.832,401.718,-149.900,332.354,-1980.780,-422.600,-692.060
486,52479.9000,274.672,25.098,130.048,411.779,-172.315,303.047,-1905.780,-429.600,-575.060
487,52479.29000,346.411,35.137,160.768,416.384,-179.894,286.979,-1578.780,-267.600,-464.060
488,52479.78000,327.739,28.110,186.368,425.635,-193.804,271.777,-1167.780,-284.600,-293.060
489,52479.111000,276.637,36.141,125.952,431.320,-191.332,253.934,-837.780,-240.600,-261.060
490,52479.148000,256.983,25.098,113.664,435.901,-201.503,245.768,-736.780,-205.600,-171.060
491,52479.192000,218.656,27.106,103.424,445.287,-205.355,229.785,-635.780,-248.600,-130.060
492,52479.246000,188.192,16.063,90.112,450.908,-209.022,225.737,-541.780,-285.600,-56.060
493,52479.253000,185.244,3.012,73.728,448.917,-214.817,211.686,-328.780,-320.600,68.940
494,52479.287000,189.175,-1.004,72.704,457.391,-216.752,200.716,-214.780,-235.600,172.940
495,52479.327000,210.795,-4.016,80.896,453.567,-219.570,199.656,51.220,-180.600,181.940
496,52479.371000,245.190,-4.016,98.304,455.442,-220.519,196.654,337.220,-92.600,221.940
497,52479.407000,247.155,-15.059,93.184,450.726,-219.627,198.656,600.220,-117.600,264.940
498,52479.452000,240.276,-24.094,71.680,451.678,-220.316,209.584,1135.220,-92.600,327.940
499,52479.497000,225.536,-22.086,65.536,454.603,-215.424,223.617,1342.220,5.400,355.940
500,52479.512000,233.397,-22.086,56.320,448.192,-202.237,246.765,1731.220,56.400,367.940
501,52479.549000,243.225,-5.020,56.320,443.791,-180.721,273.077,2211.220,222.400,295.940
502,52479.592000,262.879,63.247,82.944,440.472,-149.914,305.556,2709.220,457.400,148.940
503,52479.632000,212.760,110.431,95.232,434.333,-116.611,327.143,2797.220,298.400,34.940
504,52479.672000,200.967,133.522,82.944,430.272,-69.560,348.031,2401.220,456.400,-112.060
505,52479.712000,206.864,182.714,104.448,425.162,-29.890,366.771,2238.220,567.400,-160.060
506,52479.733000,206.864,171.671,119.808,413.269,-1.399,380.290,1735.220,521.400,-15.060
507,52479.773000,196.054,173.678,114.688,408.979,29.882,390.896,1526.220,480.400,164.940
508,52479.813000,191.140,150.588,80.896,404.309,33.621,397.931,1042.220,279.400,365.940
509,52479.848000,199.985,141.553,76.800,400.690,45.520,400.168,850.220,213.400,453.940
510,52479.899000,199.985,124.486,69.632,399.840,52.797,398.333,625.220,47.400,500.940
511,52479.930000,202.933,119.467,63.488,403.627,52.867,399.334,444.220,3.400,487.940
512,52479.971000,213.743,112.439,54.272,405.440,47.336,396.236,308.220,-97.600,468.940
513,52479.991000,210.795,108.424,60.416,412.012,43.740,395.174,83.220,-148.600,416.940
514,52480.31000,216.691,106.416,57.344,413.759,33.590,389.987,-64.780,-233.600,371.940
515,52480.71000,208.829,94.369,50.176,418.290,19.754,381.743,-80.780,-290.600,323.940
516,52480.111000,207.846,87.341,37.888,428.648,16.987,373.742,-149.780,-279.600,267.940
517,52480.149000,197.036,92.361,28.672,432.243,3.256,371.466,-266.780,-324.600,255.940
518,52480.189000,188.192,81.318,20.480,435.894,-5.193,358.361,-338.780,-320.600,187.940
519,52480.214000,232.415,81.318,2.048,435.834,-8.974,352.313,-520.780,-259.600,97.940
520,52480.248000,262.879,82.322,15.360,441.172,-32.895,342.860,-761.780,-182.600,154.940
521,52480.291000,277.620,51.200,53.248,442.878,-45.832,335.624,-1031.780,-114.600,296.940
522,52480.334000,355.255,16.063,34.816,440.614,-72.522,330.080,-1169.780,108.400,370.940
523,52480.379000,324.791,-30.118,120.832,428.740,-111.072,333.220,-1338.780,457.400,579.940
524,52480.409000,266.810,-19.075,88.064,418.079,-129.552,331.817,-1185.780,225.400,319.940
525,52480.471000,209.812,-6.024,17.408,422.549,-147.949,324.469,-947.780,7.400,144.940
526,52480.479000,196.054,-4.016,17.408,418.599,-159.928,323.214,-759.780,101.400,-16.060
527,52480.512000,207.846,-9.035,17.408,421.264,-171.937,316.000,-576.780,6.400,-94.060
528,52480.551000,236.345,-24.094,34.816,419.281,-178.414,313.870,-474.780,43.400,-12.060
529,52480.596000,256.000,-28.110,54.272,415.515,-176.690,310.917,-457.780,3.400,63.940
530,52480.628000,251.086,-19.075,53.248,415.384,-185.150,299.796,-486.780,-8.600,-16.060
531,52480.697000,248.138,-14.055,39.936,419.077,-191.571,296.680,-454.780,-53.600,-106.060
532,52480.714000,249.121,-14.055,36.864,420.926,-194.373,292.645,-394.780,6.400,-208.060
533,52480.731000,253.052,-14.055,38.912,424.754,-190.736,288.750,-305.780,-37.600,-275.060
534,52480.781000,253.052,-13.051,37.888,426.667,-188.937,285.807,-278.780,-62.600,-300.060
535,52480.817000,249.121,-7.027,39.936,433.294,-188.051,279.868,-287.780,-85.600,-318.060
536,52480.848000,244.207,-10.039,47.104,434.324,-181.665,278.016,-255.780,-64.600,-330.060
537,52480.893000,242.242,-14.055,57.344,437.106,-185.370,273.962,-247.780,14.400,-311.060
538,52480.933000,262.879,-6.024,68.608,436.306,-175.207,279.151,-158.780,126.400,-347.060
539,52480.959000,264.845,-2.008,73.728,440.244,-164.904,288.328,18.220,214.400,-386.060
540,52480.994000,305.136,29.114,83.968,441.298,-157.465,293.461,83.220,375.400,-514.060
541,52481.34000,245.190,52.204,130.048,437.653,-148.178,302.605,170.220,525.400,-543.060
542,52481.74000,236.345,68.267,81.920,437.857,-134.241,312.848,103.220,331.400,-443.060
543,52481.119000,215.708,86.337,64.512,428.522,-126.705,329.903,406.220,553.400,-419.060
544,52481.156000,225.536,101.396,84.992,425.919,-110.895,344.161,356.220,587.400,-361.060
545,52481.196000,216.691,104.408,103.424,420.387,-101.574,356.287,222.220,557.400,-262.060
546,52481.214000,198.019,112.439,115.712,414.848,-93.092,372.373,272.220,446.400,-189.060
547,52481.249000,194.088,101.396,93.184,406.504,-81.178,378.582,157.220,332.400,-125.060
548,52481.289000,183.278,110.431,114.688,401.780,-81.143,383.549,-53.780,255.400,-133.060
549,52481.329000,168.537,111.435,122.880,396.973,-87.481,390.370,-150.780,126.400,-131.060
550,52481.376000,156.745,117.459,134.144,396.032,-86.656,386.407,-302.780,6.400,-146.060
551,52481.416000,154.779,125.490,143.360,400.750,-87.529,385.401,-495.780,-70.600,-163.060
552,52481.429000,154.779,127.498,145.408,400.504,-105.033,380.055,-638.780,-149.600,-160.060
553,52481.469000,159.693,111.435,116.736,404.087,-118.901,370.813,-876.780,-298.600,-114.060
554,52481.509000,204.898,84.329,98.304,409.615,-128.280,355.702,-990.780,-247.600,-71.060
555,52481.568000,248.138,18.071,162.816,404.630,-145.924,346.368,-1105.780,-38.600,22.940
556,52481.616000,264.845,24.094,168.960,404.425,-160.641,343.070,-709.780,-28.600,32.940
557,52481.629000,266.810,16.063,145.408,402.460,-165.364,336.999,-444.780,-34.600,30.940
558,52481.678000,255.017,24.094,130.048,401.398,-173.661,334.832,-50.780,41.400,-3.060
559,52481.692000,224.553,20.078,101.376,401.496,-167.131,340.939,128.220,43.400,-12.060
560,52481.737000,201.950,14.055,83.968,394.766,-175.385,344.732,265.220,10.400,55.940
561,52481.797000,200.967,19.075,76.800,395.814,-168.024,345.884,335.220,139.400,146.940
562,52481.827000,207.846,18.071,100.352,389.281,-162.420,355.940,466.220,252.400,249.940
563,52481.854000,211.777,13.051,108.544,376.965,-165.057,369.791,677.220,289.400,371.940
564,52481.893000,207.846,17.067,113.664,366.790,-149.367,383.040,849.220,370.400,425.940
565,52481.914000,209.812,20.078,122.880,354.614,-141.888,399.096,1001.220,450.400,473.940
566,52481.949000,210.795,26.102,136.192,343.434,-130.752,414.236,1190.220,465.400,528.940
567,52481.991000,198.019,17.067,131.072,328.443,-121.498,429.330,1324.220,427.400,591.940
568,52482.36000,256.000,38.149,122.880,316.405,-103.941,445.600,1346.220,401.400,626.940
569,52482.69000,239.294,109.427,161.792,295.909,-81.956,459.962,1280.220,514.400,450.940
570,52482.116000,215.708,131.514,163.840,284.938,-55.285,473.444,1202.220,451.400,323.940
571,52482.154000,206.864,134.525,172.032,269.069,-40.624,484.674,944.220,444.400,225.940
572,52482.174000,164.607,128.502,162.816,263.580,-27.717,492.897,1007.220,508.400,266.940
573,52482.214000,136.107,135.529,180.224,243.127,-2.145,503.358,959.220,464.400,257.940
574,52482.249000,129.228,154.604,176.128,236.724,13.439,508.653,585.220,252.400,159.940
575,52482.296000,140.038,157.616,167.936,231.105,17.906,506.751,407.220,139.400,96.940
576,52482.334000,142.987,152.596,153.600,235.032,28.072,508.962,233.220,-7.600,81.940
577,52482.374000,143.969,147.576,146.432,237.761,19.903,510.782,11.220,-166.600,72.940
578,52482.396000,146.917,132.518,141.312,243.432,19.900,506.811,-173.780,-255.600,43.940
579,52482.434000,152.814,133.522,142.336,250.962,17.213,504.776,-357.780,-280.600,-22.060
580,52482.471000,157.727,131.514,140.288,258.262,-2.023,499.404,-451.780,-242.600,-69.060
581,52482.512000,160.676,127.498,136.192,261.917,-11.193,496.231,-555.780,-257.600,-103.060
582,52482.552000,153.797,121.475,133.120,269.465,-12.127,490.254,-596.780,-250.600,-160.060
583,52482.591000,154.779,124.486,130.048,278.766,-23.132,483.071,-643.780,-248.600,-198.060
584,52482.639000,152.814,120.471,126.976,284.161,-43.309,477.676,-861.780,-301.600,-255.060
585,52482.653000,150.848,114.447,115.712,296.134,-66.245,467.260,-1014.780,-291.600,-305.060
586,52482.692000,169.520,100.392,125.952,305.289,-87.425,454.887,-1247.780,-291.600,-376.060
587,52482.732000,214.726,84.329,130.048,306.999,-99.544,442.696,-1513.780,-271.600,-471.060
588,52482.772000,266.810,28.110,162.816,318.964,-122.578,427.304,-1535.780,-90.600,-439.060
589,52482.813000,288.430,10.039,185.344,320.486,-148.439,414.820,-1327.780,-19.600,-405.060
590,52482.852000,308.084,15.059,195.584,324.149,-156.751,408.681,-955.780,35.400,-360.060
591,52482.873000,268.775,9.035,185.344,328.700,-168.813,397.490,-759.780,-83.600,-317.060
592,52482.913000,252.069,22.086,155.648,333.309,-177.113,391.352,-710.780,-156.600,-303.060
593,52482.953000,210.795,15.059,149.504,340.763,-184.537,381.259,-599.780,-220.600,-254.060
594,52482.996000,178.365,6.024,122.880,352.076,-187.194,378.235,-427.780,-265.600,-163.060
595,52483.44000,168.537,7.027,104.448,354.757,-197.468,366.084,-327.780,-296.600,-82.060
596,52483.73000,177.382,3.012,111.616,364.220,-196.583,358.160,-350.780,-237.600,-20.060
597,52483.113000,181.313,1.004,119.808,369.734,-207.658,349.976,-289.780,-197.600,23.940
598,52483.133000,202.933,-1.004,133.120,372.543,-209.511,346.956,-132.780,-181.600,51.940
599,52483.173000,227.501,-8.031,130.048,373.473,-210.454,344.948,66.220,-104.600,111.940
600,52483.216000,217.674,-20.078,118.784,375.482,-202.145,347.117,496.220,-55.600,201.940
601,52483.261000,218.656,-15.059,103.424,369.916,-194.754,354.229,835.220,3.400,240.940
602,52483.296000,227.501,-4.016,104.448,369.232,-177.067,369.524,1124.220,106.400,262.940
603,52483.342000,247.155,3.012,114.688,366.643,-160.321,384.796,1608.220,312.400,268.940
604,52483.350000,223.570,73.286,150.528,359.478,-132.586,403.279,1990.220,301.400,172.940
605,52483.391000,215.708,74.290,116.736,349.566,-98.417,424.879,1939.220,361.400,338.940
606,52483.442000,186.226,114.447,109.568,345.367,-60.684,437.612,1829.220,258.400,322.940
607,52483.482000,189.175,135.529,130.048,338.270,-27.530,452.232,1844.220,274.400,306.940
608,52483.511000,187.209,154.604,151.552,334.929,4.563,456.888,1561.220,310.400,282.940
609,52483.557000,179.347,152.596,144.384,330.366,16.488,461.114,1153.220,233.400,338.940
610,52483.596000,179.347,140.549,118.784,325.761,25.607,462.296,908.220,49.400,397.940
611,52483.614000,188.192,134.525,102.400,332.609,42.165,461.664,742.220,-9.600,415.940
612,52483.657000,195.071,132.518,102.400,329.729,39.340,459.610,470.220,-105.600,422.940
613,52483.697000,196.054,117.459,90.112,339.234,43.032,454.730,56.220,-247.600,421.940
614,52483.733000,199.985,107.420,69.632,344.764,32.912,448.555,-158.780,-324.600,348.940
615,52483.774000,198.019,100.392,62.464,350.245,19.128,442.301,-309.780,-310.600,255.940
616,52483.813000,191.140,98.384,59.392,353.923,11.771,438.172,-423.780,-288.600,137.940
617,52483.834000,187.209,94.369,43.008,359.434,0.657,427.997,-508.780,-265.600,37.940
618,52483.881000,191.140,92.361,57.344,365.832,-15.765,426.662,-642.780,-203.600,-29.060
619,52483.914000,200.967,71.278,36.864,369.454,-26.865,418.474,-920.780,-358.600,-25.060
620,52483.954000,281.551,52.204,63.488,371.155,-39.861,408.254,-1049.780,-214.600,-46.060
621,52483.992000,336.583,-5.020,111.616,372.634,-69.308,399.672,-1071.780,34.400,113.940
622,52484.37000,385.720,-1.004,171.008,365.793,-85.788,404.285,-976.780,385.400,73.940
623,52484.84000,270.741,-1.004,178.176,365.524,-105.105,399.895,-717.780,120.400,-89.060
624,52484.92000,250.104,17.067,114.688,361.634,-112.543,396.747,-652.780,17.400,-172.060
625,52484.137000,207.846,22.086,82.944,363.435,-118.970,394.623,-580.780,22.400,-231.060
626,52484.177000,195.071,16.063,75.776,369.072,-121.682,392.585,-584.780,-34.600,-159.060
627,52484.219000,195.071,5.020,69.632,365.920,-143.863,384.151,-638.780,-70.600,-50.060
628,52484.258000,204.898,1.004,66.560,366.863,-143.890,382.162,-618.780,6.400,39.940
629,52484.314000,231.432,2.008,82.944,366.630,-160.478,376.836,-608.780,80.400,17.940
630,52484.322000,251.086,-3.012,105.472,366.526,-167.846,374.689,-649.780,32.400,-12.060
631,52484.361000,249.121,-6.024,104.448,369.284,-172.604,363.651,-673.780,-63.600,-116.060
632,52484.392000,245.190,-6.024,80.896,373.839,-184.626,354.450,-552.780,-170.600,-205.060
633,52484.432000,227.501,-10.039,72.704,377.581,-187.383,351.413,-467.780,-166.600,-261.060
634,52484.472000,223.570,-16.063,75.776,383.266,-185.691,340.517,-386.780,-201.600,-287.060
635,52484.512000,224.553,-19.075,73.728,387.069,-183.887,336.582,-280.780,-253.600,-289.060
636,52484.557000,233.397,-6.024,71.680,395.589,-182.975,330.646,-165.780,-242.600,-312.060
637,52484.578000,247.155,-12.047,84.992,402.215,-182.088,324.707,31.220,-246.600,-279.060
638,52484.616000,266.810,6.024,94.208,406.169,-169.291,321.007,64.220,-234.600,-299.060
639,52484.657000,280.568,11.043,100.352,412.929,-159.145,320.238,102.220,-236.600,-301.060
640,52484.692000,302.188,16.063,97.280,417.738,-152.787,314.413,271.220,-177.600,-237.060
641,52484.732000,294.326,45.176,108.544,422.575,-145.337,317.562,520.220,-173.600,-265.060
642,52484.778000,255.017,67.263,101.376,423.704,-132.401,322.813,560.220,-114.600,-265.060
643,52484.794000,201.950,74.290,91.136,431.521,-114.797,328.172,595.220,-66.600,-238.060
644,52484.834000,217.674,105.412,61.440,428.854,-102.807,334.391,725.220,155.400,-172.060
645,52484.874000,214.726,109.427,94.208,424.412,-83.319,350.713,749.220,395.400,-99.060
646,52484.916000,197.036,109.427,105.472,422.606,-77.710,357.793,675.220,350.400,-33.060
647,52484.957000,199.002,108.424,91.136,415.191,-67.518,368.940,611.220,351.400,-7.060
648,52485.12000,197.036,113.443,98.304,406.829,-57.358,379.090,504.220,345.400,-26.060
649,52485.33000,189.175,119.467,92.160,403.122,-52.632,389.131,339.220,236.400,-48.060
650,52485.53000,179.347,124.486,98.304,397.550,-45.320,392.263,116.220,102.400,-56.060
651,52485.94000,171.486,130.510,105.472,400.376,-46.198,392.248,-112.780,-7.600,-75.060
652,52485.134000,171.486,142.557,120.832,395.532,-54.506,392.064,-439.780,-71.600,-121.060
653,52485.176000,179.347,137.537,118.784,401.052,-65.522,386.865,-788.780,-155.600,-82.060
654,52485.215000,174.434,127.498,110.592,405.571,-80.254,379.595,-1029.780,-276.600,-36.060
655,52485.256000,165.589,100.392,82.944,409.837,-112.588,362.005,-1298.780,-345.600,-30.060
656,52485.295000,260.914,66.259,97.280,409.688,-122.802,354.825,-1416.780,-176.600,49.940
657,52485.318000,253.052,28.110,146.432,410.253,-149.572,343.315,-1162.780,-91.600,7.940
658,52485.354000,252.069,25.098,140.288,411.067,-158.039,331.200,-882.780,-220.600,7.940
659,52485.394000,261.896,11.043,115.712,407.004,-177.504,321.828,-605.780,-154.600,72.940
660,52485.433000,244.207,13.051,111.616,409.802,-180.254,319.784,-240.780,-74.600,93.940
661,52485.473000,219.639,12.047,87.040,409.672,-189.474,316.604,22.220,-111.600,98.940
662,52485.513000,209.812,10.039,83.968,407.840,-185.717,322.649,154.220,-16.600,130.940
663,52485.533000,220.622,9.035,94.208,404.081,-183.915,323.676,296.220,93.400,202.940
664,52485.582000,222.587,5.020,104.448,398.415,-183.854,330.632,464.220,155.400,262.940
665,52485.618000,216.691,7.027,92.160,392.876,-175.371,346.718,795.220,169.400,338.940
666,52485.658000,211.777,12.047,100.352,382.499,-174.358,358.660,902.220,243.400,355.940
667,52485.698000,217.674,8.031,115.712,371.270,-166.107,366.776,1044.220,368.400,404.940
668,52485.738000,222.587,14.055,122.880,361.149,-147.473,390.035,1293.220,382.400,468.940
669,52485.778000,214.726,12.047,116.736,348.149,-130.884,404.293,1373.220,357.400,526.940
670,52485.796000,210.795,-2.008,86.016,337.059,-113.296,421.560,1514.220,224.400,574.940
671,52485.843000,282.534,56.220,135.168,327.024,-87.489,437.014,1346.220,502.400,360.940
672,52485.883000,233.397,87.341,152.576,318.760,-70.020,446.325,1528.220,449.400,290.940
673,52485.917000,235.363,98.384,142.336,303.041,-44.366,457.789,1200.220,289.400,166.940
674,52485.964000,212.760,118.463,112.640,295.764,-24.096,469.151,1211.220,237.400,104.940
675,52485.995000,180.330,122.478,128.000,289.536,4.314,474.719,1249.220,338.400,86.940
676,52486.23000,153.797,139.545,142.336,280.472,32.726,482.273,1006.220,275.400,35.940
677,52486.59000,157.727,141.553,133.120,277.774,42.805,484.473,698.220,186.400,11.940
678,52486.93000,166.572,148.580,124.928,277.951,55.650,485.741,506.220,102.400,12.940
679,52486.133000,172.468,151.592,116.736,271.423,62.853,483.896,328.220,-4.600,11.940
680,52486.178000,183.278,156.612,111.616,274.360,70.200,483.062,89.220,-107.600,18.940
681,52486.219000,178.365,146.573,120.832,278.914,57.397,480.807,-286.780,-187.600,-10.060
682,52486.264000,182.296,139.545,122.880,292.091,52.894,475.757,-537.780,-232.600,-36.060
683,52486.279000,184.261,129.506,109.568,294.750,40.047,472.504,-744.780,-316.600,-54.060
684,52486.318000,183.278,125.490,98.304,302.933,16.243,467.036,-984.780,-382.600,-190.060
685,52486.358000,178.365,115.451,90.112,313.175,4.412,463.815,-1117.780,-385.600,-289.060
686,52486.399000,177.382,112.439,87.040,326.079,-19.467,451.391,-1362.780,-390.600,-397.060
687,52486.452000,172.468,106.416,83.968,335.148,-47.040,439.876,-1583.780,-391.600,-483.060
688,52486.482000,180.330,92.361,89.088,339.591,-67.289,431.495,-1745.780,-362.600,-529.060
689,52486.497000,213.743,87.341,101.376,350.519,-96.787,413.974,-1948.780,-182.600,-579.060
690,52486.538000,232.415,66.259,104.448,359.513,-129.097,394.402,-2342.780,-288.600,-642.060
691,52486.584000,268.775,21.082,146.432,370.502,-153.255,369.038,-2113.780,-117.600,-524.060
692,52486.614000,273.689,16.063,156.672,376.713,-181.860,353.519,-1743.780,-87.600,-476.060
693,52486.654000,309.067,7.027,168.960,376.604,-188.527,340.447,-1570.780,-50.600,-407.060
694,52486.694000,279.585,1.004,165.888,382.088,-200.732,321.297,-1164.780,-162.600,-336.060
695,52486.739000,255.017,9.035,138.240,392.363,-209.094,308.204,-885.780,-218.600,-316.060
696,52486.759000,219.639,-2.008,125.952,397.871,-220.246,296.039,-583.780,-237.600,-225.060
697,52486.806000,197.036,2.008,99.328,409.272,-215.711,286.206,-320.780,-319.600,-178.060
698,52486.866000,191.140,-2.008,89.088,416.792,-218.515,278.200,-128.780,-302.600,-109.060
699,52486.916000,191.140,-4.016,90.112,420.606,-215.815,273.290,-19.780,-247.600,-44.060
700,52486.932000,202.933,1.004,94.208,421.585,-213.112,270.365,121.220,-159.600,20.940
701,52486.954000,218.656,-6.024,99.328,426.287,-214.940,267.349,281.220,-86.600,89.940
702,52486.974000,228.484,-8.031,93.184,425.390,-212.068,274.372,529.220,-0.600,151.940
703,52487.14000,224.553,-8.031,100.352,423.676,-199.988,284.573,787.220,90.400,170.940
704,52487.62000,223.570,-13.051,100.352,419.026,-195.255,295.607,1027.220,177.400,229.940
705,52487.97000,229.466,-10.039,86.016,413.559,-181.315,309.821,1423.220,231.400,267.940
706,52487.137000,272.706,29.114,79.872,413.952,-155.156,336.239,1737.220,433.400,241.940
707,52487.183000,237.328,91.357,132.096,405.783,-131.955,357.608,1949.220,363.400,195.940
708,52487.219000,207.846,71.278,90.112,396.822,-97.715,382.195,1830.220,353.400,240.940
709,52487.239000,199.002,108.424,88.064,392.284,-84.737,393.405,1849.220,369.400,261.940
710,52487.279000,201.950,137.537,91.136,387.958,-56.185,404.947,1814.220,366.400,261.940
711,52487.317000,203.916,156.612,130.048,377.128,-19.397,420.634,1689.220,458.400,276.940
712,52487.357000,201.950,149.584,121.856,371.751,1.756,429.033,1239.220,302.400,363.940
713,52487.395000,196.054,138.541,100.352,369.111,15.597,436.286,1149.220,240.400,423.940
714,52487.435000,201.950,134.525,86.016,366.486,31.153,437.608,1101.220,157.400,448.940
715,52487.457000,203.916,128.502,87.040,364.743,42.122,437.839,755.220,89.400,508.940
716,52487.497000,207.846,119.467,83.968,366.511,32.985,437.647,420.220,37.400,541.940
717,52487.548000,206.864,101.396,72.704,370.343,36.661,435.742,215.220,-111.600,520.940
718,52487.579000,205.881,99.388,70.656,372.006,20.137,432.409,20.220,-123.600,443.940
719,52487.619000,211.777,91.357,64.512,373.807,13.710,430.285,41.220,-124.600,369.940
720,52487.659000,208.829,95.373,55.296,373.862,18.193,425.408,-46.780,-122.600,281.940
721,52487.698000,196.054,97.380,36.864,377.488,7.152,420.205,-113.780,-177.600,191.940
722,52487.726000,187.209,84.329,32.768,380.208,-1.134,416.054,-254.780,-184.600,129.940
723,52487.765000,197.036,70.275,57.344,385.731,-12.111,412.845,-441.780,-236.600,155.940
724,52487.801000,225.536,56.220,30.720,393.982,-29.737,395.573,-649.780,-623.600,243.940
725,52487.841000,265.827,3.012,60.416,397.560,-43.663,383.346,-944.780,-426.600,294.940
726,52487.878000,353.290,-26.102,124.928,400.084,-66.548,381.868,-995.780,68.400,366.940
727,52487.916000,311.033,-23.090,160.768,392.131,-94.230,376.294,-895.780,147.400,179.940
728,52487.940000,294.326,-8.031,117.760,391.972,-105.321,371.085,-974.780,10.400,25.940
729,52487.980000,246.173,-17.067,61.440,397.426,-120.957,363.797,-1036.780,-95.600,-136.060
730,52488.21000,203.916,-12.047,35.840,397.173,-138.539,354.471,-1039.780,-66.600,-256.060
731,52488.61000,201.950,-9.035,35.840,397.038,-147.818,348.306,-918.780,-56.600,-308.060
732,52488.95000,217.674,-8.031,31.744,402.642,-152.460,341.253,-825.780,-95.600,-252.060
733,52488.148000,230.449,-10.039,46.080,407.260,-159.883,333.144,-731.780,-27.600,-216.060
734,52488.178000,248.138,-13.051,58.368,410.102,-159.046,327.199,-680.780,6.400,-230.060
735,52488.198000,257.965,0.000,59.392,410.820,-174.783,317.913,-545.780,9.400,-268.060
736,52488.238000,254.035,-1.004,56.320,412.781,-170.119,320.999,-419.780,41.400,-293.060
737,52488.278000,254.035,-4.016,49.152,413.770,-166.520,317.099,-337.780,51.400,-322.060
738,52488.317000,244.207,-7.027,48.128,417.627,-161.013,315.232,-210.780,51.400,-351.060
739,52488.358000,233.397,-4.016,47.104,416.700,-160.031,319.230,-55.780,55.400,-351.060
740,52488.401000,231.432,-1.004,53.248,417.809,-148.109,319.486,169.220,27.400,-331.060
741,52488.422000,237.328,0.000,58.368,422.699,-136.955,324.703,364.220,71.400,-280.060
742,52488.460000,246.173,8.031,67.584,422.807,-129.528,329.835,406.220,81.400,-243.060
743,52488.513000,259.931,19.075,78.848,422.096,-112.933,336.155,393.220,85.400,-225.060
744,52488.542000,259.931,25.098,81.920,422.176,-107.378,339.257,300.220,69.400,-247.060
745,52488.576000,268.775,32.125,92.160,419.561,-91.705,346.549,442.220,45.400,-227.060
746,52488.615000,317.912,69.271,95.232,421.626,-79.653,352.777,420.220,139.400,-326.060
747,52488.660000,239.294,141.553,132.096,426.502,-69.435,356.980,386.220,165.400,-471.060
748,52488.675000,214.726,132.518,96.256,420.868,-66.683,361.009,147.220,29.400,-452.060
749,52488.718000,214.726,128.502,91.136,420.180,-48.275,366.373,82.220,271.400,-252.060
750,52488.758000,204.898,126.494,104.448,413.576,-48.129,378.302,318.220,418.400,-75.060
751,52488.798000,177.382,116.455,114.688,406.294,-27.918,386.678,434.220,353.400,-0.060
752,52488.838000,176.399,120.471,105.472,404.418,-27.748,396.625,289.220,322.400,9.940
753,52488.878000,177.382,123.482,111.616,397.795,-28.595,404.555,241.220,281.400,-1.060
754,52488.918000,175.417,124.486,118.784,390.334,-21.249,410.668,123.220,185.400,-49.060
755,52488.941000,171.486,131.514,117.760,384.658,-21.304,411.653,-36.780,103.400,-79.060
756,52488.982000,171.486,134.525,122.880,384.649,-22.182,413.623,-202.780,33.400,-83.060
757,52489.19000,173.451,134.525,121.856,385.490,-29.557,410.484,-438.780,-75.600,-78.060
758,52489.66000,168.537,132.518,112.640,386.381,-33.267,407.422,-643.780,-158.600,-92.060
759,52489.99000,184.261,127.498,103.424,391.678,-60.754,402.866,-855.780,-205.600,-111.060
760,52489.139000,207.846,127.498,96.256,393.482,-66.382,394.792,-1020.780,-206.600,-130.060
761,52489.159000,221.605,108.424,102.400,396.943,-89.372,387.346,-1003.780,-154.600,-75.060
762,52489.201000,210.795,73.286,111.616,393.901,-103.327,378.092,-1114.780,-22.600,11.940
763,52489.238000,203.916,58.227,104.448,392.700,-121.721,374.715,-1059.780,-17.600,88.940
764,52489.279000,208.829,30.118,101.376,391.503,-139.296,366.382,-901.780,0.400,148.940
765,52489.319000,239.294,5.020,124.928,387.434,-159.599,360.971,-843.780,56.400,124.940
766,52489.364000,231.432,7.027,140.288,381.623,-168.933,355.790,-532.780,81.400,94.940
767,52489.425000,232.415,10.039,125.952,376.798,-176.246,359.606,-56.780,155.400,104.940
768,52489.436000,222.587,21.082,107.520,378.648,-179.808,363.512,190.220,166.400,127.940
769,52489.457000,219.639,19.075,103.424,365.419,-179.748,375.429,348.220,221.400,180.940
770,52489.497000,216.691,22.086,104.448,358.932,-170.538,382.578,508.220,317.400,280.940
771,52489.537000,210.795,20.078,112.640,347.674,-164.918,396.606,652.220,394.400,368.940
772,52489.578000,213.743,17.067,110.592,333.630,-155.651,411.702,814.220,410.400,468.940
773,52489.618000,207.846,15.059,113.664,322.314,-153.794,420.676,938.220,469.400,525.940
774,52489.638000,208.829,17.067,124.928,308.301,-142.617,439.792,1035.220,521.400,537.940
775,52489.678000,205.881,12.047,132.096,291.530,-125.142,455.058,1219.220,551.400,565.940
776,52489.718000,198.019,16.063,130.048,270.122,-101.240,474.434,1394.220,461.400,581.940
777,52489.758000,230.449,19.075,133.120,256.345,-71.896,485.979,1428.220,518.400,564.940
778,52489.798000,272.706,46.180,174.080,241.437,-56.288,498.224,1446.220,686.400,509.940
779,52489.838000,165.589,144.565,173.056,225.727,-29.757,507.718,1493.220,422.400,299.940
780,52489.878000,171.486,125.490,165.888,208.231,4.916,513.403,1144.220,420.400,119.940
781,52489.898000,138.073,136.533,165.888,197.187,26.890,520.817,1035.220,359.400,109.940
782,52489.943000,132.177,136.533,167.936,186.155,49.780,528.250,967.220,306.400,143.940
783,52489.980000,137.090,143.561,166.912,178.874,70.771,529.681,769.220,246.400,108.940
784,52490.19000,136.107,151.592,156.672,172.415,83.392,523.972,621.220,148.400,89.940
785,52490.60000,154.779,154.604,149.504,170.560,86.115,524.027,476.220,74.400,84.940
786,52490.99000,157.727,151.592,151.552,172.631,99.005,526.294,310.220,-5.600,76.940
787,52490.119000,153.797,151.592,154.624,175.479,99.920,524.328,186.220,-65.600,52.940
788,52490.159000,153.797,150.588,149.504,176.403,98.139,526.281,-38.780,-168.600,23.940
789,52490.208000,156.745,146.573,148.480,180.104,92.575,520.200,-151.780,-211.600,29.940
790,52490.243000,155.762,143.561,145.408,185.831,96.315,520.288,-228.780,-254.600,5.940
791,52490.283000,158.710,140.549,140.288,198.978,89.141,519.160,-387.780,-344.600,-49.060
792,52490.323000,157.727,135.529,142.336,207.312,76.330,513.927,-493.780,-386.600,-96.060
793,52490.363000,154.779,136.533,140.288,220.355,61.788,510.653,-643.780,-440.600,-170.060
794,52490.384000,158.710,130.510,132.096,229.696,52.791,512.464,-806.780,-486.600,-230.060
795,52490.418000,158.710,128.502,133.120,251.250,38.284,505.225,-902.780,-514.600,-272.060
796,52490.462000,157.727,126.494,119.808,258.493,15.305,495.795,-1043.780,-558.600,-350.060
797,52490.503000,161.658,116.455,120.832,277.988,-11.176,486.308,-1165.780,-572.600,-409.060
798,52490.544000,157.727,112.439,116.736,294.684,-34.147,470.925,-1287.780,-588.600,-477.060
799,52490.578000,172.468,107.420,107.520,307.669,-51.671,455.651,-1413.780,-548.600,-569.060
800,52490.604000,205.881,91.357,112.640,321.574,-71.814,446.291,-1594.780,-481.600,-641.060
801,52490.639000,227.501,73.286,118.784,337.315,-94.895,425.931,-1948.780,-369.600,-643.060
802,52490.680000,248.138,35.137,158.720,342.590,-122.636,408.439,-1482.780,-241.600,-451.060
803,52490.718000,346.411,42.165,181.248,350.995,-129.989,401.333,-1161.780,-22.600,-442.060
804,52490.759000,263.862,31.122,188.416,359.306,-143.833,390.109,-658.780,-257.600,-317.060
805,52490.808000,251.086,57.224,138.240,365.867,-147.567,382.082,-645.780,-326.600,-363.060
806,52490.844000,215.708,37.145,112.640,376.272,-146.708,372.170,-326.780,-331.600,-223.060
807,52490.858000,190.157,28.110,102.400,383.820,-147.641,366.193,-175.780,-325.600,-149.060
808,52490.902000,185.244,20.078,90.112,393.240,-149.563,355.225,-282.780,-359.600,-92.060
809,52490.943000,194.088,23.090,81.920,398.778,-158.825,346.085,-109.780,-252.600,58.940
810,52490.983000,206.864,17.067,99.328,401.626,-157.911,344.119,-44.780,-155.600,115.940
811,52491.18000,226.518,15.059,116.736,403.490,-159.757,342.093,104.220,-51.600,178.940
812,52491.64000,226.518,5.020,103.424,402.563,-158.775,346.091,391.220,-41.600,244.940
813,52491.82000,221.605,2.008,103.424,401.687,-154.110,351.162,592.220,62.400,297.940
814,52491.121000,218.656,1.004,100.352,399.037,-141.165,359.391,963.220,124.400,347.940
815,52491.161000,229.466,-5.020,86.016,394.455,-131.773,374.504,1200.220,227.400,392.940
816,52491.200000,231.432,13.051,92.160,389.047,-113.292,386.825,1600.220,325.400,397.940
817,52491.246000,230.449,63.247,110.592,381.943,-80.995,404.410,1961.220,450.400,318.940
818,52491.283000,235.363,131.514,113.664,370.153,-45.136,420.076,2134.220,516.400,237.940
819,52491.329000,201.950,151.592,96.256,363.020,-14.711,435.632,1874.220,308.400,101.940
820,52491.344000,204.898,173.678,128.000,356.866,19.177,440.323,1429.220,331.400,98.940
821,52491.379000,196.054,162.635,135.168,358.025,34.004,448.597,1137.220,291.400,232.940
822,52491.430000,183.278,147.576,116.736,354.365,43.115,448.786,878.220,160.400,387.940
823,52491.472000,178.365,121.475,100.352,351.604,48.613,450.888,708.220,112.400,455.940
824,52491.500000,194.088,127.498,90.112,354.592,59.625,450.132,566.220,-6.600,413.940
825,52491.545000,199.985,136.533,88.064,354.597,60.463,446.172,302.220,-83.600,349.940
826,52491.559000,202.933,127.498,80.896,362.141,58.711,445.151,165.220,-140.600,348.940
827,52491.600000,203.916,118.463,75.776,368.693,54.101,439.095,-117.780,-220.600,357.940
828,52491.648000,201.950,103.404,69.632,374.128,36.711,435.749,-308.780,-216.600,365.940
829,52491.682000,202.933,96.376,74.752,379.660,26.611,430.569,-376.780,-173.600,336.940
830,52491.722000,201.950,93.365,74.752,380.277,2.745,427.078,-348.780,-155.600,243.940
831,52491.762000,197.036,80.314,55.296,380.209,-1.894,423.995,-295.780,-194.600,181.940
832,52491.802000,198.019,73.286,41.984,386.837,-0.988,419.051,-232.780,-99.600,117.940
833,52491.822000,199.002,71.278,46.080,386.643,-14.808,414.778,-248.780,-11.600,60.940
834,52491.869000,241.259,72.282,49.152,382.806,-18.542,413.698,-393.780,71.400,16.940
835,52491.904000,286.464,37.145,63.488,381.685,-31.380,413.423,-531.780,91.400,97.940
836,52491.946000,354.273,5.020,160.768,371.087,-46.039,420.058,-508.780,498.400,258.940
837,52491.984000,278.603,12.047,144.384,368.122,-55.258,418.863,-626.780,271.400,128.940
838,52492.22000,256.000,18.071,91.136,365.963,-74.561,416.459,-625.780,-78.600,4.940
839,52492.62000,209.812,19.075,55.296,365.822,-84.677,414.255,-680.780,-14.600,-87.060
840,52492.89000,207.846,12.047,57.344,371.368,-93.841,410.089,-745.780,24.400,-157.060
841,52492.120000,203.916,-5.020,65.536,368.346,-106.802,404.836,-611.780,28.400,-65.060
842,52492.162000,227.501,-22.086,66.560,366.322,-116.067,400.657,-475.780,9.400,19.940
843,52492.202000,235.363,-7.027,82.944,363.483,-116.104,400.652,-352.780,11.400,-1.060
844,52492.242000,243.225,-6.024,86.016,367.166,-123.403,399.508,-313.780,-39.600,-65.060
845,52492.280000,245.190,-3.012,74.752,369.958,-126.231,393.484,-252.780,-166.600,-118.060
846,52492.300000,240.276,-3.012,66.560,379.408,-126.262,385.540,-256.780,-271.600,-160.060
847,52492.340000,237.328,-13.051,54.272,384.051,-131.852,377.471,-229.780,-290.600,-208.060
848,52492.379000,240.276,-9.035,59.392,384.976,-132.854,372.478,-110.780,-333.600,-260.060
849,52492.420000,250.104,-3.012,65.536,396.465,-122.685,369.727,-88.780,-380.600,-297.060
850,52492.460000,265.827,0.000,71.680,406.884,-120.891,360.829,-8.780,-408.600,-319.060
851,52492.500000,275.655,11.043,77.824,411.801,-106.346,352.194,-3.780,-451.600,-337.060
852,52492.540000,290.395,34.133,84.992,420.254,-110.054,344.170,139.220,-421.600,-302.060
853,52492.561000,300.223,41.161,89.088,429.930,-94.354,344.519,160.220,-275.600,-315.060
854,52492.604000,259.931,81.318,112.640,432.885,-85.253,339.744,56.220,-265.600,-323.060
855,52492.642000,231.432,85.333,86.016,439.579,-79.727,336.887,5.220,-216.600,-292.060
856,52492.685000,206.864,77.302,58.368,442.373,-83.296,339.799,97.220,-54.600,-239.060
857,52492.728000,208.829,94.369,73.728,441.666,-65.882,341.164,164.220,113.400,-182.060
858,52492.765000,208.829,97.380,100.352,436.975,-63.937,350.150,200.220,242.400,-143.060
859,52492.785000,208.829,95.373,102.400,435.149,-60.102,360.175,195.220,301.400,-127.060
860,52492.824000,206.864,95.373,95.232,424.912,-48.213,366.381,295.220,319.400,-121.060
861,52492.865000,199.985,100.392,88.064,422.110,-46.282,373.380,171.220,254.400,-129.060
862,52492.900000,195.071,102.400,91.136,415.602,-38.845,383.475,60.220,214.400,-150.060
863,52492.940000,192.123,104.408,102.400,411.784,-41.585,386.395,-78.780,147.400,-177.060
864,52492.984000,192.123,118.463,110.592,410.926,-35.184,386.530,-251.780,107.400,-196.060
865,52493.20000,194.088,121.475,116.736,410.813,-43.430,386.355,-372.780,56.400,-216.060
866,52493.40000,195.071,128.502,116.736,409.879,-42.526,386.372,-492.780,-20.600,-209.060
867,52493.80000,199.002,122.478,106.496,411.485,-62.792,378.981,-653.780,-117.600,-164.060
868,52493.120000,199.002,122.478,105.472,412.341,-69.232,376.856,-812.780,-192.600,-136.060
869,52493.160000,200.967,116.455,94.208,413.236,-72.124,368.839,-975.780,-281.600,-93.060
870,52493.203000,204.898,94.369,88.064,416.664,-97.044,356.378,-910.780,-277.600,-18.060
871,52493.243000,233.397,72.282,100.352,419.298,-110.943,346.139,-971.780,-178.600,0.940
872,52493.262000,236.345,57.224,112.640,417.171,-127.576,339.814,-969.780,-45.600,93.940
873,52493.305000,252.069,31.122,118.784,412.179,-146.078,333.445,-941.780,-16.600,84.940
874,52493.347000,241.259,24.094,106.496,414.860,-157.132,328.241,-766.780,-16.600,89.940
875,52493.387000,232.415,17.067,91.136,414.744,-165.416,326.075,-552.780,70.400,63.940
876,52493.422000,225.536,16.063,84.992,411.672,-182.041,320.744,-326.780,72.400,43.940
877,52493.460000,223.570,16.063,83.968,408.002,-173.807,322.903,-36.780,131.400,50.940
878,52493.480000,222.587,14.055,90.112,405.059,-181.992,327.697,7.220,167.400,52.940
879,52493.525000,230.449,12.047,97.280,399.366,-183.783,333.619,149.220,238.400,94.940
880,52493.564000,229.466,18.071,107.520,389.120,-172.770,341.795,336.220,281.400,137.940
881,52493.608000,222.587,18.071,110.592,381.579,-171.759,351.752,478.220,273.400,189.940
882,52493.642000,219.639,13.051,102.400,374.041,-170.709,363.699,644.220,295.400,275.940
883,52493.685000,216.691,10.039,110.592,365.696,-159.574,376.854,791.220,383.400,339.940
884,52493.723000,214.726,11.043,110.592,348.708,-158.493,396.744,990.220,367.400,408.940
885,52493.743000,220.622,8.031,110.592,344.167,-145.554,405.965,1167.220,373.400,488.940
886,52493.783000,270.741,7.027,108.544,330.327,-121.570,424.358,1388.220,487.400,500.940
887,52493.820000,238.311,81.318,152.576,311.661,-104.920,445.572,1512.220,590.400,404.940
888,52493.865000,214.726,97.380,140.288,298.839,-75.467,462.094,1404.220,505.400,319.940
889,52493.902000,187.209,118.463,145.408,278.506,-41.571,476.710,1399.220,573.400,219.940
890,52493.943000,155.762,128.502,157.696,268.362,-23.211,486.038,1317.220,589.400,178.940
891,52493.983000,143.969,139.545,162.816,253.552,-0.293,497.445,1073.220,507.400,134.940
892,52494.9000,135.125,145.569,165.888,240.610,21.598,501.870,822.220,392.400,101.940
893,52494.43000,147.900,152.596,156.672,236.941,29.832,504.029,517.220,202.400,110.940
894,52494.89000,152.814,154.604,156.672,236.134,39.916,505.237,316.220,83.400,107.940
895,52494.123000,150.848,146.573,151.552,236.170,42.645,504.301,-38.780,-40.600,68.940
896,52494.163000,153.797,127.498,149.504,239.774,29.031,507.995,-260.780,-144.600,37.940
897,52494.204000,149.866,128.502,150.528,243.562,29.880,502.051,-421.780,-185.600,-6.060
898,52494.224000,155.762,125.490,150.528,251.848,13.444,498.729,-499.780,-214.600,-78.060
899,52494.265000,156.745,125.490,149.504,257.378,2.545,499.500,-571.780,-268.600,-155.060
900,52494.307000,158.710,125.490,147.456,262.941,-4.885,490.398,-635.780,-316.600,-225.060
901,52494.344000,159.693,125.490,136.192,278.838,-17.674,481.198,-749.780,-401.600,-286.060
902,52494.393000,160.676,120.471,120.832,286.147,-36.033,473.856,-870.780,-449.600,-321.060
903,52494.432000,164.607,117.459,120.832,304.900,-47.050,459.724,-1110.780,-441.600,-368.060
904,52494.467000,165.589,98.384,109.568,315.857,-74.657,445.228,-1303.780,-478.600,-394.060
905,52494.487000,216.691,85.333,111.616,327.870,-94.046,428.919,-1414.780,-359.600,-437.060
906,52494.575000,250.104,61.239,135.168,338.984,-110.581,418.637,-1500.780,-348.600,-419.060
907,52494.592000,270.741,17.067,153.600,343.406,-131.844,405.261,-1342.780,-248.600,-389.060
908,52494.608000,328.722,24.094,186.368,352.668,-144.857,389.083,-1210.780,-122.600,-453.060
909,52494.649000,278.603,18.071,156.672,365.702,-158.736,372.893,-1188.780,-273.600,-398.060
910,52494.684000,256.983,24.094,138.240,371.087,-178.251,354.582,-1191.780,-345.600,-422.060
911,52494.710000,223.570,21.082,115.712,383.332,-181.071,342.604,-1019.780,-437.600,-400.060
912,52494.748000,193.106,18.071,98.304,401.194,-187.598,324.588,-857.780,-500.600,-347.060
913,52494.783000,187.209,12.047,81.920,413.368,-195.096,307.538,-650.780,-517.600,-264.060
914,52494.822000,199.002,6.024,84.992,419.997,-193.410,295.648,-414.780,-460.600,-130.060
915,52494.864000,215.708,2.008,101.376,430.272,-201.772,282.555,-205.780,-385.600,-56.060
916,52494.904000,226.518,7.027,97.280,433.201,-194.522,276.746,169.220,-384.600,23.940
917,52494.944000,237.328,6.024,99.328,434.164,-192.775,271.811,499.220,-344.600,99.940
918,52494.964000,236.345,-2.008,77.824,443.755,-183.450,274.013,858.220,-251.600,172.940
919,52495.3000,229.466,-9.035,67.584,442.866,-179.720,278.070,1263.220,-272.600,313.940
920,52495.43000,241.259,-10.039,51.200,445.948,-162.977,289.372,1659.220,-226.600,392.940
921,52495.83000,240.276,13.051,61.440,443.422,-141.651,304.741,2016.220,-96.600,429.940
922,52495.123000,265.827,51.200,39.936,442.730,-124.062,315.061,2366.220,-70.600,320.940
923,52495.163000,265.827,82.322,50.176,445.096,-90.783,329.698,2438.220,-30.600,166.940
924,52495.182000,216.691,136.533,63.488,440.811,-59.443,343.289,2220.220,112.400,25.940
925,52495.229000,229.466,137.537,45.056,441.350,-20.030,345.123,1851.220,1.400,-60.060
926,52495.264000,232.415,152.596,70.656,437.881,2.103,355.535,1556.220,229.400,-25.060
927,52495.304000,223.570,128.502,78.848,438.102,17.775,360.842,1098.220,353.400,159.940
928,52495.344000,207.846,122.478,59.392,429.640,20.606,370.836,849.220,299.400,257.940
929,52495.390000,203.916,111.435,49.152,426.993,34.369,374.109,686.220,265.400,335.940
930,52495.424000,213.743,108.424,38.912,426.013,31.647,376.039,475.220,95.400,332.940
931,52495.444000,215.708,110.431,37.888,427.945,34.440,377.096,231.220,11.400,312.940
932,52495.493000,223.570,105.412,34.816,427.868,28.923,375.984,-3.780,-86.600,319.940
933,52495.530000,226.518,95.373,40.960,431.441,14.179,368.713,-110.780,-136.600,336.940
934,52495.564000,218.656,91.357,35.840,435.136,7.777,366.593,-198.780,-153.600,338.940
935,52495.604000,214.726,86.337,32.768,435.890,-6.011,363.317,-251.780,-132.600,289.940
936,52495.645000,205.881,71.278,24.576,434.822,-14.367,358.164,-302.780,-124.600,256.940
937,52495.665000,199.002,68.267,15.360,439.426,-23.505,355.987,-402.780,-155.600,206.940
938,52495.708000,224.553,68.267,0.000,440.132,-40.158,346.682,-519.780,-141.600,98.940
939,52495.769000,232.415,59.231,30.720,439.989,-50.294,343.482,-776.780,-183.600,136.940
940,52495.783000,229.466,4.016,32.768,440.644,-70.632,333.104,-1108.780,-78.600,330.940
941,52495.828000,331.670,-29.114,18.432,436.420,-101.986,324.473,-1082.780,-13.600,444.940
942,52495.867000,352.307,-37.145,43.008,427.504,-131.415,323.834,-1064.780,157.400,570.940
943,52495.908000,334.618,-64.251,86.016,418.810,-144.373,322.551,-1022.780,616.400,303.940
944,52495.935000,294.326,-46.180,72.704,413.923,-156.267,326.269,-1003.780,364.400,-11.060
945,52495.992000,238.311,-28.110,30.720,414.750,-164.578,322.115,-758.780,115.400,-281.060
946,52496.8000,204.898,-30.118,17.408,416.556,-170.186,315.035,-783.780,-28.600,-340.060
947,52496.55000,213.743,-36.141,8.192,422.108,-178.513,306.909,-554.780,-236.600,-252.060
948,52496.84000,215.708,-39.153,13.312,422.991,-182.321,298.872,-331.780,-283.600,-145.060
949,52496.130000,236.345,-39.153,17.408,428.643,-183.318,290.902,-192.780,-253.600,-148.060
950,52496.144000,255.017,-30.118,39.936,434.406,-176.090,282.113,-307.780,-226.600,-173.060
951,52496.183000,267.793,-21.082,36.864,443.846,-176.998,276.140,-209.780,-261.600,-298.060
952,52496.223000,294.326,-17.067,22.528,446.829,-166.045,272.399,-140.780,-243.600,-356.060
953,52496.263000,317.912,-3.012,33.792,448.680,-168.807,270.354,-110.780,-190.600,-347.060
954,52496.309000,303.171,0.000,58.368,450.718,-157.847,267.606,-146.780,-13.600,-344.060
955,52496.343000,281.551,27.106,65.536,455.530,-151.450,263.771,-159.780,-127.600,-339.060
956,52496.389000,245.190,45.176,56.320,462.192,-148.614,263.841,-49.780,-0.600,-377.060
957,52496.403000,219.639,56.220,37.888,464.291,-134.632,275.083,157.220,139.400,-374.060
958,52496.449000,219.639,74.290,41.984,461.538,-129.036,282.160,312.220,260.400,-297.060
959,52496.487000,234.380,88.345,62.464,459.792,-118.886,287.347,442.220,385.400,-262.060
960,52496.542000,225.536,87.341,86.016,456.220,-104.882,303.554,517.220,513.400,-192.060
961,52496.564000,216.691,89.349,94.208,447.832,-97.334,320.611,428.220,536.400,-136.060
962,52496.614000,208.829,90.353,77.824,437.679,-80.610,339.850,529.220,592.400,-168.060
963,52496.629000,203.916,96.376,76.800,429.336,-69.456,354.000,432.220,534.400,-207.060
964,52496.669000,194.088,106.416,91.136,423.751,-63.819,365.052,281.220,461.400,-188.060
965,52496.710000,193.106,112.439,97.280,413.421,-59.181,375.082,96.220,396.400,-211.060
966,52496.750000,190.157,128.502,126.976,410.555,-61.850,380.989,-309.780,339.400,-263.060
967,52496.784000,188.192,132.518,133.120,402.978,-62.788,384.936,-591.780,255.400,-264.060
968,52496.824000,183.278,126.494,122.880,399.980,-74.696,386.668,-978.780,125.400,-262.060
969,52496.864000,163.624,119.467,103.424,401.745,-83.092,377.540,-1221.780,-57.600,-263.060
970,52496.890000,225.536,99.388,68.608,408.977,-106.967,369.085,-1391.780,-177.600,-219.060
971,52496.930000,233.397,51.200,135.168,405.884,-124.607,358.759,-1490.780,28.400,-116.060
972,52496.964000,234.380,48.188,144.384,409.350,-146.778,346.357,-1289.780,-59.600,-163.060
973,52497.4000,246.173,31.122,124.928,407.258,-160.682,339.095,-930.780,-135.600,-122.060
974,52497.50000,256.983,23.090,124.928,407.132,-169.083,330.959,-597.780,-33.600,-33.060
975,52497.84000,236.345,23.090,114.688,405.156,-174.702,325.863,-338.780,-93.600,21.940
976,52497.105000,220.622,24.094,93.184,401.239,-183.992,321.681,-71.780,-85.600,91.940
977,52497.149000,210.795,24.094,87.040,401.281,-181.185,324.725,49.220,-19.600,165.940
978,52497.189000,219.639,15.059,84.992,400.238,-188.487,326.557,141.220,1.400,221.940
979,52497.227000,221.605,7.027,99.328,396.483,-186.647,329.575,305.220,111.400,278.940
980,52497.268000,224.553,6.024,100.352,387.991,-185.706,336.545,530.220,185.400,357.940
981,52497.309000,219.639,6.024,107.520,374.684,-191.183,346.355,622.220,239.400,391.940
982,52497.345000,234.380,10.039,107.520,366.378,-177.280,360.563,794.220,264.400,408.940
983,52497.369000,225.536,8.031,111.616,356.094,-169.796,375.627,857.220,283.400,411.940
984,52497.405000,219.639,14.055,112.640,346.686,-166.958,386.615,903.220,280.400,401.940
985,52497.447000,211.777,10.039,123.904,341.102,-161.321,397.667,932.220,277.400,407.940
986,52497.487000,217.674,14.055,121.856,331.942,-140.960,414.996,994.220,303.400,400.940
987,52497.532000,237.328,45.176,154.624,321.648,-133.593,424.089,1004.220,279.400,314.940
988,52497.565000,245.190,72.282,142.336,312.500,-112.315,441.437,970.220,297.400,265.940
989,52497.585000,206.864,88.345,142.336,300.365,-101.288,451.601,871.220,295.400,225.940
990,52497.627000,200.967,90.353,155.648,294.921,-84.776,456.917,762.220,315.400,246.940
991,52497.667000,189.175,83.325,148.480,281.778,-78.323,467.976,749.220,306.400,310.940
992,52497.707000,178.365,87.341,143.360,277.233,-65.423,475.206,677.220,271.400,305.940
993,52497.747000,178.365,89.349,143.360,266.948,-57.179,482.329,645.220,249.400,308.940
994,52497.787000,177.382,99.388,146.432,262.330,-49.756,490.437,614.220,239.400,262.940
995,52497.825000,175.417,102.400,135.168,255.922,-34.230,492.747,581.220,164.400,223.940
996,52497.845000,177.382,105.412,140.288,253.153,-29.589,497.815,491.220,174.400,218.940
997,52497.887000,182.296,111.435,147.456,248.514,-23.180,500.929,414.220,157.400,202.940
998,52497.927000,181.313,105.412,148.480,241.081,-13.203,501.130,350.220,106.400,195.940
999,52497.969000,181.313,107.420,148.480,244.898,-11.243,505.156,291.220,73.400,168.940
1000,52498.9000,184.261,108.424,145.408,239.342,-2.195,503.351,177.220,13.400,130.940
1001,52498.50000,186.226,104.408,140.288,244.036,-4.881,503.301,80.220,-0.600,93.940
1002,52498.70000,188.192,97.380,131.072,244.011,-6.714,503.262,-45.780,-31.600,54.940
1003,52498.108000,193.106,89.349,134.144,243.990,-7.727,498.267,-167.780,-46.600,-4.060
1004,52498.148000,199.002,81.318,135.168,247.640,-17.735,499.054,-341.780,-29.600,-70.060
1005,52498.187000,206.864,71.278,132.096,249.352,-30.595,495.799,-507.780,-52.600,-178.060
1006,52498.227000,210.795,67.263,130.048,254.109,-28.700,495.846,-597.780,-32.600,-249.060
1007,52498.273000,212.760,55.216,139.264,255.747,-47.056,492.474,-719.780,-54.600,-329.060
1008,52498.307000,225.536,46.180,148.480,255.547,-60.935,485.216,-891.780,-6.600,-404.060
1009,52498.332000,224.553,31.122,151.552,261.963,-75.603,479.940,-913.780,-44.600,-419.060
1010,52498.365000,218.656,28.110,145.408,265.488,-93.993,473.586,-966.780,-110.600,-437.060
1011,52498.407000,211.777,28.110,143.360,271.874,-110.552,465.286,-953.780,-151.600,-460.060
1012,52498.447000,207.846,27.106,139.264,277.467,-116.091,459.209,-855.780,-108.600,-471.060
1013,52498.493000,206.864,21.082,137.216,285.761,-131.669,452.922,-791.780,-168.600,-484.060
1014,52498.527000,202.933,23.090,132.096,293.240,-137.261,442.867,-765.780,-247.600,-396.060
1015,52498.547000,208.829,28.110,128.000,304.329,-155.629,432.546,-725.780,-266.600,-330.060
1016,52498.587000,211.777,29.114,122.880,310.876,-160.298,423.505,-694.780,-291.600,-284.060
1017,52498.627000,209.812,24.094,130.048,318.320,-168.599,415.382,-665.780,-265.600,-243.060
1018,52498.667000,211.777,21.082,136.192,328.641,-174.115,407.323,-551.780,-251.600,-227.060
1019,52498.707000,219.639,22.086,130.048,334.249,-177.938,395.314,-443.780,-243.600,-192.060
1020,52498.747000,215.708,20.078,128.000,343.629,-183.408,390.239,-361.780,-228.600,-166.060
1021,52498.788000,214.726,19.075,120.832,348.281,-188.121,380.199,-253.780,-223.600,-144.060
1022,52498.808000,214.726,18.071,129.024,354.949,-184.447,376.308,-160.780,-171.600,-134.060
1023,52498.848000,214.726,21.082,125.952,358.686,-188.042,377.232,-28.780,-169.600,-117.060
1024,52498.890000,214.726,24.094,124.928,364.473,-179.761,375.427,85.220,-116.600,-71.060
1025,52498.930000,212.760,22.086,128.000,366.386,-177.962,372.485,156.220,-107.600,-21.060
1026,52498.970000,219.639,19.075,120.832,368.217,-182.498,373.385,200.220,-54.600,34.940
1027,52499.10000,216.691,22.086,122.880,369.301,-172.408,373.602,298.220,-84.600,65.940
1028,52499.50000,217.674,31.122,121.856,371.183,-173.280,374.581,317.220,-69.600,70.940
1029,52499.77000,230.449,39.153,122.880,368.502,-162.226,379.785,391.220,-41.600,68.940
1030,52499.117000,233.397,39.153,120.832,369.405,-165.800,383.689,468.220,5.400,84.940
1031,52499.152000,224.553,41.161,114.688,370.652,-144.561,392.100,587.220,32.400,113.940
1032,52499.192000,216.691,42.165,113.664,369.754,-141.708,398.127,759.220,80.400,186.940
1033,52499.232000,214.726,49.192,110.592,363.280,-130.801,398.350,801.220,94.400,189.940
1034,52499.272000,216.691,50.196,116.736,363.562,-111.329,410.700,839.220,105.400,170.940
1035,52499.293000,216.691,58.227,108.544,358.953,-103.029,416.838,832.220,105.400,150.940
1036,52499.332000,213.743,60.235,105.472,358.304,-81.853,423.255,828.220,119.400,133.940
1037,52499.372000,209.812,65.255,102.400,355.664,-68.012,430.508,768.220,128.400,82.940
1038,52499.407000,206.864,68.267,104.448,356.721,-60.553,436.637,748.220,117.400,44.940
1039,52499.447000,205.881,81.318,102.400,350.236,-50.544,437.835,647.220,83.400,-8.060
1040,52499.487000,211.777,97.380,109.568,352.296,-38.551,441.077,547.220,69.400,-75.060
1041,52499.527000,218.656,110.431,115.712,349.650,-24.788,444.350,452.220,59.400,-116.060
1042,52499.547000,218.656,114.447,110.592,349.821,-12.001,442.633,198.220,-20.600,-139.060
1043,52499.587000,212.760,104.408,105.472,352.699,-9.195,443.692,-10.780,-99.600,-136.060
1044,52499.627000,206.864,99.388,99.328,357.376,-12.856,440.637,-196.780,-176.600,-141.060
1045,52499.679000,204.898,95.373,98.304,360.246,-10.148,436.720,-373.780,-209.600,-195.060
1046,52499.708000,205.881,96.376,102.400,366.749,-18.403,431.581,-440.780,-212.600,-228.060
1047,52499.752000,206.864,98.384,101.376,372.290,-27.626,424.430,-492.780,-255.600,-267.060
1048,52499.767000,212.760,101.396,100.352,379.877,-25.792,419.507,-505.780,-274.600,-280.060
1049,52499.807000,211.777,99.388,94.208,383.593,-30.400,415.436,-526.780,-300.600,-283.060
1050,52499.853000,217.674,96.376,96.256,387.262,-37.874,405.336,-546.780,-290.600,-256.060
1051,52499.887000,218.656,93.365,92.160,392.806,-47.058,400.176,-500.780,-276.600,-212.060
1052,52499.927000,216.691,89.349,95.232,404.065,-53.438,394.089,-418.780,-243.600,-137.060
1053,52499.973000,220.622,85.333,95.232,403.041,-58.207,385.034,-372.780,-196.600,-100.060
1054,52500.13000,220.622,82.322,93.184,408.760,-54.565,380.147,-311.780,-168.600,-63.060
1055,52500.33000,218.656,78.306,93.184,410.589,-59.140,379.057,-256.780,-99.600,-23.060
1056,52500.67000,215.708,76.298,96.256,409.525,-67.457,375.895,-216.780,-52.600,-7.060
1057,52500.109000,217.674,75.294,97.280,411.419,-67.412,376.893,-168.780,-18.600,-0.060
1058,52500.149000,216.691,74.290,98.304,412.276,-73.832,375.763,-108.780,15.400,19.940
1059,52500.192000,218.656,77.302,102.400,409.450,-72.953,375.778,-81.780,41.400,26.940
1060,52500.227000,218.656,74.290,105.472,406.538,-78.468,376.651,-38.780,61.400,59.940
1061,52500.247000,216.691,70.275,105.472,405.568,-80.293,377.605,0.220,74.400,91.940
1062,52500.292000,215.708,68.267,106.496,401.777,-81.182,381.559,30.220,80.400,108.940
1063,52500.330000,217.674,69.271,107.520,402.789,-76.549,383.649,67.220,89.400,114.940
1064,52500.370000,215.708,70.275,110.592,397.052,-81.166,385.531,83.220,88.400,108.940
1065,52500.417000,216.691,71.278,111.616,393.284,-80.241,388.529,69.220,74.400,98.940
1066,52500.449000,212.760,70.275,109.568,393.245,-83.009,387.475,49.220,66.400,96.940
1067,52500.489000,215.708,70.275,108.544,390.320,-89.440,388.329,25.220,61.400,93.940
1068,52500.512000,215.708,69.271,111.616,386.596,-84.929,387.425,13.220,52.400,97.940
1069,52500.552000,214.726,66.259,112.640,388.406,-91.258,390.277,-4.780,38.400,90.940
1070,52500.588000,214.726,65.255,111.616,386.449,-95.884,389.181,-15.780,22.400,81.940
