Sample, Time, ACCX, ACCY, ACCZ, MAGX, MAGY, MAGZ, GYRX, GYRY, GYRZ
0,52897.693000,223.570,-37.145,104.448,381.625,-293.427,216.876,-43.780,-34.600,17.940
1,52897.739000,225.536,-38.149,106.496,386.353,-293.404,214.894,21.220,-15.600,5.940
2,52897.774000,225.536,-38.149,107.520,385.483,-287.900,216.004,51.220,-18.600,0.940
3,52897.826000,223.570,-39.153,106.496,390.220,-287.779,218.998,127.220,-9.600,-5.060
4,52897.854000,231.432,-34.133,102.400,386.435,-287.829,218.991,233.220,-17.600,-34.060
5,52897.901000,232.415,-28.110,104.448,391.184,-286.792,222.004,248.220,-26.600,-67.060
6,52897.914000,245.190,-19.075,101.376,390.394,-275.732,226.217,262.220,17.400,-96.060
7,52897.949000,240.276,-17.067,102.400,391.410,-271.061,230.296,308.220,3.400,-139.060
8,52897.993000,230.449,-11.043,96.256,393.395,-264.565,233.421,236.220,-24.600,-194.060
9,52898.33000,225.536,-13.051,102.400,395.378,-258.088,235.552,148.220,-16.600,-214.060
10,52898.73000,232.415,-12.047,98.304,403.972,-252.459,236.679,88.220,-29.600,-245.060
11,52898.112000,234.380,-18.071,100.352,407.793,-249.680,235.749,25.220,-10.600,-249.060
12,52898.163000,227.501,-18.071,103.424,410.760,-240.442,237.939,-25.780,-23.600,-274.060
13,52898.172000,226.518,-15.059,97.280,417.442,-235.832,235.063,24.220,-4.600,-311.060
14,52898.213000,220.622,-13.051,100.352,421.294,-231.143,238.153,99.220,46.400,-330.060
15,52898.254000,214.726,3.012,98.304,425.201,-222.750,243.310,260.220,96.400,-396.060
16,52898.289000,225.536,68.267,82.944,431.174,-201.507,248.744,249.220,154.400,-520.060
17,52898.329000,225.536,90.353,103.424,433.236,-189.494,252.982,39.220,160.400,-547.060
18,52898.369000,246.173,94.369,129.024,439.940,-183.851,256.096,-334.780,192.400,-471.060
19,52898.412000,229.466,71.278,114.688,445.636,-182.022,252.164,-542.780,69.400,-328.060
20,52898.439000,226.518,63.247,100.352,447.483,-184.843,247.134,-595.780,15.400,-255.060
21,52898.473000,213.743,49.192,106.496,450.340,-183.051,243.198,-620.780,20.400,-176.060
22,52898.514000,227.501,44.173,122.880,448.374,-187.793,236.131,-491.780,59.400,-218.060
23,52898.554000,226.518,37.145,129.024,449.272,-191.426,237.050,-266.780,70.400,-268.060
24,52898.597000,218.656,43.169,139.264,458.821,-184.908,236.208,-194.780,86.400,-312.060
25,52898.629000,210.795,42.165,139.264,459.884,-176.591,239.371,-99.780,78.400,-336.060
26,52898.652000,202.933,44.173,138.240,466.694,-162.781,238.680,-29.780,-14.600,-405.060
27,52898.692000,191.140,58.227,130.048,468.682,-155.486,235.854,37.220,-78.600,-454.060
28,52898.742000,180.330,70.275,122.880,474.480,-146.308,233.074,-11.780,-216.600,-489.060
29,52898.777000,167.555,72.282,120.832,482.176,-136.267,226.337,-108.780,-333.600,-484.060
30,52898.817000,150.848,59.231,102.400,487.027,-126.342,215.614,-183.780,-475.600,-461.060
31,52898.849000,189.175,74.290,115.712,494.643,-121.096,197.834,-400.780,-503.600,-457.060
32,52898.892000,222.587,59.231,128.000,504.298,-105.631,186.242,-294.780,-471.600,-478.060
33,52898.913000,257.965,58.227,124.928,508.042,-107.609,176.259,-103.780,-346.600,-416.060
34,52898.953000,287.447,69.271,154.624,510.962,-101.236,172.420,-51.780,-162.600,-353.060
35,52899.3000,244.207,65.255,125.952,514.031,-83.870,168.816,101.220,-200.600,-366.060
36,52899.34000,200.967,84.329,68.608,516.981,-75.607,168.001,412.220,-137.600,-393.060
37,52899.75000,183.278,91.357,67.584,521.043,-55.383,169.432,663.220,42.400,-350.060
38,52899.115000,179.347,112.439,71.680,520.316,-39.743,173.743,885.220,120.400,-320.060
39,52899.133000,178.365,122.478,75.776,522.353,-29.562,177.941,843.220,109.400,-291.060
40,52899.173000,192.123,143.561,75.776,516.833,-18.546,183.140,590.220,60.400,-232.060
41,52899.213000,216.691,168.659,97.280,519.849,-5.663,184.414,530.220,152.400,-64.060
42,52899.253000,225.536,154.604,100.352,516.968,-9.268,189.306,314.220,71.400,99.940
43,52899.305000,227.501,151.592,107.520,516.937,-11.938,193.228,239.220,114.400,245.940
44,52899.333000,222.587,134.525,107.520,515.935,-16.453,197.108,194.220,113.400,371.940
45,52899.373000,209.812,125.490,99.328,516.701,-30.105,200.798,172.220,24.400,443.940
46,52899.393000,199.002,111.435,70.656,513.782,-35.697,197.690,197.220,11.400,478.940
47,52899.433000,202.933,106.416,67.584,510.798,-46.670,200.436,165.220,75.400,507.940
48,52899.470000,209.812,101.396,76.800,506.816,-61.339,202.108,129.220,64.400,489.940
49,52899.522000,217.674,95.373,79.872,507.667,-68.597,204.938,21.220,48.400,471.940
50,52899.554000,215.708,91.357,87.040,506.517,-83.307,202.634,-99.780,-1.600,428.940
51,52899.609000,220.622,81.318,79.872,500.685,-94.434,199.405,-154.780,-67.600,399.940
52,52899.618000,227.501,79.310,83.968,499.681,-98.969,202.291,-22.780,24.400,387.940
53,52899.658000,229.466,78.306,95.232,495.674,-115.470,203.923,91.220,36.400,362.940
54,52899.690000,232.415,79.310,89.088,490.911,-118.203,207.836,278.220,17.400,336.940
55,52899.730000,233.397,73.286,86.016,486.994,-128.272,210.600,321.220,41.400,354.940
56,52899.803000,224.553,68.267,78.848,484.144,-129.206,211.571,377.220,24.400,385.940
57,52899.819000,213.743,74.290,69.632,482.222,-131.882,216.484,436.220,19.400,361.940
58,52899.854000,215.708,80.314,62.464,480.258,-137.364,218.354,423.220,50.400,332.940
59,52899.875000,214.726,90.353,70.656,470.681,-146.514,225.107,282.220,60.400,292.940
60,52899.922000,213.743,92.361,78.848,472.551,-148.302,226.067,154.220,0.400,283.940
61,52899.953000,215.708,93.365,68.608,466.824,-152.022,226.974,62.220,-40.600,273.940
62,52899.994000,226.518,84.329,72.704,461.018,-161.297,224.778,-70.780,8.400,357.940
63,52900.42000,255.017,59.231,89.088,455.231,-169.578,226.583,-189.780,58.400,446.940
64,52900.75000,248.138,48.188,87.040,449.262,-190.764,224.134,-250.780,73.400,520.940
65,52900.95000,247.155,25.098,93.184,440.577,-202.864,219.885,-331.780,53.400,599.940
66,52900.135000,229.466,-2.008,78.848,432.847,-214.835,221.608,-368.780,-8.600,571.940
67,52900.177000,233.397,0.000,73.728,427.879,-231.524,214.283,-381.780,-56.600,547.940
68,52900.212000,238.311,-14.055,79.872,417.193,-251.057,205.894,-454.780,-82.600,526.940
69,52900.253000,233.397,-19.075,87.040,413.323,-256.720,199.800,-410.780,-91.600,358.940
70,52900.307000,232.415,-21.082,87.040,410.208,-276.153,191.425,-438.780,-63.600,311.940
71,52900.340000,238.311,-32.125,91.136,405.386,-282.667,189.290,-495.780,-22.600,289.940
72,52900.354000,234.380,-39.153,97.280,402.459,-288.358,181.207,-408.780,32.400,220.940
73,52900.394000,232.415,-41.161,86.016,396.638,-298.569,177.998,-292.780,24.400,210.940
74,52900.435000,229.466,-39.153,82.944,394.697,-301.479,170.970,-277.780,3.400,170.940
75,52900.477000,230.449,-40.157,89.088,389.902,-306.122,170.864,-286.780,31.400,111.940
76,52900.518000,236.345,-33.129,98.304,387.002,-309.961,163.816,-385.780,67.400,73.940
77,52900.553000,242.242,-39.153,94.208,390.785,-309.930,162.828,-415.780,127.400,11.940
78,52900.599000,237.328,-47.184,91.136,390.738,-312.796,156.799,-413.780,213.400,-67.060
79,52900.614000,235.363,-51.200,87.040,387.812,-319.246,156.657,-359.780,299.400,-129.060
80,52900.669000,231.432,-49.192,89.088,390.750,-311.880,156.818,-380.780,338.400,-231.060
81,52900.697000,236.345,-32.125,82.944,394.553,-310.855,159.830,-311.780,347.400,-298.060
82,52900.737000,224.553,-30.118,99.328,394.585,-308.945,163.849,-215.780,382.400,-335.060
83,52900.772000,225.536,-26.102,97.280,399.482,-296.933,166.101,-166.780,232.400,-369.060
84,52900.813000,229.466,-12.047,98.304,401.494,-288.585,170.260,-42.780,270.400,-337.060
85,52900.834000,227.501,-11.043,103.424,409.152,-282.072,170.410,63.220,144.400,-307.060
86,52900.875000,246.173,9.035,94.208,413.979,-275.499,175.530,154.220,125.400,-228.060
87,52900.915000,233.397,-1.004,95.232,410.195,-276.309,183.465,243.220,185.400,-2.060
88,52900.957000,224.553,3.012,108.544,407.304,-280.810,189.332,214.220,237.400,27.940
89,52900.997000,219.639,4.016,114.688,406.496,-271.505,197.486,278.220,141.400,52.940
90,52901.38000,219.639,2.008,109.568,406.454,-275.072,202.383,341.220,15.400,25.940
91,52901.52000,225.536,9.035,107.520,404.714,-264.844,211.550,305.220,17.400,-4.060
92,52901.95000,222.587,4.016,113.664,405.687,-262.980,212.586,268.220,0.400,-23.060
93,52901.143000,230.449,13.051,108.544,408.447,-268.478,210.484,74.220,-47.600,-66.060
94,52901.177000,226.518,2.008,111.616,403.780,-263.940,211.568,-20.780,-6.600,-53.060
95,52901.217000,223.570,-1.004,109.568,410.479,-258.356,211.697,-45.780,-8.600,-61.060
96,52901.252000,225.536,-1.004,105.472,409.531,-258.388,210.700,41.220,-77.600,-98.060
97,52901.299000,226.518,8.031,111.616,413.365,-254.693,209.790,4.220,-24.600,-100.060
98,52901.312000,222.587,5.020,118.784,415.290,-251.978,206.867,17.220,-101.600,-128.060
99,52901.357000,228.484,18.071,106.496,419.911,-260.141,207.694,61.220,-162.600,-151.060
100,52901.397000,233.397,17.067,101.376,422.877,-250.143,201.944,-22.780,-76.600,-186.060
101,52901.437000,229.466,22.086,107.520,428.569,-249.133,202.968,-89.780,-16.600,-176.060
102,52901.472000,228.484,14.055,105.472,429.701,-235.398,202.268,-121.780,27.400,-173.060
103,52901.517000,223.570,16.063,109.568,434.422,-236.232,203.251,-163.780,30.400,-218.060
104,52901.563000,227.501,14.055,104.448,435.338,-238.110,200.229,-86.780,9.400,-197.060
105,52901.584000,224.553,21.082,106.496,437.333,-230.737,201.383,-25.780,13.400,-204.060
106,52901.617000,218.656,21.082,117.760,440.284,-222.454,201.564,-7.780,22.400,-162.060
107,52901.662000,231.432,30.118,109.568,443.071,-226.101,200.496,-20.780,-23.600,-192.060
108,52901.694000,225.536,32.125,108.544,444.143,-216.927,200.693,-13.780,-21.600,-157.060
109,52901.744000,228.484,31.122,106.496,444.175,-214.237,197.766,-59.780,-36.600,-111.060
110,52901.778000,224.553,29.114,108.544,447.907,-217.890,195.705,-113.780,-0.600,-98.060
111,52901.830000,225.536,20.078,107.520,449.803,-217.826,197.698,-65.780,-1.600,-89.060
112,52901.852000,227.501,29.114,107.520,450.755,-216.976,193.739,-27.780,11.400,-84.060
113,52901.873000,224.553,32.125,111.616,452.742,-210.460,197.859,42.220,39.400,-55.060
114,52901.913000,221.605,35.137,108.544,449.940,-207.749,197.913,86.220,11.400,-49.060
115,52901.957000,224.553,36.141,107.520,449.047,-204.058,199.979,101.220,-0.600,-51.060
116,52901.997000,227.501,32.125,109.568,451.860,-205.872,198.950,85.220,48.400,-47.060
117,52902.44000,225.536,36.141,109.568,453.804,-202.163,200.027,87.220,66.400,-53.060
118,52902.80000,224.553,42.165,111.616,450.971,-202.902,210.948,71.220,86.400,-64.060
119,52902.95000,222.587,39.153,108.544,452.869,-202.039,206.990,77.220,60.400,-50.060
120,52902.137000,220.622,47.184,119.808,452.022,-195.502,214.091,63.220,79.400,-36.060
121,52902.178000,222.587,43.169,114.688,451.015,-200.076,214.986,75.220,31.400,-16.060
122,52902.220000,222.587,49.192,110.592,448.250,-194.636,214.104,30.220,20.400,4.940
123,52902.257000,224.553,48.188,110.592,453.904,-196.374,215.070,3.220,30.400,39.940
124,52902.282000,226.518,44.173,109.568,448.228,-196.429,216.055,-32.780,15.400,54.940
125,52902.315000,224.553,47.184,114.688,450.092,-198.275,214.029,-110.780,23.400,60.940
126,52902.358000,223.570,32.125,107.520,450.042,-201.940,213.951,-157.780,-34.600,71.940
127,52902.398000,223.570,33.129,106.496,444.250,-210.280,212.770,-176.780,49.400,25.940
128,52902.453000,211.777,44.173,120.832,447.161,-204.784,210.902,-203.780,5.400,36.940
129,52902.483000,216.691,37.145,113.664,445.090,-217.674,208.635,-211.780,46.400,26.940
130,52902.517000,214.726,40.157,128.000,448.911,-214.895,207.706,-219.780,32.400,34.940
131,52902.538000,217.674,34.133,122.880,446.079,-214.075,204.735,-211.780,18.400,49.940
132,52902.580000,217.674,34.133,125.952,445.044,-220.520,203.602,-150.780,8.400,61.940
133,52902.613000,220.622,32.125,124.928,443.055,-227.056,198.486,-118.780,-0.600,93.940
134,52902.664000,219.639,21.082,119.808,442.131,-225.275,196.534,-96.780,-36.600,124.940
135,52902.725000,218.656,25.098,118.784,441.175,-226.165,198.502,-136.780,-28.600,127.940
136,52902.757000,224.553,37.145,115.712,436.292,-237.240,197.265,-155.780,9.400,227.940
137,52902.770000,225.536,25.098,105.472,434.323,-242.781,196.149,-5.780,65.400,289.940
138,52902.808000,230.449,30.118,109.568,423.761,-254.712,201.848,54.220,136.400,325.940
139,52902.833000,230.449,16.063,113.664,420.916,-255.587,205.803,27.220,210.400,404.940
140,52902.883000,222.587,11.043,113.664,410.315,-270.285,210.448,125.220,232.400,439.940
141,52902.918000,221.605,4.016,118.784,402.681,-275.745,217.283,93.220,322.400,470.940
142,52902.958000,222.587,-3.012,118.784,389.427,-276.759,221.220,135.220,296.400,487.940
143,52903.8000,217.674,-7.027,121.856,377.955,-286.732,233.922,138.220,368.400,493.940
144,52903.15000,211.777,-22.086,114.688,367.470,-293.146,240.732,87.220,321.400,414.940
145,52903.55000,211.777,-11.043,136.192,355.066,-301.437,246.505,40.220,323.400,319.940
146,52903.103000,209.812,-18.071,136.192,350.289,-305.105,249.404,-20.780,344.400,245.940
147,52903.138000,204.898,-26.102,145.408,339.779,-313.351,256.175,-184.780,377.400,182.940
148,52903.174000,192.123,-42.165,157.696,333.993,-321.613,258.975,-220.780,388.400,168.940
149,52903.224000,178.365,-51.200,143.360,322.630,-322.621,261.920,-205.780,348.400,156.940
150,52903.238000,174.434,-65.255,167.936,317.893,-323.521,265.873,-238.780,334.400,111.940
151,52903.279000,175.417,-66.259,195.584,311.137,-332.848,261.686,-200.780,335.400,38.940
152,52903.322000,173.451,-68.267,201.728,310.174,-334.595,266.620,-74.780,261.400,25.940
153,52903.359000,182.296,-67.263,190.464,307.388,-330.929,268.683,-24.780,151.400,-20.060
154,52903.394000,180.330,-59.231,180.224,310.265,-328.143,268.747,-36.780,-18.600,-73.060
155,52903.437000,189.175,-77.302,171.008,311.263,-324.447,269.822,67.220,-103.600,-81.060
156,52903.477000,181.313,-59.231,163.840,316.883,-328.894,272.719,365.220,-144.600,-102.060
157,52903.497000,183.278,-52.204,153.600,326.545,-314.130,272.053,347.220,-197.600,-103.060
158,52903.537000,193.106,-48.188,147.456,329.442,-310.331,277.112,331.220,-209.600,-116.060
159,52903.574000,194.088,-52.204,148.480,329.484,-307.524,280.155,405.220,-182.600,-83.060
160,52903.617000,223.570,-52.204,142.336,338.213,-292.616,287.448,520.220,-129.600,-100.060
161,52903.655000,218.656,-25.098,148.480,339.221,-288.803,294.493,697.220,-68.600,-182.060
162,52903.697000,205.881,-2.008,149.504,347.042,-271.140,302.838,692.220,-132.600,-214.060
163,52903.732000,197.036,27.106,147.456,354.845,-255.232,315.123,896.220,-141.600,-286.060
164,52903.775000,186.226,51.200,160.768,356.025,-238.631,320.452,902.220,-40.600,-324.060
165,52903.798000,188.192,57.224,163.840,367.679,-218.053,334.832,756.220,-67.600,-333.060
166,52903.837000,185.244,65.255,159.744,372.539,-208.790,337.025,561.220,-155.600,-341.060
167,52903.883000,194.088,63.247,156.672,378.370,-197.683,339.260,329.220,-221.600,-308.060
168,52903.914000,197.036,76.298,146.432,387.091,-182.093,334.631,275.220,-292.600,-324.060
169,52903.958000,198.019,88.345,136.192,397.539,-178.428,327.762,128.220,-373.600,-313.060
170,52903.978000,200.967,75.294,134.144,406.156,-170.207,320.987,-102.780,-449.600,-238.060
171,52904.29000,201.950,77.302,128.000,414.620,-172.258,304.047,-213.780,-542.600,-203.060
172,52904.57000,205.881,74.290,114.688,419.305,-174.282,291.081,-295.780,-591.600,-174.060
173,52904.98000,211.777,72.282,107.520,430.719,-168.830,281.268,-360.780,-543.600,-195.060
174,52904.148000,227.501,64.251,103.424,439.215,-168.192,261.401,-356.780,-534.600,-173.060
175,52904.184000,229.466,60.235,103.424,444.785,-174.764,249.334,-317.780,-414.600,-106.060
176,52904.217000,220.622,31.122,102.400,450.437,-175.761,241.364,-414.780,-425.600,-5.060
177,52904.244000,238.311,41.161,93.184,451.257,-183.390,225.288,-246.780,-366.600,3.940
178,52904.279000,242.242,39.153,81.920,453.077,-188.063,219.224,-250.780,-266.600,15.940
179,52904.319000,253.052,18.071,80.896,458.781,-185.376,212.327,-351.780,-203.600,39.940
180,52904.363000,239.294,-9.035,99.328,458.572,-200.132,207.039,-401.780,-23.600,149.940
181,52904.400000,214.726,-26.102,103.424,453.781,-203.976,200.983,-337.780,-27.600,191.940
182,52904.438000,225.536,-9.035,90.112,450.925,-205.748,205.914,-38.780,81.400,204.940
183,52904.463000,225.536,51.200,92.160,456.630,-203.821,206.958,174.220,201.400,67.940
184,52904.514000,220.622,64.251,87.040,450.953,-204.656,214.889,130.220,164.400,-43.060
185,52904.535000,210.795,74.290,103.424,451.979,-199.088,217.993,-186.780,201.400,-101.060
186,52904.587000,250.104,71.278,130.048,447.142,-207.318,221.789,-265.780,242.400,-70.060
187,52904.620000,228.484,52.204,124.928,449.061,-205.441,222.826,-259.780,167.400,4.940
188,52904.660000,202.933,30.118,99.328,445.197,-211.027,220.713,-260.780,10.400,134.940
189,52904.695000,198.019,8.031,91.136,446.076,-215.654,217.632,-191.780,-11.600,170.940
190,52904.715000,207.846,1.004,103.424,443.126,-223.917,218.446,-58.780,30.400,169.940
191,52904.770000,195.071,-23.090,121.856,440.364,-218.438,219.553,79.220,66.400,79.940
192,52904.798000,205.881,-32.125,115.712,439.412,-219.289,223.512,327.220,53.400,-104.060
193,52904.838000,235.363,-1.004,129.024,443.478,-199.785,234.874,634.220,153.400,-308.060
194,52904.878000,255.017,38.149,146.432,442.706,-187.751,242.092,723.220,163.400,-480.060
195,52904.918000,254.035,72.282,136.192,447.702,-169.191,251.446,713.220,60.400,-519.060
196,52904.950000,249.121,81.318,122.880,453.682,-147.109,252.919,503.220,-143.600,-461.060
197,52904.980000,226.518,79.310,100.352,461.346,-139.758,249.109,337.220,-228.600,-371.060
198,52905.20000,217.674,81.318,107.520,469.993,-129.646,245.358,153.220,-297.600,-250.060
199,52905.59000,205.881,85.333,102.400,471.008,-124.215,241.497,86.220,-309.600,-226.060
200,52905.104000,200.967,85.333,96.256,475.753,-122.457,234.578,-17.780,-347.600,-217.060
201,52905.144000,203.916,93.365,98.304,479.661,-112.505,225.844,-79.780,-289.600,-227.060
202,52905.183000,206.864,94.369,88.064,486.272,-112.573,217.896,-153.780,-345.600,-217.060
203,52905.210000,211.777,93.365,83.968,489.181,-106.318,208.087,-209.780,-318.600,-196.060
204,52905.239000,200.967,88.345,86.016,492.932,-108.217,202.084,-220.780,-342.600,-173.060
205,52905.280000,201.950,79.310,82.944,497.675,-106.479,194.171,-394.780,-350.600,-156.060
206,52905.318000,245.190,58.227,83.968,500.417,-112.192,181.123,-212.780,-142.600,-46.060
207,52905.359000,256.983,53.208,119.808,496.635,-112.203,183.106,-60.780,22.400,15.940
208,52905.400000,236.345,58.227,105.472,501.401,-109.431,181.183,-0.780,-16.600,27.940
209,52905.429000,243.225,73.286,91.136,502.365,-108.444,184.190,-48.780,70.400,15.940
210,52905.459000,225.536,74.290,76.800,501.434,-107.501,186.198,-58.780,53.400,73.940
211,52905.497000,206.864,64.251,71.680,504.136,-117.541,185.988,-266.780,36.400,71.940
212,52905.538000,252.069,67.263,78.848,497.510,-117.648,184.981,-210.780,94.400,82.940
213,52905.578000,235.363,50.196,87.040,496.493,-123.099,187.848,-41.780,87.400,100.940
214,52905.618000,232.415,70.275,81.920,492.658,-126.813,187.763,-58.780,64.400,12.940
215,52905.659000,225.536,69.271,74.752,496.468,-124.931,187.809,-155.780,-38.600,-63.060
216,52905.677000,222.587,71.278,74.752,495.530,-124.086,184.841,-346.780,-32.600,-199.060
217,52905.719000,223.570,83.325,63.488,499.391,-117.760,178.019,-404.780,-69.600,-297.060
218,52905.759000,230.449,89.349,61.440,504.041,-123.272,173.930,-562.780,-88.600,-308.060
219,52905.799000,210.795,78.306,68.608,511.619,-121.535,164.032,-874.780,-222.600,-272.060
220,52905.845000,212.760,70.275,73.728,510.589,-126.382,150.997,-1021.780,-227.600,-178.060
221,52905.890000,212.760,64.251,77.824,513.465,-122.836,143.120,-1114.780,-354.600,-69.060
222,52905.897000,223.570,66.259,71.680,514.308,-128.652,126.088,-860.780,-254.600,-1.060
223,52905.939000,250.104,83.325,87.040,511.346,-137.052,119.937,-641.780,-171.600,67.940
224,52905.979000,234.380,87.341,116.736,516.934,-142.649,110.875,-643.780,-229.600,133.940
225,52906.17000,246.173,74.290,92.160,512.974,-153.986,95.708,-358.780,-324.600,220.940
226,52906.59000,254.035,79.310,78.848,509.069,-162.359,91.545,-184.780,-198.600,337.940
227,52906.102000,229.466,51.200,117.760,508.955,-170.623,90.375,-112.780,-110.600,462.940
228,52906.137000,212.760,24.094,115.712,502.023,-192.796,84.919,-200.780,-125.600,486.940
229,52906.157000,214.726,6.024,91.136,496.224,-201.214,79.758,-161.780,-155.600,528.940
230,52906.199000,251.086,-17.067,115.712,491.278,-216.870,78.423,40.220,43.400,565.940
231,52906.240000,231.432,-14.055,126.976,489.241,-227.830,81.171,311.220,84.400,451.940
232,52906.294000,225.536,8.031,115.712,475.978,-230.480,95.020,740.220,134.400,401.940
233,52906.337000,210.795,5.020,100.352,473.053,-238.451,110.760,818.220,189.400,435.940
234,52906.397000,212.760,2.008,99.328,462.510,-250.166,127.404,731.220,335.400,506.940
235,52906.405000,214.726,-2.008,106.496,451.114,-255.403,148.163,686.220,330.400,564.940
236,52906.420000,227.501,4.016,94.208,447.272,-260.735,158.985,749.220,331.400,578.940
237,52906.460000,228.484,7.027,102.400,434.759,-277.992,174.513,621.220,376.400,597.940
238,52906.498000,226.518,11.043,120.832,422.515,-275.932,194.432,409.220,412.400,605.940
239,52906.537000,211.777,-14.055,141.312,406.131,-298.872,202.871,203.220,330.400,637.940
240,52906.577000,207.846,-16.063,145.408,392.863,-301.581,213.735,185.220,299.400,624.940
241,52906.617000,192.123,-20.078,138.240,378.585,-308.902,223.504,247.220,200.400,603.940
242,52906.638000,193.106,-27.106,144.384,375.639,-317.126,226.309,305.220,129.400,630.940
243,52906.685000,190.157,-39.153,145.408,362.332,-322.603,236.119,411.220,23.400,640.940
244,52906.732000,198.019,-35.137,136.192,354.682,-329.018,240.944,459.220,-114.600,630.940
245,52906.772000,181.313,-43.169,119.808,340.383,-337.354,245.719,534.220,-238.600,636.940
246,52906.799000,222.587,-37.145,119.808,334.716,-337.311,251.679,573.220,-154.600,631.940
247,52906.838000,256.000,-36.141,131.072,327.094,-341.855,258.534,491.220,-18.600,555.940
248,52906.883000,256.000,-42.165,149.504,317.559,-348.218,267.336,361.220,-118.600,423.940
249,52906.903000,234.380,-35.137,133.120,317.593,-345.508,265.404,107.220,-197.600,165.940
250,52906.949000,229.466,-61.239,130.048,318.404,-354.774,259.241,-182.780,-218.600,55.940
251,52906.978000,225.536,-76.298,108.544,321.283,-351.189,253.353,-76.780,-283.600,-1.060
252,52907.18000,218.656,-65.255,101.376,327.938,-348.432,249.443,-19.780,-244.600,-113.060
253,52907.73000,218.656,-63.247,101.376,327.960,-346.638,247.492,-68.780,-252.600,-207.060
254,52907.112000,221.605,-53.208,97.280,335.503,-347.630,238.530,-76.780,-250.600,-273.060
255,52907.118000,220.622,-52.204,87.040,346.875,-345.745,233.614,-27.780,-250.600,-308.060
256,52907.160000,211.777,-52.204,95.232,356.396,-341.098,230.743,-26.780,-168.600,-313.060
257,52907.200000,215.708,-42.165,84.992,364.147,-327.334,227.069,61.220,-200.600,-306.060
258,52907.240000,214.726,-38.149,80.896,364.086,-331.895,227.967,61.220,-146.600,-297.060
259,52907.282000,208.829,-34.133,83.968,373.705,-319.939,224.257,4.220,-144.600,-306.060
260,52907.323000,214.726,-31.122,79.872,381.413,-309.761,224.485,125.220,-151.600,-347.060
261,52907.358000,230.449,-19.075,102.400,390.970,-302.385,220.677,42.220,-72.600,-341.060
262,52907.378000,265.827,17.067,113.664,394.835,-296.780,223.786,6.220,12.400,-365.060
263,52907.418000,253.052,39.153,119.808,397.697,-294.930,222.835,-48.780,55.400,-361.060
264,52907.458000,243.225,34.133,135.168,399.738,-283.931,222.078,-208.780,114.400,-307.060
265,52907.522000,238.311,26.102,122.880,405.330,-290.249,222.946,-267.780,116.400,-227.060
266,52907.543000,229.466,16.063,99.328,406.401,-280.315,215.202,-162.780,71.400,-156.060
267,52907.590000,223.570,11.043,75.776,408.202,-287.522,220.025,-93.780,139.400,-74.060
268,52907.598000,231.432,-1.004,94.208,401.534,-291.196,223.915,-122.780,236.400,1.940
269,52907.648000,240.276,-9.035,109.568,403.553,-281.990,225.109,-135.780,212.400,42.940
270,52907.680000,234.380,-1.004,106.496,399.711,-286.562,227.990,-124.780,180.400,58.940
271,52907.720000,227.501,-1.004,89.088,400.621,-289.278,228.928,-5.780,77.400,66.940
272,52907.760000,227.501,-2.008,89.088,394.900,-292.940,232.820,-51.780,91.400,115.940
273,52907.798000,224.553,-17.067,93.184,388.136,-303.124,231.598,-14.780,65.400,191.940
274,52907.842000,221.605,-25.098,102.400,386.256,-302.233,231.615,33.220,44.400,261.940
275,52907.863000,214.726,-28.110,101.376,384.381,-301.283,234.616,184.220,-6.600,294.940
276,52907.898000,222.587,-29.114,98.304,378.588,-310.403,240.381,317.220,2.400,299.940
277,52907.938000,231.432,-26.102,110.592,369.209,-304.933,245.457,508.220,71.400,301.940
278,52907.988000,227.501,-26.102,111.616,365.361,-311.103,260.239,725.220,59.400,319.940
279,52908.22000,251.086,-27.106,101.376,361.764,-298.172,268.466,879.220,95.400,366.940
280,52908.74000,249.121,-21.082,91.136,353.340,-293.352,286.460,883.220,122.400,354.940
281,52908.82000,241.259,-18.071,91.136,345.855,-288.598,300.475,796.220,96.400,308.940
282,52908.138000,240.276,-7.027,77.824,337.387,-286.605,314.430,798.220,109.400,258.940
283,52908.168000,237.328,-12.047,73.728,331.895,-274.497,328.604,648.220,210.400,197.940
284,52908.203000,228.484,-16.063,73.728,327.273,-267.114,334.722,488.220,230.400,131.940
285,52908.269000,230.449,-16.063,71.680,323.472,-269.658,347.593,325.220,225.400,18.940
286,52908.284000,233.397,-30.118,97.280,315.996,-263.267,351.696,53.220,288.400,-56.060
287,52908.333000,246.173,-57.224,133.120,312.205,-264.155,355.650,-30.780,252.400,-214.060
288,52908.339000,249.121,-57.224,138.240,311.338,-258.613,358.751,-30.780,183.400,-452.060
289,52908.383000,239.294,-57.224,128.000,318.135,-246.498,364.987,-109.780,85.400,-630.060
290,52908.423000,213.743,-57.224,148.480,324.872,-238.166,365.174,-85.780,105.400,-826.060
291,52908.464000,201.950,-50.196,155.648,337.399,-221.513,365.547,193.220,25.400,-992.060
292,52908.504000,169.520,-9.035,163.840,347.175,-199.244,373.993,281.220,118.400,-1055.060
293,52908.547000,184.261,84.329,152.576,353.126,-179.813,380.383,163.220,281.400,-1037.060
294,52908.560000,157.727,99.388,163.840,353.455,-156.715,390.821,95.220,358.400,-871.060
295,52908.603000,164.607,127.498,180.224,353.560,-149.327,393.962,-16.780,369.400,-715.060
296,52908.644000,179.347,115.451,153.600,350.767,-146.519,398.991,-329.780,267.400,-458.060
297,52908.685000,181.313,110.431,130.048,353.582,-148.294,399.952,-535.780,231.400,-316.060
298,52908.719000,185.244,89.349,131.072,351.522,-160.287,396.710,-616.780,183.400,-172.060
299,52908.759000,178.365,61.239,146.432,343.853,-167.697,397.536,-582.780,157.400,-95.060
300,52908.804000,193.106,52.204,159.744,342.864,-170.516,394.490,-455.780,219.400,-52.060
301,52908.825000,188.192,46.180,171.008,339.070,-171.443,396.454,-264.780,268.400,-43.060
302,52908.904000,173.451,58.227,185.344,332.354,-178.762,401.262,-128.780,311.400,-27.060
303,52908.923000,171.486,51.200,190.464,326.694,-177.863,404.256,-76.780,277.400,6.940
304,52908.944000,173.451,49.192,192.512,320.912,-186.085,409.046,-33.780,171.400,12.940
305,52908.983000,170.503,48.188,185.344,320.978,-181.466,411.134,-12.780,49.400,10.940
306,52909.24000,161.658,44.173,183.296,321.942,-179.699,407.194,-14.780,-75.600,-17.060
307,52909.64000,170.503,25.098,178.176,325.628,-186.978,407.045,25.220,-197.600,-48.060
308,52909.82000,148.883,14.055,158.720,329.540,-176.968,401.296,54.220,-337.600,-104.060
309,52909.119000,166.572,5.020,161.792,340.929,-173.348,391.443,266.220,-482.600,-183.060
310,52909.163000,156.745,19.075,143.360,354.298,-164.070,388.677,352.220,-578.600,-308.060
311,52909.199000,186.226,20.078,140.288,355.386,-153.162,383.937,424.220,-313.600,-318.060
312,52909.258000,226.518,63.247,159.744,368.865,-135.658,380.351,302.220,-299.600,-417.060
313,52909.284000,221.605,134.525,173.056,381.171,-134.677,375.417,37.220,-369.600,-626.060
314,52909.303000,219.639,131.514,169.984,389.984,-111.857,365.969,-425.780,-309.600,-685.060
315,52909.344000,196.054,118.463,155.648,400.341,-114.643,356.974,-468.780,-319.600,-597.060
316,52909.383000,197.036,107.420,149.504,408.974,-105.467,352.208,-343.780,-264.600,-380.060
317,52909.422000,173.451,95.373,144.384,415.587,-105.516,345.255,-211.780,-241.600,-251.060
318,52909.464000,161.658,108.424,133.120,417.393,-111.124,338.176,-135.780,-259.600,-166.060
319,52909.508000,166.572,106.416,120.832,422.202,-104.766,332.350,-243.780,-275.600,-86.060
320,52909.542000,174.434,101.396,122.880,426.857,-109.440,324.301,-299.780,-269.600,-69.060
321,52909.565000,162.641,98.384,115.712,429.558,-118.720,316.150,-360.780,-268.600,-54.060
322,52909.605000,188.192,81.318,116.736,433.269,-123.388,309.094,-440.780,-278.600,21.940
323,52909.643000,203.916,79.310,115.712,435.112,-126.248,302.073,-466.780,-196.600,47.940
324,52909.690000,251.086,54.212,148.480,434.920,-140.048,298.795,-248.780,1.400,179.940
325,52909.723000,239.294,51.200,164.864,431.094,-142.886,296.740,-106.780,81.400,236.940
326,52909.763000,229.466,67.263,133.120,430.945,-153.860,297.501,-54.780,0.400,244.940
327,52909.783000,209.812,72.282,118.784,430.040,-151.085,299.548,-5.780,38.400,202.940
328,52909.820000,214.726,70.275,125.952,425.124,-164.850,301.237,-27.780,85.400,191.940
329,52909.889000,215.708,57.224,122.880,419.428,-166.679,305.168,31.220,131.400,279.940
330,52909.904000,207.846,54.212,134.144,414.689,-167.600,308.125,40.220,179.400,315.940
331,52909.957000,207.846,55.216,141.312,407.972,-174.938,311.938,81.220,165.400,285.940
332,52909.984000,192.123,54.212,131.072,405.016,-184.039,316.713,33.220,83.400,212.940
333,52910.24000,181.313,59.231,121.856,404.065,-184.110,313.726,-11.780,19.400,149.940
334,52910.43000,175.417,60.235,134.144,403.077,-186.910,311.676,-133.780,14.400,87.940
335,52910.85000,170.503,61.239,138.240,402.081,-190.587,311.596,-230.780,-13.600,75.940
336,52910.124000,172.468,61.239,154.624,399.988,-204.510,303.339,-377.780,-65.600,97.940
337,52910.164000,211.777,49.192,177.152,403.690,-210.055,298.254,-503.780,-27.600,155.940
338,52910.213000,231.432,-2.008,192.512,398.801,-221.189,294.031,-282.780,30.400,311.940
339,52910.244000,230.449,-42.165,193.536,388.344,-224.972,294.930,51.220,110.400,503.940
340,52910.262000,205.881,-27.106,160.768,380.706,-231.250,306.720,570.220,80.400,544.940
341,52910.302000,198.019,-13.051,146.432,371.373,-222.915,317.825,916.220,111.400,462.940
342,52910.344000,184.261,18.071,130.048,367.781,-210.704,335.983,1281.220,137.400,325.940
343,52910.384000,168.537,53.208,118.784,366.022,-202.231,349.091,1309.220,171.400,261.940
344,52910.424000,165.589,86.337,141.312,358.677,-187.380,364.316,1157.220,157.400,181.940
345,52910.464000,189.175,108.424,185.344,355.156,-168.931,373.655,722.220,133.400,137.940
346,52910.503000,190.157,96.376,204.800,350.424,-169.773,380.592,489.220,50.400,182.940
347,52910.522000,194.088,85.333,194.560,355.177,-167.918,378.650,212.220,-134.600,202.940
348,52910.563000,190.157,78.306,182.272,358.005,-168.017,371.689,122.220,-292.600,206.940
349,52910.613000,179.347,62.243,157.696,367.393,-173.389,371.589,-5.780,-444.600,161.940
350,52910.648000,175.417,54.212,137.216,371.180,-171.779,357.704,-213.780,-574.600,70.940
351,52910.684000,185.244,50.196,133.120,383.282,-184.736,342.526,-403.780,-616.600,-25.060
352,52910.724000,199.985,50.196,133.120,392.740,-183.130,324.671,-446.780,-572.600,-92.060
353,52910.744000,205.881,53.208,140.288,406.806,-190.603,307.624,-609.780,-537.600,-194.060
354,52910.784000,203.916,51.200,135.168,413.394,-191.705,293.685,-589.780,-511.600,-207.060
355,52910.830000,203.916,46.180,128.000,421.789,-199.175,280.608,-570.780,-488.600,-179.060
356,52910.868000,199.985,45.176,110.592,433.119,-198.558,257.762,-564.780,-432.600,-140.060
357,52910.902000,192.123,44.173,99.328,438.646,-207.956,241.656,-492.780,-400.600,-124.060
358,52910.942000,195.071,50.196,81.920,442.487,-202.624,230.834,-419.780,-297.600,-61.060
359,52910.982000,191.140,45.176,88.064,444.358,-203.632,224.847,-484.780,-189.600,-22.060
360,52911.9000,195.071,48.188,80.896,446.118,-212.087,212.734,-551.780,-82.600,0.940
361,52911.44000,280.568,58.227,74.752,444.171,-215.055,202.722,-692.780,75.400,71.940
362,52911.84000,295.309,-5.020,113.664,440.212,-227.152,195.496,-802.780,99.400,244.940
363,52911.133000,317.912,-10.039,96.256,436.316,-234.648,189.363,-372.780,-11.600,261.940
364,52911.182000,359.186,2.008,74.752,432.393,-244.775,189.142,-100.780,166.400,243.940
365,52911.204000,290.395,-27.106,148.480,426.741,-243.018,189.171,-11.780,267.400,280.940
366,52911.222000,261.896,-17.067,126.976,426.660,-249.353,193.014,64.220,14.400,51.940
367,52911.262000,229.466,14.055,79.872,430.467,-247.510,191.070,126.220,-143.600,25.940
368,52911.304000,208.829,11.043,31.744,427.672,-244.721,195.104,290.220,-9.600,63.940
369,52911.372000,206.864,-8.031,50.176,429.600,-242.746,201.116,250.220,46.400,138.940
370,52911.387000,204.898,-8.031,74.752,426.736,-244.616,201.072,342.220,8.400,166.940
371,52911.427000,220.622,4.016,65.536,423.855,-248.221,205.965,265.220,-91.600,101.940
372,52911.473000,223.570,-2.008,52.224,423.005,-240.943,204.129,203.220,-188.600,61.940
373,52911.487000,229.466,0.000,52.224,424.882,-241.873,202.123,227.220,-69.600,35.940
374,52911.529000,263.862,17.067,76.800,423.966,-239.995,205.145,252.220,51.400,-15.060
375,52911.565000,249.121,24.094,83.968,429.658,-238.984,206.170,169.220,-140.600,-70.060
376,52911.609000,256.983,19.075,71.680,432.514,-237.212,201.238,-188.780,-144.600,-93.060
377,52911.642000,254.035,-1.004,96.256,432.425,-242.865,193.161,-397.780,-152.600,-73.060
378,52911.682000,240.276,-5.020,83.968,438.120,-241.055,188.235,-326.780,-181.600,-103.060
379,52911.704000,232.415,-7.027,80.896,439.985,-242.122,179.263,-177.780,-195.600,-122.060
380,52911.744000,214.726,-10.039,70.656,445.726,-236.687,172.425,-129.780,-196.600,-133.060
381,52911.784000,211.777,-19.075,68.608,446.666,-236.752,168.446,-104.780,-153.600,-164.060
382,52911.833000,220.622,-32.125,72.704,456.102,-238.479,167.429,-75.780,-105.600,-176.060
383,52911.869000,223.570,-29.114,77.824,457.206,-226.616,164.699,106.220,-105.600,-245.060
384,52911.909000,271.724,9.035,71.680,464.010,-213.644,167.969,360.220,43.400,-399.060
385,52911.944000,271.724,27.106,93.184,466.155,-196.036,177.299,386.220,126.400,-434.060
386,52911.970000,238.311,59.231,119.808,470.038,-189.456,183.412,322.220,173.400,-545.060
387,52912.10000,223.570,93.365,103.424,478.794,-171.918,184.793,81.220,66.400,-531.060
388,52912.53000,240.276,106.416,87.040,481.613,-173.654,187.744,-62.780,163.400,-427.060
389,52912.88000,229.466,98.384,89.088,486.566,-157.140,186.114,-554.780,92.400,-285.060
390,52912.124000,218.656,90.353,87.040,490.293,-160.852,181.067,-817.780,8.400,-203.060
391,52912.165000,208.829,76.298,78.848,489.299,-163.730,175.037,-791.780,-78.600,-111.060
392,52912.190000,212.760,79.310,75.776,492.122,-163.888,165.091,-732.780,-48.600,-74.060
393,52912.223000,218.656,77.302,81.920,491.947,-175.934,157.872,-634.780,31.400,-8.060
394,52912.263000,216.691,65.255,92.160,490.098,-172.373,153.966,-522.780,65.400,79.940
395,52912.303000,205.881,57.224,93.184,490.868,-185.206,152.700,-590.780,43.400,200.940
396,52912.344000,203.916,38.149,103.424,480.328,-194.563,149.501,-402.780,104.400,312.940
397,52912.403000,196.054,31.122,106.496,478.348,-201.001,149.361,-313.780,111.400,347.940
398,52912.433000,204.898,26.102,94.208,474.458,-208.439,146.213,-213.780,53.400,360.940
399,52912.443000,204.898,5.020,90.112,466.662,-225.029,145.849,-232.780,47.400,322.940
400,52912.513000,230.449,3.012,124.928,463.813,-225.963,146.819,-311.780,57.400,212.940
401,52912.545000,246.173,-23.090,144.384,461.774,-236.163,141.626,-258.780,-11.600,96.940
402,52912.567000,303.171,-43.169,134.144,460.819,-237.053,143.595,-15.780,-36.600,68.940
403,52912.607000,286.464,-66.259,116.736,459.949,-231.549,144.705,305.220,-18.600,111.940
404,52912.654000,276.637,-68.267,110.592,458.045,-233.250,152.623,670.220,8.400,122.940
405,52912.668000,229.466,-26.102,101.376,461.033,-222.999,159.808,1026.220,-70.600,-64.060
406,52912.708000,214.726,46.180,71.680,464.070,-209.862,174.017,1105.220,-124.600,-252.060
407,52912.748000,216.691,60.235,76.800,470.799,-202.387,177.170,822.220,-117.600,-410.060
408,52912.800000,212.760,66.259,89.088,479.546,-185.725,180.522,470.220,-170.600,-408.060
409,52912.840000,221.605,67.263,90.112,484.446,-172.915,176.823,197.220,-240.600,-344.060
410,52912.868000,221.605,65.255,93.184,488.246,-171.150,170.898,-13.780,-291.600,-292.060
411,52912.908000,217.674,67.263,78.848,494.098,-157.489,163.241,-38.780,-350.600,-298.060
412,52912.927000,213.743,72.282,60.416,499.722,-160.358,153.242,-126.780,-348.600,-279.060
413,52912.974000,208.829,71.278,68.608,504.517,-154.935,146.402,-175.780,-251.600,-270.060
414,52913.8000,209.812,66.259,87.040,507.455,-146.808,138.622,-338.780,-302.600,-270.060
415,52913.48000,234.380,52.204,92.160,511.311,-140.541,128.815,-375.780,-196.600,-191.060
416,52913.87000,267.793,38.149,101.376,510.360,-140.612,125.828,-358.780,-105.600,-139.060
417,52913.128000,264.845,26.102,108.544,511.316,-138.943,116.913,-157.780,9.400,-129.060
418,52913.185000,254.035,40.157,101.376,511.339,-137.909,122.903,12.220,68.400,-141.060
419,52913.200000,235.363,53.208,91.136,513.180,-141.568,121.833,14.220,94.400,-148.060
420,52913.228000,227.501,70.275,81.920,515.209,-132.245,128.997,53.220,179.400,-149.060
421,52913.268000,215.708,72.282,111.616,515.306,-125.715,135.104,27.220,256.400,-94.060
422,52913.309000,217.674,81.318,92.160,514.346,-126.664,134.088,-41.780,55.400,-96.060
423,52913.347000,231.432,92.361,91.136,512.537,-121.094,139.177,1.220,97.400,-7.060
424,52913.387000,216.691,71.278,95.232,511.487,-128.475,137.029,-43.780,115.400,94.940
425,52913.408000,210.795,72.282,82.944,511.438,-132.899,144.892,-133.780,136.400,146.940
426,52913.457000,203.916,74.290,77.824,508.635,-130.208,143.950,-149.780,105.400,105.940
427,52913.485000,204.898,71.278,61.440,507.676,-131.137,143.929,-194.780,6.400,13.940
428,52913.534000,206.864,71.278,60.416,510.460,-134.822,140.871,-203.780,3.400,-7.060
429,52913.575000,220.622,70.275,67.584,509.524,-133.938,139.894,-279.780,48.400,-18.060
430,52913.604000,249.121,74.290,87.040,504.650,-144.137,136.685,-368.780,68.400,80.940
431,52913.644000,259.931,63.247,92.160,504.672,-142.343,134.734,-392.780,-5.600,167.940
432,52913.664000,258.948,53.208,79.872,501.650,-155.304,129.481,-458.780,-52.600,231.940
433,52913.704000,245.190,44.173,68.608,499.627,-164.549,126.297,-372.780,-52.600,264.940
434,52913.744000,238.311,42.165,66.560,496.711,-170.103,125.180,-330.780,-46.600,236.940
435,52913.787000,237.328,38.149,67.584,495.657,-177.542,120.047,-284.780,-36.600,189.940
436,52913.827000,238.311,32.125,71.680,491.727,-187.748,115.845,-195.780,-45.600,198.940
437,52913.867000,235.363,32.125,69.632,495.497,-188.653,113.842,-172.780,-37.600,178.940
438,52913.884000,234.380,34.133,66.560,489.674,-199.663,116.583,-78.780,-56.600,176.940
439,52913.929000,234.380,33.129,74.752,489.596,-205.199,114.476,6.220,-29.600,181.940
440,52913.967000,232.415,40.157,77.824,486.769,-204.320,114.491,134.220,7.400,189.940
441,52914.8000,231.432,41.161,86.016,485.683,-215.209,120.225,244.220,52.400,220.940
442,52914.47000,224.553,39.153,93.184,480.956,-215.213,123.202,275.220,10.400,260.940
443,52914.87000,223.570,51.200,90.112,475.102,-228.133,121.924,119.220,-54.600,279.940
444,52914.133000,260.914,45.176,96.256,470.344,-230.808,128.822,96.220,54.400,360.940
445,52914.147000,235.363,28.110,122.880,463.572,-241.869,129.571,-37.780,56.400,389.940
446,52914.184000,218.656,33.129,119.808,459.687,-249.248,129.409,-47.780,14.400,346.940
447,52914.227000,224.553,-2.008,106.496,455.662,-266.724,128.036,-158.780,9.400,357.940
448,52914.267000,240.276,-16.063,115.712,445.240,-267.778,127.998,-249.780,170.400,369.940
449,52914.307000,238.311,-25.098,145.408,436.630,-275.142,131.807,-185.780,178.400,322.940
450,52914.347000,238.311,-28.110,148.480,434.573,-287.096,130.555,-108.780,139.400,244.940
451,52914.372000,225.536,-20.078,123.904,432.689,-287.023,135.527,-21.780,228.400,186.940
452,52914.415000,208.829,-35.137,112.640,424.015,-298.987,138.244,-91.780,212.400,146.940
453,52914.449000,211.777,-37.145,88.064,420.279,-296.152,145.261,-19.780,257.400,153.940
454,52914.489000,199.002,-52.204,116.736,410.658,-308.128,147.976,-58.780,354.400,127.940
455,52914.529000,198.019,-55.216,113.664,413.573,-303.354,156.039,185.220,235.400,106.940
456,52914.572000,207.846,-41.161,122.880,408.855,-303.260,163.991,166.220,363.400,113.940
457,52914.610000,211.777,-46.180,141.312,405.102,-302.160,175.944,270.220,371.400,97.940
458,52914.630000,218.656,-44.173,132.096,397.536,-303.741,193.803,435.220,349.400,48.940
459,52914.669000,212.760,-37.145,128.000,395.785,-294.409,203.945,338.220,305.400,-7.060
460,52914.710000,208.829,-21.082,142.336,393.001,-291.503,213.949,243.220,304.400,-110.060
461,52914.758000,199.002,-25.098,144.384,394.897,-291.439,215.943,97.220,245.400,-201.060
462,52914.788000,200.967,-26.102,152.576,394.974,-286.683,224.996,24.220,221.400,-263.060
463,52914.828000,200.967,-16.063,150.528,399.787,-281.046,229.102,133.220,171.400,-287.060
464,52914.847000,193.106,-8.031,150.528,400.856,-272.671,235.249,205.220,113.400,-270.060
465,52914.888000,184.261,-4.016,152.576,407.567,-266.950,242.343,314.220,36.400,-245.060
466,52914.928000,188.192,21.082,150.528,405.793,-258.652,246.496,558.220,-45.600,-191.060
467,52914.969000,187.209,30.118,150.528,410.746,-242.917,251.811,664.220,-96.600,-105.060
468,52915.9000,201.950,55.216,148.480,409.854,-239.986,261.819,623.220,-166.600,12.940
469,52915.49000,231.432,69.271,160.768,413.736,-232.646,259.991,410.220,-129.600,57.940
470,52915.85000,221.605,78.306,153.600,414.748,-228.014,262.081,250.220,-180.600,57.940
471,52915.105000,217.674,75.294,141.312,418.553,-226.190,259.141,32.220,-202.600,29.940
472,52915.150000,222.587,46.180,125.952,419.375,-234.560,252.002,-23.780,-209.600,161.940
473,52915.188000,223.570,37.145,118.784,416.481,-238.320,248.934,-19.780,-175.600,324.940
474,52915.228000,218.656,21.082,112.640,416.364,-246.624,245.773,-106.780,-92.600,450.940
475,52915.269000,218.656,8.031,116.736,405.798,-257.833,241.540,-145.780,-141.600,499.940
476,52915.310000,217.674,-3.012,105.472,400.866,-272.554,241.220,-0.780,-124.600,553.940
477,52915.325000,214.726,-7.027,101.376,392.310,-275.434,240.151,21.220,-69.600,534.940
478,52915.369000,215.708,-24.094,116.736,383.568,-292.037,239.785,64.220,-14.600,527.940
479,52915.405000,209.812,-24.094,110.592,378.760,-297.616,238.664,178.220,-82.600,461.940
480,52915.445000,205.881,-30.118,105.472,374.880,-304.936,241.487,186.220,-121.600,419.940
481,52915.485000,206.864,-45.176,108.544,367.295,-305.972,240.459,216.220,-172.600,370.940
482,52915.525000,205.881,-42.165,105.472,366.379,-304.094,243.481,275.220,-217.600,313.940
483,52915.570000,218.656,-19.075,118.784,361.471,-317.002,242.205,335.220,-207.600,256.940
484,52915.590000,263.862,-3.012,158.720,359.644,-312.407,244.289,184.220,3.400,226.940
485,52915.630000,247.155,-1.004,150.528,359.594,-316.071,244.211,152.220,-90.600,143.940
486,52915.670000,244.207,-5.020,135.168,358.751,-308.716,246.356,97.220,-116.600,52.940
487,52915.710000,233.397,1.004,123.904,360.567,-314.207,245.247,78.220,14.400,-40.060
488,52915.745000,216.691,-12.047,126.976,361.568,-310.472,248.312,214.220,83.400,-40.060
489,52915.794000,200.967,-16.063,111.616,357.828,-308.455,260.285,374.220,72.400,-40.060
490,52915.829000,207.846,-13.051,105.472,356.119,-295.557,265.530,372.220,149.400,-28.060
491,52915.849000,224.553,-22.086,112.640,356.989,-301.820,272.360,304.220,171.400,9.940
492,52915.889000,230.449,-19.075,117.760,353.385,-289.746,283.553,213.220,174.400,10.940
493,52915.928000,229.466,-6.024,120.832,352.342,-297.049,285.385,171.220,161.400,-10.060
494,52915.968000,225.536,-4.016,109.568,353.368,-291.481,288.489,153.220,96.400,-36.060
495,52916.9000,228.484,-2.008,108.544,347.795,-284.168,291.620,110.220,107.400,-39.060
496,52916.50000,225.536,-14.055,105.472,350.542,-291.362,296.445,90.220,68.400,2.940
497,52916.70000,232.415,-16.063,95.232,348.778,-282.187,298.626,109.220,29.400,37.940
498,52916.109000,223.570,-20.078,94.208,344.087,-279.462,300.667,143.220,44.400,40.940
499,52916.149000,227.501,-21.082,95.232,342.182,-280.403,300.644,228.220,27.400,5.940
500,52916.189000,231.432,-21.082,95.232,344.112,-278.409,307.652,374.220,39.400,-20.060
501,52916.230000,232.415,-6.024,102.400,342.373,-268.161,317.814,413.220,49.400,-95.060
502,52916.270000,241.259,6.024,99.328,341.460,-266.244,322.826,432.220,-13.600,-228.060
503,52916.310000,247.155,6.024,100.352,341.698,-248.838,323.197,271.220,-71.600,-314.060
504,52916.330000,252.069,-10.039,122.880,349.261,-249.595,326.176,56.220,-78.600,-411.060
505,52916.379000,243.225,-16.063,129.024,358.833,-241.264,324.378,30.220,-116.600,-583.060
506,52916.407000,229.466,-24.094,137.216,364.764,-222.827,326.769,74.220,-101.600,-710.060
507,52916.447000,230.449,-23.090,149.504,375.352,-209.825,329.050,113.220,31.400,-793.060
508,52916.487000,210.795,-8.031,156.672,383.237,-186.802,330.547,292.220,15.400,-770.060
509,52916.534000,170.503,61.239,146.432,382.519,-171.045,340.827,486.220,129.400,-830.060
510,52916.547000,167.555,107.420,146.432,388.557,-145.201,347.354,528.220,264.400,-751.060
511,52916.587000,167.555,105.412,154.624,388.746,-132.219,355.588,318.220,284.400,-632.060
512,52916.644000,181.313,114.447,149.504,391.760,-119.356,355.866,-149.780,55.400,-429.060
513,52916.672000,180.330,93.365,138.240,388.871,-123.058,355.783,-289.780,4.400,-329.060
514,52916.712000,180.330,81.318,146.432,397.439,-119.261,356.871,-380.780,-7.600,-306.060
515,52916.747000,182.296,76.298,143.360,397.379,-123.043,350.823,-397.780,-59.600,-303.060
516,52916.794000,181.313,81.318,148.480,402.077,-124.910,345.817,-340.780,-20.600,-331.060
517,52916.807000,178.365,78.306,145.408,402.176,-117.601,344.978,-294.780,-79.600,-377.060
518,52916.847000,165.589,74.290,145.408,405.035,-115.790,342.037,-331.780,-98.600,-437.060
519,52916.892000,169.520,81.318,163.840,410.772,-111.173,340.154,-336.780,-90.600,-503.060
520,52916.944000,181.313,92.361,149.504,417.418,-108.513,331.269,-429.780,-193.600,-531.060
521,52916.968000,187.209,97.380,142.336,425.079,-101.201,325.468,-466.780,-227.600,-560.060
522,52917.10000,211.777,101.396,148.480,429.810,-100.378,317.535,-441.780,-115.600,-520.060
523,52917.30000,199.985,114.447,137.216,434.681,-89.439,311.808,-189.780,-161.600,-388.060
524,52917.70000,199.985,112.439,137.216,440.279,-94.920,308.715,-148.780,-111.600,-244.060
525,52917.112000,195.071,119.467,134.144,439.429,-87.642,306.880,-103.780,-134.600,-117.060
526,52917.152000,193.106,126.494,122.880,443.247,-84.902,303.960,-150.780,-110.600,-39.060
527,52917.189000,193.106,115.451,122.880,442.112,-98.676,302.670,-231.780,-85.600,70.940
528,52917.230000,199.002,105.412,121.856,440.252,-96.011,299.740,-131.780,-3.600,201.940
529,52917.270000,200.967,99.388,121.856,440.117,-106.050,301.516,-122.780,37.400,290.940
530,52917.303000,203.916,97.380,120.832,434.377,-110.705,301.408,16.220,187.400,358.940
531,52917.330000,196.054,85.333,130.048,425.701,-122.689,303.129,8.220,222.400,403.940
532,52917.370000,188.192,78.306,142.336,420.897,-128.988,311.940,122.220,259.400,418.940
533,52917.424000,185.244,72.282,145.408,411.286,-140.848,320.625,89.220,239.400,390.940
534,52917.453000,182.296,65.255,144.384,406.494,-145.471,321.514,11.220,198.400,339.940
535,52917.493000,186.226,53.208,148.480,403.663,-145.411,326.485,-55.780,152.400,283.940
536,52917.513000,207.846,42.165,156.672,399.678,-160.119,326.166,-110.780,138.400,234.940
537,52917.564000,208.829,30.118,154.624,393.929,-165.652,328.029,-24.780,116.400,187.940
538,52917.592000,205.881,26.102,155.648,392.094,-161.915,333.079,173.220,81.400,126.940
539,52917.632000,198.019,29.114,160.768,389.300,-159.126,337.112,227.220,63.400,80.940
540,52917.669000,193.106,46.180,155.648,392.188,-155.424,337.196,178.220,-14.600,13.940
541,52917.722000,194.088,62.243,151.552,394.114,-152.709,334.272,105.220,-81.600,-132.060
542,52917.750000,195.071,75.294,149.504,393.167,-152.722,334.271,80.220,-109.600,-203.060
543,52917.770000,194.088,74.290,149.504,401.781,-145.319,332.452,-4.780,-133.600,-196.060
544,52917.817000,191.140,70.275,146.432,403.767,-138.043,328.631,-7.780,-152.600,-165.060
545,52917.858000,190.157,75.294,143.360,409.452,-137.110,325.675,26.220,-162.600,-147.060
546,52917.892000,187.209,79.310,140.288,411.382,-134.337,325.737,8.220,-200.600,-139.060
547,52917.932000,187.209,91.357,134.144,418.007,-133.470,318.803,-13.780,-212.600,-145.060
548,52917.972000,185.244,94.369,136.192,420.911,-128.053,312.955,-90.780,-191.600,-131.060
549,52917.999000,188.192,94.369,140.288,424.656,-130.790,310.913,-146.780,-193.600,-103.060
550,52918.40000,191.140,89.349,132.096,428.415,-131.812,302.939,-186.780,-211.600,-59.060
551,52918.73000,183.278,77.302,118.784,433.115,-133.660,298.928,-141.780,-236.600,8.940
552,52918.112000,213.743,68.267,112.640,433.147,-130.970,296.002,-116.780,-141.600,45.940
553,52918.152000,234.380,55.216,121.856,432.978,-142.958,291.768,-10.780,-69.600,98.940
554,52918.192000,239.294,66.259,143.360,430.262,-134.633,297.909,206.220,82.400,109.940
555,52918.239000,231.432,75.294,150.528,427.390,-137.361,300.830,321.220,91.400,73.940
556,52918.248000,213.743,91.357,145.408,426.561,-129.070,303.990,313.220,42.400,-8.060
557,52918.295000,196.054,96.376,148.480,426.601,-126.302,305.043,141.220,73.400,-74.060
558,52918.333000,173.451,77.302,149.504,428.507,-125.341,306.061,74.220,-4.600,-58.060
559,52918.373000,169.520,83.325,146.432,426.604,-126.263,307.033,39.220,-43.600,-71.060
560,52918.413000,183.278,90.353,143.360,432.394,-117.942,307.219,45.220,-71.600,-82.060
561,52918.459000,178.365,96.376,154.624,433.251,-124.362,306.089,-22.780,-71.600,-93.060
562,52918.473000,184.261,102.400,152.576,437.003,-126.242,301.081,-44.780,-106.600,-81.060
563,52918.513000,187.209,96.376,152.576,436.141,-119.881,299.226,-77.780,-138.600,-11.060
564,52918.554000,182.296,90.353,154.624,440.836,-121.787,292.230,6.220,-169.600,63.940
565,52918.594000,182.296,86.337,156.672,442.772,-118.176,288.331,20.220,-219.600,97.940
566,52918.630000,173.451,80.314,152.576,445.478,-127.397,283.166,85.220,-248.600,179.940
567,52918.674000,173.451,77.302,154.624,446.464,-123.837,277.275,110.220,-269.600,230.940
568,52918.714000,178.365,77.302,156.672,449.250,-127.503,275.212,183.220,-274.600,273.940
569,52918.734000,173.451,77.302,147.456,451.118,-128.531,268.230,224.220,-286.600,295.940
570,52918.779000,186.226,79.310,143.360,449.973,-142.422,260.971,253.220,-246.600,336.940
571,52918.814000,189.175,82.322,140.288,450.861,-146.172,255.919,238.220,-246.600,385.940
572,52918.852000,188.192,76.298,134.144,451.614,-159.960,252.643,188.220,-190.600,444.940
573,52918.897000,191.140,69.271,112.640,451.622,-159.102,249.677,104.220,-183.600,501.940
574,52918.942000,189.175,65.255,103.424,448.725,-162.902,244.619,77.220,-88.600,549.940
575,52918.949000,193.106,61.239,90.112,440.893,-182.221,245.191,-22.780,1.400,562.940
576,52919.13000,196.054,51.200,84.992,434.212,-186.051,241.121,-171.780,61.400,545.940
577,52919.34000,261.896,49.192,84.992,425.463,-203.512,243.720,-350.780,303.400,525.940
578,52919.69000,270.741,11.043,107.520,420.592,-213.671,242.502,-539.780,291.400,579.940
579,52919.118000,301.205,-29.114,122.880,405.291,-225.761,243.217,-361.780,390.400,599.940
580,52919.152000,307.102,-33.129,118.784,395.607,-242.318,245.834,-273.780,388.400,573.940
581,52919.193000,292.361,-40.157,126.976,388.776,-257.921,248.476,-199.780,323.400,466.940
582,52919.213000,307.102,-17.067,93.184,384.067,-256.951,254.457,5.220,350.400,166.940
583,52919.253000,251.086,-44.173,126.976,380.277,-257.819,259.406,147.220,225.400,116.940
584,52919.294000,225.536,-10.039,95.232,382.148,-259.588,261.361,194.220,53.400,-30.060
585,52919.330000,208.829,-10.039,75.776,383.189,-253.084,265.479,158.220,4.400,-46.060
586,52919.373000,207.846,-12.047,82.944,383.130,-257.626,267.372,93.220,33.400,-41.060
587,52919.413000,212.760,-13.051,86.016,382.205,-255.845,265.419,92.220,-30.600,-58.060
588,52919.433000,215.708,-12.047,89.088,387.999,-247.486,267.595,91.220,-55.600,-60.060
589,52919.492000,223.570,-6.024,89.088,387.101,-243.853,266.676,85.220,-60.600,-88.060
590,52919.509000,227.501,-5.020,88.064,391.805,-245.642,265.650,46.220,-73.600,-134.060
591,52919.553000,229.466,-11.043,92.160,396.671,-235.542,263.883,59.220,-72.600,-167.060
592,52919.593000,222.587,-2.008,100.352,401.440,-232.731,263.950,75.220,-43.600,-226.060
593,52919.634000,222.587,-3.012,101.376,402.451,-228.118,265.044,97.220,-67.600,-278.060
594,52919.674000,222.587,3.012,95.232,408.289,-216.153,264.313,-19.780,-73.600,-322.060
595,52919.697000,216.691,3.012,99.328,413.945,-217.111,258.333,-37.780,-83.600,-388.060
596,52919.737000,228.484,9.035,107.520,420.717,-206.049,257.584,-122.780,-23.600,-387.060
597,52919.778000,232.415,27.106,137.216,425.588,-195.890,258.802,-107.780,50.400,-460.060
598,52919.813000,220.622,54.212,130.048,434.236,-185.778,255.051,-167.780,3.400,-560.060
599,52919.855000,218.656,66.259,123.904,440.897,-182.942,255.122,-156.780,-8.600,-617.060
600,52919.902000,210.795,70.275,119.808,445.777,-171.905,254.369,-221.780,-78.600,-571.060
601,52919.919000,223.570,79.310,133.120,454.487,-157.213,250.716,-77.780,-75.600,-531.060
602,52919.959000,206.864,90.353,122.880,465.087,-142.534,245.076,34.220,-168.600,-500.060
603,52919.992000,192.123,96.376,116.736,466.133,-135.193,245.234,53.220,-162.600,-443.060
604,52920.38000,182.296,100.392,124.928,474.718,-129.661,241.386,92.220,-191.600,-365.060
605,52920.72000,186.226,116.455,115.712,474.908,-115.120,235.728,16.220,-206.600,-303.060
606,52920.110000,194.088,122.478,107.520,484.416,-111.389,232.838,-80.780,-232.600,-208.060
607,52920.165000,195.071,122.478,104.448,484.416,-110.629,224.897,-147.780,-225.600,-93.060
608,52920.173000,187.209,119.467,98.304,486.279,-111.716,214.930,-243.780,-262.600,61.940
609,52920.234000,209.812,125.490,72.704,487.023,-125.621,205.683,-434.780,-285.600,120.940
610,52920.260000,240.276,71.278,63.488,485.019,-133.112,198.558,-773.780,-287.600,418.940
611,52920.310000,270.741,14.055,97.280,483.806,-151.642,188.216,-787.780,-122.600,630.940
612,52920.365000,264.845,-12.047,134.144,476.791,-179.389,178.663,-723.780,-18.600,715.940
613,52920.397000,269.758,-29.114,144.384,471.887,-191.478,172.431,-501.780,-53.600,437.940
614,52920.404000,241.259,-33.129,113.664,469.821,-203.550,165.208,-425.780,-216.600,233.940
615,52920.435000,213.743,-35.137,86.016,469.805,-204.505,163.199,-12.780,-4.600,92.940
616,52920.470000,191.140,-48.188,76.800,468.915,-200.775,167.255,436.220,140.400,-38.060
617,52920.515000,204.898,-30.118,69.632,470.006,-191.367,179.393,604.220,167.400,-124.060
618,52920.564000,223.570,-9.035,72.704,471.076,-183.752,193.482,887.220,334.400,-265.060
619,52920.590000,197.036,72.282,107.520,472.404,-157.717,212.936,922.220,313.400,-486.060
620,52920.630000,241.259,131.514,131.072,472.580,-145.651,221.150,546.220,383.400,-498.060
621,52920.650000,238.311,112.439,153.600,473.688,-134.508,228.351,61.220,245.400,-278.060
622,52920.698000,232.415,90.353,131.072,472.800,-130.759,233.403,-345.780,63.400,-207.060
623,52920.733000,207.846,69.271,110.592,474.673,-131.728,229.406,-393.780,62.400,-121.060
624,52920.778000,202.933,73.286,98.304,473.713,-132.676,228.390,-341.780,54.400,-110.060
625,52920.814000,201.950,75.294,91.136,475.586,-133.645,224.394,-418.780,152.400,-157.060
626,52920.854000,209.812,90.353,97.280,480.356,-131.594,232.402,-355.780,206.400,-200.060
627,52920.873000,215.708,81.318,113.664,473.624,-139.869,235.199,-489.780,266.400,-171.060
628,52920.915000,204.898,63.247,124.928,477.499,-133.386,236.338,-491.780,332.400,-178.060
629,52920.955000,199.002,54.212,140.288,469.762,-146.214,241.026,-453.780,358.400,-172.060
630,52920.995000,184.261,56.220,155.648,471.825,-134.182,246.259,-443.780,308.400,-201.060
631,52921.35000,180.330,58.227,160.768,467.081,-135.161,246.231,-372.780,202.400,-271.060
632,52921.88000,158.710,61.239,148.480,471.753,-139.640,248.132,-358.780,46.400,-263.060
633,52921.123000,155.762,50.196,147.456,469.990,-129.685,243.368,-427.780,-2.600,-255.060
634,52921.137000,172.468,62.243,166.912,471.840,-132.467,240.327,-456.780,-33.600,-244.060
635,52921.173000,184.261,53.208,169.984,475.605,-133.431,235.339,-328.780,-143.600,-178.060
636,52921.214000,244.207,16.063,178.176,475.479,-141.832,227.203,-136.780,-48.600,62.940
637,52921.254000,253.052,13.051,184.320,473.682,-135.346,232.312,305.220,77.400,328.940
638,52921.294000,241.259,-1.004,184.320,468.780,-148.956,241.961,797.220,148.400,580.940
639,52921.335000,213.743,30.118,149.504,460.392,-140.628,252.073,1207.220,128.400,630.940
640,52921.362000,200.967,58.227,134.144,455.695,-140.281,272.960,1303.220,140.400,584.940
641,52921.400000,197.036,72.282,131.072,447.195,-140.198,282.896,1227.220,129.400,480.940
642,52921.434000,190.157,70.275,122.880,443.606,-126.408,288.157,1019.220,64.400,416.940
643,52921.483000,196.054,71.278,125.952,442.630,-129.072,293.072,770.220,58.400,337.940
644,52921.517000,193.106,75.294,132.096,437.951,-126.210,302.078,460.220,42.400,230.940
645,52921.552000,198.019,78.306,138.240,437.030,-124.390,302.115,284.220,-15.600,154.940
646,52921.594000,199.002,77.302,135.168,436.060,-126.216,303.070,165.220,-61.600,106.940
647,52921.614000,197.036,75.294,126.976,435.075,-128.996,302.014,91.220,-146.600,39.940
648,52921.654000,199.002,77.302,122.880,441.817,-119.825,298.241,13.220,-187.600,-20.060
649,52921.694000,199.002,79.310,122.880,442.630,-129.072,293.072,-112.780,-223.600,-89.060
650,52921.732000,201.950,78.306,119.808,447.375,-127.314,286.154,-205.780,-236.600,-122.060
651,52921.774000,199.985,76.298,117.760,453.950,-130.111,279.142,-296.780,-265.600,-143.060
652,52921.814000,205.881,62.243,118.784,454.910,-128.403,272.217,-387.780,-260.600,-143.060
653,52921.834000,224.553,46.180,116.736,458.718,-125.780,263.327,-417.780,-217.600,-131.060
654,52921.874000,257.965,38.149,132.096,461.482,-130.460,256.269,-348.780,-2.600,-92.060
655,52921.915000,241.259,34.133,133.120,458.670,-128.646,257.298,-62.780,-15.600,-22.060
656,52921.957000,240.276,54.212,136.192,465.298,-128.519,259.300,31.220,136.400,-49.060
657,52921.992000,208.829,69.271,125.952,457.800,-123.921,265.355,38.220,235.400,-73.060
658,52922.52000,195.071,76.298,131.072,456.765,-131.126,272.162,19.220,312.400,-51.060
659,52922.72000,202.933,82.322,133.120,453.074,-124.685,276.272,-127.780,314.400,-61.060
660,52922.92000,203.916,66.259,140.288,450.175,-130.044,285.106,-109.780,297.400,37.940
661,52922.132000,194.088,53.208,143.360,447.354,-129.107,288.105,-255.780,183.400,16.940
662,52922.175000,198.019,55.216,118.784,452.064,-130.058,283.119,-44.780,-194.600,-124.060
663,52922.215000,195.071,50.196,147.456,452.106,-126.491,278.222,119.220,-368.600,-177.060
664,52922.255000,198.019,56.220,147.456,461.684,-117.322,272.463,172.220,-409.600,-291.060
665,52922.295000,188.192,66.259,124.928,471.320,-103.630,263.817,407.220,-415.600,-383.060
666,52922.334000,188.192,90.353,126.976,477.097,-95.466,256.042,299.220,-387.600,-430.060
667,52922.355000,191.140,93.365,126.976,483.920,-79.961,248.425,-13.780,-394.600,-462.060
668,52922.394000,196.054,99.388,115.712,488.719,-73.719,236.630,-350.780,-460.600,-452.060
669,52922.435000,205.881,99.388,110.592,496.241,-75.725,222.673,-562.780,-468.600,-420.060
670,52922.473000,228.484,107.420,102.400,502.953,-67.685,207.935,-661.780,-431.600,-413.060
671,52922.518000,227.501,101.396,99.328,505.747,-69.714,195.960,-652.780,-419.600,-344.060
672,52922.560000,228.484,104.408,93.184,512.437,-63.467,183.172,-561.780,-344.600,-251.060
673,52922.580000,223.570,106.416,88.064,512.400,-65.436,176.168,-549.780,-287.600,-214.060
674,52922.617000,215.708,109.427,84.992,515.233,-64.697,165.247,-419.780,-266.600,-164.060
675,52922.657000,206.864,110.431,83.968,518.027,-67.506,160.218,-399.780,-182.600,-113.060
676,52922.709000,204.898,111.435,77.824,520.901,-64.739,159.287,-328.780,-138.600,-28.060
677,52922.735000,204.898,112.439,79.872,517.888,-76.823,152.063,-253.780,-51.600,81.940
678,52922.775000,202.933,104.408,92.160,518.802,-79.500,154.991,-158.780,53.400,177.940
679,52922.818000,203.916,105.412,90.112,516.861,-83.170,155.904,-169.780,29.400,259.940
680,52922.837000,203.916,99.388,81.920,511.900,-99.782,152.560,-55.780,51.400,337.940
681,52922.875000,207.846,91.357,84.992,507.130,-103.372,159.439,15.220,109.400,407.940
682,52922.933000,209.812,97.380,90.112,502.101,-125.383,160.952,-128.780,14.400,440.940
683,52922.955000,219.639,93.365,89.088,491.519,-138.327,161.656,153.220,54.400,480.940
684,52922.993000,245.190,89.349,107.520,493.440,-136.431,163.688,-7.780,-9.600,498.940
685,52923.39000,223.570,49.192,137.216,490.352,-154.771,164.288,28.220,-47.600,555.940
686,52923.53000,232.415,34.133,139.264,483.326,-184.194,162.657,20.220,-16.600,536.940
687,52923.93000,229.466,21.082,142.336,478.609,-183.321,163.663,145.220,42.400,504.940
688,52923.144000,236.345,-3.012,144.384,467.062,-198.032,168.306,24.220,104.400,408.940
689,52923.178000,233.397,3.012,162.816,465.090,-204.372,173.141,55.220,137.400,332.940
690,52923.218000,225.536,9.035,153.600,460.322,-207.164,174.069,119.220,23.400,273.940
691,52923.257000,206.864,19.075,128.000,456.378,-219.084,175.799,220.220,24.400,262.940
692,52923.295000,197.036,17.067,111.616,451.566,-225.482,179.634,181.220,-21.600,261.940
693,52923.317000,195.071,12.047,117.760,447.759,-227.325,181.579,142.220,-33.600,311.940
694,52923.358000,191.140,7.027,126.976,441.063,-232.870,183.440,115.220,-17.600,371.940
695,52923.397000,202.933,2.008,132.096,437.156,-242.043,185.228,127.220,-34.600,440.940
696,52923.438000,208.829,13.051,122.880,429.477,-249.569,180.084,0.220,-70.600,414.940
697,52923.475000,211.777,5.020,118.784,423.617,-263.328,182.766,-56.780,-62.600,396.940
698,52923.515000,212.760,2.008,128.000,415.020,-268.995,179.649,-160.780,17.400,346.940
699,52923.535000,223.570,4.016,129.024,411.061,-281.092,172.423,-312.780,-51.600,259.940
700,52923.578000,227.501,0.000,121.856,410.048,-285.724,170.334,-306.780,-67.600,208.940
701,52923.618000,240.276,-2.008,109.568,405.293,-286.839,163.340,-253.780,15.400,202.940
702,52923.658000,234.380,-4.016,101.376,405.091,-301.517,162.033,-261.780,-20.600,217.940
703,52923.699000,241.259,-29.114,112.640,392.732,-305.422,157.953,-207.780,1.400,281.940
704,52923.735000,222.587,-31.122,119.808,386.041,-310.149,154.859,-28.780,19.400,292.940
705,52923.782000,210.795,-30.118,125.952,385.955,-316.542,155.717,29.220,60.400,300.940
706,52923.795000,217.674,-30.118,118.784,377.391,-320.280,157.614,79.220,36.400,291.940
707,52923.842000,210.795,-35.137,128.000,374.517,-323.047,158.546,149.220,66.400,288.940
708,52923.879000,194.088,-42.165,119.808,365.956,-326.746,162.433,49.220,-4.600,246.940
709,52923.919000,199.985,-40.157,107.520,361.132,-334.059,166.249,89.220,-32.600,294.940
710,52923.960000,193.106,-53.208,112.640,357.295,-337.793,165.169,77.220,-17.600,300.940
711,52923.994000,198.019,-54.212,100.352,354.357,-345.140,166.003,160.220,-130.600,270.940
712,52924.14000,204.898,-51.200,100.352,349.663,-342.454,166.053,174.220,-134.600,243.940
713,52924.54000,204.898,-65.255,99.328,348.669,-346.112,166.968,236.220,-197.600,271.940
714,52924.95000,227.501,-53.208,91.136,343.942,-346.116,169.945,294.220,-166.600,198.940
715,52924.138000,258.948,-33.129,109.568,342.096,-342.515,168.030,261.220,-62.600,71.940
716,52924.185000,293.344,-41.161,165.888,343.018,-345.095,175.933,40.220,222.400,-2.060
717,52924.219000,280.568,-32.125,155.648,340.159,-346.906,178.875,-84.780,178.400,-113.060
718,52924.268000,241.259,-38.149,130.048,345.846,-345.954,176.914,-170.780,134.400,-228.060
719,52924.274000,229.466,-41.161,107.520,352.494,-344.054,175.970,-220.780,114.400,-303.060
720,52924.321000,217.674,-48.188,99.328,357.357,-334.752,180.153,-147.780,240.400,-277.060
721,52924.364000,225.536,-27.106,111.616,355.519,-331.054,183.213,80.220,325.400,-185.060
722,52924.398000,209.812,-10.039,108.544,353.610,-332.814,188.146,78.220,311.400,-116.060
723,52924.438000,208.829,-5.020,107.520,352.677,-332.670,196.105,2.220,287.400,-23.060
724,52924.478000,200.967,-13.051,117.760,348.867,-334.552,196.059,-94.780,269.400,93.940
725,52924.498000,202.933,-22.086,113.664,345.088,-334.524,200.033,-93.780,215.400,177.940
726,52924.534000,194.088,-32.125,120.832,340.319,-337.335,199.966,-67.780,173.400,227.940
727,52924.585000,187.209,-38.149,124.928,334.584,-341.932,202.843,-66.780,161.400,233.940
728,52924.657000,192.123,-40.157,139.264,325.985,-348.399,205.677,3.220,183.400,228.940
729,52924.685000,195.071,-35.137,136.192,322.206,-348.371,209.651,112.220,127.400,232.940
730,52924.708000,217.674,-31.122,148.480,316.399,-358.426,214.401,102.220,165.400,239.940
731,52924.737000,214.726,-35.137,150.528,313.701,-348.347,216.601,116.220,96.400,249.940
732,52924.763000,229.466,-45.176,154.624,307.024,-352.898,222.462,182.220,39.400,255.940
733,52924.808000,220.622,-37.145,147.456,300.266,-363.024,224.226,259.220,-17.600,250.940
734,52924.837000,209.812,-36.141,144.384,297.409,-364.816,228.162,286.220,-48.600,236.940
735,52924.878000,207.846,-45.176,143.360,293.712,-359.213,236.233,288.220,-76.600,266.940
736,52924.919000,205.881,-52.204,140.288,288.061,-357.436,237.257,241.220,-94.600,259.940
737,52924.958000,204.898,-52.204,138.240,284.177,-364.796,238.089,151.220,-123.600,190.940
738,52924.978000,201.950,-54.212,132.096,285.161,-362.035,238.149,88.220,-146.600,158.940
739,52925.18000,200.967,-59.231,132.096,284.118,-369.337,239.982,27.220,-144.600,115.940
740,52925.58000,198.019,-61.239,126.976,284.149,-366.667,236.060,29.220,-160.600,82.940
741,52925.97000,191.140,-64.251,118.784,282.234,-367.725,230.067,6.220,-187.600,58.940
742,52925.135000,193.106,-66.259,121.856,285.037,-370.416,231.008,-0.780,-191.600,40.940
743,52925.185000,196.054,-69.271,128.000,283.114,-372.332,227.981,13.220,-179.600,31.940
744,52925.220000,199.002,-73.286,126.976,286.910,-371.386,227.012,64.220,-201.600,31.940
745,52925.244000,191.140,-71.278,111.616,291.726,-364.949,225.167,161.220,-292.600,22.940
746,52925.280000,201.950,-70.275,106.496,294.586,-363.119,223.221,180.220,-293.600,14.940
747,52925.319000,228.484,-51.200,122.880,295.591,-359.344,228.276,216.220,-166.600,-43.060
748,52925.359000,260.914,-13.051,155.648,297.521,-356.571,228.338,289.220,-35.600,-151.060
749,52925.399000,258.948,-12.047,165.888,308.946,-351.762,232.435,165.220,3.400,-198.060
750,52925.438000,253.052,-14.055,171.008,307.068,-350.851,233.447,-87.780,-12.600,-268.060
751,52925.458000,242.242,-17.067,145.408,314.731,-343.500,229.636,-82.780,-41.600,-278.060
752,52925.495000,224.553,-26.102,130.048,318.584,-338.811,232.725,64.220,41.400,-263.060
753,52925.535000,210.795,-31.122,121.856,319.438,-345.270,229.605,221.220,49.400,-255.060
754,52925.575000,216.691,-26.102,104.448,323.492,-326.682,240.948,302.220,64.400,-245.060
755,52925.623000,212.760,-26.102,109.568,329.124,-330.214,243.865,137.220,118.400,-271.060
756,52925.655000,217.674,-29.114,112.640,330.254,-317.278,249.115,39.220,142.400,-263.060
757,52925.732000,217.674,-26.102,120.832,335.039,-313.511,251.192,-20.780,103.400,-286.060
758,52925.739000,215.708,-18.071,101.376,336.969,-310.738,251.253,-54.780,73.400,-309.060
759,52925.760000,215.708,-16.063,100.352,341.683,-311.650,248.257,-160.780,85.400,-314.060
760,52925.803000,217.674,-16.063,100.352,346.531,-303.304,250.431,-131.780,62.400,-302.060
761,52925.838000,217.674,-13.051,103.424,345.545,-306.084,249.376,-101.780,80.400,-240.060
762,52925.875000,215.708,-15.059,112.640,349.384,-302.330,251.451,-84.780,134.400,-169.060
763,52925.922000,218.656,-14.055,115.712,346.520,-304.200,251.407,-23.780,118.400,-119.060
764,52925.935000,221.605,-16.063,122.880,346.570,-300.536,251.485,-15.780,131.400,-74.060
765,52925.975000,229.466,-12.047,116.736,350.440,-294.872,257.579,62.220,95.400,-90.060
766,52926.22000,244.207,-10.039,102.400,347.551,-298.574,257.496,21.220,23.400,-124.060
767,52926.61000,229.466,-21.082,98.304,348.583,-292.168,256.639,-167.780,-30.600,-208.060
768,52926.97000,220.622,-28.110,120.832,355.211,-291.262,251.695,-182.780,4.400,-336.060
769,52926.137000,227.501,-30.118,135.168,360.009,-286.580,253.791,-103.780,88.400,-442.060
770,52926.178000,219.639,-30.118,147.456,362.981,-277.283,258.966,47.220,133.400,-467.060
771,52926.199000,210.795,-36.141,152.576,368.786,-268.027,260.167,44.220,109.400,-403.060
772,52926.242000,200.967,-42.165,151.552,370.727,-265.117,267.194,206.220,93.400,-342.060
773,52926.280000,203.916,-10.039,175.104,375.718,-247.395,280.509,733.220,214.400,-287.060
774,52926.318000,176.399,79.310,167.936,377.836,-232.419,295.750,992.220,131.400,-385.060
775,52926.363000,193.106,88.345,168.960,380.865,-219.380,304.984,796.220,120.400,-330.060
776,52926.398000,193.106,88.345,168.960,382.976,-204.482,316.245,562.220,70.400,-177.060
777,52926.434000,188.192,84.329,162.816,378.274,-202.653,319.261,276.220,14.400,-15.060
778,52926.461000,182.296,58.227,151.552,383.985,-200.649,324.285,51.220,-9.600,97.940
779,52926.498000,185.244,54.212,140.288,380.184,-201.654,322.269,21.220,-44.600,57.940
780,52926.540000,187.209,47.184,132.096,383.073,-197.952,322.352,-7.780,-84.600,-7.060
781,52926.582000,183.278,40.157,133.120,382.058,-202.623,318.273,-65.780,-100.600,-172.060
782,52926.621000,180.330,42.165,137.216,386.958,-189.813,314.574,-87.780,-55.600,-307.060
783,52926.660000,178.365,44.173,132.096,393.518,-194.325,313.493,-153.780,-59.600,-419.060
784,52926.682000,156.745,45.176,124.928,400.403,-175.019,312.919,-125.780,-105.600,-475.060
785,52926.730000,186.226,79.310,131.072,402.335,-171.446,307.030,-218.780,-64.600,-563.060
786,52926.759000,221.605,73.286,166.912,410.902,-167.669,307.123,-282.780,134.400,-533.060
787,52926.802000,227.501,90.353,172.032,406.264,-160.481,303.291,-249.780,86.400,-464.060
788,52926.837000,232.415,85.333,173.056,413.949,-152.116,304.475,-227.780,99.400,-283.060
789,52926.877000,224.553,86.337,175.104,414.895,-152.103,304.477,-131.780,83.400,-182.060
790,52926.898000,207.846,98.384,146.432,415.840,-152.110,303.483,-105.780,40.400,-106.060
791,52926.954000,199.985,86.337,135.168,413.963,-151.180,305.490,-90.780,65.400,-6.060
792,52926.980000,190.157,82.322,130.048,408.215,-156.693,308.348,-46.780,37.400,61.940
793,52927.17000,182.296,80.314,134.144,409.074,-163.094,308.213,62.220,56.400,152.940
794,52927.60000,173.451,80.314,128.000,407.174,-163.977,311.175,99.220,48.400,193.940
795,52927.128000,187.209,77.302,134.144,404.399,-159.414,312.263,64.220,94.400,231.940
796,52927.144000,194.088,70.275,148.480,402.404,-167.567,318.054,35.220,157.400,277.940
797,52927.162000,189.175,66.259,149.504,395.688,-174.886,322.862,59.220,117.400,298.940
798,52927.200000,179.347,57.224,145.408,393.778,-175.886,319.854,66.220,107.400,297.940
799,52927.240000,192.123,44.173,145.408,386.141,-181.385,324.698,51.220,73.400,278.940
800,52927.280000,194.088,35.137,149.504,375.556,-194.348,324.407,82.220,74.400,305.940
801,52927.322000,201.950,23.090,152.576,379.439,-187.768,330.520,242.220,84.400,283.940
802,52927.359000,219.639,34.133,161.792,373.798,-185.874,337.515,419.220,137.400,208.940
803,52927.399000,210.795,40.157,151.552,369.035,-188.607,341.428,455.220,61.400,202.940
804,52927.419000,202.933,38.149,153.600,370.087,-181.207,344.571,337.220,56.400,197.940
805,52927.459000,200.967,51.200,160.768,364.395,-182.978,351.488,319.220,45.400,137.940
806,52927.519000,198.019,51.200,157.696,362.579,-177.486,352.596,307.220,-2.600,72.940
807,52927.542000,190.157,58.227,153.600,363.643,-169.170,355.759,293.220,-49.600,19.940
808,52927.583000,193.106,63.247,143.360,366.484,-169.113,356.759,238.220,-90.600,-37.060
809,52927.629000,187.209,63.247,143.360,368.487,-160.862,355.943,155.220,-126.600,-69.060
810,52927.645000,185.244,67.263,139.264,372.282,-159.935,353.979,52.220,-134.600,-86.060
811,52927.688000,189.175,67.263,141.312,374.148,-161.762,352.948,-64.780,-120.600,-102.060
812,52927.722000,187.209,71.278,142.336,371.340,-159.129,349.021,-180.780,-105.600,-142.060
813,52927.762000,182.296,76.298,136.192,382.680,-159.155,340.086,-235.780,-205.600,-200.060
814,52927.802000,182.296,75.294,107.520,383.556,-163.821,335.015,-353.780,-203.600,-243.060
815,52927.839000,192.123,65.255,124.928,393.066,-159.291,326.174,-402.780,-108.600,-240.060
816,52927.880000,217.674,78.306,147.456,391.074,-166.645,326.014,-330.780,-39.600,-258.060
817,52927.900000,234.380,56.220,161.792,392.029,-165.755,324.045,-248.780,-5.600,-103.060
818,52927.940000,240.276,49.192,157.696,393.935,-164.034,317.122,-240.780,-70.600,-25.060
819,52927.981000,238.311,51.200,160.768,392.853,-174.105,317.901,101.220,-9.600,27.940
820,52928.22000,212.760,62.243,165.888,393.016,-162.195,318.155,261.220,-59.600,57.940
821,52928.68000,204.898,62.243,150.528,394.872,-164.899,319.094,245.220,-98.600,66.940
822,52928.119000,188.192,83.325,142.336,401.536,-162.044,320.160,172.220,-148.600,-72.060
823,52928.129000,183.278,76.298,141.312,403.428,-162.019,320.163,28.220,-158.600,-105.060
824,52928.162000,169.520,64.251,137.216,407.275,-156.628,312.326,-203.780,-196.600,-113.060
825,52928.200000,163.624,61.239,139.264,412.757,-170.393,307.068,-342.780,-247.600,-181.060
826,52928.240000,180.330,71.278,139.264,416.638,-162.292,297.300,-412.780,-229.600,-214.060
827,52928.278000,180.330,74.290,143.360,423.142,-169.768,285.215,-481.780,-294.600,-240.060
828,52928.320000,181.313,67.263,134.144,430.725,-167.992,277.307,-435.780,-353.600,-196.060
829,52928.365000,191.140,63.247,136.192,435.488,-164.480,266.448,-443.780,-359.600,-153.060
830,52928.387000,215.708,64.251,155.648,440.073,-173.832,253.325,-305.780,-265.600,-39.060
831,52928.429000,232.415,65.255,167.936,441.050,-171.149,249.405,-234.780,-209.600,70.940
832,52928.462000,220.622,61.239,165.888,444.770,-174.940,240.378,28.220,-224.600,190.940
833,52928.498000,202.933,60.235,144.384,443.761,-179.533,240.279,222.220,-212.600,204.940
834,52928.545000,196.054,57.224,145.408,440.913,-180.447,242.245,338.220,-154.600,249.940
835,52928.578000,187.209,61.239,145.408,445.696,-176.701,243.326,383.220,-101.600,319.940
836,52928.598000,191.140,57.224,142.336,439.817,-191.453,242.009,332.220,-125.600,353.940
837,52928.643000,190.157,53.208,135.168,437.962,-188.730,242.064,302.220,-135.600,416.940
838,52928.684000,193.106,53.208,138.240,436.012,-192.498,238.002,279.220,-95.600,458.940
839,52928.719000,196.054,53.208,128.000,432.106,-201.670,239.791,308.220,-99.600,483.940
840,52928.761000,189.175,50.196,120.832,428.265,-205.443,236.721,297.220,-46.600,542.940
841,52928.803000,184.261,42.165,133.120,422.483,-213.666,241.510,243.220,-51.600,564.940
842,52928.844000,170.503,48.188,103.424,418.558,-223.053,232.353,-72.780,-362.600,482.940
843,52928.864000,192.123,36.141,91.136,420.331,-230.591,220.259,62.220,-439.600,397.940
844,52928.903000,178.365,30.118,118.784,419.309,-235.340,212.200,44.220,-314.600,380.940
845,52928.944000,221.605,22.086,123.904,415.432,-241.842,210.066,176.220,-138.600,294.940
846,52928.984000,277.620,33.129,105.472,413.554,-240.932,211.078,85.220,38.400,274.940
847,52929.37000,286.464,6.024,121.856,404.831,-255.780,206.770,-194.780,102.400,341.940
848,52929.70000,320.860,-57.224,112.640,400.921,-264.212,199.622,-551.780,122.400,320.940
849,52929.81000,317.912,-52.204,92.160,402.739,-269.684,199.509,-413.780,164.400,257.940
850,52929.124000,330.687,-44.173,82.944,394.133,-276.229,198.362,-187.780,247.400,85.940
851,52929.164000,318.894,-36.141,88.064,396.088,-271.623,198.463,-150.780,289.400,-61.060
852,52929.210000,268.775,-16.063,88.064,398.841,-277.979,199.326,-227.780,152.400,-195.060
853,52929.250000,222.587,-10.039,57.344,399.904,-268.903,194.548,-226.780,13.400,-200.060
854,52929.284000,193.106,-17.067,51.200,402.718,-270.698,194.514,-298.780,26.400,-143.060
855,52929.324000,194.088,-11.043,45.056,406.543,-267.100,188.628,-255.780,44.400,-104.060
856,52929.343000,210.795,-19.075,60.416,405.559,-269.861,188.568,-119.780,126.400,-65.060
857,52929.383000,222.587,-18.071,66.560,406.429,-275.365,187.458,-76.780,86.400,-51.060
858,52929.423000,247.155,-17.067,76.800,410.182,-278.005,190.391,46.220,121.400,-51.060
859,52929.463000,243.225,-15.059,81.920,408.407,-269.726,193.548,71.220,110.400,-107.060
860,52929.510000,235.363,-14.055,73.728,410.367,-265.062,196.634,-17.780,15.400,-149.060
861,52929.544000,235.363,-4.016,69.632,413.265,-260.483,194.747,-1.780,77.400,-190.060
862,52929.564000,228.484,-6.024,83.968,417.189,-250.336,195.963,-25.780,109.400,-228.060
863,52929.612000,228.484,-7.027,81.920,423.842,-248.377,198.004,-79.780,71.400,-307.060
864,52929.639000,222.587,-4.016,83.968,425.863,-239.151,200.193,-95.780,117.400,-315.060
865,52929.679000,225.536,-11.043,112.640,428.725,-237.301,199.242,-140.780,109.400,-296.060
866,52929.739000,235.363,-5.020,121.856,432.564,-233.548,201.317,-114.780,121.400,-317.060
867,52929.764000,242.242,7.027,124.928,435.482,-227.955,204.424,-82.780,133.400,-380.060
868,52929.812000,218.656,25.098,117.760,445.194,-209.527,203.836,-9.780,67.400,-442.060
869,52929.847000,210.795,36.141,114.688,451.939,-201.096,208.998,240.220,89.400,-466.060
870,52929.877000,208.829,45.176,114.688,450.126,-195.566,212.097,207.220,80.400,-436.060
871,52929.913000,200.967,62.243,118.784,457.873,-182.621,213.379,201.220,47.400,-410.060
872,52929.939000,205.881,83.325,122.880,460.941,-166.054,215.725,169.220,53.400,-344.060
873,52929.992000,212.760,94.369,131.072,461.995,-158.614,220.858,-55.780,80.400,-208.060
874,52930.19000,213.743,92.361,123.904,466.738,-157.655,219.891,-169.780,23.400,-102.060
875,52930.45000,213.743,90.353,123.904,463.814,-163.307,213.799,-262.780,17.400,-19.060
876,52930.84000,218.656,79.310,122.880,466.640,-164.185,213.784,-374.780,-30.600,62.940
877,52930.130000,218.656,54.212,111.616,465.662,-166.108,209.763,-242.780,-34.600,122.940
878,52930.160000,213.743,48.188,114.688,463.684,-172.527,210.618,71.220,24.400,126.940
879,52930.202000,205.881,54.212,112.640,461.809,-171.577,213.620,375.220,39.400,161.940
880,52930.243000,206.864,60.235,119.808,458.958,-173.291,221.536,451.220,44.400,167.940
881,52930.285000,205.881,57.224,118.784,466.548,-172.196,225.549,330.220,5.400,198.940
882,52930.309000,201.950,53.208,113.664,457.111,-170.470,226.567,251.220,-32.600,238.940
883,52930.342000,205.881,37.145,121.856,458.018,-173.225,225.515,219.220,-40.600,265.940
884,52930.388000,211.777,49.192,123.904,451.262,-183.331,228.273,150.220,-61.600,147.940
885,52930.422000,222.587,37.145,121.856,451.371,-175.125,226.459,224.220,-56.600,96.940
886,52930.468000,226.518,31.122,115.712,453.253,-175.997,227.438,236.220,-99.600,92.940
887,52930.503000,241.259,14.055,123.904,450.380,-178.744,229.364,259.220,-70.600,125.940
888,52930.530000,245.190,9.035,124.928,453.297,-173.170,231.477,296.220,-86.600,141.940
889,52930.568000,243.225,7.027,120.832,451.303,-180.544,230.322,335.220,-139.600,88.940
890,52930.605000,242.242,23.090,106.496,456.264,-163.933,233.667,347.220,-139.600,-50.060
891,52930.649000,235.363,38.149,99.328,461.003,-163.012,230.710,480.220,-133.600,-188.060
892,52930.683000,222.587,52.204,102.400,462.031,-157.425,234.809,480.220,-110.600,-267.060
893,52930.729000,218.656,74.290,94.208,466.074,-138.195,232.240,426.220,-137.600,-296.060
894,52930.765000,215.708,74.290,96.256,474.703,-129.837,232.431,274.220,-163.600,-256.060
895,52930.791000,213.743,76.298,93.184,473.863,-121.683,228.624,152.220,-146.600,-207.060
896,52930.825000,210.795,76.298,95.232,475.800,-118.052,225.721,113.220,-151.600,-161.060
897,52930.860000,205.881,75.294,84.992,481.520,-114.410,220.833,87.220,-193.600,-112.060
898,52930.903000,207.846,83.325,78.848,480.547,-116.274,219.798,88.220,-145.600,-102.060
899,52930.944000,214.726,87.341,86.016,485.429,-105.218,220.040,96.220,-78.600,-87.060
900,52930.992000,221.605,96.376,78.848,487.255,-109.812,217.956,64.220,-90.600,-77.060
901,52931.5000,215.708,90.353,80.896,485.470,-101.651,215.143,34.220,-82.600,-61.060
902,52931.43000,232.415,81.318,83.968,488.298,-102.510,216.123,-73.780,-16.600,10.940
903,52931.84000,246.173,66.259,99.328,483.445,-111.695,217.910,-118.780,63.400,67.940
904,52931.124000,247.155,61.239,106.496,483.522,-106.178,219.022,83.220,81.400,109.940
905,52931.164000,235.363,66.259,86.016,481.554,-111.700,218.902,158.220,84.400,87.940
906,52931.204000,223.570,70.275,78.848,479.718,-107.983,222.957,165.220,119.400,58.940
907,52931.244000,222.587,74.290,86.016,477.812,-109.703,229.880,178.220,232.400,-25.060
908,52931.270000,221.605,87.341,90.112,477.851,-107.715,237.879,120.220,222.400,-88.060
909,52931.303000,225.536,84.329,93.184,474.008,-112.287,240.760,31.220,245.400,-105.060
910,52931.345000,225.536,79.310,92.160,474.230,-96.596,247.062,-33.780,197.400,-99.060
911,52931.388000,223.570,84.329,88.064,471.284,-104.820,249.867,-68.780,173.400,-92.060
912,52931.426000,222.587,80.314,86.016,473.213,-102.826,256.875,-137.780,176.400,-86.060
913,52931.466000,217.674,81.318,82.944,472.344,-97.322,257.985,-164.780,168.400,-103.060
914,52931.486000,206.864,81.318,82.944,472.272,-102.780,259.858,-197.780,163.400,-122.060
915,52931.532000,206.864,85.333,80.896,464.691,-103.776,260.820,-354.780,188.400,-139.060
916,52931.566000,204.898,84.329,91.136,464.716,-101.944,260.859,-487.780,197.400,-132.060
917,52931.617000,193.106,65.255,116.736,459.803,-115.671,264.538,-688.780,159.400,-125.060
918,52931.643000,202.933,63.247,126.976,462.687,-112.027,261.636,-678.780,165.400,-131.060
919,52931.687000,202.933,60.235,131.072,458.791,-120.303,262.449,-645.780,103.400,-124.060
920,52931.724000,211.777,62.243,132.096,458.736,-124.026,259.386,-591.780,72.400,-119.060
921,52931.747000,240.276,57.224,150.528,459.627,-127.737,256.324,-560.780,91.400,-109.060
922,52931.785000,250.104,51.200,151.552,461.461,-132.253,258.220,-469.780,183.400,-66.060
923,52931.830000,220.622,43.169,138.240,456.636,-139.567,262.036,-308.780,227.400,-60.060
924,52931.872000,210.795,67.263,125.952,455.779,-133.147,263.166,-173.780,170.400,-77.060
925,52931.905000,206.864,73.286,109.568,454.747,-139.553,264.023,-244.780,164.400,-129.060
926,52931.944000,205.881,77.302,108.544,453.871,-134.887,269.094,-263.780,215.400,-166.060
927,52931.992000,199.985,77.302,121.856,449.132,-135.807,272.051,-308.780,242.400,-158.060
928,52932.5000,195.071,76.298,119.808,444.345,-140.372,275.926,-378.780,194.400,-141.060
929,52932.47000,191.140,77.302,114.688,449.026,-143.974,275.856,-442.780,173.400,-112.060
930,52932.81000,191.140,62.243,124.928,447.978,-151.335,274.703,-442.780,162.400,-57.060
931,52932.130000,189.175,62.243,132.096,441.277,-156.939,273.579,-268.780,133.400,7.940
932,52932.165000,187.209,65.255,139.264,437.525,-155.059,278.587,-103.780,132.400,63.940
933,52932.204000,194.088,71.278,137.216,432.758,-157.851,279.515,11.220,131.400,126.940
934,52932.222000,193.106,81.318,144.384,432.621,-167.928,279.300,56.220,51.400,152.940
935,52932.261000,190.157,85.333,149.504,430.770,-165.146,282.341,-46.780,6.400,192.940
936,52932.307000,218.656,78.306,172.032,428.687,-178.952,280.054,-149.780,-10.600,215.940
937,52932.341000,219.639,43.169,195.584,422.861,-190.001,280.805,-196.780,31.400,282.940
938,52932.382000,186.226,30.118,190.464,415.229,-194.662,281.689,18.220,-71.600,396.940
939,52932.424000,168.537,5.020,182.272,414.142,-204.791,279.483,-69.780,-37.600,383.940
940,52932.462000,189.175,5.020,201.728,407.406,-213.124,279.296,-269.780,33.400,238.940
941,52932.482000,195.071,-1.004,223.232,405.411,-220.498,278.141,-202.780,105.400,224.940
942,52932.521000,188.192,0.000,199.680,400.481,-235.199,278.816,5.220,39.400,245.940
943,52932.564000,171.486,6.024,179.200,397.646,-235.197,280.801,36.220,-36.600,236.940
944,52932.613000,163.624,3.012,171.008,394.729,-240.771,278.689,-1.780,-123.600,222.940
945,52932.647000,159.693,-3.012,166.912,391.835,-244.531,275.620,39.220,-130.600,272.940
946,52932.686000,164.607,-2.008,162.816,387.959,-251.033,273.487,139.220,-72.600,319.940
947,52932.706000,162.641,-1.004,177.152,385.139,-250.076,277.482,168.220,-9.600,356.940
948,52932.747000,164.607,3.012,179.200,375.606,-255.640,280.333,249.220,-46.600,404.940
949,52932.784000,177.382,9.035,175.104,368.913,-261.146,284.185,227.220,-85.600,410.940
950,52932.827000,195.071,16.063,164.864,368.871,-263.953,281.141,180.220,-146.600,374.940
951,52932.867000,199.002,12.047,157.696,362.079,-276.009,277.890,88.220,-181.600,370.940
952,52932.905000,201.950,3.012,153.600,361.128,-276.080,274.903,31.220,-195.600,359.940
953,52932.945000,201.950,-6.024,157.696,356.254,-286.278,271.695,0.220,-138.600,324.940
954,52932.965000,199.985,-9.035,160.768,353.331,-292.690,273.544,15.220,-130.600,298.940
955,52933.11000,201.950,-21.082,160.768,349.459,-298.373,266.455,29.220,-126.600,290.940
956,52933.46000,201.950,-21.082,155.648,347.530,-301.127,267.388,116.220,-182.600,275.940
957,52933.88000,199.985,-19.075,152.576,343.729,-302.132,265.372,127.220,-206.600,256.940
958,52933.123000,196.054,-17.067,149.504,343.742,-301.216,265.391,135.220,-246.600,257.940
959,52933.163000,195.071,-23.090,142.336,341.780,-305.900,261.310,159.220,-306.600,299.940
960,52933.183000,193.106,-27.106,133.120,340.707,-315.093,260.118,191.220,-333.600,351.940
961,52933.223000,195.071,-35.137,129.024,339.741,-316.879,263.062,228.220,-339.600,414.940
962,52933.264000,193.106,-43.169,124.928,338.736,-320.654,258.008,287.220,-343.600,456.940
963,52933.314000,189.175,-45.176,116.736,331.123,-323.561,254.950,373.220,-383.600,475.940
964,52933.348000,197.036,-37.145,113.664,328.228,-328.101,258.828,375.220,-345.600,445.940
965,52933.383000,217.674,-36.141,145.408,326.362,-326.274,259.859,327.220,-257.600,430.940
966,52933.423000,254.035,-8.031,148.480,321.666,-323.608,258.914,395.220,-282.600,343.940
967,52933.443000,265.827,-6.024,151.552,321.609,-328.130,261.802,256.220,-230.600,228.940
968,52933.483000,265.827,-2.008,145.408,319.752,-325.426,260.862,223.220,-173.600,67.940
969,52933.523000,251.086,-10.039,123.904,326.391,-324.403,261.888,152.220,-161.600,-81.060
970,52933.567000,237.328,-12.047,111.616,327.351,-323.455,262.904,172.220,-113.600,-147.060
971,52933.634000,215.708,-22.086,95.232,330.277,-317.004,263.046,121.220,17.400,-151.060
972,52933.650000,213.743,-34.133,102.400,330.362,-311.390,269.133,181.220,104.400,-132.060
973,52933.670000,221.605,-26.102,120.832,325.689,-307.691,274.178,220.220,228.400,-143.060
974,52933.703000,222.587,-16.063,133.120,327.658,-302.929,282.240,231.220,274.400,-136.060
975,52933.750000,225.536,-6.024,134.144,326.726,-302.766,291.193,177.220,247.400,-106.060
976,52933.783000,223.570,-2.008,131.072,323.001,-299.034,297.235,28.220,215.400,-62.060
977,52933.825000,206.864,-1.004,118.784,322.084,-296.396,292.317,-107.780,91.400,-25.060
978,52933.880000,200.967,-5.020,110.592,322.028,-300.899,296.199,-184.780,47.400,19.940
979,52933.904000,183.278,-7.027,103.424,321.009,-305.609,290.130,-200.780,-10.600,98.940
980,52933.927000,171.486,-17.067,108.544,319.023,-312.125,286.010,-188.780,-11.600,169.940
981,52933.967000,197.036,-37.145,125.952,310.456,-315.902,285.917,-106.780,52.400,286.940
982,52934.7000,210.795,-39.153,137.216,303.757,-321.486,285.788,27.220,199.400,370.940
983,52934.51000,232.415,-44.173,161.792,292.400,-322.416,292.714,153.220,234.400,403.940
984,52934.86000,242.242,-59.231,167.936,285.714,-327.844,300.545,401.220,92.400,359.940
985,52934.128000,234.380,-34.133,148.480,284.867,-321.307,307.646,351.220,-0.600,240.940
986,52934.148000,221.605,-38.149,146.432,283.863,-325.841,310.532,265.220,-78.600,155.940
987,52934.186000,209.812,-39.153,136.192,282.104,-316.608,315.699,244.220,-170.600,84.940
988,52934.226000,202.933,-38.149,126.976,282.077,-318.459,314.665,173.220,-189.600,42.940
989,52934.267000,200.967,-41.161,128.000,285.893,-315.739,310.750,85.220,-179.600,-22.060
990,52934.307000,199.985,-39.153,122.880,287.784,-315.733,309.758,47.220,-178.600,-76.060
991,52934.346000,205.881,-41.161,124.928,297.299,-311.924,310.848,0.220,-134.600,-116.060
992,52934.403000,208.829,-40.157,130.048,297.216,-317.519,305.755,-82.780,-112.600,-166.060
993,52934.411000,210.795,-40.157,132.096,302.924,-314.773,301.844,-143.780,-156.600,-208.060
994,52934.449000,214.726,-40.157,126.976,310.576,-308.339,298.013,-195.780,-196.600,-239.060
995,52934.484000,215.708,-38.149,124.928,317.096,-314.859,287.938,-252.780,-309.600,-291.060
996,52934.531000,225.536,-43.169,115.712,332.329,-306.648,276.200,-264.780,-364.600,-297.060
997,52934.564000,230.449,-46.180,102.400,342.661,-311.267,267.165,-158.780,-382.600,-301.060
998,52934.604000,222.587,-38.149,99.328,348.416,-304.896,261.341,-96.780,-295.600,-278.060
999,52934.624000,209.812,-22.086,95.232,356.099,-296.551,261.530,20.220,-286.600,-273.060
1000,52934.664000,204.898,-4.016,88.064,367.499,-292.035,250.702,-1.780,-270.600,-278.060
1001,52934.704000,209.812,7.027,83.968,377.012,-288.245,250.797,50.220,-235.600,-315.060
1002,52934.748000,253.052,43.169,98.304,380.932,-278.157,249.028,-62.780,-0.600,-393.060
1003,52934.788000,270.741,59.231,124.928,383.783,-277.203,249.052,-144.780,192.400,-402.060
1004,52934.828000,244.207,64.251,139.264,382.900,-272.635,249.148,-267.780,162.400,-352.060
1005,52934.866000,232.415,49.192,103.424,388.522,-276.283,246.095,-343.780,11.400,-209.060
1006,52934.888000,229.466,26.102,79.872,389.443,-277.343,238.117,-413.780,64.400,-88.060
1007,52934.929000,223.570,16.063,89.088,386.641,-274.632,238.170,-389.780,179.400,-14.060
1008,52934.975000,220.622,12.047,93.184,382.719,-284.759,237.949,-351.780,344.400,10.940
1009,52935.6000,237.328,2.008,114.688,382.772,-281.056,240.017,-295.780,415.400,14.940
1010,52935.48000,235.363,-5.020,128.000,371.340,-287.482,246.826,-202.780,327.400,1.940
1011,52935.86000,232.415,-16.063,121.856,370.367,-289.347,245.790,-87.780,287.400,60.940
1012,52935.108000,220.622,-17.067,121.856,364.675,-291.137,251.712,-47.780,278.400,114.940
1013,52935.146000,206.864,-23.090,126.976,360.762,-301.147,257.461,-53.780,254.400,189.940
1014,52935.188000,204.898,-25.098,125.952,355.041,-304.809,261.353,-28.780,221.400,210.940
1015,52935.234000,199.985,-25.098,125.952,347.397,-310.386,262.217,56.220,216.400,221.940
1016,52935.265000,199.985,-20.078,124.928,342.732,-306.589,272.238,132.220,217.400,236.940
1017,52935.308000,199.002,-17.067,132.096,334.156,-311.243,274.115,138.220,202.400,269.940
1018,52935.346000,200.967,-33.129,142.336,326.592,-311.265,278.082,44.220,186.400,350.940
1019,52935.366000,204.898,-52.204,148.480,318.993,-314.016,282.986,52.220,115.400,388.940
1020,52935.408000,206.864,-57.224,146.432,314.177,-320.452,284.831,155.220,11.400,391.940
1021,52935.446000,210.795,-60.235,143.360,301.755,-329.717,287.599,255.220,-12.600,368.940
1022,52935.486000,222.587,-57.224,144.384,303.731,-324.098,292.695,305.220,9.400,316.940
1023,52935.528000,226.518,-46.180,150.528,298.983,-325.895,297.623,441.220,-43.600,179.940
1024,52935.568000,204.898,-30.118,145.408,300.095,-314.694,307.809,541.220,-105.600,70.940
1025,52935.588000,197.036,-23.090,136.192,302.062,-309.952,314.875,596.220,-120.600,0.940
1026,52935.628000,202.933,-23.090,128.000,305.000,-303.365,321.982,575.220,-138.600,-5.060
1027,52935.675000,206.864,-14.055,130.048,310.847,-291.302,326.226,506.220,-118.600,1.940
1028,52935.709000,208.829,-14.055,132.096,310.959,-283.836,333.348,459.220,-117.600,-9.060
1029,52935.749000,217.674,-5.020,122.880,310.991,-281.926,337.367,413.220,-105.600,-35.060
1030,52935.790000,226.518,-1.004,132.096,313.933,-274.520,339.518,345.220,-57.600,-60.060
1031,52935.828000,225.536,7.027,132.096,315.961,-265.217,345.687,284.220,-51.600,-97.060
1032,52935.849000,218.656,2.008,128.000,319.749,-265.128,347.684,223.220,-36.600,-107.060
1033,52935.889000,212.760,3.012,129.024,320.861,-253.166,349.929,185.220,-12.600,-114.060
1034,52935.930000,208.829,7.027,129.024,319.025,-249.449,353.984,179.220,29.400,-100.060
1035,52935.970000,209.812,6.024,129.024,327.622,-243.781,357.102,179.220,36.400,-66.060
1036,52936.10000,214.726,5.020,136.192,322.917,-241.992,358.127,202.220,42.400,-31.060
1037,52936.50000,216.691,6.024,136.192,321.006,-243.771,362.065,223.220,46.400,-32.060
1038,52936.70000,218.656,7.027,134.144,323.027,-234.545,364.254,252.220,28.400,-49.060
1039,52936.105000,215.708,9.035,132.096,323.137,-227.099,370.380,262.220,27.400,-61.060
1040,52936.153000,214.726,10.039,133.120,323.227,-220.667,371.512,284.220,47.400,-56.060
1041,52936.191000,211.777,7.027,131.072,322.303,-219.646,377.500,329.220,42.400,-42.060
1042,52936.225000,211.777,7.027,128.000,322.386,-214.052,382.592,379.220,35.400,-40.060
1043,52936.265000,211.777,11.043,128.000,321.548,-206.638,387.722,432.220,40.400,-41.060
1044,52936.310000,208.829,14.055,126.976,325.542,-191.832,393.016,537.220,47.400,-48.060
1045,52936.329000,214.726,16.063,122.880,325.616,-187.115,400.079,584.220,45.400,-64.060
1046,52936.369000,212.760,21.082,123.904,324.872,-173.210,409.326,652.220,77.400,-84.060
1047,52936.409000,216.691,28.110,120.832,327.969,-154.752,414.697,685.220,70.400,-119.060
1048,52936.454000,209.812,37.145,122.880,324.344,-143.691,420.894,736.220,66.400,-151.060
1049,52936.495000,205.881,48.188,121.856,322.820,-117.850,432.383,750.220,66.400,-201.060
1050,52936.529000,201.950,65.255,129.024,324.010,-100.353,436.736,736.220,65.400,-247.060
1051,52936.549000,198.019,80.314,128.000,322.324,-85.641,441.025,740.220,40.400,-254.060
1052,52936.589000,193.106,89.349,136.192,324.345,-76.416,443.214,642.220,64.400,-273.060
1053,52936.634000,196.054,110.431,142.336,326.582,-51.577,447.724,570.220,30.400,-284.060
1054,52936.671000,200.967,118.463,144.384,326.732,-40.584,447.958,410.220,59.400,-231.060
1055,52936.711000,197.036,126.494,145.408,327.860,-27.667,452.213,201.220,16.400,-182.060
1056,52936.753000,194.088,127.498,138.240,330.649,-31.294,452.140,31.220,-66.600,-63.060
1057,52936.791000,193.106,112.439,132.096,331.591,-31.340,449.157,-167.780,-166.600,15.940
1058,52936.811000,194.088,107.420,126.976,336.175,-41.472,442.980,-239.780,-226.600,76.940
1059,52936.848000,199.985,100.392,121.856,337.123,-40.661,437.031,-282.780,-259.600,114.940
1060,52936.892000,200.967,96.376,111.616,345.543,-47.078,430.939,-260.780,-255.600,111.940
1061,52936.928000,202.933,101.396,107.520,349.193,-56.307,424.780,-265.780,-253.600,111.940
1062,52936.968000,203.916,98.384,107.520,354.762,-63.658,419.659,-421.780,-210.600,98.940
1063,52937.10000,204.898,92.361,109.568,354.513,-81.202,412.323,-506.780,-175.600,94.940
1064,52937.49000,206.864,89.349,106.496,361.927,-92.173,408.122,-534.780,-201.600,80.940
1065,52937.78000,214.726,89.349,102.400,362.624,-109.704,400.787,-581.780,-165.600,115.940
1066,52937.111000,214.726,75.294,104.448,364.471,-112.525,395.757,-539.780,-148.600,135.940
1067,52937.150000,220.622,70.275,108.544,368.096,-123.586,389.559,-510.780,-139.600,136.940
1068,52937.198000,224.553,69.271,107.520,367.834,-142.045,382.203,-508.780,-73.600,147.940
1069,52937.231000,228.484,61.239,110.592,361.057,-153.165,379.967,-397.780,-0.600,215.940
1070,52937.271000,229.466,55.216,111.616,361.925,-158.688,377.861,-374.780,9.400,252.940
1071,52937.291000,220.622,39.153,113.664,354.184,-170.796,372.619,-323.780,31.400,268.940
1072,52937.331000,215.708,33.129,111.616,352.133,-181.912,367.406,-366.780,31.400,241.940
1073,52937.381000,214.726,23.090,114.688,351.083,-189.292,365.258,-424.780,13.400,192.940
1074,52937.416000,215.708,22.086,118.784,347.085,-204.917,364.920,-462.780,18.400,142.940
1075,52937.458000,216.691,19.075,119.808,346.065,-209.646,357.855,-401.780,25.400,87.940
1076,52937.486000,215.708,7.027,119.808,344.957,-220.789,350.654,-436.780,22.400,82.940
1077,52937.526000,215.708,8.031,119.808,341.102,-225.498,346.570,-513.780,23.400,22.940
1078,52937.547000,219.639,6.024,123.904,341.942,-232.893,342.435,-509.780,-1.600,-24.060
1079,52937.591000,227.501,5.020,118.784,341.809,-242.151,337.264,-521.780,1.400,-32.060
1080,52937.639000,232.415,1.004,116.736,339.737,-254.281,327.057,-524.780,9.400,-18.060
1081,52937.670000,222.587,0.000,110.592,338.727,-258.115,319.017,-511.780,24.400,23.940
1082,52937.710000,218.656,-8.031,112.640,334.780,-269.295,311.810,-535.780,84.400,81.940
