Sample, Time, ACCX, ACCY, ACCZ, MAGX, MAGY, MAGZ, GYRX, GYRY, GYRZ
0,52702.281000,206.864,44.173,133.120,388.975,-182.166,329.659,-177.780,-57.600,-97.060
1,52702.300000,208.829,46.180,132.096,388.956,-183.160,325.659,-166.780,-48.600,-96.060
2,52702.345000,208.829,46.180,133.120,393.691,-183.059,327.658,-172.780,-37.600,-93.060
3,52702.385000,208.829,47.184,135.168,388.017,-182.315,322.692,-181.780,-29.600,-89.060
4,52702.422000,209.812,46.180,137.216,391.724,-187.801,320.592,-194.780,-21.600,-71.060
5,52702.463000,209.812,39.153,137.216,392.606,-192.388,319.501,-175.780,-40.600,-48.060
6,52702.513000,210.795,42.165,135.168,391.632,-194.272,317.470,-187.780,-77.600,-34.060
7,52702.522000,211.777,42.165,131.072,396.394,-191.539,313.556,-199.780,-110.600,-33.060
8,52702.563000,213.743,41.161,129.024,397.335,-191.586,310.573,-207.780,-123.600,-30.060
9,52702.614000,212.760,39.153,123.904,400.971,-201.750,303.400,-182.780,-114.600,-12.060
10,52702.647000,211.777,38.149,120.832,401.963,-198.131,300.494,-149.780,-104.600,-3.060
11,52702.683000,217.674,37.145,120.832,397.130,-205.542,299.335,-138.780,-78.600,-5.060
12,52702.737000,221.605,33.129,125.952,399.072,-201.853,299.416,-97.780,-37.600,0.940
13,52702.763000,222.587,33.129,126.976,402.838,-202.797,295.423,-53.780,-25.600,7.940
14,52702.787000,225.536,36.141,129.024,399.996,-202.873,293.428,-7.780,-8.600,4.940
15,52702.823000,221.605,35.137,123.904,400.996,-199.157,295.498,-18.780,-18.600,7.940
16,52702.865000,211.777,30.118,118.784,399.996,-202.873,293.428,-36.780,-29.600,20.940
17,52702.903000,201.950,29.114,118.784,401.826,-207.429,293.334,-58.780,-36.600,34.940
18,52702.948000,210.795,26.102,122.880,398.948,-210.234,292.275,-30.780,-3.600,55.940
19,52702.993000,226.518,25.098,132.096,400.903,-205.629,292.376,22.220,72.400,92.940
20,52703.3000,223.570,27.106,134.144,397.971,-212.917,296.195,131.220,70.400,113.940
21,52703.44000,218.656,35.137,126.976,396.155,-207.426,297.304,203.220,64.400,103.940
22,52703.82000,211.777,37.145,122.880,394.286,-206.398,304.285,211.220,56.400,65.940
23,52703.134000,210.795,35.137,128.000,389.567,-205.545,304.297,187.220,56.400,40.940
24,52703.189000,213.743,38.149,129.024,388.589,-208.247,307.221,199.220,29.400,29.940
25,52703.207000,213.743,38.149,128.000,389.651,-199.950,309.389,192.220,3.400,23.940
26,52703.244000,212.760,40.157,126.976,393.354,-206.255,312.244,145.220,-21.600,10.940
27,52703.263000,214.726,42.165,123.904,394.418,-197.159,308.461,113.220,-71.600,-7.060
28,52703.305000,214.726,42.165,123.904,397.223,-199.831,310.397,79.220,-71.600,-13.060
29,52703.350000,213.743,41.161,123.904,397.295,-194.373,308.524,95.220,-66.600,-7.060
30,52703.400000,214.726,42.165,119.808,398.264,-192.548,307.570,127.220,-81.600,5.940
31,52703.427000,217.674,42.165,120.832,398.316,-188.864,308.643,137.220,-77.600,12.940
32,52703.463000,216.691,44.173,120.832,399.251,-189.748,309.620,133.220,-81.600,9.940
33,52703.483000,219.639,48.188,118.784,402.142,-186.026,310.698,120.220,-90.600,7.940
34,52703.523000,220.622,48.188,114.688,403.049,-188.782,309.646,100.220,-90.600,8.940
35,52703.569000,223.570,48.188,109.568,403.931,-193.369,308.555,82.220,-96.600,7.940
36,52703.608000,221.605,47.184,109.568,406.906,-183.274,307.780,95.220,-111.600,5.940
37,52703.647000,223.570,47.184,109.568,410.670,-185.017,309.738,87.220,-95.600,1.940
38,52703.689000,223.570,48.188,107.520,410.738,-179.598,305.875,89.220,-80.600,3.940
39,52703.724000,222.587,49.192,106.496,407.915,-178.681,307.879,72.220,-52.600,6.940
40,52703.745000,220.622,49.192,108.544,409.820,-177.740,307.902,73.220,-30.600,4.940
41,52703.783000,223.570,48.188,110.592,409.856,-175.011,306.966,62.220,-2.600,11.940
42,52703.827000,223.570,50.196,110.592,410.788,-175.934,305.953,43.220,17.400,9.940
43,52703.870000,221.605,50.196,110.592,411.647,-182.334,305.818,49.220,13.400,-1.060
44,52703.903000,221.605,50.196,109.568,407.902,-179.597,307.860,43.220,21.400,-7.060
45,52703.949000,221.605,50.196,110.592,408.841,-180.442,310.827,24.220,30.400,-9.060
46,52703.984000,220.622,51.200,111.616,408.900,-175.900,308.935,24.220,25.400,-10.060
47,52704.3000,221.605,50.196,110.592,407.059,-172.241,310.004,15.220,24.400,-10.060
48,52704.47000,218.656,50.196,111.616,411.773,-173.153,307.008,1.220,20.400,-7.060
49,52704.84000,220.622,49.192,111.616,406.063,-175.918,309.925,3.220,23.400,-2.060
50,52704.130000,220.622,49.192,113.664,406.106,-173.111,312.968,2.220,28.400,2.940
51,52704.164000,218.656,48.188,114.688,407.967,-174.997,308.952,5.220,25.400,1.940
52,52704.204000,219.639,49.192,112.640,405.020,-183.221,311.757,13.220,25.400,1.940
53,52704.228000,219.639,49.192,114.688,407.998,-173.086,312.972,-0.780,18.400,2.940
54,52704.263000,220.622,49.192,114.688,403.257,-174.026,314.934,-3.780,13.400,-2.060
55,52704.303000,219.639,48.188,116.736,407.063,-172.202,311.995,-2.780,6.400,-7.060
56,52704.344000,218.656,49.192,113.664,407.047,-173.157,309.985,-15.780,-8.600,-16.060
57,52704.387000,218.656,45.176,114.688,404.199,-174.072,311.951,1.220,-10.600,-15.060
58,52704.427000,221.605,46.180,116.736,408.869,-178.571,312.856,-20.780,-20.600,-28.060
59,52704.479000,218.656,46.180,112.640,409.900,-172.184,311.004,-21.780,-39.600,-31.060
60,52704.487000,219.639,49.192,110.592,407.918,-178.642,309.869,-28.780,-31.600,-30.060
61,52704.542000,221.605,48.188,111.616,410.805,-174.959,308.957,-27.780,-5.600,-29.060
62,52704.564000,223.570,48.188,112.640,412.775,-169.418,310.073,-19.780,11.400,-33.060
63,52704.612000,222.587,49.192,113.664,411.796,-172.120,312.998,-9.780,30.400,-33.060
64,52704.643000,221.605,51.200,113.664,411.821,-170.288,313.037,-4.780,44.400,-34.060
65,52704.684000,219.639,51.200,113.664,410.860,-171.236,312.021,9.220,59.400,-28.060
66,52704.712000,216.691,50.196,117.760,408.089,-166.634,315.098,16.220,63.400,-19.060
67,52704.744000,216.691,51.200,113.664,406.116,-172.215,311.993,20.220,52.400,-18.060
68,52704.784000,218.656,51.200,117.760,407.174,-164.737,319.116,15.220,62.400,-13.060
69,52704.827000,217.674,51.200,118.784,406.128,-172.078,318.958,29.220,52.400,-11.060
70,52704.864000,218.656,50.196,117.760,408.097,-166.537,320.074,23.220,43.400,-10.060
71,52704.908000,217.674,53.208,118.784,407.985,-174.782,319.898,25.220,43.400,-2.060
72,52704.949000,215.708,55.216,117.760,405.190,-171.993,323.932,33.220,32.400,-3.060
73,52704.968000,216.691,51.200,119.808,406.255,-162.897,320.148,49.220,32.400,10.940
74,52705.8000,216.691,53.208,121.856,403.317,-170.244,320.982,36.220,35.400,9.940
75,52705.44000,215.708,53.208,118.784,400.485,-170.204,324.958,61.220,17.400,11.940
76,52705.88000,215.708,53.208,118.784,402.454,-164.662,326.073,60.220,16.400,12.940
77,52705.128000,213.743,54.212,118.784,403.404,-164.611,328.065,60.220,18.400,12.940
78,52705.172000,215.708,56.220,117.760,399.583,-167.390,328.995,63.220,11.400,10.940
79,52705.185000,215.708,55.216,119.808,403.426,-162.818,326.114,62.220,-0.600,14.940
80,52705.228000,217.674,55.216,115.712,402.404,-168.327,325.995,61.220,-9.600,8.940
81,52705.265000,214.726,55.216,115.712,401.571,-160.094,326.169,58.220,-5.600,12.940
82,52705.314000,216.691,55.216,116.736,403.376,-166.482,326.036,53.220,-2.600,12.940
83,52705.347000,215.708,54.212,116.736,401.510,-164.655,327.066,48.220,-7.600,11.940
84,52705.384000,216.691,54.212,116.736,402.483,-162.791,328.102,43.220,-4.600,7.940
85,52705.425000,217.674,55.216,115.712,400.619,-160.945,330.128,36.220,2.400,5.940
86,52705.444000,217.674,55.216,116.736,401.629,-156.332,331.222,43.220,4.400,6.940
87,52705.485000,216.691,54.212,116.736,401.637,-155.475,328.257,32.220,11.400,7.940
88,52705.532000,218.656,56.220,114.688,400.611,-161.802,333.094,29.220,12.400,0.940
89,52705.572000,218.656,54.212,115.712,401.567,-160.913,331.125,48.220,20.400,10.940
90,52705.604000,217.674,56.220,116.736,400.713,-154.454,334.245,40.220,36.400,7.940
91,52705.647000,215.708,55.216,118.784,401.623,-157.170,335.183,50.220,23.400,-0.060
92,52705.693000,214.726,55.216,117.760,398.834,-153.543,335.256,29.220,13.400,-13.060
93,52705.704000,214.726,57.224,119.808,400.629,-160.828,336.098,18.220,15.400,-18.060
94,52705.759000,213.743,56.220,118.784,400.705,-155.311,337.211,6.220,11.400,-25.060
95,52705.784000,215.708,58.227,120.832,398.818,-154.498,333.246,-9.780,4.400,-24.060
96,52705.824000,215.708,58.227,118.784,400.689,-156.267,335.201,-20.780,-2.600,-34.060
97,52705.867000,215.708,58.227,117.760,399.773,-154.388,338.223,-16.780,-11.600,-32.060
98,52705.908000,213.743,58.227,116.736,400.725,-153.538,334.264,-34.780,-10.600,-36.060
99,52705.947000,214.726,59.231,118.784,399.815,-150.821,333.326,-34.780,-10.600,-32.060
100,52705.967000,216.691,57.224,117.760,400.702,-155.350,335.220,-29.780,-12.600,-26.060
101,52706.8000,214.726,58.227,118.784,398.870,-150.814,334.320,-28.780,-14.600,-20.060
102,52706.48000,215.708,57.224,118.784,402.615,-153.552,332.278,-16.780,-18.600,-17.060
103,52706.85000,213.743,58.227,115.712,403.575,-152.604,333.294,-16.780,-15.600,-15.060
104,52706.125000,215.708,58.227,119.808,401.715,-149.939,330.364,-22.780,-22.600,-18.060
105,52706.167000,215.708,57.224,120.832,402.544,-158.230,327.205,-22.780,-16.600,-5.060
106,52706.184000,215.708,57.224,120.832,399.724,-157.273,331.199,-42.780,-18.600,-1.060
107,52706.229000,215.708,59.231,117.760,401.651,-154.539,329.271,-36.780,-31.600,-1.060
108,52706.269000,215.708,56.220,118.784,401.536,-162.804,328.101,-39.780,-25.600,-0.060
109,52706.308000,215.708,58.227,117.760,403.538,-154.572,326.289,-39.780,-22.600,1.940
110,52706.347000,214.726,57.224,117.760,402.595,-154.546,328.278,-32.780,-23.600,5.940
111,52706.385000,216.691,56.220,116.736,407.236,-160.935,326.159,-33.780,-20.600,5.940
112,52706.407000,216.691,57.224,117.760,403.537,-154.592,325.294,-36.780,-24.600,5.940
113,52706.449000,216.691,57.224,115.712,401.614,-156.508,322.267,-39.780,-22.600,9.940
114,52706.487000,216.691,55.216,115.712,404.417,-159.199,323.208,-44.780,-22.600,16.940
115,52706.527000,217.674,54.212,116.736,403.433,-161.960,323.148,-64.780,-18.600,21.940
116,52706.580000,217.674,54.212,117.760,404.415,-159.219,322.213,-72.780,-12.600,20.940
117,52706.605000,216.691,54.212,118.784,404.290,-168.380,322.018,-62.780,-14.600,24.940
118,52706.647000,215.708,51.200,116.736,406.160,-170.168,322.977,-70.780,-10.600,21.940
119,52706.665000,216.691,51.200,116.736,408.047,-170.201,319.996,-68.780,-9.600,20.940
120,52706.707000,217.674,49.192,117.760,406.198,-166.640,316.090,-72.780,-9.600,19.940
121,52706.747000,218.656,50.196,117.760,404.287,-168.419,320.028,-52.780,1.400,21.940
122,52706.788000,216.691,48.188,118.784,403.252,-174.864,318.895,-54.780,-2.600,23.940
123,52706.825000,216.691,48.188,117.760,404.259,-170.290,317.999,-44.780,-21.600,6.940
124,52706.868000,215.708,50.196,118.784,406.114,-173.014,317.944,-48.780,-21.600,-4.060
125,52706.908000,217.674,48.188,119.808,406.091,-174.826,318.900,-46.780,-22.600,-9.060
126,52706.927000,214.726,48.188,117.760,405.091,-178.543,316.830,-46.780,-23.600,-14.060
127,52706.969000,216.691,48.188,116.736,405.175,-172.169,314.976,-48.780,-27.600,-19.060
128,52707.17000,217.674,49.192,119.808,404.097,-181.421,310.799,-51.780,-25.600,-21.060
129,52707.45000,217.674,48.188,117.760,405.129,-175.015,309.943,-46.780,-31.600,-19.060
130,52707.88000,217.674,49.192,116.736,409.791,-180.390,312.819,-55.780,-36.600,-19.060
131,52707.125000,217.674,49.192,116.736,407.059,-172.241,310.004,-39.780,-35.600,-17.060
132,52707.145000,220.622,46.180,116.736,406.072,-175.041,307.954,-32.780,-33.600,-19.060
133,52707.203000,218.656,49.192,117.760,407.045,-173.177,308.990,-36.780,-30.600,-18.060
134,52707.228000,218.656,48.188,116.736,403.155,-180.614,305.842,-19.780,-28.600,-13.060
135,52707.265000,217.674,48.188,114.688,411.761,-174.070,306.989,-8.780,-15.600,-10.060
136,52707.305000,218.656,48.188,117.760,406.969,-178.693,307.878,-8.780,-8.600,-5.060
137,52707.348000,217.674,50.196,115.712,408.858,-178.707,305.891,-0.780,-9.600,-1.060
138,52707.394000,220.622,49.192,114.688,410.827,-173.166,307.006,22.220,-0.600,4.940
139,52707.408000,218.656,47.184,116.736,411.675,-180.463,307.847,28.220,2.400,16.940
140,52707.445000,219.639,51.200,115.712,410.832,-173.107,309.992,32.220,-4.600,12.940
141,52707.485000,217.674,49.192,114.688,407.872,-181.488,304.836,43.220,-5.600,11.940
142,52707.529000,217.674,49.192,114.688,413.691,-171.296,307.050,37.220,2.400,14.940
143,52707.567000,220.622,48.188,116.736,409.881,-173.178,307.005,43.220,5.400,15.940
144,52707.607000,217.674,50.196,117.760,412.709,-174.038,307.985,43.220,8.400,15.940
145,52707.630000,219.639,50.196,116.736,407.942,-176.829,308.913,50.220,7.400,15.940
146,52707.675000,218.656,50.196,116.736,408.048,-169.422,313.050,53.220,2.400,10.940
147,52707.708000,218.656,51.200,115.712,409.875,-174.016,310.965,44.220,0.400,7.940
148,52707.750000,219.639,50.196,114.688,408.882,-177.654,312.876,37.220,-0.600,10.940
149,52707.789000,218.656,50.196,115.712,406.171,-168.492,315.056,42.220,-0.600,9.940
150,52707.837000,218.656,50.196,114.688,408.921,-174.887,313.929,47.220,1.400,8.940
151,52707.870000,219.639,52.204,113.664,408.999,-169.351,316.037,52.220,6.400,1.940
152,52707.897000,219.639,53.208,115.712,408.039,-170.299,315.020,41.220,3.400,-1.060
153,52707.927000,218.656,53.208,114.688,408.053,-169.363,316.035,19.220,2.400,-2.060
154,52707.970000,217.674,53.208,116.736,404.218,-173.078,315.950,21.220,6.400,-2.060
155,52708.14000,217.674,53.208,115.712,406.100,-173.949,316.929,9.220,2.400,-9.060
156,52708.49000,219.639,52.204,115.712,409.985,-166.570,317.092,11.220,5.400,-5.060
157,52708.98000,220.622,52.204,115.712,409.010,-168.454,315.061,-3.780,7.400,-4.060
158,52708.107000,218.656,54.212,115.712,410.019,-163.861,315.160,4.220,-5.600,-9.060
159,52708.149000,217.674,53.208,113.664,406.109,-173.072,314.958,-5.780,-6.600,-9.060
160,52708.207000,217.674,53.208,116.736,405.175,-172.169,314.976,-12.780,-6.600,-8.060
161,52708.228000,216.691,53.208,114.688,409.955,-168.461,314.068,-27.780,-10.600,-10.060
162,52708.268000,217.674,53.208,115.712,407.118,-168.479,315.058,-28.780,-15.600,-7.060
163,52708.310000,218.656,53.208,115.712,410.885,-169.404,312.060,-25.780,-14.600,-5.060
164,52708.350000,217.674,52.204,114.688,408.052,-169.383,315.040,-28.780,-18.600,-2.060
165,52708.367000,219.639,53.208,114.688,407.086,-170.389,311.038,-28.780,-16.600,0.940
166,52708.412000,217.674,50.196,114.688,408.061,-168.506,313.069,-26.780,-12.600,1.940
167,52708.448000,219.639,51.200,112.640,407.020,-175.009,308.951,-17.780,-8.600,8.940
168,52708.492000,219.639,50.196,114.688,407.099,-169.473,311.058,-12.780,-4.600,7.940
169,52708.527000,217.674,50.196,113.664,411.858,-167.539,313.095,-4.780,-7.600,6.940
170,52708.569000,218.656,50.196,114.688,410.795,-175.856,309.933,-7.780,-7.600,10.940
171,52708.590000,218.656,50.196,116.736,409.925,-170.352,311.043,-4.780,-9.600,15.940
172,52708.630000,218.656,49.192,115.712,410.862,-171.217,313.016,1.220,-16.600,15.940
173,52708.667000,218.656,49.192,113.664,405.129,-175.015,309.943,7.220,-15.600,10.940
174,52708.712000,216.691,51.200,116.736,409.870,-174.075,307.980,9.220,-7.600,17.940
175,52708.748000,218.656,49.192,117.760,410.873,-170.320,312.040,3.220,-7.600,10.940
176,52708.795000,218.656,49.192,114.688,407.956,-175.893,309.928,14.220,-12.600,10.940
177,52708.829000,217.674,49.192,113.664,409.909,-171.307,309.034,6.220,-10.600,9.940
178,52708.850000,218.656,50.196,111.616,412.600,-182.244,309.800,-0.780,-5.600,8.940
179,52708.888000,219.639,49.192,116.736,413.684,-172.154,310.016,-1.780,-1.600,9.940
180,52708.933000,220.622,49.192,115.712,408.924,-174.088,307.979,-12.780,-6.600,11.940
181,52708.972000,224.553,50.196,111.616,407.932,-177.706,310.884,9.220,-5.600,9.940
182,52709.12000,233.397,49.192,115.712,407.036,-174.054,310.960,-4.780,11.400,10.940
183,52709.57000,255.017,42.165,126.976,406.102,-173.150,310.978,-42.780,59.400,22.940
184,52709.89000,256.000,34.133,114.688,405.175,-172.169,314.976,96.220,68.400,55.940
185,52709.110000,245.190,26.102,104.448,405.188,-171.252,314.996,291.220,77.400,151.940
186,52709.148000,202.933,12.047,76.800,403.307,-171.141,321.958,396.220,62.400,203.940
187,52709.190000,173.451,-2.008,77.824,398.549,-173.815,328.856,538.220,77.400,257.940
188,52709.235000,222.587,7.027,107.520,393.999,-161.753,340.047,729.220,246.400,289.940
189,52709.268000,217.674,64.251,130.048,387.499,-154.219,355.118,1122.220,331.400,261.940
190,52709.310000,181.313,119.467,165.888,377.429,-131.141,371.508,1262.220,408.400,88.940
191,52709.329000,169.520,144.565,186.368,375.758,-116.254,384.753,960.220,426.400,-88.060
192,52709.377000,171.486,112.439,180.224,367.305,-112.546,392.776,490.220,317.400,-6.060
193,52709.409000,186.226,114.447,155.648,362.676,-106.020,401.860,374.220,96.400,86.940
194,52709.452000,185.244,104.408,134.144,364.688,-96.892,399.073,199.220,-63.600,183.940
195,52709.492000,202.933,87.341,120.832,364.610,-102.428,396.966,-13.780,-160.600,212.940
196,52709.529000,196.054,82.322,112.640,368.296,-108.927,389.871,-132.780,-211.600,145.940
197,52709.583000,195.071,88.345,106.496,375.797,-113.486,385.806,-431.780,-246.600,22.940
198,52709.592000,192.123,84.329,99.328,379.341,-130.122,375.511,-780.780,-292.600,-112.060
199,52709.629000,198.019,71.278,100.352,384.942,-134.023,359.522,-915.780,-206.600,-171.060
200,52709.672000,192.123,67.263,101.376,392.213,-154.371,344.180,-1151.780,-224.600,-258.060
201,52709.724000,184.261,58.227,91.136,397.734,-165.368,339.976,-1093.780,-193.600,-282.060
202,52709.749000,221.605,53.208,76.800,397.635,-170.378,317.987,-1293.780,-249.600,-322.060
203,52709.792000,248.138,12.047,115.712,404.985,-185.170,305.748,-1256.780,-69.600,-195.060
204,52709.815000,269.758,-2.008,131.072,408.553,-199.213,287.551,-1163.780,10.400,-134.060
205,52709.848000,313.981,-3.012,139.264,407.506,-205.795,279.452,-747.780,-0.600,-117.060
206,52709.895000,350.342,4.016,146.432,413.141,-208.527,276.418,-481.780,101.400,-127.060
207,52709.928000,267.793,5.020,119.808,410.201,-215.133,268.316,-285.780,-195.600,-170.060
208,52709.972000,219.639,27.106,55.296,417.915,-204.118,264.583,143.220,-279.600,-167.060
209,52710.9000,208.829,26.102,44.032,421.684,-205.023,262.580,88.220,-244.600,-172.060
210,52710.57000,211.777,20.078,54.272,429.348,-197.672,258.770,147.220,-134.600,-55.060
211,52710.70000,219.639,9.035,72.704,426.552,-194.903,261.808,293.220,-119.600,61.940
212,52710.118000,234.380,10.039,71.680,426.536,-195.858,259.799,394.220,-170.600,178.940
213,52710.150000,235.363,3.012,76.800,425.570,-197.644,262.743,454.220,-262.600,254.940
214,52710.193000,219.639,-5.020,89.088,430.375,-192.104,261.874,554.220,-324.600,224.940
215,52710.230000,289.413,13.051,63.488,431.337,-191.137,263.885,928.220,-332.600,135.940
216,52710.270000,231.432,66.259,104.448,435.355,-174.499,269.218,1103.220,-182.600,3.940
217,52710.289000,219.639,81.318,108.544,435.531,-162.433,277.432,984.220,-34.600,-14.060
218,52710.338000,239.294,104.408,126.976,432.826,-153.211,282.598,483.220,29.400,-87.060
219,52710.369000,234.380,92.361,145.408,431.893,-153.068,290.556,234.220,140.400,-65.060
220,52710.414000,206.864,83.325,113.664,435.753,-147.521,290.680,60.220,-40.600,-11.060
221,52710.457000,192.123,68.267,82.944,437.628,-148.471,287.679,-329.780,-126.600,-41.060
222,52710.489000,186.226,66.259,77.824,438.555,-149.452,283.681,-429.780,-168.600,-82.060
223,52710.534000,195.071,73.286,66.560,440.337,-156.113,269.617,-465.780,-217.600,-154.060
224,52710.553000,216.691,75.294,63.488,442.139,-162.540,267.493,-477.780,-66.600,-206.060
225,52710.593000,232.415,70.275,87.040,447.852,-158.977,258.626,-651.780,-78.600,-211.060
226,52710.638000,221.605,35.137,84.992,449.547,-172.031,245.420,-762.780,-190.600,-85.060
227,52710.672000,273.689,15.059,65.536,451.363,-176.762,236.371,-690.780,-130.600,-43.060
228,52710.709000,299.240,21.082,80.896,454.147,-180.448,233.312,-450.780,-82.600,39.940
229,52710.752000,299.240,15.059,91.136,453.154,-183.306,228.277,-133.780,-44.600,25.940
230,52710.793000,274.672,19.075,65.536,454.124,-181.481,227.322,33.220,-203.600,-16.060
231,52710.813000,237.328,20.078,39.936,458.830,-182.491,219.351,23.220,-318.600,-8.060
232,52710.862000,205.881,4.016,40.960,462.555,-186.223,213.309,91.220,-389.600,9.940
233,52710.889000,189.175,7.027,38.912,468.237,-185.329,208.363,159.220,-444.600,-27.060
234,52710.935000,207.846,7.027,34.816,470.277,-173.570,199.665,432.220,-402.600,11.940
235,52710.970000,274.672,12.047,26.624,470.193,-179.944,201.518,614.220,-149.600,77.940
236,52710.997000,243.225,65.255,113.664,477.049,-163.288,205.862,815.220,-83.600,-76.060
237,52711.45000,278.603,84.329,80.896,479.006,-158.663,206.958,480.220,-222.600,-195.060
238,52711.70000,271.724,111.435,67.584,481.027,-149.437,209.146,581.220,-93.600,-281.060
239,52711.112000,254.035,96.376,79.872,479.330,-135.623,214.411,435.220,66.400,-103.060
240,52711.149000,215.708,70.275,64.512,481.222,-135.598,214.414,241.220,-109.600,5.940
241,52711.189000,205.881,66.259,55.296,482.211,-132.778,217.460,99.220,-139.600,79.940
242,52711.234000,205.881,79.310,56.320,484.088,-133.708,215.453,132.220,-93.600,39.940
243,52711.271000,212.760,87.341,60.416,484.085,-133.747,213.463,54.220,-89.600,-31.060
244,52711.292000,218.656,88.345,64.512,482.153,-136.540,212.406,10.220,-84.600,-84.060
245,52711.332000,226.518,89.349,61.440,485.983,-132.884,209.506,-173.780,-105.600,-79.060
246,52711.373000,224.553,90.353,69.632,486.876,-136.575,207.439,-302.780,-37.600,-57.060
247,52711.414000,223.570,89.349,68.608,487.839,-134.828,202.505,-428.780,-98.600,-37.060
248,52711.453000,219.639,91.357,66.560,488.624,-145.946,195.307,-530.780,-86.600,-50.060
249,52711.495000,209.812,94.369,59.392,488.553,-150.624,190.234,-620.780,-99.600,-61.060
250,52711.510000,218.656,92.361,39.936,486.647,-150.805,182.270,-815.780,-136.600,-30.060
251,52711.550000,261.896,69.271,50.176,484.625,-159.271,172.141,-999.780,-69.600,54.940
252,52711.590000,268.775,19.075,69.632,486.184,-182.403,158.720,-1032.780,-155.600,228.940
253,52711.637000,270.741,15.059,66.560,484.191,-188.217,143.674,-885.780,-203.600,283.940
254,52711.670000,265.827,8.031,63.488,484.081,-195.663,137.548,-663.780,-158.600,301.940
255,52711.710000,256.983,3.012,60.416,478.131,-215.094,131.157,-292.780,-123.600,239.940
256,52711.730000,231.432,12.047,49.152,477.267,-208.752,128.307,73.220,-123.600,159.940
257,52711.770000,224.553,5.020,39.936,476.177,-219.681,132.052,329.220,-110.600,169.940
258,52711.812000,225.536,-4.016,41.984,472.472,-214.175,135.147,520.220,-52.600,218.940
259,52711.857000,224.553,-13.051,49.152,470.584,-214.142,138.129,711.220,-18.600,298.940
260,52711.892000,239.294,-14.055,37.888,471.476,-219.392,149.954,945.220,9.400,302.940
261,52711.938000,257.965,4.016,46.080,464.884,-218.329,161.903,1078.220,91.400,225.940
262,52711.972000,264.845,42.165,70.656,463.155,-207.964,178.035,1046.220,144.400,72.940
263,52711.993000,254.035,76.298,71.680,462.286,-204.000,194.032,871.220,181.400,-180.060
264,52712.33000,254.035,83.325,74.752,466.314,-187.245,205.336,561.220,279.400,-267.060
265,52712.79000,246.173,88.345,86.016,467.335,-182.515,212.400,148.220,294.400,-219.060
266,52712.124000,238.311,88.345,82.944,463.544,-183.403,216.354,-230.780,184.400,-117.060
267,52712.157000,219.639,80.314,53.248,462.613,-181.700,210.422,-736.780,41.400,-12.060
268,52712.197000,212.760,70.275,34.816,460.527,-194.766,199.199,-999.780,-151.600,8.940
269,52712.215000,208.829,72.282,24.576,463.168,-207.048,178.054,-1198.780,-257.600,-21.060
270,52712.257000,201.950,70.275,22.528,463.016,-216.522,161.938,-1553.780,-363.600,-44.060
271,52712.295000,245.190,48.188,26.624,467.610,-223.458,131.959,-1965.780,-451.600,19.940
272,52712.330000,275.655,2.008,47.104,462.578,-241.668,93.767,-2157.780,-418.600,200.940
273,52712.370000,276.637,-24.094,68.608,457.529,-261.614,60.512,-2150.780,-280.600,383.940
274,52712.414000,281.551,-47.184,66.560,458.235,-275.188,21.434,-2052.780,-320.600,441.940
275,52712.454000,269.758,-58.227,70.656,452.454,-281.092,4.391,-1747.780,-149.600,382.940
276,52712.474000,251.086,-52.204,84.992,445.749,-284.435,-21.551,-1371.780,76.400,139.940
277,52712.514000,233.397,-49.192,68.608,449.588,-279.142,-34.363,-976.780,-18.600,-3.060
278,52712.555000,226.518,-49.192,52.224,449.505,-283.957,-46.401,-577.780,-15.600,-83.060
279,52712.595000,227.501,-53.208,54.272,449.638,-273.938,-49.172,-390.780,-17.600,-65.060
280,52712.645000,232.415,-61.239,59.392,449.579,-277.700,-54.225,-171.780,-27.600,-45.060
281,52712.674000,228.484,-62.243,64.512,453.418,-273.946,-52.150,131.220,-49.600,-32.060
282,52712.694000,233.397,-57.224,60.416,456.307,-270.244,-52.067,331.220,-27.600,-36.060
283,52712.734000,240.276,-54.212,62.464,461.008,-272.852,-48.137,474.220,54.400,-62.060
284,52712.775000,235.363,-49.192,59.392,460.142,-268.069,-37.096,504.220,69.400,-74.060
285,52712.812000,230.449,-45.176,53.248,464.889,-267.831,-28.132,543.220,80.400,-85.060
286,52712.852000,211.777,-43.169,43.008,466.820,-265.818,-20.129,582.220,99.400,-63.060
287,52712.898000,191.140,-43.169,28.672,467.856,-260.133,-11.055,667.220,121.400,-56.060
288,52712.933000,209.812,-28.110,8.192,470.807,-253.390,4.013,888.220,142.400,-49.060
289,52712.954000,324.791,19.075,12.288,469.846,-256.657,24.829,1065.220,383.400,-5.060
290,52712.993000,315.946,84.329,76.800,476.707,-241.482,47.044,969.220,492.400,-306.060
291,52713.33000,344.445,112.439,70.656,482.504,-234.623,66.097,738.220,553.400,-441.060
292,52713.73000,331.670,101.396,65.536,486.503,-220.519,82.317,488.220,462.400,-438.060
293,52713.127000,282.534,96.376,75.776,486.722,-206.406,101.516,296.220,527.400,-375.060
294,52713.155000,224.553,79.310,58.368,491.441,-208.039,108.451,114.220,273.400,-130.060
295,52713.175000,175.417,76.298,26.624,491.553,-199.794,108.626,-211.780,-4.600,-64.060
296,52713.215000,165.589,79.310,9.216,493.437,-199.867,103.654,-300.780,-139.600,-57.060
297,52713.255000,184.261,80.314,17.408,493.385,-202.791,94.640,-494.780,-136.600,-16.060
298,52713.300000,202.933,77.302,24.576,490.431,-210.333,85.524,-598.780,-116.600,45.940
299,52713.378000,227.501,80.314,41.984,488.409,-218.798,75.394,-655.780,-191.600,126.940
300,52713.402000,256.000,85.333,41.984,485.558,-218.212,60.483,-699.780,-242.600,195.940
301,52713.439000,254.035,84.329,51.200,483.467,-231.336,46.275,-635.780,-303.600,245.940
302,52713.449000,239.294,58.227,50.176,478.631,-238.007,36.180,-574.780,-324.600,323.940
303,52713.475000,245.190,19.075,33.792,470.954,-243.975,17.144,-699.780,-415.600,429.940
304,52713.517000,306.119,-9.035,23.552,459.337,-261.804,2.822,-399.780,-229.600,603.940
305,52713.554000,256.000,-76.298,61.440,450.639,-274.821,-1.446,-109.780,-171.600,602.940
306,52713.593000,300.223,-58.227,78.848,441.015,-286.836,-0.722,-16.780,-89.600,509.940
307,52713.635000,269.758,-69.271,95.232,435.241,-294.201,1.102,198.220,130.400,271.940
308,52713.675000,242.242,-72.282,72.704,432.322,-300.554,5.936,261.220,1.400,165.940
309,52713.692000,232.415,-71.278,59.392,429.498,-300.416,14.886,588.220,111.400,85.940
310,52713.737000,206.864,-63.247,71.680,428.555,-301.929,31.762,768.220,177.400,52.940
311,52713.782000,204.898,-60.235,66.560,422.817,-308.104,47.536,972.220,106.400,104.940
312,52713.820000,199.985,-56.220,60.416,420.973,-306.784,69.443,1186.220,91.400,118.940
313,52713.853000,224.553,-46.180,30.720,420.107,-302.781,87.431,1341.220,153.400,160.940
314,52713.893000,254.035,-24.094,63.488,418.241,-304.033,118.235,1236.220,295.400,79.940
315,52713.918000,262.879,-15.059,95.232,413.707,-291.776,139.377,1051.220,340.400,-20.060
316,52713.953000,261.896,-24.094,91.136,412.839,-287.792,156.369,751.220,223.400,-48.060
317,52713.997000,256.000,-14.055,89.088,411.004,-284.834,168.365,552.220,177.400,-142.060
318,52714.37000,243.225,-15.059,82.944,412.986,-279.137,177.441,451.220,240.400,-158.060
319,52714.77000,243.225,-12.047,80.896,415.922,-273.349,190.498,363.220,172.400,-166.060
320,52714.113000,247.155,-10.039,82.944,415.062,-267.728,197.579,303.220,226.400,-167.060
321,52714.154000,237.328,-9.035,98.304,419.009,-256.548,204.786,170.220,242.400,-161.060
322,52714.174000,223.570,-14.055,106.496,419.013,-257.269,214.717,259.220,233.400,-150.060
323,52714.214000,212.760,-9.035,104.448,416.195,-256.293,219.706,176.220,200.400,-139.060
324,52714.254000,205.881,-14.055,94.208,414.480,-244.232,228.912,296.220,253.400,-59.060
325,52714.295000,174.434,-21.082,111.616,413.631,-238.494,241.963,415.220,299.400,-82.060
326,52714.335000,152.814,-17.067,93.184,412.724,-236.499,250.956,466.220,134.400,-114.060
327,52714.375000,237.328,25.098,76.800,415.719,-226.169,262.122,487.220,276.400,-206.060
328,52714.395000,297.274,82.322,155.648,410.230,-214.022,278.286,295.220,617.400,-354.060
329,52714.434000,267.793,74.290,186.368,407.476,-208.446,284.369,357.220,390.400,-329.060
330,52714.473000,249.121,75.294,152.576,412.473,-189.885,293.723,299.220,27.400,-131.060
331,52714.517000,236.345,55.216,100.352,414.333,-192.550,296.653,86.220,196.400,-59.060
332,52714.563000,213.743,33.129,96.256,409.749,-182.418,302.829,181.220,160.400,-25.060
333,52714.598000,200.967,41.161,88.064,410.760,-178.565,311.865,297.220,190.400,-85.060
334,52714.633000,197.036,58.227,83.968,407.982,-174.821,317.908,353.220,198.400,-151.060
335,52714.654000,195.071,77.302,123.904,405.320,-162.773,327.112,452.220,256.400,-193.060
336,52714.702000,198.019,78.306,128.000,406.460,-149.720,338.333,552.220,266.400,-163.060
337,52714.733000,194.088,92.361,137.216,399.956,-142.244,350.418,581.220,304.400,-149.060
338,52714.773000,191.140,98.384,151.552,396.385,-127.461,359.679,579.220,358.400,-64.060
339,52714.832000,186.226,99.388,143.360,395.592,-117.220,368.847,604.220,283.400,1.940
340,52714.859000,182.296,104.408,153.600,389.048,-112.512,379.879,541.220,232.400,65.940
341,52714.890000,182.296,118.463,152.576,385.411,-102.368,386.057,504.220,137.400,91.940
342,52714.918000,186.226,120.471,138.240,380.784,-95.042,389.190,388.220,11.400,106.940
343,52714.978000,189.175,113.443,140.288,380.825,-92.255,391.239,194.220,11.400,148.940
344,52715.15000,188.192,103.404,146.432,383.639,-94.050,391.205,53.220,-9.600,185.940
345,52715.37000,179.347,94.369,136.192,386.412,-98.632,389.122,-20.780,-114.600,176.940
346,52715.73000,185.244,92.361,137.216,383.441,-107.909,384.942,-102.780,-115.600,141.940
347,52715.113000,185.244,89.349,142.336,387.195,-109.769,380.929,-159.780,-107.600,112.940
348,52715.133000,183.278,88.345,139.264,388.915,-121.771,374.708,-157.780,-108.600,77.940
349,52715.174000,172.468,84.329,126.976,389.855,-121.837,370.730,-164.780,-133.600,67.940
350,52715.218000,176.399,83.325,111.616,391.766,-120.057,366.792,-201.780,-60.600,49.940
351,52715.255000,191.140,84.329,110.592,392.578,-129.304,361.623,-318.780,50.400,21.940
352,52715.295000,184.261,78.306,107.520,385.002,-130.242,365.571,-316.780,112.400,18.940
353,52715.335000,211.777,82.322,104.448,382.064,-136.829,358.464,-531.780,226.400,1.940
354,52715.355000,214.726,45.176,128.000,379.039,-150.589,359.161,-657.780,244.400,53.940
355,52715.407000,235.363,28.110,133.120,371.320,-161.663,359.909,-642.780,304.400,162.940
356,52715.435000,286.464,13.051,161.792,363.568,-174.667,355.642,-464.780,396.400,267.940
357,52715.477000,292.361,3.012,182.272,352.048,-187.526,361.319,-266.780,308.400,269.940
358,52715.517000,283.516,5.020,168.960,351.974,-193.003,362.197,-23.780,49.400,195.940
359,52715.563000,244.207,11.043,129.024,351.006,-194.809,364.146,197.220,-13.600,192.940
360,52715.598000,202.933,10.039,90.112,353.823,-196.564,366.102,277.220,-121.600,194.940
361,52715.617000,189.175,8.031,81.920,351.044,-192.060,364.205,346.220,-208.600,206.940
362,52715.662000,178.365,1.004,69.632,351.983,-192.126,360.226,310.220,-235.600,213.940
363,52715.697000,200.967,4.016,69.632,349.243,-184.854,359.382,254.220,-224.600,210.940
364,52715.737000,235.363,2.008,83.968,356.813,-184.754,359.396,166.220,-214.600,161.940
365,52715.784000,262.879,8.031,110.592,354.855,-189.399,357.305,138.220,-152.600,118.940
366,52715.834000,284.499,8.031,116.736,356.749,-189.354,358.303,8.220,-200.600,53.940
367,52715.853000,282.534,11.043,115.712,365.315,-184.817,350.455,-173.780,-225.600,-34.060
368,52715.878000,249.121,5.020,104.448,368.909,-198.548,348.179,-201.780,-290.600,-101.060
369,52715.914000,213.743,5.020,92.160,374.685,-190.403,339.409,-164.780,-328.600,-132.060
370,52715.960000,219.639,4.016,91.136,383.142,-194.073,333.376,19.220,-260.600,-112.060
371,52715.997000,225.536,23.090,115.712,385.102,-189.408,336.462,205.220,-158.600,-110.060
372,52716.34000,209.812,50.196,126.976,387.043,-185.738,335.548,181.220,-131.600,-172.060
373,52716.78000,210.795,60.235,116.736,391.876,-178.327,336.708,134.220,-127.600,-186.060
374,52716.98000,217.674,63.247,116.736,392.017,-168.211,338.912,295.220,41.400,-170.060
375,52716.138000,226.518,77.302,135.168,389.329,-158.015,347.083,383.220,144.400,-146.060
376,52716.178000,222.587,85.333,137.216,390.358,-152.408,352.177,257.220,97.400,-93.060
377,52716.218000,210.795,72.282,128.000,387.535,-151.490,354.181,132.220,54.400,-75.060
378,52716.258000,203.916,71.278,118.784,389.530,-144.117,355.336,93.220,25.400,-89.060
379,52716.294000,199.002,79.310,117.760,387.529,-152.328,358.142,-25.780,-15.600,-147.060
380,52716.314000,192.123,79.310,117.760,389.558,-142.245,357.365,-143.780,-76.600,-179.060
381,52716.359000,188.192,89.349,125.952,395.122,-149.655,349.258,-301.780,-84.600,-247.060
382,52716.403000,174.434,91.357,133.120,394.101,-155.165,349.140,-546.780,-132.600,-272.060
383,52716.438000,165.589,95.373,132.096,395.997,-153.561,336.246,-767.780,-218.600,-272.060
384,52716.478000,150.848,88.345,112.640,405.294,-163.845,319.132,-1069.780,-453.600,-221.060
385,52716.518000,179.347,58.227,75.776,415.467,-178.795,296.947,-1152.780,-544.600,-125.060
386,52716.557000,242.242,49.192,88.064,417.075,-197.503,275.664,-1341.780,-268.600,-46.060
387,52716.579000,292.361,-20.078,152.576,413.153,-206.851,268.497,-928.780,45.400,85.940
388,52716.615000,281.551,-8.031,186.368,410.113,-220.786,260.239,-418.780,-130.600,107.940
389,52716.657000,261.896,0.000,146.432,412.919,-222.679,255.229,-199.780,-195.600,118.940
390,52716.697000,237.328,9.035,112.640,415.683,-227.359,248.171,62.220,-172.600,93.940
391,52716.739000,207.846,4.016,108.544,411.905,-227.330,252.145,256.220,-153.600,78.940
392,52716.779000,194.088,0.000,101.376,416.638,-227.248,253.148,364.220,-121.600,118.940
393,52716.799000,192.123,-1.004,96.256,415.782,-220.809,255.273,424.220,-62.600,176.940
394,52716.839000,201.950,-2.008,94.208,411.971,-223.471,262.173,503.220,32.400,244.940
395,52716.885000,212.760,-3.012,92.160,408.189,-224.261,271.103,554.220,152.400,266.940
396,52716.917000,217.674,0.000,96.256,406.316,-224.052,283.040,601.220,233.400,221.940
397,52716.957000,257.965,16.063,116.736,392.317,-211.940,303.170,697.220,552.400,103.940
398,52716.997000,241.259,58.227,138.240,393.423,-201.596,316.322,758.220,534.400,24.940
399,52717.37000,225.536,69.271,124.928,389.764,-194.005,332.392,794.220,358.400,42.940
400,52717.55000,220.622,70.275,102.400,380.579,-175.475,349.682,566.220,482.400,5.940
401,52717.98000,211.777,67.263,118.784,371.203,-169.967,356.748,391.220,442.400,-28.060
402,52717.142000,202.933,70.275,138.240,365.597,-166.124,369.752,162.220,342.400,-63.060
403,52717.178000,209.812,76.298,133.120,363.745,-163.361,371.797,57.220,221.400,-79.060
404,52717.219000,207.846,72.282,132.096,358.931,-169.778,374.637,-129.780,156.400,-112.060
405,52717.265000,204.898,70.275,134.144,360.827,-169.714,376.630,-266.780,84.400,-151.060
406,52717.303000,202.933,70.275,125.952,366.525,-167.865,373.694,-402.780,53.400,-191.060
407,52717.317000,205.881,66.259,121.856,366.399,-176.267,365.558,-623.780,51.400,-299.060
408,52717.357000,199.002,66.259,124.928,366.278,-184.609,360.407,-614.780,5.400,-343.060
409,52717.404000,199.985,76.298,117.760,368.232,-179.244,352.567,-709.780,-12.600,-379.060
410,52717.439000,201.950,79.310,120.832,374.659,-193.015,346.316,-898.780,7.400,-419.060
411,52717.485000,206.864,75.294,118.784,375.585,-193.237,334.377,-1017.780,32.400,-418.060
412,52717.529000,206.864,70.275,119.808,380.116,-207.073,326.132,-1150.780,82.400,-388.060
413,52717.538000,218.656,62.243,131.072,380.807,-223.902,307.871,-1361.780,153.400,-348.060
414,52717.579000,209.812,31.122,131.072,377.827,-233.296,297.721,-1472.780,131.400,-252.060
415,52717.615000,204.898,1.004,145.408,374.738,-250.116,282.439,-1465.780,190.400,-135.060
416,52717.657000,209.812,-35.137,171.008,373.516,-268.744,267.121,-1338.780,265.400,-63.060
417,52717.697000,193.106,-52.204,205.824,370.472,-282.738,255.877,-1192.780,289.400,-36.060
418,52717.737000,187.209,-52.204,205.824,367.407,-298.506,247.580,-750.780,192.400,-45.060
419,52717.777000,166.572,-38.149,190.464,367.400,-298.584,243.600,-538.780,101.400,-64.060
420,52717.797000,163.624,-35.137,178.176,367.378,-299.618,237.610,-377.780,-12.600,-64.060
421,52717.839000,169.520,-40.157,176.128,370.192,-300.633,230.630,-257.780,-96.600,-23.060
422,52717.877000,172.468,-49.192,182.272,369.208,-302.634,222.629,-158.780,-125.600,58.940
423,52717.917000,176.399,-48.188,179.200,369.178,-304.525,219.605,-7.780,-157.600,120.940
424,52717.957000,176.399,-45.176,175.104,364.421,-306.419,219.558,82.220,-181.600,141.940
425,52717.998000,175.417,-48.188,178.176,368.114,-312.841,216.442,135.220,-184.600,143.940
426,52718.18000,173.451,-46.180,180.224,371.910,-311.894,215.474,131.220,-212.600,128.940
427,52718.57000,178.365,-52.204,177.152,371.873,-314.643,215.415,110.220,-212.600,100.940
428,52718.97000,183.278,-52.204,177.152,374.816,-306.458,210.620,71.220,-208.600,27.940
429,52718.139000,176.399,-54.212,171.008,375.699,-311.026,210.524,25.220,-229.600,-46.060
430,52718.177000,178.365,-58.227,158.720,382.429,-302.771,206.732,17.220,-236.600,-115.060
431,52718.217000,175.417,-58.227,151.552,387.204,-299.122,202.838,27.220,-220.600,-213.060
432,52718.268000,177.382,-64.251,144.384,399.596,-291.748,197.045,80.220,-151.600,-281.060
433,52718.278000,174.434,-58.227,132.096,404.345,-290.710,200.058,293.220,-41.600,-349.060
434,52718.318000,186.226,-48.188,116.736,413.202,-266.603,209.536,435.220,20.400,-403.060
435,52718.362000,211.777,1.004,121.856,415.189,-260.087,213.656,586.220,179.400,-461.060
436,52718.402000,247.155,84.329,144.384,420.242,-237.783,227.069,612.220,258.400,-590.060
437,52718.465000,253.052,114.447,161.792,428.154,-213.669,237.540,421.220,202.400,-608.060
438,52718.482000,263.862,129.506,147.456,432.077,-203.541,237.761,57.220,28.400,-400.060
439,52718.497000,273.689,114.447,145.408,435.032,-195.219,239.932,-97.780,-24.600,-223.060
440,52718.563000,259.931,104.408,141.312,440.716,-194.306,235.981,-45.780,-115.600,-35.060
441,52718.597000,232.415,92.361,108.544,438.781,-197.138,232.934,110.220,-264.600,142.940
442,52718.620000,203.916,83.325,84.992,440.612,-200.915,225.894,81.220,-319.600,166.940
443,52718.663000,195.071,82.322,76.800,443.421,-201.988,215.929,-32.780,-369.600,144.940
444,52718.699000,189.175,75.294,67.584,441.353,-214.079,207.712,-272.780,-401.600,148.940
445,52718.739000,193.106,65.255,68.608,445.065,-217.967,193.710,-414.780,-405.600,139.940
446,52718.759000,201.950,59.231,66.560,447.805,-223.699,179.667,-490.780,-442.600,163.940
447,52718.805000,224.553,62.243,73.728,446.653,-237.669,168.427,-455.780,-346.600,190.940
448,52718.845000,230.449,63.247,92.160,437.976,-248.132,154.266,-410.780,-306.600,260.940
449,52718.882000,258.948,47.184,79.872,436.870,-258.476,141.114,-354.780,-359.600,416.940
450,52718.917000,306.119,39.153,95.232,428.209,-268.744,136.904,-188.780,-106.600,511.940
451,52718.968000,261.896,-34.133,128.000,421.447,-278.909,136.678,128.220,-36.600,725.940
452,52718.978000,262.879,-30.118,144.384,410.851,-292.788,136.367,364.220,-52.600,668.940
453,52719.23000,237.328,-58.227,144.384,396.452,-309.212,148.926,524.220,-2.600,611.940
454,52719.60000,213.743,-52.204,122.880,388.861,-311.866,158.805,607.220,-37.600,471.940
455,52719.99000,201.950,-66.259,125.952,382.138,-320.042,166.578,588.220,-23.600,385.940
456,52719.139000,200.967,-68.267,129.024,370.792,-320.075,172.528,438.220,-0.600,320.940
457,52719.178000,202.933,-66.259,139.264,370.765,-322.706,178.440,365.220,16.400,220.940
458,52719.219000,207.846,-62.243,144.384,365.027,-328.102,187.269,336.220,34.400,112.940
459,52719.238000,202.933,-58.227,147.456,364.164,-322.521,192.359,250.220,42.400,24.940
460,52719.278000,196.054,-58.227,141.312,356.511,-328.975,195.195,212.220,30.400,-24.060
461,52719.318000,198.019,-54.212,137.216,359.480,-319.718,198.380,140.220,7.400,-66.060
462,52719.360000,199.002,-51.200,136.192,363.332,-315.028,201.469,158.220,-27.600,-109.060
463,52719.399000,204.898,-48.188,140.288,366.170,-315.010,200.479,121.220,-64.600,-155.060
464,52719.447000,211.777,-39.153,140.288,369.009,-314.973,200.484,174.220,-88.600,-201.060
465,52719.480000,220.622,-38.149,142.336,373.899,-303.819,205.702,124.220,-63.600,-204.060
466,52719.508000,218.656,-34.133,147.456,376.698,-306.550,204.653,123.220,-68.600,-224.060
467,52719.543000,209.812,-31.122,134.144,378.691,-299.196,204.813,208.220,-128.600,-201.060
468,52719.578000,204.898,-31.122,134.144,385.458,-288.972,208.024,213.220,-93.600,-163.060
469,52719.622000,194.088,-30.118,132.096,389.325,-283.347,212.128,354.220,-122.600,-137.060
470,52719.659000,182.296,-29.114,111.616,391.316,-276.773,219.234,525.220,-145.600,-100.060
471,52719.699000,182.296,-26.102,97.280,398.998,-268.447,218.428,512.220,-158.600,-70.060
472,52719.719000,160.676,-20.078,99.328,399.036,-266.458,226.427,524.220,-260.600,-98.060
473,52719.765000,325.773,42.165,94.208,402.955,-257.150,231.604,622.220,94.400,-258.060
474,52719.813000,236.345,48.188,166.912,406.951,-242.305,238.888,514.220,56.400,-372.060
475,52719.843000,268.775,47.184,149.504,415.559,-235.740,241.030,309.220,-62.600,-340.060
476,52719.882000,234.380,56.220,117.760,419.553,-220.155,239.379,64.220,-210.600,-264.060
477,52719.928000,226.518,47.184,112.640,426.143,-222.777,241.322,97.220,21.400,-190.060
478,52719.959000,214.726,47.184,119.808,429.089,-215.332,245.463,186.220,-4.600,-207.060
479,52719.980000,204.898,57.224,107.520,431.107,-206.146,245.662,165.220,-108.600,-268.060
480,52720.22000,205.881,66.259,99.328,437.863,-196.040,242.903,10.220,-115.600,-362.060
481,52720.67000,203.916,66.259,100.352,445.490,-191.437,239.033,-18.780,-95.600,-397.060
482,52720.102000,212.760,81.318,94.208,449.373,-184.077,238.201,-26.780,-145.600,-390.060
483,52720.143000,209.812,87.341,90.112,456.114,-174.926,233.433,-121.780,-125.600,-365.060
484,52720.178000,211.777,90.353,89.088,458.080,-169.424,232.558,-185.780,-109.600,-319.060
485,52720.203000,219.639,88.345,92.160,463.821,-163.989,225.720,-296.780,-60.600,-215.060
486,52720.238000,230.449,75.294,98.304,465.606,-171.390,220.592,-346.780,-12.600,-104.060
487,52720.279000,225.536,63.247,95.232,465.641,-168.661,219.655,-224.780,-3.600,44.940
488,52720.327000,231.432,57.224,93.184,463.688,-173.248,220.549,-62.780,66.400,141.940
489,52720.362000,250.104,33.129,100.352,459.884,-175.052,224.484,58.220,223.400,246.940
490,52720.417000,247.155,15.059,108.544,451.283,-182.318,233.268,426.220,312.400,360.940
491,52720.438000,237.328,9.035,96.256,444.708,-180.280,248.221,764.220,360.400,402.940
492,52720.477000,229.466,13.051,83.968,432.432,-180.910,271.067,1118.220,449.400,404.940
493,52720.504000,220.622,23.090,86.016,425.157,-162.160,298.310,1538.220,580.400,355.940
494,52720.562000,206.864,32.125,93.184,414.967,-148.185,317.491,1817.220,586.400,286.940
495,52720.583000,203.916,68.267,104.448,406.757,-128.532,344.752,2039.220,565.400,186.940
496,52720.619000,188.192,104.408,113.664,396.888,-91.556,369.396,2086.220,523.400,85.940
497,52720.672000,178.365,141.553,138.240,383.242,-53.752,392.062,1937.220,514.400,-18.060
498,52720.682000,184.261,156.612,152.576,378.056,-18.819,402.744,1602.220,485.400,-11.060
499,52720.722000,178.365,149.584,139.264,368.963,6.942,415.215,1400.220,385.400,63.940
500,52720.760000,182.296,151.592,131.072,365.372,20.712,419.481,1193.220,243.400,157.940
501,52720.800000,186.226,154.604,118.784,361.810,37.133,418.830,932.220,143.400,225.940
502,52720.847000,186.226,158.620,109.568,360.903,39.888,419.882,600.220,25.400,229.940
503,52720.879000,188.192,149.584,101.376,362.830,42.622,417.954,215.220,-110.600,226.940
504,52720.927000,186.226,138.541,99.328,369.508,47.193,413.088,27.220,-163.600,228.940
505,52720.943000,186.226,132.518,98.304,373.194,39.914,412.939,-136.780,-209.600,209.940
506,52720.983000,187.209,129.506,97.280,377.740,27.033,406.703,-204.780,-230.600,202.940
507,52721.28000,187.209,125.490,99.328,383.297,18.766,401.562,-193.780,-196.600,205.940
508,52721.63000,190.157,127.498,99.328,387.082,18.816,401.569,-164.780,-170.600,192.940
509,52721.102000,187.209,129.506,89.088,387.883,8.653,396.381,-193.780,-183.600,195.940
510,52721.144000,182.296,129.506,79.872,392.534,3.160,393.287,-186.780,-137.600,204.940
511,52721.180000,173.451,126.494,69.632,398.056,-7.836,389.083,-375.780,-102.600,251.940
512,52721.199000,177.382,118.463,65.536,394.001,-27.203,384.686,-606.780,-32.600,283.940
513,52721.240000,176.399,108.424,72.704,392.839,-42.829,382.362,-882.780,68.400,322.940
514,52721.280000,228.484,81.318,54.272,390.493,-75.874,379.666,-971.780,154.400,333.940
515,52721.322000,253.052,11.043,83.968,382.641,-96.207,375.243,-951.780,224.400,534.940
516,52721.362000,321.843,-12.047,96.256,377.734,-109.095,374.962,-687.780,294.400,522.940
517,52721.400000,353.290,-16.063,119.808,368.892,-133.027,374.439,-504.780,317.400,426.940
518,52721.429000,327.739,-15.059,124.928,362.184,-139.489,376.281,-391.780,160.400,195.940
519,52721.463000,315.946,-11.043,98.304,360.188,-146.882,374.132,-265.780,-28.600,115.940
520,52721.508000,257.965,-19.075,73.728,360.979,-157.921,370.914,-222.780,-75.600,81.940
521,52721.547000,213.743,-10.039,55.296,357.166,-159.843,368.878,-112.780,-42.600,49.940
522,52721.584000,185.244,-9.035,51.200,361.001,-156.128,368.963,-80.780,-60.600,30.940
523,52721.628000,185.244,-9.035,41.984,360.934,-160.767,365.880,-81.780,-110.600,-5.060
524,52721.663000,206.864,-15.059,50.176,361.780,-168.084,365.726,-62.780,-17.600,-31.060
525,52721.699000,225.536,-21.082,64.512,363.685,-167.143,365.748,-37.780,14.400,-57.060
526,52721.722000,238.311,-17.067,67.584,362.784,-163.549,362.840,7.220,-73.600,-165.060
527,52721.773000,264.845,-12.047,66.560,364.801,-154.363,363.038,7.220,-106.600,-171.060
528,52721.802000,275.655,-10.039,90.112,369.592,-149.759,361.154,-79.780,-83.600,-228.060
529,52721.842000,283.516,4.016,96.256,371.494,-148.857,359.187,-41.780,-146.600,-348.060
530,52721.880000,263.862,22.086,116.736,380.143,-138.725,356.431,-98.780,-141.600,-409.060
531,52721.900000,254.035,38.149,119.808,385.800,-139.664,351.446,-236.780,-155.600,-443.060
532,52721.947000,240.276,48.188,128.000,390.528,-139.640,349.465,-68.780,-47.600,-451.060
533,52721.987000,208.829,62.243,114.688,397.392,-122.127,350.842,-80.780,-103.600,-448.060
534,52722.23000,206.864,84.329,114.688,402.252,-112.864,353.036,31.220,74.400,-451.060
535,52722.63000,202.933,105.412,123.904,395.636,-112.854,357.999,132.220,143.400,-440.060
536,52722.119000,199.002,110.431,125.952,397.719,-99.048,360.286,107.220,125.400,-348.060
537,52722.142000,187.209,102.400,118.784,400.643,-93.397,366.378,-21.780,109.400,-296.060
538,52722.167000,179.347,97.380,118.784,395.987,-87.962,366.487,-36.780,69.400,-226.060
539,52722.203000,181.313,105.412,120.832,397.920,-85.150,368.539,-104.780,-16.600,-158.060
540,52722.243000,188.192,101.396,114.688,395.915,-93.420,368.360,-187.780,13.400,-109.060
541,52722.282000,196.054,103.404,123.904,402.598,-88.791,366.479,-256.780,-0.600,-85.060
542,52722.327000,203.916,104.408,136.192,400.645,-93.377,367.373,-298.780,-8.600,-95.060
543,52722.367000,205.881,109.427,140.288,402.436,-100.701,366.225,-271.780,-37.600,-103.060
544,52722.387000,202.933,103.404,135.168,397.646,-104.525,361.164,-265.780,-103.600,-49.060
545,52722.425000,199.985,97.380,133.120,402.321,-108.205,357.114,-346.780,-149.600,-25.060
546,52722.462000,194.088,93.365,123.904,403.129,-117.510,348.960,-392.780,-211.600,-14.060
547,52722.500000,198.019,87.341,108.544,411.623,-118.431,342.985,-424.780,-286.600,-1.060
548,52722.548000,199.985,85.333,105.472,415.356,-121.305,333.977,-522.780,-288.600,-12.060
549,52722.583000,195.071,84.329,106.496,414.168,-138.003,323.674,-470.780,-335.600,-16.060
550,52722.624000,202.933,80.314,104.448,420.800,-136.278,313.774,-466.780,-317.600,-3.060
551,52722.643000,204.898,79.310,105.472,426.308,-147.431,301.609,-456.780,-297.600,5.940
552,52722.683000,203.916,76.298,96.256,430.019,-152.099,294.553,-432.780,-352.600,69.940
553,52722.724000,240.276,78.306,92.160,429.842,-164.184,285.344,-481.780,-222.600,71.940
554,52722.769000,253.052,72.282,114.688,432.603,-168.903,276.296,-478.780,-206.600,97.940
555,52722.822000,233.397,58.227,100.352,426.859,-172.837,266.257,-312.780,-253.600,171.940
556,52722.855000,259.931,47.184,92.160,428.554,-186.672,259.997,-375.780,-180.600,257.940
557,52722.863000,256.000,30.118,103.424,424.548,-202.393,254.684,-293.780,-102.600,361.940
558,52722.903000,242.242,16.063,98.304,421.554,-213.483,251.459,-162.780,-142.600,394.940
559,52722.943000,220.622,15.059,81.920,415.846,-215.449,248.425,-25.780,-147.600,379.940
560,52722.984000,206.864,5.020,81.920,417.548,-229.205,246.145,-0.780,-82.600,406.940
561,52723.32000,200.967,-4.016,82.944,408.968,-233.898,246.033,132.220,-56.600,440.940
562,52723.64000,200.967,-10.039,84.992,402.210,-244.024,247.797,330.220,-33.600,440.940
563,52723.125000,227.501,-9.035,89.088,397.465,-245.782,254.715,298.220,47.400,398.940
564,52723.132000,261.896,-5.020,102.400,394.563,-251.180,261.558,381.220,246.400,359.940
565,52723.168000,247.155,4.016,133.120,386.108,-247.491,268.586,381.220,112.400,290.940
566,52723.203000,252.069,21.082,113.664,378.461,-253.868,275.402,201.220,85.400,252.940
567,52723.243000,229.466,17.067,99.328,378.516,-250.144,278.465,11.220,15.400,142.940
568,52723.284000,226.518,15.059,84.992,373.731,-253.911,276.389,-124.780,28.400,71.940
569,52723.325000,231.432,13.051,81.920,375.497,-263.066,275.202,-261.780,55.400,33.940
570,52723.345000,229.466,7.027,89.088,372.622,-265.073,268.192,-416.780,25.400,25.940
571,52723.381000,228.484,5.020,90.112,372.503,-273.396,264.036,-601.780,-6.600,-23.060
572,52723.428000,232.415,1.004,83.968,373.393,-276.347,253.034,-772.780,-4.600,-71.060
573,52723.463000,235.363,1.004,86.016,377.890,-291.352,231.834,-1006.780,26.400,-98.060
574,52723.508000,235.363,-8.031,96.256,375.859,-300.694,223.675,-1193.780,-42.600,-107.060
575,52723.543000,236.345,-13.051,88.064,375.774,-304.769,202.701,-1359.780,-44.600,-111.060
576,52723.585000,232.415,-20.078,96.256,382.237,-313.493,173.680,-1519.780,-48.600,-168.060
577,52723.603000,231.432,-24.094,88.064,382.069,-323.161,147.613,-1585.780,-65.600,-177.060
578,52723.642000,224.553,-41.161,83.968,388.557,-330.053,118.632,-1630.780,-77.600,-174.060
579,52723.687000,226.518,-61.239,93.184,391.128,-347.013,92.414,-1628.780,31.400,-211.060
580,52723.722000,225.536,-72.282,106.496,390.237,-340.983,73.643,-1326.780,40.400,-158.060
581,52723.767000,227.501,-66.259,109.568,391.272,-332.239,51.949,-1312.780,-54.600,-106.060
582,52723.803000,227.501,-65.255,110.592,395.831,-342.664,30.846,-1175.780,-93.600,-72.060
583,52723.843000,227.501,-64.251,106.496,398.702,-337.637,5.097,-1004.780,-175.600,-115.060
584,52723.865000,227.501,-67.263,98.304,401.573,-333.370,-12.712,-841.780,-243.600,-127.060
585,52723.907000,229.466,-74.290,88.064,399.682,-331.836,-26.607,-667.780,-266.600,-139.060
586,52723.942000,227.501,-77.302,80.896,405.360,-330.221,-41.483,-491.780,-315.600,-142.060
587,52723.984000,227.501,-79.310,73.728,405.392,-326.772,-52.351,-366.780,-288.600,-136.060
588,52724.22000,226.518,-88.345,73.728,405.395,-325.193,-65.248,-259.780,-201.600,-103.060
589,52724.63000,230.449,-89.349,69.632,413.109,-314.177,-68.980,-87.780,-183.600,-60.060
590,52724.83000,224.553,-83.325,71.680,414.014,-316.952,-71.027,-3.780,-163.600,-20.060
591,52724.125000,216.691,-88.345,67.584,414.022,-316.095,-73.993,100.220,-219.600,-16.060
592,52724.165000,211.777,-95.373,61.440,414.042,-314.321,-76.939,195.220,-194.600,-25.060
593,52724.205000,209.812,-100.392,61.440,415.941,-314.218,-72.956,298.220,-124.600,-46.060
594,52724.245000,203.916,-102.400,59.392,419.745,-313.174,-68.949,434.220,-80.600,-65.060
595,52724.285000,199.985,-97.380,63.488,422.618,-311.206,-63.930,457.220,-9.600,-110.060
596,52724.325000,219.639,-92.361,53.248,430.228,-309.099,-54.922,558.220,113.400,-181.060
597,52724.344000,253.052,-80.314,53.248,436.951,-303.241,-40.862,584.220,243.400,-301.060
598,52724.387000,253.052,-36.141,65.536,446.612,-290.017,-26.642,610.220,368.400,-507.060
599,52724.427000,258.948,-3.012,51.200,456.349,-272.056,-4.363,742.220,274.400,-636.060
600,52724.480000,278.603,39.153,56.320,470.833,-252.317,11.993,787.220,328.400,-715.060
601,52724.503000,287.447,80.314,81.920,478.597,-239.177,23.225,656.220,562.400,-801.060
602,52724.543000,290.395,83.325,81.920,490.204,-223.004,46.463,644.220,454.400,-686.060
603,52724.564000,295.309,112.439,73.728,497.124,-202.508,59.840,575.220,411.400,-472.060
604,52724.605000,261.896,120.471,80.896,502.926,-194.830,73.936,375.220,288.400,-317.060
605,52724.644000,225.536,100.392,46.080,500.199,-186.623,74.107,212.220,-26.600,-135.060
606,52724.684000,201.950,98.384,17.408,499.287,-183.926,72.174,79.220,-213.600,-73.060
607,52724.724000,199.002,98.384,4.096,502.130,-183.070,67.223,65.220,-284.600,-6.060
608,52724.764000,204.898,96.376,6.144,503.920,-189.633,58.134,-3.780,-293.600,55.940
609,52724.803000,217.674,95.373,17.408,504.819,-192.486,52.107,-99.780,-246.600,134.940
610,52724.824000,224.553,90.353,32.768,502.776,-202.745,43.929,-165.780,-250.600,194.940
611,52724.867000,237.328,82.322,31.744,497.033,-206.660,34.885,-296.780,-398.600,317.940
612,52724.907000,244.207,80.314,36.864,495.063,-211.441,25.829,-199.780,-206.600,343.940
613,52724.943000,238.311,68.267,25.600,489.170,-226.350,16.551,-287.780,-293.600,452.940
614,52724.985000,248.138,65.255,16.384,480.525,-235.663,14.351,-5.780,-174.600,479.940
615,52725.28000,275.655,44.173,26.624,465.171,-251.437,13.992,111.220,-18.600,568.940
616,52725.43000,278.603,9.035,64.512,454.524,-268.981,13.603,96.220,-45.600,606.940
617,52725.88000,283.516,-20.078,67.584,450.569,-281.799,16.308,367.220,65.400,590.940
618,52725.125000,294.326,-38.149,93.184,442.900,-290.748,32.021,416.220,208.400,541.940
619,52725.163000,273.689,-59.231,99.328,431.272,-311.793,40.507,419.220,174.400,382.940
620,52725.208000,238.311,-65.255,90.112,423.795,-306.182,51.557,475.220,96.400,264.940
621,52725.248000,232.415,-63.247,80.896,417.985,-317.036,62.258,433.220,119.400,192.940
622,52725.287000,223.570,-62.243,89.088,416.103,-316.943,68.225,170.220,306.400,182.940
623,52725.307000,209.812,-69.271,104.448,411.263,-325.972,77.972,-14.780,264.400,148.940
624,52725.358000,199.002,-66.259,84.992,406.536,-325.976,80.949,128.220,112.400,116.940
625,52725.385000,201.950,-62.243,80.896,401.704,-334.147,87.730,314.220,115.400,98.940
626,52725.424000,216.691,-64.251,88.064,399.920,-327.506,100.799,468.220,142.400,104.940
627,52725.465000,222.587,-66.259,100.352,393.238,-332.895,110.621,573.220,180.400,88.940
628,52725.506000,233.397,-69.271,113.664,392.310,-332.693,121.565,622.220,126.400,65.940
629,52725.529000,241.259,-67.263,128.000,394.362,-322.336,134.719,577.220,169.400,-8.060
630,52725.565000,238.311,-54.212,129.024,392.481,-322.985,149.622,490.220,88.400,-91.060
631,52725.605000,235.363,-51.200,119.808,392.556,-319.027,164.626,648.220,209.400,-61.060
632,52725.645000,204.898,-57.224,125.952,392.742,-306.844,178.810,625.220,148.400,-57.060
633,52725.687000,202.933,-48.188,93.184,392.821,-302.069,188.858,814.220,184.400,-19.060
634,52725.727000,176.399,-49.192,98.304,388.232,-293.535,206.937,886.220,181.400,43.940
635,52725.767000,164.607,-45.176,69.632,390.248,-285.907,221.027,1047.220,-34.600,35.940
636,52725.787000,189.175,-32.125,78.848,390.432,-274.523,241.162,1101.220,19.400,-3.060
637,52725.827000,337.566,18.071,86.016,392.478,-265.005,258.277,1118.220,384.400,-114.060
638,52725.865000,218.656,48.188,146.432,390.827,-249.105,276.516,1117.220,125.400,-259.060
639,52725.908000,261.896,63.247,116.736,393.049,-225.981,286.958,1024.220,82.400,-325.060
640,52725.945000,234.380,71.278,106.496,398.120,-202.703,303.375,1019.220,117.400,-305.060
641,52725.985000,231.432,79.310,102.400,402.087,-189.749,307.635,617.220,0.400,-326.060
642,52726.15000,220.622,74.290,95.232,404.188,-174.969,312.926,313.220,-95.600,-262.060
643,52726.48000,210.795,77.302,86.016,411.878,-165.766,310.149,89.220,-177.600,-281.060
644,52726.85000,206.864,85.333,83.968,416.625,-163.988,304.226,-40.780,-213.600,-290.060
645,52726.124000,202.933,96.376,80.896,420.394,-164.893,302.223,-248.780,-277.600,-320.060
646,52726.164000,202.933,102.400,75.776,429.002,-156.789,289.478,-454.780,-341.600,-329.060
647,52726.204000,198.019,95.373,60.416,439.222,-168.874,273.322,-635.780,-411.600,-330.060
648,52726.252000,225.536,102.400,53.248,447.789,-163.557,258.528,-794.780,-316.600,-312.060
649,52726.267000,297.274,100.392,80.896,447.765,-164.610,251.543,-1014.780,-90.600,-252.060
650,52726.307000,229.466,46.180,101.376,448.461,-181.381,236.268,-1036.780,-250.600,-30.060
651,52726.347000,233.397,32.125,100.352,449.222,-193.551,222.085,-1041.780,-152.600,97.940
652,52726.394000,242.242,18.071,94.208,446.134,-210.352,207.798,-1023.780,-97.600,254.940
653,52726.424000,242.242,0.000,103.424,444.047,-223.437,195.581,-810.780,-112.600,214.940
654,52726.468000,239.294,-5.020,92.160,442.042,-230.928,188.456,-641.780,-132.600,160.940
655,52726.488000,233.397,-6.024,84.992,445.775,-233.802,179.449,-294.780,-75.600,89.940
656,52726.528000,225.536,-11.043,84.992,442.924,-234.756,179.424,-64.780,-2.600,52.940
657,52726.568000,227.501,-9.035,87.040,443.839,-237.413,183.347,121.220,68.400,14.940
658,52726.608000,232.415,-8.031,89.088,442.894,-238.186,191.287,361.220,201.400,13.940
659,52726.649000,238.311,-2.008,87.040,439.134,-237.943,206.206,549.220,296.400,21.940
660,52726.684000,235.363,-4.016,84.992,435.518,-226.765,218.374,812.220,376.400,105.940
661,52726.730000,231.432,-3.012,80.896,431.876,-218.219,236.454,967.220,406.400,139.940
662,52726.745000,230.449,-2.008,76.800,421.661,-206.836,263.536,1307.220,482.400,245.940
663,52726.785000,239.294,5.020,73.728,416.227,-191.745,289.710,1672.220,385.400,211.940
664,52726.829000,214.726,32.125,100.352,408.998,-169.370,315.042,1861.220,384.400,64.940
665,52726.869000,208.829,47.184,101.376,408.392,-146.148,332.444,2236.220,233.400,-65.060
666,52726.904000,204.898,81.318,96.256,407.116,-102.783,350.274,2227.220,176.400,-205.060
667,52726.945000,209.812,137.537,102.400,406.705,-64.960,365.003,2010.220,147.400,-324.060
668,52726.990000,209.812,151.592,108.544,402.537,-24.557,373.814,1547.220,93.400,-244.060
669,52727.19000,199.002,146.573,113.664,404.772,0.262,377.329,1285.220,75.400,-149.060
670,52727.47000,197.036,144.565,101.376,405.919,14.933,377.643,1038.220,64.400,-39.060
671,52727.87000,199.985,149.584,102.400,400.469,31.387,379.974,858.220,142.400,12.940
672,52727.125000,198.019,158.620,99.328,402.524,43.322,380.232,647.220,91.400,38.940
673,52727.167000,199.985,162.635,87.040,400.662,45.967,376.307,339.220,-50.600,106.940
674,52727.205000,199.002,155.608,83.968,407.224,41.474,376.221,-40.780,-165.600,167.940
675,52727.228000,197.036,140.549,80.896,411.872,35.942,371.137,-256.780,-247.600,234.940
676,52727.267000,197.036,125.490,75.776,421.166,24.080,366.919,-369.780,-307.600,289.940
677,52727.308000,195.071,124.486,80.896,420.046,12.021,359.699,-429.780,-311.600,276.940
678,52727.348000,195.071,116.455,82.944,432.136,-2.612,352.443,-325.780,-281.600,240.940
679,52727.385000,193.106,112.439,75.776,433.992,-4.555,345.441,-285.780,-237.600,218.940
680,52727.445000,194.088,120.471,71.680,439.521,-14.695,338.271,-292.780,-202.600,182.940
681,52727.518000,189.175,118.463,65.536,442.255,-22.045,335.135,-319.780,-159.600,173.940
682,52727.528000,189.175,110.431,48.128,443.023,-34.117,325.928,-378.780,-122.600,212.940
683,52727.544000,219.639,107.420,39.936,443.820,-45.099,325.695,-520.780,-0.600,305.940
684,52727.565000,246.173,97.380,41.984,439.692,-69.943,322.176,-650.780,117.400,443.940
685,52727.609000,268.775,55.216,70.656,434.716,-87.490,317.817,-849.780,107.400,619.940
686,52727.645000,312.998,8.031,79.872,430.731,-102.198,317.498,-660.780,232.400,685.940
687,52727.689000,337.566,4.016,80.896,422.755,-131.673,313.875,-454.780,219.400,608.940
688,52727.708000,272.706,-4.016,70.656,415.060,-140.934,313.666,-384.780,75.400,507.940
689,52727.745000,225.536,-1.004,25.600,416.723,-157.458,310.333,-295.780,-56.600,273.940
690,52727.788000,228.484,6.024,20.480,414.791,-160.251,309.276,-26.780,49.400,175.940
691,52727.834000,229.466,-4.016,38.912,408.156,-161.235,310.240,236.220,85.400,302.940
692,52727.865000,235.363,-18.071,35.840,409.139,-159.254,317.246,401.220,50.400,361.940
693,52727.910000,246.173,-15.059,28.672,404.204,-174.013,314.936,362.220,36.400,376.940
694,52727.945000,252.069,-22.086,26.624,400.510,-168.371,324.997,294.220,25.400,386.940
695,52727.967000,254.035,-20.078,22.528,399.476,-174.797,324.858,297.220,19.400,299.940
696,52728.14000,256.000,-22.086,21.504,396.744,-167.427,328.990,245.220,35.400,170.940
697,52728.49000,255.017,-27.106,25.600,392.975,-166.522,330.993,226.220,3.400,81.940
698,52728.89000,255.017,-27.106,20.480,396.787,-164.620,332.033,265.220,-32.600,-15.060
699,52728.129000,250.104,-20.078,26.624,394.012,-160.058,333.121,157.220,9.400,-166.060
700,52728.169000,247.155,-18.071,26.624,398.872,-150.795,335.315,99.220,-50.600,-245.060
701,52728.189000,246.173,-15.059,22.528,398.900,-148.923,337.344,72.220,-73.600,-325.060
702,52728.237000,244.207,-9.035,32.768,401.723,-149.841,335.339,-104.780,4.400,-358.060
703,52728.267000,245.190,-8.031,37.888,404.771,-134.268,333.686,-56.780,-49.600,-432.060
704,52728.314000,258.948,-4.016,35.840,412.363,-132.375,331.748,-247.780,-66.600,-484.060
705,52728.349000,268.775,10.039,67.584,413.411,-125.014,332.901,-134.780,24.400,-558.060
706,52728.394000,271.724,35.137,82.944,418.320,-112.106,334.178,-167.780,-34.600,-586.060
707,52728.428000,271.724,56.220,96.256,419.379,-103.848,334.355,-373.780,69.400,-603.060
708,52728.449000,259.931,66.259,121.856,419.413,-101.139,332.423,-487.780,130.400,-530.060
709,52728.490000,242.242,70.275,121.856,423.192,-101.927,336.391,-409.780,23.400,-454.060
710,52728.538000,210.795,66.259,94.208,424.257,-92.831,332.607,-293.780,91.400,-427.060
711,52728.569000,198.019,84.329,92.160,425.221,-91.844,335.614,-190.780,78.400,-387.060
712,52728.609000,199.985,94.369,100.352,425.293,-87.146,341.682,29.220,154.400,-378.060
713,52728.652000,204.898,97.380,111.616,423.495,-80.680,345.795,140.220,193.400,-333.060
714,52728.693000,200.967,96.376,107.520,425.546,-69.564,351.008,67.220,112.400,-239.060
715,52728.713000,201.950,93.365,105.472,418.926,-69.593,353.981,49.220,85.400,-234.060
716,52728.748000,199.002,96.376,100.352,420.997,-56.703,356.248,45.220,44.400,-234.060
717,52728.788000,194.088,100.392,101.376,422.015,-52.013,361.323,20.220,22.400,-273.060
718,52728.832000,194.088,110.431,106.496,419.244,-46.631,357.454,-12.780,12.400,-291.060
719,52728.867000,200.967,116.455,113.664,417.366,-45.721,358.466,-56.780,6.400,-292.060
720,52728.913000,200.967,126.494,122.880,419.346,-39.283,358.606,-130.780,-21.600,-272.060
721,52728.928000,197.036,131.514,114.688,422.060,-48.407,358.415,-177.780,-139.600,-223.060
722,52728.969000,199.985,132.518,110.592,423.146,-37.518,352.681,-307.780,-196.600,-158.060
723,52729.15000,193.106,126.494,107.520,429.588,-49.574,340.498,-398.780,-283.600,-88.060
724,52729.53000,199.985,123.482,97.280,431.423,-53.292,336.443,-494.780,-322.600,-38.060
725,52729.102000,201.950,120.471,88.064,436.927,-65.263,329.234,-580.780,-367.600,-9.060
726,52729.129000,207.846,120.471,90.112,442.548,-68.171,317.245,-571.780,-385.600,17.940
727,52729.169000,208.829,114.447,82.944,446.214,-75.664,306.150,-583.780,-392.600,69.940
728,52729.195000,206.864,111.435,82.944,453.606,-87.669,295.959,-590.780,-356.600,109.940
729,52729.230000,198.019,104.408,84.992,455.310,-100.626,287.729,-618.780,-385.600,177.940
730,52729.270000,209.812,83.325,57.344,455.958,-121.042,273.370,-805.780,-335.600,293.940
731,52729.310000,249.121,54.212,87.040,455.707,-138.604,265.039,-811.780,-159.600,383.940
732,52729.349000,255.017,34.133,101.376,450.782,-151.708,253.812,-666.780,-203.600,393.940
733,52729.390000,264.845,23.090,98.304,454.367,-165.556,245.565,-383.780,-155.600,402.940
734,52729.406000,264.845,13.051,99.328,446.599,-179.515,239.289,-315.780,-90.600,396.940
735,52729.450000,252.069,10.039,98.304,450.348,-182.194,240.232,-62.780,-151.600,276.940
736,52729.490000,225.536,16.063,71.680,448.361,-188.710,236.112,120.220,-137.600,206.940
737,52729.530000,210.795,7.027,58.368,448.316,-192.316,239.019,221.220,-67.600,181.940
738,52729.570000,199.002,-2.008,57.344,444.467,-196.966,237.920,270.220,-84.600,186.940
739,52729.610000,228.484,1.004,64.512,440.781,-190.466,245.015,286.220,37.400,158.940
740,52729.648000,254.035,15.059,82.944,437.963,-188.711,243.059,450.220,121.400,53.940
741,52729.668000,285.482,20.078,93.184,439.854,-190.245,256.954,422.220,268.400,-52.060
742,52729.708000,247.155,39.153,121.856,437.252,-173.655,264.266,469.220,88.400,-130.060
743,52729.754000,231.432,44.173,68.608,441.042,-173.547,267.257,367.220,-3.600,-180.060
744,52729.794000,230.449,50.196,57.344,442.224,-156.926,273.581,316.220,72.400,-191.060
745,52729.829000,234.380,59.231,77.824,440.406,-151.455,273.695,266.220,141.400,-202.060
746,52729.875000,231.432,71.278,83.968,441.461,-144.016,278.828,220.220,133.400,-220.060
747,52729.890000,233.397,80.314,78.848,441.582,-135.673,283.979,118.220,105.400,-251.060
748,52729.930000,228.484,90.353,76.800,448.259,-131.882,286.058,-39.780,45.400,-267.060
749,52729.972000,226.518,95.373,71.680,446.368,-131.887,287.050,-190.780,25.400,-252.060
750,52730.11000,220.622,95.373,73.728,451.134,-129.115,285.127,-375.780,-1.600,-238.060
751,52730.65000,219.639,97.380,75.776,451.111,-130.149,279.137,-665.780,-32.600,-230.060
752,52730.93000,220.622,100.392,73.728,449.983,-142.305,266.941,-842.780,-58.600,-241.060
753,52730.129000,222.587,98.384,78.848,455.635,-143.302,258.971,-1042.780,-53.600,-254.060
754,52730.151000,225.536,96.376,76.800,455.521,-150.787,250.854,-1190.780,-29.600,-251.060
755,52730.189000,214.726,92.361,77.824,460.113,-160.062,241.712,-1283.780,-29.600,-251.060
756,52730.230000,199.985,90.353,67.584,461.864,-169.393,231.570,-1388.780,-51.600,-244.060
757,52730.270000,194.088,88.345,55.296,459.825,-178.054,211.490,-1554.780,-64.600,-231.060
758,52730.316000,265.827,61.239,79.872,458.588,-197.637,194.162,-1957.780,183.400,-97.060
759,52730.353000,244.207,-2.008,119.808,455.455,-217.284,174.841,-1869.780,119.400,56.940
760,52730.368000,250.104,-13.051,141.312,452.396,-232.214,162.583,-1704.780,155.400,139.940
761,52730.414000,249.121,-30.118,146.432,452.212,-244.377,149.394,-1250.780,122.400,241.940
762,52730.449000,222.587,-31.122,154.624,444.525,-252.002,139.274,-918.780,88.400,220.940
763,52730.491000,198.019,-29.114,144.384,443.461,-260.318,136.111,-501.780,48.400,150.940
764,52730.531000,190.157,-25.098,132.096,440.587,-262.305,130.097,-227.780,2.400,76.940
765,52730.573000,199.985,-29.114,132.096,440.557,-264.196,127.073,-140.780,-16.600,91.940
766,52730.614000,209.812,-31.122,139.264,432.930,-268.038,123.001,-18.780,-13.600,163.940
767,52730.630000,209.812,-40.157,142.336,435.711,-272.523,125.894,67.220,-25.600,206.940
768,52730.670000,208.829,-36.141,135.168,433.672,-283.502,127.646,137.220,-57.600,226.940
769,52730.710000,209.812,-39.153,140.288,434.670,-279.806,128.721,209.220,-52.600,204.940
770,52730.750000,212.760,-41.161,144.384,431.754,-285.360,127.604,256.220,-45.600,170.940
771,52730.806000,207.846,-37.145,144.384,431.818,-281.539,135.643,289.220,-74.600,123.940
772,52730.833000,206.864,-38.149,145.408,428.940,-284.344,134.584,224.220,-107.600,95.940
773,52730.872000,206.864,-41.161,141.312,431.844,-279.687,136.677,170.220,-142.600,57.940
774,52730.891000,204.898,-44.173,136.192,432.781,-279.792,130.708,169.220,-174.600,23.940
775,52730.930000,202.933,-44.173,123.904,433.789,-275.199,130.807,193.220,-174.600,-15.060
776,52730.970000,204.898,-47.184,121.856,438.557,-272.407,129.879,215.220,-131.600,-51.060
777,52731.15000,198.019,-41.161,118.784,438.630,-266.930,129.001,257.220,-88.600,-102.060
778,52731.50000,193.106,-31.122,104.448,443.404,-264.060,132.053,302.220,-67.600,-144.060
779,52731.90000,201.950,-29.114,99.328,448.269,-254.739,137.232,238.220,30.400,-201.060
780,52731.110000,219.639,-17.067,93.184,453.072,-249.998,142.313,312.220,128.400,-260.060
781,52731.156000,235.363,6.024,95.232,457.138,-230.495,153.675,429.220,193.400,-327.060
782,52731.205000,240.276,38.149,105.472,460.179,-216.540,162.929,636.220,258.400,-367.060
783,52731.236000,266.810,65.255,119.808,462.260,-203.533,171.166,636.220,311.400,-355.060
784,52731.271000,335.601,108.424,168.960,462.424,-193.143,187.301,239.220,500.400,-363.060
785,52731.313000,290.395,114.447,181.248,466.428,-178.220,198.566,312.220,105.400,-321.060
786,52731.349000,249.121,105.412,109.568,469.343,-172.666,199.683,569.220,-90.600,-227.060
787,52731.369000,200.967,71.278,64.512,477.993,-162.535,196.927,167.220,-278.600,-74.060
788,52731.411000,185.244,52.204,47.104,482.709,-162.648,187.980,39.220,-302.600,-24.060
789,52731.453000,202.933,68.267,32.768,483.605,-165.540,179.963,31.220,-256.600,-116.060
790,52731.495000,217.674,84.329,47.104,488.497,-153.587,179.230,65.220,-237.600,-206.060
791,52731.530000,227.501,93.365,48.128,496.092,-150.895,171.341,73.220,-275.600,-277.060
792,52731.577000,244.207,104.408,54.272,494.300,-142.811,164.548,-79.780,-273.600,-177.060
793,52731.598000,252.069,97.380,56.320,496.129,-146.607,156.513,-85.780,-253.600,-66.060
794,52731.633000,256.000,97.380,60.416,501.891,-140.158,154.669,-32.780,-145.600,32.940
795,52731.673000,246.173,98.384,58.368,501.829,-144.739,154.572,54.220,-99.600,123.940
796,52731.710000,231.432,94.369,47.104,496.069,-150.389,150.465,50.220,-68.600,154.940
797,52731.751000,224.553,86.337,44.032,494.985,-160.479,150.248,74.220,-32.600,190.940
798,52731.793000,219.639,80.314,45.056,492.127,-162.290,153.189,81.220,40.400,212.940
799,52731.831000,220.622,85.333,54.272,494.022,-162.226,155.183,61.220,58.400,202.940
800,52731.856000,218.656,82.322,48.128,489.121,-175.056,157.886,174.220,33.400,229.940
801,52731.895000,229.466,86.337,58.368,482.463,-177.853,159.806,-0.780,18.400,254.940
802,52731.933000,278.603,78.306,114.688,477.600,-187.914,163.564,59.220,217.400,310.940
803,52731.979000,276.637,53.208,115.712,468.015,-197.941,172.288,146.220,158.400,386.940
804,52732.12000,248.138,42.165,124.928,458.496,-202.569,176.154,326.220,174.400,411.940
805,52732.58000,246.173,20.078,134.144,454.586,-212.540,183.893,183.220,270.400,372.940
806,52732.78000,220.622,6.024,131.072,447.874,-220.580,198.631,69.220,235.400,291.940
807,52732.119000,203.916,0.000,128.000,439.308,-224.357,198.538,34.220,193.400,191.940
808,52732.155000,207.846,0.000,141.312,433.496,-235.231,208.245,-13.780,200.400,143.940
809,52732.190000,201.950,9.035,143.360,433.445,-238.915,207.171,-114.780,161.400,87.940
810,52732.239000,197.036,8.031,139.264,425.862,-239.931,207.139,-204.780,106.400,92.940
811,52732.272000,192.123,0.000,134.144,421.039,-246.445,205.004,-292.780,95.400,130.940
812,52732.311000,195.071,-6.024,135.168,419.089,-250.993,207.888,-273.780,96.400,183.940
813,52732.333000,201.950,-15.059,144.384,413.285,-260.248,206.688,-247.780,107.400,257.940
814,52732.374000,205.881,-27.106,155.648,403.673,-271.347,207.432,-151.780,96.400,298.940
815,52732.413000,207.846,-33.129,165.888,399.745,-282.313,211.171,36.220,115.400,291.940
816,52732.456000,203.916,-38.149,164.864,398.852,-278.622,213.238,177.220,91.400,275.940
817,52732.493000,199.985,-34.133,156.672,391.220,-284.063,221.068,372.220,25.400,235.940
818,52732.539000,192.123,-34.133,141.312,388.422,-282.073,231.052,638.220,-7.600,226.940
819,52732.554000,200.967,-31.122,137.216,387.618,-272.729,241.196,775.220,3.400,215.940
820,52732.625000,202.933,-35.137,138.240,384.870,-267.074,251.259,873.220,-19.600,192.940
821,52732.645000,223.570,-26.102,120.832,380.246,-260.490,263.328,1052.220,-40.600,162.940
822,52732.679000,264.845,13.051,159.744,381.419,-245.507,279.563,1056.220,172.400,66.940
823,52732.710000,212.760,29.114,156.672,378.768,-233.342,294.737,1322.220,11.400,-43.060
824,52732.765000,217.674,56.220,128.000,384.785,-210.051,311.156,1292.220,-48.600,-47.060
825,52732.794000,212.760,69.271,100.352,389.692,-197.923,319.379,946.220,-126.600,-84.060
826,52732.810000,214.726,81.318,108.544,386.983,-188.740,322.554,511.220,-135.600,-73.060
827,52732.855000,209.812,81.318,105.472,389.817,-188.761,319.574,268.220,-233.600,-38.060
828,52732.890000,205.881,78.306,94.208,399.296,-186.921,313.659,-45.780,-307.600,-41.060
829,52732.930000,206.864,79.310,89.088,404.042,-185.144,307.736,-243.780,-321.600,-56.060
830,52732.976000,205.881,78.306,79.872,410.591,-189.013,292.744,-416.780,-348.600,-72.060
831,52733.12000,206.864,70.275,71.680,411.471,-192.861,282.717,-578.780,-368.600,-100.060
832,52733.53000,245.190,64.251,74.752,413.190,-204.102,268.555,-779.780,-285.600,-132.060
833,52733.73000,268.775,34.133,128.000,418.800,-207.907,257.542,-796.780,-181.600,-74.060
834,52733.119000,256.000,25.098,98.304,421.378,-225.549,243.245,-710.780,-359.600,16.940
835,52733.154000,242.242,11.043,81.920,424.124,-230.443,225.241,-713.780,-395.600,110.940
836,52733.190000,243.225,4.016,81.920,425.904,-237.124,210.182,-896.780,-338.600,170.940
837,52733.234000,225.536,-1.004,88.064,425.674,-252.133,191.959,-938.780,-393.600,106.940
838,52733.274000,226.518,-15.059,86.016,425.579,-257.104,171.960,-694.780,-383.600,84.940
839,52733.294000,234.380,-19.075,84.992,427.324,-266.494,158.833,-552.780,-304.600,61.940
840,52733.335000,247.155,-32.125,80.896,428.220,-269.386,150.815,-208.780,-237.600,84.940
841,52733.370000,241.259,-28.110,79.872,430.083,-271.252,147.795,186.220,-158.600,39.940
842,52733.415000,238.311,-22.086,75.776,432.064,-264.795,148.930,453.220,-90.600,8.940
843,52733.473000,233.397,-16.063,68.608,431.165,-262.721,161.903,701.220,13.400,3.940
844,52733.495000,233.397,-17.067,72.704,433.232,-251.410,177.066,941.220,137.400,59.940
845,52733.544000,231.432,-21.082,71.680,428.515,-252.076,192.959,1216.220,196.400,107.940
846,52733.551000,240.276,-32.125,59.392,422.227,-230.527,222.253,1508.220,310.400,177.940
847,52733.593000,273.689,-16.063,57.344,422.383,-220.995,241.354,1699.220,423.400,132.940
848,52733.633000,292.361,14.055,74.752,414.145,-203.992,273.532,1923.220,489.400,17.940
849,52733.678000,239.294,40.157,86.016,415.640,-166.769,303.171,2302.220,223.400,-110.060
850,52733.719000,230.449,66.259,66.560,417.135,-128.765,325.864,2241.220,188.400,-260.060
851,52733.751000,214.726,104.408,64.512,411.998,-90.947,343.570,2037.220,208.400,-393.060
852,52733.773000,212.760,116.455,86.016,413.309,-65.107,353.074,1787.220,168.400,-347.060
853,52733.813000,204.898,118.463,74.752,417.635,-26.404,362.856,1523.220,49.400,-284.060
854,52733.853000,205.881,125.490,73.728,417.063,1.068,363.440,1197.220,-5.600,-177.060
855,52733.900000,204.898,131.514,75.776,418.194,14.783,361.744,830.220,-46.600,-130.060
856,52733.936000,209.812,137.537,70.656,420.244,26.659,359.016,479.220,-100.600,-96.060
857,52733.974000,212.760,136.533,68.608,421.209,28.426,355.076,8.220,-179.600,-29.060
858,52734.14000,212.760,130.510,62.464,426.880,28.423,351.106,-362.780,-237.600,-12.060
859,52734.40000,208.829,123.482,59.392,434.275,16.457,342.905,-599.780,-308.600,6.940
860,52734.80000,208.829,114.447,55.296,438.780,0.789,334.621,-708.780,-335.600,17.940
861,52734.128000,211.777,115.451,58.368,450.033,-5.649,325.549,-811.780,-322.600,-41.060
862,52734.154000,210.795,109.427,55.296,453.615,-19.537,315.313,-721.780,-430.600,-49.060
863,52734.194000,202.933,100.392,48.128,460.155,-24.283,302.291,-604.780,-432.600,-67.060
864,52734.234000,196.054,105.412,44.032,463.889,-27.138,294.279,-543.780,-366.600,-68.060
865,52734.253000,204.898,113.443,38.912,469.411,-37.355,283.128,-510.780,-291.600,-28.060
866,52734.291000,212.760,112.439,39.936,469.349,-41.156,276.085,-494.780,-176.600,23.940
867,52734.339000,216.691,113.443,52.224,472.042,-51.294,270.900,-477.780,4.400,115.940
868,52734.374000,210.795,104.408,58.368,471.005,-57.758,268.771,-562.780,0.400,215.940
869,52734.413000,219.639,102.400,55.296,466.020,-76.182,266.383,-608.780,123.400,274.940
870,52734.455000,251.086,86.337,36.864,463.081,-83.549,266.222,-747.780,197.400,320.940
871,52734.495000,270.741,68.267,68.608,454.266,-105.629,266.733,-603.780,466.400,405.940
872,52734.515000,286.464,50.196,76.800,447.414,-123.006,272.321,-643.780,472.400,489.940
873,52734.556000,296.292,16.063,69.632,442.541,-133.965,277.054,-473.780,385.400,549.940
874,52734.592000,311.033,14.055,66.560,431.842,-155.972,282.537,-144.780,417.400,493.940
875,52734.633000,321.843,15.059,71.680,420.490,-156.843,292.448,127.220,377.400,442.940
876,52734.673000,261.896,3.012,69.632,414.763,-161.343,300.301,231.220,251.400,360.940
877,52734.723000,226.518,12.047,32.768,410.972,-162.231,304.255,412.220,57.400,280.940
878,52734.753000,212.760,4.016,16.384,408.176,-159.461,307.294,458.220,44.400,266.940
879,52734.773000,224.553,2.008,19.456,409.120,-160.248,313.247,458.220,62.400,275.940
880,52734.814000,225.536,0.000,22.528,403.475,-158.393,318.251,412.220,107.400,293.940
881,52734.854000,249.121,-1.004,30.720,400.519,-167.494,323.026,307.220,36.400,293.940
882,52734.894000,252.069,-7.027,41.984,398.757,-158.299,326.203,211.220,74.400,180.940
883,52734.935000,256.983,-3.012,39.936,395.875,-161.923,330.100,142.220,12.400,89.940
884,52734.975000,247.155,-3.012,41.984,394.959,-159.266,326.177,5.220,-8.600,-16.060
885,52735.2000,251.086,-2.008,40.960,397.751,-162.854,328.094,-77.780,-39.600,-130.060
886,52735.51000,244.207,-3.012,43.008,394.972,-158.349,326.196,-123.780,-34.600,-188.060
887,52735.74000,245.190,0.000,44.032,402.542,-158.249,326.210,-136.780,-32.600,-243.060
888,52735.119000,243.225,-2.008,48.128,401.548,-161.127,320.179,-161.780,-55.600,-246.060
889,52735.180000,253.052,3.012,52.224,404.500,-152.845,320.360,-199.780,-46.600,-243.060
890,52735.196000,264.845,1.004,55.296,406.391,-152.839,319.368,-195.780,-85.600,-242.060
891,52735.238000,283.516,11.043,76.800,409.228,-152.821,318.378,-228.780,12.400,-245.060
892,52735.253000,282.534,30.118,93.184,409.255,-150.969,319.412,-266.780,22.400,-317.060
893,52735.294000,268.775,38.149,91.136,414.937,-150.076,314.466,-298.780,-136.600,-373.060
894,52735.335000,244.207,45.176,82.944,416.907,-143.755,308.636,-389.780,-100.600,-415.060
895,52735.376000,216.691,53.208,83.968,421.621,-144.667,305.640,-349.780,-111.600,-397.060
896,52735.413000,218.656,66.259,70.656,426.438,-138.211,304.789,-416.780,-91.600,-359.060
897,52735.454000,207.846,70.275,84.992,430.145,-143.697,302.689,-256.780,2.400,-311.060
898,52735.476000,206.864,81.318,102.400,430.298,-132.665,304.913,-145.780,130.400,-275.060
899,52735.521000,205.881,85.333,107.520,427.418,-136.269,309.805,-70.780,141.400,-223.060
900,52735.553000,212.760,80.314,105.472,427.424,-136.191,313.786,-4.780,126.400,-136.060
901,52735.593000,203.916,71.278,105.472,424.634,-132.583,312.864,-88.780,139.400,-118.060
902,52735.650000,208.829,77.302,119.808,425.663,-126.977,317.958,-94.780,137.400,-132.060
903,52735.691000,215.708,88.345,124.928,420.017,-125.141,321.967,-85.780,158.400,-181.060
904,52735.718000,207.846,90.353,131.072,420.047,-123.250,324.991,-126.780,112.400,-182.060
905,52735.734000,204.898,89.349,132.096,420.995,-123.218,325.988,-147.780,94.400,-161.060
906,52735.775000,198.019,96.376,132.096,417.133,-128.785,324.869,-241.780,-1.600,-100.060
907,52735.815000,190.157,93.365,134.144,417.148,-127.849,325.884,-384.780,-37.600,-113.060
908,52735.869000,186.226,98.384,125.952,419.814,-139.838,319.665,-446.780,-84.600,-141.060
909,52735.898000,194.088,100.392,111.616,422.734,-133.466,315.826,-486.780,-103.600,-128.060
910,52735.933000,173.451,101.396,108.544,422.497,-150.093,308.509,-624.780,-105.600,-121.060
911,52735.953000,219.639,88.345,80.896,424.343,-152.154,295.538,-832.780,-268.600,-48.060
912,52735.998000,266.810,77.302,94.208,426.931,-169.679,287.212,-868.780,-59.600,79.940
913,52736.38000,240.276,27.106,131.072,423.970,-177.299,274.115,-722.780,-89.600,223.940
914,52736.76000,248.138,20.078,132.096,418.013,-197.588,270.690,-655.780,-102.600,260.940
915,52736.126000,241.259,8.031,115.712,415.952,-208.821,259.507,-501.780,-130.600,257.940
916,52736.155000,227.501,4.016,97.280,418.746,-211.610,255.473,-253.780,-167.600,190.940
917,52736.195000,210.795,10.039,89.088,420.493,-221.760,250.287,-68.780,-133.600,138.940
918,52736.219000,206.864,13.051,83.968,413.855,-222.783,249.261,89.220,-78.600,131.940
919,52736.255000,216.691,8.031,88.064,412.019,-219.066,253.315,148.220,-5.600,151.940
920,52736.295000,232.415,6.024,101.376,408.210,-220.929,254.265,63.220,44.400,165.940
921,52736.339000,233.397,7.027,106.496,409.097,-225.458,256.159,131.220,32.400,147.940
922,52736.374000,227.501,11.043,111.616,408.167,-224.515,258.167,143.220,37.400,77.940
923,52736.414000,225.536,19.075,110.592,399.598,-228.312,257.079,71.220,79.400,53.940
924,52736.465000,233.397,22.086,108.544,401.462,-230.937,261.999,-20.780,141.400,56.940
925,52736.475000,244.207,34.133,111.616,403.317,-233.661,261.944,-118.780,120.400,0.940
926,52736.518000,227.501,48.188,102.400,402.424,-229.970,264.010,-180.780,64.400,-94.060
927,52736.554000,222.587,59.231,93.184,400.581,-226.330,264.085,-300.780,81.400,-198.060
928,52736.594000,222.587,70.275,88.064,408.156,-225.412,259.143,-387.780,79.400,-301.060
929,52736.636000,214.726,68.267,86.016,402.447,-227.397,255.113,-607.780,95.400,-283.060
930,52736.676000,221.605,51.200,84.992,406.115,-234.871,245.013,-769.780,162.400,-196.060
931,52736.696000,217.674,40.157,92.160,403.095,-247.813,240.755,-1047.780,266.400,-77.060
932,52736.736000,212.760,12.047,117.760,400.106,-258.064,233.570,-1172.780,284.400,25.940
933,52736.776000,213.743,-7.027,136.192,398.058,-268.381,222.406,-1196.780,326.400,127.940
934,52736.818000,201.950,-30.118,158.720,388.292,-289.753,212.985,-1146.780,366.400,228.940
935,52736.858000,195.071,-38.149,182.272,382.499,-297.333,203.863,-898.780,296.400,220.940
936,52736.895000,191.140,-48.188,181.248,374.764,-308.602,194.660,-664.780,206.400,156.940
937,52736.938000,195.071,-55.216,179.200,369.946,-314.298,187.570,-510.780,64.400,96.940
938,52736.958000,197.036,-63.247,172.032,377.363,-325.231,185.359,-323.780,-47.600,57.940
939,52736.994000,197.036,-58.227,168.960,374.550,-322.656,178.447,-171.780,-157.600,16.940
940,52737.44000,195.071,-58.227,157.696,380.135,-329.053,175.335,-9.780,-211.600,5.940
941,52737.76000,197.036,-60.235,159.744,382.219,-314.467,170.675,32.220,-207.600,-7.060
942,52737.115000,195.071,-56.220,159.744,389.690,-321.696,170.533,135.220,-210.600,-52.060
943,52737.159000,194.088,-57.224,157.696,387.855,-317.199,167.642,138.220,-228.600,-80.060
944,52737.180000,196.054,-56.220,153.600,395.578,-305.306,161.938,152.220,-288.600,-133.060
945,52737.216000,195.071,-56.220,139.264,405.109,-299.763,158.092,162.220,-312.600,-181.060
946,52737.264000,189.175,-55.216,126.976,406.074,-297.996,154.152,185.220,-288.600,-225.060
947,52737.296000,185.244,-47.184,114.688,415.730,-284.071,157.447,243.220,-212.600,-289.060
948,52737.338000,184.261,-37.145,101.376,421.499,-276.764,152.638,260.220,-139.600,-326.060
949,52737.383000,195.071,-30.118,81.920,432.015,-269.219,156.792,304.220,-28.600,-352.060
950,52737.425000,206.864,-15.059,78.848,439.816,-252.570,160.142,366.220,130.400,-403.060
951,52737.435000,235.363,28.110,97.280,443.771,-241.293,172.324,467.220,204.400,-489.060
952,52737.475000,269.758,68.267,108.544,449.801,-216.306,181.816,325.220,266.400,-552.060
953,52737.516000,283.516,98.384,116.736,453.693,-208.849,185.959,80.220,194.400,-535.060
954,52737.558000,297.274,96.376,97.280,462.371,-196.846,185.233,-97.780,28.400,-435.060
955,52737.596000,298.257,102.400,98.304,465.269,-192.267,183.345,-178.780,-83.600,-383.060
956,52737.638000,277.620,99.388,98.304,472.071,-178.555,177.679,1.220,-129.600,-289.060
957,52737.658000,252.069,91.357,77.824,473.128,-170.317,176.862,250.220,-150.600,-171.060
958,52737.699000,223.570,82.322,48.128,476.003,-167.550,175.930,222.220,-112.600,-113.060
959,52737.743000,209.812,84.329,40.960,480.756,-165.695,173.987,151.220,-89.600,-66.060
960,52737.783000,203.916,86.337,39.936,485.475,-166.548,173.976,47.220,-78.600,-95.060
961,52737.830000,205.881,92.361,47.104,484.599,-161.123,171.107,-61.780,-116.600,-120.060
962,52737.859000,213.743,90.353,47.104,488.423,-158.305,172.167,-218.780,-88.600,-109.060
963,52737.901000,217.674,90.353,58.368,486.514,-158.525,162.213,-284.780,-68.600,-85.060
964,52737.916000,227.501,100.392,59.392,485.441,-167.718,161.021,-282.780,-72.600,-34.060
965,52737.975000,237.328,104.408,61.440,489.282,-163.166,157.145,-216.780,-61.600,88.940
966,52737.998000,247.155,109.427,61.440,483.424,-176.125,153.877,-123.780,-46.600,189.940
967,52738.56000,275.655,98.384,71.680,477.612,-186.238,155.642,-37.780,54.400,402.940
968,52738.78000,267.793,69.271,87.040,472.682,-200.939,156.317,-73.780,26.400,574.940
969,52738.118000,266.810,55.216,101.376,461.155,-213.876,158.013,11.220,75.400,680.940
970,52738.138000,257.965,22.086,123.904,454.405,-223.905,164.752,78.220,146.400,711.940
971,52738.179000,243.225,13.051,145.408,443.802,-238.622,168.402,164.220,220.400,593.940
972,52738.215000,212.760,0.000,140.288,429.399,-255.105,177.976,227.220,204.400,434.940
973,52738.255000,188.192,-14.055,129.024,424.681,-255.011,185.929,431.220,126.400,335.940
974,52738.296000,188.192,-22.086,137.216,417.846,-271.414,194.521,367.220,138.400,283.940
975,52738.335000,195.071,-25.098,143.360,408.470,-265.905,201.587,162.220,173.400,286.940
976,52738.379000,205.881,-24.094,151.552,403.681,-270.490,204.466,61.220,200.400,236.940
977,52738.398000,201.950,-14.055,153.600,396.943,-279.602,211.225,97.220,199.400,181.940
978,52738.439000,198.019,-14.055,146.432,390.392,-274.992,217.281,148.220,172.400,169.940
979,52738.479000,194.088,-15.059,143.360,384.624,-282.279,223.085,119.220,163.400,176.940
980,52738.519000,198.019,-19.075,143.360,379.863,-284.992,227.994,148.220,170.400,208.940
981,52738.559000,199.985,-21.082,151.552,375.049,-291.409,230.834,147.220,176.400,235.940
982,52738.606000,199.002,-23.090,160.768,371.315,-288.555,238.846,186.220,169.400,251.940
983,52738.640000,195.071,-24.094,167.936,360.812,-295.943,242.652,207.220,117.400,255.940
984,52738.659000,199.002,-22.086,168.960,358.008,-294.031,248.656,166.220,88.400,220.940
985,52738.700000,196.054,-31.122,162.816,351.287,-301.409,250.479,260.220,29.400,238.940
986,52738.740000,198.019,-32.125,153.600,354.243,-293.847,260.590,366.220,6.400,228.940
987,52738.779000,195.071,-33.129,147.456,343.827,-294.823,264.533,440.220,-24.600,209.940
988,52738.820000,204.898,-26.102,145.408,343.866,-292.834,272.532,493.220,-68.600,176.940
989,52738.859000,210.795,-24.094,146.432,341.037,-292.755,278.497,512.220,-74.600,135.940
990,52738.879000,222.587,-22.086,142.336,344.050,-280.671,285.722,551.220,-102.600,93.940
991,52738.918000,212.760,-2.008,138.240,347.933,-274.091,291.835,535.220,-116.600,-9.060
992,52738.958000,211.777,3.012,124.928,350.752,-275.827,294.786,577.220,-176.600,-35.060
993,52738.996000,205.881,8.031,113.664,351.021,-256.510,299.176,536.220,-218.600,-94.060
994,52739.39000,208.829,11.043,111.616,359.580,-253.591,302.235,509.220,-185.600,-101.060
995,52739.76000,209.812,19.075,110.592,355.955,-242.530,308.433,467.220,-133.600,-98.060
996,52739.118000,211.777,25.098,119.808,359.842,-235.131,309.591,335.220,-91.600,-108.060
997,52739.138000,225.536,31.122,123.904,367.466,-231.328,311.672,274.220,-55.600,-116.060
998,52739.178000,233.397,36.141,125.952,367.412,-235.031,309.604,165.220,-18.600,-138.060
999,52739.216000,231.432,38.149,124.928,372.388,-217.484,313.963,112.220,-19.600,-162.060
1000,52739.256000,224.553,42.165,122.880,372.411,-215.671,313.007,49.220,-24.600,-209.060
1001,52739.298000,213.743,46.180,123.904,376.223,-213.770,314.048,-6.780,-15.600,-242.060
1002,52739.340000,209.812,49.192,119.808,380.082,-208.242,313.177,-91.780,-4.600,-242.060
1003,52739.361000,212.760,45.176,121.856,382.021,-204.592,311.268,-152.780,3.400,-206.060
1004,52739.396000,215.708,42.165,119.808,378.248,-203.726,311.281,-147.780,7.400,-162.060
1005,52739.451000,217.674,42.165,120.832,386.746,-204.607,307.296,-186.780,25.400,-133.060
1006,52739.479000,220.622,40.157,123.904,382.043,-202.799,309.317,-177.780,31.400,-104.060
1007,52739.516000,219.639,42.165,123.904,382.870,-211.109,305.163,-161.780,36.400,-93.060
1008,52739.571000,215.708,39.153,126.976,384.848,-204.691,304.308,-145.780,67.400,-81.060
1009,52739.598000,212.760,38.149,130.048,385.755,-208.226,310.202,-128.780,92.400,-78.060
1010,52739.618000,211.777,37.145,130.048,383.802,-212.033,304.150,-103.780,89.400,-77.060
1011,52739.658000,210.795,36.141,132.096,383.845,-209.226,307.194,-84.780,78.400,-77.060
1012,52739.698000,208.829,39.153,132.096,391.417,-209.106,308.202,-86.780,52.400,-85.060
1013,52739.739000,208.829,40.157,131.072,385.791,-205.497,309.265,-87.780,25.400,-90.060
1014,52739.779000,212.760,40.157,132.096,385.800,-204.620,307.295,-88.780,-1.600,-76.060
1015,52739.825000,212.760,38.149,134.144,386.696,-208.272,307.218,-82.780,-9.600,-67.060
1016,52739.840000,212.760,38.149,130.048,387.712,-202.821,304.352,-51.780,-40.600,-60.060
1017,52739.880000,211.777,40.157,126.976,389.523,-208.371,300.258,-56.780,-39.600,-54.060
1018,52739.918000,211.777,41.161,129.024,390.366,-215.727,298.113,-61.780,-40.600,-42.060
1019,52739.959000,213.743,41.161,128.000,391.471,-204.623,303.324,-53.780,-29.600,-37.060
1020,52740.5000,213.743,38.149,124.928,390.521,-204.675,301.333,-50.780,-24.600,-25.060
1021,52740.39000,212.760,38.149,126.976,391.463,-204.721,298.349,-51.780,-20.600,-13.060
1022,52740.80000,213.743,37.145,126.976,394.281,-206.457,301.300,-21.780,-19.600,-4.060
1023,52740.100000,212.760,37.145,126.976,393.355,-204.696,298.352,-5.780,-28.600,-3.060
1024,52740.140000,214.726,36.141,125.952,394.139,-216.593,298.100,22.220,-17.600,10.940
1025,52740.179000,215.708,37.145,130.048,392.357,-208.392,297.278,29.220,-0.600,17.940
1026,52740.228000,214.726,36.141,126.976,398.038,-208.278,299.278,64.220,-8.600,21.940
1027,52740.259000,214.726,37.145,128.000,394.321,-203.689,302.354,90.220,-4.600,26.940
1028,52740.315000,215.708,39.153,126.976,391.489,-202.869,299.383,108.220,0.400,26.940
1029,52740.338000,214.726,41.161,126.976,395.265,-203.696,301.360,123.220,1.400,17.940
1030,52740.363000,213.743,41.161,126.976,390.545,-202.862,300.377,137.220,6.400,24.940
1031,52740.399000,215.708,40.157,124.928,395.370,-196.308,304.502,152.220,16.400,38.940
1032,52740.444000,216.691,41.161,125.952,393.333,-207.268,307.249,182.220,28.400,53.940
1033,52740.483000,215.708,42.165,126.976,389.740,-193.518,310.521,212.220,43.400,63.940
1034,52740.524000,214.726,45.176,126.976,388.802,-193.433,315.494,260.220,53.400,79.940
1035,52740.559000,213.743,45.176,125.952,387.832,-195.258,316.449,287.220,58.400,92.940
1036,52740.583000,212.760,47.184,124.928,386.062,-186.921,322.591,316.220,57.400,99.940
1037,52740.618000,210.795,49.192,125.952,382.244,-189.661,325.511,324.220,54.400,99.940
