Sample, Time, ACCX, ACCY, ACCZ, MAGX, MAGY, MAGZ, GYRX, GYRY, GYRZ
0,45874.39000,241.174,78.963,-23.907,466.347,358.880,-26.741,-41.040,-28.490,2.980
1,45874.74000,242.162,74.939,-23.907,463.499,363.771,-23.696,-50.040,-22.490,3.980
2,45874.97000,240.185,74.939,-21.914,463.455,359.823,-26.726,-27.040,-8.490,1.980
3,45874.142000,241.174,79.969,-21.914,465.408,360.899,-22.775,-4.040,1.510,1.980
4,45874.176000,239.197,78.963,-19.922,466.392,362.829,-23.711,4.960,6.510,5.980
5,45874.220000,239.197,79.969,-19.922,463.537,367.655,-23.610,5.960,7.510,8.980
6,45874.259000,239.197,78.963,-20.918,467.326,358.998,-21.833,3.960,0.510,9.980
7,45874.295000,239.197,77.957,-15.938,466.361,359.894,-24.757,5.960,-21.490,8.980
8,45874.338000,239.197,79.969,-19.922,464.462,363.737,-25.656,6.960,-34.490,6.980
9,45874.357000,238.208,74.939,-18.926,466.406,364.727,-25.630,0.960,-51.490,11.980
10,45874.398000,236.232,76.951,-18.926,467.294,356.927,-27.763,22.960,-64.490,3.980
11,45874.444000,239.197,88.016,-18.926,462.541,365.617,-27.580,-67.040,-97.490,-6.020
12,45874.477000,239.197,74.939,-20.918,464.420,359.811,-27.705,-69.040,-111.490,-5.020
13,45874.517000,235.243,75.945,-21.914,464.451,363.630,-30.562,10.960,-116.490,-9.020
14,45874.562000,233.266,73.933,-20.918,468.297,361.682,-32.558,-7.040,-186.490,-24.020
15,45874.597000,239.197,82.986,-27.891,465.412,365.343,-41.309,20.960,-195.490,-34.020
16,45874.637000,237.220,78.963,-31.875,465.366,361.374,-45.320,86.960,-208.490,-32.020
17,45874.678000,237.220,79.969,-27.891,459.632,369.926,-51.026,62.960,-230.490,-44.020
18,45874.701000,246.116,86.004,-35.860,457.564,357.178,-56.217,9.960,-208.490,-77.020
19,45874.735000,235.243,80.974,-43.829,454.758,366.880,-55.027,-37.040,-206.490,-77.020
20,45874.777000,238.208,77.957,-31.875,459.619,370.681,-60.816,-39.040,-226.490,-101.020
21,45874.817000,234.255,84.998,-28.887,457.659,369.540,-67.710,-33.040,-312.490,-98.020
22,45874.858000,244.139,102.098,-33.868,455.650,363.523,-75.693,70.960,-400.490,-65.020
23,45874.898000,257.977,124.228,-42.833,446.078,376.741,-88.169,-31.040,-548.490,22.980
24,45874.938000,259.954,113.163,-55.782,449.899,371.903,-89.249,-284.040,-574.490,79.980
25,45874.978000,205.591,69.910,-95.626,448.961,373.943,-84.302,-47.040,-158.490,93.980
26,45874.997000,184.834,58.845,-120.529,451.796,368.923,-93.234,472.960,-81.490,105.980
27,45875.39000,184.834,67.898,-90.646,451.717,361.997,-99.271,296.960,42.510,-51.020
28,45875.79000,231.290,56.833,-4.981,445.013,368.749,-98.155,-93.040,185.510,-135.020
29,45875.122000,278.734,75.945,-92.638,452.808,371.996,-86.299,-261.040,176.510,-35.020
30,45875.162000,235.243,118.193,-51.798,449.914,371.169,-78.478,-421.040,93.510,-44.020
31,45875.201000,245.127,125.234,-38.848,451.842,370.239,-77.514,-257.040,73.510,52.980
32,45875.239000,238.208,102.098,-28.887,454.779,374.129,-78.402,365.960,120.510,118.980
33,45875.279000,235.243,73.933,-33.868,455.634,363.372,-82.561,217.960,-38.490,144.980
34,45875.300000,214.486,57.839,-62.755,455.621,363.243,-88.448,82.960,-145.490,163.980
35,45875.350000,228.324,57.839,-84.669,459.486,363.238,-90.402,279.960,-22.490,100.980
36,45875.381000,256.988,88.016,-70.724,462.367,361.303,-91.419,187.960,248.510,45.980
37,45875.422000,252.046,98.075,-57.774,464.337,363.414,-84.503,-141.040,318.510,28.980
38,45875.458000,249.081,91.033,-39.844,467.177,354.920,-74.879,-335.040,460.510,96.980
39,45875.502000,232.278,71.921,-35.860,467.216,357.056,-66.006,-136.040,295.510,67.980
40,45875.539000,237.220,66.892,-28.887,471.115,357.374,-53.242,-148.040,245.510,50.980
41,45875.579000,234.255,70.916,-9.961,471.136,359.338,-52.218,-49.040,93.510,21.980
42,45875.624000,229.313,81.980,-7.969,471.075,353.469,-54.309,21.960,-82.490,21.980
43,45875.639000,230.301,86.004,-28.887,471.082,355.303,-59.172,12.960,-342.490,33.980
44,45875.681000,236.232,83.992,-31.875,468.124,351.219,-67.114,-79.040,-462.490,49.980
45,45875.724000,237.220,71.921,-61.759,468.167,356.915,-72.872,-38.040,-407.490,59.980
46,45875.760000,246.116,65.886,-78.693,468.126,354.757,-82.726,14.960,-274.490,51.980
47,45875.800000,250.069,80.974,-80.685,469.089,353.839,-80.783,-72.040,-22.490,-29.020
48,45875.837000,243.151,74.939,-63.751,470.047,352.877,-80.803,-84.040,106.510,-82.020
49,45875.882000,236.232,74.939,-49.805,469.163,359.837,-72.805,-25.040,222.510,-102.020
50,45875.918000,233.266,72.927,-43.829,465.239,353.995,-71.962,-5.040,275.510,-84.020
51,45875.942000,227.336,72.927,-28.887,464.311,357.006,-66.994,24.960,233.510,-64.020
52,45875.978000,229.313,81.980,-17.930,464.386,364.773,-66.821,16.960,31.510,-57.020
53,45876.19000,229.313,72.927,-20.918,464.315,357.049,-65.032,6.960,-127.490,-30.020
54,45876.61000,228.324,80.974,-38.848,461.452,363.558,-76.661,191.960,-261.490,-12.020
55,45876.101000,243.151,69.910,-29.883,458.470,356.605,-82.706,196.960,-339.490,6.980
56,45876.138000,227.336,95.057,-73.712,460.433,362.168,-95.327,450.960,-279.490,8.980
57,45876.178000,230.301,91.033,-81.681,461.368,360.107,-101.254,129.960,-245.490,15.980
58,45876.218000,243.151,72.927,-84.669,458.464,360.941,-106.145,-22.040,-48.490,-16.020
59,45876.239000,244.139,78.963,-73.712,457.435,354.179,-104.336,-21.040,89.510,-51.020
60,45876.279000,229.313,79.969,-64.747,454.631,363.018,-98.262,-57.040,179.510,-66.020
61,45876.321000,227.336,74.939,-55.782,457.556,365.031,-96.250,-114.040,178.510,-61.020
62,45876.359000,228.324,76.951,-43.829,453.696,365.080,-92.334,-55.040,152.510,-54.020
63,45876.399000,226.347,80.974,-30.879,456.647,369.099,-87.335,14.960,26.510,-31.020
64,45876.443000,232.278,83.992,-27.891,456.574,363.123,-94.333,88.960,-106.490,-13.020
65,45876.482000,227.336,81.980,-38.848,454.659,365.930,-98.197,203.960,-274.490,19.980
66,45876.520000,229.313,80.974,-51.798,453.657,364.713,-109.014,252.960,-333.490,44.980
67,45876.562000,233.266,92.039,-82.677,454.586,362.587,-117.885,186.960,-284.490,42.980
68,45876.582000,235.243,75.945,-89.650,453.541,355.673,-122.944,34.960,-182.490,46.980
69,45876.628000,244.139,81.980,-81.681,453.581,360.463,-125.779,36.960,-9.490,-3.020
70,45876.663000,238.208,79.969,-81.681,452.585,356.656,-121.943,-61.040,66.510,-23.020
71,45876.700000,230.301,76.951,-74.708,450.730,364.447,-119.813,-97.040,125.510,-30.020
72,45876.740000,223.382,76.951,-62.755,454.628,366.513,-115.836,-87.040,121.510,-23.020
73,45876.782000,226.347,75.945,-54.786,454.632,365.672,-109.971,-56.040,84.510,-13.020
74,45876.823000,226.347,76.951,-47.813,452.667,362.719,-111.021,31.960,-23.490,-6.020
75,45876.863000,230.301,79.969,-47.813,450.730,363.563,-115.910,82.960,-133.490,0.980
76,45876.883000,231.290,87.010,-59.767,451.625,357.596,-122.905,143.960,-217.490,15.980
77,45876.919000,237.220,83.992,-63.751,451.675,364.241,-129.622,151.960,-236.490,25.980
78,45876.961000,234.255,87.010,-88.654,449.712,362.194,-133.594,47.960,-152.490,38.980
79,45877.6000,234.255,75.945,-89.650,448.672,354.439,-132.788,-46.040,-51.490,27.980
80,45877.43000,238.208,79.969,-84.669,448.714,358.366,-130.739,-81.040,65.510,-5.020
81,45877.83000,230.301,82.986,-77.696,455.507,360.395,-129.699,-78.040,111.510,-23.020
82,45877.123000,221.405,73.933,-70.724,451.694,365.298,-125.676,-148.040,99.510,-17.020
83,45877.164000,214.486,65.886,-65.743,448.791,364.385,-121.780,-96.040,83.510,-9.020
84,45877.179000,218.440,67.898,-59.767,449.744,362.496,-119.858,-22.040,50.510,-14.020
85,45877.223000,230.301,76.951,-54.786,449.636,351.774,-122.058,79.960,-14.490,-22.020
86,45877.259000,242.162,96.063,-62.755,449.709,359.519,-122.866,113.960,-38.490,-25.020
87,45877.300000,235.243,92.039,-75.704,449.782,367.264,-123.675,-22.040,-55.490,8.980
88,45877.339000,230.301,77.957,-76.700,448.758,361.430,-123.807,-98.040,-13.490,9.980
89,45877.380000,226.347,72.927,-75.704,450.745,366.346,-121.732,-103.040,60.510,-6.020
90,45877.428000,226.347,79.969,-70.724,451.686,362.580,-116.910,-66.040,110.510,-15.020
91,45877.463000,224.371,81.980,-66.739,446.905,368.358,-116.792,-32.040,125.510,-12.020
92,45877.508000,232.278,83.992,-59.767,448.891,372.390,-110.815,-20.040,117.510,-9.020
93,45877.523000,226.347,80.974,-54.786,447.900,369.511,-108.919,-21.040,64.510,-8.020
94,45877.563000,232.278,78.963,-48.809,449.800,366.552,-111.923,17.960,0.510,-2.020
95,45877.603000,230.301,87.010,-47.813,448.823,365.572,-111.947,43.960,-94.490,2.980
96,45877.643000,233.266,88.016,-54.786,447.849,365.498,-114.892,96.960,-179.490,21.980
97,45877.680000,232.278,87.010,-61.759,448.845,370.189,-122.631,111.960,-228.490,25.980
98,45877.724000,231.290,83.992,-69.728,446.852,365.208,-127.650,87.960,-238.490,27.980
99,45877.763000,231.290,79.969,-86.661,449.696,360.274,-132.656,77.960,-173.490,24.980
100,45877.803000,226.347,81.980,-88.654,448.707,358.301,-133.683,-15.040,-54.490,17.980
101,45877.820000,231.290,75.945,-81.681,445.803,358.251,-134.671,-34.040,29.510,7.980
102,45877.865000,224.371,77.957,-79.689,442.975,365.106,-130.602,-82.040,83.510,-5.020
103,45877.914000,230.301,75.945,-69.728,448.780,365.162,-130.588,-66.040,102.510,-5.020
104,45877.940000,230.301,80.974,-69.728,449.761,365.301,-124.699,-54.040,103.510,-10.020
105,45877.980000,225.359,84.998,-65.743,447.814,363.405,-121.804,-65.040,67.510,-3.020
106,45878.20000,232.278,75.945,-62.755,448.819,367.298,-121.715,14.960,54.510,-4.020
107,45878.60000,228.324,87.010,-70.724,449.808,369.271,-120.689,-30.040,47.510,-5.020
108,45878.99000,233.266,82.986,-68.732,448.807,365.421,-118.815,-7.040,78.510,-4.020
109,45878.124000,231.290,83.992,-69.728,448.833,367.427,-115.828,-47.040,114.510,-8.020
110,45878.164000,229.313,82.986,-68.732,446.852,361.691,-111.056,-88.040,142.510,-6.020
111,45878.200000,228.324,79.969,-66.739,450.755,364.685,-109.020,-82.040,178.510,-8.020
112,45878.244000,228.324,81.980,-64.747,446.000,371.585,-102.013,-73.040,201.510,-11.020
113,45878.284000,231.290,78.963,-58.770,452.776,370.809,-96.132,-79.040,221.510,-8.020
114,45878.327000,231.290,83.992,-50.802,448.912,369.952,-89.294,-44.040,215.510,-8.020
115,45878.360000,219.429,77.957,-43.829,451.819,370.908,-91.228,-62.040,139.510,13.980
116,45878.404000,238.208,80.974,-12.949,452.742,366.084,-90.353,9.960,-52.490,16.980
117,45878.442000,254.023,95.057,-21.914,450.817,367.921,-94.238,187.960,-128.490,17.980
118,45878.460000,236.232,108.134,-39.844,450.818,369.690,-102.045,45.960,-344.490,75.980
119,45878.504000,225.359,71.921,-60.763,449.764,362.690,-111.028,49.960,-402.490,86.980
120,45878.550000,233.266,73.933,-92.638,451.692,362.645,-113.967,-38.040,-217.490,62.980
121,45878.589000,233.266,70.916,-97.619,449.786,365.538,-113.907,-71.040,2.510,24.980
122,45878.624000,236.232,76.951,-73.712,452.676,362.805,-107.097,-43.040,227.510,-28.020
123,45878.664000,228.324,83.992,-58.770,452.724,366.796,-102.105,-72.040,269.510,-34.020
124,45878.700000,221.405,88.016,-54.786,456.653,371.796,-97.082,-117.040,196.510,2.980
125,45878.739000,232.278,80.974,-35.860,455.638,366.048,-93.289,-61.040,110.510,21.980
126,45878.760000,231.290,83.992,-35.860,454.604,359.242,-93.442,27.960,-11.490,28.980
127,45878.803000,233.266,81.980,-44.825,454.697,369.814,-98.111,32.960,-163.490,44.980
128,45878.848000,234.255,82.986,-55.782,452.691,362.956,-100.229,103.960,-195.490,41.980
129,45878.883000,233.266,79.969,-81.681,453.676,365.770,-105.067,48.960,-121.490,47.980
130,45878.920000,239.197,72.927,-76.700,457.508,361.924,-105.145,-30.040,5.510,28.980
131,45878.962000,238.208,71.921,-66.739,455.554,359.079,-101.289,-56.040,123.510,-7.020
132,45879.2000,232.278,81.980,-61.759,457.514,361.104,-98.298,-39.040,141.510,-8.020
133,45879.42000,227.336,79.969,-49.805,457.589,367.987,-94.223,-10.040,95.510,4.980
134,45879.63000,227.336,78.963,-42.833,452.658,359.116,-98.353,-3.040,18.510,9.980
135,45879.104000,233.266,81.980,-42.833,455.584,361.129,-96.341,41.960,-105.490,12.980
136,45879.147000,232.278,80.974,-48.809,457.519,362.032,-100.239,59.960,-199.490,21.980
137,45879.200000,226.347,77.957,-50.802,454.549,356.955,-109.184,69.960,-285.490,27.980
138,45879.224000,232.278,76.951,-54.786,450.711,362.506,-119.856,99.960,-354.490,33.980
139,45879.263000,232.278,80.974,-68.732,454.539,359.501,-125.799,146.960,-338.490,33.980
140,45879.303000,235.243,76.951,-91.642,451.617,359.279,-134.636,139.960,-215.490,23.980
141,45879.344000,233.266,78.963,-95.626,454.524,359.350,-132.667,62.960,-70.490,10.980
142,45879.384000,233.266,75.945,-86.661,451.591,356.388,-133.719,0.960,87.510,-4.020
143,45879.403000,225.359,76.951,-72.716,451.574,354.468,-132.781,-24.040,129.510,2.980
144,45879.444000,224.371,75.945,-65.743,454.535,359.458,-127.761,4.960,102.510,24.980
145,45879.483000,225.359,78.963,-57.774,452.553,354.585,-127.873,28.960,13.510,40.980
146,45879.520000,230.301,74.939,-51.798,457.343,350.662,-131.873,71.960,-104.490,56.980
147,45879.562000,228.324,74.939,-64.747,453.517,356.320,-137.639,98.960,-227.490,68.980
148,45879.602000,231.290,71.921,-76.700,455.330,345.487,-145.721,142.960,-257.490,73.980
149,45879.640000,230.301,75.945,-101.603,454.424,352.231,-147.535,145.960,-151.490,58.980
150,45879.686000,237.220,67.898,-94.630,458.243,348.256,-153.499,28.960,-42.490,51.980
151,45879.706000,246.116,73.933,-88.654,458.174,340.553,-150.728,47.960,113.510,12.980
152,45879.740000,240.185,79.969,-91.642,456.276,343.533,-146.743,-17.040,189.510,13.980
153,45879.782000,226.347,82.986,-79.689,458.281,348.622,-136.820,-183.040,222.510,44.980
154,45879.822000,225.359,64.880,-65.743,461.194,348.758,-131.907,-154.040,200.510,60.980
155,45879.864000,218.440,63.874,-54.786,466.055,350.790,-129.890,-54.040,90.510,66.980
156,45879.910000,209.544,51.804,-50.802,462.145,346.848,-130.967,8.960,-82.490,75.980
157,45879.945000,225.359,64.880,-48.809,466.896,339.020,-136.034,196.960,-296.490,70.980
158,45879.994000,223.382,62.868,-43.829,463.953,338.603,-153.701,280.960,-498.490,87.980
159,45880.23000,254.023,48.786,-59.767,460.980,335.253,-172.414,758.960,-514.490,69.980
160,45880.43000,204.602,87.010,-129.494,458.922,327.014,-193.196,427.960,-601.490,26.980
161,45880.83000,277.745,52.809,-101.603,454.062,325.867,-199.115,51.960,-526.490,20.980
162,45880.122000,247.104,95.057,-140.451,452.031,317.887,-208.123,207.960,-292.490,-36.020
163,45880.163000,272.803,71.921,-112.560,445.297,322.589,-211.955,-186.040,-201.490,-57.020
164,45880.203000,263.907,106.122,-106.584,441.480,329.218,-217.700,276.960,-39.490,-163.020
165,45880.243000,242.162,112.157,-108.576,438.567,329.082,-222.612,585.960,86.510,-295.020
166,45880.284000,230.301,68.904,-84.669,430.736,321.973,-233.574,1418.960,288.510,-506.020
167,45880.324000,194.718,144.346,-86.661,424.900,320.730,-243.420,1713.960,302.510,-709.020
168,45880.344000,152.216,97.069,-82.677,411.236,313.284,-267.150,2723.960,339.510,-1215.020
169,45880.384000,143.320,64.880,-96.623,390.697,298.631,-306.745,3546.960,334.510,-1408.020
170,45880.423000,90.934,34.703,-109.572,378.816,278.303,-343.506,3477.960,333.510,-1388.020
171,45880.475000,144.309,-10.562,-104.591,373.645,250.403,-374.537,2932.960,163.510,-1194.020
172,45880.504000,299.490,-126.240,-116.545,365.522,216.714,-402.760,2566.960,122.510,-731.020
173,45880.543000,295.537,-97.069,-125.510,370.279,208.066,-400.981,-239.040,-198.490,427.980
174,45880.588000,227.336,103.104,-225.121,373.374,225.786,-390.774,-1748.040,27.510,416.980
175,45880.625000,288.618,120.204,-204.202,392.827,233.137,-373.899,886.960,1352.510,-197.020
176,45880.643000,286.641,60.857,-97.619,420.915,231.965,-351.311,-73.040,1446.510,-197.020
177,45880.684000,274.780,-9.556,-50.802,432.749,247.439,-314.658,-1262.040,1040.510,-39.020
178,45880.724000,263.907,26.656,-72.716,445.470,256.860,-288.925,-170.040,1070.510,-273.020
179,45880.763000,103.784,63.874,-80.685,452.395,268.080,-267.086,-486.040,752.510,-113.020
180,45880.804000,186.811,-44.762,-62.755,455.376,274.150,-257.139,-667.040,265.510,32.980
181,45880.844000,176.927,5.532,-2.988,460.222,273.398,-249.300,-804.040,-253.490,226.980
182,45880.885000,207.568,103.104,-86.661,464.069,272.336,-255.199,190.960,-45.490,227.980
183,45880.925000,336.062,2.515,-5.977,463.053,269.220,-264.097,41.960,-328.490,121.980
184,45880.965000,189.776,72.927,-145.432,455.270,266.965,-274.950,-563.040,-935.490,280.980
185,45880.987000,173.961,40.739,-222.132,454.228,261.843,-286.834,172.960,-477.490,137.980
186,45881.33000,286.641,9.556,-127.502,462.845,252.262,-285.067,376.960,359.510,86.980
187,45881.65000,294.548,124.228,-92.638,465.797,256.282,-280.069,-226.040,537.510,-69.020
188,45881.107000,221.405,79.969,-106.584,478.369,251.960,-261.505,-207.040,891.510,-68.020
189,45881.145000,229.313,71.921,-35.860,480.428,259.335,-235.840,-574.040,786.510,-14.020
190,45881.185000,252.046,33.697,-22.911,493.146,269.620,-214.991,-442.040,628.510,-37.020
191,45881.224000,183.846,-12.574,22.911,499.065,277.810,-198.126,-336.040,535.510,-54.020
192,45881.263000,202.625,-3.521,40.840,497.001,265.105,-201.354,85.960,-57.490,-10.020
193,45881.283000,193.730,63.874,12.949,491.202,268.630,-215.017,948.960,-721.490,104.980
194,45881.323000,256.000,98.075,-101.603,483.218,249.482,-243.898,-25.040,-1259.490,295.980
195,45881.368000,265.884,-33.697,-144.436,472.609,256.736,-262.392,136.960,-544.490,190.980
196,45881.403000,311.351,39.733,-74.708,473.544,253.789,-264.417,18.960,-38.490,-37.020
197,45881.444000,264.896,68.904,-101.603,475.441,249.925,-264.499,381.960,250.510,-253.020
198,45881.485000,260.942,83.992,-61.759,468.697,251.887,-260.547,23.960,94.510,-234.020
199,45881.527000,270.826,11.568,-58.770,471.728,264.601,-257.316,-58.040,420.510,-265.020
200,45881.564000,187.799,20.621,-1.992,464.982,266.542,-254.345,-618.040,-27.490,-86.020
201,45881.584000,131.459,61.862,-46.817,464.076,274.170,-260.062,-278.040,-681.490,147.980
202,45881.627000,140.355,105.116,-175.315,453.443,278.554,-276.658,-667.040,-978.490,54.980
203,45881.674000,360.772,-71.921,-59.767,448.537,274.321,-290.492,505.960,-380.490,-54.020
204,45881.704000,294.548,76.951,-91.642,437.824,270.010,-305.320,-170.040,-718.490,-79.020
205,45881.752000,321.236,41.745,-128.498,428.124,268.794,-312.232,117.960,-419.490,-181.020
206,45881.788000,348.911,-41.745,-171.331,424.464,289.252,-306.882,-1557.040,-121.490,-104.020
207,45881.824000,333.097,-114.169,-53.790,430.592,315.306,-271.968,-3931.040,-371.490,857.980
208,45881.865000,243.151,11.568,46.817,437.811,345.188,-195.779,-6775.040,-781.490,1843.980
209,45881.905000,166.054,165.470,74.708,457.464,355.344,-95.484,-7684.040,-921.490,1990.980
210,45881.925000,68.201,271.088,25.899,484.546,332.652,8.019,-8285.040,-1145.490,1756.980
211,45881.965000,129.483,107.128,27.891,505.529,285.955,81.557,-6366.040,-846.490,1215.980
212,45882.5000,131.459,141.328,-74.708,507.345,276.028,70.553,188.960,-92.490,-125.020
213,45882.45000,329.143,65.886,13.946,506.530,295.091,55.284,1474.960,38.510,-106.020
214,45882.85000,349.900,138.310,-86.661,509.318,280.815,66.741,-1750.040,-204.490,81.980
215,45882.127000,376.587,190.617,-136.467,502.654,286.186,93.324,-419.040,1124.510,-210.020
216,45882.170000,221.405,104.110,-163.362,482.523,291.295,158.119,-1981.040,1702.510,-380.020
217,45882.205000,220.417,-164.464,-492.078,469.929,282.197,191.233,-1153.040,360.510,-6.020
218,45882.224000,203.614,-152.393,-492.078,475.608,281.930,132.399,1074.960,-1977.490,69.980
219,45882.314000,261.931,46.774,-309.790,478.434,286.511,74.648,176.960,-3831.490,630.980
220,45882.379000,242.162,28.668,-162.366,480.968,268.913,-20.862,-166.040,-4316.490,851.980
221,45882.455000,210.533,66.892,-77.696,459.467,263.982,-103.392,-389.040,-4199.490,586.980
222,45882.486000,234.255,59.851,-38.848,435.052,254.512,-170.339,312.960,-3244.490,355.980
223,45882.492000,226.347,73.933,-59.767,409.744,248.377,-217.600,623.960,-2363.490,153.980
224,45882.528000,259.954,100.086,-76.700,391.212,237.950,-242.387,714.960,-1074.490,32.980
225,45882.544000,274.780,108.134,-73.712,386.354,235.940,-243.422,434.960,-100.490,-97.020
226,45882.567000,275.768,139.316,-46.817,382.596,244.899,-231.464,10.960,829.510,-479.020
227,45882.584000,280.710,138.310,-18.926,387.659,262.961,-206.535,-235.040,1252.510,-763.020
228,45882.610000,247.104,112.157,11.953,385.000,281.120,-173.776,-718.040,1287.510,-800.020
229,45882.645000,134.425,28.668,-69.728,386.181,296.382,-142.054,-524.040,1191.510,-514.020
230,45882.687000,243.151,-328.424,-164.358,385.120,287.549,-146.175,2067.960,319.510,295.980
231,45882.727000,275.768,182.570,-97.619,391.660,271.305,-181.825,2984.960,149.510,142.980
232,45882.768000,308.386,84.998,-56.778,386.791,269.186,-187.766,-860.040,-866.490,544.980
233,45882.808000,304.432,168.487,-145.432,387.677,263.133,-198.686,547.960,-444.490,284.980
234,45882.845000,330.131,76.951,-199.222,383.721,256.990,-211.580,440.960,-260.490,-129.020
235,45882.864000,343.969,31.686,-182.288,377.867,252.058,-212.682,-3.040,141.510,27.980
236,45882.913000,273.792,42.750,-162.366,384.723,258.208,-200.763,-520.040,247.510,6.980
237,45882.948000,201.637,23.639,-140.451,390.637,266.355,-185.860,-750.040,298.510,-54.020
238,45882.993000,162.100,5.532,-132.482,390.678,268.512,-176.005,-763.040,189.510,-27.020
239,45883.32000,123.552,30.680,-142.444,392.706,276.470,-167.979,-560.040,-52.490,-40.020
240,45883.69000,130.471,31.686,-114.553,392.636,269.631,-170.092,88.960,-241.490,-113.020
241,45883.225000,220.417,95.057,-58.770,387.810,274.093,-185.694,416.960,-613.490,-80.020
242,45883.242000,362.749,144.346,-7.969,375.153,270.562,-208.354,12.960,-1203.490,71.980
243,45883.265000,436.880,143.340,-38.848,363.495,271.743,-237.773,-211.040,-1755.490,199.980
244,45883.281000,349.900,27.662,-205.198,342.067,264.870,-276.216,-54.040,-2023.490,-60.020
245,45883.281000,246.116,22.633,-339.673,327.483,262.269,-299.840,1016.960,-1469.490,-417.020
246,45883.300000,232.278,72.927,20.918,324.300,238.422,-323.912,1470.960,470.510,-523.020
247,45883.329000,97.853,26.656,-2.988,346.612,243.623,-317.866,546.960,1789.510,-816.020
248,45883.367000,106.749,104.110,-59.767,380.741,262.377,-274.229,-650.040,3138.510,-1380.020
249,45883.408000,153.205,27.662,-69.728,416.126,302.392,-190.890,-1356.040,3960.510,-1556.020
250,45883.445000,304.432,-14.585,-182.288,441.759,328.376,-79.445,-1299.040,4881.510,-1212.020
251,45883.465000,332.108,-66.892,-396.451,449.286,341.375,-241.930,1434.960,5135.510,-884.020
252,45883.508000,275.768,-36.715,-407.409,440.436,365.918,40.046,3138.960,3278.510,-1269.020
253,45883.549000,139.367,-194.640,-431.315,425.160,387.967,34.619,2987.960,1211.510,-619.020
254,45883.585000,455.660,-49.792,-92.638,436.647,388.663,-27.123,1485.960,-1966.490,443.980
255,45883.630000,475.429,-45.768,31.875,461.570,365.565,-29.544,-1373.040,-1262.490,1061.980
256,45883.667000,217.452,125.234,-145.432,459.449,355.837,-73.895,2182.960,-583.490,44.980
257,45883.707000,270.826,65.886,-135.471,464.217,351.699,-87.706,-300.040,-475.490,270.980
258,45883.750000,271.815,61.862,-91.642,463.263,352.704,-85.724,-73.040,-32.490,109.980
259,45883.797000,250.069,114.169,-77.696,463.241,352.488,-95.536,972.960,421.510,-225.020
260,45883.805000,227.336,60.857,-44.825,464.255,357.352,-95.425,490.960,345.510,-145.020
261,45883.845000,194.718,38.727,-23.907,455.467,351.204,-106.368,1386.960,265.510,-247.020
262,45883.885000,173.961,27.662,-41.837,452.523,352.535,-132.822,1933.960,77.510,-373.020
263,45883.925000,143.320,145.352,-80.685,439.758,343.567,-182.081,3213.960,7.510,-749.020
264,45883.970000,265.884,101.092,-58.770,427.088,340.791,-214.531,2440.960,-463.490,-791.020
265,45884.5000,307.398,45.768,-77.696,419.125,327.124,-258.981,2390.960,-508.490,-633.020
266,45884.47000,287.629,72.927,-135.471,405.335,308.783,-292.760,1268.960,-454.490,-283.020
267,45884.88000,296.525,81.980,-183.284,394.705,311.441,-299.588,410.960,-42.490,-112.020
268,45884.108000,251.058,130.263,-129.494,398.589,312.493,-297.595,445.960,404.510,-358.020
269,45884.149000,152.216,113.163,-89.650,398.556,308.652,-295.719,1085.960,922.510,-652.020
270,45884.189000,92.911,83.992,-100.607,396.453,293.812,-307.821,2508.960,911.510,-857.020
271,45884.229000,54.363,16.597,-91.642,394.375,281.862,-320.839,2535.960,597.510,-988.020
272,45884.280000,88.958,-26.656,-105.588,392.209,262.016,-339.917,2217.960,387.510,-827.020
273,45884.353000,173.961,-143.340,-112.560,396.916,251.125,-351.917,1430.960,186.510,-314.020
274,45884.378000,412.170,-23.639,-54.786,404.476,232.754,-352.308,303.960,50.510,481.980
275,45884.397000,237.220,203.694,-144.436,413.437,257.283,-343.900,-1518.040,-94.490,179.980
276,45884.409000,332.108,36.715,-167.346,424.920,242.984,-337.328,986.960,872.510,-131.020
277,45884.449000,261.931,72.927,-68.732,433.570,234.590,-325.728,-35.040,998.510,-126.020
278,45884.488000,285.652,34.703,-109.572,448.304,251.840,-297.856,-1001.040,819.510,-122.020
279,45884.530000,234.255,70.916,-100.607,459.033,256.302,-276.160,4.960,1156.510,-246.020
280,45884.567000,200.649,77.957,-40.840,471.854,273.727,-239.461,-950.040,1165.510,-57.020
281,45884.607000,179.892,22.633,-28.887,482.578,277.261,-215.825,-714.040,532.510,-49.020
282,45884.652000,262.919,68.904,55.782,481.692,283.314,-204.905,-354.040,115.510,42.980
283,45884.687000,232.278,77.957,-44.825,484.580,282.328,-206.882,227.960,-90.490,43.980
284,45884.732000,240.185,42.750,-29.883,485.526,280.375,-207.904,64.960,7.510,69.980
285,45884.747000,250.069,50.798,-31.875,482.606,280.174,-215.760,130.960,-288.490,-8.020
286,45884.787000,262.919,68.904,-56.778,481.547,271.362,-218.900,-157.040,-207.490,33.980
287,45884.828000,284.664,121.210,-67.735,477.767,280.990,-220.655,-170.040,-66.490,-4.020
288,45884.867000,299.490,83.992,-41.837,479.682,277.298,-212.888,-326.040,27.510,-8.020
289,45884.907000,313.328,51.804,-6.973,475.887,283.258,-204.918,-511.040,128.510,5.980
290,45884.948000,228.324,28.668,-34.864,483.697,289.288,-198.884,-603.040,219.510,231.980
291,45884.988000,177.915,12.574,-67.735,483.702,287.583,-188.135,-794.040,-134.490,458.980
292,45885.29000,145.297,23.639,-96.623,485.553,278.864,-188.324,-978.040,-579.490,559.980
293,45885.49000,110.703,31.686,-92.638,482.653,279.742,-191.253,-1243.040,-883.490,559.980
294,45885.94000,102.795,21.627,-13.946,484.505,274.562,-207.054,-965.040,-1120.490,422.980
295,45885.134000,242.162,21.627,-25.899,485.440,273.384,-216.885,-645.040,-594.490,190.980
296,45885.168000,312.340,61.862,-87.658,485.102,244.604,-245.964,2137.960,-269.490,40.980
297,45885.210000,372.633,116.181,-92.638,482.240,250.250,-252.709,-66.040,-239.490,-47.020
298,45885.250000,241.174,44.762,-107.580,477.410,251.152,-253.680,35.960,61.510,-113.020
299,45885.287000,248.093,47.780,-95.626,488.042,248.516,-245.871,385.960,461.510,52.980
300,45885.327000,246.116,53.815,-75.704,490.022,250.735,-234.050,-558.040,346.510,-6.020
301,45885.347000,263.907,9.556,-49.805,491.999,252.911,-224.190,-116.040,406.510,-132.020
302,45885.387000,212.510,5.532,-31.875,492.054,256.967,-216.255,48.960,259.510,-200.020
303,45885.427000,189.776,3.521,-26.895,491.098,257.950,-215.255,-19.040,-103.490,-104.020
304,45885.472000,185.822,91.033,-26.895,487.261,263.500,-225.927,59.960,-454.490,-32.020
305,45885.512000,252.046,45.768,-1.992,484.293,259.330,-237.794,67.960,-669.490,57.980
306,45885.552000,217.452,89.022,-105.588,475.502,254.909,-258.504,368.960,-772.490,67.980
307,45885.603000,275.768,77.957,-111.564,464.734,245.679,-276.384,28.960,-629.490,135.980
308,45885.630000,278.734,40.739,-152.405,463.876,257.277,-278.089,-225.040,-278.490,-71.020
309,45885.674000,284.664,9.556,-114.553,461.104,269.071,-269.988,-409.040,55.510,-312.020
310,45885.695000,264.896,1.509,-65.743,458.280,276.832,-268.841,-332.040,340.510,-360.020
311,45885.730000,214.486,-1.509,-39.844,453.620,292.577,-256.733,-812.040,88.510,-227.020
312,45885.769000,220.417,-60.857,-27.891,449.853,300.565,-244.796,-2141.040,-765.490,591.980
313,45885.814000,211.521,-79.969,17.930,450.913,305.860,-225.063,-3988.040,-1507.490,1506.980
314,45885.848000,139.367,82.986,-26.895,459.845,322.191,-192.320,-5291.040,-1627.490,1709.980
315,45885.888000,129.483,170.499,-69.728,472.570,328.138,-148.031,-4718.040,-1227.490,1266.980
316,45885.927000,286.641,437.061,-115.549,475.583,336.279,-132.154,-2210.040,-458.490,313.980
317,45885.969000,274.780,268.071,-127.502,470.725,337.785,-149.782,1476.960,-44.490,-44.020
318,45885.989000,283.676,49.792,-163.362,462.087,342.770,-139.883,-1497.040,-252.490,-148.020
319,45886.29000,295.537,43.756,-139.455,463.296,360.061,-104.193,-1422.040,562.510,-130.020
320,45886.69000,244.139,65.886,-85.665,460.576,370.582,-65.720,-1315.040,818.510,-57.020
321,45886.110000,197.683,53.815,-89.650,460.628,367.562,-26.560,-1557.040,489.510,16.980
322,45886.150000,175.938,75.945,-122.521,455.897,373.814,-4.857,-1123.040,142.510,44.980
323,45886.190000,170.996,42.750,-113.556,455.857,369.909,-5.924,-569.040,-535.490,-117.020
324,45886.230000,191.753,27.662,-66.739,449.126,377.287,-20.485,143.960,-742.490,-85.020
325,45886.270000,201.637,79.969,6.973,448.105,377.644,-47.937,11.960,-710.490,105.980
326,45886.294000,229.313,210.735,278.910,450.102,380.014,-29.248,-1291.040,336.510,-29.020
327,45886.328000,358.795,169.493,-38.848,443.378,387.457,-40.865,1008.960,239.510,-337.020
328,45886.369000,352.865,229.847,-68.732,429.820,390.712,-63.376,2275.960,669.510,-573.020
329,45886.409000,319.259,96.063,-155.393,425.047,394.807,-51.528,-14.040,1018.510,-481.020
330,45886.449000,263.907,-72.927,-134.475,416.578,404.927,15.364,-2992.040,1810.510,-9.020
331,45886.490000,81.050,-201.682,-492.078,413.734,395.772,85.763,-2211.040,766.510,225.980
332,45886.549000,116.633,-285.171,-492.078,426.051,374.039,62.751,-867.040,-2894.490,1347.980
333,45886.615000,335.073,49.792,-414.381,445.817,333.742,-13.613,-1718.040,-4745.490,1754.980
334,45886.632000,255.012,-0.503,-210.179,433.859,315.312,-96.423,-1308.040,-5236.490,1258.980
335,45886.639000,276.757,21.627,13.946,402.648,306.424,-178.081,-617.040,-4911.490,684.980
336,45886.668000,168.031,34.703,264.965,378.262,294.581,-220.563,1066.960,-3145.490,473.980
337,45886.712000,136.402,33.697,147.424,373.096,267.609,-253.535,1877.960,47.510,339.980
338,45886.752000,299.490,195.646,-383.502,388.352,241.849,-240.345,2318.960,2055.510,221.980
339,45886.797000,512.988,230.853,-103.595,382.470,234.888,-245.415,2363.960,536.510,-441.020
340,45886.830000,512.988,172.511,14.942,389.477,253.940,-220.461,-300.040,655.510,-142.020
341,45886.899000,510.023,299.253,-126.506,389.482,253.983,-218.499,57.960,116.510,-210.020
342,45886.974000,433.915,171.505,-82.677,389.484,254.005,-217.518,-155.040,-24.490,-8.020
343,45887.70000,293.560,125.234,10.957,398.333,265.136,-200.581,-1507.040,-147.490,294.980
344,45887.84000,202.625,-0.503,-208.187,396.383,265.850,-211.356,-1126.040,-1437.490,354.980
345,45887.114000,177.915,89.022,-219.144,380.746,258.019,-251.770,1051.960,-1700.490,2.980
346,45887.123000,233.266,66.892,-103.595,361.154,241.412,-292.387,751.960,-1565.490,-10.020
347,45887.123000,220.417,47.780,-35.860,349.483,239.832,-315.002,155.960,-958.490,-161.020
348,45887.137000,193.730,59.851,-13.946,350.427,237.857,-317.005,-175.040,163.510,-367.020
349,45887.175000,140.355,29.674,-28.887,362.158,247.937,-304.989,-619.040,1277.510,-651.020
350,45887.210000,147.274,20.621,-60.763,390.516,270.476,-263.241,-447.040,2852.510,-1124.020
351,45887.230000,195.707,28.668,-109.572,425.737,296.597,-193.941,-328.040,3720.510,-1336.020
352,45887.270000,237.220,17.603,-169.339,446.595,333.687,-104.814,144.960,4567.510,-1642.020
353,45887.310000,351.876,-61.862,-256.996,451.758,350.066,-24.025,1644.960,4689.510,-1419.020
354,45887.352000,264.896,-67.898,-343.658,438.561,378.801,8.947,3327.960,3441.510,-1246.020
355,45887.392000,143.320,-122.216,-299.829,426.127,395.010,1.435,3688.960,2002.510,-1041.020
356,45887.437000,207.568,-27.662,-314.770,419.366,409.141,-59.067,2433.960,-1572.490,-82.020
357,45887.472000,268.849,-52.809,-61.759,427.828,392.786,-100.600,547.960,-494.490,472.980
358,45887.513000,234.255,204.699,-139.455,442.094,371.202,-117.720,499.960,-518.490,904.980
359,45887.549000,342.981,290.200,-143.440,452.597,357.649,-120.941,13.960,-216.490,366.980
360,45887.569000,327.166,165.470,-82.677,456.436,354.752,-121.977,567.960,271.510,267.980
361,45887.610000,263.907,54.821,-73.712,462.211,349.242,-110.320,-158.040,339.510,128.980
362,45887.653000,202.625,77.957,-45.821,458.414,355.181,-103.331,336.960,705.510,-88.020
363,45887.689000,147.274,73.933,-48.809,456.524,359.995,-104.209,335.960,-60.490,-272.020
364,45887.735000,97.853,24.644,-59.767,448.683,354.547,-127.882,1101.960,-422.490,-318.020
365,45887.770000,284.664,53.815,-71.720,438.916,352.684,-164.229,1791.960,-396.490,-297.020
366,45887.810000,286.641,77.957,-80.685,433.060,353.016,-190.712,680.960,-598.490,-168.020
367,45887.850000,312.340,28.668,-93.634,427.165,346.811,-205.572,602.960,-562.490,-262.020
368,45887.870000,276.757,170.499,-102.599,416.525,349.361,-217.305,645.960,-226.490,-292.020
369,45887.910000,188.788,149.375,-114.553,409.740,351.819,-234.917,1379.960,139.510,-546.020
370,45887.952000,87.969,53.815,-107.580,403.722,335.625,-262.748,3618.960,904.510,-987.020
371,45887.990000,50.409,96.063,-94.630,397.428,295.655,-312.681,4649.960,849.510,-1139.020
372,45888.49000,120.587,-70.916,-143.440,397.035,261.955,-344.811,3309.960,459.510,-998.020
373,45888.102000,401.297,-244.935,-48.809,404.433,230.575,-363.144,2195.960,247.510,-64.020
374,45888.130000,262.919,65.886,-119.533,405.482,237.531,-356.123,-1634.040,-391.490,414.980
375,45888.182000,221.405,28.668,-210.179,411.324,241.471,-356.023,80.960,245.510,-68.020
376,45888.214000,392.402,124.228,-76.700,426.579,217.459,-351.621,916.960,1030.510,-186.020
377,45888.230000,274.780,70.916,-154.397,442.218,229.713,-330.722,-678.040,753.510,-288.020
378,45888.252000,226.347,60.857,-110.568,452.999,239.072,-306.955,153.960,1209.510,-361.020
379,45888.293000,240.185,116.181,-81.681,463.704,239.780,-279.459,-313.040,1128.510,-293.020
380,45888.333000,218.440,38.727,-25.899,472.564,251.018,-257.616,-709.040,864.510,-179.020
381,45888.374000,192.741,63.874,-10.957,477.470,255.251,-243.782,-313.040,429.510,-64.020
382,45888.475000,190.764,29.674,-32.872,475.603,261.165,-238.752,42.960,124.510,-29.020
383,45888.502000,200.649,2.515,-9.961,476.557,261.045,-244.636,8.960,-391.490,52.980
384,45888.548000,272.803,49.792,-9.961,467.807,260.551,-263.298,405.960,-699.490,65.980
385,45888.557000,170.996,79.969,-105.588,459.920,250.249,-287.080,369.960,-944.490,28.980
386,45888.582000,161.112,-18.609,-156.389,450.163,245.840,-306.811,131.960,-755.490,51.980
387,45888.598000,347.923,96.063,-123.518,446.308,248.585,-312.642,-340.040,-238.490,65.980
388,45888.632000,331.120,112.157,-128.498,443.445,251.577,-307.679,-177.040,66.510,-99.020
389,45888.672000,304.432,121.210,-104.591,444.489,256.721,-294.814,-537.040,367.510,31.980
390,45888.713000,201.637,52.809,-98.615,452.344,264.952,-276.962,-732.040,484.510,96.980
391,45888.753000,121.575,3.521,-84.669,457.236,266.401,-257.307,-585.040,639.510,133.980
392,45888.795000,133.436,14.585,-69.728,461.206,274.443,-246.333,-466.040,213.510,148.980
393,45888.810000,134.425,24.644,-63.751,467.019,273.702,-238.492,-562.040,18.510,160.980
394,45888.854000,162.100,23.639,-22.911,464.162,279.391,-243.275,-437.040,-556.490,147.980
395,45888.890000,217.452,63.874,-45.821,464.079,274.191,-259.081,13.960,-996.490,200.980
396,45888.930000,230.301,-16.597,-57.774,450.412,265.839,-279.889,-59.040,-1026.490,81.980
397,45888.974000,402.286,266.059,-94.630,447.391,257.634,-298.710,1243.960,-272.490,243.980
398,45889.34000,228.324,-22.633,-183.284,446.410,257.495,-304.599,300.960,-115.490,32.980
399,45889.79000,268.849,69.910,-137.463,450.242,252.765,-300.773,257.960,482.510,-28.020
400,45889.93000,253.035,47.780,-106.584,457.980,250.187,-289.046,13.960,601.510,-62.020
401,45889.150000,246.116,58.845,-87.658,460.020,258.253,-276.114,25.960,639.510,-51.020
402,45889.173000,242.162,31.686,-59.767,471.628,255.712,-264.378,-194.040,556.510,-55.020
403,45889.192000,213.498,-23.639,-45.821,475.570,261.726,-257.372,85.960,430.510,-163.020
404,45889.234000,201.637,71.921,-39.844,478.509,264.753,-253.376,124.960,192.510,-130.020
405,45889.275000,211.521,69.910,-9.961,474.596,261.652,-260.318,210.960,-262.490,-33.020
406,45889.317000,254.023,67.898,-15.938,468.576,242.804,-276.439,546.960,-492.490,107.980
407,45889.355000,217.452,41.745,-70.724,459.859,244.380,-289.171,464.960,-801.490,245.980
408,45889.394000,255.012,59.851,-122.521,452.973,236.181,-306.039,15.960,-739.490,252.980
409,45889.442000,304.432,70.916,-127.502,446.174,235.856,-317.828,-207.040,-477.490,164.980
410,45889.452000,317.282,50.798,-127.502,443.371,246.464,-319.560,-712.040,-310.490,25.980
411,45889.492000,332.108,80.974,-106.584,437.666,254.412,-308.609,-939.040,-85.490,-134.020
412,45889.532000,285.652,57.839,-58.770,429.245,279.958,-290.407,-1231.040,144.510,-225.020
413,45889.575000,253.035,41.745,-46.817,428.568,306.507,-274.129,-1143.040,189.510,-255.020
414,45889.615000,189.776,30.680,-56.778,419.061,320.350,-258.151,-1902.040,-128.490,24.980
415,45889.652000,144.309,-1.509,-115.549,415.499,345.274,-226.224,-2879.040,-578.490,411.980
416,45889.692000,89.946,-43.756,-170.335,422.474,357.853,-186.704,-4568.040,-1560.490,1423.980
417,45889.733000,91.923,-5.532,-140.451,433.243,361.818,-143.444,-5213.040,-1878.490,1521.980
418,45889.753000,188.788,84.998,-4.981,446.874,364.539,-113.935,-3257.040,-1292.490,1151.980
419,45889.793000,272.803,224.817,-89.650,453.610,358.974,-105.218,-957.040,-310.490,155.980
420,45889.834000,308.386,49.792,-179.300,446.990,372.694,-96.102,-382.040,573.510,-645.020
421,45889.879000,310.363,-82.986,-189.261,445.287,385.469,-43.847,-3264.040,1113.510,-168.020
422,45889.915000,329.143,-209.729,-476.140,454.948,366.059,40.080,-4601.040,255.510,829.980
423,45890.60000,375.598,-136.299,-492.078,467.236,334.359,49.208,-3714.040,-2996.490,1081.980
424,45890.77000,339.027,-37.721,-372.545,466.917,322.493,-49.122,444.960,-4176.490,1078.980
425,45890.119000,257.977,119.198,-22.911,442.151,285.883,-158.840,1451.960,-4374.490,1534.980
426,45890.138000,183.846,124.228,122.521,414.648,256.990,-225.244,146.960,-3745.490,1509.980
427,45890.145000,77.097,31.686,64.747,403.945,254.534,-243.953,-257.040,-1672.490,976.980
428,45890.162000,256.000,120.204,222.132,395.188,249.574,-245.062,-455.040,-458.490,381.980
429,45890.192000,347.923,89.022,146.428,399.087,249.007,-228.396,1717.960,1727.510,-81.020
430,45890.224000,512.988,154.405,-216.156,402.129,260.060,-212.453,-599.040,216.510,-280.020
431,45890.347000,512.988,142.334,104.591,401.194,263.006,-210.428,-418.040,97.510,140.980
432,45890.363000,512.988,331.442,76.700,395.285,254.903,-223.369,65.960,-697.490,157.980
433,45890.378000,512.988,252.982,44.825,393.281,250.698,-237.196,-413.040,-1196.490,309.980
434,45890.387000,348.911,-15.591,-177.307,383.481,242.363,-258.976,-247.040,-1400.490,216.980
435,45890.403000,178.903,0.503,-129.494,378.562,239.770,-286.503,974.960,-611.490,-299.020
436,45890.443000,106.749,87.010,148.420,389.123,230.294,-280.807,-63.040,1107.510,-518.020
437,45890.483000,-30.641,73.933,75.704,417.556,259.715,-234.984,-815.040,2413.510,-909.020
438,45890.524000,127.506,8.550,6.973,445.005,279.288,-151.135,-1323.040,3806.510,-1269.020
439,45890.544000,318.270,83.992,-237.074,466.901,318.826,-39.397,-889.040,4728.510,-1186.020
440,45890.584000,296.525,1.509,-391.471,466.188,330.056,30.478,281.960,4308.510,-1027.020
441,45890.622000,316.293,-54.821,-492.078,455.908,355.432,85.937,1935.960,2882.510,-986.020
442,45890.663000,246.116,32.692,-492.078,442.528,376.249,67.738,2723.960,921.510,-635.020
443,45890.709000,299.490,209.729,201.214,450.172,369.248,54.850,-196.040,-211.490,496.980
444,45890.747000,344.958,133.281,-107.580,453.969,361.541,55.668,-1289.040,-753.490,403.980
445,45890.787000,224.371,138.310,-43.829,455.941,368.960,39.165,1105.960,-98.490,-27.020
446,45890.828000,167.042,52.809,-45.821,451.096,370.595,27.423,699.960,-135.490,-46.020
447,45890.867000,132.448,52.809,-56.778,451.977,364.499,14.541,881.960,-215.490,-199.020
448,45890.887000,100.819,18.609,-49.805,443.332,379.970,-28.282,2314.960,-434.490,-598.020
449,45890.927000,212.510,110.145,-53.790,434.533,384.287,-92.929,2826.960,-429.490,-544.020
450,45890.967000,367.691,26.656,-55.782,424.723,382.014,-147.917,2707.960,-415.490,-463.020
451,45891.7000,319.259,67.898,-126.506,420.658,371.297,-192.293,1825.960,-421.490,-169.020
452,45891.43000,219.429,143.340,-224.125,414.786,367.076,-205.148,1031.960,68.510,-171.020
453,45891.85000,145.297,80.974,-192.249,411.824,362.949,-215.052,2090.960,940.510,-600.020
454,45891.125000,57.328,-8.550,-171.331,412.415,331.179,-248.118,5234.960,2040.510,-1352.020
455,45891.167000,208.556,118.193,-128.498,416.908,303.265,-284.032,4700.960,1984.510,-1334.020
456,45891.187000,144.309,10.562,-68.732,427.386,288.590,-294.142,2065.960,965.510,-623.020
457,45891.224000,244.139,84.998,-14.942,435.951,274.112,-294.446,859.960,500.510,67.980
458,45891.264000,323.212,13.580,-15.938,441.746,272.313,-290.551,-525.040,-310.490,463.980
459,45891.304000,253.035,112.157,-97.619,440.695,265.335,-298.553,222.960,-509.490,235.980
460,45891.343000,233.266,54.821,-134.475,436.713,257.186,-314.433,331.960,-347.490,174.980
461,45891.384000,203.614,35.709,-151.409,434.751,255.139,-318.405,306.960,-11.490,120.980
462,45891.424000,335.073,80.974,-123.518,439.560,252.273,-318.459,60.960,118.510,32.980
463,45891.463000,336.062,67.898,-103.595,437.593,247.551,-311.703,-211.040,64.510,-140.020
464,45891.482000,264.896,117.187,-105.588,434.710,249.464,-311.667,762.960,452.510,-424.020
465,45891.523000,147.274,33.697,-84.669,426.954,248.353,-314.650,1375.960,586.510,-959.020
466,45891.563000,142.332,15.591,-71.720,428.859,246.323,-319.594,1953.960,718.510,-942.020
467,45891.605000,130.471,20.621,-95.626,424.938,242.272,-325.576,1174.960,244.510,-473.020
468,45891.689000,96.865,9.556,-109.572,425.892,242.152,-331.461,-173.040,-363.490,99.980
469,45891.705000,90.934,8.550,-105.588,421.060,243.033,-333.413,-1224.040,-943.490,529.980
470,45891.745000,357.807,-74.939,-110.568,418.262,254.569,-337.085,-1141.040,-691.490,372.980
471,45891.782000,247.104,69.910,-191.253,430.718,242.976,-340.258,602.960,82.510,272.980
472,45891.819000,435.892,130.263,-73.712,431.565,230.386,-339.555,381.960,522.510,192.980
473,45891.828000,234.255,112.157,-149.416,439.341,231.691,-327.742,-190.040,363.510,95.980
474,45891.874000,261.931,60.857,-114.553,449.961,227.178,-317.032,-193.040,567.510,82.980
475,45891.917000,252.046,54.821,-88.654,454.921,236.329,-300.148,-775.040,457.510,58.980
476,45891.988000,249.081,28.668,-60.763,462.869,254.247,-283.062,-673.040,320.510,-4.020
477,45892.5000,204.602,35.709,-27.891,462.908,256.383,-274.188,-538.040,84.510,55.980
478,45892.34000,172.973,-26.656,-42.833,459.952,252.320,-281.150,-270.040,-363.490,207.980
479,45892.84000,185.822,71.921,-105.588,458.008,252.215,-285.079,423.960,-437.490,318.980
480,45892.118000,174.950,98.075,-126.506,452.035,238.221,-301.092,0.960,-629.490,218.980
481,45892.127000,249.081,5.532,-107.580,447.147,235.046,-310.980,142.960,-435.490,273.980
482,45892.168000,306.409,94.051,-118.537,447.146,236.793,-319.767,-420.040,-423.490,149.980
483,45892.204000,325.189,74.939,-145.432,443.351,243.638,-315.700,-625.040,-280.490,85.980
484,45892.244000,316.293,62.868,-119.533,440.596,256.468,-304.634,-1526.040,-69.490,42.980
485,45892.284000,251.058,12.574,-69.728,439.851,275.315,-285.585,-2082.040,91.510,103.980
486,45892.324000,165.066,-30.680,-63.751,441.114,299.294,-254.649,-2557.040,23.510,459.980
487,45892.364000,116.633,-34.703,-95.626,446.317,327.496,-209.883,-4113.040,-691.490,934.980
488,45892.404000,96.865,-25.650,-109.572,455.243,341.129,-167.393,-4080.040,-910.490,982.980
489,45892.428000,122.564,118.193,-92.638,460.127,340.745,-142.874,-2484.040,-715.490,545.980
490,45892.468000,217.452,154.405,-86.661,452.405,344.359,-151.636,652.960,-210.490,-415.020
491,45892.508000,330.131,121.210,-40.840,446.575,348.466,-182.939,1595.960,-166.490,-525.020
492,45892.548000,320.247,76.951,-220.140,438.876,352.296,-181.889,-734.040,-244.490,-447.020
493,45892.584000,509.035,115.175,-132.482,433.396,380.006,-154.808,-1076.040,1185.510,-867.020
494,45892.638000,432.927,78.963,-104.591,421.221,406.636,-85.596,-2247.040,1637.510,-910.020
495,45892.665000,227.336,-204.699,-356.607,417.522,408.237,-11.038,-4676.040,-678.490,853.980
496,45892.705000,240.185,-187.599,-466.179,437.604,376.245,25.559,-6196.040,-3478.490,1752.980
497,45892.874000,249.081,-130.263,-375.533,456.507,344.870,-41.782,-2303.040,-4663.490,1523.980
498,45892.880000,131.459,-33.697,-152.405,444.566,325.729,-112.840,-128.040,-4997.490,1748.980
499,45892.918000,71.166,-87.010,-14.942,424.695,290.590,-201.921,-317.040,-4642.490,1927.980
500,45892.935000,73.143,-67.898,10.957,390.438,262.687,-264.395,71.960,-3241.490,1632.980
501,45892.935000,147.274,26.656,42.833,367.924,241.457,-293.353,230.960,-1549.490,994.980
502,45893.20000,281.699,113.163,87.658,370.865,243.621,-284.472,-1130.040,115.510,662.980
503,45893.95000,512.988,84.998,1.992,376.911,261.843,-252.674,-1123.040,729.510,-51.020
504,45893.109000,512.988,419.961,103.595,381.612,248.255,-254.927,1776.960,539.510,-138.020
505,45893.118000,512.988,302.271,-8.965,377.832,256.998,-252.780,-983.040,-599.490,214.980
506,45893.126000,395.367,98.075,-195.237,378.712,248.248,-253.953,-936.040,-564.490,556.980
507,45893.126000,281.699,70.916,-174.319,378.650,245.012,-268.734,-32.040,-588.490,-21.020
508,45893.147000,243.151,6.538,41.837,384.462,246.903,-273.584,679.960,340.510,-300.020
509,45893.187000,115.645,-7.544,89.650,408.686,245.736,-249.042,425.960,2014.510,-470.020
510,45893.229000,147.274,5.532,8.965,442.670,247.252,-195.000,88.960,3029.510,-716.020
511,45893.269000,349.900,41.745,-147.424,459.403,266.894,-147.457,130.960,3686.510,-1177.020
512,45893.310000,327.166,-25.650,-268.949,479.027,279.402,-72.608,501.960,3702.510,-1207.020
513,45893.345000,177.915,2.515,-348.638,475.574,308.015,-5.295,1709.960,3299.510,-1104.020
514,45893.385000,102.795,20.621,-358.599,465.207,326.401,41.182,1637.960,2673.510,-1206.020
515,45893.407000,10.873,-60.857,-326.724,447.179,356.016,72.202,1100.960,1775.510,-1077.020
516,45893.447000,97.853,-62.868,-341.665,424.139,374.236,72.558,1740.960,1084.510,-1069.020
517,45893.495000,168.031,-66.892,-254.008,417.527,398.593,35.819,2551.960,574.510,-556.020
518,45893.528000,238.208,0.503,-205.198,421.297,395.912,0.464,2400.960,-130.490,89.980
519,45893.568000,385.483,20.621,98.615,429.953,397.270,-29.888,23.960,-737.490,240.980
520,45893.609000,307.398,440.079,-77.696,445.254,382.513,-45.874,980.960,-316.490,699.980
521,45893.648000,259.954,349.548,-92.638,445.100,372.222,-72.581,983.960,-401.490,44.980
522,45893.688000,284.664,117.187,-91.642,452.772,367.249,-81.501,220.960,25.510,417.980
523,45893.708000,238.208,33.697,-102.599,453.707,361.671,-70.835,-469.040,184.510,264.980
524,45893.748000,254.023,62.868,-61.759,453.683,357.917,-65.035,494.960,511.510,-13.020
525,45893.789000,216.463,47.780,-40.840,453.685,357.938,-64.054,345.960,375.510,-71.020
526,45893.829000,228.324,42.750,-6.973,450.826,362.721,-65.915,424.960,144.510,-29.020
527,45893.865000,182.857,56.833,-11.953,453.616,353.753,-77.876,636.960,-190.490,-26.020
528,45893.909000,170.008,71.921,-34.864,446.848,360.763,-109.116,848.960,-894.490,-80.020
529,45893.947000,231.290,155.411,-74.708,437.057,356.915,-147.467,595.960,-1354.490,-194.020
530,45893.990000,291.583,34.703,-76.700,423.418,354.993,-184.804,949.960,-1252.490,-337.020
531,45894.5000,224.371,113.163,-156.389,413.634,350.325,-216.309,1713.960,-567.490,-341.020
532,45894.47000,291.583,44.762,-193.245,404.765,339.000,-242.077,1878.960,27.510,-537.020
533,45894.88000,225.359,67.898,-203.206,394.909,324.839,-263.986,2011.960,845.510,-879.020
534,45894.129000,193.730,64.880,-184.280,392.895,317.894,-270.029,2167.960,1278.510,-1061.020
535,45894.169000,80.062,2.515,-144.436,394.694,306.932,-283.997,2759.960,1448.510,-944.020
536,45894.210000,285.652,76.951,-95.626,405.232,294.587,-276.404,991.960,1155.510,-414.020
537,45894.244000,111.691,33.697,-89.650,413.037,300.574,-272.332,398.960,733.510,-74.020
538,45894.292000,150.239,87.010,-82.677,418.787,293.942,-267.564,411.960,363.510,-49.020
539,45894.327000,302.456,-3.521,-7.969,421.623,288.059,-271.611,760.960,102.510,-98.020
540,45894.359000,209.544,119.198,-99.611,423.488,282.123,-277.623,-184.040,-264.490,299.980
541,45894.388000,149.251,117.187,-134.475,422.565,286.062,-274.595,-741.040,-497.490,367.980
542,45894.430000,297.514,-57.839,-72.716,423.385,273.213,-285.666,790.960,-20.490,120.980
543,45894.470000,235.243,64.880,-114.553,425.313,271.398,-280.799,-448.040,-57.490,157.980
544,45894.510000,300.479,78.963,-145.432,430.183,274.401,-278.761,362.960,305.510,-182.020
545,45894.554000,311.351,80.974,-117.541,431.223,281.271,-275.664,397.960,598.510,-296.020
546,45894.587000,253.035,98.075,-105.588,440.011,287.418,-264.722,313.960,813.510,-364.020
547,45894.627000,192.741,122.216,-88.654,439.998,282.887,-250.113,166.960,865.510,-401.020
548,45894.647000,175.938,47.780,-54.786,441.993,287.890,-244.113,1099.960,715.510,-346.020
549,45894.688000,143.320,42.750,-64.747,443.848,280.099,-246.244,762.960,217.510,-87.020
550,45894.737000,147.274,1.509,-55.782,443.780,274.166,-251.279,-37.040,-388.490,227.980
551,45894.770000,225.359,-32.692,3.984,447.632,273.146,-255.216,-642.040,-506.490,541.980
552,45894.810000,272.803,56.833,-99.611,450.520,272.161,-257.193,-646.040,-588.490,529.980
553,45894.850000,273.792,-62.868,-141.447,449.441,263.155,-269.163,167.960,-254.490,-91.020
554,45894.893000,343.969,11.568,-100.607,447.489,261.216,-268.230,1095.960,427.510,-197.020
555,45894.927000,243.151,48.786,-88.654,449.534,271.094,-261.142,-48.040,341.510,-237.020
556,45894.947000,247.104,70.916,-82.677,450.501,270.219,-257.236,270.960,431.510,-162.020
557,45894.988000,248.093,67.898,-67.735,455.361,271.366,-251.317,-233.040,283.510,-69.020
558,45895.28000,232.278,25.650,-60.763,458.296,273.466,-245.380,-184.040,227.510,-118.020
559,45895.68000,228.324,59.851,-50.802,454.449,274.528,-239.480,-58.040,150.510,-93.020
560,45895.112000,208.556,39.733,-33.868,456.457,282.293,-240.284,-132.040,-131.490,-29.020
561,45895.147000,199.660,28.668,-31.875,450.646,282.171,-243.241,-136.040,-399.490,-16.020
562,45895.190000,233.266,62.868,-72.716,445.787,282.793,-256.967,-25.040,-538.490,-28.020
563,45895.230000,260.942,84.998,-76.700,443.890,288.427,-264.691,-204.040,-598.490,-3.020
564,45895.270000,262.919,76.951,-123.518,434.177,286.197,-273.587,-77.040,-520.490,-10.020
565,45895.290000,277.745,96.063,-121.525,424.486,285.067,-276.575,-732.040,-389.490,-68.020
566,45895.330000,304.432,21.627,-85.665,416.955,304.603,-267.331,-926.040,-300.490,7.980
567,45895.370000,230.301,82.986,-86.661,412.311,323.132,-261.046,-1165.040,-376.490,-17.020
568,45895.410000,209.544,133.281,-77.696,407.599,332.210,-243.202,-1369.040,43.510,42.980
569,45895.447000,109.714,138.310,-110.568,401.050,352.770,-231.972,-1382.040,-434.490,-84.020
570,45895.485000,127.506,7.544,-105.588,393.397,360.569,-226.912,-812.040,-470.490,-89.020
571,45895.525000,222.394,16.597,-89.650,394.372,363.297,-235.675,506.960,-338.490,-94.020
572,45895.565000,280.710,65.886,-102.599,389.463,357.274,-242.684,-432.040,-619.490,-102.020
573,45895.585000,261.931,57.839,-173.323,373.160,371.698,-241.418,-221.040,-120.490,-379.020
574,45895.628000,330.131,22.633,-157.385,369.437,383.634,-226.451,-467.040,389.510,-571.020
575,45895.669000,411.181,-6.538,-127.502,364.122,423.491,-176.544,-2410.040,814.510,-582.020
576,45895.709000,272.803,-178.546,-170.335,363.317,431.205,-134.206,-2887.040,697.510,-240.020
577,45895.749000,106.749,-145.352,-492.078,381.870,433.908,-63.499,-6250.040,-2316.490,1857.980
578,45895.789000,403.274,-233.870,-371.549,417.455,407.590,-40.473,-5472.040,-4432.490,2232.980
579,45895.862000,302.456,-123.222,-268.949,421.802,371.241,-106.975,-2390.040,-5455.490,2218.980
580,45895.970000,204.602,-33.697,-93.634,399.124,344.035,-187.060,-1176.040,-5109.490,2205.980
581,45895.999000,187.799,-30.680,-47.813,370.651,315.110,-254.447,-247.040,-4246.490,1973.980
582,45896.13000,278.734,13.580,62.755,344.268,296.496,-295.123,601.960,-2428.490,1464.980
583,45896.22000,178.903,73.933,182.288,336.254,270.013,-304.553,718.960,-697.490,1074.980
584,45896.38000,196.695,108.134,34.864,352.682,263.830,-284.062,-300.040,1276.510,445.980
585,45896.59000,512.988,190.617,-492.078,361.620,278.456,-240.569,-903.040,1933.510,-440.020
586,45896.85000,512.988,71.921,-10.957,369.479,284.960,-212.950,-1554.040,1346.510,-110.020
587,45896.120000,439.846,320.377,-100.607,384.038,286.439,-196.215,724.960,1247.510,-72.020
588,45896.158000,336.062,187.599,-89.650,392.788,286.934,-177.553,-890.040,605.510,122.980
589,45896.213000,253.035,100.086,-117.541,392.864,292.953,-168.594,-237.040,532.510,-86.020
590,45896.263000,138.378,-39.733,-123.518,392.873,292.155,-160.766,-86.040,241.510,-129.020
591,45896.324000,121.575,-21.627,-97.619,389.989,294.069,-160.730,-250.040,-284.490,62.980
592,45896.407000,166.054,60.857,-77.696,390.937,294.769,-173.461,15.960,-686.490,145.980
593,45896.423000,315.305,165.470,-19.922,384.975,284.399,-201.162,414.960,-1260.490,187.980
594,45896.430000,439.846,231.859,21.914,372.193,271.742,-241.677,390.960,-1717.490,323.980
595,45896.445000,512.988,138.310,-77.696,356.633,269.930,-273.131,-457.040,-1959.490,539.980
596,45896.469000,302.456,58.845,-244.047,347.790,261.496,-299.815,150.960,-1899.490,170.980
597,45896.509000,183.846,27.662,-119.533,342.823,253.164,-323.546,817.960,-1.490,-256.020
598,45896.529000,99.830,80.974,56.778,363.092,247.623,-319.704,250.960,1341.510,-476.020
599,45896.573000,87.969,48.786,-10.957,401.984,257.795,-271.344,-544.040,3023.510,-911.020
600,45896.612000,136.402,89.022,-65.743,437.256,287.044,-192.167,-653.040,3900.510,-1452.020
601,45896.648000,196.695,36.715,-109.572,459.220,332.515,-75.393,-1357.040,4641.510,-1674.020
602,45896.692000,328.154,-100.086,-266.957,462.364,341.022,1.294,816.960,5081.510,-1163.020
603,45896.732000,300.479,-112.157,-429.323,445.375,372.221,59.809,3672.960,4199.510,-1120.020
604,45896.772000,146.286,-180.558,-380.514,430.104,395.199,52.442,2687.960,1181.510,-547.020
605,45896.808000,512.988,-9.556,75.704,438.579,382.490,0.203,1275.960,-2107.490,492.980
606,45896.827000,499.151,-12.574,-68.732,451.943,366.808,-12.866,-597.040,-1423.490,666.980
607,45896.869000,324.201,116.181,-113.556,458.601,363.142,-50.198,1685.960,-491.490,330.980
608,45896.909000,275.768,90.028,-127.502,463.318,354.106,-66.080,817.960,-90.490,198.980
609,45896.952000,256.000,109.139,-68.732,465.240,352.248,-63.175,-550.040,-151.490,179.980
610,45896.992000,250.069,80.974,-15.938,463.270,348.367,-62.284,234.960,265.510,253.980
611,45897.32000,148.263,76.951,-37.852,465.029,332.615,-73.418,228.960,-629.490,266.980
612,45897.72000,106.749,-68.904,-100.607,466.948,335.999,-96.874,-28.040,-960.490,330.980
613,45897.114000,186.811,96.063,-135.471,466.790,324.802,-120.659,808.960,-596.490,86.980
614,45897.152000,276.757,61.862,-129.494,466.689,319.430,-144.314,1130.960,-355.490,-103.020
615,45897.170000,341.992,116.181,-143.440,462.806,319.263,-150.210,961.960,96.510,-301.020
616,45897.212000,280.710,178.546,-140.451,457.927,316.174,-156.173,706.960,288.510,-261.020
617,45897.252000,263.907,130.263,-95.626,451.123,314.921,-166.022,1386.960,424.510,-527.020
618,45897.292000,192.741,171.505,-78.693,447.340,327.160,-181.449,1493.960,417.510,-734.020
619,45897.347000,201.637,54.821,-43.829,428.889,326.312,-211.907,3395.960,565.510,-1494.020
620,45897.424000,164.077,49.792,-55.782,411.176,306.553,-264.358,4599.960,645.510,-1751.020
621,45897.564000,142.332,-0.503,-54.786,390.723,299.753,-299.856,4514.960,461.510,-1669.020
622,45897.580000,120.587,-56.833,-86.661,381.517,258.784,-349.818,4437.960,172.510,-1494.020
623,45897.602000,316.293,-165.470,-81.681,371.377,218.130,-385.065,3480.960,81.510,-895.020
624,45897.609000,269.838,-19.615,-118.537,370.380,216.955,-393.919,-665.040,-479.490,89.980
625,45897.617000,277.745,108.134,-170.335,363.772,233.437,-391.605,-696.040,-270.490,-85.020
626,45897.623000,280.710,150.381,-163.362,369.450,220.829,-393.835,855.960,365.510,-117.020
627,45897.633000,256.988,42.750,-81.681,374.359,225.968,-382.923,-440.040,494.510,43.980
628,45897.680000,218.440,26.656,-107.580,380.245,232.087,-371.987,-1087.040,-0.490,369.980
629,45897.740000,162.100,60.857,-108.576,379.404,243.857,-365.844,-886.040,-371.490,549.980
630,45897.759000,50.409,21.627,-185.276,377.408,237.085,-364.037,-1092.040,-437.490,551.980
631,45897.793000,130.471,-38.727,-148.420,385.316,252.867,-355.825,-955.040,-55.490,346.980
632,45897.823000,248.093,6.538,-124.514,393.994,248.270,-348.063,366.960,423.510,37.980
633,45897.858000,296.525,42.750,-148.420,407.584,250.603,-336.215,74.960,561.510,-72.020
634,45897.904000,339.027,69.910,-148.420,412.445,253.520,-338.101,474.960,480.510,-310.020
635,45897.940000,236.232,75.945,-172.327,419.162,245.128,-325.525,269.960,1006.510,-383.020
636,45897.962000,245.127,69.910,-105.588,437.682,254.563,-301.741,-164.040,1253.510,-291.020
637,45898.0,217.452,63.874,-89.650,447.483,261.151,-271.173,-473.040,1134.510,-327.020
638,45898.43000,158.147,53.815,-66.739,460.259,275.513,-241.408,-560.040,1029.510,-100.020
639,45898.84000,253.035,19.615,-8.965,471.979,281.969,-217.704,-433.040,766.510,-13.020
640,45898.119000,246.116,56.833,32.872,474.931,284.241,-203.918,-335.040,374.510,-46.020
641,45898.159000,246.116,55.827,-22.911,478.808,285.228,-204.868,214.960,40.510,-16.020
642,45898.204000,248.093,53.815,-7.969,474.831,275.352,-210.980,253.960,-273.490,-46.020
643,45898.239000,202.625,48.786,-93.634,468.999,275.036,-222.767,293.960,-347.490,-48.020
644,45898.263000,242.162,45.768,-56.778,464.234,284.482,-232.374,-85.040,-403.490,-71.020
645,45898.304000,258.965,39.733,-61.759,457.375,277.426,-241.371,47.960,-306.490,-128.020
646,45898.343000,293.560,99.081,-108.576,455.499,282.369,-236.362,56.960,-30.490,-188.020
647,45898.390000,284.664,72.927,-89.650,451.747,294.025,-234.150,-325.040,147.510,-223.020
648,45898.419000,271.815,54.821,-86.661,454.691,297.096,-228.192,-151.040,491.510,-220.020
649,45898.464000,273.792,62.868,-43.829,454.814,306.200,-211.318,-394.040,513.510,-123.020
650,45898.504000,217.452,58.845,-31.875,461.639,309.416,-200.445,-524.040,227.510,108.980
651,45898.550000,176.927,25.650,-53.790,464.527,307.546,-198.519,-404.040,-213.490,311.980
652,45898.570000,156.170,55.827,-59.767,463.400,293.685,-210.597,-462.040,-936.490,405.980
653,45898.604000,152.216,64.880,2.988,456.565,292.131,-234.182,-228.040,-1197.490,404.980
654,45898.667000,197.683,110.145,16.934,449.690,284.039,-246.144,-132.040,-1109.490,375.980
655,45898.704000,244.139,20.621,-105.588,450.629,284.652,-262.800,365.960,-784.490,177.980
656,45898.729000,224.371,103.104,-143.440,447.587,273.600,-278.742,438.960,-375.490,120.980
657,45898.767000,346.934,61.862,-121.525,450.423,266.832,-278.886,217.960,101.510,42.980
658,45898.804000,188.788,14.585,-119.533,450.383,262.042,-276.051,292.960,300.510,-60.020
659,45898.869000,264.896,87.010,-91.642,459.141,266.140,-270.057,114.960,503.510,-21.020
660,45898.885000,250.069,67.898,-101.603,463.036,266.415,-259.256,-82.040,453.510,-7.020
661,45898.905000,227.336,28.668,-63.751,467.820,259.795,-253.508,-115.040,402.510,-115.020
662,45898.945000,226.347,26.656,-53.790,472.824,274.643,-242.381,-149.040,297.510,-164.020
663,45898.985000,214.486,54.821,-33.868,469.904,271.810,-237.547,-82.040,60.510,-85.020
664,45899.20000,220.417,39.733,6.973,465.078,274.503,-245.343,52.960,-430.490,14.980
665,45899.78000,215.475,55.827,-53.790,464.110,278.010,-261.938,85.960,-703.490,104.980
666,45899.102000,269.838,58.845,-99.611,452.389,270.669,-281.739,183.960,-771.490,146.980
667,45899.149000,256.000,79.969,-156.389,445.585,269.417,-291.588,130.960,-627.490,37.980
668,45899.183000,267.861,110.145,-155.393,437.853,271.175,-296.468,-525.040,-289.490,-10.020
669,45899.203000,311.351,35.709,-108.576,433.086,277.083,-290.463,-707.040,-132.490,-163.020
670,45899.244000,295.537,56.833,-69.728,423.637,298.520,-282.162,-865.040,-25.490,-225.020
671,45899.282000,180.880,68.904,-66.739,419.894,309.378,-272.122,-687.040,-76.490,-169.020
672,45899.328000,110.703,66.892,-79.689,415.047,309.244,-276.058,-101.040,-309.490,-124.020
673,45899.382000,116.633,44.762,-88.654,407.369,315.922,-277.887,-340.040,-534.490,-52.020
674,45899.405000,208.556,34.703,-119.533,401.488,310.730,-290.763,597.960,-379.490,-0.020
675,45899.442000,215.475,53.815,-116.545,397.577,308.535,-300.627,-72.040,-435.490,147.980
676,45899.479000,306.409,61.862,-124.514,400.548,315.381,-299.488,-750.040,-410.490,298.980
677,45899.502000,344.958,114.169,-121.525,396.769,323.261,-292.457,-1136.040,-304.490,223.980
678,45899.543000,341.992,51.804,-89.650,397.910,335.503,-265.705,-2231.040,-377.490,636.980
679,45899.582000,207.568,40.739,-109.572,404.077,361.924,-214.111,-4085.040,-575.490,1181.980
680,45899.620000,128.494,48.786,-123.518,418.768,370.825,-168.772,-4714.040,-607.490,1315.980
681,45899.667000,112.680,34.703,-109.572,433.495,378.323,-98.947,-4457.040,-516.490,1361.980
682,45899.704000,105.761,64.880,-99.611,450.872,362.289,-41.408,-3863.040,-410.490,1257.980
683,45899.742000,166.054,75.945,-23.907,471.120,345.098,6.306,-3292.040,-331.490,869.980
684,45899.784000,236.232,98.075,-17.930,480.682,327.393,35.353,-1793.040,-108.490,431.980
685,45899.828000,209.544,128.251,0.000,484.573,329.394,36.386,-146.040,23.510,67.980
686,45899.843000,299.490,69.910,-18.926,486.428,321.603,34.256,25.960,-181.490,71.980
687,45899.884000,275.768,69.910,-72.716,490.327,325.438,30.426,-346.040,-181.490,119.980
688,45899.924000,330.131,93.045,-61.759,487.466,327.567,40.274,-224.040,258.510,-234.020
689,45899.962000,311.351,86.004,-63.751,477.853,330.709,55.034,-115.040,622.510,-473.020
690,45900.7000,235.243,86.004,-55.782,466.385,339.872,79.729,-559.040,820.510,-483.020
691,45900.43000,155.181,73.933,-39.844,457.852,352.020,106.459,-608.040,784.510,-283.020
692,45900.82000,194.718,72.927,9.961,448.249,355.248,125.143,-376.040,673.510,-251.020
693,45900.123000,261.931,150.381,-14.942,438.686,365.035,133.185,676.960,845.510,-475.020
694,45900.143000,252.046,165.470,0.000,429.116,372.104,149.993,-779.040,667.510,-336.020
695,45900.183000,313.328,117.187,-8.965,415.511,356.416,192.766,-1979.040,1030.510,-18.020
696,45900.222000,273.792,7.544,-204.202,411.585,342.635,229.717,-1818.040,314.510,162.980
697,45900.260000,324.201,-0.503,-488.093,434.487,314.297,210.503,-1078.040,-2062.490,542.980
698,45900.303000,350.888,83.992,-384.498,468.064,301.337,135.756,-300.040,-3445.490,986.980
699,45900.349000,266.873,56.833,-256.996,484.222,284.648,75.599,-1069.040,-4679.490,1042.980
700,45900.409000,195.707,40.739,-128.498,480.973,270.726,-26.705,-64.040,-4448.490,433.980
701,45900.457000,115.645,64.880,-42.833,454.619,265.596,-116.115,960.960,-3635.490,255.980
702,45900.473000,90.934,64.880,-30.879,423.488,262.749,-187.832,1050.960,-2842.490,223.980
703,45900.485000,136.402,19.615,-62.755,400.120,255.813,-228.242,829.960,-1582.490,56.980
704,45900.528000,381.529,52.809,-17.930,381.672,252.354,-245.029,1103.960,-574.490,-282.020
705,45900.564000,389.436,82.986,118.537,378.783,252.455,-239.149,567.960,718.510,-417.020
706,45900.613000,404.263,96.063,95.626,385.655,259.641,-224.265,226.960,1314.510,-404.020
707,45900.655000,363.737,92.039,-355.611,395.456,267.114,-197.601,-123.040,1419.510,136.980
708,45900.688000,289.606,274.106,-57.774,401.197,259.511,-192.854,-3.040,605.510,271.980
709,45900.723000,255.012,257.006,-63.751,400.278,262.609,-183.961,-98.040,349.510,-15.020
710,45900.764000,234.255,36.715,-157.385,399.272,256.946,-176.244,215.960,475.510,-222.020
711,45900.784000,171.985,-5.532,-157.385,402.361,272.854,-160.194,-487.040,319.510,-193.020
712,45900.822000,161.112,-98.075,-165.354,405.237,269.991,-159.271,-342.040,20.510,13.980
713,45900.879000,169.019,-21.627,-161.370,401.422,276.641,-164.034,176.960,-158.490,-11.020
714,45900.903000,224.371,43.756,-120.529,399.478,276.536,-167.963,220.960,-286.490,-98.020
715,45900.953000,254.023,76.951,-93.634,396.484,270.338,-183.798,536.960,-357.490,-30.020
716,45900.982000,349.900,204.699,10.957,391.558,264.163,-197.675,-27.040,-627.490,150.980
717,45901.127000,512.988,205.705,118.537,386.739,269.575,-214.236,-473.040,-1097.490,391.980
718,45901.143000,497.174,6.538,-177.307,378.844,258.324,-237.057,-1107.040,-1786.490,684.980
719,45901.150000,322.224,99.081,-194.241,368.956,242.092,-264.897,879.960,-1657.490,135.980
720,45901.158000,226.347,54.821,-109.572,359.168,237.381,-298.365,630.960,-957.490,-6.020
721,45901.184000,131.459,55.827,49.805,360.023,228.393,-310.330,177.960,399.510,-381.020
722,45901.207000,89.946,37.721,12.949,386.271,236.911,-287.531,-219.040,1606.510,-640.020
723,45901.247000,94.888,71.921,12.949,416.563,257.699,-237.972,-721.040,3069.510,-1104.020
724,45901.287000,94.888,57.839,-38.848,450.915,289.161,-146.000,-1201.040,4010.510,-1383.020
725,45901.327000,178.903,-2.515,-188.265,467.775,314.412,-64.009,-1191.040,5269.510,-1270.020
726,45901.367000,460.602,-91.033,-406.412,466.260,331.631,57.972,1803.960,5835.510,-1203.020
727,45901.405000,382.517,-75.945,-492.078,425.286,384.774,110.059,4223.960,4748.510,-1752.020
728,45901.425000,143.320,-184.582,-492.078,402.301,412.314,92.970,3449.960,1367.510,-542.020
729,45901.464000,357.807,178.546,-287.875,414.744,405.878,59.511,661.960,-1437.490,493.980
730,45901.504000,307.398,65.886,-95.626,433.027,391.904,77.872,-2058.040,-921.490,641.980
731,45901.545000,256.000,86.004,-76.700,438.800,391.659,64.150,1107.960,239.510,211.980
732,45901.582000,233.266,171.505,2.988,441.686,390.652,61.191,382.960,580.510,302.980
733,45901.625000,218.440,81.980,22.911,442.580,381.147,69.808,-510.040,94.510,340.980
734,45901.662000,207.568,37.721,91.642,456.021,372.368,61.796,766.960,-514.490,312.980
735,45901.704000,218.440,107.128,17.930,464.614,368.721,24.468,1034.960,-1198.490,444.980
736,45901.724000,210.533,134.287,-74.708,472.101,351.407,-16.107,167.960,-1597.490,458.980
737,45901.764000,235.243,-48.786,-84.669,473.889,342.969,-47.672,412.960,-1066.490,373.980
738,45901.804000,248.093,167.481,-141.447,473.769,335.655,-71.370,1392.960,-676.490,107.980
739,45901.844000,318.270,68.904,-101.603,471.848,341.936,-93.790,880.960,-172.490,-70.020
740,45901.883000,252.046,177.540,-118.537,474.662,334.068,-99.843,1040.960,311.510,-175.020
741,45901.924000,254.023,101.092,-41.837,466.935,336.755,-106.664,1092.960,458.510,-410.020
742,45901.962000,216.463,93.045,-32.872,454.389,344.852,-130.047,2130.960,510.510,-674.020
743,45902.4000,192.741,149.375,-18.926,434.031,346.013,-156.542,3010.960,310.510,-1246.020
744,45902.37000,129.483,83.992,-67.735,411.641,346.228,-225.230,4556.960,507.510,-1546.020
745,45902.114000,118.610,-25.650,-91.642,404.644,330.801,-261.872,4573.960,413.510,-1542.020
746,45902.192000,210.533,-133.281,-89.650,387.777,298.430,-314.601,3944.960,282.510,-1234.020
747,45902.252000,316.293,-82.986,-87.658,384.522,268.607,-345.671,1227.960,-101.490,-225.020
748,45902.289000,260.942,108.134,-154.397,377.940,287.096,-340.371,-1490.040,-519.490,150.980
749,45902.297000,259.954,137.305,-156.389,380.892,292.000,-339.275,-229.040,3.510,-69.020
750,45902.332000,259.954,132.275,-125.510,385.649,283.352,-337.496,534.960,349.510,15.980
751,45902.339000,252.046,66.892,-88.654,390.519,286.355,-335.457,-358.040,142.510,145.980
752,45902.355000,198.672,68.904,-92.638,392.503,290.365,-330.461,-735.040,-59.490,322.980
753,45902.363000,147.274,83.992,-119.533,394.399,283.847,-318.834,-508.040,-97.490,368.980
754,45902.405000,141.344,10.562,-128.498,394.472,291.592,-319.642,-205.040,-332.490,360.980
755,45902.449000,243.151,16.597,-120.529,400.084,273.073,-325.925,316.960,-131.490,392.980
756,45902.498000,212.510,54.821,-159.377,405.816,266.269,-329.006,-65.040,-11.490,264.980
757,45902.527000,198.672,31.686,-201.214,417.353,256.889,-319.384,-84.040,507.510,248.980
758,45902.568000,330.131,8.550,-132.482,430.049,266.958,-308.346,601.960,1123.510,-125.020
759,45902.607000,235.243,99.081,-120.529,441.673,264.568,-289.742,-0.040,1041.510,-134.020
760,45902.652000,259.954,30.680,-115.549,454.344,269.113,-265.098,-114.040,1119.510,-216.020
761,45902.667000,211.521,78.963,-76.700,468.991,277.604,-238.401,-290.040,1231.510,-258.020
762,45902.708000,230.301,37.721,-35.860,476.789,277.356,-208.970,-489.040,1088.510,-139.020
763,45902.762000,233.266,61.862,-22.911,489.473,282.915,-182.342,-411.040,772.510,-101.020
764,45902.793000,224.371,50.798,13.946,485.694,289.910,-171.407,-618.040,384.510,-52.020
765,45902.825000,244.139,29.674,13.946,489.620,294.889,-167.366,327.960,96.510,-37.020
766,45902.908000,229.313,73.933,2.988,491.530,293.786,-174.251,320.960,-279.490,-25.020
767,45902.924000,218.440,29.674,-45.821,483.702,287.583,-188.135,85.960,-694.490,51.980
768,45902.948000,258.965,48.786,-36.856,471.988,282.055,-213.779,520.960,-682.490,29.980
769,45902.999000,227.336,3.521,-129.494,468.091,281.758,-225.562,338.960,-493.490,-6.020
770,45903.15000,301.467,69.910,-119.533,467.135,283.626,-228.464,44.960,-10.490,-174.020
771,45903.44000,262.919,67.898,-118.537,469.129,289.492,-227.349,167.960,356.510,-215.020
772,45903.85000,248.093,64.880,-86.661,472.112,294.698,-212.518,-315.040,646.510,-186.020
773,45903.128000,234.255,40.739,-43.829,476.070,299.978,-194.740,-340.040,726.510,-179.020
774,45903.168000,217.452,62.868,-4.981,478.092,305.239,-176.967,116.960,551.510,-215.020
775,45903.205000,181.869,76.951,10.957,480.969,302.377,-176.044,126.960,200.510,-123.020
776,45903.247000,168.031,79.969,14.942,479.039,304.170,-181.892,118.960,-397.490,54.980
777,45903.310000,272.803,54.821,30.879,471.219,298.917,-196.735,300.960,-779.490,306.980
778,45903.318000,212.510,68.904,-59.767,467.191,287.682,-220.529,-11.040,-1087.490,282.980
779,45903.348000,223.382,31.686,-113.556,465.148,280.457,-239.326,208.960,-581.490,251.980
780,45903.429000,257.977,52.809,-166.350,458.388,284.037,-250.048,262.960,-246.490,61.980
781,45903.477000,249.081,19.615,-122.521,459.307,279.171,-251.135,-21.040,59.510,-39.020
782,45903.524000,242.162,73.933,-72.716,464.108,274.472,-246.326,153.960,317.510,-62.020
783,45903.547000,247.104,75.945,-71.720,467.026,274.651,-239.451,61.960,319.510,26.980
784,45903.560000,242.162,65.886,-58.770,472.825,272.895,-233.594,51.960,235.510,79.980
785,45903.593000,233.266,33.697,-53.790,469.972,277.743,-232.512,-95.040,94.510,5.980
786,45903.612000,243.151,47.780,-41.837,473.870,279.808,-228.535,-62.040,-13.490,-31.020
787,45903.645000,222.394,45.768,-31.875,469.996,280.612,-234.409,-49.040,-361.490,10.980
788,45903.707000,219.429,38.727,-38.848,462.175,274.474,-245.349,88.960,-503.490,40.980
789,45903.735000,213.498,50.798,-58.770,453.387,269.212,-260.195,178.960,-625.490,104.980
790,45903.775000,251.058,86.004,-76.700,448.529,270.718,-277.823,169.960,-682.490,120.980
791,45903.809000,264.896,80.974,-112.560,441.736,270.458,-286.669,-168.040,-726.490,77.980
792,45903.844000,295.537,59.851,-120.529,434.035,276.035,-294.407,-413.040,-522.490,-22.020
793,45903.885000,299.490,63.874,-101.603,421.518,282.644,-297.229,-876.040,-499.490,-84.020
794,45903.925000,224.371,65.886,-96.623,411.021,296.262,-291.065,-768.040,-255.490,-89.020
795,45903.950000,166.054,51.804,-87.658,409.220,308.972,-285.883,-574.040,-185.490,-71.020
796,45903.987000,134.425,57.839,-97.619,405.447,317.780,-280.792,-573.040,-224.490,12.980
797,45904.30000,102.795,32.692,-128.498,400.654,322.565,-281.677,-463.040,-466.490,0.980
798,45904.65000,144.309,-20.621,-111.564,394.860,325.249,-289.475,372.960,-378.490,-26.020
799,45904.109000,244.139,29.674,-131.486,391.775,309.385,-303.562,1175.960,-74.490,-126.020
800,45904.152000,273.792,103.104,-115.549,393.734,312.273,-305.456,-615.040,-212.490,135.980
801,45904.184000,363.737,119.198,-130.490,397.676,319.172,-302.352,-364.040,10.510,59.980
802,45904.228000,331.120,92.039,-105.588,392.943,326.287,-285.533,-1145.040,86.510,-33.020
803,45904.248000,305.421,23.639,-90.646,396.026,338.613,-255.833,-1941.040,56.510,211.980
804,45904.294000,202.625,-31.686,-85.665,402.052,355.757,-228.962,-3157.040,-333.490,781.980
805,45904.329000,157.158,1.509,-87.658,409.078,370.579,-175.662,-4496.040,-828.490,1326.980
806,45904.367000,119.598,49.792,-72.716,431.526,377.096,-109.766,-4811.040,-926.490,1476.980
807,45904.413000,137.390,121.210,-25.899,454.686,358.271,-49.334,-4910.040,-925.490,1516.980
808,45904.448000,129.483,116.181,30.879,475.873,334.660,14.910,-5382.040,-967.490,1273.980
809,45904.488000,347.923,196.652,-34.864,488.250,309.087,37.904,-969.040,-128.490,480.980
810,45904.527000,308.386,233.870,-54.786,491.247,320.593,30.321,1019.960,308.510,-208.020
811,45904.565000,411.181,163.458,-4.981,486.475,326.457,34.364,-629.040,200.510,48.980
812,45904.587000,250.069,121.210,-91.642,483.547,319.136,55.770,-1247.040,345.510,-133.020
813,45904.628000,168.031,97.069,-85.665,476.927,327.571,89.285,-843.040,1035.510,-190.020
814,45904.667000,94.888,27.662,-57.774,473.111,327.166,116.727,-751.040,724.510,-197.020
815,45904.707000,218.440,-26.656,66.739,474.083,324.586,131.382,-690.040,230.510,-73.020
816,45904.747000,338.039,88.016,83.673,476.004,322.707,133.305,60.960,25.510,122.980
817,45904.804000,238.208,78.963,10.957,473.089,323.434,123.509,508.960,-379.490,-210.020
818,45904.828000,256.988,180.558,-114.553,470.277,335.724,110.046,384.960,12.510,-167.020
819,45904.869000,316.293,232.864,-145.432,462.571,335.088,128.648,-846.040,538.510,-415.020
820,45904.889000,341.992,125.234,-100.607,439.541,340.190,194.417,-2852.040,1662.510,-726.020
821,45904.927000,312.340,-156.417,-402.428,418.161,317.933,250.757,-1634.040,1622.510,153.980
822,45904.974000,139.367,-50.798,-492.078,425.924,325.279,228.381,-446.040,-1807.490,317.980
823,45905.10000,271.815,-38.727,-441.276,450.855,313.702,176.201,-74.040,-4056.490,1029.980
824,45905.50000,394.378,118.193,-277.914,475.626,299.708,58.264,185.960,-4927.490,922.980
825,45905.113000,257.977,70.916,-111.564,469.398,280.623,-56.911,405.960,-4911.490,741.980
826,45905.167000,164.077,29.674,-31.875,438.244,279.330,-146.245,646.960,-4224.490,549.980
827,45905.182000,105.761,49.792,-63.751,407.929,260.074,-214.402,969.960,-2862.490,364.980
828,45905.218000,223.382,75.945,32.872,381.767,262.063,-244.814,459.960,-1811.490,219.980
829,45905.455000,249.081,89.022,87.658,373.999,259.960,-248.799,-58.040,-308.490,40.980
830,45905.592000,215.475,115.175,-18.926,375.059,266.139,-232.969,-494.040,667.510,-128.020
831,45905.654000,512.988,-131.269,92.638,385.759,266.804,-207.435,1942.960,2391.510,431.980
832,45905.734000,512.988,191.623,48.809,396.458,269.216,-190.687,84.960,742.510,-216.020
833,45905.734000,376.587,35.709,-36.856,402.374,275.615,-166.997,-597.040,615.510,222.980
834,45905.734000,233.266,182.570,-96.623,410.086,270.146,-154.354,-554.040,299.510,227.980
835,45905.735000,132.448,124.228,-176.311,412.015,267.468,-144.602,-619.040,93.510,166.980
836,45905.784000,44.479,55.827,-199.222,410.117,270.448,-140.618,-124.040,-49.490,-62.020
837,45905.793000,79.073,-27.662,-150.412,410.186,278.150,-143.388,496.960,-38.490,-150.020
838,45905.793000,195.707,-12.574,-174.319,406.264,275.847,-158.158,961.960,-16.490,-271.020
839,45905.793000,283.676,56.833,-82.677,398.541,278.576,-163.017,-127.040,-370.490,-168.020
840,45905.800000,419.089,145.352,6.973,393.576,269.382,-181.864,609.960,-515.490,-164.020
841,45905.808000,512.988,247.953,116.545,388.706,269.896,-200.495,2.960,-957.490,135.980
842,45905.815000,477.405,118.193,-100.607,380.985,276.163,-220.966,-1325.040,-2001.490,439.980
843,45905.822000,374.610,52.809,-152.405,368.366,275.631,-239.637,-637.040,-2039.490,36.980
844,45905.822000,240.185,-35.709,-230.101,352.751,268.900,-274.143,868.960,-751.490,-131.020
845,45905.829000,205.591,55.827,60.763,362.232,252.166,-289.204,1111.960,535.510,-72.020
846,45905.869000,85.004,36.715,4.981,389.207,237.263,-272.807,544.960,1823.510,-320.020
847,45905.908000,89.946,69.910,-27.891,426.123,242.605,-222.597,174.960,3429.510,-901.020
848,45905.949000,110.703,76.951,-54.786,461.420,272.976,-136.531,-166.040,4343.510,-1436.020
849,45905.989000,241.174,1.509,-208.187,474.400,297.218,-54.570,-886.040,5159.510,-1597.020
850,45906.30000,355.830,-45.768,-319.751,472.045,327.977,65.748,815.960,5262.510,-1535.020
851,45906.77000,332.108,-89.022,-492.078,429.005,368.393,113.626,3951.960,3703.510,-1612.020
852,45906.106000,192.741,-191.623,-492.078,401.336,413.211,90.046,3964.960,1643.510,-945.020
853,45906.127000,484.324,-88.016,55.782,408.013,415.003,36.164,749.960,-1401.490,659.980
854,45906.167000,504.093,133.281,-45.821,426.253,400.620,35.883,-1262.040,-1176.490,678.980
855,45906.212000,244.139,162.452,-103.595,431.894,386.782,21.858,938.960,95.510,322.980
856,45906.253000,226.347,87.010,-45.821,436.731,386.829,21.870,-102.040,244.510,316.980
857,45906.288000,197.683,41.745,-31.875,440.538,377.460,35.399,-680.040,119.510,314.980
858,45906.328000,201.637,31.686,3.984,447.341,381.345,32.557,361.960,-160.490,207.980
859,45906.368000,194.718,57.839,39.844,456.919,376.110,10.887,459.960,-779.490,243.980
860,45906.408000,302.456,137.305,-36.856,456.736,364.676,-23.690,1256.960,-797.490,227.980
861,45906.448000,216.463,86.004,-113.556,457.570,356.358,-49.370,350.960,-914.490,213.980
862,45906.469000,278.734,111.151,-126.506,458.501,355.137,-61.164,548.960,-385.490,184.980
863,45906.509000,278.734,105.116,-115.549,459.465,356.873,-70.930,184.960,-127.490,-2.020
864,45906.549000,269.838,116.181,-101.603,455.605,359.575,-78.723,1007.960,388.510,-376.020
865,45906.589000,205.591,146.358,-56.778,444.975,364.865,-98.241,2091.960,568.510,-679.020
866,45906.635000,139.367,203.694,-46.817,431.418,370.774,-132.462,2776.960,475.510,-1128.020
867,45906.670000,150.239,108.134,-22.911,405.186,371.211,-189.386,4238.960,544.510,-1533.020
868,45906.708000,115.645,66.892,-72.716,387.482,355.939,-258.408,5090.960,590.510,-1695.020
869,45906.759000,227.336,-63.874,-92.638,374.589,331.653,-298.201,4247.960,449.510,-1361.020
870,45906.767000,271.815,-97.069,-89.650,366.451,299.582,-341.099,3377.960,298.510,-977.020
871,45906.809000,317.282,-66.892,-87.658,365.278,280.868,-353.284,-75.040,-180.490,-13.020
872,45906.855000,314.317,114.169,-138.459,363.570,301.517,-340.081,-1384.040,-331.490,83.980
873,45906.890000,267.861,181.564,-152.405,364.610,308.387,-336.984,-29.040,114.510,65.980
874,45906.930000,210.533,90.028,-119.533,368.414,300.744,-333.223,77.960,242.510,128.980
875,45906.970000,147.274,5.532,-113.556,372.330,303.867,-325.300,-732.040,223.510,368.980
876,45907.9000,134.425,34.703,-119.533,382.133,314.878,-314.248,-861.040,-206.490,579.980
877,45907.50000,150.239,30.680,-110.568,381.188,315.085,-304.439,-1097.040,-508.490,582.980
878,45907.70000,152.216,35.709,-142.444,384.122,317.184,-298.502,-869.040,-343.490,433.980
879,45907.115000,227.336,34.703,-125.510,392.803,314.378,-297.565,17.960,10.510,364.980
880,45907.179000,236.232,118.193,-173.323,404.363,309.615,-298.627,276.960,335.510,158.980
881,45907.195000,330.131,78.963,-125.510,415.856,295.403,-288.131,165.960,602.510,80.980
882,45907.258000,223.382,43.756,-121.525,428.411,291.793,-281.320,443.960,960.510,87.980
883,45907.274000,262.919,37.721,-98.615,440.034,289.403,-262.716,130.960,970.510,22.980
884,45907.309000,245.127,39.733,-119.533,451.705,290.983,-240.102,-250.040,1014.510,-167.020
885,45907.372000,223.382,65.886,-83.673,467.372,305.265,-215.235,-309.040,1085.510,-67.020
886,45907.423000,248.093,62.868,-37.852,474.104,296.140,-191.887,-80.040,920.510,-32.020
887,45907.432000,218.440,45.768,-10.957,477.073,299.448,-175.137,-440.040,585.510,-70.020
888,45907.448000,237.220,33.697,-21.914,482.959,305.567,-164.201,382.960,501.510,-78.020
889,45907.489000,226.347,55.827,9.961,482.888,298.728,-166.314,501.960,217.510,-96.020
890,45907.530000,225.359,67.898,3.984,478.057,301.378,-176.072,405.960,-246.490,-26.020
891,45907.573000,226.347,67.898,-28.887,477.035,299.966,-195.719,450.960,-664.490,99.980
892,45907.613000,209.544,8.550,-61.759,468.208,291.683,-215.535,404.960,-797.490,98.980
893,45907.653000,302.456,131.269,-114.553,463.331,289.500,-224.419,-422.040,-427.490,249.980
894,45907.737000,251.058,19.615,-125.510,467.180,287.574,-225.435,-74.040,-171.490,155.980
895,45907.755000,256.988,64.880,-111.564,468.126,284.736,-222.554,-10.040,307.510,76.980
896,45907.830000,236.232,24.644,-70.724,472.973,283.121,-209.831,-508.040,389.510,59.980
897,45907.844000,219.429,31.686,-50.802,480.719,281.492,-199.063,30.960,327.510,17.980
898,45907.860000,224.371,45.768,-11.953,478.775,280.503,-199.089,68.960,48.510,40.980
899,45907.875000,212.510,22.633,-11.953,480.722,283.283,-205.888,37.960,-242.490,120.980
900,45907.910000,211.521,19.615,-8.965,477.764,279.199,-213.830,100.960,-397.490,92.980
901,45907.952000,252.046,30.680,-76.700,473.768,269.151,-227.791,204.960,-436.490,-7.020
902,45908.50000,250.069,54.821,-112.560,469.951,274.895,-229.633,286.960,-202.490,-69.020
903,45908.67000,267.861,86.004,-106.584,466.008,267.996,-232.736,265.960,28.510,-64.020
904,45908.74000,252.046,80.974,-113.556,468.021,275.804,-231.578,3.960,237.510,-41.020
905,45908.158000,258.965,47.780,-96.623,471.951,279.941,-221.671,-112.040,369.510,-93.020
906,45908.174000,239.197,23.639,-56.778,477.771,279.264,-210.887,-174.040,383.510,-224.020
907,45908.190000,222.394,52.809,-32.872,472.999,284.243,-202.941,-195.040,265.510,-229.020
908,45908.219000,215.475,53.815,-8.965,474.018,289.150,-200.869,-160.040,-131.490,-76.020
909,45908.257000,217.452,46.774,-9.961,470.182,293.837,-206.657,116.960,-438.490,-25.020
910,45908.298000,229.313,65.886,-52.794,462.322,286.448,-230.373,243.960,-809.490,46.980
911,45908.347000,232.278,57.839,-94.630,456.536,291.850,-246.937,162.960,-832.490,64.980
912,45908.362000,266.873,90.028,-111.564,445.830,288.489,-262.725,-115.040,-679.490,74.980
913,45908.394000,274.780,56.833,-146.428,440.016,288.346,-266.663,-191.040,-443.490,-48.020
914,45908.430000,287.629,44.762,-137.463,431.466,302.975,-259.491,-713.040,-173.490,-160.020
915,45908.477000,260.942,65.886,-92.638,428.759,321.544,-252.220,-1001.040,88.510,-248.020
916,45908.512000,186.811,65.886,-71.720,428.875,330.584,-238.290,-648.040,195.510,-259.020
917,45908.549000,134.425,74.939,-79.689,426.028,334.612,-230.361,-507.040,16.510,-159.020
918,45908.590000,110.703,48.786,-75.704,417.406,342.380,-226.284,-673.040,-321.490,-68.020
919,45908.642000,176.927,-3.521,-93.634,418.449,350.156,-226.110,65.960,-214.490,-22.020
920,45908.675000,182.857,34.703,-106.584,420.305,344.134,-236.046,580.960,-83.490,-29.020
921,45908.715000,371.645,97.069,-65.743,420.316,345.127,-235.043,-123.040,-136.490,-54.020
922,45908.729000,304.432,151.387,-108.576,415.554,352.847,-234.882,-128.040,-204.490,-68.020
923,45908.773000,342.981,12.574,-77.696,412.652,351.934,-230.986,-625.040,-160.490,-34.020
924,45908.817000,328.154,0.503,-74.708,406.073,367.811,-212.015,-1737.040,-395.490,218.980
925,45908.853000,246.116,5.532,-40.840,411.100,380.242,-178.386,-3199.040,-767.490,863.980
926,45908.893000,208.556,15.591,-32.872,426.741,386.347,-128.203,-4378.040,-1117.490,1374.980
927,45908.935000,148.263,107.128,-21.914,442.166,368.375,-69.730,-4428.040,-1032.490,1414.980
928,45908.970000,138.378,152.393,-21.914,451.888,364.521,-28.607,-4703.040,-945.490,1389.980
929,45908.989000,101.807,184.582,-16.934,473.961,334.857,24.717,-4651.040,-1017.490,1185.980
930,45909.30000,282.687,156.417,-41.837,493.116,308.530,54.574,-1755.040,-349.490,587.980
931,45909.73000,236.232,227.835,-95.626,490.216,309.407,51.645,979.960,257.510,-127.020
932,45909.115000,374.610,124.228,-42.833,491.218,312.394,54.655,294.960,387.510,-27.020
933,45909.154000,283.676,120.204,-51.798,484.478,309.113,84.969,-1753.040,273.510,-44.020
934,45909.190000,222.394,42.750,-38.848,485.437,304.635,101.543,-956.040,532.510,-188.020
935,45909.245000,173.961,56.833,-28.887,472.967,311.697,119.325,-177.040,585.510,-284.020
936,45909.270000,163.089,12.574,-7.969,469.138,313.817,129.171,-282.040,376.510,-233.020
937,45909.290000,227.336,2.515,30.879,468.295,325.565,134.333,348.960,134.510,-181.020
938,45909.331000,292.571,92.039,9.961,462.496,328.206,124.573,879.960,243.510,-237.020
939,45909.371000,254.023,225.823,-84.669,450.991,336.140,137.473,-485.040,407.510,-355.020
940,45909.414000,332.108,148.369,-81.681,439.430,332.963,174.643,-1003.040,976.510,-172.020
941,45909.449000,257.977,201.682,-93.634,429.775,327.777,207.851,-1394.040,1698.510,-103.020
942,45909.490000,261.931,-102.098,-492.078,415.329,324.744,252.863,-1095.040,843.510,-93.020
943,45909.530000,191.753,-33.697,-382.506,421.185,337.616,217.857,632.960,-1334.490,208.980
944,45909.571000,335.073,113.163,-255.004,450.879,325.374,133.311,626.960,-3377.490,779.980
945,45909.612000,356.819,132.275,-221.136,466.038,312.775,38.920,-484.040,-4365.490,1013.980
946,45909.670000,309.375,25.650,-141.447,459.989,306.850,-51.445,-431.040,-4360.490,635.980
947,45909.694000,264.896,17.603,-62.755,438.502,297.646,-107.592,409.960,-3729.490,409.980
948,45909.711000,194.718,73.933,-40.840,416.090,293.244,-165.596,667.960,-2635.490,363.980
949,45909.759000,203.614,92.039,38.848,394.696,288.463,-197.129,36.960,-1788.490,359.980
950,45909.797000,189.776,65.886,122.521,384.064,290.215,-201.035,-392.040,-251.490,109.980
951,45909.835000,235.243,89.022,162.366,389.057,301.438,-178.220,-353.040,1080.510,-38.020
952,45909.882000,512.988,66.892,53.790,394.941,303.134,-147.769,576.960,1729.510,-166.020
953,45909.920000,512.988,221.800,145.432,396.003,309.335,-130.958,580.960,1163.510,-217.020
954,45909.959000,386.471,113.163,-46.817,397.946,307.671,-119.223,-304.040,723.510,-11.020
955,45909.974000,278.734,126.240,-60.763,398.959,309.881,-107.404,-481.040,257.510,-18.020
956,45910.10000,222.394,74.939,-115.549,399.937,309.114,-98.593,-375.040,147.510,13.980
957,45910.73000,144.309,21.627,-119.533,396.132,315.851,-99.432,125.960,-36.490,-32.020
958,45910.94000,138.378,28.668,-109.572,399.955,312.803,-107.337,131.960,-404.490,82.980
959,45910.134000,186.811,83.992,-84.669,395.958,303.618,-126.182,127.960,-872.490,152.980
960,45910.312000,278.734,144.346,-35.860,395.919,303.251,-142.861,242.960,-1194.490,205.980
961,45910.327000,389.436,155.411,-15.938,392.820,289.890,-175.526,211.960,-1676.490,393.980
962,45910.343000,375.598,128.251,-136.467,380.080,280.275,-210.090,-316.040,-1706.490,545.980
963,45910.379000,259.954,44.762,-226.117,368.388,279.363,-246.419,-93.040,-1790.490,123.980
964,45910.379000,243.151,32.692,-96.623,359.547,270.951,-272.122,394.960,-1030.490,10.980
965,45910.385000,201.637,34.703,-17.930,368.114,259.126,-284.134,636.960,65.510,-109.020
966,45910.401000,140.355,37.721,-38.848,387.378,247.060,-267.690,377.960,1560.510,-217.020
967,45910.434000,133.436,55.827,-49.805,409.728,252.628,-244.964,132.960,2466.510,-452.020
968,45910.474000,154.193,81.980,-56.778,439.936,262.930,-186.813,-82.040,3477.510,-867.020
969,45910.514000,191.753,81.980,-92.638,466.498,289.419,-96.929,-671.040,4047.510,-1182.020
970,45910.555000,301.467,-34.703,-159.377,472.776,315.149,11.529,-223.040,4735.510,-1215.020
971,45910.574000,355.830,16.597,-286.879,451.906,337.401,106.122,1687.960,4961.510,-1284.020
972,45910.615000,352.865,14.585,-302.817,411.725,372.150,159.764,2339.960,3700.510,-1020.020
973,45910.655000,270.826,-99.081,-295.844,394.548,395.389,165.147,3048.960,2499.510,-620.020
974,45910.693000,158.147,-71.921,-366.568,382.090,414.015,135.134,2711.960,55.510,354.980
975,45910.736000,401.297,165.470,205.198,400.405,414.431,101.839,-724.040,-1731.490,458.980
976,45910.777000,276.757,321.383,-52.794,410.869,398.742,89.745,94.960,-990.490,400.980
977,45910.811000,255.012,129.257,-99.611,429.141,389.947,78.801,462.960,-400.490,623.980
978,45910.856000,248.093,95.057,-74.708,435.796,379.204,72.693,37.960,2.510,505.980
979,45910.870000,208.556,-2.515,-14.942,440.594,373.598,80.424,46.960,279.510,364.980
980,45910.913000,198.672,60.857,6.973,441.465,363.877,79.229,252.960,-32.490,338.980
981,45910.953000,212.510,170.499,71.720,450.109,363.358,51.777,747.960,-1072.490,344.980
982,45910.993000,234.255,109.139,-19.922,460.565,352.869,11.359,858.960,-1425.490,325.980
983,45911.39000,204.602,31.686,-160.374,467.164,342.471,-23.181,-42.040,-1280.490,393.980
984,45911.74000,273.792,60.857,-122.521,468.050,337.303,-38.003,154.960,-605.490,400.980
985,45911.113000,288.618,53.815,-108.576,473.750,329.312,-50.917,726.960,-85.490,101.980
986,45911.159000,264.896,127.246,-128.498,474.741,332.191,-52.813,231.960,93.510,-17.020
987,45911.192000,239.197,169.493,-73.712,472.807,333.941,-60.623,944.960,351.510,-201.020
988,45911.215000,170.008,178.546,-51.798,462.165,338.239,-81.144,2242.960,457.510,-873.020
989,45911.255000,175.938,39.733,-36.856,440.929,352.573,-125.981,3726.960,589.510,-1422.020
990,45911.334000,148.263,-14.585,-75.704,431.089,347.366,-182.015,4670.960,958.510,-1241.020
991,45911.351000,264.896,-118.193,-53.790,425.046,330.934,-220.638,3643.960,809.510,-762.020
992,45911.375000,267.861,-127.246,-59.767,430.724,319.211,-226.771,421.960,208.510,12.980
993,45911.413000,248.093,41.745,-111.564,434.696,328.159,-218.718,-969.040,43.510,63.980
994,45911.455000,276.757,160.440,-117.541,435.649,326.270,-216.797,1005.960,782.510,-189.020
995,45911.496000,274.780,161.446,-88.654,442.414,323.618,-208.016,71.960,655.510,-24.020
996,45911.523000,232.278,52.809,-73.712,452.201,330.961,-187.238,-471.040,583.510,27.980
997,45911.558000,226.347,43.756,-67.735,455.142,332.241,-174.455,28.960,671.510,-45.020
998,45911.593000,214.486,31.686,-56.778,459.959,326.808,-158.875,-283.040,600.510,-57.020
999,45911.639000,222.394,51.804,-46.817,467.780,332.945,-147.935,-78.040,601.510,-53.020
1000,45911.684000,244.139,86.004,-42.833,465.876,333.229,-134.203,-290.040,503.510,-55.020
1001,45911.754000,243.151,61.862,0.000,468.845,336.536,-117.452,-372.040,273.510,-149.020
1002,45911.770000,238.208,62.868,0.996,464.168,352.109,-113.194,-344.040,1.510,-238.020
1003,45911.799000,245.127,63.874,-25.899,460.321,354.056,-111.197,-380.040,-210.490,-349.020
1004,45911.836000,240.185,78.963,-35.860,449.826,369.443,-112.839,-298.040,-221.490,-399.020
1005,45911.856000,235.243,84.998,-35.860,442.148,376.121,-114.669,-254.040,-240.490,-403.020
1006,45911.903000,231.290,88.016,-34.864,435.347,373.142,-114.749,-229.040,-277.490,-395.020
1007,45911.937000,231.290,95.057,-33.868,424.840,387.537,-117.394,-213.040,-367.490,-379.020
1008,45911.973000,242.162,110.145,-38.848,418.182,400.006,-121.054,-218.040,-403.490,-338.020
1009,45912.14000,249.081,122.216,-45.821,409.505,402.855,-120.028,-356.040,-424.490,-255.020
1010,45912.54000,247.104,126.240,-46.817,397.974,411.415,-122.804,-557.040,-434.490,-183.020
1011,45912.94000,234.255,108.134,-52.794,397.121,422.193,-117.664,-631.040,-435.490,-134.020
1012,45912.134000,231.290,98.075,-50.802,394.176,417.353,-115.816,-673.040,-403.490,105.980
1013,45912.158000,223.382,116.181,-60.763,391.257,413.636,-107.079,-759.040,-165.490,321.980
1014,45912.196000,201.637,127.246,-66.739,398.103,418.815,-95.181,-755.040,-200.490,292.980
1015,45912.235000,194.718,105.116,-73.712,398.040,410.293,-85.564,-485.040,-125.490,107.980
