Sample, Time, ACCX, ACCY, ACCZ, MAGX, MAGY, MAGZ, GYRX, GYRY, GYRZ
0,45806.65000,240.185,60.857,-38.848,483.193,309.579,-69.968,-306.040,637.510,34.980
1,45806.106000,238.208,46.774,-27.891,478.436,316.458,-63.941,-252.040,658.510,57.980
2,45806.146000,238.208,41.745,-22.911,483.234,310.852,-56.210,-172.040,606.510,50.980
3,45806.184000,243.151,44.762,-15.938,484.243,313.019,-46.354,-174.040,581.510,53.980
4,45806.241000,231.290,40.739,-0.996,487.207,316.283,-31.565,-269.040,647.510,95.980
5,45806.264000,251.058,64.880,5.977,483.238,303.840,-22.043,36.960,436.510,75.980
6,45806.301000,241.174,59.851,6.973,489.128,310.887,-13.048,-46.040,393.510,66.980
7,45806.342000,239.197,53.815,13.946,489.119,309.032,-9.167,-68.040,156.510,43.980
8,45806.362000,243.151,44.762,7.969,490.154,315.859,-8.032,-17.040,84.510,29.980
9,45806.401000,247.104,56.833,2.988,487.228,312.961,-6.141,5.960,17.510,26.980
10,45806.441000,250.069,56.833,3.984,491.058,309.094,-7.200,35.960,-4.490,19.980
11,45806.482000,247.104,51.804,1.992,488.177,311.913,-10.085,-16.040,-70.490,14.980
12,45806.522000,248.093,52.809,2.988,486.254,312.887,-9.087,30.960,-112.490,4.980
13,45806.572000,244.139,47.780,-3.984,492.036,311.843,-14.982,3.960,-184.490,6.980
14,45806.607000,250.069,48.786,-0.996,488.185,314.632,-18.851,75.960,-170.490,-25.020
15,45806.645000,251.058,59.851,-18.926,489.167,316.540,-20.768,93.960,-180.490,-26.020
16,45806.686000,247.104,54.821,-11.953,489.080,308.665,-25.846,69.960,-133.490,-15.020
17,45806.703000,249.081,52.809,-9.961,483.295,311.435,-29.720,38.960,-109.490,-15.020
18,45806.743000,245.127,50.798,-8.965,487.217,317.254,-31.543,-33.040,-83.490,-9.020
19,45806.782000,236.232,44.762,-0.996,488.132,311.482,-29.708,-113.040,5.510,13.980
20,45806.822000,235.243,54.821,6.973,488.151,314.308,-33.568,-22.040,-318.490,-25.020
21,45806.870000,236.232,51.804,11.953,485.215,313.072,-44.389,17.960,-569.490,-37.020
22,45806.918000,237.220,79.969,3.984,482.206,305.859,-62.207,-4.040,-939.490,-18.020
23,45806.958000,220.417,46.774,-17.930,480.324,316.908,-88.444,-81.040,-1108.490,41.980
24,45806.983000,245.127,62.868,-63.751,481.188,311.524,-113.078,207.960,-991.490,108.980
25,45807.2000,234.255,33.697,-90.646,480.142,306.358,-126.924,-21.040,-876.490,131.980
26,45807.45000,260.942,56.833,-122.521,476.206,303.041,-143.677,147.960,-517.490,160.980
27,45807.82000,257.977,28.668,-118.537,476.193,301.164,-140.777,-65.040,-125.490,41.980
28,45807.123000,258.965,40.739,-119.533,476.146,296.310,-140.885,-36.040,217.510,-66.020
29,45807.163000,243.151,60.857,-96.623,476.286,308.219,-128.852,-235.040,490.510,-127.020
30,45807.202000,231.290,53.815,-49.805,477.271,306.632,-113.195,-272.040,543.510,-81.020
31,45807.253000,225.359,45.768,-18.926,479.236,307.816,-104.339,-56.040,369.510,-18.020
32,45807.283000,231.290,42.750,7.969,478.254,305.908,-102.422,31.960,58.510,-2.020
33,45807.303000,244.139,41.745,-41.837,480.201,307.804,-105.318,307.960,-152.490,11.980
34,45807.341000,242.162,60.857,-79.689,477.299,309.545,-113.130,274.960,-165.490,21.980
35,45807.387000,247.104,81.980,-105.588,479.222,308.571,-114.129,-193.040,49.510,96.980
36,45807.426000,258.965,58.845,-81.681,480.206,308.731,-107.258,-224.040,240.510,59.980
37,45807.463000,253.035,47.780,-67.735,482.155,307.132,-92.580,-273.040,368.510,-16.020
38,45807.511000,235.243,25.650,-47.813,477.378,311.184,-82.693,-272.040,472.510,-80.020
39,45807.543000,235.243,55.827,-37.852,483.290,319.310,-68.771,-55.040,510.510,-93.020
40,45807.586000,241.174,50.798,-10.957,483.308,319.482,-60.922,-122.040,399.510,-67.020
41,45807.625000,239.197,46.774,-2.988,484.305,320.657,-52.068,56.960,308.510,-35.020
42,45807.646000,241.174,56.833,5.977,481.377,318.622,-55.061,360.960,27.510,-47.020
43,45807.687000,239.197,64.880,-8.965,477.468,316.448,-63.944,382.960,-193.490,-65.020
44,45807.725000,238.208,48.786,-1.992,477.507,322.986,-75.566,380.960,-407.490,-92.020
45,45807.763000,242.162,60.857,-30.879,471.599,316.651,-96.313,548.960,-486.490,-103.020
46,45807.806000,245.127,62.868,-53.790,472.591,321.299,-106.015,397.960,-549.490,-70.020
47,45807.847000,250.069,63.874,-113.556,473.527,321.006,-119.748,437.960,-287.490,-50.020
48,45807.885000,248.093,71.921,-108.576,467.659,315.944,-126.738,190.960,-36.490,-40.020
49,45807.926000,247.104,72.927,-78.693,465.764,318.946,-121.772,-51.040,218.510,7.980
50,45807.942000,237.220,72.927,-50.802,469.649,319.135,-114.895,-131.040,247.510,56.980
51,45807.991000,237.220,59.851,-43.829,476.442,319.395,-106.049,-114.040,224.510,104.980
52,45808.22000,233.266,43.756,-35.860,477.275,304.906,-103.427,-210.040,136.510,91.980
53,45808.68000,236.232,50.798,-29.883,475.443,314.682,-99.291,-265.040,-13.490,66.980
54,45808.106000,249.081,65.886,-15.938,472.484,308.829,-99.427,-240.040,-151.490,63.980
55,45808.143000,255.012,61.862,-37.852,473.473,310.801,-98.401,-22.040,-142.490,70.980
56,45808.182000,242.162,63.874,-74.708,478.310,311.733,-102.292,-110.040,-80.490,94.980
57,45808.225000,248.093,58.845,-71.720,476.348,307.054,-93.574,-483.040,24.510,68.980
58,45808.262000,246.116,45.768,-51.798,477.367,310.192,-83.696,-503.040,144.510,29.980
59,45808.295000,241.174,45.768,-31.875,481.250,310.359,-77.800,-313.040,185.510,-1.020
60,45808.325000,243.151,46.774,-17.930,479.395,317.265,-71.767,-198.040,105.510,-22.020
61,45808.365000,243.151,47.780,-17.930,482.304,317.358,-68.817,-62.040,81.510,-29.020
62,45808.405000,242.162,60.857,-35.860,479.420,319.272,-68.780,-1.040,22.510,-18.020
63,45808.442000,251.058,62.868,-41.837,480.324,312.507,-67.948,47.960,63.510,-20.020
64,45808.487000,245.127,58.845,-42.833,476.496,316.396,-65.908,-96.040,57.510,-13.020
65,45808.522000,243.151,57.839,-31.875,480.425,322.280,-64.789,-39.040,66.510,-15.020
66,45808.565000,240.185,58.845,-31.875,478.506,323.297,-61.828,-34.040,37.510,11.980
67,45808.583000,251.058,73.933,-45.821,483.341,323.323,-62.798,127.960,123.510,22.980
68,45808.641000,245.127,68.904,-46.817,481.375,319.485,-59.945,-68.040,159.510,32.980
69,45808.666000,250.069,50.798,-29.883,482.281,311.857,-54.229,-75.040,208.510,3.980
70,45808.708000,235.243,41.745,-12.949,480.454,321.676,-48.131,-85.040,139.510,-1.020
71,45808.743000,238.208,50.798,-6.973,482.393,322.623,-50.067,130.960,8.510,-24.020
72,45808.792000,240.185,52.809,-18.926,479.470,321.516,-55.001,116.960,-120.490,-34.020
73,45808.825000,249.081,61.862,-40.840,479.454,320.480,-57.966,152.960,-133.490,-36.020
74,45808.866000,245.127,63.874,-43.829,480.391,317.555,-59.010,86.960,-86.490,-29.020
75,45808.906000,245.127,62.868,-41.837,476.522,318.402,-62.922,26.960,-12.490,-24.020
76,45808.928000,245.127,62.868,-30.879,478.525,325.239,-61.785,32.960,12.510,-17.020
77,45808.967000,243.151,62.868,-27.891,476.581,324.249,-61.811,25.960,-19.490,-11.020
78,45809.7000,243.151,59.851,-26.895,477.496,319.361,-63.879,40.960,-52.490,-4.020
79,45809.47000,243.151,59.851,-33.868,478.481,322.175,-68.718,47.960,-68.490,-8.020
80,45809.86000,246.116,56.833,-33.868,477.495,320.224,-68.763,10.960,-67.490,-2.020
81,45809.126000,245.127,63.874,-37.852,472.697,324.082,-67.707,44.960,-42.490,-0.020
82,45809.167000,245.127,60.857,-35.860,477.509,322.122,-70.682,19.960,-34.490,3.980
83,45809.205000,246.116,61.862,-35.860,474.607,322.979,-74.592,22.960,-19.490,0.980
84,45809.227000,243.151,60.857,-34.864,470.631,311.355,-71.916,-3.040,-21.490,3.980
85,45809.263000,243.151,60.857,-33.868,474.590,320.174,-69.751,-8.040,-25.490,0.980
86,45809.306000,244.139,57.839,-31.875,472.651,320.112,-71.718,-103.040,-74.490,-3.020
87,45809.350000,245.127,62.868,-33.868,474.626,324.921,-74.549,-20.040,-72.490,-4.020
88,45809.396000,244.139,60.857,-38.848,471.660,318.118,-73.725,62.960,-61.490,5.980
89,45809.430000,245.127,58.845,-40.840,473.590,318.093,-75.683,44.960,-53.490,3.980
90,45809.465000,245.127,59.851,-42.833,472.632,319.055,-75.664,34.960,-31.490,0.980
91,45809.507000,245.127,60.857,-43.829,472.691,324.902,-74.553,29.960,11.510,-1.020
92,45809.526000,242.162,58.845,-40.840,473.675,326.831,-75.489,16.960,23.510,0.980
93,45809.563000,245.127,60.857,-35.860,474.626,324.921,-74.549,-24.040,14.510,-2.020
94,45809.603000,244.139,61.862,-37.852,475.603,325.901,-74.525,-49.040,7.510,-2.020
95,45809.646000,244.139,61.862,-38.848,474.598,322.008,-74.614,-20.040,3.510,2.980
96,45809.686000,244.139,59.851,-36.856,475.544,320.054,-75.636,-29.040,-4.490,1.980
97,45809.726000,243.151,61.862,-39.844,469.730,319.027,-75.671,-0.040,-3.490,2.980
98,45809.765000,243.151,60.857,-38.848,473.668,325.882,-74.530,3.960,1.510,4.980
99,45809.811000,243.151,59.851,-37.852,478.524,327.871,-74.475,10.960,7.510,7.980
100,45809.826000,244.139,60.857,-36.856,476.512,320.063,-75.633,6.960,5.510,7.980
101,45809.863000,244.139,60.857,-39.844,475.584,323.959,-74.568,1.960,10.510,8.980
102,45809.906000,245.127,58.845,-36.856,476.523,321.056,-74.631,-29.040,17.510,5.980
103,45809.950000,244.139,60.857,-36.856,474.657,327.855,-73.503,-44.040,21.510,3.980
104,45809.985000,244.139,62.868,-35.860,474.586,320.131,-71.713,-63.040,29.510,1.980
105,45810.25000,244.139,54.821,-31.875,475.612,325.987,-70.600,-59.040,25.510,4.980
106,45810.83000,242.162,59.851,-31.875,476.457,313.375,-70.879,-17.040,9.510,0.980
107,45810.108000,246.116,60.857,-31.875,473.670,325.019,-69.645,-8.040,-0.490,0.980
108,45810.145000,243.151,61.862,-32.872,472.721,326.951,-69.604,6.960,-8.490,0.980
109,45810.168000,241.174,58.845,-36.856,475.574,322.104,-70.687,-13.040,-19.490,0.980
110,45810.206000,243.151,60.857,-34.864,475.581,323.053,-71.646,-10.040,-22.490,-4.020
111,45810.247000,245.127,63.874,-37.852,471.704,322.066,-70.696,-11.040,-8.490,-0.020
112,45810.288000,245.127,58.845,-33.868,467.827,321.079,-69.745,-13.040,-8.490,-1.020
113,45810.326000,240.185,61.862,-36.856,473.717,329.873,-69.538,1.960,-16.490,-2.020
114,45810.366000,246.116,59.851,-35.860,473.656,324.005,-71.629,1.960,-21.490,-1.020
115,45810.408000,245.127,59.851,-36.856,474.602,321.166,-68.748,14.960,-9.490,-1.020
116,45810.446000,243.151,59.851,-35.860,474.635,325.007,-70.624,-9.040,-12.490,2.980
117,45810.467000,245.127,60.857,-34.864,470.741,322.100,-68.736,18.960,-11.490,-1.020
118,45810.505000,245.127,63.874,-36.856,472.707,325.937,-71.588,0.960,-7.490,0.980
119,45810.545000,244.139,60.857,-35.860,475.619,326.936,-71.560,-21.040,-5.490,1.980
120,45810.587000,243.151,62.868,-37.852,474.612,323.022,-72.630,-4.040,-9.490,0.980
121,45810.625000,244.139,60.857,-34.864,472.672,322.075,-70.693,-3.040,-15.490,0.980
122,45810.666000,243.151,61.862,-36.856,475.619,326.936,-71.560,6.960,-21.490,0.980
123,45810.711000,243.151,61.862,-38.848,473.620,320.143,-70.734,0.960,-18.490,1.980
124,45810.753000,242.162,61.862,-37.852,473.696,328.795,-74.465,1.960,-17.490,0.980
125,45810.766000,242.162,61.862,-39.844,471.749,326.899,-71.569,-3.040,-13.490,-1.020
126,45810.808000,242.162,60.857,-34.864,472.670,322.054,-71.675,-9.040,-15.490,1.980
127,45810.845000,243.151,63.874,-33.868,475.605,325.922,-73.544,-31.040,-29.490,-3.020
128,45810.886000,242.162,63.874,-35.860,473.708,329.787,-73.462,-55.040,-51.490,-0.020
129,45810.927000,243.151,58.845,-33.868,471.768,328.840,-71.526,-43.040,-67.490,-0.020
130,45810.965000,238.208,60.857,-35.860,473.656,324.890,-75.532,-21.040,-86.490,-0.020
131,45811.6000,246.116,59.851,-37.852,469.810,327.721,-77.439,63.960,-106.490,-2.020
132,45811.48000,246.116,58.845,-33.868,469.787,325.736,-79.444,41.960,-143.490,-7.020
133,45811.86000,248.093,78.963,-47.813,471.729,327.589,-84.302,28.960,-115.490,-19.020
134,45811.105000,251.058,49.792,-73.712,470.774,328.572,-83.302,-22.040,-20.490,-25.020
135,45811.150000,250.069,66.892,-68.732,470.802,330.600,-79.334,-174.040,184.510,-50.020
136,45811.188000,241.174,60.857,-34.864,468.838,325.900,-71.597,-259.040,187.510,-50.020
137,45811.230000,232.278,55.827,-14.942,469.845,329.814,-70.528,-21.040,68.510,-61.020
138,45811.267000,238.208,58.845,-22.911,468.875,329.783,-71.511,9.960,-70.490,-64.020
139,45811.310000,235.243,60.857,-27.891,467.899,329.687,-75.438,23.960,-223.490,-79.020
140,45811.356000,235.243,64.880,-23.907,464.114,339.272,-79.156,38.960,-344.490,-74.020
141,45811.386000,242.162,78.963,-31.875,459.217,336.010,-92.968,86.960,-461.490,-63.020
142,45811.408000,241.174,87.010,-43.829,458.246,337.727,-102.738,54.960,-563.490,-26.020
143,45811.446000,249.081,79.969,-51.798,454.282,331.497,-119.556,1.960,-600.490,15.980
144,45811.493000,253.035,76.951,-71.720,453.360,337.205,-124.335,21.960,-524.490,48.980
145,45811.526000,256.000,82.986,-71.720,451.397,336.043,-132.210,-156.040,-491.490,70.980
146,45811.567000,250.069,71.921,-71.720,452.342,334.952,-138.116,-100.040,-418.490,87.980
147,45811.608000,226.347,70.916,-81.681,446.481,330.839,-146.065,-48.040,-356.490,111.980
148,45811.647000,199.660,58.845,-99.611,448.433,333.663,-150.902,-34.040,-277.490,114.980
149,45811.690000,191.753,56.833,-106.584,450.359,332.711,-150.919,-71.040,-243.490,126.980
150,45811.708000,189.776,36.715,-108.576,450.340,331.654,-154.865,-2.040,-186.490,83.980
151,45811.746000,226.347,27.662,-98.615,453.229,330.668,-156.842,173.960,-24.490,92.980
152,45811.788000,261.931,52.809,-85.665,455.056,319.964,-159.037,319.960,107.510,44.980
153,45811.826000,261.931,79.969,-89.650,451.184,319.905,-160.027,340.960,193.510,-6.020
154,45811.868000,228.324,90.028,-94.630,455.032,317.095,-157.139,133.960,197.510,0.980
155,45811.912000,215.475,74.939,-88.654,459.902,320.098,-155.101,83.960,222.510,82.980
156,45811.946000,220.417,68.904,-87.658,463.759,317.374,-148.289,63.960,246.510,130.980
157,45811.990000,213.498,39.733,-84.669,463.735,314.504,-146.391,59.960,216.510,141.980
158,45812.30000,200.649,23.639,-78.693,464.594,302.907,-144.686,-16.040,150.510,134.980
159,45812.48000,205.591,0.503,-66.739,464.617,304.892,-142.680,173.960,106.510,159.980
160,45812.86000,211.521,69.910,-75.704,473.299,302.970,-145.647,528.960,157.510,166.980
161,45812.128000,279.722,25.650,-64.747,480.991,297.306,-141.833,42.960,75.510,162.980
162,45812.166000,289.606,15.591,-64.747,484.666,278.747,-149.102,758.960,317.510,133.980
163,45812.208000,285.652,39.733,-79.689,483.703,279.665,-151.045,513.960,299.510,43.980
164,45812.255000,269.838,63.874,-104.591,479.844,278.851,-142.245,253.960,536.510,-91.020
165,45812.286000,259.954,96.063,-80.685,485.762,287.041,-125.380,-251.040,615.510,-134.020
166,45812.328000,233.266,54.821,-45.821,489.748,295.234,-107.538,-579.040,541.510,-55.020
167,45812.347000,250.069,5.532,-14.942,489.748,290.832,-87.042,-513.040,379.510,-21.020
168,45812.388000,221.405,20.621,-25.899,488.853,297.684,-83.949,-203.040,199.510,-54.020
169,45812.430000,230.301,24.644,-46.817,485.974,298.756,-78.048,130.960,217.510,-79.020
170,45812.467000,239.197,24.644,-21.914,485.098,307.549,-74.912,134.960,188.510,-107.020
171,45812.510000,234.255,38.727,-64.747,485.060,303.665,-74.999,293.960,289.510,-192.020
172,45812.546000,236.232,11.568,-40.840,482.257,313.389,-72.827,196.960,343.510,-295.020
173,45812.591000,228.324,68.904,-6.973,480.298,310.500,-70.934,301.960,285.510,-282.020
174,45812.636000,341.004,182.570,15.938,474.615,321.296,-62.861,-281.040,130.510,-82.020
175,45812.650000,359.784,119.198,34.864,475.656,325.534,-47.075,-717.040,427.510,-124.020
176,45812.687000,286.641,67.898,-8.965,469.858,323.773,-36.339,-703.040,40.510,-126.020
177,45812.730000,189.776,-20.621,-133.479,471.882,332.573,-34.178,79.960,-29.490,81.980
178,45812.767000,226.347,42.750,-45.821,468.891,324.648,-40.244,-40.040,-144.490,161.980
179,45812.810000,143.320,21.627,-25.899,469.841,321.853,-35.401,-286.040,-12.490,113.980
180,45812.851000,157.158,37.721,-27.891,470.858,326.738,-34.309,-119.040,15.510,37.980
181,45812.888000,163.089,72.927,-11.953,471.797,323.835,-34.372,-399.040,-87.490,66.980
182,45812.936000,151.228,35.709,-87.658,472.713,318.947,-36.440,-57.040,-382.490,67.980
183,45812.967000,178.903,-66.892,-124.514,474.589,317.520,-58.042,692.960,-511.490,156.980
184,45812.991000,247.104,153.399,-6.973,480.298,310.500,-70.934,-473.040,10.510,85.980
185,45813.28000,371.645,54.821,33.868,481.256,309.539,-70.954,-127.040,-29.490,270.980
186,45813.71000,264.896,98.075,-68.732,483.122,305.372,-84.771,938.960,-76.490,-36.020
187,45813.110000,278.734,96.063,-32.872,489.802,296.636,-87.893,-16.040,-125.490,203.980
188,45813.147000,289.606,22.633,-48.809,483.981,293.775,-83.066,-386.040,-40.490,20.980
189,45813.191000,273.792,16.597,-34.864,486.915,295.874,-77.129,-181.040,495.510,-98.020
190,45813.228000,223.382,24.644,-28.887,481.267,308.762,-62.145,-343.040,401.510,-209.020
191,45813.276000,209.544,33.697,-12.949,482.255,308.966,-53.312,-93.040,92.510,-209.020
192,45813.296000,218.440,67.898,51.798,478.454,317.515,-59.995,-267.040,-420.490,-104.020
193,45813.327000,243.151,103.104,47.813,474.481,312.968,-88.544,251.960,-1244.490,-19.020
194,45813.367000,319.259,175.528,-46.817,466.604,306.291,-124.012,343.960,-1460.490,107.980
195,45813.410000,337.050,65.886,-60.763,464.657,308.797,-141.613,-513.040,-1535.490,148.980
196,45813.451000,332.108,21.627,-78.693,457.897,314.124,-161.122,-663.040,-1207.490,248.980
197,45813.488000,263.907,-12.574,-135.471,455.934,312.962,-168.997,-59.040,-447.490,149.980
198,45813.528000,188.788,59.851,-146.428,453.022,311.078,-165.122,-291.040,92.510,146.980
199,45813.571000,156.170,62.868,-178.303,455.953,309.618,-144.555,-1096.040,182.510,161.980
200,45813.593000,154.193,1.509,-148.420,457.037,318.667,-130.622,-666.040,90.510,113.980
201,45813.631000,112.680,29.674,-106.584,459.962,319.796,-124.707,-135.040,289.510,4.980
202,45813.668000,125.529,1.509,0.996,460.960,321.855,-119.756,256.960,685.510,-27.020
203,45813.710000,218.440,-58.845,-132.482,467.555,304.380,-123.072,829.960,231.510,249.980
204,45813.747000,223.382,109.139,-28.887,468.419,298.112,-143.803,974.960,-300.490,19.980
205,45813.803000,288.618,61.862,-89.650,463.475,290.880,-161.626,1021.960,-193.490,60.980
206,45813.828000,296.525,103.104,-136.467,471.091,280.082,-170.676,497.960,276.510,23.980
207,45813.871000,369.668,107.128,-113.556,475.139,293.280,-145.858,-596.040,636.510,-26.020
208,45813.915000,378.564,184.582,-91.642,476.238,301.596,-121.154,-1139.040,1307.510,-368.020
209,45813.928000,315.305,195.646,-43.829,470.749,318.648,-49.199,-2754.040,1907.510,-389.020
210,45813.971000,6.919,-49.792,-231.097,470.937,327.493,0.031,-929.040,320.510,-417.020
211,45814.8000,83.027,-9.556,-492.078,456.354,332.832,-59.702,911.960,-2431.490,-381.020
212,45814.53000,354.842,103.104,-412.389,422.325,337.055,-161.669,-885.040,-4641.490,69.980
213,45814.91000,243.151,-20.621,-177.307,360.332,347.153,-248.854,-65.040,-4691.490,-360.020
214,45814.128000,166.054,-162.452,99.611,282.777,344.867,-318.695,538.960,-4095.490,-443.020
215,45814.172000,88.958,-65.886,526.942,257.292,317.675,-352.695,3195.960,-503.490,-150.020
216,45814.210000,24.710,-10.562,-65.743,265.506,269.886,-367.468,1568.960,1534.510,-146.020
217,45814.228000,512.988,-118.193,-36.856,245.256,277.368,-371.267,1464.960,-212.490,30.980
218,45814.271000,512.988,513.509,64.747,248.975,262.757,-375.506,904.960,-47.490,105.980
219,45814.312000,512.988,271.088,203.206,247.123,271.454,-376.297,-458.040,-391.490,633.980
220,45814.350000,325.189,-18.609,-349.634,235.660,286.832,-377.942,-1529.040,-1812.490,659.980
221,45814.391000,176.927,-136.299,-23.907,232.773,290.471,-387.674,-190.040,-636.490,330.980
222,45814.428000,-7.907,-66.892,148.420,256.888,282.983,-385.828,493.960,1288.510,3.980
223,45814.471000,-68.201,-36.715,64.747,316.983,287.300,-348.340,-533.040,2989.510,-306.020
224,45814.511000,101.807,-27.662,-154.397,385.056,308.067,-272.225,-322.040,4223.510,-340.020
225,45814.530000,94.888,-26.656,-492.078,436.379,298.470,-201.722,1123.960,3807.510,-301.020
226,45814.572000,195.707,59.851,-492.078,450.892,291.577,-168.502,1214.960,1717.510,-360.020
227,45814.612000,406.239,281.147,220.140,446.039,294.896,-191.974,2262.960,-926.490,-156.020
228,45814.652000,512.988,30.680,-154.397,445.980,289.049,-193.085,357.960,-320.490,353.980
229,45814.691000,194.718,138.310,-104.591,452.610,277.185,-206.083,1451.960,132.510,73.980
230,45814.730000,260.942,-47.780,-97.619,456.430,272.346,-207.163,-49.040,212.510,237.980
231,45814.772000,252.046,43.756,-86.661,457.403,270.651,-196.411,-435.040,122.510,62.980
232,45814.823000,253.035,84.998,-29.883,456.464,272.670,-192.446,-299.040,-40.490,15.980
233,45814.851000,156.170,84.998,-96.623,456.496,275.626,-190.419,-713.040,-426.490,82.980
234,45814.871000,195.707,67.898,-95.626,452.705,284.261,-193.177,-1138.040,-638.490,240.980
235,45814.911000,265.884,21.627,-108.576,455.646,286.425,-184.297,-1174.040,-759.490,284.980
236,45814.950000,255.012,-20.621,-144.436,452.691,284.132,-199.064,162.960,-681.490,21.980
237,45814.993000,240.185,4.527,-165.354,444.822,274.887,-218.899,1047.960,-286.490,-109.020
238,45815.33000,202.625,72.927,-133.479,441.933,278.505,-229.612,690.960,88.510,-254.020
239,45815.76000,167.042,40.739,-122.521,443.036,290.380,-219.539,-311.040,529.510,-466.020
240,45815.110000,158.147,18.609,-60.763,445.127,299.827,-187.944,-617.040,975.510,-458.020
241,45815.152000,179.892,31.686,41.837,449.131,309.077,-166.156,-34.040,1701.510,-411.020
242,45815.192000,104.772,-115.175,-492.078,462.784,311.129,-122.932,292.960,2031.510,-320.020
243,45815.223000,452.695,-124.228,-133.479,468.527,304.433,-121.108,1625.960,-165.490,-20.020
244,45815.250000,317.282,-48.786,52.794,475.402,312.525,-109.146,30.960,405.510,156.980
245,45815.291000,280.710,108.134,-33.868,482.114,305.859,-106.337,110.960,305.510,134.980
246,45815.332000,323.212,186.593,-21.914,480.090,297.060,-108.498,702.960,335.510,19.980
247,45815.372000,265.884,98.075,-74.708,483.950,295.242,-104.608,-258.040,162.510,107.980
248,45815.412000,250.069,23.639,-31.875,482.098,300.422,-88.806,-481.040,431.510,-100.020
249,45815.458000,235.243,25.650,11.953,481.181,302.657,-75.029,-285.040,460.510,-153.020
250,45815.472000,228.324,25.650,25.899,481.303,313.509,-66.943,-241.040,168.510,-97.020
251,45815.510000,227.336,49.792,17.930,479.380,314.482,-65.945,-216.040,-142.490,-85.020
252,45815.550000,256.988,-15.591,23.907,471.618,315.076,-79.677,589.960,-322.490,-185.020
253,45815.595000,205.591,95.057,-6.973,470.659,318.669,-92.348,371.960,-550.490,-81.020
254,45815.640000,330.131,118.193,-42.833,469.655,317.430,-104.145,326.960,-502.490,15.980
255,45815.673000,337.050,68.904,-17.930,470.613,315.584,-100.262,-605.040,160.510,-53.020
256,45815.721000,256.988,-13.580,-97.619,461.059,328.090,-100.985,363.960,-30.490,-235.020
257,45815.751000,200.649,5.532,-108.576,459.034,321.922,-115.836,747.960,-29.490,45.980
258,45815.793000,164.077,26.656,-35.860,461.863,315.090,-118.924,1200.960,550.510,260.980
259,45815.813000,175.938,64.880,-28.887,470.575,310.816,-96.445,-1123.040,395.510,366.980
260,45815.852000,193.730,54.821,-44.825,472.550,310.339,-74.877,-1828.040,305.510,362.980
261,45815.890000,159.135,-37.721,-32.872,480.305,306.164,-47.495,-1255.040,184.510,405.980
262,45815.930000,109.714,138.310,-14.942,490.810,290.863,-41.928,67.960,124.510,330.980
263,45816.22000,78.085,-2.515,37.852,490.730,283.938,-47.966,-20.040,-491.490,298.980
264,45816.62000,512.988,-40.739,248.031,501.091,262.855,-84.697,2890.960,-260.490,432.980
265,45816.88000,243.151,197.658,-87.658,499.107,264.131,-114.092,-254.040,-1583.490,224.980
266,45816.103000,265.884,14.585,-159.377,497.900,244.208,-137.092,335.960,-774.490,489.980
267,45816.126000,275.768,-24.644,-122.521,498.876,245.188,-137.069,-634.040,-340.490,233.980
268,45816.153000,294.548,26.656,-98.615,496.964,246.270,-131.165,-26.040,445.510,-149.020
269,45816.201000,253.035,46.774,-48.809,497.139,260.272,-112.221,-471.040,650.510,-251.020
270,45816.233000,260.942,17.603,-37.852,497.246,267.456,-94.409,-604.040,414.510,-285.020
271,45816.277000,222.394,33.697,-17.930,496.413,278.428,-80.438,-468.040,329.510,-297.020
272,45816.312000,201.637,-2.515,-6.973,489.659,278.535,-72.605,-348.040,4.510,-200.020
273,45816.352000,202.625,18.609,-5.977,487.767,283.327,-74.464,-200.040,-169.490,-131.020
274,45816.396000,221.405,16.597,-4.981,484.842,283.083,-84.282,42.960,-575.490,-8.020
275,45816.411000,236.232,107.128,-53.790,484.793,282.608,-105.867,253.960,-830.490,90.980
276,45816.451000,244.139,115.175,-42.833,481.859,283.163,-123.513,-622.040,-1192.490,158.980
277,45816.492000,360.772,102.098,-50.802,478.902,279.963,-135.358,-1114.040,-1082.490,168.980
278,45816.532000,320.247,3.521,-65.743,474.087,284.533,-146.054,-836.040,-986.490,117.980
279,45816.572000,217.452,23.639,-139.455,469.218,284.184,-159.801,32.960,-421.490,73.980
280,45816.612000,170.996,18.609,-168.342,468.276,286.181,-156.817,54.960,-95.490,-18.020
281,45816.655000,160.124,14.585,-135.471,467.372,292.061,-153.746,-19.040,190.510,-162.020
282,45816.696000,169.019,-1.509,-126.506,462.520,289.231,-147.936,282.960,443.510,-174.020
283,45816.733000,177.915,-0.503,-89.650,468.352,290.431,-140.051,633.960,605.510,-138.020
284,45816.753000,145.297,-64.880,-28.887,473.213,291.578,-134.132,411.960,702.510,63.980
285,45816.793000,262.919,17.603,-124.514,475.976,277.950,-137.370,243.960,184.510,241.980
286,45816.833000,259.954,14.585,-28.887,479.870,280.857,-139.259,215.960,-47.490,31.980
287,45816.872000,297.514,101.092,-67.735,482.641,269.062,-147.360,1334.960,355.510,48.980
288,45816.918000,346.934,87.010,-90.646,487.438,265.204,-148.416,45.960,89.510,114.980
289,45816.952000,395.367,133.281,-127.502,487.461,265.420,-138.605,-365.040,402.510,-36.020
290,45816.996000,417.112,238.900,-221.136,490.581,277.228,-88.322,-2099.040,1103.510,-330.020
291,45817.32000,212.510,44.762,-155.393,485.130,304.334,-44.583,-1492.040,955.510,-520.020
292,45817.53000,155.181,-219.788,-492.078,477.231,299.210,-97.669,1440.960,-1658.490,44.980
293,45817.93000,257.977,126.240,-492.078,451.889,296.269,-176.241,-125.040,-5063.490,346.980
294,45817.133000,-157.158,-46.774,95.626,374.382,305.892,-278.179,-804.040,-4322.490,-627.020
295,45817.172000,124.541,-73.933,250.023,303.710,311.785,-332.134,1005.960,-1986.490,-843.020
296,45817.212000,400.309,80.974,312.778,285.169,299.502,-353.040,1600.960,52.510,-892.020
297,45817.252000,471.475,-17.603,263.969,279.209,284.753,-359.263,1145.960,950.510,-1060.020
298,45817.292000,512.988,20.621,-36.856,268.176,249.202,-382.631,1901.960,-950.490,-6.020
299,45817.332000,469.498,193.635,-84.669,264.416,259.024,-375.556,-824.040,-295.490,180.980
300,45817.352000,512.988,72.927,-78.693,256.600,252.045,-380.631,130.960,-153.490,-94.020
301,45817.392000,512.988,139.316,84.669,258.798,277.479,-372.216,-1560.040,-207.490,207.980
302,45817.441000,344.958,11.568,-207.191,267.810,306.021,-357.835,-1845.040,-893.490,528.980
303,45817.476000,345.946,7.544,-186.272,254.272,309.470,-371.516,-170.040,-1464.490,335.980
304,45817.512000,204.602,-102.098,51.798,262.032,311.509,-370.474,-406.040,-385.490,661.980
305,45817.553000,-37.560,-55.827,184.280,317.199,307.861,-340.038,-107.040,2457.510,388.980
306,45817.593000,112.680,-8.550,-9.961,370.542,311.421,-289.833,-677.040,3983.510,536.980
307,45817.633000,270.826,95.057,-357.603,442.308,309.400,-192.641,460.960,4670.510,9.980
308,45817.671000,268.849,41.745,-492.078,468.547,304.627,-112.277,1247.960,3273.510,-278.020
309,45817.693000,84.015,15.591,-491.082,472.428,299.487,-82.963,1095.960,1362.510,-161.020
310,45817.736000,95.876,5.532,-483.113,477.147,291.357,-101.766,930.960,-1127.490,568.980
311,45817.777000,132.448,135.293,-210.179,476.050,282.178,-121.586,354.960,-638.490,17.980
312,45817.812000,287.629,43.756,-68.732,480.792,275.149,-134.480,1526.960,129.510,3.980
313,45817.857000,297.514,75.945,-64.747,480.806,277.048,-136.399,-193.040,-65.490,28.980
314,45817.892000,320.247,112.157,-23.907,479.829,275.183,-132.520,-122.040,-57.490,-65.020
315,45817.932000,247.104,73.933,-32.872,474.109,284.749,-136.243,-333.040,-182.490,-90.020
316,45817.985000,209.544,41.745,-32.872,473.187,289.572,-137.118,-651.040,-481.490,-3.020
317,45817.992000,202.625,-1.509,-72.716,469.304,289.405,-143.014,-372.040,-560.490,83.980
318,45818.37000,223.382,53.815,-19.922,470.206,284.387,-150.969,-459.040,-788.490,205.980
319,45818.72000,295.537,79.969,-46.817,461.516,287.992,-159.733,-1043.040,-1007.490,289.980
320,45818.112000,271.815,62.868,-117.541,466.340,287.025,-161.706,-1261.040,-989.490,381.980
321,45818.156000,217.452,-60.857,-206.195,452.757,286.526,-178.417,621.960,-632.490,-30.020
322,45818.196000,187.799,-5.532,-204.202,447.760,275.260,-203.194,1382.960,-341.490,-53.020
323,45818.236000,137.390,7.544,-170.335,445.862,280.873,-211.899,112.960,-258.490,-196.020
324,45818.276000,106.749,-20.621,-170.335,440.071,281.830,-209.929,-282.040,-12.490,-228.020
325,45818.316000,113.668,-19.615,-144.436,439.198,291.529,-209.715,475.960,405.510,-331.020
326,45818.337000,124.541,47.780,-97.619,436.243,285.719,-207.889,961.960,680.510,-441.020
327,45818.377000,136.402,118.193,29.883,438.281,294.648,-199.841,736.960,1221.510,-654.020
328,45818.423000,512.988,-147.363,-72.716,454.724,292.133,-189.075,538.960,950.510,111.980
329,45818.456000,300.479,55.827,-7.969,462.367,281.594,-186.351,300.960,794.510,-233.020
330,45818.510000,288.618,74.939,-33.868,461.386,277.938,-175.647,285.960,536.510,-187.020
331,45818.533000,309.375,97.069,-59.767,463.412,285.875,-168.602,510.960,626.510,-264.020
332,45818.585000,272.803,153.399,-48.809,464.391,285.108,-159.791,-437.040,547.510,-144.020
333,45818.617000,274.780,53.815,-12.949,467.444,297.153,-142.846,-459.040,393.510,-38.020
334,45818.633000,232.278,39.733,-40.840,468.461,301.154,-137.852,106.960,298.510,-108.020
335,45818.676000,242.162,38.727,-27.891,465.550,298.407,-129.093,-109.040,275.510,-164.020
336,45818.717000,215.475,39.733,-51.798,465.634,305.375,-121.093,-108.040,181.510,-45.020
337,45818.757000,219.429,15.591,-35.860,460.821,308.198,-123.002,8.960,80.510,-135.020
338,45818.805000,138.378,-23.639,-69.728,460.837,310.118,-123.940,428.960,-129.490,-82.020
339,45818.837000,246.116,125.234,-3.984,461.773,309.825,-137.673,72.960,-332.490,112.980
340,45818.873000,412.170,226.829,50.802,459.815,307.822,-139.683,-228.040,-321.490,200.980
341,45818.913000,262.919,11.568,-76.700,461.699,303.828,-145.652,123.960,-463.490,15.980
342,45818.943000,158.147,73.933,-114.553,452.988,305.469,-155.440,744.960,-77.490,-108.020
343,45818.973000,207.568,-95.057,-37.852,456.888,306.672,-146.580,92.960,431.510,121.980
344,45819.16000,201.637,5.532,-42.833,461.758,306.158,-127.948,-5.040,688.510,120.980
345,45819.53000,164.077,50.798,-123.518,464.673,304.546,-114.249,-1637.040,79.510,308.980
346,45819.95000,122.564,14.585,-79.689,469.558,305.046,-93.633,-1966.040,-419.490,360.980
347,45819.145000,72.154,-72.927,16.934,477.160,289.717,-88.074,-213.040,-319.490,646.980
348,45819.177000,512.988,-81.980,79.689,484.765,281.465,-113.738,1270.960,-580.490,361.980
349,45819.217000,280.710,276.118,-68.732,484.507,260.494,-140.682,1227.960,-658.490,268.980
350,45819.256000,286.641,120.204,-104.591,483.455,257.033,-165.277,695.960,-863.490,216.980
351,45819.277000,278.734,48.786,-144.436,482.439,253.917,-174.175,92.960,-568.490,332.980
352,45819.316000,261.931,-23.639,-148.420,481.398,246.162,-173.368,-526.040,110.510,0.980
353,45819.357000,280.710,16.597,-75.704,476.666,254.162,-160.452,-213.040,497.510,-270.020
354,45819.397000,252.046,46.774,-48.809,480.736,271.093,-142.416,-448.040,462.510,-299.020
355,45819.437000,208.556,36.715,-29.883,476.011,280.043,-130.459,-415.040,288.510,-223.020
356,45819.477000,199.660,-0.503,-15.938,475.048,280.076,-128.499,-217.040,-63.490,-107.020
357,45819.516000,205.591,30.680,-17.930,470.289,289.587,-135.163,-67.040,-378.490,-47.020
358,45819.556000,211.521,80.974,-49.805,471.160,280.751,-140.260,-283.040,-874.490,192.980
359,45819.580000,307.398,83.992,-28.887,472.099,280.480,-153.013,-449.040,-755.490,348.980
360,45819.613000,306.409,67.898,-73.712,462.311,272.252,-169.887,-778.040,-1200.490,250.980
361,45819.655000,229.313,2.515,-156.389,460.439,281.640,-183.412,-320.040,-824.490,177.980
362,45819.695000,185.822,6.538,-161.370,455.592,280.622,-183.445,-265.040,-353.490,63.980
363,45819.733000,156.170,46.774,-132.482,453.783,291.498,-173.401,-771.040,142.510,-159.020
364,45819.778000,176.927,12.574,-139.455,452.880,295.631,-161.543,-810.040,452.510,-192.020
365,45819.815000,187.799,-7.544,-125.510,457.852,305.775,-143.655,92.960,743.510,-134.020
366,45819.855000,173.961,35.709,-64.747,462.743,308.972,-132.787,155.960,653.510,-96.020
367,45819.875000,108.726,-20.621,-79.689,465.653,307.317,-121.050,-53.040,494.510,-30.020
368,45819.928000,265.884,-15.591,-45.821,473.239,294.469,-135.048,1315.960,-55.490,-24.020
369,45819.957000,345.946,66.892,-53.790,466.379,289.161,-152.832,1338.960,148.510,47.980
370,45819.996000,383.506,207.717,-97.619,472.122,281.580,-147.104,-334.040,240.510,168.980
371,45820.41000,435.892,242.923,-122.521,475.130,287.908,-125.383,-1238.040,971.510,-7.020
372,45820.78000,299.490,242.923,-192.249,480.229,305.430,-80.854,-1909.040,1037.510,-153.020
373,45820.116000,203.614,95.057,-395.455,480.302,305.258,-44.573,-1579.040,528.510,-42.020
374,45820.155000,96.865,126.240,-492.078,468.653,310.927,-90.563,-332.040,-2404.490,-14.020
375,45820.195000,183.846,41.745,-322.739,427.965,324.965,-184.480,-654.040,-4285.490,-245.020
376,45820.216000,39.537,7.544,56.778,358.126,324.286,-272.902,743.960,-3864.490,-605.020
377,45820.258000,74.131,-14.585,80.685,321.231,319.139,-314.282,996.960,-2165.490,-574.020
378,45820.297000,162.100,53.815,202.210,285.249,307.312,-350.905,856.960,-600.490,-628.020
379,45820.333000,183.846,-24.644,166.350,269.603,292.361,-362.057,1109.960,710.510,-661.020
380,45820.378000,512.988,-180.558,-492.078,263.635,278.411,-376.108,2326.960,468.510,-133.020
381,45820.418000,347.923,354.578,-14.942,258.484,249.820,-394.406,644.960,-144.490,-139.020
382,45820.458000,449.730,117.187,-147.424,253.520,237.109,-396.660,524.960,-52.490,65.980
383,45820.498000,512.988,41.745,-126.506,252.651,246.851,-394.484,-560.040,-164.490,145.980
384,45820.518000,512.988,107.128,-58.770,249.726,244.838,-396.496,-34.040,-449.490,4.980
385,45820.558000,512.988,238.900,170.335,247.993,265.250,-394.085,-2409.040,-403.490,710.980
386,45820.598000,195.707,-34.703,-293.852,237.875,315.955,-378.271,-2373.040,-2178.490,574.980
387,45820.636000,196.695,-131.269,104.591,246.812,336.730,-364.062,-808.040,4.510,620.980
388,45820.675000,20.757,-88.016,236.078,311.561,324.374,-336.741,378.960,2634.510,546.980
389,45820.720000,184.834,-5.532,-84.669,408.345,309.847,-245.658,343.960,5364.510,630.980
390,45820.763000,295.537,148.369,-492.078,462.561,298.422,-171.267,1804.960,5832.510,-106.020
391,45820.797000,243.151,156.417,-492.078,478.330,305.757,-65.160,-103.040,3540.510,-238.020
392,45820.837000,-37.560,-4.527,-492.078,487.025,300.448,-45.646,120.960,-495.490,331.980
393,45820.857000,49.421,161.446,-170.335,489.901,301.102,-61.316,231.960,-240.490,34.980
394,45820.900000,258.965,34.703,-54.786,492.612,285.208,-79.315,831.960,-85.490,225.980
395,45820.945000,326.178,122.216,-89.650,487.787,287.922,-86.130,251.960,-50.490,-25.020
396,45820.976000,306.409,146.358,-63.751,484.791,278.185,-86.352,-6.040,33.510,-30.020
397,45821.16000,268.849,56.833,-12.949,484.004,295.759,-81.060,-838.040,-204.490,-174.020
398,45821.56000,237.220,49.792,2.988,483.119,303.582,-77.947,-782.040,-268.490,-118.020
399,45821.96000,208.556,45.768,12.949,481.184,303.563,-77.951,-629.040,-708.490,0.980
400,45821.141000,242.162,57.839,-6.973,479.194,300.372,-89.794,-711.040,-1070.490,248.980
401,45821.156000,302.456,64.880,-51.798,476.260,300.927,-107.440,-1002.040,-1503.490,296.980
402,45821.201000,240.185,-28.668,-170.335,469.442,302.177,-135.866,-337.040,-1233.490,110.980
403,45821.237000,212.510,-34.703,-184.280,461.692,303.763,-148.595,1171.960,-644.490,-115.020
404,45821.277000,176.927,15.591,-193.245,454.800,296.383,-172.310,1336.960,-173.490,-235.020
405,45821.317000,122.564,14.585,-200.218,447.995,293.361,-174.352,500.960,334.510,-410.020
406,45821.357000,108.726,19.615,-174.319,445.122,297.130,-178.197,636.960,691.510,-464.020
407,45821.397000,125.529,52.809,-137.463,448.091,302.207,-169.252,1125.960,945.510,-525.020
408,45821.437000,153.205,123.222,47.813,449.126,308.150,-164.215,1243.960,1157.510,-617.020
409,45821.457000,304.432,31.686,-78.693,457.772,300.597,-158.480,1954.960,1109.510,-108.020
410,45821.497000,304.432,3.521,2.988,467.438,298.857,-153.595,139.960,657.510,-156.020
411,45821.537000,387.459,44.762,29.883,473.183,291.298,-146.886,242.960,598.510,59.980
412,45821.575000,288.618,148.369,-58.770,476.099,291.456,-140.993,265.960,460.510,-102.020
413,45821.618000,295.537,119.198,-76.700,479.127,301.495,-127.034,-337.040,493.510,-62.020
414,45821.655000,255.012,44.762,-44.825,479.200,303.954,-103.444,-831.040,579.510,-89.020
415,45821.700000,211.521,13.580,-36.856,479.299,309.304,-80.770,-792.040,550.510,-66.020
416,45821.740000,235.243,-4.527,19.922,482.287,315.438,-67.879,-41.040,467.510,-106.020
417,45821.780000,183.846,21.627,-19.922,481.260,308.698,-65.088,158.960,188.510,-77.020
418,45821.796000,197.683,4.527,-19.922,477.422,314.248,-75.761,709.960,-55.490,-117.020
419,45821.836000,296.525,84.998,51.798,473.479,309.981,-91.554,668.960,-353.490,0.980
420,45821.881000,426.008,194.640,45.821,472.503,311.655,-103.287,96.960,-633.490,215.980
421,45821.917000,271.815,49.792,-47.813,466.682,310.563,-106.265,-228.040,-368.490,5.980
422,45821.957000,141.344,50.798,-116.545,465.687,308.525,-110.235,554.960,-87.490,-81.020
423,45821.997000,196.695,-100.086,-75.704,460.838,307.486,-111.249,238.960,270.510,61.980
424,45822.45000,165.066,42.750,-71.720,466.675,309.613,-105.306,495.960,583.510,103.980
425,45822.80000,174.950,55.827,-82.677,469.597,307.182,-84.760,-1212.040,196.510,278.980
426,45822.100000,157.158,54.821,-116.545,474.450,303.863,-61.287,-1701.040,-16.490,204.980
427,45822.137000,118.610,-3.521,-107.580,481.179,297.349,-51.611,-852.040,-183.490,318.980
428,45822.176000,221.405,38.727,79.689,491.791,297.172,-64.341,614.960,-160.490,149.980
429,45822.217000,447.753,-8.550,80.685,485.852,287.019,-82.231,2013.960,-302.490,224.980
430,45822.263000,302.456,180.558,-80.685,489.583,277.801,-105.964,117.960,-901.490,223.980
431,45822.300000,326.178,68.904,-66.739,490.432,269.634,-124.776,788.960,-641.490,254.980
432,45822.338000,284.664,74.939,-116.545,488.408,261.719,-130.840,-149.040,-229.490,205.980
433,45822.378000,282.687,5.532,-114.553,490.441,269.720,-120.851,-592.040,193.510,-11.020
434,45822.398000,267.861,41.745,-61.759,486.716,280.750,-102.962,-596.040,562.510,-281.020
435,45822.438000,224.371,44.762,-22.911,483.915,287.863,-87.120,-934.040,474.510,-281.020
436,45822.480000,200.649,16.597,-10.957,484.036,296.061,-67.324,-613.040,250.510,-218.020
437,45822.520000,172.973,13.580,11.953,485.007,295.229,-61.457,-521.040,-3.490,-114.020
438,45822.560000,206.579,-17.603,13.946,477.296,298.951,-65.313,17.960,-538.490,-0.020
439,45822.600000,214.486,69.910,-32.872,482.093,299.495,-86.865,-109.040,-1001.490,130.980
440,45822.642000,288.618,100.086,-13.946,481.978,291.339,-104.699,-905.040,-1347.490,319.980
441,45822.677000,401.297,136.299,12.949,476.135,290.916,-121.392,-1560.040,-1578.490,272.980
442,45822.717000,307.398,-16.597,-121.525,474.178,291.566,-135.111,-42.040,-1277.490,264.980
443,45822.737000,186.811,31.686,-219.144,470.258,289.285,-148.899,364.960,-486.490,58.980
444,45822.777000,133.436,26.656,-200.218,460.579,290.032,-154.786,491.960,-104.490,-75.020
445,45822.821000,127.506,12.574,-186.272,460.601,293.764,-161.568,377.960,177.510,-170.020
446,45822.888000,108.726,51.804,-183.284,458.702,297.608,-162.468,53.960,158.510,-295.020
447,45822.903000,140.355,29.674,-90.646,455.865,303.491,-158.420,95.960,280.510,-311.020
448,45822.937000,134.425,-2.515,-59.767,457.795,302.582,-156.475,82.960,335.510,-305.020
449,45822.977000,176.927,-57.839,-111.564,458.752,300.736,-152.591,871.960,781.510,-156.020
450,45823.20000,297.514,59.851,-0.996,462.534,294.646,-166.448,1414.960,99.510,-8.020
451,45823.40000,296.525,135.293,-106.584,468.244,288.511,-183.243,659.960,-179.490,76.980
452,45823.81000,315.305,137.305,-130.490,469.127,279.783,-183.435,110.960,60.510,120.980
453,45823.121000,401.297,172.511,-115.549,475.945,278.532,-155.009,-907.040,785.510,179.980
454,45823.161000,269.838,120.204,-151.409,479.133,299.790,-116.285,-1744.040,777.510,-158.020
455,45823.201000,152.216,11.568,-329.712,478.206,300.169,-98.627,-1124.040,712.510,48.980
456,45823.241000,136.402,-64.880,-492.078,477.184,297.873,-114.370,-542.040,-1753.490,454.980
457,45823.281000,111.691,57.839,-388.482,452.815,295.005,-189.996,-1180.040,-3763.490,537.980
458,45823.317000,26.687,100.086,-208.187,397.553,300.380,-274.330,-694.040,-3650.490,-252.020
459,45823.362000,-4.942,55.827,33.868,333.733,313.264,-322.231,112.960,-2381.490,-589.020
460,45823.382000,93.900,44.762,113.556,300.814,313.569,-337.984,482.960,-194.490,-915.020
461,45823.418000,360.772,89.022,251.019,286.403,324.085,-338.762,500.960,938.510,-1205.020
462,45823.458000,512.988,-340.495,-116.545,283.405,314.327,-339.966,3489.960,1409.510,-574.020
463,45823.502000,302.456,414.931,2.988,277.935,257.150,-378.511,2297.960,494.510,-182.020
464,45823.541000,438.857,83.992,-188.265,268.507,279.666,-365.283,-2064.040,-767.490,642.980
465,45823.582000,493.220,96.063,-177.307,265.596,280.436,-373.117,316.960,-109.490,-143.020
466,45823.622000,508.046,181.564,-42.833,269.564,289.341,-367.027,-337.040,-36.490,-146.020
467,45823.662000,485.313,128.251,137.463,264.886,304.029,-358.866,-1633.040,-870.490,376.980
468,45823.687000,265.884,-4.527,-217.152,263.044,315.467,-367.442,-56.040,-1716.490,319.980
469,45823.721000,208.556,-53.815,135.471,256.242,314.236,-376.309,-856.040,-519.490,620.980
470,45823.761000,63.259,-79.969,176.311,295.138,329.715,-351.367,-381.040,1601.510,583.980
471,45823.801000,150.239,-61.862,-18.926,378.431,325.261,-281.664,-110.040,4221.510,556.980
472,45823.845000,182.857,117.187,-216.156,455.858,306.943,-177.957,1002.960,5224.510,172.980
473,45823.886000,257.977,65.886,-492.078,479.254,305.356,-83.799,283.960,3124.510,-86.020
474,45823.920000,13.838,35.709,-492.078,482.197,305.773,-66.132,237.960,413.510,286.980
475,45823.966000,160.124,249.965,201.214,484.056,301.542,-82.893,-135.040,-1072.490,26.980
476,45823.980000,478.394,-111.151,-82.677,487.834,297.178,-106.518,2372.960,-253.490,220.980
477,45824.35000,333.097,111.151,-92.638,491.585,287.270,-117.517,453.960,-35.490,100.980
478,45824.60000,299.490,113.163,-84.669,489.638,285.374,-114.621,65.960,-3.490,-196.020
479,45824.107000,308.386,129.257,-53.790,483.916,294.034,-115.422,59.960,47.510,-265.020
480,45824.151000,255.012,53.815,26.895,478.299,310.741,-103.295,-1245.040,-310.490,-156.020
481,45824.181000,208.556,12.574,-12.949,473.455,311.513,-110.153,-291.040,-592.490,-62.020
482,45824.222000,214.486,94.051,-19.922,468.605,313.106,-123.857,-435.040,-1255.490,148.980
483,45824.262000,300.479,26.656,-88.654,464.634,306.812,-143.618,-766.040,-1581.490,305.980
484,45824.302000,233.266,-21.627,-158.381,453.908,303.256,-168.236,106.960,-1243.490,122.980
485,45824.322000,245.127,-9.556,-190.257,446.149,305.640,-188.794,484.960,-786.490,25.980
486,45824.361000,205.591,27.662,-171.331,438.352,302.372,-201.631,147.960,-443.490,-21.020
487,45824.401000,150.239,2.515,-181.292,438.401,306.363,-196.639,-35.040,168.510,-20.020
488,45824.441000,137.390,26.656,-146.428,438.396,304.551,-190.795,271.960,628.510,20.980
489,45824.481000,136.402,55.827,-132.482,444.180,299.127,-175.213,491.960,976.510,-52.020
490,45824.521000,163.089,54.821,26.895,450.986,299.517,-160.480,474.960,1146.510,-177.020
491,45824.562000,11.861,5.532,-492.078,464.653,305.237,-126.982,270.960,1787.510,-221.020
492,45824.600000,512.988,-74.939,-9.961,470.340,293.600,-129.189,2592.960,302.510,165.980
493,45824.618000,260.942,-29.674,-40.840,466.422,289.571,-134.190,1564.960,789.510,-292.020
494,45824.658000,301.467,98.075,-52.794,471.242,287.698,-133.241,370.960,468.510,-30.020
495,45824.703000,298.502,103.104,-27.891,472.199,284.967,-125.455,56.960,422.510,-32.020
496,45824.743000,305.421,106.122,-8.965,475.158,289.936,-121.415,247.960,265.510,31.980
497,45824.787000,256.988,95.057,-38.848,477.118,291.961,-118.424,-119.040,37.510,67.980
498,45824.822000,213.498,45.768,-61.759,476.080,284.228,-116.637,-369.040,-144.490,137.980
499,45824.862000,178.903,45.768,-67.735,476.099,286.170,-116.594,-282.040,-277.490,139.980
500,45824.902000,157.158,-136.299,-96.623,475.107,285.923,-127.389,290.960,-256.490,91.980
501,45824.922000,254.023,31.686,-15.938,471.157,278.960,-133.435,280.960,-393.490,44.980
502,45824.962000,240.185,56.833,-54.786,469.201,280.494,-151.057,138.960,-804.490,121.980
503,45825.1000,196.695,35.709,-82.677,470.034,271.292,-172.834,338.960,-742.490,22.980
504,45825.41000,298.502,88.016,-101.603,464.156,267.006,-188.632,767.960,-128.490,-20.020
505,45825.83000,277.745,60.857,-135.471,461.326,273.839,-185.545,-118.040,-59.490,-28.020
506,45825.122000,294.548,78.963,-136.467,459.454,278.825,-178.573,-165.040,286.510,-164.020
507,45825.161000,164.077,34.703,-93.634,461.318,270.236,-172.876,-64.040,525.510,-187.020
508,45825.200000,195.707,2.515,-100.607,469.201,281.379,-154.960,-433.040,547.510,12.980
509,45825.240000,249.081,58.845,-72.716,473.109,280.899,-134.369,-401.040,775.510,-30.020
510,45825.263000,278.734,42.750,-16.934,476.089,284.314,-112.712,-685.040,692.510,-24.020
511,45825.303000,238.208,35.709,-31.875,479.051,286.673,-95.002,-540.040,381.510,-77.020
512,45825.343000,216.463,24.644,-27.891,481.083,294.674,-85.013,-510.040,229.510,-64.020
513,45825.378000,238.208,19.615,17.930,478.242,300.514,-82.928,-353.040,-225.490,27.980
514,45825.433000,291.583,122.216,26.895,479.127,292.692,-86.042,-64.040,-474.490,82.980
515,45825.463000,318.270,200.676,26.895,474.221,288.459,-99.876,-911.040,-1354.490,287.980
516,45825.500000,376.587,56.833,-37.852,471.342,295.702,-122.276,-1133.040,-1750.490,316.980
517,45825.541000,194.718,-64.880,-176.311,468.390,294.314,-139.965,-357.040,-1184.490,130.980
518,45825.566000,123.552,18.609,-184.280,461.542,289.114,-152.843,130.960,-415.490,13.980
519,45825.601000,85.004,40.739,-150.412,457.746,294.189,-140.971,-1045.040,-90.490,-32.020
520,45825.640000,145.297,-3.521,-133.479,462.690,302.305,-127.051,-803.040,435.510,-59.020
521,45825.680000,173.961,6.538,-118.537,458.951,312.321,-111.146,-170.040,631.510,-93.020
522,45825.719000,177.915,10.562,-93.634,469.648,315.596,-99.283,543.960,733.510,-233.020
523,45825.760000,298.502,134.287,-25.899,467.699,315.448,-105.174,1138.960,524.510,-493.020
524,45825.803000,279.722,74.939,17.930,470.534,310.428,-114.106,305.960,-96.490,148.980
525,45825.843000,284.664,57.839,-93.634,467.514,302.223,-132.927,1217.960,-158.490,49.980
526,45825.883000,291.583,126.240,-89.650,473.262,297.339,-136.946,52.960,-102.490,141.980
527,45825.903000,302.456,115.175,-126.506,475.180,294.553,-132.100,-669.040,100.510,93.980
528,45825.942000,259.954,111.151,-109.572,476.299,305.695,-111.257,-870.040,470.510,-27.020
529,45825.983000,214.486,94.051,-68.732,476.423,312.167,-81.693,-1412.040,571.510,-170.020
530,45826.22000,158.147,204.699,-32.872,473.685,319.884,-38.378,-1991.040,592.510,-220.020
531,45826.63000,154.193,-81.980,-85.665,474.831,333.054,-13.567,-2826.040,-543.490,-125.020
532,45826.103000,232.278,-188.605,-130.490,481.489,324.102,-26.500,162.960,-550.490,366.980
533,45826.143000,283.676,120.204,-346.646,482.394,323.507,-53.970,261.960,-1539.490,47.980
534,45826.183000,228.324,45.768,-460.202,468.819,330.128,-99.943,-1927.040,-3046.490,-39.020
535,45826.203000,171.985,42.750,-317.759,433.942,339.002,-166.504,54.960,-2993.490,-508.020
536,45826.243000,81.050,98.075,-206.195,381.593,343.628,-242.023,1237.960,-2490.490,-851.020
537,45826.283000,48.432,29.674,-174.319,321.416,336.765,-307.026,1916.960,-2019.490,-1083.020
538,45826.323000,77.097,55.827,-95.626,271.924,330.416,-353.362,1973.960,-1127.490,-1046.020
539,45826.363000,106.749,63.874,-34.864,239.622,296.557,-378.698,1770.960,-574.490,-950.020
540,45826.403000,188.788,59.851,84.669,232.815,294.398,-385.625,863.960,533.510,-539.020
541,45826.451000,265.884,52.809,231.097,240.492,285.951,-375.990,532.960,1539.510,-362.020
542,45826.490000,384.494,6.538,-365.572,248.020,265.509,-382.312,1923.960,263.510,-94.020
543,45826.503000,395.367,267.065,-56.778,241.784,225.216,-402.832,1932.960,-267.490,-275.020
544,45826.543000,465.544,135.293,-109.572,234.895,214.341,-408.972,291.960,-182.490,112.980
545,45826.583000,512.988,138.310,-67.735,234.922,216.369,-405.004,-385.040,-22.490,-29.020
546,45826.621000,512.988,171.505,7.969,241.833,230.091,-401.743,-1493.040,-132.490,214.980
547,45826.665000,407.228,175.528,-7.969,239.407,275.133,-382.116,-2824.040,-413.490,502.980
548,45826.716000,355.830,-58.845,-196.233,229.875,291.371,-389.621,236.960,-1614.490,345.980
549,45826.744000,249.081,-33.697,9.961,222.008,282.148,-408.475,387.960,-857.490,537.980
550,45826.781000,93.900,11.568,100.607,245.094,267.897,-404.820,-66.040,493.510,401.980
551,45826.820000,58.317,29.674,91.642,304.385,288.731,-365.987,-820.040,2425.510,283.980
552,45826.841000,102.795,12.574,-92.638,381.225,312.798,-276.050,-1519.040,3882.510,-120.020
553,45826.883000,183.846,36.715,-264.965,430.793,318.111,-188.549,-880.040,5200.510,250.980
554,45826.923000,312.340,53.815,-492.078,466.780,316.776,-88.475,1559.960,3945.510,-361.020
555,45826.965000,85.004,-12.574,-492.078,470.639,314.074,-80.682,1829.960,-26.490,106.980
556,45827.2000,26.687,260.024,33.868,470.593,310.989,-88.596,-339.040,-288.490,153.980
557,45827.41000,293.560,-8.550,-95.626,473.419,306.767,-105.355,1854.960,173.510,20.980
558,45827.92000,322.224,120.204,-67.735,473.373,303.682,-113.269,242.960,27.510,53.980
559,45827.126000,288.618,108.134,-53.790,471.409,299.866,-109.435,-273.040,-81.490,-21.020
560,45827.141000,293.560,128.251,-26.895,475.347,306.721,-108.294,-275.040,-178.490,-60.020
561,45827.181000,284.664,105.116,62.755,469.543,307.549,-112.210,-1169.040,-680.490,77.980
562,45827.221000,291.583,124.228,64.747,467.611,309.321,-119.040,-913.040,-1427.490,310.980
563,45827.266000,318.270,108.134,-62.755,462.723,309.662,-145.520,-896.040,-1861.490,310.980
564,45827.302000,137.390,-24.644,-239.066,453.026,310.237,-159.257,-661.040,-1345.490,99.980
565,45827.343000,145.297,-50.798,-203.206,441.363,308.721,-178.929,21.960,-959.490,86.980
566,45827.383000,108.726,41.745,-205.198,440.358,305.713,-182.920,-373.040,-476.490,-24.020
567,45827.423000,74.131,9.556,-195.237,432.674,310.578,-178.906,-552.040,-86.490,-5.020
568,45827.471000,94.888,-0.503,-155.393,435.702,323.249,-177.637,650.960,660.510,-332.020
569,45827.484000,116.633,17.603,-154.397,438.536,316.460,-178.763,1400.960,1074.510,-421.020
570,45827.526000,134.425,60.857,-80.685,445.239,308.824,-175.976,1459.960,1264.510,-511.020
571,45827.566000,199.660,-65.886,-216.156,453.015,309.244,-160.260,573.960,1307.510,-312.020
572,45827.602000,301.467,205.705,63.751,462.628,303.470,-162.329,1821.960,898.510,-137.020
573,45827.642000,297.514,0.503,-27.891,460.765,309.428,-155.336,671.960,502.510,-78.020
574,45827.682000,313.328,78.963,-41.837,466.503,304.436,-164.261,1242.960,525.510,-198.020
575,45827.726000,295.537,188.605,-68.732,467.458,302.568,-161.358,182.960,298.510,-220.020
576,45827.761000,250.069,93.045,-94.630,465.537,302.679,-155.476,-145.040,337.510,-39.020
577,45827.782000,239.197,71.921,-76.700,470.457,307.925,-139.659,-319.040,574.510,82.980
578,45827.822000,223.382,39.733,-42.833,475.365,310.410,-117.038,-594.040,542.510,71.980
579,45827.862000,245.127,38.727,3.984,479.311,315.583,-104.166,-382.040,359.510,20.980
580,45827.901000,235.243,59.851,16.934,480.264,313.694,-102.245,-180.040,-63.490,-25.020
581,45827.943000,208.556,-25.650,-14.942,477.269,306.610,-114.176,94.960,-562.490,-4.020
582,45827.998000,230.301,42.750,-30.879,467.561,307.962,-136.722,541.960,-725.490,-68.020
583,45828.22000,282.687,27.662,2.988,456.878,309.217,-163.194,-30.040,-1155.490,-212.020
584,45828.63000,124.541,28.668,-180.296,449.056,306.596,-190.728,711.960,-1021.490,-142.020
585,45828.83000,365.714,116.181,-60.763,443.237,308.158,-205.415,787.960,-482.490,40.980
586,45828.123000,249.081,117.187,-152.405,445.112,304.078,-215.308,205.960,-238.490,-74.020
587,45828.167000,208.556,76.951,-133.479,443.130,299.204,-215.421,-87.040,88.510,-4.020
588,45828.202000,205.591,53.815,-121.525,447.029,300.407,-206.560,208.960,527.510,115.980
589,45828.242000,262.919,99.081,-90.646,460.570,297.864,-195.800,102.960,648.510,334.980
590,45828.282000,244.139,44.762,-75.704,467.314,291.500,-179.256,-467.040,480.510,383.980
591,45828.323000,266.873,55.827,-55.782,473.081,284.157,-162.736,-366.040,475.510,270.980
592,45828.366000,224.371,25.650,-49.805,477.011,288.294,-152.829,-586.040,319.510,112.980
593,45828.405000,228.324,2.515,-47.813,476.043,286.515,-145.025,-435.040,153.510,29.980
594,45828.423000,224.371,19.615,-43.829,480.022,294.643,-130.127,-455.040,279.510,41.980
595,45828.463000,199.660,47.780,-25.899,481.966,294.748,-126.198,-599.040,-244.490,100.980
596,45828.505000,305.421,168.487,18.926,481.870,285.903,-131.297,-881.040,-950.490,383.980
597,45828.548000,377.575,173.517,1.992,479.899,286.423,-150.903,-1000.040,-1540.490,450.980
598,45828.583000,308.386,-33.697,-84.669,474.049,285.051,-166.637,-850.040,-1482.490,410.980
599,45828.623000,213.498,-73.933,-167.346,466.318,287.694,-175.420,-153.040,-669.490,214.980
600,45828.663000,157.158,-1.509,-113.556,466.266,281.912,-173.587,-368.040,128.510,165.980
601,45828.712000,94.888,7.544,-122.521,470.261,287.559,-139.130,-1201.040,918.510,-21.020
602,45828.727000,147.274,36.715,-163.362,477.209,298.110,-103.578,-586.040,1146.510,-149.020
603,45828.767000,117.622,-53.815,-216.156,474.392,303.303,-86.797,-43.040,850.510,-222.020
604,45828.803000,248.093,-81.980,-33.868,476.302,303.969,-101.488,1869.960,410.510,-298.020
605,45828.845000,231.290,200.676,-44.825,478.181,299.932,-109.419,807.960,-96.490,135.980
606,45828.883000,236.232,28.668,-102.599,481.035,296.853,-118.307,856.960,-104.490,-6.020
607,45828.922000,293.560,15.591,-86.661,481.840,283.853,-136.246,1607.960,314.510,-128.020
608,45828.963000,347.923,67.898,-76.700,479.951,287.804,-132.240,-256.040,234.510,-143.020
609,45829.3000,313.328,123.222,-70.724,478.138,297.753,-120.255,-97.040,433.510,-293.020
610,45829.45000,269.838,95.057,-27.891,472.391,300.889,-107.449,-556.040,267.510,-281.020
611,45829.65000,215.475,40.739,-24.903,471.543,311.710,-100.346,-712.040,11.510,-200.020
612,45829.103000,129.483,76.951,-94.630,465.789,315.666,-94.386,-474.040,-10.490,-52.020
613,45829.147000,211.521,73.933,-136.467,466.821,319.818,-82.524,-1224.040,-148.490,32.980
614,45829.187000,352.865,71.921,-151.409,469.763,322.867,-77.547,-939.040,-352.490,260.980
615,45829.228000,249.081,27.662,-359.595,464.934,326.423,-90.227,-354.040,-902.490,-207.020
616,45829.270000,283.676,-18.609,-492.078,451.189,318.201,-149.278,-235.040,-2571.490,103.980
617,45829.306000,123.552,118.193,-387.486,405.641,326.690,-228.619,-123.040,-3426.490,-57.020
618,45829.352000,43.490,44.762,-198.226,368.799,328.209,-275.734,21.960,-3291.490,-253.020
619,45829.366000,23.722,6.538,-106.584,307.745,329.255,-333.699,904.960,-2347.490,-373.020
620,45829.406000,28.664,3.521,-96.623,256.228,312.337,-374.390,1072.960,-1437.490,-356.020
621,45829.447000,114.656,91.033,-1.992,232.867,301.064,-391.361,738.960,-231.490,-412.020
622,45829.487000,274.780,63.874,172.327,230.917,297.378,-381.640,-18.040,916.510,-296.020
623,45829.527000,381.529,81.980,211.175,258.018,295.117,-363.981,594.960,2101.510,-396.020
624,45829.567000,413.158,-4.527,-273.930,255.841,272.531,-375.275,1359.960,-11.490,-480.020
625,45829.607000,199.660,196.652,-207.191,252.618,242.126,-388.705,2682.960,354.510,-182.020
626,45829.654000,428.973,54.821,-126.506,243.766,230.089,-402.720,-113.040,-541.490,138.980
627,45829.672000,470.486,139.316,-122.521,241.692,216.413,-405.970,434.960,19.510,-117.020
628,45829.706000,512.988,117.187,-6.973,240.905,233.102,-396.775,-1010.040,9.510,75.980
629,45829.746000,387.459,207.717,10.957,245.158,270.270,-385.154,-1968.040,-584.490,446.980
630,45829.787000,357.807,-37.721,-195.237,236.661,291.566,-383.718,-1363.040,-1714.490,798.980
631,45829.827000,208.556,-66.892,-125.510,229.876,293.140,-397.427,-106.040,-1557.490,656.980
632,45829.867000,112.680,-24.644,138.459,233.551,275.465,-408.599,143.960,309.510,546.980
633,45829.906000,62.270,9.556,117.541,283.870,272.546,-386.983,-409.040,1939.510,484.980
634,45829.946000,83.027,60.857,86.661,360.621,292.233,-319.699,-1031.040,3580.510,109.980
635,45829.987000,212.510,46.774,-222.132,435.567,313.153,-195.514,-1680.040,4842.510,168.980
636,45830.7000,249.081,60.857,-492.078,474.337,301.016,-102.539,1314.960,4398.510,60.980
637,45830.46000,58.317,61.862,-492.078,477.252,295.003,-68.343,531.960,1098.510,-4.020
638,45830.96000,225.359,163.458,147.424,478.118,289.640,-91.996,-294.040,-1474.490,65.980
639,45830.126000,403.274,-25.650,-88.654,479.009,284.515,-104.856,1928.960,-327.490,56.980
640,45830.180000,293.560,132.275,-40.840,486.647,277.449,-120.688,605.960,-117.490,127.980
641,45830.207000,285.652,83.992,-113.556,479.894,279.325,-120.660,248.960,1.510,-50.020
642,45830.247000,290.595,95.057,-94.630,484.726,278.445,-118.708,180.960,253.510,-135.020
643,45830.285000,250.069,56.833,-61.759,478.082,288.411,-103.791,-821.040,214.510,-156.020
644,45830.306000,216.463,56.833,-30.879,475.209,290.432,-98.849,-667.040,65.510,-105.020
645,45830.348000,198.672,65.886,-9.961,473.387,301.179,-94.692,-520.040,-265.490,-31.020
646,45830.385000,261.931,95.057,10.957,474.377,304.921,-101.471,-852.040,-975.490,197.980
647,45830.427000,386.471,98.075,32.872,478.123,294.085,-110.530,-1180.040,-992.490,426.980
648,45830.477000,313.328,104.110,-77.696,473.202,288.838,-126.347,-526.040,-1244.490,249.980
649,45830.508000,218.440,-16.597,-185.276,468.322,288.381,-145.000,521.960,-602.490,-2.020
650,45830.557000,181.869,28.668,-186.272,465.393,288.094,-156.781,1154.960,41.510,-215.020
651,45830.588000,92.911,14.585,-201.214,458.630,288.999,-156.775,-325.040,54.510,-378.020
652,45830.613000,80.062,-13.580,-146.428,458.881,312.537,-145.465,-515.040,282.510,-403.020
653,45830.647000,107.737,-4.527,-60.763,453.074,310.690,-138.653,331.960,609.510,-339.020
654,45830.693000,109.714,34.703,-39.844,458.049,322.625,-127.590,772.960,1176.510,-408.020
655,45830.727000,107.737,-21.627,-385.494,462.966,326.080,-104.948,-53.040,1324.510,-378.020
656,45830.766000,339.027,47.780,3.984,470.576,313.470,-108.154,1482.960,870.510,85.980
657,45830.805000,428.973,18.609,6.973,482.205,312.893,-95.394,-244.040,811.510,299.980
658,45830.845000,305.421,153.399,1.992,488.020,310.403,-78.766,494.960,818.510,105.980
659,45830.885000,280.710,158.428,-68.732,490.855,301.866,-71.104,82.960,540.510,184.980
660,45830.931000,258.965,59.851,-70.724,493.843,307.116,-54.310,-438.040,506.510,234.980
661,45830.946000,244.139,24.644,-46.817,499.607,297.981,-30.964,-1029.040,513.510,41.980
662,45830.985000,250.069,5.532,-11.953,491.915,298.359,-10.378,-613.040,618.510,-51.020
663,45831.27000,236.232,25.650,15.938,492.033,305.651,12.339,-332.040,577.510,-97.020
664,45831.67000,217.452,32.692,24.903,493.964,303.879,19.168,-424.040,382.510,-31.020
665,45831.108000,228.324,72.927,39.844,490.158,308.847,26.135,75.960,217.510,10.980
666,45831.148000,286.641,82.986,84.669,497.886,309.699,17.344,71.960,-407.490,134.980
667,45831.186000,308.386,108.134,82.677,497.815,306.376,-1.362,565.960,-806.490,107.980
668,45831.230000,347.923,74.939,21.914,496.758,301.103,-20.114,-138.040,-679.490,123.980
669,45831.248000,220.417,-19.615,-113.556,495.808,304.783,-28.860,499.960,-334.490,-22.020
670,45831.286000,185.822,12.574,-77.696,488.015,301.557,-39.735,863.960,42.510,-232.020
671,45831.328000,220.417,18.609,-76.700,485.193,310.224,-41.510,717.960,273.510,-86.020
672,45831.370000,213.498,17.603,-75.704,482.314,311.296,-35.609,-230.040,154.510,-120.020
673,45831.407000,182.857,36.715,-84.669,483.283,310.442,-30.722,-238.040,195.510,-162.020
674,45831.445000,166.054,50.798,-91.642,476.574,315.381,-23.762,-529.040,-27.490,-8.020
675,45831.487000,120.587,31.686,-58.770,486.237,315.368,-28.645,-151.040,-315.490,176.980
676,45831.527000,129.483,1.509,125.510,491.909,305.349,-45.527,-375.040,-727.490,173.980
677,45831.546000,512.988,-473.273,110.568,495.708,302.064,-64.224,2166.960,-524.490,252.980
678,45831.588000,254.023,386.766,-76.700,491.691,294.454,-99.706,743.960,-918.490,-28.020
679,45831.626000,273.792,62.868,-117.541,492.438,277.377,-126.561,814.960,-733.490,311.980
680,45831.666000,269.838,22.633,-143.440,493.397,279.069,-138.289,249.960,-284.490,141.980
681,45831.708000,289.606,-8.550,-117.541,490.626,289.979,-126.285,-685.040,228.510,-220.020
682,45831.746000,277.745,53.815,-58.770,481.044,296.940,-114.383,-55.040,561.510,-472.020
683,45831.788000,230.301,53.815,-21.914,483.143,310.852,-100.340,-687.040,327.510,-321.020
684,45831.832000,174.950,15.591,-8.965,479.366,317.870,-88.425,-350.040,94.510,-239.020
685,45831.865000,168.031,1.509,18.926,470.639,317.591,-97.275,102.960,-536.490,-156.020
686,45831.888000,188.788,78.963,-28.887,468.734,324.907,-116.730,350.960,-695.490,-10.020
687,45831.927000,341.004,121.210,-26.895,465.721,318.536,-140.414,-170.040,-1290.490,106.980
688,45831.965000,364.726,112.157,-68.732,455.986,316.975,-163.024,-726.040,-1553.490,172.980
689,45832.7000,265.884,3.521,-122.521,442.342,310.608,-181.827,-314.040,-1353.490,282.980
690,45832.45000,264.896,20.621,-163.362,444.250,310.368,-193.596,-291.040,-695.490,384.980
691,45832.87000,170.996,17.603,-149.416,445.187,306.559,-190.737,-307.040,-122.490,416.980
692,45832.127000,142.332,65.886,-151.409,448.984,296.219,-177.229,-685.040,367.510,383.980
693,45832.170000,143.320,61.862,-113.556,457.879,310.435,-152.378,-952.040,573.510,185.980
694,45832.188000,148.263,63.874,-91.642,464.676,306.337,-121.073,-524.040,814.510,-35.020
695,45832.226000,120.587,26.656,-99.611,468.643,312.588,-103.274,-266.040,888.510,-46.020
696,45832.266000,265.884,118.193,-17.930,467.556,300.864,-106.479,410.960,303.510,5.980
697,45832.308000,416.124,-15.591,32.872,470.463,302.704,-112.316,804.960,-1.490,59.980
698,45832.348000,286.641,155.411,-89.650,474.200,291.782,-125.299,1094.960,-41.490,31.980
699,45832.395000,371.645,153.399,-99.611,475.233,296.818,-117.340,-679.040,329.510,85.980
700,45832.427000,348.911,273.100,-161.370,477.250,296.751,-77.130,-1386.040,851.510,128.980
701,45832.469000,187.799,196.652,-118.537,477.496,314.075,-39.480,-1393.040,741.510,-206.020
702,45832.507000,172.973,-18.609,-298.833,481.413,318.082,-35.460,-256.040,412.510,-201.020
703,45832.526000,161.112,35.709,-492.078,471.721,324.871,-75.537,-264.040,-2360.490,110.980
704,45832.568000,170.996,-10.562,-379.518,447.345,320.169,-146.300,-1667.040,-3948.490,171.980
705,45832.606000,154.193,-28.668,-16.934,393.100,330.429,-229.543,71.960,-3665.490,-413.020
706,45832.648000,38.548,-73.933,89.650,339.744,327.624,-289.538,932.960,-2479.490,-564.020
707,45832.686000,209.544,-33.697,218.148,311.562,320.857,-320.148,1544.960,248.510,-370.020
708,45832.728000,315.305,17.603,158.381,322.120,309.590,-307.627,964.960,1957.510,-368.020
709,45832.770000,512.988,27.662,-177.307,340.618,316.177,-280.964,-60.040,1882.510,-110.020
710,45832.811000,359.784,83.992,38.848,341.459,303.522,-283.205,560.960,411.510,95.980
711,45832.830000,296.525,232.864,-36.856,342.304,291.795,-287.386,394.960,-191.490,113.980
712,45832.866000,313.328,107.128,-132.482,342.045,269.940,-310.427,1378.960,-142.490,-31.020
713,45832.906000,296.525,-35.709,-130.490,340.076,267.828,-317.342,547.960,30.510,-92.020
714,45832.948000,281.699,64.880,-117.541,339.113,267.862,-315.382,-68.040,99.510,-214.020
715,45832.986000,234.255,108.134,-95.626,336.290,275.644,-313.254,-330.040,-37.490,-232.020
716,45833.27000,173.961,71.921,-58.770,339.287,285.381,-313.032,-360.040,-504.490,-84.020
717,45833.68000,149.251,8.550,-94.630,319.932,286.897,-323.826,-370.040,-1180.490,42.980
718,45833.161000,232.278,40.739,-132.482,304.467,293.046,-346.278,-96.040,-1802.490,59.980
719,45833.174000,307.398,41.745,-165.354,274.327,284.275,-378.898,678.960,-1812.490,-270.020
720,45833.182000,253.035,70.916,-165.354,247.016,268.671,-414.605,983.960,-1593.490,-42.020
721,45833.206000,248.093,90.028,-27.891,229.488,259.483,-427.595,321.960,-719.490,103.980
722,45833.248000,208.556,64.880,-46.817,254.780,271.616,-416.485,-294.040,516.510,-100.020
723,45833.286000,159.135,30.680,-51.798,281.922,273.282,-396.777,-720.040,2262.510,-194.020
724,45833.328000,161.112,30.680,-82.677,349.053,298.679,-330.368,-1108.040,3350.510,-184.020
725,45833.371000,224.371,27.662,-198.226,417.112,314.031,-235.740,-235.040,4232.510,-88.020
726,45833.408000,247.104,43.756,-401.432,455.963,312.358,-152.339,977.960,3857.510,-254.020
727,45833.451000,55.351,28.668,-384.498,463.863,320.135,-110.962,1165.960,1672.510,-449.020
728,45833.469000,233.266,-31.686,-179.300,471.547,316.155,-118.880,-322.040,-337.490,373.980
729,45833.507000,215.475,15.591,30.879,471.389,304.073,-138.761,332.960,-713.490,508.980
730,45833.548000,273.792,59.851,-83.673,471.219,290.999,-159.646,1062.960,-769.490,228.980
731,45833.598000,315.305,138.310,-116.545,467.096,270.918,-188.539,618.960,-636.490,181.980
732,45833.628000,318.270,56.833,-128.498,466.052,265.774,-201.404,428.960,-250.490,21.980
733,45833.671000,303.444,59.851,-121.525,463.225,273.513,-201.239,-43.040,15.510,-144.020
734,45833.708000,252.046,50.798,-76.700,460.430,283.322,-195.143,-211.040,205.510,-258.020
735,45833.749000,231.290,52.809,-61.759,457.555,284.438,-187.279,-505.040,109.510,-164.020
736,45833.787000,205.591,50.798,-38.848,455.771,299.068,-183.035,-712.040,-264.490,41.980
737,45833.811000,183.846,74.939,-59.767,451.939,302.914,-182.958,-845.040,-696.490,150.980
738,45833.848000,234.255,91.033,-53.790,442.263,303.682,-187.865,-1066.040,-1136.490,378.980
739,45833.891000,280.710,28.668,-109.572,443.232,303.713,-186.881,-1557.040,-1139.490,509.980
740,45833.931000,221.405,-30.680,-197.230,442.222,303.294,-205.525,452.960,-758.490,196.980
741,45833.971000,211.521,-6.538,-162.366,432.392,290.255,-220.545,669.960,-456.490,210.980
742,45834.11000,177.915,32.692,-119.533,435.308,291.297,-218.555,-44.040,349.510,33.980
743,45834.51000,183.846,7.544,-94.630,440.211,293.739,-197.896,-354.040,1068.510,-179.020
744,45834.91000,194.718,40.739,-19.922,450.100,306.455,-153.463,-554.040,1896.510,-105.020
745,45834.121000,157.158,95.057,-409.401,455.115,317.893,-120.837,207.960,954.510,-461.020
746,45834.148000,33.606,-80.974,-63.751,453.159,316.795,-125.769,1743.960,921.510,-507.020
747,45834.188000,300.479,210.735,-79.689,446.276,308.617,-141.655,1471.960,516.510,-354.020
748,45834.228000,105.761,15.591,-29.883,446.367,320.052,-151.208,-50.040,-331.490,-174.020
749,45834.268000,157.158,9.556,-68.732,451.062,309.053,-168.114,721.960,-368.490,166.980
750,45834.313000,456.649,179.552,18.926,450.087,308.094,-167.156,-472.040,-281.490,170.980
751,45834.348000,65.236,109.139,-222.132,451.981,305.956,-177.006,-759.040,-1015.490,278.980
752,45834.393000,239.197,-194.640,-107.580,454.787,297.138,-182.099,-721.040,-570.490,372.980
753,45834.429000,371.645,326.413,-122.521,457.705,298.202,-179.128,-375.040,299.510,-156.020
754,45834.456000,191.753,52.809,-150.412,460.689,304.293,-168.199,327.960,681.510,-160.020
755,45834.492000,256.000,93.045,-98.615,465.557,302.873,-146.646,-439.040,705.510,31.980
756,45834.532000,246.116,74.939,-81.681,468.502,304.196,-131.900,-382.040,780.510,122.980
757,45834.571000,248.093,25.650,-73.712,476.239,298.964,-108.464,-148.040,958.510,54.980
758,45834.611000,236.232,25.650,-23.907,477.287,303.266,-89.734,-436.040,698.510,-183.020
759,45834.651000,217.452,20.621,18.926,477.501,320.289,-65.820,-461.040,734.510,-258.020
760,45834.691000,211.521,68.904,26.895,473.657,322.257,-62.842,236.960,68.510,-211.020
761,45834.733000,256.988,153.399,11.953,471.634,316.111,-76.712,-30.040,-685.490,-33.020
762,45834.768000,285.652,147.363,-85.665,468.684,314.745,-93.420,-565.040,-1194.490,424.980
763,45834.788000,296.525,101.092,-88.654,473.405,305.753,-107.339,-633.040,-1182.490,434.980
764,45834.828000,322.224,6.538,-132.482,463.735,310.103,-125.895,470.960,-641.490,-41.020
765,45834.869000,220.417,-46.774,-266.957,462.727,309.705,-143.558,235.960,-636.490,140.980
766,45834.910000,123.552,0.503,-134.475,460.709,303.603,-155.466,-348.040,-309.490,135.980
767,45834.951000,115.645,2.515,-98.615,457.802,302.647,-153.532,-382.040,25.510,56.980
768,45834.998000,144.309,-18.609,85.665,460.743,305.695,-148.554,78.960,213.510,82.980
769,45835.31000,5.931,-41.745,-287.875,464.619,304.028,-137.796,562.960,924.510,-245.020
770,45835.71000,382.517,1.509,-66.739,467.429,297.886,-153.617,1699.960,246.510,52.980
771,45835.88000,351.876,35.709,-3.984,469.303,292.922,-159.607,887.960,313.510,-141.020
772,45835.133000,343.969,163.458,-6.973,467.301,287.854,-168.550,1166.960,384.510,-107.020
773,45835.173000,348.911,173.517,-95.626,468.228,283.074,-165.712,-19.040,218.510,-175.020
774,45835.213000,320.247,108.134,-95.626,464.576,301.849,-148.632,-539.040,407.510,-239.020
775,45835.253000,264.896,56.833,-48.809,468.637,314.293,-114.024,-1324.040,920.510,-292.020
776,45835.293000,122.564,-22.633,-95.626,464.983,328.645,-77.428,-1485.040,817.510,-448.020
777,45835.333000,129.483,-23.639,-151.409,462.190,337.592,-66.449,-443.040,-3.490,-230.020
778,45835.371000,117.622,24.644,-289.868,457.288,333.402,-78.320,-925.040,-1177.490,86.980
779,45835.422000,324.201,134.287,-415.377,448.591,340.459,-106.621,-3775.040,-3786.490,480.980
780,45835.430000,306.409,36.715,-299.829,414.808,360.237,-163.131,-2433.040,-4448.490,-90.020
781,45835.480000,231.290,108.134,-202.210,363.486,368.972,-228.750,-236.040,-3739.490,-385.020
782,45835.513000,157.158,47.780,-31.875,311.106,365.377,-280.915,834.960,-2286.490,-391.020
783,45835.549000,90.934,31.686,25.899,287.730,353.954,-304.754,1515.960,-997.490,-384.020
784,45835.593000,137.390,116.181,43.829,282.622,331.059,-328.809,1344.960,895.510,-356.020
785,45835.630000,186.811,13.580,30.879,294.237,329.468,-318.032,618.960,1608.510,-324.020
786,45835.681000,273.792,123.222,-40.840,315.472,320.398,-298.575,589.960,2147.510,-496.020
787,45835.709000,236.232,-117.187,-160.374,321.428,332.472,-281.624,-203.040,1155.510,-803.020
788,45835.730000,80.062,-99.081,-118.537,322.997,298.165,-298.072,2337.960,982.510,-217.020
789,45835.770000,277.745,273.100,-80.685,322.725,274.433,-318.213,2210.960,-18.490,254.980
790,45835.813000,295.537,147.363,-41.837,317.844,270.438,-321.254,463.960,-186.490,289.980
791,45835.853000,380.541,158.428,-118.537,317.643,252.660,-335.378,1065.960,-10.490,35.980
792,45835.893000,441.822,27.662,-119.533,314.726,251.618,-337.369,-186.040,-141.490,190.980
793,45835.933000,397.344,107.128,-124.514,317.537,242.844,-340.500,179.960,86.510,-224.020
794,45835.972000,305.421,97.069,-64.747,319.622,256.627,-332.344,-475.040,137.510,-212.020
795,45836.12000,185.822,46.774,-25.899,318.908,281.062,-323.958,-912.040,-205.490,-76.020
796,45836.51000,131.459,41.745,-84.669,319.972,289.917,-318.856,-1127.040,-572.490,155.980
797,45836.71000,122.564,20.621,-146.428,312.266,295.451,-328.556,-527.040,-1565.490,294.980
798,45836.111000,127.506,51.804,-179.300,287.195,307.439,-345.994,-508.040,-2025.490,265.980
799,45836.157000,238.208,55.827,-188.265,256.214,310.438,-372.471,-376.040,-1975.490,-136.020
800,45836.193000,237.220,21.627,-84.669,231.036,310.841,-387.225,-137.040,-1450.490,-103.020
801,45836.234000,229.313,45.768,-91.642,223.386,320.431,-388.990,-528.040,-358.490,19.980
802,45836.269000,182.857,64.880,-95.626,250.671,337.544,-372.862,-608.040,770.510,118.980
803,45836.314000,125.529,83.992,-115.549,281.742,344.211,-348.132,-978.040,1946.510,322.980
804,45836.354000,138.378,77.957,-130.490,341.029,358.852,-281.978,-1030.040,3011.510,350.980
805,45836.374000,212.510,100.086,-184.280,398.180,351.296,-209.456,-117.040,3514.510,326.980
806,45836.414000,192.741,75.945,-305.805,431.189,350.969,-150.554,1364.960,3205.510,-121.020
807,45836.451000,144.309,-27.662,-359.595,442.749,340.920,-127.217,1747.960,1991.510,-307.020
808,45836.492000,85.992,6.538,-341.665,450.451,338.881,-135.091,1274.960,446.510,139.980
809,45836.542000,205.591,24.644,25.899,451.328,330.973,-142.129,-225.040,-661.490,296.980
810,45836.573000,265.884,62.868,-109.572,457.926,315.289,-152.270,1028.960,-442.490,346.980
811,45836.614000,205.591,161.446,-99.611,459.613,296.193,-183.091,1557.960,-308.490,174.980
812,45836.649000,361.761,23.639,-91.642,462.432,291.022,-198.890,703.960,-105.490,186.980
813,45836.691000,320.247,93.045,-124.514,465.296,287.167,-198.970,71.960,-59.490,32.980
814,45836.711000,310.363,121.210,-108.576,465.249,281.428,-195.175,-94.040,252.510,-81.020
815,45836.751000,274.780,70.916,-41.837,462.451,289.447,-182.254,-701.040,117.510,-49.020
816,45836.795000,237.220,67.898,24.903,460.605,296.440,-172.296,-953.040,-76.490,128.980
817,45836.831000,228.324,83.992,-5.977,454.808,298.217,-177.172,-963.040,-1042.490,477.980
818,45836.875000,206.579,45.768,-56.778,456.748,300.048,-183.011,-1359.040,-1440.490,665.980
819,45836.911000,220.417,24.644,-147.424,449.904,294.891,-193.928,-862.040,-1107.490,442.980
820,45836.953000,211.521,4.527,-169.339,444.039,290.735,-203.839,-3.040,-647.490,164.980
821,45836.992000,178.903,15.591,-175.315,442.061,288.537,-214.679,598.960,-19.490,-66.020
822,45837.29000,164.077,18.609,-209.183,444.030,289.764,-203.860,474.960,521.510,-284.020
823,45837.53000,143.320,52.809,-169.339,441.270,302.551,-194.756,490.960,1248.510,-742.020
824,45837.93000,8.896,12.574,-174.319,440.536,321.506,-170.801,631.960,1547.510,-1203.020
825,45837.132000,-87.969,-80.974,-286.879,437.734,331.251,-167.649,2447.960,1203.510,-1090.020
826,45837.173000,385.483,-14.585,-51.798,445.051,294.693,-200.807,4462.960,1698.510,-80.020
827,45837.211000,264.896,112.157,57.774,449.100,309.660,-183.795,-1263.040,207.510,-78.020
828,45837.253000,290.595,33.697,-3.984,455.788,300.988,-183.973,1198.960,460.510,143.980
829,45837.291000,318.270,158.428,-10.957,455.692,293.027,-192.976,804.960,230.510,-186.020
830,45837.335000,218.440,40.739,-134.475,456.771,302.033,-181.006,-912.040,5.510,1.980
831,45837.353000,179.892,-40.739,-87.658,457.793,306.962,-177.952,-86.040,290.510,-189.020
832,45837.391000,215.475,-33.697,-71.720,456.843,307.125,-170.105,-26.040,288.510,-182.020
833,45837.433000,273.792,118.193,-12.949,458.831,311.178,-163.147,-164.040,172.510,-15.020
834,45837.471000,400.309,217.776,69.728,463.686,310.513,-151.383,-922.040,59.510,339.980
835,45837.513000,288.618,68.904,-41.837,465.627,309.712,-144.532,-942.040,-301.490,223.980
836,45837.554000,156.170,-10.562,-175.315,464.688,312.615,-144.470,408.960,-57.490,185.980
837,45837.592000,190.764,-81.980,-159.377,463.627,303.782,-148.591,-11.040,-25.490,175.980
838,45837.635000,188.788,-101.092,-147.424,464.578,301.871,-147.651,242.960,200.510,278.980
839,45837.672000,134.425,8.550,-92.638,474.228,298.211,-141.828,-809.040,16.510,270.980
840,45837.699000,136.402,51.804,-88.654,477.137,297.420,-134.974,-1424.040,-216.490,209.980
841,45837.731000,158.147,-44.762,50.802,479.031,291.764,-128.231,-1041.040,-223.490,117.980
842,45837.771000,299.490,11.568,-11.953,481.895,291.426,-144.904,1078.960,181.510,-9.020
843,45837.813000,399.320,59.851,27.891,483.636,275.501,-163.886,1775.960,-164.490,189.980
844,45837.851000,357.807,182.570,-66.739,484.525,271.239,-181.631,218.960,-567.490,127.980
845,45837.894000,330.131,142.334,-97.619,481.526,264.113,-195.525,263.960,-374.490,101.980
846,45837.932000,295.537,31.686,-140.451,479.567,262.109,-197.535,-264.040,26.510,-79.020
847,45837.974000,281.699,6.538,-89.650,474.895,275.093,-178.624,-842.040,422.510,-354.020
848,45837.993000,232.278,37.721,-33.868,470.313,297.742,-161.459,-402.040,479.510,-396.020
849,45838.40000,152.216,31.686,-21.914,468.410,298.910,-151.631,-547.040,245.510,-165.020
850,45838.73000,140.355,41.745,-4.981,469.484,310.505,-154.313,-420.040,-726.490,38.980
851,45838.111000,248.093,54.821,-15.938,458.767,307.920,-178.910,-285.040,-1450.490,267.980
852,45838.153000,388.448,64.880,-32.872,455.646,290.827,-204.793,-410.040,-1349.490,545.980
853,45838.191000,323.212,38.727,-92.638,449.805,290.425,-220.505,-795.040,-1378.490,698.980
854,45838.236000,252.046,12.574,-148.420,444.924,287.314,-227.449,-1155.040,-1082.490,735.980
855,45838.273000,201.637,-1.509,-155.393,448.807,286.597,-217.650,-1120.040,-341.490,522.980
856,45838.311000,144.309,70.916,-145.432,452.760,290.949,-197.932,-1035.040,792.510,203.980
857,45838.334000,163.089,78.963,-154.397,465.475,295.926,-153.665,-1311.040,1123.510,130.980
858,45838.371000,176.927,71.921,-62.755,470.379,294.851,-116.413,-342.040,1230.510,80.980
859,45838.412000,125.529,-51.804,-334.693,477.245,300.224,-95.685,349.960,1044.510,-54.020
860,45838.455000,184.834,68.904,-41.837,477.293,305.963,-99.481,1180.960,552.510,-246.020
861,45838.491000,261.931,53.815,-3.984,481.973,292.181,-110.564,618.960,3.510,192.980
862,45838.535000,285.652,39.733,-57.774,480.852,279.248,-124.583,1097.960,-90.490,81.980
863,45838.579000,307.398,99.081,-156.389,484.771,284.162,-123.485,-253.040,155.510,150.980
864,45838.614000,359.784,136.299,-160.374,487.736,284.794,-96.006,-896.040,713.510,42.980
865,45838.633000,255.012,213.752,-159.377,490.882,296.839,-34.931,-2268.040,1806.510,-118.020
866,45838.676000,149.251,161.446,-165.354,484.337,307.754,23.157,-2465.040,1234.510,-235.020
867,45838.716000,83.027,13.580,-492.078,480.572,316.649,32.172,-813.040,-409.490,-551.020
868,45838.753000,112.680,121.210,-391.471,474.778,329.019,-20.521,-1270.040,-2635.490,-296.020
869,45838.796000,263.907,45.768,-188.265,456.345,333.630,-67.529,-1505.040,-3523.490,-425.020
870,45838.836000,288.618,-61.862,0.000,416.740,354.948,-139.709,-245.040,-3305.490,-678.020
871,45838.876000,272.803,-16.597,191.253,367.309,359.754,-208.352,1810.960,-1828.490,-935.020
872,45838.913000,220.417,-0.503,295.844,344.881,349.915,-248.825,2143.960,362.510,-775.020
873,45838.958000,402.286,-110.145,136.467,342.738,331.169,-261.994,2124.960,1458.510,-403.020
874,45838.976000,512.988,17.603,61.759,346.500,321.368,-268.088,1265.960,668.510,-57.020
875,45839.19000,319.259,132.275,-42.833,349.365,318.398,-272.071,-608.040,-129.490,411.980
876,45839.57000,303.444,181.564,-92.638,350.234,310.425,-282.052,1119.960,87.510,-49.020
877,45839.94000,297.514,8.550,-106.584,353.029,300.615,-288.148,111.960,37.510,-3.020
878,45839.132000,237.220,7.544,-104.591,348.172,297.741,-284.300,88.960,97.510,-248.020
879,45839.179000,205.591,11.568,-96.623,348.337,314.289,-281.971,-214.040,-114.490,-171.020
880,45839.214000,142.332,64.880,-94.630,341.617,320.005,-283.819,-558.040,-824.490,22.980
881,45839.257000,176.927,90.028,-20.918,332.905,323.394,-302.395,-455.040,-1266.490,179.980
882,45839.276000,375.598,171.505,-40.840,311.637,327.739,-316.073,-678.040,-1666.490,-1.020
883,45839.316000,317.282,80.974,-112.560,298.167,337.122,-324.719,-1038.040,-1738.490,-125.020
884,45839.356000,237.220,24.644,-252.016,268.204,344.143,-345.220,233.960,-1874.490,-243.020
885,45839.399000,288.618,1.509,-123.518,250.781,347.404,-365.778,416.960,-933.490,-317.020
886,45839.435000,201.637,5.532,-37.852,272.865,331.052,-369.036,965.960,837.510,-70.020
887,45839.481000,70.178,3.521,-69.728,321.243,325.417,-337.678,368.960,2604.510,-95.020
888,45839.513000,40.525,105.116,-87.658,380.559,340.339,-258.769,-929.040,3273.510,27.980
889,45839.556000,142.332,42.750,-232.093,432.104,348.713,-165.312,-960.040,3635.510,411.980
890,45839.593000,159.135,-6.538,-424.342,444.622,333.302,-121.498,1401.960,3373.510,367.980
891,45839.612000,90.934,131.269,-336.685,460.122,331.899,-103.844,1723.960,1372.510,-348.020
892,45839.653000,329.143,60.857,-4.981,463.904,324.925,-113.798,904.960,-298.490,208.980
893,45839.696000,224.371,109.139,-67.735,466.678,314.921,-128.724,539.960,-390.490,293.980
894,45839.733000,232.278,78.963,-103.595,472.367,306.822,-146.544,764.960,-273.490,115.980
895,45839.773000,348.911,35.709,-81.681,476.103,295.016,-155.624,522.960,33.510,87.980
896,45839.816000,320.247,102.098,-99.611,470.333,297.936,-152.629,-272.040,203.510,-68.020
897,45839.857000,295.537,102.098,-70.724,474.290,304.964,-143.639,5.960,484.510,-245.020
898,45839.894000,211.521,60.857,-31.875,471.486,309.402,-117.068,-814.040,579.510,-219.020
899,45839.916000,174.950,29.674,12.949,470.607,316.404,-107.108,-663.040,-18.490,-78.020
900,45839.962000,172.973,51.804,14.942,466.748,320.876,-122.708,-389.040,-1140.490,184.980
901,45839.994000,251.058,78.963,-25.899,464.686,313.478,-149.354,-534.040,-1674.490,417.980
902,45840.35000,284.664,56.833,-100.607,455.829,303.146,-174.119,-241.040,-1458.490,332.980
903,45840.77000,240.185,9.556,-152.405,451.921,302.741,-190.807,336.960,-975.490,284.980
904,45840.114000,268.849,45.768,-177.307,450.743,283.983,-204.955,315.960,-230.490,259.980
905,45840.157000,256.000,55.827,-202.210,451.823,293.874,-196.888,-254.040,387.510,30.980
906,45840.194000,204.602,1.509,-89.650,449.106,307.071,-169.142,-319.040,1266.510,-440.020
907,45840.237000,159.135,1.509,11.953,452.225,319.742,-123.744,232.960,2144.510,-659.020
908,45840.256000,-110.703,-114.169,-444.265,456.193,325.130,-101.061,1138.960,1844.510,-404.020
909,45840.297000,329.143,48.786,-101.603,460.882,314.066,-120.910,1874.960,1005.510,-128.020
910,45840.333000,213.498,57.839,-7.969,458.975,316.075,-116.947,-165.040,375.510,-96.020
911,45840.376000,314.317,33.697,40.840,464.744,312.270,-116.038,670.960,152.510,187.980
912,45840.413000,300.479,159.434,-43.829,468.606,313.991,-127.760,604.960,-172.490,-52.020
913,45840.454000,257.977,96.063,-95.626,464.701,310.976,-130.777,-175.040,-134.490,135.980
914,45840.498000,298.502,119.198,-19.922,470.459,303.546,-118.181,-729.040,483.510,173.980
915,45840.536000,231.290,107.128,-68.732,470.493,307.386,-120.057,-471.040,-592.490,305.980
916,45840.554000,261.931,63.874,-118.537,469.446,300.451,-126.097,72.960,-307.490,239.980
917,45840.596000,179.892,61.862,-150.412,474.300,303.303,-130.927,132.960,-121.490,-155.020
918,45840.642000,152.216,-75.945,-234.086,469.464,305.910,-142.647,1293.960,131.510,-363.020
919,45840.673000,120.587,-3.521,-247.035,463.444,290.578,-175.362,1557.960,-97.490,-349.020
920,45840.714000,59.305,22.633,-114.553,453.741,296.374,-216.442,517.960,-1136.490,-222.020
921,45840.757000,269.838,5.532,435.300,465.345,294.675,-210.571,-525.040,322.510,-15.020
922,45840.796000,339.027,348.542,0.000,466.099,275.030,-221.793,-145.040,-139.490,500.980
923,45840.833000,282.687,6.538,-96.623,470.909,273.933,-229.652,149.960,-489.490,263.980
924,45840.876000,305.421,67.898,-133.479,466.896,261.080,-238.772,85.960,7.510,76.980
925,45840.894000,278.734,19.615,-137.463,469.898,268.228,-223.897,-444.040,345.510,-139.020
926,45840.934000,270.826,92.039,-78.693,472.999,284.243,-202.941,-506.040,734.510,-274.020
927,45840.977000,232.278,69.910,-59.767,472.184,295.388,-181.121,-667.040,603.510,-236.020
928,45841.14000,170.008,38.727,-42.833,470.311,298.605,-166.344,-644.040,207.510,-79.020
929,45841.57000,178.903,-24.644,-51.798,473.300,306.508,-161.259,-83.040,-10.490,-4.020
930,45841.94000,165.066,33.697,-38.848,467.412,299.483,-169.272,-70.040,-496.490,219.980
931,45841.137000,223.382,55.827,-39.844,465.399,295.193,-187.024,-388.040,-990.490,331.980
932,45841.174000,380.541,142.334,-18.926,466.321,293.886,-202.741,-102.040,-1053.490,365.980
933,45841.198000,397.344,106.122,-7.969,457.493,284.718,-218.654,-999.040,-1410.490,527.980
934,45841.239000,347.923,51.804,-85.665,444.880,284.251,-234.381,-688.040,-1423.490,585.980
935,45841.276000,192.741,-7.544,-234.086,444.838,281.209,-240.333,-446.040,-652.490,576.980
936,45841.316000,103.784,24.644,-118.537,445.779,277.442,-235.511,-631.040,-72.490,467.980
937,45841.363000,60.293,40.739,-154.397,452.737,290.734,-207.743,-1616.040,352.510,118.980
938,45841.397000,120.587,21.627,-194.241,458.687,299.226,-177.142,-1165.040,606.510,108.980
939,45841.437000,124.541,-11.568,-185.276,462.560,296.653,-163.461,592.960,767.510,-123.020
940,45841.478000,71.166,46.774,-40.840,464.530,299.649,-160.449,1193.960,715.510,-310.020
941,45841.514000,47.444,-100.086,-384.498,473.190,295.764,-164.439,678.960,39.510,104.980
942,45841.538000,205.591,149.375,-50.802,478.826,280.999,-176.523,984.960,291.510,-101.020
943,45841.576000,336.062,38.727,-53.790,481.677,276.130,-178.586,874.960,232.510,-103.020
944,45841.617000,366.703,159.434,-91.642,481.550,264.350,-184.732,563.960,253.510,-111.020
945,45841.656000,322.224,150.381,-206.195,478.729,270.384,-173.817,-246.040,569.510,-180.020
946,45841.699000,379.552,158.428,-183.284,487.753,291.116,-117.440,-2364.040,2139.510,-100.020
947,45841.749000,138.378,29.674,-123.518,487.153,315.766,-55.112,-1944.040,1570.510,-617.020
948,45841.777000,77.097,59.851,-258.988,481.410,317.176,-32.538,-575.040,418.510,-209.020
949,45841.817000,147.274,-94.051,-492.078,483.278,317.433,-65.871,-525.040,-2253.490,395.980
950,45841.862000,188.788,46.774,-342.661,473.330,306.789,-148.504,-1428.040,-3891.490,522.980
951,45841.886000,159.135,1.509,-119.533,426.779,312.291,-230.855,-1014.040,-3744.490,152.980
952,45841.918000,170.996,-14.585,36.856,372.576,322.076,-291.553,-115.040,-2654.490,-251.020
953,45841.958000,186.811,-31.686,68.732,326.125,325.896,-318.044,56.960,-1340.490,-464.020
954,45842.6000,280.710,-35.709,67.735,309.714,329.597,-318.977,223.960,133.510,-516.020
955,45842.51000,421.066,-97.069,69.728,318.321,318.161,-313.329,691.960,1358.510,-103.020
956,45842.83000,512.988,58.845,95.626,320.005,293.757,-320.732,2317.960,101.510,362.980
957,45842.124000,393.390,64.880,-46.817,321.042,299.721,-314.713,414.960,379.510,-187.020
958,45842.159000,261.931,172.511,-107.580,328.632,286.032,-322.846,1205.960,544.510,-88.020
959,45842.178000,232.278,-5.532,-128.498,337.308,282.298,-319.969,116.960,314.510,-39.020
960,45842.228000,191.753,17.603,-106.584,334.356,276.510,-317.162,252.960,211.510,-125.020
961,45842.268000,197.683,11.568,-115.549,335.399,284.286,-316.987,91.960,-91.490,-149.020
962,45842.296000,182.857,57.839,-134.475,331.490,282.112,-325.869,158.960,-262.490,-185.020
963,45842.336000,186.811,64.880,-120.529,328.621,286.809,-331.655,30.960,-565.490,-94.020
964,45842.376000,251.058,106.122,-23.907,313.106,285.428,-343.486,-167.040,-1001.490,-13.020
965,45842.416000,410.193,169.493,-31.875,291.812,287.767,-360.151,-884.040,-1543.490,0.980
966,45842.456000,328.154,16.597,-205.198,263.953,310.514,-372.453,-668.040,-1742.490,-175.020
967,45842.496000,253.035,53.815,-258.988,239.660,305.726,-403.011,770.960,-1661.490,-298.020
968,45842.524000,314.317,-57.839,-99.611,239.578,299.664,-413.933,769.960,-32.490,-212.020
969,45842.558000,156.170,-34.703,-23.907,260.793,292.169,-411.113,966.960,1535.510,-344.020
970,45842.598000,85.992,22.633,-45.821,318.909,291.634,-372.756,-353.040,3045.510,-314.020
971,45842.638000,112.680,-16.597,-118.537,386.021,310.687,-285.894,-1175.040,3913.510,-33.020
972,45842.678000,207.568,39.733,-272.934,443.354,314.566,-178.795,-66.040,4395.510,175.980
973,45842.717000,143.320,109.139,-430.319,468.674,316.407,-106.132,1237.960,3265.510,-60.020
974,45842.759000,-14.826,-77.957,-492.078,474.513,314.155,-78.711,15.960,653.510,-137.020
975,45842.797000,159.135,-46.774,-301.821,473.396,304.782,-107.360,1151.960,-1476.490,290.980
976,45842.816000,314.317,-26.656,-36.856,481.061,298.860,-115.321,756.960,-633.490,371.980
977,45842.861000,423.042,283.159,-38.848,477.902,277.882,-141.290,1741.960,-106.490,40.980
978,45842.901000,275.768,132.275,-113.556,479.831,279.606,-152.035,57.960,-384.490,197.980
979,45842.948000,270.826,-28.668,-136.467,481.787,280.703,-147.104,-386.040,133.510,-8.020
980,45842.981000,244.139,20.621,-84.669,478.960,284.925,-130.345,-625.040,549.510,-252.020
981,45843.19000,209.544,49.792,-38.848,481.102,301.017,-105.466,-485.040,636.510,-252.020
982,45843.73000,195.707,46.774,-21.914,483.071,301.360,-90.745,-571.040,380.510,-158.020
983,45843.101000,174.950,17.603,-18.926,481.166,304.275,-89.703,-382.040,-101.490,-65.020
984,45843.138000,259.954,13.580,59.767,475.360,305.081,-94.601,76.960,-372.490,15.980
985,45843.162000,262.919,169.493,-31.875,477.271,306.632,-113.195,560.960,-706.490,35.980
986,45843.197000,342.981,122.216,4.981,469.454,304.054,-138.766,110.960,-1078.490,123.980
987,45843.241000,382.517,166.475,-50.802,464.579,304.525,-159.360,-476.040,-1201.490,128.980
988,45843.279000,261.931,73.933,-111.564,459.760,305.535,-155.425,-1501.040,-762.490,347.980
989,45843.316000,168.031,23.639,-173.323,458.854,312.278,-157.238,-445.040,-599.490,83.980
990,45843.362000,109.714,-9.556,-104.591,454.980,312.197,-159.210,-107.040,-25.490,-3.020
991,45843.399000,67.212,47.780,-112.560,450.201,317.112,-154.207,-26.040,368.510,-405.020
992,45843.438000,123.552,30.680,-109.572,444.623,335.955,-133.207,-28.040,720.510,-607.020
993,45843.457000,185.822,14.585,-101.603,450.544,344.167,-115.360,403.960,1061.510,-588.020
994,45843.497000,420.077,-84.998,-153.401,447.731,352.920,-113.211,725.960,587.510,-457.020
995,45843.537000,263.907,48.786,30.879,446.656,343.957,-123.218,1422.960,645.510,-377.020
996,45843.577000,374.610,46.774,46.817,455.413,346.285,-109.419,109.960,772.510,-34.020
997,45843.617000,228.324,202.688,23.907,448.697,351.160,-105.402,-186.040,75.510,-270.020
998,45843.661000,213.498,56.833,-82.677,449.618,347.200,-109.411,580.960,24.510,181.980
999,45843.701000,236.232,128.251,-70.724,452.456,343.086,-121.264,703.960,74.510,335.980
1000,45843.737000,251.058,75.945,-56.778,461.072,332.620,-115.594,-537.040,-73.490,300.980
1001,45843.779000,252.046,-4.527,-52.794,464.941,330.889,-107.779,-506.040,-24.490,219.980
1002,45843.799000,250.069,5.532,-57.774,467.810,327.077,-105.897,296.960,245.510,146.980
1003,45843.846000,242.162,87.010,-63.751,468.667,315.458,-105.172,539.960,368.510,151.980
1004,45843.883000,237.220,90.028,-47.813,473.562,320.467,-100.147,-60.040,233.510,232.980
1005,45843.919000,252.046,30.680,-51.798,478.352,314.775,-96.341,17.960,148.510,209.980
1006,45843.958000,244.139,29.674,-56.778,480.200,306.035,-97.512,437.960,271.510,146.980
1007,45843.997000,245.127,63.874,-50.802,488.897,304.264,-93.610,260.960,376.510,105.980
1008,45844.39000,255.012,45.768,-34.864,488.948,307.392,-83.734,117.960,453.510,137.980
1009,45844.82000,249.081,45.768,-35.860,491.791,300.689,-80.935,401.960,556.510,143.980
1010,45844.101000,245.127,67.898,-25.899,496.594,295.127,-71.241,147.960,481.510,123.980
1011,45844.143000,247.104,42.750,-14.942,498.542,294.391,-61.447,-145.040,370.510,107.980
1012,45844.181000,249.081,26.656,-9.961,498.513,289.709,-53.706,32.960,348.510,91.980
1013,45844.217000,247.104,46.774,-10.957,503.368,290.813,-49.748,138.960,297.510,88.980
1014,45844.267000,248.093,37.721,-9.961,504.304,286.119,-42.986,48.960,234.510,102.980
1015,45844.302000,248.093,27.662,0.996,508.145,282.360,-39.138,128.960,256.510,109.980
1016,45844.341000,248.093,34.703,5.977,511.078,285.322,-38.086,230.960,167.510,66.980
1017,45844.382000,244.139,27.662,8.965,510.033,276.640,-35.339,122.960,46.510,42.980
1018,45844.422000,249.081,31.686,1.992,504.217,276.475,-40.258,65.960,-46.490,-15.020
1019,45844.442000,252.046,35.709,-4.981,510.090,283.349,-39.112,-30.040,-65.490,-41.020
1020,45844.481000,250.069,37.721,-7.969,507.171,282.286,-42.084,-61.040,-68.490,-65.020
1021,45844.521000,251.058,40.739,-8.965,508.148,283.266,-42.060,-100.040,-66.490,-71.020
1022,45844.561000,250.069,36.715,-5.977,499.498,289.006,-41.951,-93.040,-64.490,-79.020
1023,45844.599000,251.058,36.715,-7.969,505.269,285.222,-40.062,-71.040,-71.490,-101.020
1024,45844.639000,248.093,37.721,-4.981,502.464,295.809,-42.775,-114.040,-114.490,-149.020
1025,45844.678000,251.058,36.715,-3.984,499.576,297.679,-44.700,-97.040,-136.490,-199.020
1026,45844.722000,249.081,47.780,-8.965,493.798,301.398,-49.533,-57.040,-162.490,-227.020
1027,45844.759000,248.093,47.780,-11.953,493.850,308.065,-55.269,-86.040,-189.490,-239.020
1028,45844.779000,243.151,50.798,-13.946,487.189,319.628,-56.007,-68.040,-211.490,-252.020
1029,45844.819000,245.127,51.804,-11.953,481.331,315.537,-62.975,-59.040,-256.490,-275.020
1030,45844.858000,240.185,55.827,-5.977,475.628,327.023,-67.635,-72.040,-341.490,-305.020
1031,45844.901000,239.197,68.904,-0.996,471.801,332.681,-73.402,-14.040,-516.490,-316.020
1032,45844.937000,242.162,100.086,-8.965,464.064,337.028,-92.935,-24.040,-697.490,-236.020
1033,45844.979000,256.000,125.234,-35.860,458.249,338.633,-105.660,-141.040,-835.490,-64.020
1034,45845.17000,285.652,80.974,-42.833,451.523,345.169,-114.355,-407.040,-870.490,58.980
1035,45845.62000,284.664,128.251,-56.778,451.516,345.989,-121.202,-740.040,-700.490,215.980
1036,45845.82000,227.336,90.028,-83.673,447.631,342.283,-111.486,-1062.040,-353.490,331.980
1037,45845.122000,189.776,66.892,-117.541,448.620,344.256,-110.459,-414.040,-382.490,72.980
1038,45845.158000,160.124,12.574,-133.479,447.585,338.314,-115.496,292.960,-58.490,-29.020
1039,45845.202000,158.147,94.051,-138.459,445.671,340.258,-114.477,233.960,134.510,-171.020
1040,45845.242000,172.973,78.963,-100.607,442.993,360.877,-102.257,-965.040,-10.490,-463.020
1041,45845.282000,211.521,7.544,-66.739,433.487,374.720,-86.279,-968.040,70.510,-579.020
1042,45845.318000,230.301,69.910,-65.743,435.442,374.933,-77.444,-293.040,356.510,-325.020
1043,45845.359000,288.618,70.916,23.907,432.692,387.806,-64.415,-719.040,373.510,-214.020
1044,45845.399000,264.896,58.845,-14.942,438.549,386.611,-33.048,-1142.040,493.510,77.980
1045,45845.419000,295.537,61.862,15.938,440.482,383.092,-17.432,-187.040,356.510,191.980
1046,45845.459000,254.023,141.328,-13.946,443.453,389.938,-16.293,182.960,335.510,-33.020
1047,45845.499000,224.371,125.234,-19.922,443.434,387.996,-16.336,318.960,315.510,86.980
1048,45845.539000,233.266,67.898,-13.946,446.260,378.488,-8.696,-14.040,223.510,115.980
1049,45845.579000,230.301,74.939,-16.934,449.158,377.589,-6.749,-24.040,173.510,123.980
1050,45845.619000,236.232,80.974,-18.926,450.085,373.693,-7.814,193.960,188.510,143.980
1051,45845.659000,244.139,91.033,-16.934,453.981,376.622,-8.721,437.960,257.510,152.980
1052,45845.699000,240.185,96.063,-22.911,458.747,368.060,-3.017,176.960,232.510,157.980
1053,45845.723000,241.174,74.939,-11.953,459.681,364.230,-1.139,-1.040,209.510,149.980
1054,45845.758000,236.232,73.933,0.000,460.657,364.325,2.788,46.960,177.510,135.980
1055,45845.798000,238.208,78.963,1.992,463.515,359.521,3.668,40.960,97.510,111.980
