Sample, Time, ACCX, ACCY, ACCZ, MAGX, MAGY, MAGZ, GYRX, GYRY, GYRZ
0,45620.636000,217.526,91.393,16.532,393.325,317.670,-75.456,-153.200,138.290,0.420
1,45620.670000,222.459,92.402,14.528,393.325,314.226,-74.575,-152.200,-6.710,52.420
2,45620.720000,232.324,81.294,3.507,395.967,313.360,-74.595,-125.200,-58.710,72.420
3,45620.733000,243.175,75.235,-11.523,396.843,309.860,-75.699,-109.200,-111.710,111.420
4,45620.773000,249.094,65.136,-20.540,396.843,313.304,-76.580,-125.200,-110.710,133.420
5,45620.815000,246.135,70.185,-24.548,401.254,310.788,-73.668,-93.200,-12.710,133.420
6,45620.850000,249.094,62.107,-21.542,398.605,302.106,-73.959,-24.200,81.290,147.420
7,45620.890000,250.081,63.116,-18.536,401.264,304.853,-68.896,-71.200,130.290,168.420
8,45620.931000,248.108,62.107,-15.530,403.913,306.647,-66.843,35.800,179.290,205.420
9,45620.971000,242.189,73.215,4.509,412.715,296.237,-67.153,60.800,133.290,268.420
10,45620.991000,244.162,69.176,1.503,415.358,285.040,-64.529,99.800,50.290,367.420
11,45621.33000,237.256,53.018,15.530,423.277,279.781,-66.660,319.800,-56.710,369.420
12,45621.71000,260.933,29.791,21.542,425.012,276.925,-75.684,281.800,-303.710,366.420
13,45621.112000,296.447,29.791,30.560,426.748,268.917,-82.889,382.800,-283.710,239.420
14,45621.160000,287.568,5.554,-26.552,428.457,262.363,-99.977,502.800,-497.710,204.420
15,45621.196000,265.865,43.929,-52.603,424.011,255.918,-113.110,281.800,-451.710,73.420
16,45621.210000,225.418,22.722,-120.736,420.471,257.483,-119.028,22.800,-517.710,41.420
17,45621.255000,209.634,7.574,-83.663,422.199,253.702,-130.068,-48.200,-442.710,86.420
18,45621.295000,206.674,4.544,-66.630,421.296,250.032,-137.141,178.800,-257.710,94.420
19,45621.331000,199.769,19.692,-57.613,423.915,248.941,-145.112,375.800,1.290,125.420
20,45621.371000,214.566,49.988,-39.577,421.274,247.231,-144.183,357.800,227.290,123.420
21,45621.412000,233.310,55.037,-36.571,424.804,244.714,-141.274,169.800,366.290,56.420
22,45621.451000,233.310,90.383,-57.613,428.344,243.150,-135.356,373.800,453.290,-122.580
23,45621.473000,262.906,55.037,-13.526,430.122,241.584,-129.443,459.800,487.290,-229.580
24,45621.511000,277.703,69.176,13.526,425.730,239.986,-124.544,232.800,425.290,-193.580
25,45621.552000,265.865,5.554,-19.538,431.035,251.386,-120.185,-266.200,225.290,-204.580
26,45621.592000,256.000,9.594,-9.519,427.543,252.561,-109.235,7.800,302.290,-213.580
27,45621.632000,248.108,44.939,-1.503,425.801,260.513,-104.018,-309.200,166.290,-286.580
28,45621.672000,252.054,64.126,-7.515,422.296,265.859,-98.891,-292.200,99.290,-310.580
29,45621.691000,252.054,32.821,-15.530,418.776,271.933,-98.705,-55.200,128.290,-312.580
30,45621.732000,246.135,61.097,-5.511,414.382,278.062,-96.534,-128.200,85.290,-345.580
31,45621.776000,260.933,42.919,-9.519,408.231,287.690,-93.262,-151.200,79.290,-310.580
32,45621.821000,251.067,70.185,-9.519,404.720,290.404,-89.214,-26.200,116.290,-260.580
33,45621.851000,240.216,69.176,6.513,405.611,299.981,-87.907,-30.200,86.290,-191.580
34,45621.896000,233.310,87.353,8.517,402.965,299.082,-88.938,29.800,-23.710,-93.580
35,45621.932000,239.229,69.176,-2.505,401.199,298.185,-89.965,35.800,-85.710,-20.580
36,45621.955000,241.202,71.195,-3.507,402.952,301.546,-93.823,87.800,-108.710,4.420
37,45621.992000,248.108,64.126,-15.530,402.933,294.461,-99.018,7.800,-94.710,22.420
38,45622.32000,239.229,69.176,-11.523,401.185,298.044,-94.935,34.800,-71.710,34.420
39,45622.73000,240.216,69.176,-7.515,401.169,291.856,-99.108,42.800,-85.710,70.420
40,45622.112000,240.216,70.185,-8.517,401.157,290.007,-103.140,25.800,-132.710,105.420
41,45622.153000,236.270,63.116,-11.523,402.906,288.159,-107.166,47.800,-182.710,142.420
42,45622.172000,246.135,74.225,4.509,404.650,291.436,-114.005,87.800,-303.710,237.420
43,45622.212000,258.960,56.047,8.517,408.158,285.250,-118.166,190.800,-438.710,310.420
44,45622.253000,294.474,40.899,24.548,408.984,275.223,-135.370,416.800,-616.710,307.420
45,45622.291000,320.123,8.584,22.544,405.401,263.430,-153.638,665.800,-776.710,261.420
46,45622.331000,290.528,70.185,-32.564,406.244,257.884,-165.731,325.800,-833.710,152.420
47,45622.371000,219.499,54.028,-103.703,395.623,263.417,-184.452,-160.200,-760.710,37.420
48,45622.411000,183.985,55.037,-113.722,390.327,265.037,-188.389,-254.200,-499.710,-40.580
49,45622.435000,136.632,30.801,-99.695,388.562,268.451,-190.270,-137.200,-162.710,15.420
50,45622.472000,141.565,22.722,-35.569,388.580,266.044,-183.397,-260.200,230.290,88.420
51,45622.511000,166.227,7.574,-19.538,395.675,265.660,-166.506,-560.200,761.290,6.420
52,45622.556000,439.491,62.107,-49.597,400.983,265.022,-158.566,190.800,417.290,-113.580
53,45622.596000,314.204,135.826,-20.540,403.675,270.682,-142.485,-336.200,526.290,-100.580
54,45622.636000,305.326,-10.604,-13.526,405.481,276.286,-128.396,-417.200,463.290,-159.580
55,45622.655000,282.636,58.067,7.515,407.253,278.976,-125.324,-118.200,364.290,-130.580
56,45622.696000,246.135,58.067,0.501,409.048,288.778,-116.063,-164.200,162.290,-104.580
57,45622.735000,243.175,87.353,6.513,402.879,290.482,-117.021,-51.200,-39.710,-1.580
58,45622.772000,238.243,62.107,-26.552,403.756,288.718,-118.068,-126.200,-170.710,72.420
59,45622.815000,230.351,55.037,-25.550,405.500,279.927,-122.320,103.800,-158.710,107.420
60,45622.852000,246.135,52.008,-34.568,407.244,274.579,-127.453,94.800,-231.710,127.420
61,45622.896000,238.243,37.870,-39.577,408.102,277.798,-136.282,98.800,-288.710,115.420
62,45622.915000,243.175,70.185,-20.540,407.190,269.732,-145.484,267.800,-361.710,168.420
63,45622.955000,275.730,73.215,8.517,407.167,269.507,-153.435,312.800,-614.710,231.420
64,45622.995000,360.570,36.860,-55.609,402.714,262.137,-168.583,80.800,-573.710,215.420
65,45623.38000,261.919,19.692,-61.620,403.574,260.205,-175.594,624.800,-100.710,56.420
66,45623.73000,222.459,52.008,-82.661,400.021,254.741,-184.720,327.800,-304.710,46.420
67,45623.115000,197.796,34.840,-111.718,398.249,252.919,-187.764,62.800,-258.710,31.420
68,45623.152000,182.012,23.732,-129.753,397.353,247.598,-191.911,50.800,-205.710,21.420
69,45623.176000,176.092,23.732,-107.710,397.342,248.353,-195.859,-45.200,-206.710,78.420
70,45623.213000,184.971,16.663,-71.640,396.455,251.740,-198.731,13.800,-70.710,76.420
71,45623.252000,200.755,21.712,-48.595,399.109,250.986,-194.775,14.800,145.290,108.420
72,45623.295000,204.701,25.751,-40.579,399.124,248.551,-188.896,-13.200,466.290,70.420
73,45623.336000,214.566,4.544,-205.902,408.845,248.000,-177.959,-240.200,451.290,82.420
74,45623.373000,296.447,58.067,-19.538,407.088,242.875,-175.152,-257.200,243.290,-121.580
75,45623.395000,311.245,47.968,-40.579,411.512,245.652,-169.090,234.800,398.290,-164.580
76,45623.433000,259.946,39.890,-33.566,411.529,249.265,-164.008,98.800,313.290,-184.580
77,45623.476000,228.378,24.742,-34.568,411.536,255.369,-162.817,-115.200,165.290,-224.580
78,45623.513000,224.432,61.097,-41.581,408.029,259.847,-157.718,-213.200,101.290,-259.580
79,45623.556000,232.324,72.205,-50.599,402.764,267.796,-152.512,-390.200,38.290,-264.580
80,45623.597000,262.906,24.742,-44.587,405.418,271.354,-149.409,-213.200,211.290,-235.580
81,45623.633000,263.892,63.116,-25.550,401.914,279.305,-144.197,-440.200,82.290,-268.580
82,45623.653000,236.270,39.890,-46.591,399.299,286.472,-136.029,-402.200,107.290,-263.580
83,45623.693000,236.270,65.136,-28.556,394.913,292.686,-130.877,-126.200,186.290,-245.580
84,45623.733000,255.013,68.166,-23.546,393.171,296.325,-124.806,-336.200,74.290,-187.580
85,45623.773000,246.135,66.146,-28.556,390.537,300.720,-122.686,-178.200,69.290,-132.580
86,45623.817000,238.243,74.225,-23.546,389.666,303.408,-119.623,-154.200,-9.710,-45.580
87,45623.857000,238.243,64.126,-29.558,390.546,298.228,-118.795,-120.200,-48.710,-6.580
88,45623.876000,242.189,61.097,-27.554,389.672,300.020,-116.753,-32.200,-60.710,5.420
89,45623.915000,236.270,59.077,-31.562,389.666,302.540,-119.651,6.800,-93.710,-26.580
90,45623.957000,239.229,70.185,-37.573,389.659,300.747,-121.695,-34.200,-104.710,-23.580
91,45624.2000,245.148,65.136,-41.581,388.770,302.398,-124.623,23.800,-32.710,-9.580
92,45624.33000,248.108,69.176,-34.568,389.657,298.143,-121.779,54.800,-0.710,6.420
93,45624.73000,248.108,68.166,-41.581,388.779,306.794,-122.494,37.800,4.290,45.420
94,45624.117000,239.229,72.205,-33.566,389.655,306.739,-124.479,100.800,17.290,82.420
95,45624.136000,226.405,70.185,-20.540,390.522,300.579,-127.655,179.800,-114.710,147.420
96,45624.173000,226.405,61.097,1.503,394.016,290.808,-135.905,218.800,-309.710,164.420
97,45624.221000,255.013,60.087,-34.568,392.218,287.865,-147.922,9.800,-557.710,152.420
98,45624.256000,251.067,45.949,-45.589,392.202,292.876,-154.711,-30.200,-633.710,166.420
99,45624.297000,255.013,52.008,-79.656,389.523,285.620,-165.878,102.800,-466.710,139.420
100,45624.337000,243.175,49.988,-98.693,391.275,283.801,-168.910,35.800,-236.710,125.420
101,45624.356000,240.216,49.988,-88.673,391.276,281.225,-168.001,93.800,105.290,85.420
102,45624.396000,239.229,49.988,-75.648,391.274,278.621,-168.085,68.800,252.290,71.420
103,45624.434000,224.432,61.097,-56.611,394.808,273.556,-163.273,101.800,334.290,52.420
104,45624.476000,230.351,61.097,-55.609,398.363,273.001,-152.357,-17.200,328.290,52.420
105,45624.513000,231.337,45.949,-48.595,400.129,270.454,-150.448,17.800,320.290,40.420
106,45624.555000,239.229,55.037,-36.571,404.538,276.534,-150.237,-33.200,248.290,31.420
107,45624.573000,253.040,46.959,-37.573,407.201,276.733,-143.271,37.800,226.290,36.420
108,45624.613000,251.067,44.939,-36.571,405.449,275.976,-139.329,43.800,188.290,25.420
109,45624.666000,246.135,47.968,-32.564,407.225,275.250,-134.382,41.800,136.290,20.420
110,45624.697000,244.162,49.988,-34.568,406.341,270.910,-134.525,27.800,107.290,20.420
111,45624.736000,246.135,47.968,-35.569,408.097,266.543,-135.655,31.800,96.290,17.420
112,45624.773000,246.135,46.959,-33.566,410.746,268.337,-133.602,13.800,67.290,17.420
113,45624.816000,248.108,50.998,-33.566,411.625,268.309,-134.593,32.800,58.290,17.420
114,45624.833000,244.162,49.988,-32.564,412.514,264.951,-130.727,13.800,30.290,14.420
115,45624.875000,243.175,50.998,-31.562,411.634,273.574,-132.436,-3.200,-8.710,12.420
116,45624.920000,243.175,48.978,-29.558,409.866,265.760,-132.695,9.800,-41.710,10.420
117,45624.957000,241.202,54.028,-26.552,410.751,274.413,-133.405,0.800,-99.710,3.420
118,45624.995000,236.270,56.047,-23.546,410.736,265.648,-136.668,-62.200,-220.710,0.420
119,45625.36000,257.973,45.949,-38.575,409.853,270.799,-138.490,-124.200,-303.710,-12.580
120,45625.76000,257.973,25.751,-50.599,408.063,267.073,-147.553,-101.200,-306.710,-24.580
121,45625.100000,243.175,41.909,-57.613,402.778,272.249,-148.395,-30.200,-206.710,-67.580
122,45625.136000,243.175,47.968,-72.642,405.419,276.534,-150.234,1.800,-42.710,-87.580
123,45625.180000,241.202,45.949,-69.636,401.023,276.616,-147.266,-46.200,122.290,-110.580
124,45625.217000,249.094,60.087,-50.599,402.793,280.145,-145.160,-20.200,295.290,-123.580
125,45625.254000,249.094,54.028,-44.587,399.299,283.028,-135.148,-89.200,312.290,-138.580
126,45625.298000,240.216,49.988,-32.564,396.676,286.667,-129.080,-36.200,290.290,-150.580
127,45625.317000,239.229,61.097,-24.548,398.445,285.017,-126.149,-50.200,204.290,-158.580
128,45625.357000,242.189,62.107,-21.542,397.579,293.781,-122.889,-37.200,134.290,-148.580
129,45625.395000,243.175,62.107,-25.550,396.704,298.148,-121.757,-74.200,73.290,-146.580
130,45625.437000,239.229,64.126,-23.546,391.426,300.805,-119.701,-84.200,-0.710,-124.580
131,45625.475000,241.202,68.166,-29.558,391.424,301.645,-120.667,-50.200,-25.710,-99.580
132,45625.517000,242.189,65.136,-25.550,393.188,304.250,-120.577,-24.200,-33.710,-90.580
133,45625.555000,242.189,68.166,-34.568,388.785,302.539,-119.654,-46.200,-43.710,-74.580
134,45625.580000,240.216,70.185,-30.560,388.784,301.671,-119.682,-29.200,-34.710,-64.580
135,45625.616000,242.189,67.156,-31.562,387.896,303.322,-122.610,-57.200,-45.710,-53.580
136,45625.655000,241.202,65.136,-32.564,386.142,302.537,-119.662,-35.200,-45.710,-51.580
137,45625.695000,241.202,71.195,-30.560,387.019,308.529,-122.444,-33.200,-56.710,-46.580
138,45625.738000,239.229,68.166,-34.568,387.027,307.746,-119.490,-18.200,-48.710,-36.580
139,45625.776000,240.216,69.176,-35.569,385.261,310.292,-121.399,-53.200,-41.710,-32.580
140,45625.798000,242.189,67.156,-35.569,386.136,302.481,-121.650,-46.200,-32.710,-31.580
141,45625.838000,240.216,69.176,-37.573,380.846,307.600,-124.480,-26.200,-10.710,-32.580
142,45625.876000,236.270,69.176,-33.566,381.729,311.073,-124.364,-45.200,-12.710,-39.580
143,45625.917000,239.229,71.195,-35.569,381.736,308.554,-121.467,-50.200,-16.710,-38.580
144,45625.957000,241.202,68.166,-32.564,383.498,309.423,-121.433,-16.200,-5.710,-33.580
145,45625.995000,241.202,72.205,-31.562,379.103,314.684,-119.290,-37.200,-22.710,-31.580
146,45626.18000,240.216,71.195,-33.566,382.616,315.442,-123.227,-28.200,-33.710,-23.580
147,45626.58000,237.256,74.225,-33.566,379.099,316.364,-121.222,9.800,-39.710,-13.580
148,45626.98000,241.202,71.195,-35.569,379.094,317.175,-123.182,-25.200,-51.710,-7.580
149,45626.136000,233.310,75.235,-35.569,379.971,311.968,-123.348,-16.200,-55.710,-9.580
150,45626.178000,242.189,72.205,-37.573,375.562,310.201,-124.412,-28.200,-67.710,4.420
151,45626.216000,238.243,71.195,-37.573,379.972,313.704,-123.291,-9.200,-76.710,4.420
152,45626.258000,233.310,76.245,-34.568,379.082,312.751,-126.304,-26.200,-99.710,6.420
153,45626.277000,235.283,71.195,-37.573,379.965,319.667,-127.070,-4.200,-129.710,19.420
154,45626.316000,244.162,70.185,-36.571,380.837,310.960,-128.343,-5.200,-144.710,22.420
155,45626.360000,242.189,69.176,-45.589,377.311,316.109,-130.173,-16.200,-146.710,28.420
156,45626.396000,240.216,72.205,-42.583,377.300,315.996,-134.149,10.800,-122.710,24.420
157,45626.438000,242.189,68.166,-49.597,378.170,313.308,-137.212,-20.200,-105.710,25.420
158,45626.477000,239.229,68.166,-53.605,379.060,313.393,-134.227,19.800,-36.710,12.420
159,45626.496000,238.243,72.205,-46.591,379.047,310.677,-138.287,16.800,7.290,6.420
160,45626.540000,235.283,68.166,-47.593,379.048,315.857,-139.112,30.800,22.290,4.420
161,45626.577000,237.256,72.205,-38.575,375.520,310.646,-139.293,68.800,18.290,3.420
162,45626.620000,237.256,70.185,-39.577,375.513,308.854,-141.337,55.800,-55.710,14.420
163,45626.662000,230.351,70.185,-40.579,375.516,309.750,-140.315,85.800,-129.710,24.420
164,45626.700000,236.270,86.343,-32.564,375.497,306.109,-146.391,100.800,-230.710,33.420
165,45626.738000,227.391,75.235,-48.595,370.188,301.568,-153.506,-54.200,-345.710,23.420
166,45626.758000,251.067,55.037,-57.613,377.236,313.640,-156.071,-58.200,-347.710,33.420
167,45626.796000,247.121,70.185,-59.616,374.569,307.365,-163.234,3.800,-316.710,24.420
168,45626.838000,232.324,42.919,-82.661,372.805,304.760,-163.324,50.800,-113.710,-17.580
169,45626.876000,226.405,109.570,-102.701,369.287,304.814,-161.348,-123.200,-15.710,19.420
170,45626.920000,240.216,67.156,-85.667,371.065,304.116,-155.407,-64.200,360.290,42.420
171,45626.957000,249.094,69.176,-53.605,379.011,305.159,-149.390,-215.200,474.290,88.420
172,45626.976000,230.351,68.166,-27.554,379.926,305.498,-137.460,-109.200,460.290,86.420
173,45627.21000,229.364,74.225,-13.526,383.467,301.357,-130.632,-140.200,269.290,121.420
174,45627.60000,212.593,90.383,-12.524,388.744,297.833,-132.715,-21.200,-43.710,178.420
175,45627.101000,235.283,43.929,-27.554,391.392,303.911,-132.510,-57.200,-239.710,180.420
176,45627.136000,240.216,69.176,-42.583,390.494,300.297,-137.595,-101.200,-422.710,177.420
177,45627.176000,232.324,79.274,-44.587,392.229,293.997,-145.737,88.800,-384.710,285.420
178,45627.221000,221.472,58.067,-50.599,393.071,279.828,-156.124,108.800,-442.710,300.420
179,45627.237000,279.676,79.274,-51.601,395.691,279.605,-164.067,262.800,-82.710,262.420
180,45627.281000,250.081,-6.564,-18.536,401.824,268.072,-173.359,572.800,-480.710,322.420
181,45627.318000,258.960,5.554,-101.699,392.953,264.870,-194.344,441.800,-1001.710,274.420
182,45627.356000,119.861,86.343,-188.869,392.887,253.022,-214.588,644.800,-534.710,111.420
183,45627.398000,130.713,36.860,-158.810,390.224,248.512,-220.701,603.800,45.290,-98.580
184,45627.436000,303.353,123.708,-81.659,398.168,242.639,-213.915,-536.200,265.290,143.420
185,45627.460000,268.825,-60.087,-129.753,392.920,258.512,-204.480,-703.200,225.290,-61.580
186,45627.502000,279.676,40.899,-79.656,397.381,265.966,-186.350,-544.200,322.290,-210.580
187,45627.540000,272.771,4.544,-73.644,398.290,273.136,-178.171,-662.200,391.290,-87.580
188,45627.577000,223.445,49.988,-46.591,402.726,273.449,-167.223,320.800,660.290,86.420
189,45627.616000,290.528,1.515,-2.505,404.514,267.685,-156.482,874.800,1225.290,-77.580
190,45627.658000,203.715,36.860,55.609,407.113,261.216,-170.585,1506.800,60.290,-99.580
191,45627.696000,396.085,108.560,20.540,392.939,257.841,-197.551,652.800,-1276.710,-113.580
192,45627.720000,323.083,61.097,-274.035,378.766,256.203,-224.460,539.800,-1799.710,-122.580
193,45627.757000,82.374,-0.505,-103.703,355.755,253.408,-261.365,450.800,-1518.710,-118.580
194,45627.799000,2.466,-27.771,-56.611,346.912,242.732,-270.677,256.800,-109.710,19.420
195,45627.846000,-2.466,-20.702,-62.622,359.303,248.484,-251.584,-573.200,906.290,269.420
196,45627.877000,189.904,17.673,-128.751,372.598,254.462,-224.537,-947.200,1330.290,320.420
197,45627.919000,196.809,12.623,-243.977,386.783,257.082,-193.623,-858.200,1000.290,273.420
198,45627.937000,322.096,277.207,63.624,392.993,262.688,-179.520,-158.200,553.290,-263.580
199,45627.981000,271.784,58.067,1.503,393.914,274.283,-168.218,-233.200,484.290,-455.580
200,45628.18000,311.245,52.008,-6.513,391.273,273.441,-167.260,-1002.200,56.290,-157.580
201,45628.61000,335.908,-46.959,-61.620,385.151,287.663,-154.903,-746.200,-175.710,-219.580
202,45628.97000,271.784,68.166,-81.659,384.283,290.379,-150.845,329.800,235.290,-224.580
203,45628.140000,259.946,82.304,-65.628,387.818,289.626,-146.886,-87.200,444.290,-15.580
204,45628.177000,235.283,34.840,-25.550,390.478,286.353,-140.033,341.800,631.290,55.420
205,45628.201000,251.067,33.830,3.507,390.488,292.485,-137.848,688.800,610.290,-78.580
206,45628.238000,216.540,-1.515,55.609,389.582,284.475,-145.062,879.800,-46.710,-197.580
207,45628.283000,397.071,-74.225,99.695,380.673,283.483,-179.877,1699.800,-1013.710,-140.580
208,45628.322000,472.046,-0.505,4.509,359.405,271.029,-221.062,575.800,-1656.710,-52.580
209,45628.358000,317.164,-74.225,-219.930,344.385,268.859,-236.076,38.800,-1382.710,265.420
210,45628.400000,267.838,-214.596,-127.750,339.013,251.631,-262.470,1610.800,-378.710,539.420
211,45628.421000,74.482,-64.126,-18.536,354.820,214.962,-271.553,1870.800,1111.290,1395.420
212,45628.460000,66.590,65.136,-86.669,386.580,180.969,-247.729,864.800,2021.290,1313.420
213,45628.497000,237.256,88.363,-67.632,407.802,165.394,-216.391,175.800,2385.290,1221.420
214,45628.540000,200.755,138.856,-161.816,436.994,149.379,-170.147,-153.200,1852.290,976.420
215,45628.581000,182.998,174.201,-147.789,449.403,138.081,-140.684,-414.200,1099.290,639.420
216,45628.618000,166.227,141.886,-69.636,452.987,138.675,-119.800,-1707.200,437.290,298.420
217,45628.665000,193.850,7.574,-30.560,458.298,142.376,-111.719,-2043.200,-208.710,242.420
218,45628.678000,408.909,-248.931,-249.988,460.045,145.680,-117.564,-101.200,-547.710,416.420
219,45628.717000,400.031,6.564,110.716,464.397,130.505,-132.938,578.800,-213.710,159.420
220,45628.761000,460.208,36.860,106.708,460.875,129.663,-131.983,110.800,-39.710,179.420
221,45628.797000,415.815,186.320,134.763,459.112,128.793,-132.017,1169.800,219.290,-261.580
222,45628.840000,248.108,152.994,-287.061,452.040,129.403,-140.957,1183.800,-565.710,-413.580
223,45628.882000,225.418,189.349,-281.049,429.894,132.487,-184.619,288.800,-2161.710,-872.580
224,45628.920000,123.807,61.097,-133.761,397.184,159.755,-231.503,-377.200,-2331.710,-1224.580
225,45628.941000,32.062,31.811,-21.542,366.273,185.683,-264.522,-253.200,-1942.710,-1515.580
226,45628.977000,-7.399,-34.840,-28.556,346.883,211.427,-273.679,-835.200,-1131.710,-1533.580
227,45629.22000,4.439,-127.748,-48.595,329.297,240.171,-268.831,-1555.200,-241.710,-1212.580
228,45629.60000,153.403,-166.122,-77.652,333.820,277.532,-235.828,-1986.200,730.290,-469.580
229,45629.102000,349.719,-131.787,-503.483,355.927,275.789,-206.024,-1091.200,860.290,550.420
230,45629.142000,381.287,-94.422,140.775,361.237,278.622,-197.971,-2072.200,678.290,-693.580
231,45629.162000,508.547,-180.260,66.630,370.097,289.467,-182.696,42.800,712.290,16.420
232,45629.199000,369.449,10.604,22.544,371.023,293.362,-167.672,-1310.200,-273.710,108.420
233,45629.242000,287.568,23.732,-61.620,374.538,292.412,-170.670,211.800,-134.710,129.420
234,45629.285000,257.973,84.323,-73.644,377.174,291.490,-172.678,240.800,101.290,244.420
235,45629.318000,204.701,57.057,-89.675,377.192,289.083,-165.805,-64.200,275.290,255.420
236,45629.363000,176.092,40.899,-75.648,383.365,277.944,-161.182,359.800,392.290,235.420
237,45629.382000,197.796,27.771,-22.544,387.767,274.475,-161.280,422.800,477.290,158.420
238,45629.420000,309.272,6.564,12.524,386.847,270.637,-174.316,584.800,-459.710,115.420
239,45629.458000,371.422,88.363,47.593,383.252,254.419,-195.707,1741.800,-838.710,67.420
240,45629.498000,329.988,200.458,-94.685,374.319,240.265,-235.915,1644.800,-1072.710,-133.580
241,45629.539000,153.403,158.043,-235.961,355.752,237.868,-258.891,830.800,-736.710,-364.580
242,45629.597000,98.158,58.067,-172.838,346.943,249.929,-261.506,-201.200,-439.710,-602.580
243,45629.620000,41.927,-44.939,-171.836,346.962,257.014,-256.312,-166.200,468.290,-461.580
244,45629.640000,113.942,-52.008,-124.744,352.301,263.573,-239.201,-296.200,963.290,-255.580
245,45629.682000,208.647,-52.008,-80.658,370.863,264.206,-217.275,-225.200,1344.290,-41.580
246,45629.720000,328.015,68.166,-6.513,382.373,265.646,-197.332,217.800,1115.290,-70.580
247,45629.762000,234.297,109.570,32.564,389.463,269.517,-183.281,-591.200,512.290,38.420
248,45629.799000,281.649,161.073,83.663,393.915,275.151,-168.189,-1305.200,84.290,-184.580
249,45629.841000,344.786,-111.590,-7.515,393.029,280.274,-171.005,113.800,-498.710,49.420
250,45629.858000,237.256,115.629,-93.683,389.482,279.178,-178.996,44.800,-417.710,-117.580
251,45629.903000,257.973,85.333,-122.740,391.256,280.160,-174.986,-219.200,-19.710,114.420
252,45629.938000,259.946,75.235,-104.704,397.419,271.512,-174.254,195.800,553.290,378.420
253,45629.982000,252.054,26.761,-52.603,408.031,269.339,-159.396,-183.200,561.290,337.420
254,45630.20000,220.486,29.791,-4.509,413.328,261.699,-153.669,-20.200,436.290,187.420
255,45630.62000,221.472,33.830,28.556,413.347,264.473,-147.621,-124.200,-120.710,174.420
256,45630.112000,212.593,42.919,17.534,417.727,261.646,-155.642,-10.200,-729.710,216.420
257,45630.121000,252.054,30.801,10.521,411.483,252.258,-180.792,422.800,-1116.710,200.420
258,45630.161000,229.364,37.870,-55.609,398.164,244.318,-215.847,437.800,-1556.710,172.420
259,45630.203000,166.227,39.890,-216.924,386.626,239.153,-244.848,294.800,-1214.710,-2.580
260,45630.238000,256.987,64.126,-153.800,379.549,234.554,-253.957,89.800,-748.710,-23.580
261,45630.281000,252.054,33.830,-169.832,375.133,233.570,-257.975,-340.200,-234.710,-38.580
262,45630.321000,242.189,31.811,-133.761,376.042,245.052,-250.649,-368.200,305.290,-126.580
263,45630.364000,253.040,26.761,-114.724,379.615,254.157,-235.447,-601.200,547.290,-229.580
264,45630.383000,244.162,33.830,-96.689,382.320,270.290,-217.041,-522.200,667.290,-288.580
265,45630.423000,211.607,63.116,-97.691,380.587,271.439,-207.079,-260.200,826.290,-266.580
266,45630.461000,240.216,57.057,-56.611,388.573,279.763,-188.910,-235.200,807.290,-159.580
267,45630.503000,208.647,65.136,-42.583,388.618,279.346,-173.035,81.800,745.290,-37.580
268,45630.543000,210.620,79.274,-23.546,394.807,275.264,-164.211,-18.200,518.290,32.420
269,45630.579000,245.148,40.899,-46.591,400.116,284.117,-157.949,-169.200,373.290,45.420
270,45630.603000,244.162,55.037,-21.542,401.005,279.890,-154.111,24.800,227.290,-48.580
271,45630.641000,236.270,67.156,13.526,400.122,285.041,-155.933,172.800,-122.710,-31.580
272,45630.683000,319.137,21.712,-20.540,398.337,280.503,-163.037,81.800,-413.710,108.420
273,45630.723000,332.948,31.811,9.519,393.916,273.443,-167.252,48.800,-329.710,67.420
274,45630.761000,338.867,56.047,10.521,389.455,270.301,-186.235,976.800,-715.710,180.420
275,45630.799000,230.351,140.876,-87.671,381.467,261.948,-205.398,141.800,-870.710,38.420
276,45630.842000,199.769,82.304,-118.732,370.867,265.970,-216.225,-562.200,-950.710,-34.580
277,45630.873000,94.212,-15.653,-73.644,366.456,276.242,-220.870,-739.200,-631.710,37.420
278,45630.901000,50.805,-24.742,-59.616,367.360,273.024,-212.035,-15.200,598.290,69.420
279,45630.943000,109.010,-11.613,-55.609,376.223,272.698,-193.150,93.800,1100.290,49.420
280,45630.983000,130.713,212.576,-503.483,385.950,279.959,-181.961,261.800,643.290,-115.580
281,45631.23000,319.137,35.850,138.771,383.301,272.145,-182.223,-234.200,40.290,73.420
282,45631.61000,424.694,-4.544,25.550,386.813,267.723,-185.334,124.800,-407.710,130.420
283,45631.79000,367.476,-20.702,-203.898,371.796,273.337,-201.088,207.800,-968.710,-297.580
284,45631.120000,340.840,-12.623,-189.871,345.290,282.889,-230.653,401.800,-1278.710,-485.580
285,45631.161000,240.216,-244.892,-78.654,330.187,263.523,-271.049,2229.800,-484.710,-283.580
286,45631.201000,115.915,-211.566,45.589,331.016,236.306,-282.852,2381.800,544.290,654.420
287,45631.247000,69.549,-87.353,-2.505,353.034,200.931,-276.979,929.800,1655.290,1229.420
288,45631.279000,172.146,69.176,-46.591,388.358,175.959,-240.935,-20.200,2176.290,1338.420
289,45631.321000,308.285,114.619,-139.773,420.202,160.899,-191.672,-1006.200,2137.290,1267.420
290,45631.342000,326.042,148.955,-116.728,437.886,153.804,-167.021,74.800,1721.290,981.420
291,45631.380000,210.620,149.964,-139.773,447.642,138.948,-140.661,-183.200,873.290,503.420
292,45631.422000,232.324,157.034,-102.701,451.181,143.403,-136.533,-372.200,-10.710,13.420
293,45631.462000,256.000,58.067,-60.618,445.866,145.693,-147.399,-686.200,-661.710,119.420
294,45631.500000,254.027,11.613,-96.689,444.068,150.505,-161.150,-1253.200,-825.710,55.420
295,45631.542000,303.353,67.156,-17.534,437.886,145.180,-165.315,37.800,-492.710,-92.580
296,45631.561000,318.150,10.604,3.507,436.134,155.623,-163.989,-424.200,146.290,-249.580
297,45631.603000,376.355,-50.998,-9.519,435.278,169.651,-158.571,-720.200,170.290,-567.580
298,45631.642000,240.216,-142.895,-51.601,434.445,177.017,-143.440,-943.200,268.290,-53.580
299,45631.685000,184.971,35.850,-53.605,434.474,181.611,-134.354,-489.200,177.290,3.420
300,45631.724000,214.566,146.935,-62.622,437.998,186.793,-135.168,-25.200,206.290,-22.580
301,45631.762000,233.310,30.801,-10.521,435.376,187.856,-128.191,31.800,198.290,-11.580
302,45631.805000,249.094,-73.215,10.521,438.004,183.406,-132.299,-66.200,-166.710,118.420
303,45631.823000,230.351,-68.166,3.507,438.873,174.670,-134.565,141.800,-423.710,295.420
304,45631.861000,207.661,-129.767,-100.697,439.704,168.144,-150.662,-311.200,-837.710,455.420
305,45631.903000,290.528,53.018,-31.562,438.750,149.324,-172.129,1313.800,-546.710,550.420
306,45631.941000,352.678,73.215,-30.560,439.577,129.834,-186.660,687.800,-320.710,531.420
307,45631.983000,312.231,133.807,-47.593,436.931,129.804,-187.663,62.800,-238.710,147.420
308,45632.21000,290.528,44.939,-112.720,436.046,127.171,-188.744,770.800,87.290,-118.580
309,45632.42000,291.514,4.544,-170.834,432.502,120.084,-193.950,1444.800,22.290,-443.580
310,45632.85000,223.445,44.939,-101.699,427.190,125.846,-204.703,1322.800,-376.710,-722.580
311,45632.125000,235.283,21.712,-89.675,416.571,133.983,-223.340,333.800,-787.710,-696.580
312,45632.163000,206.674,27.771,-78.654,405.969,138.845,-235.132,-428.200,-1049.710,-579.580
313,45632.201000,179.052,-1.515,-77.652,390.080,164.367,-252.229,-981.200,-1143.710,-609.580
314,45632.241000,119.861,22.722,-84.665,373.337,187.565,-259.474,-845.200,-966.710,-744.580
315,45632.283000,139.592,-7.574,-49.597,355.717,209.951,-264.762,-1114.200,-784.710,-969.580
316,45632.305000,156.362,-20.702,-58.614,349.579,232.627,-260.073,-1100.200,-200.710,-1100.580
317,45632.342000,218.513,-26.761,-67.632,343.476,262.557,-244.227,-1236.200,214.290,-892.580
318,45632.385000,260.933,-65.136,-82.661,347.084,284.068,-219.686,-1189.200,587.290,-555.580
319,45632.424000,292.501,-54.028,-90.677,356.845,291.667,-196.569,-385.200,966.290,-149.580
320,45632.462000,295.461,-55.037,-24.548,365.699,299.012,-182.400,-270.200,932.290,-38.580
321,45632.502000,281.649,118.659,-205.902,371.913,302.071,-166.393,-76.200,807.290,-296.580
322,45632.521000,381.287,55.037,70.638,372.818,306.609,-159.292,-143.200,339.290,-232.580
323,45632.561000,298.420,59.077,-28.556,374.601,308.543,-152.273,-472.200,57.290,-84.580
324,45632.602000,310.258,38.880,-14.528,372.883,319.324,-139.020,-1271.200,-203.710,52.420
325,45632.641000,262.906,57.057,-37.573,373.765,316.749,-138.107,-122.200,-78.710,-75.580
326,45632.695000,237.256,119.669,-70.638,373.774,320.277,-136.007,-143.200,-94.710,-14.580
327,45632.722000,242.189,78.264,-69.636,369.371,319.434,-135.055,-409.200,-38.710,99.420
328,45632.765000,236.270,61.097,-58.614,375.553,317.872,-129.128,79.800,221.290,53.420
329,45632.781000,214.566,65.136,-48.595,373.801,323.135,-126.977,-220.200,146.290,12.420
330,45632.822000,215.553,45.949,-36.571,372.052,321.538,-122.070,-211.200,51.290,-25.580
331,45632.863000,234.297,93.412,-25.550,375.584,328.513,-120.839,-151.200,-178.710,-16.580
332,45632.908000,236.270,84.323,-42.583,374.697,328.456,-122.830,-388.200,-341.710,-1.580
333,45632.946000,240.216,84.323,-66.630,372.943,324.227,-119.001,-816.200,-397.710,51.420
334,45632.983000,279.676,114.619,-74.646,370.302,329.405,-119.834,156.800,-81.710,-115.580
335,45633.2000,176.092,127.748,-70.638,372.922,322.294,-126.014,541.800,149.290,22.420
336,45633.46000,292.501,27.771,-65.628,379.124,323.505,-114.039,-518.200,159.290,266.420
337,45633.85000,243.175,39.890,-47.593,386.172,320.934,-113.107,477.800,436.290,296.420
338,45633.124000,227.391,88.363,-34.568,390.572,317.437,-114.199,164.800,206.290,308.420
339,45633.162000,212.593,74.225,-16.532,393.212,307.079,-112.541,232.800,-80.710,313.420
340,45633.204000,215.553,79.274,-13.526,394.939,297.251,-122.784,30.800,-459.710,334.420
341,45633.244000,228.378,8.584,-26.552,401.950,290.002,-133.920,-150.200,-722.710,307.420
342,45633.263000,248.108,37.870,-19.538,400.151,288.767,-146.875,165.800,-958.710,287.420
343,45633.306000,220.486,37.870,-49.597,395.663,280.191,-173.978,366.800,-1315.710,252.420
344,45633.342000,221.472,41.909,-86.669,386.750,266.235,-207.228,1010.800,-1234.710,135.420
345,45633.384000,233.310,40.899,-150.795,382.277,262.112,-230.215,261.800,-1088.710,250.420
346,45633.437000,257.973,9.594,-140.775,374.312,254.852,-241.399,200.800,-633.710,165.420
347,45633.462000,207.661,91.393,-197.886,373.416,248.663,-245.575,-81.200,-289.710,124.420
348,45633.485000,197.796,86.343,-157.808,373.445,250.681,-235.579,-645.200,221.290,219.420
349,45633.523000,223.445,19.692,-137.769,382.296,257.129,-222.433,-518.200,425.290,161.420
350,45633.566000,272.771,-1.515,-122.740,390.250,260.833,-214.343,-512.200,551.290,43.420
351,45633.602000,245.148,52.008,-124.744,396.470,268.260,-197.202,-394.200,673.290,-5.580
352,45633.642000,236.270,46.959,-87.671,404.440,270.396,-183.205,-174.200,802.290,56.420
353,45633.683000,236.270,40.899,-71.640,408.905,270.991,-162.318,-155.200,811.290,59.420
354,45633.726000,232.324,-3.535,-74.646,413.354,274.020,-147.311,-62.200,675.290,-82.580
355,45633.745000,210.620,-11.613,-50.599,410.715,263.715,-143.682,-32.200,471.290,-125.580
356,45633.782000,227.391,11.613,-53.605,408.105,274.383,-134.407,-487.200,197.290,-115.580
357,45633.824000,176.092,92.402,-53.605,408.995,278.780,-132.276,246.800,153.290,-152.580
358,45633.867000,224.432,13.633,-27.554,405.455,279.476,-138.222,282.800,-94.710,-228.580
359,45633.907000,372.408,55.037,3.507,403.676,279.306,-144.191,761.800,-135.710,-49.580
360,45633.947000,382.274,103.511,5.511,400.114,278.069,-157.152,735.800,-220.710,-119.580
361,45633.971000,335.908,27.771,-49.597,386.825,267.836,-181.358,1214.800,-457.710,-221.580
362,45634.6000,162.281,70.185,-214.920,376.201,265.585,-199.339,1019.800,-475.710,-176.580
363,45634.44000,187.931,23.732,-172.838,374.399,265.189,-213.260,552.800,-581.710,-42.580
364,45634.83000,129.726,16.663,-150.795,363.785,261.315,-227.321,287.800,-507.710,62.420
365,45634.123000,95.198,15.653,-107.710,363.758,258.458,-236.351,328.800,-281.710,8.420
366,45634.163000,97.171,7.574,-83.663,361.980,255.711,-241.411,316.800,88.290,67.420
367,45634.209000,120.848,27.771,-90.677,363.754,253.250,-236.520,364.800,406.290,17.420
368,45634.223000,183.985,33.830,-69.636,369.938,253.423,-230.537,84.800,564.290,-37.580
369,45634.267000,198.782,3.535,-64.626,378.789,252.116,-215.656,162.800,815.290,111.420
370,45634.312000,238.243,-45.949,-77.652,394.659,242.777,-208.957,451.800,775.290,213.420
371,45634.346000,511.507,106.540,80.658,398.156,230.458,-215.304,1240.800,125.290,-52.580
372,45634.384000,407.923,-83.314,31.562,396.422,237.626,-207.133,-887.200,28.290,-263.580
373,45634.424000,317.164,-86.343,-29.558,386.749,252.432,-204.697,-728.200,-218.710,-355.580
374,45634.444000,302.366,-88.363,-91.679,376.189,261.160,-202.462,-619.200,-439.710,2.420
375,45634.492000,311.245,-187.329,-126.748,376.151,244.415,-211.942,1271.800,156.290,318.420
376,45634.524000,233.310,-101.491,-70.638,380.519,228.541,-221.380,2346.800,749.290,923.420
377,45634.570000,202.728,22.722,-48.595,399.851,184.986,-228.690,1406.800,968.290,1197.420
378,45634.606000,204.701,56.047,-40.579,413.974,158.567,-212.621,321.800,946.290,1020.420
379,45634.643000,231.337,54.028,-51.601,426.352,146.091,-194.119,-196.200,943.290,878.420
380,45634.687000,230.351,61.097,-35.569,434.313,140.387,-181.370,-250.200,1025.290,830.420
381,45634.718000,200.755,59.077,-84.665,447.595,129.005,-154.886,13.800,1173.290,634.420
382,45634.743000,168.200,33.830,-59.616,457.336,112.272,-133.552,511.800,1162.290,523.420
383,45634.787000,105.064,81.294,-84.665,460.902,109.253,-117.750,-343.200,599.290,300.420
384,45634.827000,131.699,72.205,-154.802,465.330,110.350,-109.757,-1930.200,-187.710,289.420
385,45634.863000,142.551,-60.087,-285.057,461.760,109.029,-125.699,-2215.200,-1474.710,258.420
386,45634.903000,348.732,-20.702,81.659,455.506,108.151,-156.530,-488.200,-1085.710,151.420
387,45634.933000,441.464,24.742,-3.507,451.055,106.829,-172.475,-1030.200,-882.710,57.420
388,45634.963000,473.033,-100.481,-27.554,453.678,103.190,-178.543,341.800,-165.710,-43.580
389,45635.7000,390.166,29.791,17.534,454.570,106.747,-175.446,601.800,299.290,-78.580
390,45635.44000,359.584,-0.505,4.509,453.718,104.452,-164.600,491.800,657.290,-61.580
391,45635.87000,226.405,13.633,-87.671,453.736,112.377,-160.371,14.800,41.290,-99.580
392,45635.124000,223.445,-53.018,-119.734,449.310,111.308,-167.370,-278.200,-462.710,-225.580
393,45635.166000,165.241,-9.594,-46.591,442.256,121.579,-172.025,-1085.200,-437.710,-299.580
394,45635.185000,182.998,-105.531,-49.597,437.861,134.595,-171.616,-518.200,-170.710,-352.580
395,45635.227000,168.200,3.535,-67.632,436.980,138.038,-172.501,283.800,65.290,-297.580
396,45635.265000,174.119,10.604,-73.644,436.116,150.274,-169.127,-177.200,20.290,-356.580
397,45635.307000,158.335,-36.860,-101.699,430.845,161.611,-166.790,-891.200,-95.710,-387.580
398,45635.345000,297.434,-42.919,-75.648,434.387,164.386,-160.731,710.800,462.290,-161.580
399,45635.383000,265.865,-126.738,-30.560,434.417,173.292,-152.498,-630.200,229.290,-207.580
400,45635.407000,220.486,-28.781,-48.595,434.450,172.762,-140.599,-405.200,255.290,-17.580
401,45635.446000,239.229,26.761,-50.599,436.223,175.451,-137.527,-782.200,24.290,1.420
402,45635.486000,259.946,33.830,-31.562,440.645,179.936,-132.403,-128.200,141.290,-1.580
403,45635.526000,236.270,-45.949,6.513,439.757,179.011,-134.421,-118.200,-63.710,70.420
404,45635.566000,263.892,-71.195,19.538,442.365,173.495,-145.515,162.800,-447.710,239.420
405,45635.607000,270.798,-72.205,-15.530,439.680,162.739,-157.789,184.800,-726.710,364.420
406,45635.647000,308.285,1.515,-21.542,434.349,154.529,-171.974,522.800,-800.710,368.420
407,45635.675000,341.827,113.609,-67.632,436.069,140.332,-183.352,1003.800,-249.710,129.420
408,45635.706000,263.892,132.797,-202.896,431.633,127.951,-191.712,1414.800,-119.710,98.420
409,45635.746000,212.593,120.679,-141.777,428.938,115.375,-207.023,589.800,-645.710,-228.580
410,45635.787000,188.917,111.590,-145.785,422.772,138.637,-212.246,-578.200,-687.710,-732.580
411,45635.828000,158.335,80.284,-103.703,410.431,166.991,-221.296,-984.200,-607.710,-1243.580
412,45635.866000,168.200,39.890,-103.703,391.974,208.754,-216.028,-1206.200,-365.710,-1692.580
413,45635.884000,170.173,16.663,-80.658,376.154,244.443,-210.948,-718.200,-72.710,-1835.580
414,45635.928000,203.715,-48.978,-77.652,366.515,275.966,-200.026,-319.200,382.290,-1738.580
415,45635.980000,227.391,-116.639,-70.638,360.381,289.206,-191.673,-330.200,794.290,-1338.580
416,45636.7000,288.555,-199.448,3.507,356.930,308.023,-170.220,299.800,1140.290,-968.580
417,45636.46000,252.054,-28.781,-156.806,369.315,319.739,-154.905,21.800,1024.290,-556.580
418,45636.88000,334.921,84.323,103.703,379.904,313.896,-147.117,-231.200,282.290,307.420
419,45636.128000,511.507,-230.753,9.519,378.213,325.798,-124.891,-2004.200,-316.710,161.420
420,45636.148000,260.933,46.959,-68.634,379.074,325.602,-131.845,-97.200,-445.710,-62.580
421,45636.189000,228.378,129.767,-102.701,375.562,330.024,-128.734,-434.200,-163.710,-19.580
422,45636.227000,258.960,63.116,-98.693,375.562,321.400,-127.028,-106.200,142.290,245.420
423,45636.264000,246.135,72.205,-46.591,381.725,320.508,-128.030,192.800,269.290,272.420
424,45636.307000,230.351,56.047,-24.548,387.898,314.550,-124.232,-56.200,40.290,234.420
425,45636.344000,213.580,76.245,-3.507,388.764,309.229,-128.373,104.800,-244.710,174.420
426,45636.364000,223.445,65.136,-14.528,390.499,303.797,-136.488,-18.200,-637.710,169.420
427,45636.407000,227.391,59.077,-24.548,389.590,310.403,-148.193,-108.200,-1098.710,127.420
428,45636.444000,229.364,45.949,-78.654,378.082,308.123,-167.170,-46.200,-1229.710,93.420
429,45636.487000,248.108,60.087,-86.669,368.306,295.204,-194.432,248.800,-1256.710,94.420
430,45636.524000,184.971,66.146,-162.818,362.969,299.005,-213.192,326.800,-839.710,80.420
431,45636.567000,247.121,79.274,-156.806,357.645,285.699,-223.571,68.800,-482.710,119.420
432,45636.604000,215.553,48.978,-186.865,363.814,291.751,-224.348,-169.200,-104.710,192.420
433,45636.626000,242.189,46.959,-155.804,369.126,289.433,-214.476,-267.200,498.290,102.420
434,45636.668000,243.175,32.821,-131.757,376.225,294.257,-197.416,-259.200,754.290,-17.580
435,45636.707000,227.391,55.037,-105.706,377.156,297.340,-180.432,-143.200,880.290,-76.580
436,45636.747000,230.351,61.097,-80.658,381.598,301.154,-168.378,-131.200,879.290,-86.580
437,45636.787000,226.405,60.087,-71.640,384.287,303.342,-152.411,-54.200,856.290,-61.580
438,45636.829000,226.405,58.067,-63.624,392.254,301.138,-138.555,78.800,829.290,-54.580
439,45636.848000,232.324,45.949,-47.593,394.940,303.299,-123.581,77.800,709.290,-72.580
440,45636.888000,231.337,63.116,-40.579,396.719,306.913,-118.493,187.800,612.290,-73.580
441,45636.928000,235.283,53.018,-48.595,397.624,308.007,-110.511,121.800,605.290,-102.580
442,45636.968000,238.243,74.225,-27.554,398.529,309.969,-102.500,260.800,509.290,-93.580
443,45637.6000,237.256,70.185,-19.538,399.426,312.714,-97.443,182.800,322.290,-62.580
444,45637.51000,232.324,63.116,5.511,402.051,311.679,-103.427,369.800,7.290,-61.580
445,45637.88000,221.472,76.245,32.564,393.214,305.372,-111.603,258.800,-441.710,-73.580
446,45637.106000,247.121,61.097,-12.524,387.878,302.285,-128.602,112.800,-820.710,-26.580
447,45637.149000,353.665,27.771,-14.528,382.531,303.397,-150.428,534.800,-1101.710,-119.580
448,45637.201000,389.179,72.205,0.501,367.438,294.476,-189.493,1600.800,-896.710,-182.580
449,45637.228000,321.110,135.826,-64.626,360.335,295.643,-209.338,1107.800,-1086.710,-99.580
450,45637.278000,137.618,99.471,-215.922,348.845,297.845,-223.205,-619.200,-898.710,179.420
451,45637.311000,112.956,-6.564,-170.834,340.035,293.526,-222.380,-634.200,-486.710,263.420
452,45637.329000,101.118,28.781,-139.773,346.203,291.823,-221.423,159.800,34.290,453.420
453,45637.370000,127.753,82.304,-100.697,353.253,279.789,-217.819,-284.200,186.290,526.420
454,45637.413000,132.686,42.919,-135.765,363.855,279.238,-206.880,-803.200,342.290,430.420
455,45637.456000,222.459,-39.890,-102.701,374.465,273.593,-192.134,-62.200,651.290,527.420
456,45637.487000,193.850,70.185,-62.622,386.828,264.420,-179.483,-305.200,516.290,443.420
457,45637.527000,267.838,136.836,-70.638,393.009,265.433,-174.466,-315.200,207.290,288.420
458,45637.567000,304.339,41.909,-82.661,393.041,274.367,-165.239,-740.200,75.290,-125.580
459,45637.588000,241.202,98.462,-54.607,387.769,281.391,-162.049,52.800,217.290,-525.580
460,45637.631000,214.566,39.890,-94.685,382.512,289.425,-153.861,-486.200,152.290,-415.580
461,45637.668000,378.328,149.964,3.507,382.550,301.858,-143.527,-657.200,175.290,-245.580
462,45637.706000,273.757,47.968,-50.599,383.429,299.255,-143.609,62.800,73.290,-233.580
463,45637.748000,255.013,96.442,-80.658,380.805,305.470,-138.451,-154.200,47.290,-83.580
464,45637.792000,267.838,66.146,-61.620,380.821,309.083,-133.369,203.800,310.290,-43.580
465,45637.806000,266.852,52.008,-50.599,379.059,308.214,-133.402,358.800,416.290,-70.580
466,45637.846000,251.067,8.584,-29.558,379.950,310.035,-130.362,337.800,266.290,-114.580
467,45637.889000,274.744,-10.604,-8.517,374.654,308.210,-133.417,571.800,149.290,-228.580
468,45637.928000,309.272,-115.629,-0.501,365.783,309.320,-155.255,1670.800,4.290,-385.580
469,45637.966000,378.328,25.751,19.538,352.457,299.588,-192.354,1801.800,-913.710,-200.580
470,45638.6000,311.245,-47.968,-111.718,340.950,293.865,-210.450,132.800,-1141.710,92.420
471,45638.48000,278.690,-122.698,-185.863,332.086,282.124,-226.748,925.800,-331.710,673.420
472,45638.69000,190.890,-116.639,-64.626,348.736,238.173,-247.980,2515.800,699.290,1285.420
473,45638.107000,135.645,34.840,-98.693,376.906,191.462,-244.441,1576.800,1576.290,1527.420
474,45638.149000,241.202,99.471,-83.663,406.038,162.788,-216.481,630.800,1811.290,1618.420
475,45638.189000,216.540,108.560,-73.644,422.836,145.305,-191.177,-312.200,1838.290,1304.420
476,45638.227000,218.513,97.452,-88.673,441.436,127.349,-151.980,-936.200,1585.290,1134.420
477,45638.271000,182.998,132.797,-52.603,453.859,111.012,-116.723,-1142.200,1199.290,1052.420
478,45638.287000,177.079,185.310,-59.616,463.625,110.912,-89.884,-2797.200,600.290,817.420
479,45638.329000,215.553,-10.604,-261.010,462.755,113.600,-86.821,-2483.200,-652.710,306.420
480,45638.369000,323.083,-147.945,18.536,467.125,105.509,-96.999,-953.200,-338.710,316.420
481,45638.408000,377.341,-25.751,11.523,466.252,100.413,-93.195,1785.800,461.290,-136.580
482,45638.451000,349.719,-17.673,47.593,468.040,104.980,-85.098,596.800,418.290,-101.580
483,45638.491000,311.245,61.097,-11.523,468.045,100.724,-82.257,932.800,513.290,-271.580
484,45638.538000,221.472,104.521,-119.734,463.656,110.354,-78.979,1058.800,199.290,-451.580
485,45638.557000,258.960,116.639,-108.712,461.849,118.525,-96.594,845.800,-618.710,-498.580
486,45638.589000,223.445,141.886,-90.677,453.853,125.599,-122.208,395.800,-1106.710,-811.580
487,45638.631000,231.337,112.600,-45.589,438.825,159.548,-147.965,-443.200,-1414.710,-1260.580
488,45638.671000,222.459,25.751,-32.564,426.474,188.656,-160.962,-1004.200,-1282.710,-1673.580
489,45638.707000,214.566,-2.525,-27.554,401.794,223.832,-173.801,-626.200,-909.710,-1652.580
490,45638.749000,228.378,-65.136,-37.573,382.413,253.972,-180.829,-636.200,-657.710,-1471.580
491,45638.769000,223.445,-53.018,-49.597,369.220,275.719,-178.180,-462.200,-300.710,-1051.580
492,45638.807000,256.987,-56.047,-51.601,363.946,280.140,-175.074,-779.200,-108.710,-701.580
493,45638.849000,238.243,-61.097,-76.650,365.763,293.612,-158.744,-961.200,31.290,-457.580
494,45638.887000,266.852,-64.126,-44.587,366.686,312.122,-148.210,-578.200,327.290,-333.580
495,45638.931000,298.420,-6.564,-75.648,364.098,321.279,-131.040,197.800,592.290,-567.580
496,45638.968000,308.285,83.314,1.503,357.917,324.577,-136.911,727.800,183.290,-280.580
497,45639.9000,252.054,78.264,-30.560,357.033,324.549,-137.908,-584.200,-217.710,-2.580
498,45639.29000,208.647,45.949,-82.661,365.844,318.535,-136.089,-424.200,-6.710,183.420
499,45639.67000,307.299,79.274,-31.562,370.306,319.970,-116.168,-1600.200,-95.710,281.420
500,45639.111000,315.191,-18.682,-42.583,369.458,322.883,-105.153,-346.200,-19.710,-27.580
501,45639.152000,255.013,101.491,-69.636,376.515,328.153,-102.974,132.800,158.290,-70.580
502,45639.191000,265.865,86.343,-85.667,377.412,330.898,-97.917,116.800,638.290,-2.580
503,45639.231000,250.081,73.215,-71.640,378.311,328.492,-91.041,397.800,738.290,93.420
504,45639.249000,235.283,48.978,-26.552,380.093,327.822,-84.106,465.800,764.290,62.420
505,45639.291000,213.580,75.235,-4.509,380.095,320.095,-81.378,60.800,427.290,29.420
506,45639.328000,198.782,100.481,-5.511,380.116,324.604,-75.274,-8.200,226.290,74.420
507,45639.373000,212.593,86.343,-12.524,385.393,321.079,-77.357,147.800,85.290,80.420
508,45639.408000,219.499,85.333,2.505,387.140,312.316,-80.615,89.800,-153.710,64.420
509,45639.452000,238.243,55.037,1.503,388.016,313.129,-82.572,124.800,-395.710,146.420
510,45639.488000,265.865,34.840,57.613,386.181,314.131,-108.363,851.800,-808.710,205.420
511,45639.508000,412.855,15.653,59.616,383.408,297.322,-150.623,1213.800,-1602.710,268.420
512,45639.551000,338.867,103.511,-77.652,370.065,284.845,-192.776,1391.800,-1485.710,82.420
513,45639.589000,240.216,142.895,-156.806,354.132,277.186,-217.900,827.800,-953.710,74.420
514,45639.628000,125.780,151.984,-211.914,348.806,271.607,-231.007,83.800,-681.710,-317.580
515,45639.671000,81.387,-1.515,-159.812,338.228,278.431,-234.792,276.800,-81.710,-252.580
516,45639.711000,72.509,-24.742,-145.785,345.282,279.361,-232.753,343.800,502.290,-47.580
517,45639.757000,121.834,18.682,-100.697,357.662,277.244,-215.901,0.800,976.290,102.420
518,45639.769000,145.511,17.673,-99.695,364.762,280.361,-197.903,-543.200,1069.290,158.420
519,45639.811000,146.497,-5.554,-174.841,380.684,275.840,-174.167,-685.200,998.290,224.420
520,45639.848000,343.800,114.619,70.638,384.260,284.973,-157.972,-862.200,369.290,-111.580
521,45639.888000,318.150,81.294,37.573,386.068,294.049,-143.770,-704.200,156.290,-216.580
522,45639.929000,368.462,-78.264,-15.530,386.079,297.606,-140.675,-960.200,-553.710,157.420
523,45639.971000,276.717,-38.880,-87.671,380.771,306.000,-150.350,103.800,-518.710,-231.580
524,45639.991000,205.688,126.738,-119.734,377.228,303.224,-156.409,130.800,-169.710,-106.580
525,45640.32000,233.310,101.491,-90.677,378.990,298.914,-155.550,-78.200,122.290,221.420
526,45640.68000,237.256,41.909,-43.585,384.287,299.030,-151.557,-122.200,116.290,319.420
527,45640.108000,210.620,46.959,-19.538,386.916,284.248,-153.022,132.800,-75.710,206.420
528,45640.151000,248.108,53.018,-6.513,386.899,287.523,-159.866,-114.200,-685.710,167.420
529,45640.199000,237.256,44.939,-50.599,378.928,287.963,-174.773,42.800,-890.710,143.420
530,45640.233000,217.526,63.116,-45.589,375.337,277.821,-195.966,222.800,-1145.710,165.420
531,45640.249000,202.728,18.682,-101.699,366.463,270.279,-217.092,674.800,-1037.710,22.420
532,45640.289000,240.216,46.959,-131.757,360.247,272.371,-234.918,98.800,-1066.710,7.420
533,45640.334000,236.270,35.850,-153.800,347.860,264.939,-252.080,160.800,-923.710,-9.580
534,45640.372000,201.742,45.949,-178.849,339.891,267.115,-266.929,312.800,-491.710,-32.580
535,45640.411000,225.418,52.008,-186.865,338.999,260.114,-269.145,201.800,-103.710,-7.580
536,45640.452000,219.499,32.821,-135.765,338.115,259.217,-270.170,145.800,61.290,44.420
537,45640.471000,191.877,41.909,-149.793,341.647,259.304,-267.177,-87.200,259.290,-66.580
538,45640.513000,235.283,35.850,-107.710,345.180,259.391,-264.184,-65.200,260.290,-84.580
539,45640.549000,182.012,43.929,-107.710,344.320,269.080,-258.907,-27.200,50.290,-164.580
540,45640.592000,228.378,37.870,-105.706,339.909,268.152,-260.938,-32.200,-28.710,-283.580
541,45640.629000,195.823,77.254,-142.779,334.630,274.252,-259.764,-186.200,-38.710,-188.580
542,45640.673000,196.809,90.383,-160.814,338.180,283.132,-252.513,-267.200,76.290,-5.580
543,45640.711000,228.378,67.156,-150.795,341.733,279.973,-241.681,-312.200,382.290,197.420
544,45640.729000,235.283,58.067,-166.826,350.556,275.808,-235.830,-394.200,634.290,199.420
545,45640.772000,238.243,65.136,-144.783,360.316,285.115,-213.651,-505.200,900.290,135.420
546,45640.811000,259.946,17.673,-118.732,370.966,291.931,-187.578,-406.200,1111.290,145.420
547,45640.851000,237.256,44.939,-67.632,379.840,291.717,-164.718,1.800,1201.290,47.420
548,45640.893000,213.580,44.939,-45.589,386.041,295.503,-153.652,-125.200,1069.290,37.420
549,45640.931000,181.025,64.126,-38.575,392.253,292.515,-136.849,-5.200,776.290,83.420
550,45640.954000,187.931,60.087,-24.548,398.444,291.037,-127.940,35.800,464.290,89.420
551,45640.992000,226.405,19.692,-0.501,398.438,283.225,-128.193,55.800,118.290,-36.580
552,45641.29000,353.665,37.870,45.589,394.898,288.233,-134.993,687.800,-292.710,-59.580
553,45641.71000,374.382,49.988,-12.524,387.778,284.920,-159.948,1061.800,-967.710,-31.580
554,45641.113000,300.393,117.649,-79.656,376.225,270.990,-192.213,741.800,-1037.710,-61.580
555,45641.151000,224.432,104.521,-154.802,364.727,278.287,-209.887,58.800,-832.710,-209.580
556,45641.194000,194.836,45.949,-144.783,349.731,282.390,-217.746,147.800,-423.710,-275.580
557,45641.211000,121.834,15.653,-130.755,351.478,277.071,-221.885,-0.200,-15.710,-2.580
558,45641.254000,125.780,21.712,-112.720,350.618,279.003,-214.874,-426.200,88.290,192.420
559,45641.291000,133.672,13.633,-161.816,353.297,286.259,-203.707,-708.200,179.290,281.420
560,45641.331000,190.890,36.860,-92.681,364.781,283.134,-191.855,-586.200,162.290,417.420
561,45641.378000,178.066,25.751,-122.740,372.724,279.836,-185.979,-932.200,148.290,418.420
562,45641.409000,217.526,27.771,-91.679,376.291,283.705,-171.940,-746.200,165.290,258.420
563,45641.433000,260.933,78.264,3.507,380.740,283.291,-156.052,-313.200,679.290,-81.580
564,45641.472000,319.137,160.063,-41.581,386.954,293.238,-141.807,-637.200,478.290,-228.580
565,45641.512000,250.081,-4.544,-97.691,387.859,295.200,-133.797,-292.200,537.290,-253.580
566,45641.549000,214.566,-44.939,-95.687,388.781,301.643,-120.676,-546.200,489.290,-231.580
567,45641.592000,415.815,66.146,6.513,389.742,310.188,-94.577,-1277.200,356.290,-193.580
568,45641.629000,252.054,53.018,6.513,387.986,310.243,-92.595,497.800,398.290,-169.580
569,45641.672000,294.474,83.314,-0.501,386.224,314.553,-93.454,-271.200,-135.710,29.420
570,45641.693000,295.461,32.821,-12.524,382.683,310.938,-98.548,622.800,-28.710,16.420
571,45641.731000,295.461,26.761,-13.526,380.891,314.939,-110.340,633.800,-155.710,-52.580
572,45641.771000,347.746,-60.087,11.523,372.027,314.397,-129.252,1457.800,70.290,-418.580
573,45641.811000,368.462,-117.649,93.683,356.923,298.475,-170.530,2335.800,-593.710,-313.580
574,45641.853000,290.528,-4.544,-112.720,344.525,294.375,-192.549,1371.800,-1159.710,-56.580
575,45641.891000,291.514,-59.077,-319.123,327.729,296.375,-213.390,-535.200,-1281.710,255.420
576,45641.909000,153.403,-125.728,-142.779,325.008,279.233,-236.794,1663.800,-391.710,638.420
577,45641.952000,77.441,-50.998,-94.685,338.994,234.215,-265.021,2572.800,430.290,1103.420
578,45641.994000,35.021,39.890,-83.663,353.081,203.118,-261.020,1773.800,1438.290,1390.420
579,45642.32000,162.281,27.771,-86.669,382.189,164.727,-239.333,1113.800,1956.290,1579.420
580,45642.74000,228.378,72.205,-52.603,418.398,131.188,-199.593,700.800,2441.290,1237.420
581,45642.112000,236.270,69.176,-85.667,441.438,114.442,-148.427,-295.200,2322.290,952.420
582,45642.151000,227.391,113.609,-102.701,457.404,112.948,-109.698,-1001.200,1824.290,771.420
583,45642.171000,208.647,114.619,-84.665,466.288,106.799,-82.065,-1908.200,1096.290,380.420
584,45642.212000,133.672,120.679,-179.851,466.326,113.213,-69.941,-4012.200,-595.710,111.420
585,45642.251000,301.380,-202.477,-6.513,465.420,112.959,-78.889,-1243.200,-725.710,112.420
586,45642.293000,411.869,95.432,53.605,472.450,108.483,-83.977,1169.800,5.290,-135.580
587,45642.331000,465.141,-68.166,81.659,470.677,101.482,-86.196,217.800,374.290,11.420
588,45642.374000,385.233,10.604,108.712,472.485,101.934,-70.287,1296.800,992.290,-157.580
589,45642.393000,295.461,48.978,77.652,469.895,108.487,-53.202,363.800,792.290,-99.580
590,45642.431000,234.297,31.811,-31.562,469.920,112.184,-45.138,696.800,478.290,-180.580
591,45642.473000,183.985,48.978,-136.767,465.513,120.776,-47.852,421.800,-274.710,-287.580
592,45642.511000,265.865,83.314,-114.724,463.694,122.787,-68.646,-281.200,-1406.710,-249.580
593,45642.551000,281.649,77.254,-38.575,452.155,135.709,-102.025,-85.200,-1440.710,-634.580
594,45642.593000,245.148,57.057,-53.605,440.628,153.056,-132.282,63.800,-1466.710,-1071.580
595,45642.631000,233.310,79.274,-31.562,426.474,165.389,-155.759,-292.200,-1390.710,-1125.580
596,45642.652000,193.850,42.919,-48.595,412.332,186.459,-176.966,-360.200,-1187.710,-1198.580
597,45642.694000,177.079,11.613,-36.571,392.052,215.562,-189.989,-305.200,-764.710,-1429.580
598,45642.732000,185.958,2.525,-42.583,379.730,245.821,-193.018,-168.200,-223.710,-1470.580
599,45642.781000,202.728,-12.623,-53.605,365.662,271.935,-189.237,-293.200,-9.710,-1360.580
600,45642.813000,240.216,-40.899,-67.632,357.766,288.618,-181.770,-479.200,173.290,-1205.580
601,45642.854000,288.555,-87.353,-73.644,353.411,309.785,-169.181,-290.200,346.290,-805.580
602,45642.874000,378.328,-208.536,5.511,349.898,316.783,-166.980,567.800,432.290,-753.580
603,45642.914000,351.692,-48.978,39.577,347.247,314.120,-169.060,1137.800,445.290,-564.580
604,45642.961000,307.299,82.304,-26.552,351.653,311.548,-168.137,-656.200,-391.710,182.420
605,45642.991000,255.013,72.205,-126.748,350.803,318.745,-158.969,-598.200,-103.710,120.420
606,45643.33000,267.838,49.988,-61.620,359.649,318.249,-146.048,-270.200,726.290,-44.580
607,45643.73000,342.813,24.742,-1.503,361.473,326.626,-125.910,-652.200,350.290,-53.580
608,45643.113000,250.081,91.393,-27.554,361.479,326.682,-123.923,118.800,237.290,0.420
609,45643.133000,237.256,122.698,-36.571,365.004,324.109,-123.002,208.800,198.290,146.420
610,45643.173000,246.135,61.097,-50.599,365.894,318.174,-118.227,203.800,317.290,242.420
611,45643.213000,205.688,66.146,-36.571,374.680,317.088,-126.178,645.800,400.290,150.420
612,45643.254000,192.863,64.126,-34.568,375.567,313.701,-123.306,225.800,193.290,119.420
613,45643.296000,187.931,125.728,0.501,379.082,312.751,-126.304,116.800,-203.710,79.420
614,45643.337000,195.823,140.876,-14.528,375.540,310.843,-132.335,-159.200,-502.710,85.420
615,45643.358000,290.528,24.742,11.523,375.490,305.185,-148.407,507.800,-752.710,245.420
616,45643.403000,381.287,25.751,30.560,370.999,294.845,-176.561,667.800,-945.710,201.420
617,45643.434000,434.559,49.988,1.503,362.117,280.331,-198.906,1199.800,-1091.710,254.420
618,45643.474000,235.283,125.728,-120.736,350.588,269.230,-223.135,423.800,-845.710,213.420
619,45643.514000,165.241,70.185,-221.933,342.622,264.546,-235.228,-373.200,-639.710,215.420
620,45643.554000,47.846,15.653,-190.873,339.988,268.941,-233.108,-607.200,-318.710,212.420
621,45643.596000,24.170,-24.742,-168.830,342.642,275.943,-230.886,-126.200,193.290,327.420
622,45643.622000,62.644,13.633,-101.699,354.982,269.121,-227.096,-147.200,368.290,354.420
623,45643.658000,60.671,3.535,-144.783,366.486,267.060,-208.259,-712.200,640.290,444.420
624,45643.697000,510.520,197.428,-1.503,369.224,284.371,-178.892,-2372.200,-122.710,-128.580
625,45643.733000,276.717,-27.771,-29.558,375.401,283.620,-174.925,515.800,568.290,-263.580
626,45643.782000,326.042,75.235,-14.528,378.067,284.715,-166.937,-377.200,280.290,-221.580
627,45643.814000,405.950,-56.047,-40.579,378.111,298.073,-154.587,-909.200,-173.710,-20.580
628,45643.834000,245.148,63.116,-82.661,377.232,297.233,-153.624,419.800,179.290,-160.580
629,45643.874000,220.486,97.452,-87.671,378.127,299.950,-149.561,73.800,281.290,-63.580
630,45643.912000,235.283,70.185,-73.644,379.897,300.036,-146.574,155.800,431.290,113.420
631,45643.956000,223.445,73.215,-46.591,380.781,296.621,-144.696,101.800,342.290,145.420
632,45643.992000,242.189,22.722,-48.595,385.205,291.642,-136.899,57.800,285.290,108.420
633,45644.36000,235.283,76.245,-41.581,390.492,282.182,-134.211,-15.200,149.290,90.420
634,45644.72000,240.216,37.870,-75.648,394.904,288.289,-133.005,-17.200,133.290,141.420
635,45644.94000,244.162,52.008,-55.609,397.553,284.904,-130.128,249.800,308.290,176.420
636,45644.132000,252.054,56.047,-31.562,401.084,283.255,-127.191,-11.200,259.290,244.420
637,45644.176000,242.189,56.047,-24.548,408.138,276.429,-123.418,132.800,199.290,277.420
638,45644.212000,231.337,58.067,-22.544,404.614,268.670,-121.695,-125.200,1.290,337.420
639,45644.253000,256.000,20.702,-25.550,416.050,254.734,-124.096,35.800,-155.710,344.420
640,45644.296000,257.973,2.525,-29.558,414.265,249.328,-131.228,310.800,-223.710,286.420
641,45644.312000,327.029,2.525,4.509,413.355,245.602,-140.289,537.800,-331.710,216.420
642,45644.353000,432.586,-27.771,75.648,406.247,239.825,-160.359,1318.800,-441.710,-62.580
643,45644.396000,291.514,107.550,-84.665,397.390,244.520,-178.109,270.800,-891.710,-57.580
644,45644.432000,60.671,210.556,-185.863,383.279,245.209,-184.090,-608.200,-798.710,-162.580
645,45644.473000,-15.291,-72.205,-201.894,378.913,260.243,-173.686,-809.200,-117.710,-196.580
646,45644.516000,-4.439,-58.067,-161.816,385.068,254.955,-176.817,1885.800,894.290,-262.580
647,45644.554000,63.630,77.254,-74.646,393.868,246.253,-178.064,772.800,865.290,2.420
648,45644.573000,114.929,185.310,-106.708,400.078,251.860,-163.960,-1731.200,-145.710,-404.580
649,45644.619000,371.422,33.830,74.646,400.108,265.077,-156.581,47.800,107.290,-515.580
650,45644.656000,497.696,-45.949,56.611,392.180,281.451,-160.047,-771.200,-677.710,-390.580
651,45644.693000,217.526,47.968,-122.740,382.490,290.067,-161.784,-771.200,-735.710,-477.580
652,45644.733000,269.811,80.284,-134.763,377.209,296.140,-161.604,346.800,100.290,-152.580
653,45644.773000,263.892,94.422,-91.679,380.754,294.632,-153.698,-567.200,409.290,185.420
654,45644.816000,266.852,0.505,-77.652,390.497,296.882,-135.719,-720.200,586.290,119.420
655,45644.834000,238.243,25.751,-13.526,389.641,292.823,-125.924,32.800,801.290,-65.580
656,45644.877000,246.135,61.097,-6.513,392.325,298.399,-112.826,-6.200,544.290,-169.580
657,45644.916000,211.607,66.146,-23.546,390.593,303.859,-103.717,-44.200,408.290,-127.580
658,45644.958000,218.513,87.353,2.505,389.716,305.622,-102.670,203.800,279.290,-93.580
659,45644.994000,241.202,58.067,47.593,389.699,305.453,-108.633,268.800,-57.710,-71.580
660,45645.38000,274.744,-0.505,52.603,387.899,299.906,-120.735,663.800,-695.710,3.420
661,45645.56000,458.235,-49.988,45.589,377.209,289.252,-159.841,390.800,-1849.710,315.420
662,45645.93000,438.505,3.535,-52.603,363.011,287.360,-195.696,708.800,-1524.710,141.420
663,45645.133000,157.349,155.014,-164.822,351.516,283.485,-209.760,-418.200,-1167.710,327.420
664,45645.176000,99.145,13.633,-148.791,346.223,288.576,-213.584,-505.200,-650.710,158.420
665,45645.214000,93.225,12.623,-162.818,351.507,281.664,-212.798,272.800,480.290,376.420
666,45645.257000,138.605,102.501,-142.779,358.578,272.431,-202.153,-28.200,700.290,377.420
667,45645.298000,144.524,87.353,-128.751,370.973,278.212,-182.065,-911.200,527.290,216.420
668,45645.317000,71.522,69.176,-172.838,371.911,283.088,-163.037,-1080.200,517.290,-1.580
669,45645.354000,403.977,234.793,-14.528,374.609,288.805,-144.969,-803.200,274.290,-361.580
670,45645.399000,230.351,-29.791,-69.636,374.625,292.417,-139.887,-58.200,261.290,-213.580
671,45645.436000,339.854,78.264,-35.569,373.789,303.199,-126.631,-877.200,138.290,-125.580
672,45645.478000,337.881,52.008,-40.579,375.595,308.803,-112.542,-205.200,395.290,-91.580
673,45645.517000,337.881,25.751,-18.536,376.469,307.011,-114.583,468.800,603.290,-48.580
674,45645.536000,340.840,-25.751,32.564,374.701,302.641,-115.723,906.800,556.290,-86.580
675,45645.573000,357.611,-197.428,29.558,370.259,305.716,-129.540,1879.800,511.290,-283.580
676,45645.614000,265.865,-114.619,74.646,365.756,290.951,-160.816,1414.800,-726.710,149.420
677,45645.656000,311.245,41.909,-283.053,356.891,280.918,-178.051,-533.200,-1388.710,136.420
678,45645.698000,426.667,-205.507,-298.082,342.730,280.260,-200.956,265.800,-1329.710,829.420
679,45645.736000,188.917,-2.525,-107.710,351.397,232.324,-240.218,2404.800,10.290,1562.420
680,45645.773000,67.576,118.659,-58.614,371.619,190.590,-244.486,1178.800,545.290,1538.420
681,45645.797000,97.171,105.531,-96.689,381.319,169.151,-236.214,-11.200,1075.290,1411.420
682,45645.838000,207.661,71.195,-46.591,403.429,155.369,-202.828,-284.200,1755.290,1038.420
683,45645.876000,232.324,74.225,-63.624,431.709,139.043,-167.520,343.800,1974.290,856.420
684,45645.916000,189.904,85.333,-156.806,446.778,119.293,-130.379,363.800,1757.290,632.420
685,45645.958000,190.890,148.955,-29.558,454.762,106.058,-107.944,-151.200,951.290,423.420
686,45645.998000,183.985,34.840,-101.699,461.844,118.469,-98.582,-1747.200,5.290,306.420
687,45646.17000,362.543,-156.024,63.624,460.943,114.827,-104.661,-1717.200,-1007.710,243.420
688,45646.54000,337.881,-295.385,52.603,465.327,106.010,-109.898,1040.800,34.290,529.420
689,45646.97000,393.125,55.037,57.613,466.200,95.594,-110.233,-604.200,-283.710,284.420
690,45646.134000,405.950,-60.087,74.646,463.545,90.300,-113.392,105.800,56.290,202.420
691,45646.177000,315.191,159.053,-3.507,463.557,90.413,-109.416,540.800,263.290,-183.580
692,45646.216000,229.364,84.323,-190.873,462.674,95.564,-111.238,460.800,-223.710,-214.580
693,45646.257000,226.405,203.487,-182.857,456.435,97.431,-137.015,711.800,-1046.710,-318.580
694,45646.277000,207.661,185.310,-133.761,445.809,114.975,-160.312,-177.200,-1685.710,-1243.580
695,45646.317000,196.809,75.235,-89.675,421.067,146.955,-194.108,-674.200,-1590.710,-1775.580
696,45646.358000,169.187,85.333,-61.620,393.740,195.876,-211.475,-1015.200,-1387.710,-2065.580
697,45646.398000,151.430,-93.412,-77.652,360.309,248.856,-207.877,-1485.200,-747.710,-2076.580
698,45646.434000,241.202,-197.428,-108.712,348.905,276.905,-197.073,-1491.200,-124.710,-1575.580
699,45646.477000,257.973,-181.270,-84.665,350.711,293.708,-185.599,-713.200,400.290,-536.580
700,45646.496000,221.472,-119.669,-152.798,361.347,296.940,-163.615,-117.200,779.290,16.420
701,45646.538000,379.314,-34.840,71.640,371.973,301.794,-145.549,-1452.200,182.290,-41.580
702,45646.576000,403.977,-16.663,22.544,374.659,310.843,-132.338,-1088.200,9.290,50.420
703,45646.614000,366.489,1.515,-4.509,372.023,309.189,-129.421,-320.200,-98.710,-166.580
704,45646.654000,294.474,58.067,-39.577,368.494,313.442,-132.274,281.800,-133.710,46.420
705,45646.697000,295.461,67.156,-67.632,369.359,303.810,-135.562,119.800,-47.710,235.420
706,45646.738000,232.324,66.146,-61.620,376.396,295.947,-137.781,474.800,195.290,268.420
707,45646.764000,202.728,62.107,-43.585,378.148,294.128,-140.813,409.800,110.290,215.420
708,45646.794000,212.593,61.097,-11.523,379.004,291.299,-148.846,550.800,-135.710,101.420
709,45646.838000,237.256,65.136,-26.552,377.196,286.535,-163.902,820.800,-590.710,56.420
710,45646.878000,270.798,77.254,-49.597,370.955,277.175,-188.057,981.800,-753.710,30.420
711,45646.918000,220.486,124.718,-92.681,363.852,271.455,-206.139,786.800,-770.710,-148.580
712,45646.958000,189.904,86.343,-152.798,353.227,267.468,-224.177,441.800,-619.710,-237.580
713,45646.979000,182.998,49.988,-179.851,347.922,268.135,-231.123,281.800,-243.710,-246.580
714,45647.17000,168.200,53.018,-157.808,347.040,267.266,-231.154,34.800,201.290,-122.580
715,45647.54000,176.092,93.412,-139.773,349.724,277.154,-218.909,-867.200,230.290,-97.580
716,45647.97000,212.593,14.643,-150.795,353.299,288.863,-203.622,-1046.200,326.290,-79.580
717,45647.138000,208.647,-28.781,-104.704,360.382,290.074,-191.644,91.800,584.290,66.420
718,45647.176000,184.971,-2.525,-40.579,370.965,286.751,-186.753,527.800,689.290,60.420
719,45647.221000,182.012,17.673,-85.667,373.626,280.902,-178.991,31.800,526.290,-30.580
720,45647.236000,231.337,20.702,-36.571,378.042,288.774,-176.735,-1214.200,-432.710,86.420
721,45647.279000,262.906,187.329,7.515,378.081,299.500,-165.464,-1441.200,-637.710,-246.580
722,45647.317000,383.260,-97.452,-26.552,370.129,306.156,-175.203,38.800,-702.710,-15.580
723,45647.359000,186.944,86.343,-164.822,360.398,304.019,-189.206,-173.200,-797.710,-126.580
724,45647.404000,241.202,87.353,-119.734,355.102,302.194,-192.261,48.800,-209.710,-79.580
725,45647.436000,209.634,93.412,-105.706,357.739,305.584,-195.122,448.800,15.290,101.420
726,45647.459000,194.836,103.511,-73.644,358.592,298.415,-203.295,55.800,-257.710,284.420
727,45647.501000,198.782,61.097,-68.634,360.319,285.143,-212.657,346.800,-331.710,313.420
728,45647.544000,241.202,46.959,-80.658,359.413,278.869,-219.815,199.800,-436.710,215.420
729,45647.579000,206.674,35.850,-110.716,358.511,280.379,-227.713,-77.200,-735.710,146.420
730,45647.618000,245.148,35.850,-132.759,352.311,281.773,-239.603,135.800,-630.710,-73.580
731,45647.656000,229.364,46.959,-137.769,346.116,281.486,-249.562,168.800,-532.710,-163.580
732,45647.703000,229.364,56.047,-167.828,340.822,277.954,-251.680,-63.200,-118.710,-179.580
733,45647.717000,234.297,38.880,-168.830,339.962,291.086,-247.284,-146.200,241.290,-175.580
734,45647.757000,219.499,66.146,-148.791,340.872,292.237,-237.314,-115.200,544.290,-187.580
735,45647.799000,213.580,76.245,-137.769,347.946,285.608,-226.584,-217.200,808.290,-124.580
736,45647.837000,226.405,64.126,-125.746,355.079,301.101,-200.240,-287.200,980.290,-44.580
737,45647.879000,216.540,67.156,-107.710,360.403,304.075,-187.218,-196.200,1081.290,16.420
738,45647.919000,231.337,73.215,-67.632,371.912,308.091,-168.184,-97.200,1066.290,78.420
739,45647.938000,213.580,65.136,-46.591,378.126,302.526,-150.471,30.800,960.290,99.420
740,45647.976000,214.566,49.988,-25.550,387.845,302.815,-140.500,232.800,752.290,87.420
741,45648.18000,219.499,58.067,-2.505,387.846,297.663,-138.682,276.800,419.290,-1.580
742,45648.56000,261.919,1.515,55.609,386.078,296.738,-140.703,762.800,162.290,-210.580
743,45648.96000,350.705,43.929,59.616,378.051,288.858,-173.753,1162.800,-1086.710,-132.580
744,45648.137000,363.530,120.679,-28.556,361.226,281.953,-202.828,777.800,-1197.710,-148.580
745,45648.178000,269.811,62.107,-144.783,343.540,287.312,-227.536,460.800,-984.710,-90.580
746,45648.197000,175.106,0.505,-108.712,339.103,281.819,-237.658,872.800,-305.710,-15.580
747,45648.237000,111.969,7.574,-112.720,335.545,270.279,-246.981,827.800,267.290,242.420
748,45648.278000,71.522,42.919,-116.728,350.545,264.496,-237.190,-227.200,493.290,486.420
749,45648.316000,125.780,13.633,-186.865,357.655,265.121,-215.302,-1368.200,324.290,609.420
750,45648.357000,142.551,46.959,-154.802,364.755,269.945,-198.241,-1553.200,119.290,606.420
751,45648.398000,165.241,50.998,-127.750,374.497,275.638,-181.145,-1415.200,-86.710,520.420
752,45648.417000,171.160,27.771,-73.644,379.824,273.461,-166.303,-631.200,255.290,223.420
753,45648.466000,279.676,154.004,-134.763,384.262,276.378,-155.272,-90.200,446.290,7.420
754,45648.498000,284.609,95.432,-30.560,384.290,280.103,-146.214,-591.200,477.290,-252.580
755,45648.541000,263.892,-44.939,-59.616,385.199,279.518,-136.300,-421.200,227.290,-205.580
756,45648.578000,325.056,93.412,-26.552,383.487,293.799,-121.940,-855.200,127.290,-266.580
757,45648.621000,338.867,21.712,-47.593,382.624,299.147,-116.804,-259.200,240.290,-211.580
758,45648.661000,263.892,105.531,-39.577,385.275,306.121,-115.577,-21.200,270.290,-54.580
759,45648.683000,261.919,47.968,-50.599,382.652,306.316,-108.628,75.800,335.290,50.420
760,45648.719000,240.216,65.136,-17.534,384.404,300.185,-110.807,706.800,446.290,45.420
761,45648.757000,212.593,-8.584,-7.515,386.162,302.734,-112.705,351.800,243.290,-107.580
762,45648.797000,261.919,-16.663,55.609,378.164,297.741,-135.731,1394.800,-268.710,-153.580
763,45648.837000,395.098,12.623,54.607,372.799,284.881,-160.990,1890.800,-921.710,-301.580
764,45648.877000,394.112,-50.998,-21.542,355.065,278.561,-199.979,959.800,-1265.710,-194.580
765,45648.901000,287.568,-55.037,-173.840,341.775,276.083,-225.920,991.800,-727.710,-0.580
766,45648.938000,223.445,-200.458,-88.673,344.341,247.746,-246.691,2513.800,148.290,563.420
767,45648.979000,155.376,-43.929,-42.583,356.632,217.178,-254.594,2721.800,1495.290,1024.420
768,45649.17000,153.403,-15.653,-82.661,388.363,175.148,-238.976,1578.800,2023.290,1273.420
769,45649.57000,218.513,59.077,-63.624,414.881,147.622,-201.057,58.800,2115.290,1105.420
770,45649.97000,168.200,46.959,-169.832,434.360,130.506,-162.823,-945.200,1527.290,1061.420
771,45649.139000,175.106,130.777,-55.609,447.625,126.711,-144.037,-1196.200,908.290,1169.420
772,45649.158000,167.214,96.442,-151.796,457.380,119.610,-119.412,-2634.200,343.290,987.420
773,45649.197000,157.349,135.826,-178.849,461.817,116.480,-107.583,-2867.200,-341.710,632.420
774,45649.237000,357.611,-18.682,-41.581,461.772,112.585,-122.605,-1511.200,-888.710,405.420
775,45649.279000,404.963,-64.126,52.603,460.010,105.696,-120.848,1337.800,298.290,-11.580
776,45649.319000,430.613,-46.959,84.665,461.772,101.386,-119.989,626.800,240.290,12.420
777,45649.357000,346.759,76.245,38.575,463.553,97.272,-112.173,893.800,637.290,22.420
778,45649.381000,266.852,59.077,-162.818,466.217,98.339,-105.179,749.800,163.290,-83.580
779,45649.418000,264.879,112.600,-216.924,460.880,97.828,-123.086,1083.800,-509.710,-374.580
780,45649.461000,198.782,220.655,-114.724,453.807,120.837,-137.257,-456.200,-1330.710,-935.580
781,45649.497000,196.809,88.363,-101.699,434.385,156.603,-159.991,-1001.200,-1385.710,-1604.580
782,45649.539000,175.106,125.728,-84.665,407.043,197.627,-180.593,-1103.200,-1185.710,-1913.580
783,45649.578000,149.457,-55.037,-89.675,379.791,255.904,-173.824,-2452.200,-1139.710,-2173.580
784,45649.621000,114.929,-144.915,-132.759,370.141,276.982,-164.234,-1471.200,-84.710,-1543.580
785,45649.639000,228.378,-224.694,-116.728,364.049,300.977,-143.615,-274.200,794.290,-1039.580
786,45649.677000,425.680,-321.641,-40.579,367.596,309.829,-137.359,521.800,1031.290,-761.580
787,45649.722000,310.258,-76.245,17.534,378.224,313.843,-118.328,-1138.200,509.290,-183.580
788,45649.761000,378.328,72.205,58.614,376.524,320.482,-98.258,-2032.200,63.290,-77.580
789,45649.798000,434.559,13.633,70.638,374.807,324.375,-83.242,-95.200,201.290,-167.580
790,45649.841000,260.933,110.580,15.530,374.773,319.725,-94.316,169.800,-246.710,126.420
791,45649.859000,307.299,26.761,-60.618,378.268,311.690,-102.509,-212.200,-305.710,241.420
792,45649.901000,215.553,77.254,-29.558,379.128,310.626,-109.492,1059.800,197.290,207.420
793,45649.939000,206.674,47.968,-12.524,380.869,304.382,-115.647,369.800,-360.710,226.420
794,45649.982000,236.270,34.840,-16.532,379.916,298.497,-139.673,721.800,-807.710,129.420
795,45650.22000,331.961,78.264,8.517,372.765,288.854,-173.770,1390.800,-1020.710,21.420
796,45650.72000,316.177,195.408,-54.607,363.859,277.559,-204.948,893.800,-929.710,140.420
797,45650.98000,186.944,118.659,-212.916,356.787,270.412,-212.154,-195.200,-811.710,109.420
798,45650.118000,97.171,27.771,-174.841,347.067,272.700,-223.034,206.800,-511.710,-213.580
799,45650.162000,67.576,2.525,-152.798,346.192,272.755,-221.049,143.800,174.290,-213.580
800,45650.203000,80.401,5.554,-150.795,351.497,280.712,-215.808,-118.200,453.290,-220.580
801,45650.248000,139.592,-16.663,-80.658,355.056,285.364,-204.723,-54.200,739.290,-103.580
802,45650.288000,148.470,48.978,-140.775,366.553,289.267,-189.665,129.800,1000.290,-58.580
803,45650.318000,391.152,9.594,22.544,371.015,297.589,-171.507,-801.200,462.290,-144.580
804,45650.342000,262.906,103.511,19.538,375.472,298.968,-153.574,-734.200,398.290,-330.580
805,45650.384000,357.611,120.679,39.577,373.763,314.145,-138.192,-1377.200,-14.710,-360.580
806,45650.422000,294.474,-22.722,-63.624,371.120,317.587,-139.082,334.800,54.290,-259.580
807,45650.458000,216.540,157.034,-99.695,369.364,321.954,-137.953,-145.200,246.290,-83.580
808,45650.501000,236.270,86.343,-68.634,373.790,323.022,-130.953,108.800,635.290,160.420
809,45650.538000,229.364,70.185,-19.538,381.735,315.441,-123.229,387.800,697.290,238.420
810,45650.578000,218.513,58.067,7.515,383.501,312.895,-121.320,212.800,159.290,181.420
811,45650.602000,200.755,68.166,79.656,382.590,310.876,-131.319,157.800,-658.710,82.420
812,45650.638000,232.324,31.811,-11.523,378.112,299.809,-154.531,6.800,-1354.710,90.420
813,45650.688000,194.836,82.304,-110.716,362.151,296.180,-190.448,525.800,-1550.710,-2.580
814,45650.718000,237.256,86.343,-70.638,353.275,294.658,-213.364,1021.800,-1386.710,-20.580
815,45650.771000,260.933,79.274,-107.710,345.256,285.995,-243.461,408.800,-1119.710,39.420
816,45650.802000,217.526,131.787,-132.759,336.412,281.338,-254.563,-118.200,-821.710,109.420
817,45650.821000,232.324,8.584,-190.873,332.881,279.544,-256.619,-31.200,-181.710,122.420
818,45650.858000,258.960,22.722,-158.810,339.055,277.897,-253.673,-330.200,333.290,8.420
819,45650.902000,242.189,29.791,-137.769,339.996,290.556,-235.386,-517.200,724.290,-189.580
820,45650.939000,227.391,67.156,-104.704,349.738,295.382,-218.317,-466.200,880.290,-261.580
821,45650.978000,214.566,91.393,-107.710,355.094,306.422,-196.096,-381.200,994.290,-173.580
822,45651.21000,220.486,67.156,-91.679,362.212,314.019,-172.988,-154.200,1174.290,0.420
823,45651.63000,217.526,86.343,-42.583,367.535,314.389,-160.050,-43.200,1143.290,21.420
824,45651.82000,231.337,64.126,-1.503,372.883,315.012,-138.167,-147.200,1158.290,-115.580
825,45651.121000,215.553,62.107,2.505,376.449,318.013,-124.156,67.800,649.290,-16.580
826,45651.163000,219.499,79.274,-22.544,379.990,314.741,-117.300,-14.200,261.290,-35.580
827,45651.206000,250.081,62.107,-32.564,379.972,318.016,-124.145,503.800,208.290,-22.580
828,45651.239000,252.054,50.998,24.548,378.199,313.590,-127.273,519.800,-134.710,-4.580
829,45651.281000,392.139,-9.594,59.616,373.717,301.627,-151.507,536.800,-728.710,100.420
830,45651.299000,356.624,67.156,9.519,363.062,302.510,-181.302,864.800,-1126.710,105.420
831,45651.352000,192.863,184.300,-138.771,353.321,295.108,-197.462,87.800,-1081.710,198.420
832,45651.379000,152.416,-2.525,-106.708,349.779,293.201,-203.493,-729.200,-723.710,424.420
833,45651.419000,17.264,-7.574,-40.579,358.611,286.545,-193.751,258.800,1004.290,738.420
834,45651.462000,157.349,68.166,-121.738,378.059,277.743,-168.156,-372.200,1322.290,601.420
835,45651.499000,121.834,179.250,-218.928,383.406,280.075,-147.210,-942.200,578.290,165.420
836,45651.543000,340.840,97.452,11.523,385.218,290.046,-131.986,-1498.200,-171.710,-68.580
837,45651.562000,233.310,65.136,-9.519,379.057,290.966,-129.990,557.800,137.290,-492.580
838,45651.601000,409.896,42.919,-2.505,376.435,304.097,-125.600,-945.200,-389.710,-62.580
839,45651.640000,291.514,-14.643,-77.652,370.291,311.206,-119.432,-317.200,-138.710,-165.580
840,45651.682000,256.987,118.659,-95.687,372.038,306.754,-123.542,352.800,376.290,-73.580
841,45651.721000,263.892,55.037,-62.622,375.599,307.123,-110.610,-266.200,475.290,119.420
842,45651.764000,240.216,41.909,-38.575,378.260,308.162,-104.610,454.800,709.290,101.420
843,45651.784000,220.486,55.037,8.517,383.558,306.571,-99.680,456.800,545.290,-28.580
844,45651.822000,199.769,27.771,37.573,378.265,303.906,-101.769,265.800,59.290,-77.580
845,45651.862000,297.434,-29.791,73.644,375.551,303.200,-126.625,1251.800,-838.710,-165.580
846,45651.899000,453.303,11.613,74.646,359.571,293.354,-167.709,1360.800,-1412.710,-157.580
847,45651.942000,344.786,-38.880,-122.740,342.751,286.505,-194.796,262.800,-1392.710,-23.580
848,45651.979000,248.108,-92.402,-140.775,334.809,294.982,-201.497,-317.200,-711.710,362.420
849,45652.24000,205.688,-210.556,-78.654,338.303,284.343,-209.775,1447.800,493.290,734.420
850,45652.43000,190.890,-88.363,-72.642,367.356,241.105,-206.120,1985.800,1602.290,1466.420
851,45652.81000,190.890,70.185,-53.605,404.397,193.285,-180.742,1307.800,2289.290,1582.420
852,45652.119000,209.634,70.185,-84.665,428.278,177.013,-143.460,201.800,2123.290,1231.420
853,45652.159000,235.283,84.323,-86.669,441.554,156.951,-117.258,-313.200,1768.290,1166.420
854,45652.202000,182.998,114.619,-112.720,454.853,137.982,-83.076,-599.200,1116.290,900.420
855,45652.239000,226.405,138.856,-47.593,458.438,136.869,-61.255,-1977.200,417.290,512.420
856,45652.281000,319.137,-66.146,-131.757,466.397,132.872,-49.443,-954.200,78.290,474.420
857,45652.299000,395.098,252.970,132.759,465.500,122.371,-52.766,1383.800,218.290,142.420
858,45652.347000,392.139,84.323,144.783,464.632,128.531,-49.590,-192.200,156.290,35.420
859,45652.383000,381.287,29.791,139.773,467.301,129.655,-40.608,747.800,534.290,-184.580
860,45652.427000,250.081,87.353,-20.540,462.884,127.803,-44.654,430.800,49.290,-173.580
861,45652.469000,245.148,97.452,-281.049,461.083,136.031,-60.281,376.800,-1115.710,-114.580
862,45652.503000,240.216,183.290,-127.750,451.279,138.341,-100.950,-817.200,-2156.710,-401.580
863,45652.522000,193.850,75.235,-77.652,432.680,164.920,-141.852,-912.200,-2094.710,-1254.580
864,45652.562000,190.890,47.968,-65.628,405.284,196.786,-179.633,-293.200,-1890.710,-1710.580
865,45652.602000,164.254,39.890,-34.568,384.989,217.124,-195.919,-724.200,-1492.710,-1950.580
866,45652.644000,146.497,-111.590,-64.626,359.428,252.299,-208.761,-666.200,-981.710,-1710.580
867,45652.681000,209.634,-174.201,-93.683,347.135,281.131,-200.914,-813.200,-295.710,-1201.580
868,45652.724000,257.973,-167.132,-67.632,346.284,290.904,-192.656,-646.200,208.290,-153.580
869,45652.762000,296.447,-134.817,-109.714,362.180,293.018,-179.627,-671.200,448.290,454.420
870,45652.782000,323.083,79.274,68.634,364.003,303.102,-160.427,-2064.200,82.290,-50.580
871,45652.823000,362.543,-105.531,-41.581,370.209,307.813,-147.346,-121.200,269.290,-20.580
872,45652.864000,355.638,44.939,-11.523,370.231,306.302,-139.451,-648.200,162.290,-52.580
873,45652.904000,266.852,57.057,-79.656,371.134,309.104,-132.406,-295.200,221.290,-6.580
874,45652.944000,255.013,80.284,-70.638,374.682,311.068,-124.387,314.800,587.290,143.420
875,45652.984000,241.202,66.146,-48.595,378.219,306.031,-118.581,189.800,565.290,205.420
876,45653.12000,218.513,49.988,-12.524,383.501,301.695,-118.705,486.800,465.290,144.420
877,45653.41000,191.877,59.077,-4.509,386.132,296.405,-121.847,357.800,-12.710,119.420
878,45653.84000,217.526,35.850,-26.552,387.873,291.029,-127.974,208.800,-436.710,93.420
879,45653.124000,338.867,47.968,8.517,384.275,283.406,-152.065,868.800,-810.710,150.420
880,45653.161000,365.503,43.929,34.568,380.654,269.511,-183.310,1723.800,-678.710,23.420
881,45653.204000,336.894,188.339,-48.595,370.877,255.723,-210.599,1289.800,-794.710,-10.580
882,45653.244000,161.295,97.452,-200.892,360.268,255.349,-223.554,682.800,-337.710,-275.580
883,45653.263000,103.091,70.185,-152.798,354.089,256.940,-228.487,-86.200,-156.710,-457.580
884,45653.304000,71.522,-9.594,-154.802,352.359,270.184,-220.119,-489.200,107.290,-423.580
885,45653.344000,98.158,-37.870,-141.777,355.915,279.120,-210.881,-320.200,449.290,-161.580
886,45653.381000,154.389,-111.590,-14.528,362.127,278.707,-194.987,147.800,784.290,76.420
887,45653.426000,360.570,137.846,-54.607,368.307,277.984,-190.025,-715.200,159.290,224.420
888,45653.464000,307.299,177.231,118.732,372.774,294.119,-171.614,-1388.200,-356.710,-99.580
889,45653.484000,321.110,-122.698,-57.613,368.376,299.352,-170.465,-493.200,-900.710,139.420
890,45653.529000,237.256,9.594,-143.781,358.639,301.470,-187.308,191.800,-791.710,-142.580
891,45653.563000,223.445,106.540,-160.814,357.754,303.149,-189.243,-191.200,-95.710,64.420
892,45653.603000,247.121,85.333,-92.681,362.159,295.396,-187.494,423.800,332.290,284.420
893,45653.643000,230.351,61.097,-58.614,370.958,281.515,-187.916,262.800,258.290,393.420
894,45653.686000,227.391,35.850,-11.523,376.234,276.254,-190.056,209.800,-142.710,305.420
895,45653.722000,208.647,54.028,-50.599,376.204,273.369,-200.080,440.800,-573.710,283.420
896,45653.743000,211.607,45.949,-66.630,372.633,266.868,-215.197,490.800,-701.710,208.420
897,45653.784000,250.081,28.781,-85.667,368.164,255.885,-235.427,516.800,-825.710,175.420
898,45653.824000,213.580,43.929,-151.796,363.696,243.195,-254.720,489.800,-655.710,149.420
899,45653.864000,226.405,46.959,-179.851,361.038,238.740,-258.845,212.800,-435.710,184.420
900,45653.919000,235.283,-5.554,-178.849,362.795,236.109,-259.918,-297.200,186.290,125.420
901,45653.946000,259.946,0.505,-159.812,367.243,244.290,-246.730,-595.200,512.290,-18.580
902,45653.983000,225.418,14.643,-125.746,370.838,256.197,-224.486,-707.200,721.290,-223.580
903,45654.6000,225.418,23.732,-78.654,377.084,272.501,-200.105,-611.200,784.290,-401.580
904,45654.46000,233.310,64.126,-82.661,372.714,277.148,-189.045,-450.200,741.290,-375.580
905,45654.82000,205.688,95.432,-71.640,376.285,287.093,-174.809,-206.200,692.290,-110.580
906,45654.122000,209.634,78.264,-65.628,382.489,284.888,-160.959,-313.200,596.290,54.420
907,45654.166000,246.135,41.909,-45.589,386.933,288.729,-147.911,-261.200,436.290,33.420
908,45654.206000,249.094,24.742,-51.601,386.949,294.918,-143.738,-19.200,349.290,-41.580
909,45654.226000,241.202,42.919,-66.630,388.733,294.276,-135.810,8.800,361.290,-100.580
910,45654.262000,234.297,49.988,-37.573,391.394,298.759,-130.691,75.800,305.290,-121.580
911,45654.312000,256.000,57.057,18.536,390.493,295.117,-136.770,395.800,32.290,-75.580
912,45654.343000,318.150,55.037,10.521,383.416,293.963,-146.760,884.800,-217.710,-32.580
913,45654.383000,372.408,18.682,29.558,378.064,284.687,-167.931,1400.800,-628.710,94.420
914,45654.424000,310.258,70.185,-46.591,370.043,273.420,-198.112,475.800,-951.710,57.420
915,45654.464000,162.281,0.505,-203.898,358.556,273.074,-210.076,87.800,-685.710,31.420
916,45654.484000,90.266,-16.663,-145.785,353.251,272.873,-217.050,26.800,-277.710,49.420
917,45654.524000,59.684,-12.623,-129.753,355.897,269.459,-215.166,99.800,408.290,295.420
918,45654.566000,103.091,35.850,-123.742,368.276,269.919,-199.224,-389.200,665.290,307.420
919,45654.602000,165.241,72.205,-107.710,376.269,274.016,-177.220,-822.200,663.290,140.420
920,45654.646000,244.162,106.540,-124.744,379.864,281.611,-154.123,-1478.200,256.290,-85.580
921,45654.686000,244.162,100.481,-42.583,384.291,278.396,-145.276,-511.200,599.290,-218.580
922,45654.706000,287.568,102.501,12.524,386.971,286.519,-134.081,307.800,659.290,-323.580
923,45654.746000,282.636,53.018,-13.526,385.252,298.140,-121.794,-1184.200,-10.710,-96.580
924,45654.782000,355.638,-21.712,-18.536,387.034,302.650,-115.684,-605.200,-47.710,-121.580
925,45654.826000,283.622,101.491,-21.542,385.270,300.045,-115.774,361.800,140.290,-29.580
926,45654.866000,319.137,13.633,-3.507,382.632,298.364,-113.851,-34.200,60.290,121.420
927,45654.906000,328.015,-12.623,54.607,384.373,293.856,-119.949,691.800,34.290,30.420
928,45654.943000,346.759,-85.333,89.675,376.390,291.579,-138.916,1186.800,-90.710,-304.580
929,45654.964000,331.961,-145.925,95.687,360.436,282.854,-171.026,1080.800,-1243.710,16.420
930,45655.3000,242.189,-43.929,-137.769,353.337,286.654,-189.792,-20.200,-1441.710,270.420
931,45655.43000,220.486,-210.556,-210.912,340.953,283.562,-206.813,-397.200,-1014.710,399.420
932,45655.89000,156.362,-57.057,-91.679,356.721,243.054,-228.930,2891.800,759.290,1373.420
933,45655.127000,126.767,5.554,-121.738,382.240,184.189,-225.793,2372.800,1550.290,1674.420
934,45655.169000,101.118,123.708,-112.720,403.420,158.728,-206.691,686.800,1951.290,1330.420
935,45655.197000,268.825,105.531,-115.726,429.957,137.419,-163.606,-511.200,2051.290,1040.420
936,45655.224000,267.838,95.432,-123.742,446.803,127.302,-123.168,-714.200,1718.290,1098.420
937,45655.273000,156.362,172.181,-83.663,457.457,120.371,-92.576,-1626.200,916.290,667.420
938,45655.306000,144.524,143.905,-114.724,461.007,112.871,-81.885,-3039.200,-128.710,396.420
939,45655.347000,302.366,-115.629,-11.523,467.209,122.705,-71.616,-2457.200,-373.710,277.420
940,45655.387000,404.963,10.604,83.663,466.298,109.488,-78.999,2033.800,261.290,-38.580
941,45655.426000,460.208,-39.890,103.703,465.416,107.751,-79.058,-1097.200,-248.710,249.420
942,45655.444000,380.301,26.761,84.665,466.293,105.987,-80.106,267.800,141.290,48.420
943,45655.484000,248.108,115.629,-117.730,463.677,111.419,-71.994,1352.800,352.290,-284.580
944,45655.524000,253.040,71.195,-301.088,461.876,116.203,-86.739,1185.800,-604.710,-366.580
945,45655.564000,201.742,247.921,-177.847,450.335,125.653,-120.231,264.800,-1465.710,-842.580
946,45655.604000,183.985,101.491,-110.716,429.107,155.815,-157.054,-470.200,-1884.710,-1753.580
947,45655.646000,182.012,53.018,-54.607,406.149,180.266,-181.159,10.800,-1618.710,-2158.580
948,45655.666000,163.268,-104.521,-20.540,379.676,222.018,-206.700,-166.200,-1276.710,-2124.580
949,45655.706000,144.524,-113.609,-14.528,357.654,255.629,-213.624,-960.200,-472.710,-1582.580
950,45655.747000,216.540,-160.063,-19.538,351.553,282.983,-196.868,-857.200,261.290,-897.580
951,45655.787000,311.245,-200.458,-167.828,357.777,295.618,-179.557,-1289.200,609.290,-269.580
952,45655.827000,277.703,168.142,103.703,371.025,288.210,-165.853,109.800,823.290,14.420
953,45655.867000,374.382,-78.264,11.523,371.973,299.219,-144.640,-1403.200,157.290,-193.580
954,45655.907000,334.921,-28.781,-15.530,372.876,302.020,-137.595,-776.200,-93.710,4.420
955,45655.927000,287.568,29.791,-57.613,372.879,298.605,-135.720,61.800,-58.710,-47.580
956,45655.967000,254.027,95.432,-74.646,372.000,304.652,-136.520,-240.200,36.290,148.420
957,45656.8000,257.973,56.047,-45.589,379.061,299.618,-130.702,222.800,308.290,261.420
958,45656.44000,227.391,38.880,-35.569,381.697,294.384,-131.857,184.800,213.290,234.420
959,45656.84000,195.823,47.968,-21.542,385.207,286.490,-135.081,307.800,-13.710,167.420
960,45656.126000,218.513,62.107,-20.540,381.657,278.478,-142.303,466.800,-244.710,87.420
961,45656.146000,296.447,24.742,-16.532,379.839,275.338,-161.277,1023.800,-348.710,20.420
962,45656.187000,343.800,116.639,17.534,377.989,262.396,-189.507,1485.800,-624.710,73.420
963,45656.226000,268.825,130.777,-105.706,370.883,253.204,-207.702,429.800,-764.710,42.420
964,45656.267000,144.524,66.146,-189.871,365.590,261.739,-212.407,415.800,-367.710,-151.580
965,45656.308000,103.091,146.935,-158.810,357.657,266.857,-215.245,-516.200,-205.710,-374.580
966,45656.348000,98.158,18.682,-148.791,352.409,284.466,-205.754,-1017.200,82.290,-291.580
967,45656.389000,159.322,-25.751,-106.708,356.866,289.288,-188.702,-483.200,391.290,3.420
968,45656.406000,133.672,56.047,-118.732,365.687,279.076,-182.054,-257.200,503.290,178.420
969,45656.458000,344.786,-9.594,-57.613,372.775,283.787,-168.970,-859.200,209.290,203.420
970,45656.496000,230.351,41.909,-40.579,379.865,287.659,-154.920,-673.200,146.290,169.420
971,45656.526000,395.098,80.284,77.652,381.662,288.866,-142.959,-1209.200,-239.710,169.420
972,45656.566000,276.717,-61.097,-50.599,380.760,294.688,-151.710,-94.200,-746.710,42.420
973,45656.606000,214.566,110.580,-132.759,376.335,294.487,-158.681,87.800,-435.710,-52.580
974,45656.627000,246.135,64.126,-111.718,376.331,288.411,-158.879,-292.200,-136.710,99.420
975,45656.668000,242.189,58.067,-83.663,378.979,284.158,-156.029,123.800,189.290,311.420
976,45656.716000,245.148,40.899,-61.620,383.380,279.821,-156.156,121.800,153.290,322.420
977,45656.748000,204.701,60.087,-44.587,390.428,279.826,-156.133,-42.200,-141.710,298.420
978,45656.787000,202.728,55.037,-42.583,394.791,272.519,-169.265,307.800,-503.710,354.420
979,45656.828000,206.674,46.959,-39.577,391.223,262.603,-182.507,252.800,-780.710,363.420
980,45656.868000,268.825,5.554,-84.665,386.753,254.196,-203.647,192.800,-992.710,295.420
981,45656.888000,238.243,18.682,-112.720,379.669,246.937,-214.828,207.800,-1039.710,175.420
982,45656.924000,202.728,20.702,-174.841,377.853,235.201,-231.103,302.800,-485.710,67.420
983,45656.968000,262.906,-1.515,-186.865,376.095,236.964,-230.058,-216.200,-64.710,20.420
984,45657.9000,240.216,-19.692,-191.875,377.015,247.690,-218.784,-527.200,618.290,-188.580
985,45657.44000,236.270,18.682,-138.771,384.131,252.683,-195.761,-570.200,999.290,-398.580
986,45657.89000,227.391,37.870,-123.742,383.337,278.531,-171.093,-665.200,1181.290,-450.580
987,45657.104000,229.364,58.067,-78.654,388.703,287.079,-144.980,-268.200,1325.290,-295.580
988,45657.148000,214.566,70.185,-60.618,392.294,286.889,-121.143,-10.200,1345.290,-142.580
989,45657.188000,221.472,46.959,-35.569,397.641,290.089,-100.169,38.800,1228.290,-79.580
990,45657.224000,235.283,40.899,10.521,401.206,295.666,-87.068,201.800,953.290,-181.580
991,45657.268000,233.310,69.176,8.517,399.473,300.258,-77.988,90.800,666.290,-178.580
992,45657.308000,236.270,55.037,-4.509,398.621,301.407,-68.023,46.800,425.290,-134.580
993,45657.348000,235.283,68.166,16.532,398.620,303.983,-68.933,137.800,265.290,-137.580
994,45657.368000,240.216,43.929,46.591,396.856,301.377,-69.023,267.800,-245.710,-63.580
995,45657.408000,314.204,9.594,62.622,393.248,290.198,-96.208,862.800,-1140.710,57.420
996,45657.444000,413.842,62.107,-3.507,385.226,297.019,-130.767,720.800,-1353.710,-14.580
997,45657.488000,369.449,105.531,-49.597,366.658,297.197,-154.652,146.800,-1205.710,-127.580
998,45657.528000,198.782,79.274,-192.877,362.222,300.328,-166.481,-185.200,-1009.710,-152.580
999,45657.568000,55.738,9.594,-137.769,354.257,300.824,-179.399,631.800,-111.710,-124.580
1000,45657.588000,87.306,53.018,-116.728,355.137,296.513,-178.543,490.800,617.290,109.420
1001,45657.628000,159.322,75.235,-115.726,364.870,292.630,-162.750,-202.200,872.290,132.420
1002,45657.668000,184.971,63.116,-114.724,374.623,296.701,-141.734,-656.200,763.290,168.420
1003,45657.712000,230.351,39.890,-124.744,382.584,290.997,-128.985,-523.200,589.290,178.420
1004,45657.764000,262.906,183.290,105.706,387.034,294.895,-113.949,-569.200,562.290,-116.580
1005,45657.794000,274.744,106.540,28.556,387.981,308.479,-93.646,-890.200,91.290,-254.580
1006,45657.827000,352.678,-29.791,-10.521,386.225,307.666,-91.692,-267.200,59.290,-86.580
1007,45657.852000,296.447,31.811,-11.523,380.058,311.105,-92.593,-610.200,-289.710,-213.580
1008,45657.886000,285.595,44.939,-32.564,376.551,315.583,-87.494,65.800,-132.710,-163.580
1009,45657.926000,308.285,83.314,-40.579,379.169,311.888,-95.549,378.800,95.290,14.420
1010,45657.972000,363.530,10.604,1.503,378.280,305.783,-96.743,463.800,308.290,-1.580
1011,45658.9000,372.408,-82.304,67.632,377.371,309.813,-107.538,1529.800,433.290,-151.580
1012,45658.49000,320.123,-208.536,96.689,368.505,309.243,-127.445,1869.800,216.290,-354.580
1013,45658.69000,256.987,-159.053,124.744,361.345,294.336,-163.699,1509.800,-755.710,244.420
1014,45658.109000,239.229,168.142,-212.916,342.812,299.164,-176.511,-1514.200,-1574.710,264.420
1015,45658.148000,347.746,-311.542,-213.918,342.782,289.391,-184.772,-485.200,-1142.710,1079.420
1016,45658.189000,116.902,64.126,-71.640,361.155,233.007,-216.332,2540.800,331.290,1652.420
1017,45658.229000,83.360,143.905,-52.603,384.017,189.511,-221.643,1561.800,980.290,1633.420
1018,45658.269000,116.902,142.895,-42.583,408.756,165.259,-190.575,263.800,1617.290,1368.420
1019,45658.309000,182.998,77.254,-83.663,433.525,143.024,-149.511,129.800,2098.290,983.420
1020,45658.329000,220.486,144.915,-125.746,444.165,129.932,-122.098,-160.200,1972.290,916.420
1021,45658.369000,284.609,169.152,-34.568,455.726,119.811,-81.677,-1505.200,1389.290,868.420
1022,45658.409000,220.486,236.813,-143.781,465.496,112.852,-52.082,-3775.200,440.290,764.420
1023,45658.449000,422.721,-270.138,-207.906,469.057,106.333,-37.387,-1495.200,176.290,364.420
1024,45658.491000,414.829,-117.649,128.751,469.074,109.945,-32.305,1916.800,775.290,-173.580
1025,45658.531000,277.703,89.373,23.546,469.079,112.578,-31.226,157.800,-40.710,-245.580
1026,45658.566000,280.663,24.742,-110.716,467.301,121.899,-38.873,210.800,-426.710,-209.580
1027,45658.589000,275.730,163.093,-69.636,462.826,126.371,-64.560,908.800,-1096.710,-616.580
1028,45658.629000,256.987,106.540,-66.630,455.726,143.078,-86.880,624.800,-1344.710,-1319.580
1029,45658.671000,236.270,85.333,-47.593,438.025,169.827,-121.816,670.800,-1400.710,-1611.580
1030,45658.707000,205.688,61.097,-49.597,416.803,195.734,-155.798,654.800,-1246.710,-1780.580
1031,45658.748000,200.755,4.544,7.515,394.735,223.714,-177.800,85.800,-977.710,-1804.580
1032,45658.796000,171.160,-121.688,16.532,378.923,257.752,-169.795,-1266.200,-471.710,-1554.580
1033,45658.808000,269.811,-176.221,59.616,373.708,280.851,-150.195,-1580.200,481.290,-825.580
1034,45658.848000,238.243,0.505,-270.027,375.585,303.538,-114.698,-2065.200,517.290,-719.580
1035,45658.888000,434.559,-124.718,66.630,382.618,298.223,-118.820,2082.800,1177.290,-83.580
1036,45658.927000,416.802,-22.722,75.648,384.419,305.506,-106.662,-614.200,407.290,-147.580
1037,45658.972000,218.513,59.077,-41.581,380.914,301.389,-98.863,-917.200,147.290,159.420
1038,45659.29000,263.892,27.771,-57.613,383.586,301.672,-88.916,231.800,399.290,-251.580
1039,45659.49000,239.229,97.452,-22.544,383.586,305.984,-89.769,473.800,523.290,-34.580
1040,45659.73000,221.472,89.373,5.511,385.370,305.343,-81.840,-160.200,277.290,4.420
1041,45659.107000,233.310,63.116,23.546,387.137,307.976,-80.756,-211.200,53.290,-73.580
1042,45659.147000,255.013,43.929,8.517,382.736,309.737,-79.720,47.800,-112.710,-53.580
1043,45659.188000,250.081,63.116,-22.544,381.849,305.368,-80.857,-130.200,-200.710,-56.580
1044,45659.228000,245.148,66.146,-32.564,380.093,313.179,-80.609,-55.200,-108.710,-65.580
1045,45659.269000,245.148,73.215,-29.558,379.202,310.490,-83.679,-43.200,16.290,-76.580
1046,45659.289000,239.229,77.254,-13.526,378.324,311.385,-82.659,7.800,67.290,-66.580
