Sample, Time, ACCX, ACCY, ACCZ, MAGX, MAGY, MAGZ, GYRX, GYRY, GYRZ
0,45731.438000,249.094,49.988,30.560,433.031,266.633,-41.238,49.800,154.290,-42.580
1,45731.479000,248.108,50.998,24.548,434.791,266.606,-42.226,-13.200,134.290,-45.580
2,45731.520000,245.148,45.949,18.536,434.792,269.210,-42.141,-52.200,112.290,-35.580
3,45731.560000,248.108,44.939,20.540,430.398,268.451,-38.208,-21.200,109.290,-26.580
4,45731.600000,245.148,44.939,18.536,432.168,264.225,-34.368,23.800,108.290,-16.580
5,45731.640000,245.148,47.968,26.552,435.689,263.332,-35.378,68.800,97.290,-2.580
6,45731.660000,248.108,43.929,26.552,435.695,267.700,-34.244,86.800,85.290,5.420
7,45731.700000,245.148,47.968,31.562,431.288,265.092,-34.342,97.800,65.290,12.420
8,45731.741000,245.148,48.978,30.560,432.169,261.649,-33.458,70.800,4.290,22.420
9,45731.778000,241.202,53.018,30.560,432.160,260.697,-36.468,69.800,-29.710,25.420
10,45731.818000,239.229,56.047,37.573,432.156,263.244,-38.371,71.800,-81.710,26.420
11,45731.856000,240.216,55.037,33.566,433.024,260.528,-42.429,-48.200,-230.710,38.420
12,45731.876000,246.135,39.890,29.558,436.541,258.739,-44.461,-113.200,-346.710,37.420
13,45731.916000,256.000,17.673,17.534,435.636,264.532,-54.206,-62.200,-456.710,37.420
14,45731.960000,246.135,42.919,11.523,437.366,259.912,-64.281,80.800,-484.710,11.420
15,45732.1000,243.175,44.939,7.515,433.814,263.072,-75.112,-105.200,-566.710,14.420
16,45732.36000,244.162,44.939,8.517,434.678,263.771,-81.045,-43.200,-669.710,35.420
17,45732.76000,240.216,40.899,20.540,428.458,259.788,-99.068,35.800,-807.710,41.420
18,45732.118000,209.634,71.195,-23.546,426.639,255.779,-118.071,-44.200,-1007.710,-5.580
19,45732.138000,231.337,78.264,-74.646,423.072,253.618,-133.047,-547.200,-865.710,30.420
20,45732.178000,282.636,18.682,-97.691,419.540,257.843,-136.893,256.800,-270.710,76.420
21,45732.216000,258.960,44.939,-77.652,423.925,255.073,-142.927,164.800,46.290,124.420
22,45732.258000,257.973,23.732,-56.611,424.821,251.771,-137.073,4.800,262.290,135.420
23,45732.298000,241.202,27.771,-29.558,429.240,247.603,-131.236,148.800,344.290,94.420
24,45732.338000,232.324,34.840,-11.523,428.363,241.611,-128.455,139.800,229.290,51.420
25,45732.376000,238.243,37.870,-2.505,430.126,246.792,-129.274,-105.200,-59.710,30.420
26,45732.403000,260.933,33.830,-49.597,432.767,240.746,-128.469,-64.200,15.290,24.420
27,45732.436000,255.013,32.821,-55.609,434.543,244.332,-124.375,92.800,234.290,28.420
28,45732.480000,264.879,22.722,-37.573,436.321,243.634,-118.434,154.800,418.290,30.420
29,45732.521000,234.297,32.821,-13.526,436.336,244.643,-113.436,239.800,437.290,8.420
30,45732.561000,228.378,37.870,-5.511,435.466,240.443,-108.610,105.800,304.290,4.420
31,45732.601000,224.432,52.008,18.536,437.229,245.624,-109.429,-26.200,-27.710,32.420
32,45732.624000,243.175,38.880,6.513,433.694,242.065,-112.535,-122.200,-252.710,45.420
33,45732.664000,240.216,27.771,1.503,436.315,234.954,-118.715,-56.200,-439.710,40.420
34,45732.700000,260.933,27.771,-10.521,431.009,238.197,-126.571,-172.200,-712.710,-3.580
35,45732.740000,256.987,9.594,-30.560,426.555,240.291,-144.391,-118.200,-799.710,-44.580
36,45732.781000,247.121,38.880,-49.597,423.873,240.763,-158.286,-55.200,-764.710,-80.580
37,45732.823000,248.108,28.781,-103.703,419.452,246.638,-165.061,-134.200,-511.710,-57.580
38,45732.866000,247.121,41.909,-109.714,417.676,246.496,-170.036,46.800,-100.710,-40.580
39,45732.878000,259.946,41.909,-77.652,417.684,241.401,-166.229,8.800,193.290,18.420
40,45732.918000,254.027,30.801,-73.644,419.466,241.599,-159.266,79.800,436.290,50.420
41,45732.958000,236.270,25.751,-54.607,426.538,240.990,-150.327,122.800,518.290,14.420
42,45732.998000,229.364,31.811,-32.564,429.205,246.397,-143.192,28.800,451.290,-13.580
43,45733.38000,244.162,34.840,-24.548,429.221,244.830,-137.284,19.800,348.290,-20.580
44,45733.79000,249.094,36.860,-14.528,431.002,244.160,-130.350,29.800,261.290,-15.580
45,45733.106000,244.162,35.850,2.505,431.007,247.661,-129.243,3.800,93.290,-10.580
46,45733.138000,252.054,27.771,-2.505,428.348,233.714,-131.690,-27.200,-192.710,-15.580
47,45733.181000,248.108,41.909,-22.544,427.452,243.904,-139.306,-55.200,-311.710,-23.580
48,45733.221000,252.054,32.821,-58.614,425.681,242.083,-142.350,-21.200,-260.710,-2.580
49,45733.276000,251.067,36.860,-77.652,423.917,247.233,-144.174,28.800,-26.710,9.420
50,45733.303000,254.027,35.850,-54.607,425.688,248.187,-141.159,29.800,193.290,19.420
51,45733.338000,252.054,25.751,-43.585,430.986,250.039,-137.110,37.800,296.290,11.420
52,45733.358000,245.148,34.840,-21.542,427.471,250.121,-134.139,60.800,242.290,-2.580
53,45733.400000,235.283,43.929,-2.505,426.592,241.525,-131.442,-24.200,60.290,4.420
54,45733.440000,237.256,29.791,-5.511,430.993,243.208,-133.359,8.800,-220.710,25.420
55,45733.480000,258.960,40.899,-11.523,430.970,242.983,-141.311,-41.200,-414.710,16.420
56,45733.518000,256.987,23.732,-36.571,426.548,247.122,-148.142,-125.200,-539.710,14.420
57,45733.561000,249.094,34.840,-57.613,423.882,246.027,-156.130,-42.200,-479.710,-6.580
58,45733.578000,253.040,38.880,-78.654,422.105,248.461,-162.014,-43.200,-323.710,9.420
59,45733.618000,239.229,37.870,-87.671,416.816,244.117,-162.172,-8.200,-83.710,20.420
60,45733.658000,247.121,32.821,-68.634,421.220,243.252,-162.186,2.800,182.290,28.420
61,45733.701000,249.094,28.781,-57.613,422.987,245.885,-161.102,48.800,266.290,21.420
62,45733.741000,243.175,27.771,-42.583,422.126,246.082,-154.147,38.800,247.290,4.420
63,45733.781000,242.189,35.850,-30.560,425.650,246.085,-154.136,5.800,132.290,1.420
64,45733.821000,244.162,31.811,-28.556,427.422,245.330,-150.183,0.800,10.290,2.420
65,45733.841000,248.108,32.821,-24.548,423.893,246.140,-152.154,10.800,-114.710,-2.580
66,45733.881000,252.054,25.751,-45.589,423.871,246.782,-160.077,-41.200,-258.710,-13.580
67,45733.921000,250.081,23.732,-56.611,422.991,244.206,-159.170,2.800,-227.710,-28.580
68,45733.960000,246.135,37.870,-74.646,421.215,236.308,-162.411,0.800,-97.710,-31.580
69,45734.0,245.148,43.929,-81.659,422.988,239.866,-159.311,-37.200,187.290,7.420
70,45734.41000,248.108,29.791,-60.618,425.647,239.169,-153.367,-90.200,332.290,16.420
71,45734.61000,252.054,25.751,-43.585,429.203,243.793,-143.276,-38.200,407.290,3.420
72,45734.109000,249.094,25.751,-36.571,425.686,241.271,-140.390,2.800,378.290,-21.580
73,45734.140000,240.216,35.850,-24.548,428.352,246.678,-133.255,16.800,299.290,-18.580
74,45734.188000,238.243,41.909,-9.519,426.603,248.525,-129.229,17.800,164.290,-3.580
75,45734.220000,249.094,39.890,-12.524,428.355,243.262,-131.380,-48.200,-68.710,5.420
76,45734.260000,244.162,29.791,-20.540,430.119,245.000,-131.318,-19.200,-195.710,8.420
77,45734.300000,248.108,36.860,-22.544,428.344,247.461,-136.209,-28.200,-313.710,8.420
78,45734.320000,253.040,30.801,-40.579,427.440,249.811,-145.072,-51.200,-336.710,17.420
79,45734.360000,246.135,33.830,-52.603,425.657,247.877,-152.092,50.800,-281.710,10.420
80,45734.400000,250.081,35.850,-60.618,422.128,245.242,-153.182,-26.200,-189.710,16.420
81,45734.441000,248.108,29.791,-74.646,420.359,243.448,-155.231,-35.200,-49.710,24.420
82,45734.483000,245.148,31.811,-60.618,422.121,239.138,-154.373,28.800,108.290,19.420
83,45734.523000,243.175,31.811,-53.605,421.252,240.986,-150.344,49.800,195.290,15.420
84,45734.555000,242.189,29.791,-40.579,425.664,241.914,-148.313,26.800,158.290,8.420
85,45734.580000,241.202,36.860,-30.560,425.674,244.602,-145.247,5.800,66.290,6.420
86,45734.620000,243.175,35.850,-25.550,426.546,243.650,-148.254,11.800,-97.710,12.420
87,45734.661000,253.040,28.781,-30.560,428.304,246.199,-150.152,-19.200,-221.710,13.420
88,45734.701000,252.054,24.742,-38.575,423.873,237.319,-157.405,7.800,-282.710,8.420
89,45734.741000,248.108,35.850,-59.616,424.748,240.707,-160.271,-49.200,-255.710,10.420
90,45734.788000,242.189,30.801,-84.665,423.855,240.594,-164.250,-15.200,-74.710,8.420
91,45734.803000,245.148,34.840,-74.646,424.743,238.075,-161.350,-0.200,120.290,5.420
92,45734.843000,248.108,29.791,-56.611,427.410,243.482,-154.215,-23.200,273.290,4.420
93,45734.890000,250.081,30.801,-51.601,426.538,244.434,-151.208,-10.200,309.290,-6.580
94,45734.921000,245.148,31.811,-37.573,429.194,242.840,-146.286,24.800,296.290,-10.580
95,45734.961000,243.175,35.850,-30.560,427.448,245.584,-141.238,14.800,202.290,-7.580
96,45735.0,244.162,33.830,-23.546,428.333,243.037,-139.331,4.800,93.290,0.420
97,45735.24000,240.216,32.821,-25.550,429.217,240.490,-137.425,-7.200,-22.710,5.420
98,45735.59000,250.081,33.830,-26.552,427.454,243.064,-138.340,-18.200,-168.710,14.420
99,45735.100000,247.121,31.811,-29.558,427.430,240.235,-146.376,-23.200,-256.710,21.420
100,45735.140000,250.081,28.781,-39.577,426.534,243.537,-152.230,-5.200,-305.710,13.420
101,45735.181000,247.121,31.811,-65.628,425.638,241.660,-157.259,-42.200,-269.710,9.420
102,45735.223000,246.135,29.791,-83.663,423.873,237.319,-157.405,-16.200,-81.710,-2.580
103,45735.263000,250.081,34.840,-64.626,425.645,243.452,-155.214,3.800,164.290,-4.580
104,45735.283000,254.027,28.781,-57.613,427.411,240.906,-153.305,0.800,261.290,-8.580
105,45735.321000,245.148,29.791,-48.595,429.200,239.453,-143.417,-3.200,298.290,-17.580
106,45735.361000,242.189,30.801,-40.579,429.207,245.557,-142.226,1.800,280.290,-21.580
107,45735.401000,245.148,35.850,-28.556,430.994,245.812,-133.275,6.800,225.290,-21.580
108,45735.441000,245.148,34.840,-21.542,428.346,238.866,-133.509,6.800,135.290,-13.580
109,45735.481000,251.067,35.850,-17.534,428.348,240.602,-133.452,-3.200,-11.710,-5.580
110,45735.501000,243.175,32.821,-21.542,429.216,242.198,-138.363,3.800,-124.710,0.420
111,45735.544000,251.067,31.811,-25.550,429.212,241.302,-139.385,7.800,-220.710,3.420
112,45735.584000,247.121,31.811,-47.593,428.324,242.952,-142.313,-19.200,-242.710,3.420
113,45735.623000,249.094,31.811,-64.626,425.672,246.310,-146.185,0.800,-149.710,-2.580
114,45735.665000,252.054,33.830,-58.614,427.432,247.151,-147.145,7.800,-9.710,-2.580
115,45735.706000,253.040,31.811,-57.613,423.912,248.045,-146.134,-8.200,140.290,-1.580
116,45735.744000,246.135,30.801,-47.593,428.330,243.877,-140.297,4.800,200.290,-7.580
117,45735.763000,244.162,32.821,-36.571,430.986,242.284,-135.375,17.800,201.290,-8.580
118,45735.801000,241.202,36.860,-25.550,429.227,242.310,-134.387,1.800,118.290,-7.580
119,45735.840000,243.175,35.850,-19.538,429.233,243.235,-132.371,-24.200,2.290,1.420
120,45735.880000,243.175,35.850,-22.544,427.466,246.621,-135.246,-3.200,-106.710,12.420
121,45735.923000,247.121,33.830,-30.560,430.086,238.642,-141.454,-0.200,-212.710,15.420
122,45735.963000,249.094,33.830,-41.581,425.677,248.074,-145.134,-24.200,-241.710,13.420
123,45735.981000,249.094,31.811,-55.609,428.306,241.915,-148.305,-12.200,-201.710,11.420
124,45736.20000,249.094,30.801,-59.616,425.654,233.205,-149.589,13.800,-89.710,14.420
125,45736.64000,247.121,31.811,-55.609,423.009,240.931,-152.326,25.800,-2.710,11.420
126,45736.101000,247.121,31.811,-53.605,425.660,237.574,-148.454,7.800,60.290,6.420
127,45736.149000,248.108,30.801,-49.597,424.795,242.894,-144.312,8.800,122.290,-1.580
128,45736.183000,245.148,30.801,-43.585,427.443,246.396,-143.197,10.800,135.290,-4.580
129,45736.221000,243.175,36.860,-32.564,427.436,241.159,-144.360,-0.200,79.290,-4.580
130,45736.240000,244.162,32.821,-30.560,429.211,247.321,-141.176,-11.200,0.290,5.420
131,45736.283000,246.135,31.811,-31.562,427.443,247.264,-143.169,9.800,-74.710,6.420
132,45736.325000,249.094,31.811,-37.573,427.438,239.452,-143.423,-14.200,-154.710,8.420
133,45736.363000,248.108,34.840,-48.595,425.662,239.310,-148.398,-0.200,-139.710,6.420
134,45736.405000,250.081,29.791,-57.613,423.892,240.960,-151.329,-1.200,-81.710,3.420
135,45736.443000,248.108,31.811,-56.611,425.656,243.565,-151.239,-10.200,38.290,-0.580
136,45736.485000,248.108,32.821,-54.607,426.539,238.414,-149.417,-12.200,106.290,-5.580
137,45736.508000,248.108,32.821,-46.591,426.553,245.442,-146.210,-1.200,136.290,-8.580
138,45736.545000,245.148,31.811,-39.577,429.202,246.369,-144.185,-8.200,127.290,-11.580
139,45736.584000,244.162,30.801,-35.569,425.689,242.167,-139.368,4.800,93.290,-9.580
140,45736.621000,249.094,34.840,-31.562,428.329,246.453,-141.207,7.800,36.290,-4.580
141,45736.661000,247.121,30.801,-40.579,428.328,241.273,-140.382,-31.200,-33.710,-2.580
142,45736.703000,248.108,31.811,-37.573,429.212,244.745,-140.266,-0.200,-45.710,-5.580
143,45736.725000,248.108,31.811,-43.585,430.968,240.379,-141.395,-9.200,-48.710,-0.580
144,45736.765000,250.081,30.801,-46.591,431.848,246.399,-143.183,-3.200,-4.710,-5.580
145,45736.805000,246.135,32.821,-44.587,423.915,240.317,-143.406,-0.200,20.290,-6.580
146,45736.843000,248.108,33.830,-43.585,426.569,244.743,-140.275,-3.200,34.290,-6.580
147,45736.885000,245.148,33.830,-43.585,427.442,242.084,-142.344,7.800,51.290,-6.580
148,45736.925000,248.108,34.840,-39.577,428.327,239.537,-140.438,1.800,57.290,-2.580
149,45736.963000,248.108,33.830,-37.573,429.215,248.217,-140.153,3.800,45.290,-3.580
150,45736.981000,248.108,31.811,-41.581,431.859,246.512,-139.207,-3.200,30.290,-3.580
151,45737.21000,247.121,34.840,-40.579,429.235,249.283,-133.168,-5.200,47.290,-9.580
152,45737.61000,247.121,34.840,-39.577,428.348,248.358,-135.187,-20.200,51.290,-6.580
153,45737.111000,249.094,30.801,-36.571,430.114,242.367,-132.397,29.800,61.290,-6.580
154,45737.145000,247.121,36.860,-35.569,430.108,242.311,-134.384,-13.200,37.290,-4.580
155,45737.184000,248.108,35.850,-31.562,430.111,238.027,-132.537,-10.200,12.290,13.420
156,45737.205000,250.081,34.840,-37.573,428.352,245.810,-133.283,26.800,0.290,21.420
157,45737.243000,251.067,33.830,-36.571,430.108,242.311,-134.384,18.800,-2.710,21.420
158,45737.285000,254.027,31.811,-35.569,427.465,245.753,-135.274,80.800,76.290,13.420
159,45737.323000,247.121,30.801,-29.558,429.242,243.319,-129.389,119.800,360.290,-124.580
160,45737.365000,229.364,28.781,-23.546,427.463,239.705,-134.477,188.800,-21.710,-10.580
161,45737.405000,228.378,38.880,-20.540,427.458,240.517,-136.437,87.800,-308.710,-41.580
162,45737.444000,231.337,44.939,-32.564,429.206,248.133,-143.135,-22.200,-409.710,-95.580
163,45737.461000,232.324,53.018,-53.605,426.546,254.850,-150.870,-343.200,-407.710,-154.580
164,45737.504000,272.771,-14.643,-65.628,420.386,256.638,-148.845,-396.200,-292.710,-128.580
165,45737.544000,246.135,99.471,-44.587,412.460,263.548,-149.640,-380.200,-203.710,-192.580
166,45737.581000,282.636,19.692,-48.595,413.349,259.321,-145.802,-647.200,-227.710,-68.580
167,45737.621000,279.676,42.919,-20.540,410.704,264.471,-147.629,103.800,-18.710,-72.580
168,45737.663000,322.096,9.594,5.511,408.941,266.177,-148.573,428.800,295.290,-199.580
169,45737.686000,323.083,-108.560,36.571,405.345,260.291,-172.607,1458.800,-415.710,-179.580
170,45737.724000,407.923,-54.028,-23.546,383.237,261.165,-202.439,69.800,-1376.710,-148.580
171,45737.766000,284.609,-121.688,-95.687,377.046,266.087,-212.229,73.800,-1033.710,293.420
172,45737.804000,171.160,-149.964,3.507,377.005,241.558,-220.969,778.800,-140.710,815.420
173,45737.846000,140.578,-68.166,48.595,391.989,217.518,-212.764,1052.800,1322.290,1350.420
174,45737.884000,121.834,5.554,13.526,420.269,189.994,-174.840,270.800,1908.290,1494.420
175,45737.923000,248.108,79.274,-85.667,443.257,173.608,-141.537,-208.200,2413.290,1316.420
176,45737.943000,199.769,374.154,-144.783,459.251,163.772,-91.162,-1145.200,1549.290,252.420
177,45737.985000,176.092,139.866,-230.951,457.592,184.608,-59.708,-3710.200,-87.710,-316.580
178,45738.23000,291.514,22.722,-86.669,457.592,192.364,-61.443,-1353.200,-600.710,34.420
179,45738.66000,256.987,175.211,-51.601,449.655,206.917,-67.947,1990.800,272.290,-1209.580
180,45738.104000,334.921,15.653,82.661,437.325,226.759,-71.314,-1448.200,-506.710,-768.580
181,45738.145000,291.514,-35.850,-3.507,425.904,246.884,-64.740,-2179.200,-680.710,-934.580
182,45738.164000,243.175,102.501,-43.585,417.978,258.105,-66.387,593.800,133.290,-570.580
183,45738.205000,253.040,-20.702,-21.542,410.058,265.940,-65.165,-888.200,-203.710,-429.580
184,45738.243000,254.027,32.821,-12.524,409.190,274.676,-62.899,-49.200,-39.710,-411.580
185,45738.285000,251.067,19.692,4.509,404.774,286.627,-69.476,155.800,-228.710,-351.580
186,45738.323000,241.202,68.166,3.507,399.481,292.587,-73.272,-248.200,-558.710,-229.580
187,45738.376000,257.973,41.909,62.622,388.858,286.892,-90.371,340.800,-787.710,-69.580
188,45738.405000,511.507,142.895,148.791,393.203,282.860,-110.348,662.800,-958.710,471.420
189,45738.428000,511.507,327.700,164.822,393.116,263.900,-136.781,49.800,-1598.710,791.420
190,45738.463000,189.904,99.471,-33.566,385.148,264.367,-150.694,-823.200,-1153.710,116.420
191,45738.504000,22.197,263.069,181.855,376.464,281.112,-110.458,-1790.200,887.290,-576.580
192,45738.545000,161.295,166.122,-1.503,372.225,299.990,-56.238,-2479.200,2436.290,-871.580
193,45738.585000,348.732,-62.107,-245.980,357.497,311.053,28.478,-232.200,3251.290,-780.580
194,45738.624000,179.052,-37.870,-503.483,336.454,331.846,58.875,1924.800,2762.290,-477.580
195,45738.643000,134.659,40.899,-442.364,324.116,339.537,55.113,1641.800,717.290,-640.580
196,45738.686000,323.083,10.604,129.753,333.798,329.128,54.806,-2242.200,-954.710,587.420
197,45738.724000,511.507,-225.704,-47.593,347.995,306.017,95.808,-3422.200,-968.710,404.420
198,45738.766000,270.798,-96.442,-5.511,352.379,311.843,87.074,871.800,-115.710,199.420
199,45738.804000,239.229,88.363,-3.507,354.114,309.855,78.078,-177.200,-258.710,207.420
200,45738.843000,250.081,85.333,-19.538,360.283,305.576,79.945,-537.200,-154.710,186.420
201,45738.884000,222.459,98.462,-10.521,363.818,302.247,84.813,7.800,206.290,364.420
202,45738.903000,258.960,17.673,66.630,371.739,295.281,83.619,321.800,47.290,378.420
203,45738.945000,228.378,30.801,73.644,374.341,282.821,72.301,359.800,-258.710,357.420
204,45738.988000,211.607,60.087,67.632,382.223,276.328,57.220,332.800,-590.710,400.420
205,45739.26000,228.378,98.462,-3.507,387.479,277.758,46.361,182.800,-927.710,460.420
206,45739.68000,275.730,3.535,-65.628,397.991,265.975,28.138,235.800,-782.710,549.420
207,45739.108000,277.703,40.899,-115.726,405.001,246.658,19.590,126.800,-340.710,647.420
208,45739.126000,329.002,58.067,-98.693,417.328,234.544,20.229,675.800,562.290,1027.420
209,45739.164000,174.119,222.675,-46.591,424.364,210.301,21.451,1464.800,1025.290,1095.420
210,45739.206000,220.486,380.213,-371.225,433.169,197.344,23.045,689.800,247.290,577.420
211,45739.244000,182.012,365.065,-483.444,433.004,218.109,-39.833,3046.800,-2205.710,-1111.580
212,45739.288000,276.717,321.641,-363.209,415.090,239.302,-148.432,2474.800,-3789.710,-1670.580
213,45739.336000,280.663,132.797,-178.849,370.687,227.993,-271.079,3062.800,-3857.710,-1817.580
214,45739.368000,199.769,130.777,-8.517,332.604,221.654,-340.916,2327.800,-3466.710,-1809.580
215,45739.390000,175.106,37.870,218.928,270.773,232.910,-401.322,0.800,-2426.710,-2008.580
216,45739.426000,220.486,-12.623,204.900,242.651,291.299,-390.580,-2393.200,-620.710,-1715.580
217,45739.465000,432.586,-130.777,55.609,258.675,348.102,-344.994,-2823.200,1490.290,-823.580
218,45739.508000,511.507,-1.515,-10.521,287.686,313.065,-357.954,4117.800,2487.290,165.420
219,45739.544000,455.276,-317.602,8.517,292.174,333.709,-333.438,-2712.200,201.290,-189.580
220,45739.586000,195.823,338.809,-65.628,293.074,347.682,-330.002,446.800,465.290,-424.580
221,45739.605000,270.798,254.990,-57.613,297.499,344.438,-322.150,231.800,497.290,-173.580
222,45739.648000,262.906,21.712,-102.701,299.268,346.232,-320.100,323.800,478.290,-172.580
223,45739.686000,265.865,-74.225,-145.785,301.032,341.950,-318.247,485.800,654.290,-192.580
224,45739.724000,253.040,74.225,-114.724,314.214,317.514,-323.963,1214.800,998.290,-282.580
225,45739.764000,182.998,-61.097,-123.742,315.943,299.091,-331.506,2006.800,952.290,-338.580
226,45739.804000,221.472,-71.195,-109.714,310.610,296.900,-347.482,363.800,-288.710,20.420
227,45739.845000,335.908,15.653,-364.211,292.918,273.756,-368.149,1078.800,-1439.710,358.420
228,45739.865000,439.491,48.978,-314.113,235.453,221.736,-427.615,1933.800,-3367.710,667.420
229,45739.915000,427.653,150.974,-61.620,164.820,169.290,-471.249,1665.800,-3241.710,1289.420
230,45739.946000,329.988,46.959,40.579,122.455,122.805,-488.781,1373.800,-2101.710,1554.420
231,45739.986000,129.726,270.138,341.166,125.949,82.879,-490.065,1974.800,833.290,1487.420
232,45740.29000,27.129,227.724,232.955,180.607,63.490,-471.652,328.800,2837.290,714.420
233,45740.73000,103.091,189.349,90.677,273.269,76.363,-417.316,-512.200,4505.290,74.420
234,45740.84000,328.015,262.059,-140.775,365.193,125.977,-321.078,-2125.200,5477.290,-324.580
235,45740.124000,412.855,281.247,-378.239,403.325,179.330,-244.750,-4326.200,4189.290,-378.580
236,45740.165000,278.690,90.383,-503.483,429.177,220.272,-147.018,-3874.200,2155.290,73.420
237,45740.214000,54.751,73.215,-503.483,422.147,240.259,-145.399,1181.800,-806.710,-846.580
238,45740.245000,128.740,-4.544,-35.569,408.894,248.479,-161.063,-173.200,-609.710,-756.580
239,45740.285000,270.798,70.185,-95.687,400.958,258.748,-165.720,-2109.200,-1359.710,-590.580
240,45740.326000,243.175,65.136,-107.710,391.259,269.856,-171.349,746.800,-229.710,-343.580
241,45740.346000,268.825,62.107,-83.663,388.610,275.818,-175.136,-482.200,-224.710,-79.580
242,45740.386000,263.892,44.939,-91.679,386.000,283.042,-164.980,-589.200,97.290,-59.580
243,45740.426000,232.324,66.146,-40.579,388.653,280.552,-161.080,164.800,348.290,-21.580
244,45740.466000,228.378,61.097,-23.546,383.388,285.925,-154.965,-58.200,280.290,-41.580
245,45740.506000,200.755,7.574,11.523,385.138,284.946,-158.963,22.800,15.290,-184.580
246,45740.546000,289.541,14.643,50.599,377.171,286.282,-172.847,253.800,-784.710,-287.580
247,45740.566000,473.033,-55.037,132.759,356.791,276.488,-211.957,1483.800,-1291.710,-377.580
248,45740.606000,511.507,9.594,137.769,340.819,270.170,-250.939,1675.800,-1960.710,-172.580
249,45740.648000,338.867,-35.850,-149.793,310.749,262.946,-290.990,-133.200,-1818.710,98.420
250,45740.686000,283.622,-155.014,-25.550,289.608,268.978,-291.855,-927.200,-1087.710,277.420
251,45740.726000,69.549,-149.964,33.566,302.791,246.279,-297.514,1376.800,1170.290,960.420
252,45740.766000,52.778,1.515,-17.534,331.895,225.079,-281.228,1255.800,2402.290,1289.420
253,45740.806000,109.010,68.166,-51.601,376.053,195.187,-235.386,-14.200,2813.290,1219.420
254,45740.826000,203.715,107.550,-178.849,407.958,201.409,-169.544,-1953.200,2287.290,1102.420
255,45740.866000,253.040,181.270,-142.779,426.608,194.292,-115.101,-1975.200,1654.290,932.420
256,45740.906000,228.378,186.320,-187.867,436.423,198.982,-72.219,-3020.200,606.290,824.420
257,45740.963000,252.054,-49.988,-158.810,438.201,193.105,-65.453,-2122.200,-914.710,584.420
258,45740.989000,308.285,-73.215,64.626,437.287,198.814,-78.179,2997.800,605.290,-876.580
259,45741.35000,367.476,422.627,99.695,432.854,213.172,-91.629,621.800,-326.710,-1139.580
260,45741.48000,424.694,-125.728,-44.587,417.874,235.532,-97.903,-212.200,-463.710,-676.580
261,45741.86000,247.121,116.639,-56.611,412.594,242.472,-97.695,-400.200,-172.710,-506.580
262,45741.133000,290.528,10.604,-59.616,414.374,247.823,-92.550,-466.200,101.290,-201.580
263,45741.173000,218.513,16.663,11.523,413.521,254.991,-84.376,86.800,340.290,-124.580
264,45741.206000,205.688,27.771,32.564,414.412,253.369,-80.454,-18.200,113.290,-22.580
265,45741.248000,222.459,21.712,15.530,412.641,256.727,-84.323,98.800,-135.710,9.420
266,45741.289000,233.310,65.136,51.601,411.746,253.141,-88.414,-191.200,-567.710,198.420
267,45741.309000,311.245,-57.057,-15.530,407.291,246.611,-104.528,102.800,-786.710,280.420
268,45741.350000,272.771,22.722,10.521,408.974,235.493,-129.708,295.800,-1023.710,236.420
269,45741.388000,299.407,71.195,-2.505,405.404,225.548,-143.944,273.800,-1421.710,626.420
270,45741.428000,475.992,106.540,56.611,403.556,212.634,-171.180,1113.800,-800.710,661.420
271,45741.468000,354.651,204.497,43.585,393.766,192.686,-201.648,1351.800,-1171.710,432.420
272,45741.509000,134.659,303.464,-69.636,382.238,178.142,-224.996,803.800,-597.710,-16.580
273,45741.529000,43.900,331.740,-11.523,369.075,205.350,-213.233,705.800,690.290,-1622.580
274,45741.570000,81.387,251.961,-52.603,360.374,246.060,-184.136,-1484.200,1252.290,-2418.580
275,45741.610000,257.973,-245.901,-212.916,334.132,287.518,-128.260,-559.200,1878.290,-2056.580
276,45741.653000,273.757,-189.349,-307.100,322.766,305.602,-101.892,13.800,1311.290,-883.580
277,45741.686000,191.877,-214.596,-165.824,328.980,312.105,-86.766,-125.200,449.290,53.420
278,45741.736000,374.382,-112.600,164.822,330.796,316.085,-68.757,-2123.200,-248.710,459.420
279,45741.766000,415.815,8.584,43.585,336.165,314.330,-39.007,-1683.200,-431.710,266.420
280,45741.786000,366.489,-133.807,2.505,343.218,303.192,-34.381,-78.200,-419.710,356.420
281,45741.826000,248.108,112.600,-93.683,347.644,300.817,-26.500,-768.200,-285.710,393.420
282,45741.866000,288.555,-16.663,-75.648,354.699,292.283,-21.789,-800.200,25.290,568.420
283,45741.906000,253.040,36.860,-3.507,366.165,280.364,-14.196,396.800,504.290,580.420
284,45741.948000,248.108,-6.564,41.581,369.700,268.412,-7.621,-139.200,281.290,553.420
285,45741.995000,240.216,4.544,26.552,378.500,263.154,-9.750,-26.200,-81.710,464.420
286,45742.10000,231.337,42.919,28.556,386.422,261.368,-11.768,-183.200,-478.710,533.420
287,45742.50000,256.000,41.909,-24.548,389.041,249.077,-17.123,-245.200,-578.710,643.420
288,45742.89000,267.838,21.712,-75.648,400.475,235.113,-20.519,-297.200,-324.710,794.420
289,45742.136000,304.339,-1.515,-91.679,408.392,208.295,-18.385,-18.200,389.290,884.420
290,45742.173000,335.908,-4.544,-96.689,420.773,188.960,2.873,163.800,1099.290,802.420
291,45742.206000,379.314,86.343,-64.626,422.613,191.457,29.771,556.800,2287.290,649.420
292,45742.249000,221.472,162.083,-192.877,427.106,188.022,61.450,182.800,1137.290,43.420
293,45742.269000,166.227,243.882,-394.270,427.925,199.470,36.999,1257.800,-1224.710,-584.580
294,45742.309000,318.150,76.245,-205.902,429.488,206.124,-34.276,-496.200,-3272.710,-1043.580
295,45742.350000,353.665,-44.939,-154.802,421.406,227.864,-93.175,1572.800,-3325.710,-1634.580
296,45742.390000,265.865,-40.899,-56.611,395.584,238.048,-192.227,2241.800,-2987.710,-1323.580
297,45742.436000,226.405,-84.323,29.558,360.997,225.410,-270.201,1577.800,-2679.710,-749.580
298,45742.470000,166.227,-74.225,-1.503,330.030,223.196,-317.043,105.800,-1908.710,-384.580
299,45742.490000,193.850,-53.018,-12.524,315.874,225.170,-338.870,-282.200,-1073.710,-371.580
300,45742.530000,229.364,-44.939,-7.515,303.521,232.719,-347.601,-247.200,-208.710,-259.580
301,45742.570000,250.081,-30.801,59.616,317.619,225.002,-344.828,477.800,1129.290,-67.580
302,45742.616000,436.532,236.813,197.886,341.444,214.214,-328.220,1117.800,2163.290,-471.580
303,45742.649000,483.884,46.959,89.675,350.342,229.737,-300.877,-649.200,878.290,-469.580
304,45742.690000,318.150,107.550,-25.550,349.495,241.274,-291.569,-1233.200,340.290,-321.580
305,45742.729000,265.865,-63.116,-103.703,346.011,257.177,-281.134,-64.200,403.290,-561.580
306,45742.749000,240.216,45.949,-106.708,345.149,267.705,-276.823,-72.200,411.290,-425.580
307,45742.790000,262.906,116.639,-85.667,345.201,281.148,-261.492,-228.200,435.290,-388.580
308,45742.826000,246.135,83.314,-57.613,341.671,275.909,-262.666,73.800,326.290,-330.580
309,45742.869000,251.067,62.107,-65.628,339.053,294.248,-258.108,-312.200,-24.710,-202.580
310,45742.908000,225.418,96.442,-87.671,331.133,294.326,-255.152,-16.200,-56.710,-269.580
311,45742.954000,226.405,95.432,-78.654,325.837,295.946,-259.088,89.800,-86.710,-268.580
312,45742.990000,229.364,79.274,-82.661,328.481,305.439,-260.757,121.800,-140.710,-270.580
313,45743.14000,224.432,49.988,-90.677,320.543,307.925,-264.674,142.800,-174.710,-312.580
314,45743.54000,207.661,78.264,-92.681,311.715,306.014,-270.722,224.800,-229.710,-356.580
315,45743.88000,234.297,79.274,-103.703,300.227,310.819,-284.505,524.800,-213.710,-456.580
316,45743.128000,303.353,-124.718,-142.779,294.047,301.210,-286.823,1242.800,269.290,-457.580
317,45743.174000,304.339,-93.412,-117.730,290.411,271.662,-319.569,2737.800,521.290,-284.580
318,45743.213000,296.447,105.531,-52.603,279.751,246.646,-345.240,1296.800,-658.710,-213.580
319,45743.228000,332.948,60.087,-253.996,255.893,232.989,-367.605,906.800,-1263.710,135.420
320,45743.269000,264.879,89.373,-208.908,225.819,194.714,-401.712,1544.800,-1711.710,473.420
321,45743.310000,213.580,134.817,-12.524,208.134,177.674,-421.188,1400.800,-1414.710,955.420
322,45743.350000,116.902,50.998,-84.665,193.111,152.209,-431.993,650.800,-789.710,1144.420
323,45743.391000,61.657,161.073,167.828,215.103,114.005,-434.155,1431.800,1043.290,1257.420
324,45743.428000,48.832,162.083,15.530,271.591,116.825,-397.142,-470.200,2852.290,617.420
325,45743.468000,219.499,228.734,-86.669,314.879,140.466,-359.495,-2171.200,3479.290,-138.580
326,45743.514000,314.204,67.156,-299.084,360.081,204.380,-277.837,-3366.200,2909.290,-673.580
327,45743.530000,302.366,19.692,-335.155,382.294,230.390,-217.343,-1666.200,1426.290,284.420
328,45743.570000,132.686,-36.860,-438.356,378.778,245.116,-217.869,167.800,-699.710,-259.580
329,45743.610000,335.908,-96.442,-97.691,369.987,255.638,-213.584,-1470.200,-981.710,-30.580
330,45743.651000,319.137,-17.673,-62.622,365.557,263.137,-224.278,-900.200,-686.710,-24.580
331,45743.690000,485.857,-42.919,52.603,357.615,263.858,-229.245,462.800,-293.710,-263.580
332,45743.713000,453.303,-167.132,167.828,343.457,258.916,-250.303,1533.800,-307.710,-514.580
333,45743.750000,342.813,-54.028,0.501,318.678,240.553,-285.733,1322.800,-1426.710,-127.580
334,45743.791000,259.946,77.254,-179.851,307.202,250.650,-296.365,-995.200,-1449.710,379.420
335,45743.828000,104.077,-111.590,32.564,307.206,245.527,-293.552,-203.200,126.290,677.420
336,45743.868000,44.886,55.037,-52.603,343.367,220.973,-273.380,1245.800,2052.290,963.420
337,45743.909000,226.405,104.521,-151.796,383.124,199.729,-228.265,303.800,2463.290,985.420
338,45743.949000,235.283,150.974,-171.836,398.207,207.698,-192.210,-1009.200,2043.290,548.420
339,45743.969000,245.148,28.781,-166.826,415.069,207.214,-148.480,-1410.200,1197.290,612.420
340,45744.9000,224.432,37.870,-73.644,425.737,203.868,-113.800,-996.200,1225.290,619.420
341,45744.49000,213.580,113.609,-96.689,432.012,204.943,-76.011,-687.200,994.290,144.420
342,45744.89000,183.985,197.428,-144.783,431.161,215.583,-67.725,-1181.200,281.290,-318.580
343,45744.129000,256.000,43.929,-189.871,423.246,230.362,-66.278,-867.200,-778.710,-818.580
344,45744.169000,360.570,91.393,14.528,406.489,253.419,-78.492,994.800,-497.710,-1281.580
345,45744.190000,293.487,-283.266,6.513,392.403,277.628,-80.731,-2389.200,-1276.710,-581.580
346,45744.231000,260.933,83.314,-15.530,383.563,279.048,-91.636,340.800,-612.710,-671.580
347,45744.271000,265.865,58.067,-51.601,372.105,293.627,-97.157,-637.200,-701.710,-477.580
348,45744.311000,228.378,36.860,-69.636,363.298,301.404,-97.926,-187.200,-490.710,-289.580
349,45744.351000,216.540,66.146,-81.659,357.990,301.175,-105.895,-67.200,-329.710,-153.580
350,45744.398000,232.324,55.037,-52.603,352.697,307.134,-109.690,-103.200,-295.710,-168.580
351,45744.433000,197.796,101.491,-17.534,351.809,312.229,-113.500,-44.200,-547.710,-20.580
352,45744.451000,237.256,224.694,3.507,350.028,310.323,-119.525,-909.200,-1001.710,268.420
353,45744.504000,467.114,169.152,55.609,346.459,305.558,-134.586,853.800,-956.710,291.420
354,45744.529000,403.977,277.207,13.526,345.492,284.889,-160.085,1317.800,-171.710,268.420
355,45744.574000,41.927,191.369,-150.795,340.175,281.131,-170.154,351.800,-834.710,-2.580
356,45744.611000,114.929,118.659,38.575,330.488,289.776,-170.897,373.800,586.290,-630.580
357,45744.654000,86.320,284.276,58.614,327.960,310.724,-135.471,-1236.200,1338.290,-861.580
358,45744.674000,253.040,162.083,-85.667,311.502,346.231,-45.002,-3566.200,1824.290,-1370.580
359,45744.711000,324.069,-60.087,-134.763,297.578,360.846,12.028,-2369.200,1988.290,-971.580
360,45744.751000,274.744,-18.682,-226.943,287.107,366.136,45.928,625.800,1994.290,-309.580
361,45744.798000,173.133,-82.304,-276.039,277.383,363.215,34.879,1457.800,944.290,-251.580
362,45744.833000,187.931,265.089,9.519,287.924,359.469,24.861,481.800,-578.710,515.420
363,45744.873000,511.507,-291.345,-5.511,302.111,343.162,61.118,-4983.200,-1627.710,506.420
364,45744.911000,311.245,-67.156,-39.577,312.636,345.295,44.340,1506.800,-297.710,473.420
365,45744.934000,217.526,118.659,-17.534,322.293,341.520,33.326,-555.200,-480.710,367.420
366,45744.974000,314.204,-7.574,-56.611,327.591,332.173,39.991,-174.200,-220.710,400.420
367,45745.13000,244.162,145.925,-9.519,333.734,326.772,32.884,796.800,215.290,347.420
368,45745.53000,237.256,68.166,-4.509,338.124,314.567,30.516,-40.200,65.290,497.420
369,45745.94000,225.418,87.353,-2.505,346.039,307.544,27.335,297.800,113.290,475.420
370,45745.129000,215.553,73.215,-3.507,352.204,304.945,27.270,94.800,-53.710,515.420
371,45745.149000,228.378,59.077,9.519,361.862,291.707,18.927,391.800,-215.710,501.420
372,45745.189000,236.270,66.146,16.532,368.888,284.599,12.761,293.800,-408.710,523.420
373,45745.233000,249.094,28.781,-34.568,373.258,276.508,2.583,117.800,-680.710,558.420
374,45745.273000,265.865,40.899,-54.607,387.296,263.888,-14.662,198.800,-615.710,622.420
375,45745.311000,270.798,39.890,-73.644,391.662,246.277,-24.157,260.800,-333.710,705.420
376,45745.353000,285.595,38.880,-103.703,402.227,236.737,-24.433,493.800,350.290,868.420
377,45745.391000,390.166,92.402,-119.734,414.581,222.300,-13.939,1129.800,1448.290,887.420
378,45745.413000,187.931,233.783,-185.863,423.439,208.142,6.483,1093.800,1541.290,605.420
379,45745.459000,133.672,322.651,-503.483,424.294,223.400,-5.928,2804.800,-58.710,-676.580
380,45745.491000,209.634,415.558,-471.421,417.047,239.511,-79.903,1242.800,-2579.710,-1043.580
381,45745.531000,306.312,116.639,-301.088,399.236,242.762,-148.371,2995.800,-3522.710,-1441.580
382,45745.573000,288.555,46.959,-126.748,366.305,232.527,-263.995,3341.800,-3491.710,-1374.580
383,45745.611000,261.919,8.584,-15.530,321.097,202.155,-355.488,1998.800,-3274.710,-890.580
384,45745.631000,293.487,-62.107,7.515,265.425,194.377,-414.505,162.800,-2915.710,-629.580
385,45745.671000,249.094,-73.215,38.575,237.189,205.105,-433.114,-807.200,-1689.710,-523.580
386,45745.714000,246.135,-69.176,9.519,211.621,223.844,-444.504,-1195.200,-872.710,-280.580
387,45745.754000,272.771,-120.679,-35.569,208.121,236.134,-439.151,-824.200,10.290,50.420
388,45745.790000,283.622,-78.264,-22.544,227.506,223.269,-434.542,228.800,1063.290,390.420
389,45745.844000,295.461,27.771,10.521,252.169,202.568,-431.162,666.800,1580.290,404.420
390,45745.870000,239.229,281.247,-180.853,282.150,192.540,-418.483,-99.200,1521.290,87.420
391,45745.891000,236.270,201.467,-246.982,283.144,241.041,-390.095,-3198.200,41.290,-360.580
392,45745.931000,274.744,-6.564,-113.722,291.125,251.914,-373.829,207.800,920.290,-446.580
393,45745.973000,244.162,180.260,-104.704,297.322,250.492,-362.932,546.800,970.290,-903.580
394,45746.14000,257.973,110.580,-103.703,297.349,260.237,-355.665,-30.200,908.290,-461.580
395,45746.61000,271.784,95.432,-82.661,311.472,267.417,-347.443,467.800,943.290,-428.580
396,45746.94000,273.757,112.600,-70.638,318.548,267.704,-337.481,25.800,675.290,-188.580
397,45746.114000,259.946,40.899,-65.628,322.091,266.167,-330.569,540.800,485.290,-224.580
398,45746.150000,203.715,119.669,-69.636,324.713,257.349,-335.811,535.800,244.290,-252.580
399,45746.194000,188.917,65.136,-90.677,321.183,260.733,-338.692,451.800,108.290,-253.580
400,45746.233000,183.985,40.899,-100.697,314.991,257.032,-346.776,612.800,-143.710,-353.580
401,45746.279000,192.863,15.653,-111.718,305.258,253.158,-360.834,737.800,-256.710,-467.580
402,45746.316000,275.730,-23.732,-72.642,295.537,242.510,-369.155,1336.800,-294.710,-545.580
403,45746.350000,440.478,-230.753,-50.599,284.832,186.889,-403.763,4695.800,-68.710,-414.580
404,45746.371000,393.125,340.828,-219.930,256.488,113.838,-440.979,3159.800,-1241.710,-663.580
405,45746.413000,326.042,25.751,-252.994,209.747,109.853,-458.139,45.800,-1855.710,200.420
406,45746.460000,220.486,8.584,-25.550,190.336,100.066,-466.462,1413.800,-862.710,905.420
407,45746.493000,123.807,60.087,-13.526,187.648,58.259,-472.793,1038.800,85.290,1581.420
408,45746.532000,48.832,184.300,-26.552,207.056,41.308,-459.379,-238.200,1300.290,1493.420
409,45746.573000,10.358,160.063,-54.607,247.661,63.685,-435.684,-1355.200,2047.290,998.420
410,45746.593000,69.549,122.698,-108.712,299.802,106.711,-387.450,-2279.200,2508.290,465.420
411,45746.633000,194.836,142.895,-181.855,336.040,129.451,-350.848,-2314.200,3037.290,53.420
412,45746.674000,242.189,205.507,-235.961,378.556,178.298,-280.610,-2726.200,2636.290,-320.580
413,45746.713000,154.389,92.402,-345.174,400.772,216.403,-221.709,-2353.200,1672.290,-149.580
414,45746.751000,37.981,99.471,-503.483,401.709,230.743,-205.353,-607.200,-86.710,-284.580
415,45746.791000,406.936,42.919,213.918,395.522,237.429,-214.093,-483.200,-697.710,-461.580
416,45746.831000,511.507,-140.876,162.818,383.110,227.167,-239.290,1416.800,-860.710,-201.580
417,45746.851000,511.507,-72.205,139.773,361.881,225.439,-269.204,40.800,-1612.710,184.420
418,45746.896000,329.002,-34.840,-105.706,340.699,229.341,-284.040,-1346.200,-1703.710,522.420
419,45746.934000,193.850,-190.359,-17.534,331.897,235.439,-282.878,-915.200,-723.710,659.420
420,45746.974000,99.145,-77.254,16.532,346.865,212.966,-280.580,1549.800,1386.290,858.420
421,45747.15000,97.171,64.126,-23.546,378.630,190.229,-257.384,1299.800,2202.290,846.420
422,45747.51000,150.443,116.639,-146.787,405.198,183.873,-206.863,-58.200,2431.290,628.420
423,45747.71000,186.944,141.886,-85.667,418.503,177.029,-173.281,-1542.200,1817.290,780.420
424,45747.111000,256.000,118.659,-99.695,434.523,180.382,-116.520,-1705.200,1868.290,754.420
425,45747.153000,201.742,203.487,-160.814,444.368,189.666,-64.552,-929.200,1827.290,91.420
426,45747.193000,237.256,178.241,-126.748,437.442,202.071,-24.452,-2092.200,723.290,-640.580
427,45747.236000,321.110,-141.886,-311.108,429.529,219.453,-22.920,-2102.200,-1000.710,-1001.580
428,45747.273000,497.696,110.580,226.943,416.290,239.013,-36.230,1795.800,-218.710,-1626.580
429,45747.313000,307.299,13.633,104.704,402.190,270.837,-45.172,-2984.200,-1495.710,-1103.580
430,45747.339000,321.110,-43.929,5.511,390.745,284.689,-45.752,-365.200,-749.710,-724.580
431,45747.374000,224.432,106.540,-37.573,377.518,294.030,-52.442,-598.200,-683.710,-584.580
432,45747.421000,225.418,31.811,-48.595,373.104,297.386,-56.320,-610.200,-559.710,-376.580
433,45747.454000,283.622,18.682,-19.538,366.056,304.269,-58.105,-354.200,-440.710,-275.580
434,45747.494000,291.514,41.909,-9.519,361.646,312.833,-61.813,-334.200,-489.710,-242.580
435,45747.534000,232.324,66.146,-17.534,358.996,317.926,-65.628,-414.200,-642.710,-196.580
436,45747.558000,214.566,108.560,3.507,353.707,321.338,-67.520,-840.200,-940.710,-78.580
437,45747.591000,357.611,124.718,60.618,350.151,319.290,-78.521,43.800,-1219.710,-77.580
438,45747.633000,511.507,143.905,97.691,341.246,320.061,-112.286,614.800,-1540.710,49.420
439,45747.671000,511.507,220.655,147.789,334.106,309.663,-142.436,1649.800,-525.710,212.420
440,45747.715000,-29.102,140.876,-227.945,324.350,301.253,-163.593,687.800,-874.710,58.420
441,45747.755000,16.277,101.491,-14.528,316.401,292.426,-168.870,823.800,367.290,-542.580
442,45747.791000,-5.426,206.517,25.550,310.324,314.854,-142.344,-970.200,1190.290,-1066.580
443,45747.815000,191.877,90.383,-83.663,294.750,354.701,-51.732,-3782.200,2090.290,-1477.580
444,45747.851000,310.258,-102.501,-111.718,272.953,370.714,24.185,-2182.200,2296.290,-1002.580
445,45747.895000,332.948,-152.994,-243.977,265.969,373.065,46.085,453.800,2523.290,-82.580
446,45747.934000,260.933,-12.623,-250.990,261.530,376.167,33.262,1579.800,1176.290,361.420
447,45747.974000,152.416,425.657,12.524,280.871,360.276,22.879,144.800,-653.710,838.420
448,45748.13000,453.303,-93.412,268.023,303.093,330.373,99.433,-7018.200,-2028.710,849.420
449,45748.33000,452.316,-131.787,-24.548,303.054,335.159,84.693,3435.800,374.290,209.420
450,45748.78000,231.337,208.536,-5.511,302.953,343.636,47.234,1482.800,113.290,147.420
451,45748.115000,302.366,11.613,-20.540,310.037,335.384,61.884,-2168.200,-628.710,265.420
452,45748.160000,209.634,129.767,-22.544,310.879,335.858,48.000,1634.800,445.290,259.420
453,45748.195000,236.270,96.442,11.523,310.876,328.074,48.741,47.800,200.290,385.420
454,45748.234000,248.108,45.949,10.521,320.575,321.278,53.516,-331.200,64.290,418.420
455,45748.273000,215.553,101.491,48.595,328.494,316.020,51.385,630.800,-15.710,455.420
456,45748.293000,205.688,72.205,31.562,335.506,308.771,40.249,195.800,-351.710,491.420
457,45748.338000,248.108,92.402,50.599,346.904,296.177,23.989,310.800,-599.710,522.420
458,45748.373000,276.717,29.791,-39.577,353.920,288.984,14.842,130.800,-822.710,637.420
459,45748.413000,332.948,1.515,-98.693,363.572,286.021,1.868,435.800,-416.710,669.420
460,45748.453000,381.287,8.584,-94.685,371.474,273.706,-4.465,1146.800,494.290,599.420
461,45748.494000,182.012,184.300,-117.730,378.489,263.909,-13.697,1097.800,473.290,558.420
462,45748.514000,135.645,348.907,-503.483,379.306,260.686,-35.645,2356.800,-715.710,-253.580
463,45748.554000,215.553,349.917,-503.483,364.911,260.294,-140.961,4106.800,-2895.710,-1467.580
464,45748.594000,196.809,145.925,-195.883,324.015,234.176,-266.063,4724.800,-3620.710,-1427.580
465,45748.645000,173.133,105.531,-92.681,275.242,189.603,-368.951,3430.800,-3638.710,-856.580
466,45748.672000,210.620,78.264,20.540,236.353,171.089,-409.396,977.800,-2912.710,-712.580
467,45748.714000,161.295,-15.653,337.159,192.263,197.345,-430.531,-2157.200,-1324.710,-1025.580
468,45748.754000,326.042,-12.623,375.233,214.396,250.145,-403.922,-2091.200,1439.290,-800.580
469,45748.774000,511.507,-236.813,-503.483,265.659,289.754,-353.816,-1880.200,1454.290,1105.420
470,45748.814000,360.570,362.036,19.538,306.225,278.139,-336.189,497.800,1923.290,-97.580
471,45748.853000,384.247,-84.323,37.573,321.267,294.309,-316.749,-586.200,1375.290,-409.580
472,45748.896000,294.474,58.067,1.503,338.036,293.763,-305.790,-284.200,547.290,32.420
473,45748.936000,276.717,89.373,-24.548,341.608,305.444,-291.498,-1141.200,-98.710,299.420
474,45748.976000,256.987,47.968,-93.683,341.599,305.359,-294.480,3.800,-139.710,-6.580
475,45748.995000,238.243,61.097,-109.714,339.842,307.122,-293.435,-116.200,-60.710,148.420
476,45749.41000,249.094,68.166,-78.654,338.964,303.706,-291.563,-12.200,-121.710,92.420
477,45749.74000,201.742,81.294,-136.767,337.188,303.564,-296.538,-81.200,-106.710,196.420
478,45749.114000,209.634,102.501,-130.755,346.906,298.673,-285.743,-228.200,118.290,260.420
479,45749.155000,135.645,79.274,-129.753,346.013,294.248,-288.868,-19.200,171.290,136.420
480,45749.195000,295.461,24.742,-101.699,353.088,297.110,-279.816,-409.200,159.290,226.420
481,45749.235000,225.418,37.870,-66.630,356.637,305.122,-272.593,-563.200,21.290,143.420
482,45749.255000,219.499,144.915,-89.675,356.651,308.707,-268.505,-188.200,75.290,-12.580
483,45749.294000,225.418,75.235,-118.732,355.759,296.526,-269.896,430.800,241.290,-35.580
484,45749.340000,223.445,60.087,-106.708,361.036,297.313,-272.833,189.800,110.290,-52.580
485,45749.374000,157.349,125.728,-78.654,363.670,292.051,-274.981,581.800,242.290,-101.580
486,45749.414000,203.715,79.274,-63.624,368.078,288.638,-273.092,131.800,217.290,60.420
487,45749.454000,222.459,16.663,-30.560,362.774,291.041,-279.981,219.800,-485.710,16.420
488,45749.476000,281.649,16.663,-126.748,356.603,296.160,-282.814,-364.200,-599.710,-12.580
489,45749.519000,291.514,89.373,-107.710,349.522,289.798,-292.973,355.800,-258.710,-7.580
490,45749.554000,218.513,151.984,-84.665,344.189,279.851,-307.215,928.800,-219.710,-188.580
491,45749.594000,143.538,114.619,-182.857,337.126,273.658,-311.410,-87.200,-180.710,-54.580
492,45749.636000,156.362,30.801,-173.840,337.147,279.035,-305.278,-223.200,90.290,66.420
493,45749.676000,158.335,57.057,-139.773,340.703,287.971,-296.040,-323.200,289.290,25.420
494,45749.718000,212.593,93.412,-85.667,342.476,291.528,-292.940,-97.200,342.290,-150.580
495,45749.734000,209.634,39.890,-46.591,343.354,291.501,-293.931,111.800,83.290,-205.580
496,45749.775000,443.437,-8.584,-12.524,341.593,293.236,-293.880,149.800,-205.710,-193.580
497,45749.816000,455.276,-113.609,-31.562,333.623,283.344,-306.142,1053.800,76.290,-418.580
498,45749.859000,298.420,-42.919,-62.622,318.557,264.344,-333.618,872.800,-843.710,20.420
499,45749.900000,196.809,61.097,-212.916,294.785,283.423,-333.075,-2050.200,-1396.710,83.420
500,45749.936000,141.565,-166.122,-271.029,284.252,300.161,-323.629,-1532.200,-914.710,532.420
501,45749.956000,171.160,-149.964,-123.742,292.993,265.025,-339.636,2338.800,538.290,1549.420
502,45749.996000,162.281,-45.949,-67.632,326.390,196.196,-351.692,1968.800,1150.290,2273.420
503,45750.38000,175.106,79.274,-2.505,361.667,157.837,-328.992,-112.200,1316.290,2080.420
504,45750.78000,241.202,71.195,37.573,390.839,145.069,-290.586,-1015.200,1851.290,1470.420
505,45750.115000,267.838,98.462,-19.538,414.704,133.808,-260.092,-1353.200,2208.290,1039.420
506,45750.155000,268.825,249.941,-119.734,438.639,140.470,-209.157,-1327.200,2021.290,669.420
507,45750.195000,204.701,219.645,-231.953,442.260,157.809,-178.793,-2433.200,188.290,240.420
508,45750.220000,292.501,120.679,-85.667,436.107,172.589,-177.340,-653.200,-274.710,-396.580
509,45750.254000,439.491,151.984,57.613,429.047,185.378,-184.892,1386.800,271.290,-1312.580
510,45750.294000,269.811,-156.024,-71.640,413.190,209.502,-190.118,-1237.200,-758.710,-1005.580
511,45750.335000,231.337,98.462,-108.712,399.094,231.022,-195.422,473.800,-215.710,-1012.580
512,45750.375000,240.216,93.412,-100.697,393.803,235.274,-198.280,-54.200,57.290,-612.580
513,45750.416000,246.135,43.929,-88.673,391.181,244.093,-193.038,14.800,474.290,-218.580
514,45750.436000,242.189,28.781,-57.613,396.502,249.615,-181.919,31.800,540.290,-75.580
515,45750.476000,251.067,17.673,-21.542,396.536,253.396,-170.873,-232.200,396.290,-136.580
516,45750.516000,218.513,55.037,-24.548,398.314,256.143,-165.813,-67.200,216.290,-186.580
517,45750.556000,254.027,17.673,-8.517,395.679,263.113,-164.602,-391.200,-48.710,-175.580
518,45750.596000,267.838,-6.564,-4.509,387.751,263.975,-164.600,-115.200,-122.710,-328.580
519,45750.636000,259.946,-13.633,25.550,377.162,270.686,-172.360,164.800,-642.710,-419.580
520,45750.676000,404.963,30.801,60.618,366.509,267.286,-200.308,795.800,-1332.710,-276.580
521,45750.698000,444.424,81.294,-19.538,346.138,264.464,-238.199,998.800,-1464.710,-53.580
522,45750.738000,124.794,100.481,80.658,339.952,269.443,-246.001,-179.200,-1008.710,453.420
523,45750.779000,149.457,73.215,158.810,347.001,264.296,-244.159,685.800,700.290,315.420
524,45750.819000,109.010,253.980,123.742,370.016,256.788,-203.617,440.800,2673.290,-101.580
525,45750.855000,154.389,287.306,-117.730,375.499,282.002,-140.222,-229.200,3051.290,-1078.580
526,45750.896000,327.029,-16.663,-127.750,365.111,308.800,-81.793,-2454.200,2204.290,-1783.580
527,45750.924000,331.961,-53.018,-219.930,351.144,322.125,-39.699,-274.200,1203.290,-230.580
528,45750.956000,140.578,-21.712,-260.008,346.739,322.122,-39.714,540.800,245.290,-337.580
529,45750.996000,190.890,-128.757,-158.810,344.090,328.951,-43.472,132.800,-311.710,-276.580
530,45751.45000,431.599,126.738,144.783,339.703,334.297,-38.348,-2091.200,-779.710,-138.580
531,45751.79000,250.081,-64.126,-25.550,336.178,332.558,-38.416,-17.200,-650.710,-57.580
532,45751.120000,244.162,106.540,-25.550,335.244,336.334,-58.156,749.800,-447.710,-157.580
533,45751.156000,247.121,75.235,-52.603,334.337,336.080,-67.104,-99.200,-363.710,-46.580
534,45751.175000,241.202,93.412,-47.593,331.684,329.946,-69.298,87.800,-109.710,68.420
535,45751.219000,276.717,32.821,-10.521,336.091,332.553,-69.199,300.800,-40.710,113.420
536,45751.260000,249.094,85.333,45.589,333.413,327.033,-80.309,460.800,-126.710,45.420
537,45751.296000,219.499,87.353,-14.528,334.275,324.261,-86.355,22.800,-308.710,68.420
538,45751.339000,214.566,111.590,-42.583,338.675,329.387,-89.153,22.800,-256.710,100.420
539,45751.376000,242.189,106.540,-26.552,336.021,322.385,-91.375,7.800,10.290,136.420
540,45751.399000,255.013,67.156,-74.646,338.667,318.103,-89.519,-33.200,278.290,176.420
541,45751.439000,243.175,74.225,-39.577,343.084,313.068,-83.711,281.800,598.290,198.420
542,45751.479000,257.973,70.185,-14.528,350.156,311.590,-74.799,404.800,753.290,168.420
543,45751.519000,237.256,64.126,15.530,357.225,312.661,-67.791,445.800,751.290,182.420
544,45751.555000,222.459,93.412,22.544,360.758,310.172,-63.888,314.800,651.290,164.420
545,45751.596000,219.499,94.422,35.569,366.929,305.053,-61.056,200.800,401.290,192.420
546,45751.637000,219.499,85.333,79.656,367.810,300.742,-60.200,93.800,65.290,195.420
547,45751.659000,235.283,73.215,46.591,369.562,298.922,-63.232,-238.200,-335.710,218.420
548,45751.700000,228.378,103.511,-6.513,371.324,298.924,-63.226,-256.200,-507.710,199.420
549,45751.735000,241.202,76.245,-46.591,376.594,285.851,-65.620,-502.200,-406.710,310.420
550,45751.775000,259.946,28.781,-36.571,381.887,280.760,-61.796,-475.200,-145.710,557.420
551,45751.815000,283.622,21.712,-42.583,391.614,272.509,-47.138,-511.200,232.290,633.420
552,45751.856000,269.811,18.682,-38.575,394.263,257.924,-41.644,-229.200,574.290,598.420
553,45751.876000,291.514,31.811,-45.589,401.359,254.097,-23.872,-432.200,722.290,396.420
554,45751.915000,259.946,90.383,-42.583,408.463,246.909,-2.237,-891.200,574.290,414.420
555,45751.961000,259.946,163.093,-74.646,412.895,241.146,8.513,-1073.200,-112.710,140.420
556,45752.1000,193.850,177.231,-341.166,416.364,244.058,-11.241,-387.200,-2206.710,-753.580
557,45752.40000,281.649,115.629,-231.953,409.137,261.233,-78.230,1090.800,-2791.710,-1119.580
558,45752.85000,268.825,-2.525,-54.607,390.412,272.770,-160.334,1639.800,-2713.710,-1182.580
559,45752.118000,226.405,-21.712,80.658,368.199,269.158,-226.060,1595.800,-1926.710,-737.580
560,45752.138000,188.917,-0.505,144.783,355.768,263.012,-259.068,689.800,-899.710,-489.580
561,45752.178000,183.985,16.663,222.935,358.423,264.863,-255.027,-388.200,435.290,-370.580
562,45752.219000,422.721,-37.870,-93.683,375.270,274.569,-218.911,-1152.200,1202.290,-123.580
563,45752.260000,325.056,93.412,46.591,383.281,282.279,-191.824,-678.200,826.290,-132.580
564,45752.300000,325.056,-0.505,30.560,385.089,302.554,-180.237,-678.200,268.290,-156.580
565,45752.336000,213.580,105.531,-48.595,381.569,304.316,-179.198,-90.200,-132.710,-208.580
566,45752.356000,209.634,130.777,-76.650,378.927,306.050,-179.151,118.800,51.290,-26.580
567,45752.400000,211.607,112.600,-91.679,382.453,304.345,-178.202,-81.200,115.290,175.420
568,45752.440000,248.108,71.195,-58.614,391.273,292.396,-171.610,-61.200,251.290,338.420
569,45752.481000,252.054,26.761,-45.589,395.682,290.720,-169.664,79.800,287.290,329.420
570,45752.516000,244.162,56.047,-30.560,401.850,283.837,-167.882,-13.200,206.290,211.420
571,45752.559000,226.405,65.136,-24.548,406.258,281.292,-165.965,69.800,34.290,201.420
572,45752.600000,244.162,57.057,-10.521,408.018,282.133,-166.925,272.800,-99.710,198.420
573,45752.620000,306.312,36.860,32.564,405.345,275.802,-176.076,522.800,-538.710,224.420
574,45752.660000,369.449,62.107,-0.501,399.967,258.517,-204.457,890.800,-912.710,194.420
575,45752.696000,271.784,64.126,-90.677,393.727,247.449,-227.675,564.800,-886.710,171.420
576,45752.740000,182.012,68.166,-123.742,382.242,248.839,-239.583,178.800,-558.710,85.420
577,45752.780000,149.457,21.712,-111.718,380.490,250.658,-236.551,18.800,78.290,33.420
578,45752.819000,100.131,1.515,-46.591,386.676,242.236,-227.867,143.800,771.290,72.420
579,45752.838000,8.385,106.540,-503.483,395.538,244.485,-209.892,-224.200,972.290,-160.580
580,45752.876000,227.391,-52.008,-61.620,396.454,261.203,-201.403,-898.200,309.290,-528.580
581,45752.919000,402.004,-5.554,45.589,393.798,262.796,-206.324,797.800,215.290,-331.580
582,45752.959000,438.505,-6.564,74.646,385.838,265.925,-218.164,320.800,-645.710,-340.580
583,45753.0,449.356,-151.984,27.554,369.913,261.793,-241.188,926.800,-812.710,-61.580
584,45753.40000,197.796,-4.544,-99.695,353.124,254.386,-257.370,-116.200,-984.710,192.420
585,45753.79000,204.701,-145.925,-158.810,347.867,262.420,-249.182,-2181.200,-910.710,1024.420
586,45753.99000,198.782,-156.024,-8.517,356.661,245.906,-250.683,1243.800,380.290,1855.420
587,45753.139000,125.780,1.515,23.546,385.703,193.932,-249.297,1552.800,1271.290,1958.420
588,45753.180000,174.119,154.004,83.663,414.834,156.634,-219.632,792.800,2362.290,1342.420
589,45753.222000,238.243,252.970,75.648,442.316,145.437,-156.356,-658.200,2841.290,710.420
590,45753.264000,393.125,158.043,-10.521,454.003,160.691,-77.377,-655.200,3266.290,-229.580
591,45753.297000,211.607,235.803,-174.841,454.115,179.036,-42.026,1109.800,2428.290,-1193.580
592,45753.344000,229.364,50.998,-235.961,436.589,204.928,-15.425,1930.800,1307.290,-993.580
593,45753.357000,213.580,29.791,-307.100,425.112,225.357,-28.700,437.800,-721.710,-873.580
594,45753.400000,417.788,0.505,37.573,416.331,245.456,-23.111,-2409.200,-857.710,-640.580
595,45753.440000,275.730,-70.185,7.515,409.293,269.670,-25.327,-2264.200,-1374.710,-1036.580
596,45753.480000,268.825,88.363,-31.562,394.317,281.727,-27.963,-659.200,-937.710,-773.580
597,45753.521000,228.378,66.146,-1.503,387.228,286.479,-43.719,384.800,-365.710,-397.580
598,45753.557000,260.933,69.176,12.524,380.179,300.249,-47.267,-227.200,-298.710,-357.580
599,45753.577000,250.081,44.939,13.526,378.426,300.332,-44.291,-825.200,-472.710,-297.580
600,45753.619000,258.960,35.850,19.538,375.771,299.349,-48.303,-34.200,-362.710,-190.580
601,45753.657000,216.540,112.600,10.521,367.820,303.430,-57.133,-27.200,-418.710,-159.580
602,45753.697000,235.283,72.205,-1.503,366.957,312.222,-52.879,-821.200,-649.710,-61.580
603,45753.751000,228.378,74.225,22.544,366.037,305.808,-65.006,-270.200,-809.710,64.420
604,45753.777000,224.432,105.531,91.679,365.131,309.865,-74.807,-655.200,-1481.710,225.420
605,45753.818000,438.505,29.791,46.591,360.664,301.487,-94.953,-953.200,-2171.710,608.420
606,45753.841000,359.584,239.842,30.560,363.207,281.548,-125.382,282.800,-1687.710,788.420
607,45753.882000,137.618,198.438,-91.679,356.986,272.384,-142.580,-593.200,-1402.710,674.420
608,45753.919000,120.848,224.694,84.665,356.146,285.713,-131.227,-1042.200,-111.710,-566.580
609,45753.960000,61.657,209.546,47.593,339.581,310.686,-75.855,-2710.200,1600.290,-1375.580
610,45753.999000,211.607,88.363,-102.701,314.302,344.338,10.553,-2503.200,2559.290,-1683.580
611,45754.42000,388.193,-134.817,-208.908,298.563,344.642,52.218,1410.800,3084.290,-315.580
612,45754.57000,94.212,90.383,-303.092,289.766,353.372,54.459,1731.800,1851.290,-240.580
613,45754.97000,83.360,-67.156,-317.119,288.907,344.973,64.114,-1049.200,-333.710,104.420
614,45754.139000,420.748,513.515,233.957,296.017,342.154,86.884,-4022.200,-1240.710,99.420
615,45754.179000,235.283,-87.353,-46.591,308.300,331.324,71.677,1215.800,-482.710,375.420
616,45754.219000,341.827,30.801,-13.526,317.092,330.294,65.714,-232.200,-679.710,327.420
617,45754.257000,259.946,46.959,-59.616,320.600,319.796,62.405,301.800,-185.710,272.420
618,45754.281000,248.108,130.777,-29.558,328.513,318.793,57.433,804.800,345.290,422.420
619,45754.321000,235.283,114.619,-0.501,334.686,315.410,60.322,69.800,418.290,519.420
620,45754.361000,238.243,55.037,22.544,340.872,303.544,69.887,-111.200,366.290,505.420
621,45754.403000,228.378,54.028,52.603,348.806,299.294,72.753,215.800,216.290,512.420
622,45754.440000,212.593,80.284,53.605,355.827,289.554,65.509,320.800,-48.710,533.420
623,45754.481000,233.310,54.028,44.587,366.373,278.977,59.241,121.800,-485.710,620.420
624,45754.521000,241.202,56.047,23.546,376.899,267.334,45.988,3.800,-696.710,690.420
625,45754.541000,266.852,25.751,-32.564,383.030,256.641,35.731,-50.200,-674.710,787.420
626,45754.580000,306.312,13.633,-91.679,395.337,235.705,31.119,270.800,-70.710,925.420
627,45754.621000,385.233,65.136,-73.644,410.322,221.158,37.646,807.800,1019.290,884.420
628,45754.661000,190.890,256.000,-157.808,411.254,217.353,56.393,1164.800,1554.290,730.420
629,45754.701000,214.566,197.428,-328.141,412.994,215.422,49.385,1847.800,-302.710,-474.580
630,45754.741000,183.985,333.759,-439.358,413.728,237.224,-7.499,1346.800,-2423.710,-784.580
631,45754.781000,313.218,133.807,-272.031,408.186,250.197,-100.437,2398.800,-3354.710,-1000.580
632,45754.801000,256.987,53.018,-123.742,379.676,248.729,-212.784,2613.800,-3614.710,-1257.580
633,45754.841000,217.526,77.254,-63.624,354.803,238.059,-282.719,2076.800,-3318.710,-1128.580
634,45754.881000,229.364,49.988,-19.538,306.152,231.741,-351.597,184.800,-3105.710,-989.580
635,45754.923000,227.391,-11.613,21.542,261.146,254.214,-383.780,-1379.200,-1954.710,-977.580
636,45754.962000,198.782,26.761,284.055,245.328,291.639,-378.645,-1871.200,-213.710,-694.580
637,45755.1000,511.507,-360.016,-91.679,282.391,300.042,-358.393,-1519.200,1528.290,9.420
638,45755.35000,321.110,6.564,27.554,298.275,298.599,-348.459,-1106.200,1345.290,-682.580
639,45755.61000,445.410,84.323,-48.595,300.996,316.609,-325.027,-771.200,721.290,-51.580
640,45755.100000,263.892,211.566,-39.577,308.933,316.699,-322.020,583.800,759.290,-433.580
641,45755.140000,210.620,238.832,-64.626,306.292,318.433,-321.972,195.800,248.290,-198.580
642,45755.180000,219.499,10.604,-110.716,306.278,310.536,-325.208,335.800,235.290,-190.580
643,45755.221000,227.391,78.264,-118.732,307.184,318.546,-317.994,-183.200,130.290,-144.580
644,45755.261000,233.310,27.771,-97.691,304.532,314.148,-320.131,494.800,225.290,-277.580
645,45755.281000,252.054,-8.584,-97.691,301.872,308.797,-325.278,761.800,228.290,-348.580
646,45755.329000,362.543,-293.365,-51.601,304.454,292.696,-342.673,3135.800,425.290,-228.580
647,45755.361000,387.206,58.067,-14.528,295.481,230.747,-386.418,3531.800,-259.710,-209.580
648,45755.403000,344.786,299.424,-291.068,265.419,194.320,-416.493,1461.800,-1360.710,179.420
649,45755.443000,304.339,27.771,-164.822,222.183,179.809,-437.955,380.800,-1861.710,918.420
650,45755.482000,137.618,156.024,15.530,207.147,144.740,-451.057,1188.800,-765.710,1317.420
651,45755.502000,54.751,26.761,-94.685,211.551,136.988,-449.308,-36.200,52.290,1581.420
652,45755.543000,20.224,163.093,67.632,249.465,108.907,-431.231,731.800,2027.290,1293.420
653,45755.582000,-27.129,152.994,-31.562,305.103,123.235,-385.904,-1240.200,3031.290,578.420
654,45755.624000,164.254,244.892,-70.638,368.789,166.330,-304.862,-1609.200,3829.290,-28.580
655,45755.660000,302.366,140.876,-257.002,392.794,210.739,-237.806,-4151.200,3275.290,-790.580
656,45755.701000,328.015,0.505,-368.219,411.586,247.252,-143.220,-2605.200,2333.290,103.420
657,45755.745000,239.229,114.619,-409.299,413.496,259.918,-94.147,-1420.200,1051.290,-111.580
658,45755.760000,418.775,-92.402,21.542,409.961,267.558,-99.868,449.800,-467.710,-343.580
659,45755.800000,243.175,84.323,-130.755,408.214,280.633,-97.463,-459.200,-401.710,-514.580
660,45755.844000,361.557,24.742,-38.575,403.818,285.026,-95.349,-1460.200,-752.710,-216.580
661,45755.885000,332.948,-28.781,-46.591,398.546,295.495,-93.040,-87.200,-207.710,-337.580
662,45755.926000,276.717,83.314,-29.558,393.256,301.482,-95.842,-188.200,-142.710,-180.580
663,45755.960000,254.027,78.264,-33.566,392.382,298.962,-92.947,-273.200,-114.710,-29.580
664,45755.980000,225.418,63.116,-40.579,391.489,290.225,-95.220,33.800,8.290,-25.580
665,45756.21000,218.513,62.107,-36.571,389.748,306.800,-91.708,-125.200,-45.710,-61.580
666,45756.67000,244.162,13.633,-15.530,386.219,303.298,-92.826,-38.200,-213.710,-114.580
667,45756.101000,324.069,-0.505,20.540,383.546,301.278,-102.830,704.800,37.290,-294.580
668,45756.143000,325.056,-21.712,69.636,375.568,311.125,-122.396,1149.800,-808.710,-235.580
669,45756.182000,472.046,38.880,59.616,359.592,307.354,-163.282,684.800,-1607.710,-342.580
670,45756.224000,346.759,-40.899,-48.595,337.482,308.201,-194.109,368.800,-1230.710,-133.580
671,45756.244000,190.890,-104.521,64.626,329.518,298.366,-204.383,720.800,12.290,130.420
672,45756.282000,182.998,-79.274,61.620,338.326,281.993,-200.914,1943.800,1886.290,399.420
673,45756.321000,182.998,-21.712,-5.511,362.161,263.534,-179.591,1763.800,2609.290,614.420
674,45756.362000,197.796,-12.623,-58.614,378.116,247.284,-141.341,1058.800,2814.290,489.420
675,45756.404000,167.214,67.156,-191.875,391.441,244.948,-101.654,-143.200,2143.290,334.420
676,45756.444000,293.487,21.712,-127.750,396.805,243.137,-73.892,-771.200,1498.290,826.420
677,45756.460000,239.229,110.580,-178.849,410.098,220.668,-40.817,-1550.200,534.290,1289.420
678,45756.502000,286.582,179.250,-244.978,417.158,207.011,-33.293,-873.200,-913.710,375.420
679,45756.542000,383.260,220.655,221.933,409.257,220.194,-26.933,-3428.200,-984.710,-361.580
680,45756.582000,319.137,160.063,43.585,397.790,235.556,-35.408,1334.800,-31.710,-1121.580
681,45756.622000,177.079,-327.700,-24.548,394.281,252.074,-33.890,-2103.200,-877.710,-336.580
682,45756.664000,297.434,70.185,-4.509,391.650,256.496,-30.776,-1517.200,-758.710,-148.580
683,45756.700000,248.108,117.649,-33.566,387.248,263.409,-31.559,-838.200,-505.710,-272.580
684,45756.720000,200.755,111.590,-48.595,382.844,268.586,-32.398,-259.200,-420.710,-214.580
685,45756.760000,242.189,19.692,-50.599,379.301,264.942,-38.486,-273.200,-342.710,-135.580
686,45756.801000,269.811,-4.544,-38.575,377.544,264.997,-36.504,-353.200,-231.710,-31.580
687,45756.841000,207.661,89.373,-16.532,381.073,267.632,-35.414,-233.200,-188.710,162.420
688,45756.882000,199.769,162.083,15.530,380.170,263.962,-42.487,-169.200,-435.710,252.420
689,45756.924000,345.773,218.635,104.704,383.680,257.804,-45.654,-268.200,-808.710,476.420
690,45756.943000,436.532,108.560,135.765,380.076,255.277,-73.551,1428.800,-764.710,-284.580
691,45756.982000,206.674,231.763,-143.781,372.897,246.220,-117.560,2594.800,-869.710,-233.580
692,45757.22000,116.902,350.927,-61.620,354.349,256.927,-137.132,608.800,-838.710,-795.580
693,45757.61000,36.008,293.365,-12.524,329.800,302.022,-105.957,-2628.200,-23.710,-2211.580
694,45757.102000,131.699,84.323,-84.665,309.692,330.239,-58.436,-3773.200,944.290,-2427.580
695,45757.144000,335.908,-238.832,-103.703,292.269,363.193,3.150,32.800,1913.290,-1044.580
696,45757.182000,249.094,-102.501,-265.018,277.337,373.096,16.333,1257.800,2044.290,-783.580
697,45757.204000,226.405,-94.422,-209.910,273.809,379.085,13.537,996.800,877.290,-257.580
698,45757.246000,276.717,33.830,-68.634,277.334,377.380,14.486,-1732.200,-920.710,741.420
699,45757.285000,314.204,137.846,102.701,301.225,359.484,55.687,-3243.200,-1122.710,363.420
700,45757.324000,310.258,1.515,-14.528,308.216,351.170,37.566,1726.800,228.290,313.420
701,45757.365000,294.474,45.949,-18.536,317.016,345.912,35.438,-619.200,-239.710,246.420
702,45757.405000,236.270,81.294,-29.558,316.133,346.752,34.469,463.800,141.290,243.420
703,45757.425000,239.229,137.846,-1.503,324.934,346.673,31.516,695.800,411.290,355.420
704,45757.471000,221.472,105.531,13.526,330.225,338.110,35.227,-156.200,244.290,469.420
705,45757.504000,225.418,81.294,26.552,337.262,331.983,33.064,439.800,210.290,450.420
706,45757.544000,206.674,83.314,26.552,341.655,324.118,30.837,324.800,-21.710,475.420
707,45757.599000,241.202,70.185,16.532,352.192,315.164,20.651,327.800,-295.710,445.420
708,45757.621000,230.351,67.156,8.517,361.843,311.333,7.648,207.800,-455.710,441.420
709,45757.662000,234.297,77.254,-1.503,367.980,298.120,0.288,-61.200,-636.710,496.420
710,45757.682000,290.528,37.870,-43.585,379.394,288.270,-10.918,254.800,-405.710,636.420
711,45757.722000,279.676,53.018,-42.583,381.146,285.583,-13.978,171.800,-164.710,714.420
712,45757.762000,329.002,57.057,-77.652,391.700,266.467,-15.558,350.800,238.290,769.420
713,45757.804000,237.256,111.590,-148.791,400.531,253.763,-5.019,1172.800,1577.290,441.420
714,45757.844000,117.888,213.586,-279.045,398.772,257.234,-4.912,884.800,594.290,-232.580
715,45757.891000,130.713,404.450,-503.483,394.268,268.312,-42.300,2396.800,-1507.710,-864.580
716,45757.905000,253.040,186.320,-431.342,375.521,285.671,-133.152,2387.800,-3809.710,-1424.580
717,45757.944000,257.973,59.077,-188.869,339.091,288.594,-243.396,2573.800,-3943.710,-1393.580
718,45757.985000,214.566,-28.781,-26.552,285.954,268.548,-337.558,2153.800,-3579.710,-1089.580
719,45758.25000,198.782,-75.235,105.706,259.389,256.845,-382.707,797.800,-2181.710,-518.580
720,45758.61000,205.688,-81.294,119.734,247.863,252.661,-407.705,-75.200,-696.710,-225.580
721,45758.101000,295.461,-56.047,101.699,264.599,249.201,-407.764,-693.200,734.290,146.420
722,45758.144000,407.923,-30.801,-23.546,309.611,248.343,-377.858,-781.200,2170.290,468.420
723,45758.165000,329.988,269.128,-124.744,340.493,248.844,-360.861,-914.200,1879.290,219.420
724,45758.201000,287.568,94.422,-9.519,354.717,281.144,-323.027,-1950.200,861.290,-386.580
725,45758.241000,298.420,63.116,-31.562,362.663,270.988,-314.394,1405.800,1266.290,-604.580
726,45758.285000,284.609,17.673,-48.595,367.114,286.953,-301.946,-289.200,531.290,-387.580
727,45758.321000,281.649,90.383,-93.683,365.383,299.329,-293.606,-528.200,198.290,-292.580
728,45758.361000,244.162,94.422,-81.659,364.505,291.601,-290.881,330.800,376.290,-287.580
729,45758.381000,248.108,53.018,-95.687,364.517,300.337,-288.611,-239.200,245.290,-244.580
730,45758.427000,232.324,90.383,-76.650,367.175,301.348,-283.605,213.800,296.290,-236.580
731,45758.465000,222.459,82.304,-78.654,362.778,308.317,-282.400,288.800,215.290,-219.580
732,45758.502000,210.620,85.333,-74.646,362.766,307.336,-286.404,345.800,155.290,-196.580
733,45758.544000,202.728,75.235,-77.652,357.472,307.248,-289.402,484.800,41.290,-204.580
734,45758.582000,193.850,136.836,-72.642,350.397,304.385,-298.455,485.800,-197.710,-293.580
735,45758.625000,198.782,113.609,-83.663,338.924,303.312,-305.478,2.800,-414.710,-306.580
736,45758.645000,216.540,39.890,-101.699,331.855,305.685,-313.367,494.800,-426.710,-444.580
737,45758.691000,246.135,20.702,-88.673,318.598,304.385,-328.347,499.800,-509.710,-499.580
738,45758.732000,413.842,-210.556,-59.616,303.557,289.083,-347.758,1341.800,-160.710,-554.580
739,45758.765000,401.017,133.807,105.706,294.527,200.727,-405.269,5922.800,134.290,-365.580
740,45758.806000,317.164,301.444,-248.986,274.195,175.902,-424.013,490.800,-1274.710,77.420
741,45758.870000,370.435,114.619,-321.127,235.405,182.479,-435.840,-801.200,-1875.710,729.420
742,45758.879000,229.364,114.619,-164.822,207.150,153.392,-451.769,653.800,-1061.710,1603.420
743,45758.902000,60.671,102.501,-69.636,205.370,132.531,-453.445,109.800,-318.710,1998.420
744,45758.942000,0.493,113.609,-8.517,226.530,109.448,-442.210,118.800,627.290,2080.420
745,45758.982000,-70.536,129.767,42.583,259.182,114.347,-423.080,-656.200,2458.290,881.420
746,45759.24000,15.291,68.166,-59.616,324.545,137.644,-367.500,-1062.200,3496.290,376.420
747,45759.64000,181.025,224.694,-151.796,380.314,180.846,-282.508,-1865.200,3782.290,-547.580
748,45759.104000,311.245,71.195,-334.153,396.480,243.370,-188.079,-3892.200,2488.290,-531.580
749,45759.122000,292.501,83.314,-397.276,401.010,255.812,-146.948,-2581.200,1206.290,12.420
750,45759.162000,352.678,-157.034,-55.609,401.069,267.603,-128.692,-675.200,-169.710,-858.580
751,45759.211000,185.958,-3.535,147.789,397.525,273.423,-137.451,192.800,-61.710,-530.580
752,45759.244000,322.096,80.284,-43.585,394.939,292.939,-121.931,-2322.200,-546.710,-163.580
753,45759.285000,464.154,-202.477,12.524,389.657,299.011,-121.751,225.800,-195.710,-268.580
754,45759.325000,501.642,-85.333,154.802,375.486,299.109,-148.604,902.800,-744.710,-401.580
755,45759.345000,506.574,-34.840,190.873,355.962,289.062,-196.656,1540.800,-1681.710,-20.580
756,45759.385000,222.459,23.732,-67.632,337.398,283.249,-217.757,-1166.200,-1720.710,650.420
757,45759.425000,119.861,-155.014,-33.566,341.830,281.798,-207.860,-1056.200,-165.710,1346.420
758,45759.465000,-24.170,11.613,12.524,364.753,257.009,-195.682,1549.800,2134.290,1405.420
759,45759.506000,67.576,120.679,-186.865,395.683,226.967,-154.852,1382.800,2987.290,771.420
760,45759.546000,237.256,120.679,-262.012,414.288,212.511,-114.549,936.800,2384.290,381.420
761,45759.585000,246.135,191.369,-232.955,422.310,216.890,-82.606,-455.200,1007.290,279.420
762,45759.606000,188.917,217.625,-365.213,424.075,205.720,-78.991,-1945.200,-724.710,-67.580
763,45759.646000,299.407,275.187,144.783,417.928,217.112,-74.669,-733.200,-166.710,-845.580
764,45759.684000,386.220,17.673,32.564,408.264,241.494,-70.929,558.800,306.290,-934.580
765,45759.729000,241.202,-84.323,31.562,400.331,254.367,-75.502,-651.200,-597.710,-609.580
766,45759.765000,281.649,74.225,9.519,395.058,267.411,-74.103,-1243.200,-695.710,-486.580
767,45759.805000,248.108,108.560,33.566,387.991,275.833,-82.789,34.800,-568.710,-444.580
768,45759.825000,214.566,27.771,3.507,378.278,279.044,-91.653,-1188.200,-1262.710,-105.580
769,45759.865000,265.865,1.515,-87.671,372.078,280.438,-103.543,-264.200,-857.710,-79.580
770,45759.904000,216.540,50.998,-63.624,369.422,277.719,-107.612,-84.200,-590.710,-3.580
771,45759.945000,262.906,132.797,31.562,367.630,274.832,-117.641,-380.200,-826.710,283.420
772,45759.984000,511.507,229.744,140.775,366.689,270.796,-137.635,530.800,-1189.710,420.420
773,45760.25000,511.507,294.375,123.742,361.307,254.323,-167.977,1629.800,-557.710,296.420
774,45760.65000,61.657,140.876,-191.875,355.955,238.160,-187.385,440.800,-871.710,390.420
775,45760.87000,87.306,163.093,-86.669,347.148,244.202,-188.210,-144.200,-122.710,-313.580
776,45760.129000,-29.102,290.335,-28.556,338.426,268.335,-162.630,-1233.200,689.290,-1197.580
777,45760.165000,179.052,129.767,-127.750,316.656,317.360,-84.649,-4070.200,1558.290,-2122.580
778,45760.204000,297.434,-183.290,-133.761,296.662,343.260,3.511,-3453.200,2323.290,-1943.580
779,45760.244000,306.312,-59.077,-298.082,289.638,356.416,8.880,2253.800,3193.290,-548.580
780,45760.284000,188.917,-2.525,-304.094,284.348,370.159,4.344,1100.800,669.290,-163.580
781,45760.306000,289.541,156.024,205.902,297.636,358.834,32.816,-2547.200,-625.710,251.420
782,45760.346000,437.518,-189.349,22.544,317.114,344.294,70.140,-3908.200,-1423.710,700.420
783,45760.389000,233.310,-3.535,-61.620,317.937,338.552,51.089,1795.800,130.290,236.420
784,45760.425000,312.231,52.008,-21.542,321.461,335.110,51.982,-869.200,-16.710,274.420
785,45760.466000,275.730,39.890,-34.568,325.004,330.998,59.804,404.800,560.290,195.420
786,45760.507000,233.310,112.600,3.507,325.017,328.535,64.689,249.800,783.290,338.420
787,45760.545000,214.566,84.323,35.569,330.323,329.604,71.692,-101.200,694.290,384.420
788,45760.566000,213.580,99.471,52.603,333.870,326.388,80.536,176.800,499.290,428.420
789,45760.605000,197.796,108.560,89.675,337.412,321.408,88.329,-28.200,204.290,507.420
790,45760.646000,215.553,79.274,97.691,347.085,308.311,84.956,116.800,-50.710,619.420
791,45760.687000,229.364,17.673,110.716,362.894,293.200,71.608,527.800,-379.710,652.420
792,45760.725000,252.054,62.107,41.581,369.908,289.423,60.585,358.800,-732.710,710.420
793,45760.766000,329.002,16.663,-17.534,383.076,280.359,46.431,-94.200,-712.710,647.420
794,45760.785000,379.314,14.643,-65.628,390.985,262.080,43.877,200.800,-51.710,637.420
795,45760.827000,289.541,-11.613,-33.566,398.917,258.670,45.778,568.800,603.290,510.420
796,45760.864000,323.083,117.649,76.650,398.943,248.592,57.367,120.800,902.290,574.420
797,45760.904000,244.162,6.564,9.519,400.773,233.758,84.695,-660.200,1228.290,563.420
798,45760.945000,107.037,45.949,-55.609,401.711,230.011,105.429,640.800,1109.290,318.420
799,45760.987000,68.563,115.629,-209.910,408.710,229.537,88.556,914.800,-233.710,227.420
800,45761.27000,287.568,193.389,-321.127,414.777,225.112,54.670,472.800,-2659.710,-6.580
801,45761.52000,473.033,74.225,-326.137,422.518,241.345,-15.281,1081.800,-3506.710,-682.580
802,45761.87000,333.935,152.994,-302.090,411.586,238.628,-141.514,4215.800,-3756.710,-1072.580
803,45761.127000,256.000,90.383,-105.706,378.641,217.053,-259.493,2850.800,-3825.710,-690.580
804,45761.167000,211.607,19.692,-49.597,329.997,197.883,-322.829,1342.800,-3586.710,-609.580
805,45761.206000,175.106,-31.811,40.579,302.512,193.541,-383.630,87.800,-2857.710,-739.580
806,45761.249000,192.863,-17.673,78.654,262.808,217.895,-410.771,-1293.200,-1378.710,-662.580
807,45761.269000,253.040,-46.959,73.644,252.276,251.880,-404.737,-1958.200,-326.710,-441.580
808,45761.305000,303.353,-72.205,115.726,276.115,266.208,-389.301,-988.200,950.290,-70.580
809,45761.346000,415.815,126.738,-145.785,298.185,264.967,-372.390,-581.200,1866.290,424.420
810,45761.386000,511.507,350.927,-197.886,315.875,272.572,-349.247,-1026.200,808.290,-165.580
811,45761.437000,362.543,-12.623,-29.558,320.352,293.970,-328.679,-709.200,570.290,-613.580
812,45761.469000,203.715,60.087,-107.710,321.223,291.282,-331.742,870.800,680.290,-819.580
813,45761.509000,289.541,122.698,-109.714,318.619,306.318,-321.333,-850.200,348.290,-358.580
814,45761.529000,259.946,146.935,-79.656,321.279,310.801,-316.214,417.800,703.290,-471.580
815,45761.569000,250.081,111.590,-77.652,323.920,308.199,-316.290,496.800,560.290,-270.580
816,45761.609000,264.879,76.245,-82.661,324.818,311.812,-311.205,-130.200,277.290,-141.580
817,45761.645000,223.445,114.619,-103.703,322.174,303.187,-309.507,306.800,299.290,-284.580
818,45761.686000,184.971,106.540,-90.677,321.293,302.318,-309.538,440.800,252.290,-255.580
819,45761.726000,184.971,60.087,-88.673,320.407,306.573,-312.382,202.800,71.290,-293.580
820,45761.755000,199.769,54.028,-64.626,310.709,312.529,-316.192,263.800,-198.710,-311.580
821,45761.795000,233.310,38.880,-65.628,299.220,313.023,-329.121,445.800,-382.710,-440.580
822,45761.829000,324.069,-191.369,-92.681,286.834,298.703,-344.521,1578.800,-186.710,-513.580
823,45761.867000,421.734,-42.919,-31.562,277.796,210.263,-405.013,5850.800,31.290,-548.580
824,45761.911000,376.355,287.306,-307.100,251.211,137.186,-443.217,2602.800,-1180.710,71.420
825,45761.949000,293.487,109.570,-206.904,203.575,114.104,-460.999,547.800,-1892.710,848.420
826,45761.989000,212.593,220.655,-71.640,191.208,107.738,-471.176,63.800,-946.710,1518.420
827,45762.9000,57.711,-38.880,-68.634,178.873,100.813,-470.447,-139.200,-263.710,2186.420
828,45762.49000,-50.805,193.389,50.599,207.092,82.160,-456.067,323.800,1227.290,1775.420
829,45762.89000,-33.048,187.329,-40.579,264.451,87.471,-422.942,-550.200,2749.290,842.420
830,45762.129000,115.915,265.089,-70.638,305.973,108.479,-386.380,-2004.200,3278.290,-231.580
831,45762.170000,158.335,193.389,-237.965,352.035,183.397,-314.292,-3551.200,2867.290,-956.580
832,45762.210000,292.501,-7.574,-362.207,371.639,233.010,-247.081,-812.200,1987.290,-818.580
833,45762.229000,242.189,70.185,-503.483,369.898,237.517,-240.983,1169.800,629.290,-795.580
834,45762.269000,339.854,86.343,121.738,362.768,229.808,-268.067,2226.800,-1115.710,168.420
835,45762.309000,467.114,-49.988,72.642,333.633,230.875,-290.964,-610.200,-1848.710,396.420
836,45762.351000,327.029,-67.156,-9.519,311.588,245.305,-301.489,-1413.200,-1367.710,615.420
837,45762.391000,180.039,-181.270,17.534,312.478,238.502,-296.742,-110.200,107.290,669.420
838,45762.429000,94.212,-68.166,20.540,343.359,214.001,-274.600,1043.800,1900.290,1038.420
839,45762.471000,149.457,52.008,-36.571,371.606,199.073,-251.162,461.800,2579.290,958.420
840,45762.491000,235.283,106.540,-79.656,405.228,197.958,-199.455,-135.200,2768.290,763.420
841,45762.529000,278.690,103.511,-121.738,429.200,194.655,-132.955,-874.200,2499.290,692.420
842,45762.570000,259.946,332.750,-162.818,434.654,207.520,-76.912,-2245.200,1553.290,150.420
843,45762.606000,178.066,176.221,-188.869,426.794,213.370,-53.909,-2675.200,446.290,-462.580
844,45762.646000,511.507,237.822,272.031,417.970,227.866,-62.404,2495.800,-145.710,-832.580
845,45762.687000,280.663,67.156,57.613,405.614,250.031,-75.626,-63.200,-837.710,-686.580
846,45762.715000,321.110,-74.225,-24.548,391.538,272.617,-73.945,-3057.200,-1762.710,-559.580
847,45762.746000,269.811,48.978,-34.568,380.916,277.282,-92.695,846.800,-620.710,-654.580
848,45762.787000,261.919,49.988,-51.601,373.865,291.024,-97.236,-761.200,-766.710,-220.580
849,45762.827000,259.946,41.909,-33.566,365.925,294.349,-102.119,-210.200,-513.710,-195.580
850,45762.871000,260.933,68.166,-29.558,360.629,292.525,-105.174,-170.200,-452.710,-175.580
851,45762.907000,244.162,22.722,-57.613,361.500,298.461,-109.943,-414.200,-425.710,-100.580
852,45762.946000,202.728,75.235,-55.609,358.855,295.855,-110.036,-456.200,-389.710,78.420
853,45762.969000,167.214,113.609,-63.624,358.858,299.327,-109.924,-448.200,-386.710,210.420
854,45763.9000,260.933,119.669,20.540,358.843,298.318,-114.921,-226.200,-525.710,252.420
855,45763.46000,494.736,152.994,97.691,359.661,289.075,-135.079,489.800,-954.710,329.420
856,45763.86000,298.420,171.172,24.548,352.563,282.543,-151.201,1443.800,-661.710,126.420
857,45763.127000,124.794,169.152,-107.710,346.295,267.750,-183.477,1653.800,-754.710,79.420
858,45763.169000,169.187,200.458,-50.599,333.042,264.770,-196.525,391.800,40.290,-760.580
859,45763.187000,33.048,321.641,5.511,310.257,296.959,-161.792,-1630.200,622.290,-1645.580
860,45763.229000,193.850,77.254,-99.695,295.439,334.700,-114.937,-3487.200,1230.290,-2027.580
861,45763.266000,372.408,-257.010,-93.683,271.888,373.194,-41.275,-1582.200,2112.290,-1361.580
862,45763.307000,196.809,94.422,-141.777,265.775,369.413,-21.558,1123.800,2518.290,-248.580
863,45763.349000,150.443,217.625,-189.871,259.710,377.311,12.441,-759.200,1088.290,-581.580
864,45763.386000,179.052,-233.783,-229.949,264.177,374.490,35.203,-1580.200,-591.710,292.420
865,45763.429000,320.123,181.270,4.509,282.709,364.481,48.839,-1879.200,-1114.710,451.420
866,45763.446000,430.613,-68.166,40.579,301.283,345.404,79.062,-2713.200,-1028.710,640.420
867,45763.489000,235.283,75.235,-64.626,310.033,341.375,59.100,1429.800,-9.710,356.420
868,45763.535000,240.216,84.323,-13.526,315.317,335.331,59.913,-507.200,-98.710,350.420
869,45763.569000,301.380,28.781,-19.538,318.840,337.910,59.015,321.800,163.290,291.420
870,45763.609000,241.202,124.718,7.515,325.003,324.951,60.601,133.800,293.290,434.420
871,45763.650000,206.674,93.412,25.550,328.523,324.057,59.590,76.800,246.290,487.420
872,45763.676000,223.445,101.491,48.595,337.329,319.723,59.478,401.800,186.290,509.420
873,45763.716000,206.674,81.294,46.591,344.366,312.728,57.287,118.800,-242.710,559.420
874,45763.749000,233.310,69.176,46.591,353.151,303.018,51.042,157.800,-386.710,599.420
875,45763.787000,263.892,37.870,18.536,370.725,291.380,37.812,17.800,-540.710,662.420
876,45763.827000,285.595,35.850,-38.575,378.622,274.697,30.345,261.800,-391.710,734.420
877,45763.867000,330.975,54.028,-19.538,386.524,269.269,22.250,822.800,-128.710,878.420
878,45763.907000,221.472,251.961,-158.810,396.171,252.475,10.813,1094.800,338.290,619.420
879,45763.927000,181.025,290.335,-377.237,399.631,250.121,-11.098,1209.800,-702.710,-154.580
880,45763.991000,220.486,267.108,-470.419,388.884,264.747,-76.195,908.800,-2549.710,-1060.580
881,45764.7000,181.025,89.373,-285.057,377.260,273.380,-138.510,3735.800,-2809.710,-1500.580
882,45764.47000,192.863,60.087,-125.746,346.123,264.324,-243.168,2838.800,-3040.710,-1309.580
883,45764.89000,184.971,-1.515,-41.581,304.493,261.200,-321.849,1558.800,-2972.710,-1078.580
884,45764.129000,184.971,21.712,-18.536,262.082,267.686,-367.452,-673.200,-2242.710,-923.580
885,45764.149000,205.688,-55.037,61.620,235.659,301.321,-373.396,-1490.200,-1072.710,-792.580
886,45764.196000,275.730,-93.412,67.632,240.089,308.465,-366.199,-1093.200,352.290,-445.580
887,45764.230000,511.507,-53.018,174.841,278.003,307.963,-354.178,191.800,2390.290,25.420
888,45764.269000,441.464,190.359,71.640,306.277,321.736,-327.823,-393.200,1505.290,-423.580
889,45764.311000,274.744,-27.771,9.519,308.987,339.633,-308.367,-649.200,832.290,-542.580
890,45764.349000,300.393,200.458,-18.536,310.753,344.842,-308.192,226.800,546.290,-632.580
891,45764.389000,254.027,146.935,-102.701,309.875,344.870,-307.201,280.800,438.290,-333.580
892,45764.412000,278.690,59.077,-114.724,309.894,344.199,-300.272,143.800,459.290,-140.580
893,45764.449000,242.189,112.600,-76.650,310.779,338.208,-297.484,366.800,411.290,-133.580
894,45764.489000,220.486,114.619,-64.626,310.762,338.039,-303.448,615.800,328.290,-149.580
895,45764.530000,201.742,36.860,-95.687,310.736,325.718,-309.806,834.800,146.290,-198.580
896,45764.577000,222.459,25.751,-85.667,304.536,315.044,-319.109,755.800,24.290,-257.580
897,45764.610000,488.817,-356.986,-35.569,302.648,277.601,-355.085,2861.800,251.290,-317.580
898,45764.630000,456.262,133.807,-83.663,291.055,228.811,-393.446,3731.800,-377.710,-230.580
899,45764.670000,452.316,80.284,-458.395,252.196,204.558,-422.161,591.800,-2310.710,650.420
900,45764.710000,348.732,75.235,-371.225,195.693,158.507,-454.619,1413.800,-2535.710,1319.420
901,45764.750000,195.823,204.497,9.519,161.244,110.179,-476.157,1554.800,-1706.710,2172.420
902,45764.790000,-37.981,115.629,5.511,156.839,95.533,-472.675,-82.200,-324.710,2332.420
903,45764.830000,-73.495,253.980,204.900,180.657,107.927,-464.252,-838.200,1557.290,1277.420
904,45764.870000,25.156,152.994,15.530,241.585,136.091,-420.445,-1309.200,3111.290,671.420
905,45764.890000,61.657,193.389,-22.544,321.999,176.510,-342.415,-1784.200,4365.290,-239.580
906,45764.930000,311.245,125.728,-305.096,369.903,236.706,-239.023,-4286.200,3603.290,-472.580
907,45764.970000,290.528,77.254,-500.477,383.280,250.388,-184.915,-2323.200,2187.290,367.420
908,45765.10000,61.657,122.698,-503.483,392.174,265.883,-158.566,-30.200,328.290,-194.580
909,45765.50000,249.094,41.909,-39.577,386.890,271.927,-159.380,-603.200,-136.710,-419.580
910,45765.90000,344.786,81.294,-55.609,382.492,280.604,-159.112,-500.200,-307.710,-398.580
911,45765.110000,357.611,1.515,-55.609,378.994,293.790,-152.737,-735.200,-147.710,-179.580
912,45765.150000,306.312,32.821,-48.595,378.123,299.054,-150.583,-316.200,22.290,-160.580
913,45765.190000,276.717,64.126,-46.591,376.368,296.533,-147.692,26.800,209.290,-74.580
914,45765.230000,238.243,61.097,-21.542,374.611,295.720,-145.738,245.800,198.290,-37.580
915,45765.271000,204.701,53.018,-67.632,375.495,296.617,-144.713,165.800,123.290,-60.580
916,45765.310000,197.796,30.801,-65.628,371.094,305.266,-145.439,242.800,226.290,-118.580
917,45765.349000,196.809,64.126,-55.609,373.737,300.956,-144.578,300.800,470.290,-156.580
918,45765.369000,264.879,19.692,-5.511,372.853,304.371,-146.456,438.800,222.290,-235.580
919,45765.409000,322.096,-36.860,65.628,367.523,297.897,-160.585,-47.200,-1023.710,-6.580
920,45765.452000,435.545,0.505,92.681,350.715,298.916,-185.430,742.800,-1668.710,-312.580
921,45765.492000,507.561,-8.584,-40.579,325.941,296.120,-222.341,340.800,-1862.710,-170.580
922,45765.532000,344.786,-233.783,-136.767,311.752,278.801,-251.745,1084.800,-1051.710,951.420
923,45765.572000,119.861,-132.797,70.638,334.570,234.015,-271.992,2083.800,591.290,1636.420
924,45765.599000,73.495,74.225,32.564,362.762,202.173,-263.998,1759.800,2076.290,1578.420
925,45765.632000,162.281,34.840,-225.941,400.770,179.333,-213.975,-269.200,2715.290,1165.420
926,45765.669000,206.674,114.619,-171.836,427.325,167.684,-166.605,-666.200,2017.290,956.420
927,45765.715000,140.578,272.158,-156.806,436.204,170.103,-142.666,-3152.200,183.290,1003.420
928,45765.751000,511.507,450.903,247.984,437.055,167.218,-152.687,-2566.200,-1080.710,522.420
929,45765.790000,427.653,343.858,94.685,434.371,172.841,-168.401,1944.800,-287.710,-565.580
930,45765.831000,511.507,56.047,216.924,425.488,165.215,-192.508,902.800,-996.710,87.420
931,45765.851000,511.507,93.412,297.080,406.019,148.816,-219.914,1789.800,-797.710,165.420
932,45765.891000,-1.480,253.980,-189.871,396.287,134.611,-231.329,597.800,-1202.710,210.420
933,45765.931000,-77.441,330.730,128.751,382.228,156.498,-223.713,-378.200,410.290,-1087.580
934,45765.972000,89.279,103.511,32.564,369.273,233.164,-149.771,-4163.200,2341.290,-2261.580
935,45766.9000,385.233,-121.688,-187.867,350.268,290.290,-30.805,-3787.200,3301.290,-2057.580
936,45766.50000,304.339,-59.077,-463.405,336.391,295.892,44.799,-2182.200,3117.290,-663.580
937,45766.70000,281.649,-66.146,-503.483,332.079,306.282,74.912,-1206.200,668.290,-265.580
938,45766.112000,335.908,1.515,96.689,333.827,303.567,70.858,103.800,-1082.710,-363.580
939,45766.154000,511.507,-111.590,105.706,329.414,306.923,66.981,-404.200,-773.710,-192.580
940,45766.192000,252.054,43.929,-29.558,322.333,316.071,53.353,-33.200,-835.710,-470.580
941,45766.235000,293.487,58.067,-74.646,323.218,313.524,55.259,-672.200,-469.710,-273.580
942,45766.274000,283.622,31.811,-59.616,322.343,310.136,58.125,175.800,196.290,26.420
943,45766.315000,267.838,44.939,14.528,322.337,313.524,55.256,465.800,234.290,10.420
944,45766.330000,222.459,82.304,58.614,324.077,317.612,46.458,414.800,-98.710,42.420
945,45766.374000,179.052,155.014,52.603,320.530,316.516,38.467,53.800,-644.710,82.420
946,45766.412000,210.620,90.383,36.571,322.261,310.187,29.330,-432.200,-1011.710,70.420
947,45766.452000,239.229,56.047,6.513,326.630,307.249,17.333,-351.200,-1181.710,88.420
948,45766.492000,265.865,72.205,-80.658,330.134,303.610,11.268,-278.200,-728.710,210.420
949,45766.550000,275.730,49.988,-127.750,334.530,302.661,8.272,-240.200,-50.710,283.420
950,45766.561000,276.717,32.821,-72.642,340.711,295.919,15.024,-76.200,477.290,337.420
951,45766.596000,231.337,50.998,-10.521,346.023,292.732,24.868,91.800,670.290,240.420
952,45766.632000,244.162,49.988,9.519,344.283,284.332,34.520,-109.200,502.290,228.420
953,45766.671000,233.310,49.988,1.503,350.479,285.487,44.507,35.800,381.290,227.420
954,45766.711000,240.216,50.998,16.532,352.236,279.412,44.315,188.800,252.290,294.420
955,45766.751000,249.094,42.919,13.526,354.869,274.150,42.167,296.800,136.290,325.420
956,45766.791000,242.189,33.830,-1.503,356.615,267.962,38.000,279.800,-19.710,315.420
957,45766.811000,236.270,59.077,14.528,364.524,264.327,31.949,245.800,-127.710,338.420
958,45766.851000,242.189,32.821,-7.515,367.169,262.621,32.895,33.800,-185.710,388.420
959,45766.891000,253.040,52.008,-31.562,374.197,255.541,27.723,10.800,-157.710,465.420
960,45766.930000,289.541,40.899,-105.706,383.006,242.612,30.311,75.800,338.290,804.420
961,45766.970000,338.867,9.594,-97.691,390.963,223.945,44.626,536.800,1080.290,942.420
962,45767.10000,256.000,163.093,-87.671,394.524,213.982,60.202,1261.800,1812.290,885.420
963,45767.30000,266.852,329.720,-202.896,402.468,208.109,66.987,606.800,-41.710,149.420
964,45767.70000,210.620,256.000,-422.325,407.603,225.575,9.977,2262.800,-2331.710,-860.580
965,45767.111000,334.921,206.517,-286.059,400.272,239.132,-92.877,2280.800,-3558.710,-1110.580
966,45767.150000,261.919,77.254,-131.757,372.658,250.742,-202.811,2132.800,-3870.710,-1495.580
967,45767.190000,180.039,38.880,-50.599,340.758,241.132,-265.784,1966.800,-3406.710,-1489.580
968,45767.231000,162.281,36.860,44.587,298.289,245.318,-331.321,690.800,-2882.710,-989.580
969,45767.271000,129.726,-29.791,129.753,265.627,261.866,-358.693,-982.200,-1296.710,-1012.580
970,45767.300000,157.349,-12.623,42.583,270.115,293.708,-336.792,-1896.200,524.290,-938.580
971,45767.332000,511.507,-53.018,-286.059,296.612,306.471,-315.440,1613.800,2594.290,-116.580
972,45767.371000,237.256,-81.294,93.683,316.063,312.341,-292.349,-1223.200,1056.290,-419.580
973,45767.410000,278.690,134.817,-11.523,323.203,331.363,-263.905,-1270.200,416.290,102.420
974,45767.455000,272.771,183.290,-35.569,328.493,328.819,-261.985,891.800,777.290,-372.580
975,45767.496000,199.769,174.201,-74.646,327.607,322.742,-262.185,-13.200,371.290,-85.580
976,45767.516000,261.919,21.712,-84.665,330.266,324.621,-257.150,112.800,323.290,-96.580
977,45767.556000,221.472,107.550,-77.652,331.157,327.310,-254.081,104.800,161.290,-43.580
978,45767.597000,220.486,93.412,-60.618,332.022,321.122,-258.251,433.800,124.290,-46.580
979,45767.636000,214.566,96.442,-78.654,328.494,327.111,-261.047,327.800,-74.710,-88.580
980,45767.676000,197.796,65.136,-91.679,324.069,322.599,-267.166,264.800,-250.710,-105.580
981,45767.715000,221.472,68.166,-56.611,314.346,319.678,-278.214,584.800,-404.710,-131.580
982,45767.755000,310.258,58.067,-79.656,300.213,319.302,-291.181,309.800,-470.710,-297.580
983,45767.775000,286.582,-14.643,-97.691,295.734,298.743,-312.715,1478.800,64.290,-213.580
984,45767.814000,303.353,-104.521,-100.697,292.149,280.902,-330.186,2729.800,127.290,-190.580
985,45767.854000,240.216,110.580,-117.730,285.887,251.521,-356.978,1256.800,-298.710,43.420
986,45767.894000,276.717,31.811,-288.063,265.581,245.036,-371.155,301.800,-1209.710,350.420
987,45767.934000,249.094,-0.505,-225.941,241.708,219.170,-395.903,865.800,-1381.710,745.420
988,45767.975000,196.809,10.604,-105.706,233.708,183.126,-412.986,2052.800,-959.710,1090.420
989,45767.991000,71.522,58.067,-131.757,232.726,119.226,-433.929,1941.800,30.290,1155.420
990,45768.31000,109.010,69.176,-35.569,240.631,79.360,-433.211,1229.800,528.290,1124.420
991,45768.72000,64.617,80.284,-0.501,269.749,70.369,-414.543,266.800,1282.290,530.420
992,45768.112000,129.726,54.028,-15.530,297.993,73.500,-396.477,-219.200,2229.290,277.420
993,45768.152000,211.607,48.978,-51.601,344.827,88.746,-349.162,-684.200,2799.290,5.420
994,45768.194000,338.867,109.570,-132.759,391.707,114.774,-288.587,-822.200,3319.290,-339.580
995,45768.234000,351.692,148.955,-120.736,420.129,154.147,-215.723,-2223.200,2699.290,-450.580
996,45768.254000,334.921,101.491,-200.892,432.599,177.907,-173.207,-2835.200,1383.290,-147.580
997,45768.294000,234.297,84.323,-216.924,432.701,197.008,-141.804,-2793.200,-34.710,26.420
998,45768.335000,279.676,49.988,-157.808,422.134,210.832,-143.375,-1719.200,-1354.710,-201.580
999,45768.375000,284.609,41.909,-63.624,408.859,228.318,-168.668,-539.200,-1611.710,-470.580
1000,45768.415000,240.216,10.604,19.538,390.303,236.365,-190.312,335.800,-1210.710,-617.580
1001,45768.455000,84.347,-104.521,-237.965,388.552,243.364,-188.105,162.800,207.290,-562.580
1002,45768.474000,334.921,-57.057,-108.712,388.513,232.638,-199.376,1662.800,150.290,-9.580
1003,45768.514000,230.351,82.304,-54.607,387.675,241.684,-186.176,-1712.200,-58.710,-131.580
1004,45768.555000,319.137,-40.899,-63.624,387.749,257.927,-163.803,-2024.200,-44.710,-3.580
1005,45768.595000,207.661,110.580,-58.614,389.537,266.806,-156.558,200.800,556.290,-212.580
1006,45768.635000,215.553,100.481,-63.624,392.180,265.940,-156.578,230.800,594.290,-298.580
1007,45768.675000,230.351,32.821,-69.636,391.350,274.202,-140.425,-541.200,486.290,-221.580
1008,45768.715000,289.541,48.978,-42.583,395.813,280.816,-121.329,-479.200,675.290,-254.580
1009,45768.731000,311.245,16.663,5.511,394.953,278.437,-113.465,-207.200,631.290,-165.580
1010,45768.777000,236.270,62.107,10.521,399.400,285.750,-100.304,-329.200,332.290,-108.580
1011,45768.815000,228.378,77.254,4.509,399.424,284.268,-91.416,16.800,181.290,0.420
1012,45768.855000,229.364,67.156,-31.562,398.528,278.946,-95.563,89.800,157.290,96.420
1013,45768.895000,247.121,43.929,-37.573,403.835,288.639,-90.267,-42.200,205.290,105.420
1014,45768.939000,247.121,54.028,-28.556,402.085,280.995,-84.562,-147.200,242.290,96.420
1015,45768.954000,244.162,56.047,-4.509,407.386,283.743,-79.491,-54.200,269.290,155.420
1016,45768.995000,247.121,54.028,6.513,408.281,278.705,-73.694,-38.200,163.290,230.420
1017,45769.41000,245.148,55.037,6.513,415.311,267.342,-77.019,-32.200,19.290,310.420
1018,45769.74000,239.229,56.047,-2.505,418.835,263.900,-76.126,31.800,-92.710,411.420
1019,45769.122000,253.040,44.939,-11.523,423.238,260.432,-76.225,6.800,-130.710,502.420
1020,45769.162000,258.960,29.791,-21.542,430.268,244.756,-78.697,78.800,-87.710,602.420
1021,45769.195000,255.013,22.722,-18.536,437.301,229.109,-80.175,358.800,28.290,713.420
1022,45769.215000,279.676,15.653,-3.507,447.864,213.521,-79.654,548.800,34.290,714.420
1023,45769.255000,345.773,45.949,-14.528,452.228,193.307,-89.233,808.800,205.290,759.420
1024,45769.295000,255.013,100.481,-25.550,461.050,179.651,-81.704,449.800,404.290,388.420
1025,45769.344000,231.337,33.830,-122.740,460.191,190.207,-76.399,267.800,228.290,-262.580
1026,45769.376000,198.782,13.633,-160.814,454.890,195.214,-83.205,1230.800,191.290,-618.580
1027,45769.416000,167.214,176.221,-126.748,450.444,205.148,-99.777,879.800,-554.710,-995.580
1028,45769.437000,184.971,15.653,-69.636,438.949,227.116,-119.954,-82.200,-992.710,-912.580
1029,45769.472000,241.202,-84.323,-60.618,427.465,242.309,-134.393,-798.200,-963.710,-778.580
1030,45769.512000,210.620,-19.692,-63.624,426.541,241.018,-149.333,213.800,-523.710,-288.580
1031,45769.552000,342.813,-118.659,156.806,430.940,237.521,-150.425,57.800,121.290,280.420
1032,45769.592000,263.892,-57.057,139.773,445.945,226.614,-137.822,1431.800,1390.290,66.420
1033,45769.632000,366.489,-1.515,-7.515,456.555,220.968,-123.076,1398.800,1273.290,38.420
1034,45769.672000,239.229,42.919,74.646,461.010,217.167,-104.319,-529.200,542.290,176.420
1035,45769.694000,274.744,-88.363,54.607,460.151,227.723,-99.014,-525.200,-20.710,-169.580
1036,45769.734000,274.744,-4.544,31.562,455.740,230.239,-101.925,220.800,-139.710,-175.580
1037,45769.775000,228.378,115.629,20.540,453.936,219.484,-114.196,286.800,-343.710,180.420
1038,45769.815000,249.094,79.274,23.546,452.154,218.418,-121.187,-351.200,-532.710,53.420
1039,45769.854000,257.973,44.939,-29.558,448.620,223.482,-125.999,-338.200,-449.710,-47.580
1040,45769.894000,229.364,31.811,-55.609,445.081,226.783,-131.861,-5.200,-292.710,5.420
1041,45769.914000,212.593,24.742,-67.632,442.425,228.376,-136.783,13.800,-161.710,-68.580
1042,45769.952000,226.405,15.653,-52.603,446.832,230.983,-136.684,94.800,-33.710,-116.580
1043,45769.994000,233.310,14.643,-36.571,441.540,226.611,-137.836,13.800,1.290,-140.580
1044,45770.35000,249.094,31.811,-36.571,437.144,230.136,-135.750,-327.200,2.290,-152.580
1045,45770.75000,255.013,49.988,-15.530,438.914,233.666,-133.644,-159.200,31.290,-77.580
1046,45770.115000,248.108,43.929,-8.517,441.567,235.488,-130.597,-232.200,51.290,-106.580
1047,45770.156000,258.960,24.742,-8.517,438.940,241.675,-126.433,-88.200,59.290,-168.580
1048,45770.176000,263.892,17.673,-1.503,438.065,249.486,-126.182,-98.200,-12.710,-145.580
1049,45770.224000,257.973,48.978,-21.542,437.199,255.674,-122.012,-364.200,-117.710,-190.580
1050,45770.256000,250.081,45.949,-24.548,432.798,263.455,-122.767,-153.200,-42.710,-225.580
1051,45770.296000,243.175,43.929,-28.556,431.915,260.850,-122.854,-65.200,1.290,-227.580
1052,45770.336000,254.027,55.037,-31.562,427.513,260.875,-121.874,-104.200,38.290,-239.580
1053,45770.377000,255.013,62.107,-33.566,424.897,274.930,-115.469,-117.200,162.290,-237.580
1054,45770.399000,247.121,54.028,-31.562,423.152,277.674,-110.420,-13.200,275.290,-220.580
1055,45770.434000,260.933,61.097,-12.524,422.290,284.758,-105.228,-29.200,336.290,-225.580
1056,45770.479000,246.135,61.097,6.513,418.782,286.632,-100.214,-96.200,284.290,-210.580
1057,45770.514000,226.405,81.294,23.546,417.908,289.292,-98.144,-185.200,86.290,-159.580
1058,45770.554000,233.310,81.294,7.515,416.142,287.526,-99.200,-105.200,-98.710,-56.580
1059,45770.595000,240.216,75.235,-5.511,411.731,286.599,-101.230,-64.200,-180.710,38.420
