Sample, Time, ACCX, ACCY, ACCZ, MAGX, MAGY, MAGZ, GYRX, GYRY, GYRZ
0,46141.88000,234.043,-22.544,90.295,441.942,-276.244,198.355,-75.150,-10.370,-14.930
1,46141.127000,234.043,-24.548,92.279,440.091,-269.731,195.583,-44.150,-24.370,-20.930
2,46141.163000,231.049,-23.546,91.287,438.100,-273.462,198.426,-35.150,-31.370,-17.930
3,46141.186000,230.051,-19.538,90.295,440.022,-274.459,195.451,-28.150,-38.370,-4.930
4,46141.226000,234.043,-21.542,91.287,437.041,-279.228,195.313,6.850,-46.370,10.070
5,46141.268000,234.043,-23.546,89.302,440.114,-267.892,193.667,34.850,-48.370,13.070
6,46141.308000,235.041,-22.544,90.295,436.155,-273.542,196.454,69.850,-43.370,35.070
7,46141.354000,234.043,-20.540,92.279,437.169,-270.665,197.519,91.850,-30.370,40.070
8,46141.390000,234.043,-20.540,95.256,438.035,-277.376,193.399,99.850,-18.370,44.070
9,46141.435000,235.041,-18.536,95.256,439.091,-271.662,194.544,98.850,-16.370,37.070
10,46141.487000,234.043,-21.542,93.271,437.079,-277.205,200.288,98.850,-8.370,35.070
11,46141.494000,231.049,-16.532,92.279,440.099,-269.625,199.520,79.850,-10.370,38.070
12,46141.527000,232.047,-18.536,95.256,437.106,-275.314,200.340,89.850,-12.370,36.070
13,46141.567000,230.051,-15.530,96.248,440.087,-270.545,200.478,87.850,-17.370,32.070
14,46141.609000,232.047,-13.526,94.264,436.112,-277.167,202.254,84.850,-8.370,44.070
15,46141.646000,231.049,-13.526,100.217,439.122,-270.480,203.429,86.850,-3.370,34.070
16,46141.684000,231.049,-9.519,95.256,435.169,-275.289,202.305,63.850,0.630,38.070
17,46141.731000,236.039,-17.534,100.217,436.201,-271.414,205.365,35.850,21.630,24.070
18,46141.765000,231.049,-14.528,96.248,435.218,-272.347,206.321,11.850,33.630,-21.930
19,46141.786000,231.049,-16.532,97.240,436.232,-269.470,207.387,-25.150,28.630,-13.930
20,46141.827000,221.068,-16.532,97.240,434.189,-276.196,204.245,-65.150,-75.370,-59.930
21,46141.866000,191.127,-12.524,109.147,438.199,-266.816,199.595,-86.150,-290.370,-86.930
22,46141.907000,168.172,-29.558,107.163,445.879,-271.645,191.605,-17.150,-393.370,-102.930
23,46141.951000,187.135,-35.569,83.349,452.783,-263.222,184.965,148.850,-437.370,-58.930
24,46141.987000,225.060,-46.591,29.767,454.694,-263.590,170.204,146.850,-689.370,19.070
25,46142.30000,271.969,18.536,53.581,460.567,-259.804,167.369,66.850,-343.370,30.070
26,46142.50000,405.708,5.511,37.705,453.782,-258.245,158.548,-7.150,-285.370,114.070
27,46142.90000,360.795,-39.577,59.535,453.774,-259.112,161.475,-62.150,151.630,-12.930
28,46142.129000,259.992,-7.515,65.488,456.590,-266.452,168.161,-119.150,360.630,-92.930
29,46142.169000,187.135,3.507,84.341,450.794,-265.404,175.065,-135.150,355.630,-34.930
30,46142.209000,144.218,-20.540,86.326,452.687,-269.080,177.917,-71.150,162.630,55.070
31,46142.249000,163.181,-22.544,95.256,449.855,-263.474,177.085,-58.150,37.630,21.070
32,46142.287000,175.158,-19.538,88.310,452.667,-270.105,174.938,15.850,-201.370,-15.930
33,46142.327000,204.101,-23.546,73.426,456.673,-260.778,168.319,73.850,-473.370,-54.930
34,46142.346000,252.008,-14.528,49.612,459.608,-258.137,159.545,95.850,-497.370,-51.930
35,46142.389000,401.715,-0.501,47.628,460.649,-252.607,153.798,54.850,-186.370,-10.930
36,46142.431000,360.795,-17.534,58.543,458.667,-256.233,160.579,50.850,468.630,-10.930
37,46142.464000,259.992,-7.515,62.512,454.714,-262.565,173.184,-82.150,502.630,23.070
38,46142.510000,192.125,4.509,63.504,454.658,-267.135,178.958,-166.150,462.630,34.070
39,46142.547000,165.177,-17.534,81.364,449.840,-265.207,182.938,-169.150,346.630,-10.930
40,46142.590000,191.127,-29.558,94.264,447.891,-266.102,185.861,-101.150,173.630,-34.930
41,46142.629000,204.101,-14.528,97.240,447.918,-264.210,185.913,-83.150,5.630,0.070
42,46142.646000,196.117,-15.530,88.310,452.642,-272.731,182.733,-59.150,-170.370,-2.930
43,46142.695000,208.094,-16.532,80.372,450.773,-267.217,177.966,38.850,-395.370,-56.930
44,46142.729000,215.080,-16.532,77.395,456.683,-259.885,166.376,21.850,-483.370,-56.930
45,46142.769000,256.998,-15.530,66.481,458.551,-263.877,157.416,31.850,-323.370,-28.930
46,46142.806000,341.832,-19.538,31.752,460.553,-259.226,153.614,52.850,-183.370,-9.930
47,46142.853000,326.862,-17.534,77.395,461.451,-264.755,158.380,34.850,172.630,40.070
48,46142.890000,273.965,-17.534,70.450,454.702,-262.723,167.278,-5.150,407.630,31.070
49,46142.930000,216.078,-5.511,75.411,454.675,-265.376,174.089,-13.150,404.630,42.070
50,46142.951000,187.135,-7.515,86.326,451.818,-262.396,181.052,-2.150,338.630,31.070
51,46142.985000,199.111,-16.532,94.264,448.848,-267.033,185.836,20.850,252.630,22.070
52,46143.35000,207.096,-21.542,98.233,445.861,-272.643,189.610,76.850,68.630,44.070
53,46143.70000,197.115,-12.524,88.310,444.934,-269.794,190.671,83.850,-120.370,26.070
54,46143.110000,204.101,-15.530,80.372,447.001,-260.468,185.032,101.850,-291.370,-1.930
55,46143.151000,213.084,-15.530,77.395,450.745,-269.108,177.913,95.850,-348.370,-28.930
56,46143.191000,230.051,0.501,57.550,449.831,-264.551,172.137,41.850,-381.370,3.070
57,46143.231000,270.971,-18.536,50.605,461.467,-264.544,166.255,19.850,-289.370,3.070
58,46143.250000,320.873,-22.544,58.543,458.652,-257.966,166.433,29.850,-120.370,-8.930
59,46143.291000,339.836,-17.534,69.457,455.655,-263.708,165.285,-36.150,88.630,42.070
60,46143.331000,257.996,-21.542,82.357,455.708,-260.713,171.270,-41.150,334.630,29.070
61,46143.370000,211.088,-8.517,77.395,455.589,-269.171,173.001,-50.150,292.630,23.070
62,46143.411000,194.121,-6.513,83.349,452.750,-265.192,181.960,-17.150,242.630,41.070
63,46143.449000,202.105,-6.513,97.240,450.773,-267.978,184.830,-33.150,185.630,22.070
64,46143.487000,198.113,-14.528,101.209,447.869,-267.914,188.761,-18.150,44.630,2.070
65,46143.510000,206.097,-14.528,89.302,448.871,-265.195,183.920,-2.150,-175.370,-30.930
66,46143.550000,225.060,-12.524,68.465,448.808,-269.083,179.878,3.850,-253.370,-50.930
67,46143.590000,250.012,-18.536,62.512,457.550,-268.119,175.985,76.850,-185.370,-64.930
68,46143.630000,308.897,-15.530,59.535,455.610,-268.120,176.965,21.850,-39.370,16.070
69,46143.665000,304.904,-24.548,67.473,454.726,-262.407,179.090,-0.150,167.630,46.070
70,46143.705000,255.002,-18.536,74.419,451.811,-263.262,183.979,0.850,278.630,-8.930
71,46143.747000,219.072,-14.528,77.395,449.860,-264.183,185.917,1.850,271.630,23.070
72,46143.787000,206.097,-11.523,84.341,444.965,-267.850,192.692,-1.150,215.630,58.070
73,46143.820000,209.092,-12.524,94.264,444.060,-263.949,197.717,1.850,163.630,46.070
74,46143.850000,207.096,-14.528,99.225,440.971,-276.258,198.353,11.850,55.630,11.070
75,46143.891000,199.111,-15.530,93.271,445.983,-264.920,195.726,-1.150,-162.370,-9.930
76,46143.927000,215.080,-7.515,81.364,441.042,-270.742,192.605,-7.150,-255.370,-25.930
77,46143.967000,242.027,-16.532,68.465,451.797,-264.208,183.953,15.850,-277.370,-62.930
78,46144.6000,286.940,-15.530,56.558,450.779,-267.138,180.919,26.850,-227.370,-38.930
79,46144.54000,306.901,-20.540,64.496,452.775,-263.328,181.028,-6.150,21.630,41.070
80,46144.99000,301.910,-17.534,74.419,449.826,-266.153,182.912,-42.150,208.630,40.070
81,46144.107000,248.016,-14.528,84.341,449.850,-265.076,187.860,-48.150,299.630,9.070
82,46144.155000,203.103,-20.540,91.287,443.926,-272.592,192.559,-24.150,240.630,27.070
83,46144.191000,189.131,-9.519,94.264,441.124,-265.068,192.763,-26.150,150.630,27.070
84,46144.230000,195.119,-12.524,98.233,441.993,-272.514,196.492,10.850,-15.370,-7.930
85,46144.302000,206.097,-15.530,95.256,446.970,-263.934,196.739,18.850,-170.370,-8.930
86,46144.397000,219.072,-15.530,82.357,444.928,-269.873,187.718,26.850,-281.370,-3.930
87,46144.414000,241.029,-21.542,67.473,450.819,-265.088,186.877,100.850,-287.370,-51.930
88,46144.440000,262.986,-11.523,66.481,453.707,-266.124,181.935,119.850,-258.370,-57.930
89,46144.450000,292.928,-13.526,72.434,457.652,-261.420,179.122,99.850,-108.370,23.070
90,46144.462000,281.949,-12.524,79.380,451.777,-265.233,180.973,33.850,24.630,64.070
91,46144.497000,265.980,-10.521,80.372,451.834,-261.424,182.063,-19.150,136.630,18.070
92,46144.544000,246.020,-13.526,85.333,446.979,-262.280,187.933,-43.150,221.630,1.070
93,46144.562000,214.082,-15.530,88.310,447.958,-262.161,191.872,-51.150,215.630,26.070
94,46144.596000,203.103,-14.528,92.279,447.864,-268.754,192.672,-57.150,156.630,18.070
95,46144.636000,214.082,-16.532,90.295,444.999,-265.880,195.698,-38.150,79.630,3.070
96,46144.676000,224.062,-21.542,89.302,447.815,-272.458,195.520,-10.150,7.630,7.070
97,46144.716000,245.021,-15.530,87.318,445.887,-271.540,195.542,4.850,-44.370,-10.930
98,46144.761000,241.029,-15.530,84.341,448.777,-272.549,191.584,11.850,-40.370,-15.930
99,46144.806000,243.025,-11.523,83.349,446.956,-264.880,196.713,-2.150,63.630,-13.930
100,46144.840000,244.023,-16.532,81.364,445.019,-264.855,198.677,-12.150,87.630,6.070
101,46144.860000,237.037,-15.530,83.349,439.136,-268.773,196.591,-12.150,60.630,8.070
102,46144.900000,235.041,-13.526,86.326,442.007,-271.568,196.518,-2.150,52.630,9.070
103,46144.940000,230.051,-16.532,87.318,441.122,-265.856,198.643,5.850,39.630,15.070
104,46144.992000,224.062,-17.534,88.310,447.870,-269.436,202.489,36.850,12.630,7.070
105,46145.19000,230.051,-13.526,86.326,442.060,-268.573,202.503,45.850,-11.370,8.070
106,46145.57000,232.047,-9.519,84.341,445.966,-266.680,200.595,35.850,-27.370,9.070
107,46145.97000,244.023,-15.530,82.357,443.093,-263.910,199.684,36.850,-29.370,3.070
108,46145.151000,241.029,-13.526,81.364,441.985,-273.380,199.419,22.850,-27.370,10.070
109,46145.159000,233.045,-15.530,86.326,443.099,-263.831,202.637,22.850,-24.370,8.070
110,46145.202000,237.037,-11.523,88.310,444.078,-262.951,199.712,7.850,-15.370,6.070
111,46145.240000,239.033,-12.524,87.318,443.958,-271.409,201.444,9.850,-4.370,-1.930
112,46145.280000,233.045,-13.526,87.318,443.082,-264.830,200.642,-2.150,-5.370,-0.930
113,46145.325000,235.041,-13.526,87.318,443.942,-272.381,200.434,-8.150,-6.370,4.070
114,46145.359000,234.043,-13.526,87.318,445.996,-264.762,201.632,-7.150,-19.370,-4.930
115,46145.426000,235.041,-10.521,85.333,441.028,-272.449,199.443,-16.150,-12.370,1.070
116,46145.444000,235.041,-16.532,87.318,444.048,-264.869,198.675,-19.150,-7.370,2.070
117,46145.460000,237.037,-14.528,86.326,443.036,-267.719,198.594,-25.150,1.630,0.070
118,46145.501000,236.039,-17.534,86.326,445.009,-265.748,200.620,-15.150,0.630,-12.930
119,46145.541000,236.039,-16.532,86.326,445.960,-266.759,197.642,-23.150,-2.370,3.070
120,46145.597000,234.043,-17.534,86.326,439.179,-265.909,197.655,-13.150,5.630,9.070
121,46145.619000,231.049,-14.528,85.333,444.934,-270.555,197.535,-6.150,-8.370,-1.930
122,46145.659000,236.039,-16.532,86.326,444.982,-267.639,200.567,-12.150,-8.370,11.070
123,46145.699000,236.039,-15.530,83.349,445.919,-269.596,197.563,-12.150,-6.370,1.070
124,46145.719000,236.039,-14.528,84.341,442.091,-265.868,197.661,-16.150,-16.370,-1.930
125,46145.759000,236.039,-17.534,84.341,444.962,-268.664,197.588,-15.150,-21.370,-7.930
126,46145.799000,237.037,-15.530,83.349,439.167,-266.829,198.613,-15.150,-13.370,-14.930
127,46145.839000,238.035,-14.528,84.341,444.948,-269.609,197.561,-8.150,-13.370,-6.930
128,46145.877000,236.039,-17.534,84.341,444.987,-266.799,196.656,-9.150,-6.370,-12.930
129,46145.936000,237.037,-15.530,84.341,444.942,-269.688,194.608,-6.150,0.630,-4.930
130,46145.957000,236.039,-17.534,85.333,445.013,-264.934,195.724,-4.150,2.630,-5.930
131,46146.5000,236.039,-13.526,83.349,443.103,-263.017,197.742,-18.150,8.630,-2.930
132,46146.21000,235.041,-19.538,84.341,442.101,-264.975,195.718,-6.150,0.630,2.070
133,46146.57000,234.043,-17.534,83.349,445.885,-271.566,194.558,1.850,-1.370,-3.930
134,46146.104000,237.037,-15.530,83.349,446.944,-265.799,197.671,-4.150,0.630,2.070
135,46146.139000,236.039,-18.536,84.341,446.925,-266.824,194.691,-1.150,-4.370,-0.930
136,46146.177000,237.037,-15.530,83.349,446.921,-266.877,192.723,-3.150,-6.370,-17.930
137,46146.219000,235.041,-21.542,84.341,447.936,-263.973,194.772,-16.150,-11.370,-6.930
138,46146.259000,234.043,-19.538,82.357,443.099,-263.070,195.773,3.850,-11.370,-28.930
139,46146.304000,237.037,-16.532,82.357,446.021,-262.136,193.837,5.850,-23.370,-13.930
140,46146.334000,239.033,-19.538,82.357,445.962,-265.971,191.763,11.850,-23.370,-11.930
141,46146.360000,239.033,-16.532,82.357,447.019,-260.231,193.891,22.850,-29.370,-8.930
142,46146.399000,238.035,-17.534,81.364,449.890,-263.027,193.818,20.850,-16.370,5.070
143,46146.442000,242.027,-13.526,82.357,451.845,-262.053,193.849,11.850,7.630,-11.930
144,46146.477000,244.023,-18.536,80.372,447.850,-269.700,192.646,1.850,16.630,-1.930
145,46146.517000,239.033,-20.540,84.341,446.009,-263.055,194.795,20.850,28.630,-28.930
146,46146.557000,239.033,-13.526,86.326,447.888,-267.677,197.620,24.850,40.630,-23.930
147,46146.601000,233.045,-16.532,89.302,450.923,-259.125,197.863,38.850,39.630,-28.930
148,46146.621000,231.049,-16.532,88.310,448.911,-263.907,196.743,61.850,25.630,-46.930
149,46146.664000,230.051,-12.524,87.318,450.962,-256.314,196.958,53.850,11.630,-64.930
150,46146.726000,226.058,-14.528,88.310,449.845,-266.677,198.635,14.850,5.630,-103.930
151,46146.757000,207.096,-16.532,87.318,454.930,-250.559,198.108,-24.150,-36.370,-208.930
152,46146.779000,194.121,-35.569,86.326,461.752,-248.572,198.175,-13.150,-76.370,-348.930
153,46146.819000,192.125,-66.630,80.372,466.815,-233.505,193.684,10.850,-200.370,-549.930
154,46146.859000,229.053,-44.587,82.357,479.539,-225.052,185.089,-30.150,-343.370,-499.930
155,46146.904000,305.903,2.505,119.070,486.417,-217.733,172.517,-355.150,-487.370,-16.930
156,46146.919000,306.901,40.579,129.984,484.220,-234.126,161.237,-752.150,-1.370,369.070
157,46146.959000,190.129,106.708,81.364,475.247,-250.378,158.803,-886.150,198.630,551.070
158,46146.999000,315.883,15.530,73.426,478.053,-254.777,134.095,-991.150,-608.370,-368.930
159,46147.39000,301.910,-34.568,37.705,485.941,-244.634,120.620,-667.150,-187.370,-356.930
160,46147.86000,226.058,40.579,43.659,489.814,-245.472,122.570,-245.150,129.630,-178.930
161,46147.119000,227.057,66.630,50.605,487.865,-245.605,118.629,-569.150,202.630,-14.930
162,46147.160000,213.084,33.566,49.612,493.653,-247.519,114.651,-712.150,13.630,-4.930
163,46147.180000,177.154,-13.526,34.729,490.688,-249.794,101.796,-555.150,47.630,27.070
164,46147.222000,212.086,-3.507,58.543,491.513,-259.342,97.597,-607.150,87.630,74.070
165,46147.261000,210.090,-8.517,52.589,483.751,-258.637,92.686,-534.150,-3.370,65.070
166,46147.302000,204.101,-48.595,67.473,485.628,-262.524,87.663,-324.150,-19.370,215.070
167,46147.343000,217.076,-49.597,46.636,479.640,-273.167,81.455,-166.150,-109.370,318.070
168,46147.382000,249.014,-13.526,42.667,475.647,-280.025,74.372,-208.150,-122.370,419.070
169,46147.423000,256.998,3.507,32.744,469.662,-290.641,69.149,-367.150,-249.370,359.070
170,46147.459000,301.910,-65.628,150.822,469.542,-297.577,57.153,-398.150,-6.370,268.070
171,46147.489000,303.906,-263.014,130.977,462.673,-303.241,60.918,263.850,-32.370,133.070
172,46147.522000,313.887,-146.787,81.364,464.778,-294.177,80.846,1104.850,236.630,9.070
173,46147.561000,318.877,-9.519,45.643,465.732,-297.445,99.445,1467.850,191.630,-137.930
174,46147.602000,274.963,-7.515,46.636,473.907,-272.064,125.738,1480.850,92.630,-390.930
175,46147.639000,236.039,46.591,36.713,474.134,-259.139,149.705,1285.850,347.630,-384.930
176,46147.679000,167.173,68.634,43.659,477.324,-242.443,171.814,986.850,417.630,-215.930
177,46147.719000,131.244,61.620,64.496,476.470,-236.336,188.704,607.850,350.630,-116.930
178,46147.759000,156.195,39.577,43.659,473.621,-232.489,192.741,345.850,84.630,3.070
179,46147.783000,197.115,88.673,28.775,476.482,-236.178,194.610,-68.150,-19.370,-34.930
180,46147.820000,222.066,155.804,35.721,481.264,-239.341,179.776,-901.150,-66.370,-297.930
181,46147.859000,220.070,5.511,171.659,485.128,-238.761,164.061,-1215.150,-74.370,-326.930
182,46147.904000,512.499,-281.049,163.721,486.980,-242.964,147.226,-1058.150,-897.370,-224.930
183,46147.946000,270.971,-16.532,96.248,487.085,-236.239,151.347,593.850,321.630,189.070
184,46147.999000,269.973,0.501,38.698,480.255,-240.616,167.935,64.850,360.630,421.070
185,46148.35000,283.945,6.513,67.473,474.098,-263.446,165.323,-313.150,267.630,423.070
186,46148.72000,258.994,-3.507,75.411,466.392,-261.244,181.109,295.850,452.630,54.070
187,46148.86000,188.133,-11.523,58.543,467.442,-257.132,193.028,530.850,500.630,-148.930
188,46148.120000,95.314,67.632,63.504,461.760,-249.228,208.976,187.850,470.630,74.070
189,46148.161000,105.294,104.704,46.636,451.818,-265.467,207.524,-470.150,254.630,570.070
190,46148.200000,217.076,44.587,88.310,437.800,-294.239,198.832,-1112.150,73.630,928.070
191,46148.244000,381.754,-232.955,128.992,431.675,-313.577,185.496,-840.150,-123.370,511.070
192,46148.282000,320.873,-141.777,138.915,431.810,-304.147,184.775,-442.150,575.630,-528.930
193,46148.326000,201.107,-21.542,105.178,441.525,-303.904,188.733,-178.150,247.630,-636.930
194,46148.369000,155.197,4.509,84.341,445.561,-293.421,190.015,-33.150,177.630,-273.930
195,46148.385000,194.121,10.521,88.310,437.766,-295.448,188.962,-87.150,-24.370,11.070
196,46148.427000,213.084,-36.571,113.116,436.748,-298.378,185.928,-1.150,-96.370,-113.930
197,46148.461000,212.086,-61.620,104.186,440.651,-297.298,188.915,557.850,-295.370,175.070
198,46148.501000,214.082,-23.546,98.233,440.627,-299.137,190.831,581.850,-293.370,486.070
199,46148.547000,188.133,61.620,134.946,431.879,-299.419,184.907,306.850,-634.370,595.070
200,46148.582000,180.148,-2.505,170.667,439.593,-303.039,186.787,735.850,-572.370,-34.930
201,46148.627000,279.953,-156.806,159.752,449.528,-286.904,184.301,831.850,-711.370,-394.930
202,46148.642000,287.938,-10.521,85.333,446.649,-284.975,187.301,924.850,-553.370,615.070
203,46148.682000,267.977,-55.609,52.589,446.517,-293.591,183.127,587.850,-672.370,551.070
204,46148.723000,272.967,-76.650,55.566,443.635,-291.715,184.157,610.850,-576.370,3.070
205,46148.764000,219.072,-66.630,68.465,452.481,-284.026,184.386,920.850,-379.370,110.070
206,46148.809000,184.140,-80.658,71.442,445.766,-280.785,203.154,1201.850,-86.370,170.070
207,46148.844000,155.197,28.556,33.736,453.834,-261.394,217.477,1151.850,-111.370,-250.930
208,46148.884000,154.199,-14.528,54.574,455.949,-250.675,228.598,1099.850,28.630,-649.930
209,46148.922000,176.156,-16.532,47.628,469.090,-215.324,236.489,1092.850,-167.370,-789.930
210,46148.942000,196.117,17.534,46.636,480.041,-197.047,242.918,1038.850,-188.370,-611.930
211,46148.980000,244.023,52.603,27.783,487.248,-168.582,243.721,822.850,-540.370,-372.930
212,46149.20000,422.674,75.648,209.364,489.229,-165.744,242.820,298.850,-9.370,121.070
213,46149.76000,355.805,342.168,193.488,484.377,-165.786,243.794,-749.150,112.630,163.070
214,46149.102000,184.140,127.750,68.465,481.192,-183.953,237.382,-1085.150,207.630,-106.930
215,46149.142000,340.834,59.616,-42.667,485.684,-205.451,208.267,-1974.150,-367.370,354.070
216,46149.181000,316.881,-15.530,12.899,470.582,-241.855,197.393,-2016.150,669.630,486.070
217,46149.240000,196.117,-58.614,-1.984,469.465,-250.669,186.326,-1745.150,466.630,229.070
218,46149.247000,122.261,-87.671,49.612,464.288,-272.593,181.773,-1259.150,673.630,-33.930
219,46149.284000,135.236,-79.656,68.465,460.416,-270.967,173.943,-760.150,305.630,-208.930
220,46149.329000,227.057,-23.546,24.806,464.167,-278.767,162.913,-627.150,-182.370,-127.930
221,46149.364000,224.062,-37.573,22.822,463.300,-271.294,160.168,-386.150,27.630,19.070
222,46149.402000,231.049,-132.759,41.674,469.061,-275.100,156.138,404.850,-222.370,-207.930
223,46149.444000,238.035,-91.679,195.473,470.311,-256.882,165.499,755.850,61.630,-356.930
224,46149.484000,457.606,256.000,150.822,473.176,-259.756,162.473,-154.150,-135.370,117.070
225,46149.527000,274.963,27.554,130.977,467.230,-268.323,163.208,-403.150,329.630,306.070
226,46149.546000,272.967,-155.804,31.752,469.171,-268.296,163.212,-109.150,173.630,4.070
227,46149.581000,185.138,-58.614,77.395,461.566,-259.421,181.151,483.850,322.630,-45.930
228,46149.622000,190.129,41.581,43.659,465.333,-267.772,184.860,214.850,79.630,86.070
229,46149.664000,197.115,-4.509,73.426,457.580,-268.485,197.614,35.850,314.630,165.070
230,46149.704000,180.148,-44.587,79.380,453.741,-265.677,198.669,170.850,292.630,-49.930
231,46149.744000,217.076,-40.579,75.411,457.836,-252.120,208.889,413.850,132.630,-308.930
232,46149.784000,261.988,19.538,64.496,463.857,-239.507,218.103,881.850,107.630,-301.930
233,46149.822000,270.971,67.632,59.535,459.219,-226.809,236.153,1043.850,127.630,-12.930
234,46149.844000,285.942,61.620,79.380,458.335,-221.857,245.142,1047.850,169.630,386.070
235,46149.881000,266.979,7.515,56.558,445.739,-222.508,262.807,923.850,159.630,548.070
236,46149.925000,234.043,54.607,81.364,439.910,-224.953,280.435,679.850,93.630,498.070
237,46149.966000,214.082,72.642,84.341,434.935,-233.506,281.172,342.850,52.630,415.070
238,46150.14000,241.029,-7.515,105.178,428.243,-227.666,291.159,200.850,193.630,200.070
239,46150.46000,265.980,-33.566,173.643,427.292,-226.655,294.137,106.850,226.630,-447.930
240,46150.83000,190.129,-34.568,193.488,435.252,-213.280,295.506,48.850,0.630,-451.930
241,46150.127000,185.138,-77.652,112.124,434.252,-215.211,294.467,18.850,-136.370,-104.930
242,46150.141000,151.205,37.573,102.202,436.289,-208.564,294.655,-107.150,55.630,119.070
243,46150.182000,220.070,143.781,116.093,437.053,-221.973,287.398,-533.150,-308.370,26.070
244,46150.222000,316.881,91.679,115.101,441.914,-219.515,270.753,-737.150,-215.370,-499.930
245,46150.267000,258.994,39.577,93.271,455.292,-232.037,254.690,-1008.150,-292.370,-615.930
246,46150.302000,237.037,61.620,70.450,465.184,-216.456,231.533,-1277.150,-271.370,-868.930
247,46150.341000,238.035,67.632,41.674,474.802,-221.310,221.578,-1192.150,-20.370,-483.930
248,46150.381000,187.135,54.607,66.481,473.783,-223.478,211.680,-1296.150,163.630,-160.930
249,46150.405000,165.177,10.521,37.705,472.470,-244.822,191.412,-1522.150,-185.370,272.070
250,46150.450000,164.179,-0.501,23.814,472.185,-260.795,159.492,-1709.150,-301.370,302.070
251,46150.481000,207.096,19.538,30.760,463.984,-287.279,127.266,-1784.150,-494.370,369.070
252,46150.534000,207.096,-56.611,11.907,459.890,-298.526,97.438,-1657.150,-642.370,261.070
253,46150.579000,273.965,-90.677,198.450,461.669,-305.987,64.774,-1334.150,-487.370,92.070
254,46150.605000,512.499,-516.509,251.039,468.649,-291.208,48.476,70.850,-553.370,-516.930
255,46150.642000,219.072,-92.681,75.411,464.742,-296.173,76.856,1002.850,780.630,31.070
256,46150.687000,229.053,-48.595,10.915,463.889,-290.827,100.610,1905.850,307.630,346.070
257,46150.706000,251.010,-1.503,7.938,463.024,-287.161,132.186,1731.850,104.630,-277.930
258,46150.746000,257.996,42.583,30.760,472.081,-267.520,155.370,1511.850,26.630,-393.930
259,46150.791000,187.135,44.587,24.806,473.332,-250.825,178.460,1311.850,223.630,-161.930
260,46150.822000,139.228,90.677,43.659,468.650,-240.228,188.583,663.850,119.630,-38.930
261,46150.862000,205.099,75.648,75.411,470.560,-242.906,193.429,105.850,-154.370,163.070
262,46150.902000,236.039,44.587,75.411,468.583,-244.930,189.435,81.850,-108.370,179.070
263,46150.947000,251.010,67.632,54.574,471.432,-248.777,185.399,-243.150,-91.370,92.070
264,46150.982000,261.988,59.616,100.217,467.468,-252.956,172.489,-839.150,34.630,37.070
265,46151.2000,294.924,-110.716,183.566,471.264,-258.628,170.370,-555.150,196.630,-55.930
266,46151.46000,252.008,-114.724,144.868,466.486,-253.889,173.445,241.850,229.630,-416.930
267,46151.86000,214.082,22.544,85.333,469.581,-243.025,189.490,695.850,365.630,-145.930
268,46151.130000,209.092,67.632,47.628,464.728,-243.855,196.344,163.850,212.630,158.070
269,46151.165000,252.008,58.614,79.380,460.797,-247.614,199.184,-108.150,211.630,242.070
270,46151.204000,233.045,-8.517,72.434,455.863,-253.330,200.000,34.850,237.630,178.070
271,46151.242000,175.158,-41.581,42.667,451.983,-254.120,207.840,112.850,283.630,71.070
272,46151.282000,179.150,35.569,83.349,446.143,-255.936,213.682,74.850,195.630,169.070
273,46151.302000,196.117,78.654,80.372,440.170,-266.394,214.364,-306.150,77.630,617.070
274,46151.342000,253.006,8.517,80.372,428.094,-295.138,205.675,-826.150,58.630,712.070
275,46151.387000,312.889,-94.685,134.946,421.067,-309.761,192.470,-1037.150,129.630,530.070
276,46151.422000,255.002,-92.681,138.915,417.042,-318.564,183.366,-857.150,344.630,-282.930
277,46151.465000,200.109,-59.616,107.163,424.890,-312.019,176.676,-712.150,236.630,-532.930
278,46151.507000,184.140,26.552,78.388,427.796,-312.056,173.729,-293.150,86.630,-553.930
279,46151.542000,208.094,20.540,70.450,433.786,-299.839,168.177,-249.150,-162.370,-300.930
280,46151.582000,239.033,-5.511,67.473,434.627,-307.653,158.125,-477.150,-188.370,104.070
281,46151.602000,266.979,-53.605,70.450,432.626,-310.755,149.183,-316.150,-100.370,128.070
282,46151.642000,262.986,-71.640,76.403,435.516,-311.764,145.225,-16.150,-7.370,-210.930
283,46151.686000,244.023,-43.585,91.287,432.675,-307.051,146.335,78.850,15.630,-58.930
284,46151.724000,226.058,-58.614,121.054,433.502,-317.334,149.985,354.850,26.630,26.070
285,46151.764000,208.094,-28.556,98.233,430.721,-309.547,160.033,513.850,-16.370,241.070
286,46151.807000,220.070,49.597,153.798,424.852,-313.280,164.837,427.850,-214.370,541.070
287,46151.844000,144.218,55.609,115.101,425.801,-314.317,160.876,334.850,-580.370,323.070
288,46151.884000,125.255,-88.673,141.891,425.808,-313.451,157.949,600.850,-461.370,-318.930
289,46151.907000,318.877,-141.777,123.039,435.735,-298.183,158.390,813.850,-664.370,-203.930
290,46151.947000,275.961,-8.517,101.209,429.809,-305.725,162.105,809.850,-435.370,496.070
291,46151.987000,255.002,-50.599,87.318,425.989,-301.893,166.140,591.850,-235.370,398.070
292,46152.29000,244.023,-60.618,76.403,426.901,-306.475,170.932,551.850,-120.370,-44.930
293,46152.64000,250.012,-46.591,84.341,426.159,-292.015,182.153,639.850,42.630,-63.930
294,46152.104000,221.068,-60.618,87.318,427.187,-289.715,196.972,799.850,188.630,24.070
295,46152.144000,228.055,-67.632,74.419,421.413,-287.617,207.841,869.850,235.630,112.070
296,46152.187000,190.129,-78.654,49.612,424.487,-278.565,226.786,1239.850,119.630,51.070
297,46152.207000,195.119,-86.669,24.806,424.944,-249.616,249.232,1563.850,-101.370,-190.930
298,46152.246000,222.066,-20.540,2.977,436.923,-228.279,263.616,1941.850,-583.370,-379.930
299,46152.291000,289.934,65.628,19.845,443.262,-193.890,274.419,1962.850,-460.370,-74.930
300,46152.326000,325.864,137.769,212.341,437.580,-185.225,283.503,1276.850,54.630,624.070
301,46152.370000,339.836,283.053,159.752,425.702,-202.175,291.864,-27.150,84.630,877.070
302,46152.411000,188.133,69.636,95.256,418.641,-221.078,295.261,-338.150,263.630,518.070
303,46152.445000,303.906,-19.538,28.775,412.563,-237.500,284.958,-1014.150,88.630,422.070
304,46152.465000,267.977,-7.515,35.721,405.531,-253.725,282.527,-914.150,386.630,277.070
305,46152.510000,174.160,-4.509,46.636,394.602,-270.950,280.063,-502.150,219.630,449.070
306,46152.545000,161.185,-110.716,38.698,387.697,-278.611,279.838,-82.150,114.630,408.070
307,46152.584000,168.172,-109.714,47.628,377.912,-284.370,281.628,74.850,68.630,303.070
308,46152.624000,224.062,-37.573,98.233,378.906,-282.517,279.714,39.850,-61.370,183.070
309,46152.664000,321.871,170.834,167.690,378.783,-291.028,279.478,-296.150,-34.370,-92.930
310,46152.704000,235.041,49.597,133.953,383.523,-297.028,264.564,-1328.150,254.630,-310.930
311,46152.746000,251.010,-116.728,98.233,385.326,-304.173,243.713,-1043.150,40.630,-697.930
312,46152.764000,233.045,-98.693,38.698,399.946,-298.582,233.073,-700.150,-249.370,-798.930
313,46152.806000,233.045,-67.632,53.581,408.770,-291.944,229.338,-249.150,138.630,-459.930
314,46152.846000,196.117,-44.587,37.705,414.692,-285.216,230.519,116.850,48.630,-332.930
315,46152.885000,185.138,-67.632,32.744,421.589,-278.422,233.671,414.850,-167.370,-345.930
316,46152.930000,177.154,-78.654,39.690,429.632,-259.373,235.198,761.850,-412.370,-481.930
317,46152.975000,221.068,-27.554,74.419,434.685,-245.960,239.514,1152.850,-521.370,-355.930
318,46153.9000,297.918,80.658,142.884,439.778,-229.736,242.924,628.850,-312.370,177.070
319,46153.46000,273.965,191.875,178.605,432.779,-243.229,236.635,-160.150,-106.370,521.070
320,46153.65000,227.057,73.644,118.078,434.649,-247.195,228.659,-449.150,-161.370,198.070
321,46153.120000,317.879,-62.622,99.225,439.337,-256.951,214.625,-654.150,-378.370,-169.930
322,46153.145000,249.014,13.526,96.248,441.286,-256.057,211.703,-627.150,93.630,118.070
323,46153.189000,271.969,26.552,73.426,432.287,-274.174,210.200,-859.150,475.630,232.070
324,46153.226000,163.181,-10.521,59.535,427.290,-283.017,200.110,-1111.150,685.630,36.070
325,46153.267000,195.119,-17.534,67.473,431.915,-298.183,195.761,-1125.150,475.630,-340.930
326,46153.309000,223.064,-40.579,48.620,433.080,-284.143,190.252,-1177.150,437.630,-545.930
327,46153.346000,206.097,-38.575,64.496,438.817,-289.026,181.273,-918.150,380.630,-442.930
328,46153.366000,196.117,-51.601,75.411,441.770,-285.386,174.494,-684.150,173.630,-418.930
329,46153.416000,240.031,-78.654,123.039,443.719,-284.492,171.572,-276.150,57.630,-373.930
330,46153.454000,205.099,-79.656,144.868,447.772,-273.011,174.849,137.850,12.630,8.070
331,46153.519000,194.121,-57.613,142.884,446.653,-283.400,175.541,180.850,-143.370,336.070
332,46153.546000,231.049,7.515,160.744,447.507,-291.030,172.380,40.850,-225.370,205.070
333,46153.590000,222.066,38.575,195.473,445.640,-285.489,168.596,-138.150,-179.370,74.070
334,46153.609000,233.045,14.528,268.899,448.434,-292.357,157.590,-468.150,-77.370,109.070
335,46153.654000,259.992,-32.564,219.287,453.294,-289.899,140.945,-796.150,-339.370,-334.930
336,46153.667000,291.930,-73.644,79.380,461.990,-290.302,121.277,-961.150,-290.370,11.070
337,46153.710000,210.090,-134.763,-59.535,456.845,-307.971,99.137,-153.150,-756.370,440.070
338,46153.745000,244.023,-161.816,56.558,454.166,-295.770,132.915,1525.850,737.630,-47.930
339,46153.790000,278.955,50.599,38.698,459.158,-287.767,146.916,849.850,129.630,-119.930
340,46153.829000,348.819,84.665,63.504,455.449,-278.653,171.754,1387.850,243.630,246.070
341,46153.869000,273.965,-15.530,-3.969,448.658,-281.769,200.180,1115.850,759.630,104.070
342,46153.907000,184.140,-0.501,72.434,439.161,-270.741,228.996,1035.850,556.630,131.070
343,46153.947000,221.068,66.630,61.519,438.397,-258.093,243.117,910.850,509.630,142.070
344,46153.971000,168.172,62.622,88.310,429.684,-258.688,260.790,426.850,449.630,24.070
345,46154.14000,133.240,38.575,117.085,433.698,-250.017,264.973,313.850,71.630,-158.930
346,46154.70000,218.074,2.505,122.047,433.911,-235.754,268.321,469.850,-69.370,-72.930
347,46154.91000,226.058,6.513,90.295,438.413,6.500,280.968,212.850,23.630,-97.930
348,46154.126000,196.117,-0.501,123.039,428.191,-229.111,272.430,46.850,111.630,80.070
349,46154.171000,170.168,-29.558,125.023,429.113,-232.801,275.280,208.850,100.630,349.070
350,46154.205000,199.111,-3.507,130.977,422.261,-237.468,281.040,527.850,16.630,334.070
351,46154.225000,212.086,27.554,123.039,421.374,-232.569,288.060,681.850,5.630,364.070
352,46154.265000,251.010,28.556,100.217,421.334,-235.380,288.966,486.850,-55.370,239.070
353,46154.310000,295.922,15.530,87.318,419.605,-221.144,292.310,418.850,57.630,-168.930
354,46154.350000,239.033,-8.517,75.411,418.857,-206.001,293.713,300.850,-91.370,-197.930
355,46154.397000,316.881,-29.558,78.388,431.626,-194.659,287.165,240.850,-214.370,-218.930
356,46154.425000,289.934,34.568,74.419,430.618,-197.457,289.053,-53.150,-70.370,-87.930
357,46154.466000,263.984,29.558,88.310,429.693,-193.820,284.234,-529.150,69.630,6.070
358,46154.506000,286.940,-17.534,79.380,425.590,-208.243,276.941,-800.150,120.630,-78.930
359,46154.526000,236.039,-28.556,80.372,433.307,-210.288,267.061,-808.150,61.630,-216.930
360,46154.571000,179.150,-3.507,50.605,430.265,-218.158,257.001,-659.150,21.630,-80.930
361,46154.606000,193.123,-69.636,50.605,434.148,-218.103,257.009,-403.150,-33.370,73.070
362,46154.651000,230.051,-85.667,70.450,433.155,-219.167,253.043,143.850,-176.370,-3.930
363,46154.690000,241.029,-55.609,79.380,443.009,-208.680,251.384,315.850,-256.370,-164.930
364,46154.730000,256.998,46.591,84.341,444.840,-216.218,251.178,94.850,-62.370,-95.930
365,46154.770000,254.004,30.560,96.248,442.105,-203.992,250.529,11.850,22.630,-4.930
366,46154.806000,230.051,-43.585,72.434,443.083,-203.112,247.605,131.850,-38.370,-54.930
367,46154.827000,227.057,4.509,44.651,443.252,-191.712,249.889,221.850,-133.370,-117.930
368,46154.867000,223.064,11.523,60.527,448.074,-193.587,247.878,252.850,-136.370,-81.930
369,46154.906000,211.088,5.511,114.109,452.951,-191.680,245.972,28.850,-137.370,66.070
370,46154.947000,241.029,44.587,116.093,453.857,-195.580,240.947,-72.150,-187.370,16.070
371,46154.986000,250.012,18.536,85.333,454.915,-189.052,237.196,-130.150,-163.370,-53.930
372,46155.27000,276.959,-32.564,80.372,458.666,-197.613,233.030,-151.150,-86.370,14.070
373,46155.67000,256.000,-22.544,73.426,452.875,-194.964,229.159,-65.150,-42.370,47.070
374,46155.107000,238.035,-6.513,68.465,452.813,-199.613,231.981,11.850,49.630,39.070
375,46155.127000,238.035,-11.523,75.411,451.956,-192.009,234.158,10.850,76.630,-2.930
376,46155.167000,241.029,-2.505,84.341,456.743,-196.642,235.021,10.850,32.630,-146.930
377,46155.206000,241.029,29.558,82.357,454.815,-195.724,235.043,-107.150,34.630,-184.930
378,46155.264000,255.002,2.505,71.442,453.866,-194.687,239.005,-214.150,70.630,-128.930
379,46155.290000,274.963,-8.517,60.527,454.845,-193.807,236.080,-142.150,109.630,-9.930
380,46155.342000,281.949,1.503,119.070,449.948,-197.500,241.871,-162.150,426.630,144.070
381,46155.375000,237.037,11.523,180.589,444.003,-206.828,249.470,-313.150,471.630,188.070
382,46155.410000,207.096,11.523,134.946,437.136,-212.466,254.220,-393.150,442.630,54.070
383,46155.427000,178.152,-65.628,117.085,434.124,-219.941,258.925,-133.150,376.630,-76.930
384,46155.469000,185.138,6.513,120.062,427.340,-219.906,263.833,-45.150,196.630,-34.930
385,46155.509000,183.142,33.566,132.961,431.228,-219.772,266.794,-114.150,207.630,27.070
386,46155.549000,157.193,-3.507,110.140,428.324,-219.708,270.725,-29.150,164.630,-31.930
387,46155.589000,169.170,-20.540,97.240,427.266,-226.236,274.476,30.850,9.630,-128.930
388,46155.629000,200.109,-14.528,134.946,433.294,-211.995,273.899,-9.150,-39.370,-242.930
389,46155.674000,288.936,66.630,165.705,430.248,-220.679,268.734,-56.150,15.630,13.070
390,46155.709000,267.977,-24.548,156.775,432.309,-212.954,273.870,180.850,211.630,-42.930
391,46155.729000,197.115,-17.534,106.171,431.339,-213.729,280.732,202.850,60.630,-3.930
392,46155.766000,208.094,35.569,108.155,430.439,-208.989,281.846,144.850,62.630,35.070
393,46155.811000,185.138,17.534,117.085,429.422,-212.680,285.676,104.850,73.630,34.070
394,46155.847000,160.187,24.548,106.171,426.453,-216.530,284.581,-8.150,-10.370,20.070
395,46155.889000,187.135,26.552,113.116,429.412,-212.811,280.755,-114.150,-112.370,-32.930
396,46155.932000,204.101,13.526,112.124,429.492,-207.164,279.928,-119.150,-174.370,-149.930
397,46155.969000,229.053,-2.505,118.078,438.175,-210.035,273.961,-78.150,-192.370,-163.930
398,46155.989000,245.021,-2.505,119.070,438.259,-203.573,268.240,-111.150,-228.370,-115.930
399,46156.29000,250.012,0.501,117.085,445.012,-205.553,261.311,-83.150,-210.370,-96.930
400,46156.67000,242.027,3.507,117.085,443.092,-203.768,258.406,-43.150,-202.370,-151.930
401,46156.116000,230.051,24.548,115.101,453.785,-201.883,252.575,-180.150,-219.370,-215.930
402,46156.155000,220.070,25.550,117.085,452.884,-196.381,246.825,-267.150,-180.370,-259.930
403,46156.189000,212.086,-15.530,139.907,456.817,-191.835,238.105,-205.150,-162.370,-344.930
404,46156.227000,203.103,-26.552,143.876,461.704,-189.035,234.257,-160.150,-242.370,-210.930
405,46156.267000,193.123,-5.511,136.930,464.635,-187.208,230.378,-23.150,-193.370,112.070
406,46156.292000,289.934,19.538,137.922,465.425,-198.752,222.190,-175.150,-273.370,397.070
407,46156.327000,310.893,34.568,116.093,466.287,-205.516,216.101,-334.150,11.630,179.070
408,46156.367000,247.018,2.505,105.178,457.418,-215.043,217.789,-341.150,126.630,135.070
409,46156.409000,242.027,24.548,82.357,464.197,-215.919,216.792,-383.150,94.630,20.070
410,46156.450000,241.029,43.585,68.465,461.161,-223.709,209.685,-523.150,118.630,-54.930
411,46156.487000,218.074,49.597,63.504,461.056,-230.434,205.564,-642.150,159.630,-1.930
412,46156.540000,186.136,27.554,43.659,456.058,-240.065,201.353,-793.150,50.630,70.070
413,46156.572000,162.183,7.515,35.721,454.982,-246.042,190.365,-1084.150,-75.370,178.070
414,46156.591000,161.185,5.511,45.643,449.818,-265.497,172.110,-1237.150,-178.370,203.070
415,46156.627000,159.189,-19.538,56.558,456.428,-275.463,149.221,-1284.150,-387.370,120.070
416,46156.681000,224.062,3.507,38.698,453.312,-285.829,116.468,-1189.150,-602.370,63.070
417,46156.712000,268.975,-18.536,95.256,459.031,-290.187,91.767,-988.150,-572.370,162.070
418,46156.751000,312.889,-221.933,240.124,450.106,-301.974,79.621,-195.150,-565.370,119.070
419,46156.790000,351.813,-276.039,150.822,458.922,-296.203,78.812,606.850,24.630,-49.930
420,46156.830000,228.055,-87.671,46.636,447.257,-301.199,110.129,1413.850,299.630,326.070
421,46156.870000,269.973,-66.630,27.783,449.472,-285.331,137.132,1808.850,14.630,-99.930
422,46156.890000,268.975,56.611,61.519,453.544,-274.374,156.132,1756.850,173.630,-263.930
423,46156.929000,233.045,62.622,67.473,453.848,-256.615,184.167,1393.850,311.630,19.070
424,46156.969000,167.173,52.603,65.488,450.037,-253.439,199.003,947.850,215.630,-67.930
425,46157.12000,185.138,61.620,70.450,453.138,-241.734,211.138,582.850,75.630,-55.930
426,46157.47000,204.101,74.646,47.628,456.009,-244.529,211.065,16.850,-96.370,-159.930
427,46157.89000,228.055,123.742,29.767,459.005,-238.027,205.349,-470.150,-110.370,-278.930
428,46157.130000,228.055,27.554,43.659,462.744,-246.746,195.277,-821.150,-92.370,-236.930
429,46157.175000,257.996,-57.613,185.550,463.730,-244.237,182.561,-920.150,42.630,-124.930
430,46157.190000,319.875,-180.853,198.450,458.792,-250.006,181.409,-379.150,168.630,14.070
431,46157.229000,224.062,-69.636,171.659,457.842,-250.518,198.114,688.850,547.630,-180.930
432,46157.271000,217.076,60.618,59.535,449.354,-235.904,219.162,829.850,472.630,139.070
433,46157.311000,255.002,-15.530,102.202,442.363,-250.053,223.675,138.850,42.630,487.070
434,46157.350000,223.064,-14.528,83.349,433.547,-256.586,231.347,278.850,178.630,408.070
435,46157.391000,198.113,0.501,94.264,433.625,-252.514,242.280,277.850,192.630,258.070
436,46157.434000,158.191,39.577,63.504,430.605,-260.094,243.048,-58.150,77.630,264.070
437,46157.470000,143.220,56.611,47.628,420.798,-266.903,240.875,-432.150,91.630,206.070
438,46157.490000,197.115,45.589,45.643,422.387,-289.099,222.555,-1193.150,-45.370,99.070
439,46157.529000,258.994,-61.620,89.302,416.519,-290.522,207.752,-1405.150,-41.370,-78.930
440,46157.570000,258.994,-134.763,192.496,423.171,-298.412,191.806,-910.150,42.630,-402.930
441,46157.612000,354.807,-203.898,165.705,428.063,-294.772,184.046,-381.150,247.630,-377.930
442,46157.649000,242.027,-27.554,75.411,422.269,-293.698,191.935,13.850,352.630,114.070
443,46157.691000,197.115,-16.532,72.434,416.363,-300.216,198.629,266.850,-6.370,134.070
444,46157.736000,187.135,-35.569,95.256,426.180,-292.513,198.860,279.850,-162.370,-128.930
445,46157.771000,150.207,65.628,144.868,431.027,-293.285,202.781,260.850,-200.370,32.070
446,46157.791000,193.123,110.716,86.326,426.211,-290.569,200.881,221.850,-353.370,249.070
447,46157.831000,132.242,69.636,64.496,425.114,-298.359,192.794,155.850,-441.370,324.070
448,46157.871000,156.195,-112.720,144.868,426.004,-303.231,186.758,-79.150,-561.370,7.070
449,46157.910000,355.805,-118.732,133.953,437.789,-292.087,173.318,367.850,-739.370,-636.930
450,46157.950000,295.922,41.581,114.109,443.831,-276.901,172.767,321.850,-418.370,46.070
451,46157.995000,322.869,-83.663,106.171,442.762,-283.560,171.596,109.850,-182.370,205.070
452,46158.30000,262.986,-92.681,96.248,444.782,-277.912,169.789,326.850,-203.370,-68.930
453,46158.50000,237.037,-9.519,60.527,443.837,-276.822,175.720,570.850,-95.370,76.070
454,46158.90000,187.135,-59.616,80.372,440.945,-276.600,185.557,591.850,145.630,-5.930
455,46158.130000,165.177,-52.603,91.287,446.996,-262.831,202.672,841.850,151.630,-353.930
456,46158.170000,173.162,-14.528,44.651,453.056,-247.408,210.980,1110.850,-181.370,-247.930
457,46158.216000,216.078,-5.511,29.767,455.284,-229.071,224.280,1282.850,-138.370,-231.930
458,46158.252000,214.082,-2.505,27.783,462.349,-211.664,235.596,1215.850,-35.370,-407.930
459,46158.292000,206.097,5.511,34.729,466.607,-186.785,245.148,1289.850,-259.370,-504.930
460,46158.332000,235.041,18.536,29.767,472.820,-160.172,247.866,1194.850,-374.370,-109.930
461,46158.351000,284.943,64.626,268.899,476.779,-154.523,245.079,213.850,-285.370,-37.930
462,46158.392000,325.864,508.493,120.062,477.551,-167.065,234.895,-1169.150,-204.370,-319.930
463,46158.434000,98.308,44.587,93.271,486.278,-165.524,217.247,-1432.150,-543.370,-532.930
464,46158.474000,506.511,-100.697,-95.256,492.660,-189.202,176.272,-1792.150,-1431.370,539.070
465,46158.514000,288.936,67.632,25.798,482.561,-216.684,178.441,-1427.150,568.630,791.070
466,46158.552000,183.142,-22.544,40.682,467.611,-242.660,168.841,-1331.150,583.630,686.070
467,46158.592000,101.302,-81.659,34.729,461.501,-262.574,169.260,-900.150,389.630,-70.930
468,46158.635000,137.232,-65.628,49.612,465.410,-259.105,155.593,-702.150,-172.370,-229.930
469,46158.654000,207.096,-77.652,3.969,473.191,-256.500,142.892,-207.150,-499.370,-184.930
470,46158.694000,203.103,-97.691,5.953,468.412,-251.762,145.966,528.850,-95.370,-68.930
471,46158.750000,204.101,-127.750,66.481,472.460,-241.121,153.154,996.850,-306.370,-140.930
472,46158.772000,269.973,-78.654,69.457,475.596,-226.658,162.414,1587.850,-362.370,-133.930
473,46158.812000,411.696,195.883,218.295,481.440,-225.551,165.406,592.850,-392.370,60.070
474,46158.854000,313.887,275.037,131.969,471.578,-236.143,163.127,-732.150,394.630,653.070
475,46158.890000,260.990,-100.697,97.240,471.498,-241.791,163.954,-948.150,540.630,-245.930
476,46158.931000,254.004,-139.773,0.000,473.498,-237.928,166.032,-301.150,491.630,-361.930
477,46158.952000,157.193,4.509,56.558,471.594,-235.933,171.002,-299.150,24.630,-83.930
478,46158.992000,222.066,21.542,18.853,468.533,-246.349,171.691,-308.150,319.630,67.070
479,46159.32000,167.173,-55.609,63.504,468.579,-244.221,180.602,-270.150,512.630,-6.930
480,46159.71000,153.201,-97.691,72.434,468.726,-234.633,185.787,347.850,117.630,-486.930
481,46159.111000,226.058,12.524,58.543,476.875,-209.595,199.285,746.850,203.630,-722.930
482,46159.151000,274.963,109.714,50.605,475.964,-206.534,208.221,967.850,96.630,-363.930
483,46159.191000,310.893,133.761,112.124,476.230,-189.276,217.554,588.850,214.630,393.070
484,46159.234000,258.994,14.528,87.318,471.188,-203.292,226.008,335.850,150.630,415.070
485,46159.250000,255.002,17.534,102.202,466.394,-200.287,234.936,184.850,192.630,222.070
486,46159.291000,211.088,16.532,74.419,458.521,-208.697,242.557,224.850,171.630,258.070
487,46159.332000,213.084,-17.534,54.574,455.611,-208.712,243.536,417.850,-29.370,448.070
488,46159.371000,249.014,47.593,39.690,454.503,-218.182,243.270,353.850,-188.370,574.070
489,46159.410000,321.871,53.605,27.783,448.589,-224.805,246.027,10.850,-96.370,194.070
490,46159.452000,222.066,-15.530,172.651,447.825,-211.396,253.284,-58.150,386.630,-743.930
491,46159.492000,98.308,16.532,202.419,457.722,-198.046,252.688,-280.150,58.630,-756.930
492,46159.534000,150.207,-95.687,93.271,465.387,-203.847,243.687,-198.150,-446.370,115.070
493,46159.554000,222.066,-0.501,97.240,464.386,-205.017,235.784,46.850,-296.370,378.070
494,46159.602000,148.211,111.718,47.628,473.880,-217.620,218.728,-726.150,-242.370,-216.930
495,46159.639000,170.168,108.712,129.984,479.752,-211.550,195.301,-235.150,-959.370,49.070
496,46159.674000,371.774,-83.663,66.481,473.766,-222.166,190.077,-238.150,-138.370,384.070
497,46159.710000,338.838,231.953,181.581,480.657,-213.928,176.547,-936.150,-209.370,-909.930
498,46159.752000,382.752,77.652,67.473,493.306,-210.282,164.867,-1176.150,-79.370,-764.930
499,46159.791000,256.000,-38.575,-8.930,492.280,-212.556,151.031,-1242.150,271.630,-245.930
500,46159.826000,168.172,44.587,25.798,496.076,-218.227,148.913,-1492.150,344.630,418.070
501,46159.856000,109.287,-4.509,-4.961,481.106,-244.466,129.469,-1510.150,-92.370,544.070
502,46159.895000,137.232,23.546,-11.907,478.808,-265.247,95.445,-1777.150,-302.370,480.070
503,46159.931000,226.058,-73.644,30.760,474.680,-278.464,62.611,-1720.150,-581.370,290.070
504,46159.973000,322.869,-197.886,367.132,474.673,-277.781,52.794,-635.150,92.630,46.070
505,46160.19000,512.499,-516.509,307.597,471.659,-283.760,42.786,420.850,-238.370,-221.930
506,46160.52000,107.290,-138.771,33.736,474.751,-275.232,77.455,1470.850,558.630,45.070
507,46160.92000,256.000,0.501,0.992,472.847,-276.308,108.897,1831.850,112.630,231.070
508,46160.112000,304.904,110.716,47.628,475.043,-261.464,132.921,1516.850,217.630,-375.930
509,46160.152000,174.160,44.587,41.674,478.125,-251.546,148.939,1065.850,71.630,-416.930
510,46160.192000,146.214,69.636,-12.899,485.148,-236.975,160.176,603.850,324.630,-239.930
511,46160.232000,115.275,146.787,25.798,485.242,-231.144,166.240,49.850,33.630,-59.930
512,46160.279000,234.043,130.755,-5.953,487.059,-237.343,145.415,-939.150,-353.370,-15.930
513,46160.322000,324.866,5.511,109.147,485.962,-245.132,137.328,-856.150,-44.370,116.070
514,46160.356000,379.758,-219.930,224.248,484.991,-244.384,130.461,-371.150,126.630,-223.930
515,46160.391000,273.965,-54.607,158.760,486.978,-242.229,139.377,582.850,184.630,-319.930
516,46160.411000,279.953,45.589,105.178,484.263,-230.501,155.437,995.850,288.630,208.070
517,46160.451000,286.940,9.519,59.535,476.371,-240.697,166.943,316.850,418.630,239.070
518,46160.491000,182.144,-44.587,101.209,468.573,-245.062,184.513,569.850,359.630,281.070
519,46160.531000,155.197,-4.509,51.597,461.835,-243.659,205.197,952.850,332.630,615.070
520,46160.572000,173.162,60.618,40.682,451.005,-255.761,217.629,680.850,148.630,774.070
521,46160.616000,172.164,125.746,35.721,443.173,-260.573,218.466,-317.150,105.630,447.070
522,46160.651000,213.084,80.658,48.620,439.117,-272.081,214.204,-669.150,82.630,239.070
523,46160.692000,268.975,-62.622,54.574,436.879,-291.311,202.846,-1174.150,211.630,88.070
524,46160.719000,321.871,-9.519,120.062,435.854,-292.797,183.131,-1570.150,419.630,-207.930
525,46160.751000,290.932,-68.634,111.132,433.637,-310.214,168.872,-1716.150,518.630,-269.930
526,46160.806000,195.119,-168.830,116.093,433.688,-305.723,160.145,-1263.150,398.630,-550.930
527,46160.837000,146.214,13.526,92.279,440.533,-301.136,151.431,-883.150,277.630,-631.930
528,46160.880000,176.156,35.569,89.302,451.319,-291.897,137.936,-741.150,-62.370,-543.930
529,46160.914000,217.076,-45.589,106.171,458.107,-290.357,121.269,-619.150,-228.370,-275.930
530,46160.952000,297.918,-155.804,145.860,460.958,-294.177,118.216,-13.150,-15.370,-308.930
531,46161.29000,218.074,39.577,154.791,461.996,-290.223,124.230,289.850,-126.370,423.070
532,46161.36000,168.172,21.542,125.023,455.024,-302.586,124.858,466.850,-309.370,390.070
533,46161.52000,186.136,-117.730,130.977,453.120,-299.829,122.964,691.850,-641.370,345.070
534,46161.101000,291.930,-32.564,109.147,449.186,-302.853,117.955,795.850,-800.370,572.070
535,46161.136000,233.045,-15.530,76.403,443.255,-310.474,118.717,799.850,-631.370,621.070
536,46161.194000,264.982,-129.753,96.248,439.264,-318.068,119.483,915.850,-718.370,381.070
537,46161.212000,247.018,-79.656,56.558,438.353,-315.008,128.419,1270.850,-512.370,356.070
538,46161.254000,195.119,-89.675,60.527,430.571,-318.400,147.000,1291.850,-190.370,399.070
539,46161.278000,184.140,-60.618,52.589,435.594,-309.215,169.887,1488.850,103.630,75.070
540,46161.312000,150.207,-41.581,66.481,433.894,-295.372,193.875,1618.850,251.630,-314.930
541,46161.352000,179.150,-52.603,42.667,448.111,-254.804,219.618,1980.850,-331.370,-822.930
542,46161.397000,256.000,-9.519,15.876,461.107,-230.537,237.036,2120.850,-352.370,-777.930
543,46161.440000,244.023,54.607,-8.930,463.625,-192.342,250.890,2014.850,-108.370,-244.930
544,46161.475000,247.018,-2.505,20.837,465.816,-176.790,266.080,2049.850,-379.370,51.070
545,46161.515000,270.971,76.650,267.907,465.217,-152.794,280.517,1472.850,140.630,-4.930
546,46161.560000,475.571,508.493,160.744,465.170,-155.710,277.485,-684.150,327.630,619.070
547,46161.589000,121.263,48.595,59.535,461.140,-166.114,279.156,-772.150,286.630,-29.930
548,46161.612000,394.729,-36.571,-35.721,466.554,-191.303,252.891,-1951.150,-589.370,613.070
549,46161.656000,231.049,22.544,67.473,446.641,-226.461,255.814,-1389.150,1246.630,279.070
550,46161.696000,182.144,-4.509,-8.930,444.469,-240.989,243.603,-1386.150,218.630,415.070
551,46161.736000,131.244,-52.603,79.380,434.532,-256.388,238.240,-1260.150,558.630,-96.930
552,46161.776000,168.172,-91.679,45.643,435.365,-264.308,224.250,-1171.150,-97.370,-205.930
553,46161.821000,207.096,-85.667,54.574,440.154,-266.604,206.489,-685.150,-504.370,-188.930
554,46161.869000,251.010,-109.714,18.853,445.981,-264.946,194.742,101.850,-210.370,-185.930
555,46161.892000,258.994,-133.761,124.031,448.130,-252.257,208.869,835.850,219.630,-302.930
556,46161.929000,301.910,131.757,204.403,453.012,-250.271,209.916,215.850,-390.370,6.070
557,46161.961000,289.934,142.779,136.930,447.951,-263.789,201.663,-446.150,20.630,377.070
558,46161.996000,270.971,-123.742,66.481,445.015,-265.669,203.573,-250.150,217.630,-62.930
559,46162.36000,241.029,-130.755,-5.953,450.989,-255.972,209.754,618.850,86.630,-43.930
560,46162.75000,242.027,5.511,50.605,448.180,-250.838,226.614,607.850,198.630,-175.930
561,46162.115000,229.053,46.591,37.705,441.403,-249.936,228.595,453.850,144.630,-5.930
562,46162.154000,187.135,-22.544,64.496,444.422,-243.905,240.571,316.850,277.630,140.070
563,46162.176000,226.058,-16.532,53.581,435.702,-243.818,248.427,516.850,204.630,-42.930
564,46162.215000,244.023,30.560,99.225,437.948,-224.483,263.723,735.850,320.630,-387.930
565,46162.260000,259.992,101.699,97.240,428.288,-223.253,279.479,649.850,371.630,-86.930
566,46162.301000,241.029,74.646,123.039,428.502,-209.725,290.675,556.850,378.630,250.070
567,46162.336000,239.033,1.503,158.760,417.747,-217.020,306.192,497.850,422.630,351.070
568,46162.376000,240.031,96.689,140.899,411.002,-214.935,317.058,302.850,227.630,305.070
569,46162.416000,197.115,37.573,84.341,405.177,-215.806,322.926,343.850,250.630,294.070
570,46162.462000,234.043,-48.595,110.140,394.577,-211.885,333.837,456.850,152.630,296.070
571,46162.486000,288.936,-96.689,168.682,390.763,-207.973,340.824,756.850,177.630,38.070
572,46162.516000,111.283,-18.536,104.186,387.193,-187.854,353.181,883.850,203.630,-69.930
573,46162.562000,48.405,-48.595,22.822,391.290,-173.509,357.522,710.850,-283.370,-290.930
574,46162.606000,171.166,36.571,150.822,399.226,-161.211,353.943,340.850,-406.370,-103.930
575,46162.635000,384.749,289.065,205.395,408.718,-174.602,342.766,-861.150,-415.370,132.070
576,46162.674000,262.986,-59.616,109.147,408.631,-179.567,333.776,-628.150,-261.370,-142.930
577,46162.714000,212.086,-26.552,119.070,416.150,-194.929,320.574,-645.150,-133.370,-300.930
578,46162.754000,276.959,180.853,109.147,422.852,-199.116,301.780,-1680.150,-605.370,-435.930
579,46162.774000,295.922,87.671,55.566,438.065,-217.600,273.751,-1845.150,-321.370,-453.930
580,46162.815000,226.058,5.511,30.760,437.724,-238.143,247.605,-1833.150,-21.370,-196.930
581,46162.855000,188.133,10.521,49.612,439.413,-253.667,231.438,-1750.150,383.630,-297.930
582,46162.894000,134.238,8.517,17.860,435.218,-272.347,206.321,-1981.150,102.630,-131.930
583,46162.955000,156.195,19.538,-18.853,436.958,-283.379,181.427,-1899.150,-341.370,412.070
584,46162.980000,159.189,-22.544,-19.845,427.656,-316.945,132.281,-2214.150,-738.370,669.070
585,46163.15000,264.982,-66.630,93.271,427.406,-328.637,83.759,-1975.150,-581.370,127.070
586,46163.55000,512.499,-516.509,359.194,438.190,-318.663,62.415,-329.150,-736.370,-632.930
587,46163.80000,105.294,-165.824,62.512,443.190,-310.555,80.354,851.850,906.630,-35.930
588,46163.116000,122.261,-48.595,15.876,438.285,-317.425,108.679,1834.850,17.630,573.070
589,46163.156000,190.129,1.503,15.876,442.487,-299.401,144.597,2178.850,-178.370,-9.930
590,46163.195000,431.657,171.836,38.698,440.757,-286.714,160.685,1169.850,312.630,-143.930
591,46163.235000,182.144,52.603,-25.798,445.794,-275.061,169.870,807.850,-39.370,-208.930
592,46163.275000,141.224,46.591,77.395,445.835,-273.747,183.677,567.850,-67.370,-203.930
593,46163.320000,177.154,56.611,17.860,451.860,-259.559,181.131,212.850,-395.370,-351.930
594,46163.360000,263.984,61.620,75.411,458.695,-255.864,174.360,-14.150,-156.370,-461.930
595,46163.376000,290.932,47.593,117.085,462.650,-250.267,169.605,-663.150,250.630,-142.930
596,46163.422000,314.885,-163.820,174.636,457.732,-255.011,171.432,-306.150,158.630,-58.930
597,46163.461000,219.072,-70.638,157.767,458.890,-243.360,182.577,596.850,485.630,-258.930
598,46163.496000,272.967,90.677,43.659,453.136,-240.999,203.289,617.850,324.630,130.070
599,46163.542000,239.033,62.622,5.953,452.065,-247.685,201.134,-628.150,84.630,161.070
600,46163.580000,180.148,5.511,76.403,446.125,-256.172,204.822,-415.150,508.630,18.070
601,46163.616000,197.115,4.509,70.450,439.374,-253.406,205.872,-349.150,245.630,-84.930
602,46163.669000,202.105,49.597,36.713,443.068,-265.775,200.616,-700.150,283.630,-112.930
603,46163.676000,171.166,31.562,40.682,440.122,-267.026,190.740,-984.150,65.630,10.070
604,46163.716000,207.096,-11.523,64.496,436.986,-281.488,181.480,-1032.150,50.630,413.070
605,46163.756000,243.025,-90.677,84.341,430.917,-297.017,169.234,-803.150,-1.370,244.070
606,46163.796000,345.825,-69.636,149.829,423.906,-310.668,157.040,-736.150,57.630,173.070
607,46163.837000,271.969,-110.716,190.512,420.023,-309.961,150.168,-677.150,439.630,-175.930
608,46163.882000,196.117,-115.726,96.248,430.757,-306.001,151.279,-385.150,351.630,-480.930
609,46163.937000,137.232,75.648,83.349,432.781,-300.300,151.441,-363.150,165.630,-378.930
610,46163.945000,205.099,136.767,57.550,436.698,-295.964,134.847,-982.150,-168.370,-425.930
611,46163.975000,260.990,-30.560,112.124,441.641,-287.833,118.360,-830.150,-61.370,-657.930
612,46164.16000,284.943,-127.750,123.039,445.579,-283.995,118.474,-140.150,157.630,-86.930
613,46164.57000,126.253,-117.730,125.023,437.546,-302.151,115.004,19.850,-108.370,885.070
614,46164.110000,180.148,-17.534,140.899,431.586,-310.902,108.849,729.850,-823.370,654.070
615,46164.139000,256.000,-11.523,122.047,428.619,-314.726,108.738,787.850,-648.370,53.070
616,46164.192000,312.889,53.605,158.760,434.555,-307.052,109.945,484.850,-292.370,-212.930
617,46164.215000,249.014,-38.575,143.876,432.657,-304.216,111.004,7.850,101.630,-129.930
618,46164.235000,177.154,-115.726,124.031,434.711,-296.597,112.203,-90.150,31.630,69.070
619,46164.275000,248.016,-63.624,127.008,428.681,-310.864,111.796,109.850,39.630,303.070
620,46164.319000,169.170,-30.560,82.357,424.749,-315.384,121.500,220.850,320.630,111.070
621,46164.380000,237.037,-144.783,85.333,423.891,-309.329,136.421,247.850,472.630,-144.930
622,46164.397000,172.164,-79.656,52.589,428.849,-303.297,147.417,804.850,304.630,-231.930
623,46164.437000,193.123,-90.677,31.752,433.967,-287.519,169.504,1225.850,93.630,-316.930
624,46164.479000,209.092,-63.624,17.860,440.248,-258.488,191.961,1838.850,-108.370,-386.930
625,46164.519000,244.023,14.528,45.643,446.412,-237.102,211.255,1889.850,-215.370,-281.930
626,46164.536000,309.895,93.683,70.450,446.650,-221.735,220.535,1651.850,-311.370,-133.930
627,46164.575000,320.873,164.822,246.078,448.700,-215.691,233.494,751.850,80.630,154.070
628,46164.641000,270.971,410.301,160.744,442.780,-222.393,233.297,-752.150,275.630,470.070
629,46164.657000,62.378,114.724,56.558,439.504,-246.339,222.790,-1330.150,149.630,135.070
630,46164.696000,271.969,-71.640,30.760,435.432,-257.296,203.790,-1645.150,-515.370,405.070
631,46164.742000,289.934,-135.765,65.488,429.327,-274.847,186.570,-1021.150,317.630,199.070
632,46164.777000,204.101,-45.589,77.395,429.289,-276.870,181.595,-218.150,-165.370,47.070
633,46164.817000,213.084,-30.560,50.605,426.241,-285.580,175.446,-176.150,-86.370,108.070
634,46164.836000,235.041,-95.687,81.364,423.305,-286.698,170.492,-156.150,-334.370,185.070
635,46164.877000,232.047,-118.732,91.287,425.251,-286.618,172.465,434.850,-40.370,93.070
636,46164.917000,221.068,-105.706,95.256,424.284,-287.341,181.296,766.850,-67.370,75.070
637,46164.956000,232.047,32.564,195.473,423.467,-277.688,189.432,368.850,12.630,-45.930
638,46164.996000,310.893,133.761,184.558,416.547,-286.321,188.196,-279.150,339.630,112.070
639,46165.37000,191.127,-41.581,174.636,419.381,-291.901,190.013,-628.150,266.630,-337.930
640,46165.77000,208.094,-105.706,123.039,423.371,-283.546,182.383,-268.150,-53.370,-449.930
641,46165.121000,216.078,-96.689,2.977,427.399,-273.929,186.592,179.850,207.630,228.070
642,46165.136000,184.140,13.526,-0.992,417.475,-289.932,193.999,93.850,110.630,344.070
643,46165.177000,72.359,52.603,32.744,421.391,-287.906,197.013,258.850,93.630,267.070
644,46165.220000,172.164,-218.928,124.031,416.605,-284.035,203.014,1132.850,-504.370,63.070
645,46165.259000,323.867,-57.613,57.550,425.768,-256.119,217.577,1950.850,-390.370,-301.930
646,46165.300000,325.864,244.978,116.093,425.087,-239.320,245.584,1893.850,183.630,393.070
647,46165.337000,261.988,74.646,140.899,415.496,-234.124,268.335,1235.850,66.630,649.070
648,46165.394000,232.047,21.542,135.938,408.650,-238.711,277.049,846.850,100.630,534.070
649,46165.412000,268.975,19.538,135.938,401.029,-230.047,287.113,1116.850,-88.370,400.070
650,46165.437000,246.020,71.640,128.000,395.206,-231.652,300.829,957.850,251.630,625.070
651,46165.477000,222.066,33.566,172.651,372.803,-239.112,316.321,487.850,276.630,888.070
652,46165.522000,292.928,-7.515,195.473,367.981,-237.999,325.197,505.850,454.630,602.070
653,46165.559000,202.105,38.575,129.984,347.559,-243.382,346.652,356.850,800.630,584.070
654,46165.597000,102.300,-64.626,114.109,336.987,-238.331,364.480,582.850,643.630,84.070
655,46165.636000,66.370,-74.646,79.380,331.337,-227.722,375.585,746.850,308.630,-81.930
656,46165.677000,269.973,38.575,115.101,330.537,-216.309,378.852,493.850,10.630,143.070
657,46165.700000,183.142,102.701,106.171,322.837,-213.266,390.727,223.850,421.630,103.070
658,46165.739000,124.257,-2.505,118.078,315.106,-212.167,400.581,37.850,419.630,-8.930
659,46165.776000,84.335,-30.560,182.574,312.286,-205.642,398.790,10.850,259.630,-189.930
660,46165.820000,108.288,2.505,208.372,316.171,-205.561,399.783,105.850,13.630,-34.930
661,46165.856000,212.086,85.667,184.558,315.139,-210.197,403.586,122.850,29.630,54.070
662,46165.907000,137.232,-52.603,181.581,321.140,-197.848,402.956,180.850,4.630,-232.930
663,46165.937000,113.279,79.656,214.326,327.933,-197.778,401.986,-25.150,-383.370,28.070
664,46165.982000,144.218,89.675,191.504,341.527,-195.984,391.239,-156.150,-394.370,-124.930
665,46166.2000,250.012,-33.566,191.504,346.419,-192.343,383.480,-166.150,-407.370,-122.930
666,46166.41000,178.152,24.548,216.310,366.712,-196.311,365.698,-527.150,-735.370,-418.930
667,46166.81000,172.164,-25.550,169.674,386.217,-187.946,350.226,211.850,-854.370,-484.930
668,46166.121000,267.977,-48.595,116.093,411.883,-156.699,339.335,1130.850,-1010.370,-497.930
669,46166.161000,414.690,37.573,89.302,426.653,-141.494,334.865,1150.850,-832.370,-396.930
670,46166.201000,302.908,115.726,74.419,436.721,-115.956,330.674,869.850,-415.370,-50.930
671,46166.237000,272.967,164.822,39.690,446.297,-123.647,320.640,-326.150,-551.370,-45.930
672,46166.281000,331.852,117.730,15.876,452.902,-134.453,301.662,-1059.150,-335.370,325.070
673,46166.301000,426.667,-57.613,27.783,450.701,-151.660,295.278,-781.150,92.630,19.070
674,46166.337000,332.850,1.503,6.946,448.652,-158.465,289.184,-1098.150,170.630,8.070
675,46166.377000,287.938,-0.501,39.690,437.552,-187.878,290.314,-1077.150,705.630,257.070
676,46166.419000,208.094,-51.601,60.527,429.734,-192.505,298.041,-677.150,720.630,131.070
677,46166.460000,180.148,29.558,59.535,415.945,-207.565,307.435,-578.150,652.630,78.070
678,46166.500000,153.201,21.542,53.581,411.029,-212.283,310.247,-686.150,615.630,-90.930
679,46166.540000,182.144,-22.544,79.380,406.974,-224.552,312.849,-605.150,513.630,-211.930
680,46166.580000,193.123,-24.548,88.310,405.108,-219.772,315.930,-522.150,388.630,-332.930
681,46166.600000,219.072,-10.521,84.341,407.988,-221.675,313.915,-246.150,308.630,-354.930
682,46166.640000,258.994,-24.548,83.349,405.188,-214.125,315.104,-126.150,248.630,-211.930
683,46166.680000,253.006,-9.519,79.380,404.259,-212.063,322.045,115.850,257.630,-14.930
684,46166.719000,239.033,-7.515,104.186,397.500,-210.163,326.021,180.850,158.630,38.070
685,46166.759000,211.088,-7.515,92.279,398.451,-211.935,329.907,225.850,88.630,65.070
686,46166.799000,182.144,-10.521,84.341,399.544,-203.437,329.162,323.850,-207.370,128.070
687,46166.837000,203.103,-55.609,84.341,403.406,-204.406,326.191,440.850,-421.370,339.070
688,46166.877000,231.049,-15.530,102.202,405.401,-200.623,325.316,616.850,-493.370,319.070
689,46166.897000,242.027,55.609,101.209,409.305,-198.755,322.423,471.850,-513.370,220.070
690,46166.941000,232.047,43.585,106.171,417.117,-194.968,318.607,121.850,-436.370,125.070
691,46166.980000,224.062,12.524,102.202,422.909,-196.068,309.734,-53.150,-405.370,87.070
692,46167.21000,222.066,26.552,102.202,424.697,-205.708,301.600,-189.150,-373.370,-32.930
693,46167.60000,211.088,51.601,107.163,435.419,-201.144,289.942,-436.150,-417.370,-141.930
694,46167.97000,204.101,69.636,105.178,441.092,-209.153,270.056,-633.150,-400.370,-208.930
695,46167.137000,221.068,43.585,114.109,443.004,-210.282,262.159,-865.150,-256.370,-331.930
696,46167.157000,254.004,41.581,91.287,452.530,-220.154,241.245,-1043.150,-266.370,-254.930
697,46167.202000,287.938,26.552,74.419,454.290,-230.923,226.194,-1054.150,-250.370,111.070
698,46167.237000,253.006,-36.571,66.481,447.239,-246.623,208.041,-846.150,-172.370,310.070
699,46167.282000,258.994,-14.528,66.481,452.973,-251.559,197.093,-650.150,-248.370,231.070
700,46167.322000,255.002,-49.597,62.512,452.740,-266.847,190.766,-360.150,-223.370,309.070
701,46167.359000,256.998,-92.681,69.457,448.857,-266.140,183.894,-118.150,-84.370,292.070
702,46167.400000,228.055,-66.630,65.488,442.900,-275.627,185.587,113.850,66.630,201.070
703,46167.441000,189.131,-38.575,54.574,443.965,-269.781,191.653,342.850,131.630,140.070
704,46167.461000,198.113,-63.624,44.651,437.159,-271.558,199.461,569.850,-20.370,66.070
705,46167.506000,200.109,-82.661,64.496,439.309,-258.081,207.709,967.850,-150.370,-129.930
706,46167.541000,221.068,59.616,122.047,446.324,-243.616,215.008,1030.850,-315.370,-63.930
707,46167.581000,283.945,152.798,158.760,449.213,-245.413,216.930,529.850,-407.370,-129.930
708,46167.621000,337.840,49.597,126.016,446.403,-238.756,220.061,-136.150,302.630,-55.930
709,46167.661000,272.967,-83.663,70.450,448.425,-233.843,226.103,49.850,257.630,-220.930
710,46167.701000,283.945,-65.628,98.233,451.467,-225.973,236.163,461.850,231.630,-86.930
711,46167.740000,285.942,24.548,47.628,448.612,-222.205,237.247,31.850,77.630,-79.930
712,46167.761000,237.037,4.509,46.636,449.583,-222.953,244.113,-44.150,313.630,-275.930
713,46167.800000,186.136,-33.566,52.589,446.738,-219.054,250.118,149.850,292.630,-393.930
714,46167.840000,135.236,-57.613,16.868,448.896,-204.710,255.439,294.850,90.630,-395.930
715,46167.879000,115.275,-24.548,-52.589,455.899,-190.403,256.832,564.850,-209.370,-329.930
716,46167.921000,83.337,10.521,38.698,456.125,-175.955,267.071,1204.850,-75.370,-55.930
717,46167.962000,207.096,-23.546,241.116,458.098,-174.745,275.960,1125.850,-179.370,33.070
718,46168.2000,512.499,218.928,204.403,465.203,-152.978,273.627,870.850,-643.370,155.070
719,46168.42000,259.992,155.804,120.062,463.056,-167.190,273.228,123.850,40.630,366.070
720,46168.62000,306.901,134.763,58.543,459.181,-167.140,277.157,-394.150,194.630,-121.930
721,46168.102000,273.965,75.648,58.543,456.173,-173.801,276.967,-713.150,304.630,-126.930
722,46168.142000,263.984,-15.530,79.380,449.251,-182.460,274.747,-1071.150,315.630,323.070
723,46168.191000,230.051,-8.517,68.465,443.093,-205.291,272.134,-1061.150,385.630,170.070
724,46168.222000,172.164,6.513,52.589,438.088,-215.000,264.971,-1191.150,296.630,-54.930
725,46168.262000,238.035,-66.630,58.543,441.773,-227.475,255.777,-1078.150,183.630,-311.930
726,46168.302000,228.055,-65.628,54.574,442.762,-225.702,250.910,-798.150,202.630,-419.930
727,46168.341000,217.076,-31.562,71.442,442.724,-228.486,252.800,-449.150,365.630,-325.930
728,46168.361000,223.064,-44.587,77.395,440.854,-224.520,260.776,-118.150,333.630,-122.930
729,46168.401000,273.965,-44.587,181.581,433.850,-239.615,265.262,-16.150,376.630,217.070
730,46168.452000,274.963,17.534,182.574,424.198,-236.731,272.212,-140.150,462.630,462.070
731,46168.482000,226.058,-6.513,137.922,415.432,-240.322,283.900,558.850,338.630,169.070
732,46168.522000,248.016,-93.683,84.341,408.781,-232.405,300.831,977.850,46.630,438.070
733,46168.562000,198.113,29.558,102.202,405.876,-233.129,310.642,809.850,-10.370,441.070
734,46168.601000,106.292,111.718,61.519,396.189,-233.003,320.465,511.850,178.630,261.070
735,46168.640000,59.384,-14.528,97.240,400.208,-224.280,326.616,627.850,51.630,-4.930
736,46168.661000,88.327,1.503,137.922,398.316,-221.365,330.628,286.850,-286.370,-174.930
737,46168.700000,380.756,66.630,213.333,411.006,-214.883,319.027,119.850,-702.370,194.070
738,46168.744000,257.996,-46.591,157.767,415.840,-215.839,316.058,95.850,15.630,-51.930
739,46168.784000,212.086,-32.564,147.845,412.892,-217.876,312.061,-79.150,-133.370,159.070
740,46168.824000,279.953,2.505,136.930,415.716,-223.588,308.957,-79.150,-195.370,114.070
741,46168.859000,270.971,-31.562,114.109,419.702,-216.047,306.222,-21.150,-145.370,-149.930
742,46168.902000,188.133,-5.511,88.310,420.679,-215.954,309.177,334.850,-35.370,-276.930
743,46168.941000,173.162,31.562,84.341,422.774,-205.498,310.455,449.850,-110.370,-115.930
744,46168.967000,195.119,70.638,63.504,430.584,-202.499,312.519,246.850,-293.370,-0.930
745,46169.2000,173.162,61.620,48.620,430.592,-201.632,309.592,-11.150,-219.370,99.070
746,46169.64000,137.232,62.622,38.698,432.310,-215.238,294.463,-413.150,-334.370,207.070
747,46169.80000,181.146,90.677,26.791,444.761,-223.388,265.732,-1182.150,-794.370,121.070
748,46169.121000,206.097,92.681,21.829,453.163,-243.702,243.542,-1597.150,-662.370,15.070
749,46169.166000,273.965,-9.519,212.341,454.936,-251.242,207.925,-1393.150,-750.370,-7.930
750,46169.200000,512.499,-454.387,188.527,458.568,-265.189,179.019,-1063.150,-587.370,61.070
751,46169.241000,270.971,36.571,151.814,462.568,-256.702,176.311,-239.150,-41.370,-206.930
752,46169.260000,307.899,121.738,79.380,462.450,-264.373,172.163,-574.150,142.630,97.070
753,46169.301000,301.910,21.542,52.589,463.365,-267.380,165.195,-660.150,76.630,-245.930
754,46169.341000,210.090,44.587,50.605,466.307,-265.421,166.238,-701.150,520.630,-462.930
755,46169.381000,170.168,48.595,39.690,468.275,-262.741,159.431,-909.150,378.630,-291.930
756,46169.422000,130.246,18.536,39.690,466.226,-269.546,153.337,-1044.150,428.630,116.070
757,46169.462000,186.136,-8.517,65.488,458.217,-285.863,147.951,-1011.150,329.630,263.070
758,46169.501000,151.205,-0.501,55.566,449.299,-297.545,139.742,-987.150,247.630,290.070
759,46169.520000,145.216,-51.601,15.876,449.116,-308.368,123.703,-1105.150,-124.370,320.070
760,46169.562000,355.805,-95.687,161.736,441.190,-316.702,98.868,-1141.150,-235.370,150.070
761,46169.605000,471.579,-398.278,148.837,442.051,-323.492,91.795,-55.150,553.630,-174.930
762,46169.645000,179.150,-216.924,61.519,441.349,-308.505,122.703,1320.850,568.630,-364.930
763,46169.686000,273.965,-13.526,-2.977,446.447,-295.274,155.539,1931.850,151.630,-110.930
764,46169.720000,260.990,71.640,40.682,449.671,-277.369,187.517,1825.850,335.630,-60.930
765,46169.774000,137.232,42.583,23.814,449.796,-271.142,208.347,1391.850,249.630,-116.930
766,46169.804000,108.288,74.646,53.581,453.046,-249.062,219.786,660.850,69.630,-302.930
767,46169.824000,131.244,71.640,48.620,452.094,-248.077,221.779,410.850,-292.370,-53.930
768,46169.863000,196.117,50.599,42.667,462.865,-240.572,214.137,264.850,-564.370,133.070
769,46169.902000,289.934,3.507,54.574,461.884,-239.956,202.349,184.850,-427.370,-82.930
770,46169.941000,282.947,38.575,130.977,465.797,-237.195,197.515,-277.150,-442.370,-70.930
771,46169.981000,315.883,21.542,137.922,470.529,-244.850,191.408,-84.150,-194.370,-27.930
772,46170.21000,319.875,13.526,136.930,470.674,-234.527,188.744,-48.150,59.630,-252.930
773,46170.61000,247.018,16.532,87.318,470.647,-237.179,195.556,-164.150,352.630,-242.930
774,46170.101000,195.119,20.540,95.256,469.731,-233.411,195.659,-626.150,342.630,-125.930
775,46170.121000,195.119,-13.526,89.302,470.564,-242.853,195.398,-408.150,216.630,-7.930
776,46170.161000,232.047,-34.568,72.434,470.470,-249.446,196.198,-173.150,85.630,8.070
777,46170.205000,230.051,5.511,61.519,468.525,-249.526,194.225,-421.150,74.630,-14.930
778,46170.245000,202.105,2.505,68.465,463.651,-249.858,184.372,-675.150,-15.370,55.070
779,46170.291000,212.086,-10.521,82.357,463.527,-256.846,170.407,-666.150,-60.370,132.070
780,46170.321000,263.984,-21.542,95.256,455.502,-274.136,164.011,-800.150,-3.370,157.070
781,46170.365000,268.975,-15.530,116.093,458.335,-278.954,158.963,-725.150,300.630,-265.930
782,46170.411000,230.051,-1.503,89.302,465.334,-264.700,158.388,-637.150,356.630,-464.930
783,46170.444000,223.064,-14.528,70.450,467.297,-262.860,155.492,-360.150,139.630,-324.930
784,46170.465000,238.035,-30.560,63.504,464.275,-270.466,155.275,-56.150,-97.370,258.070
785,46170.509000,219.072,-32.564,90.295,459.289,-279.151,151.091,251.850,-170.370,787.070
786,46170.544000,190.129,-10.521,141.891,452.236,-297.949,158.425,629.850,-442.370,613.070
787,46170.584000,119.267,-2.505,145.860,451.369,-290.477,155.680,415.850,-339.370,32.070
788,46170.629000,61.380,-3.507,108.155,460.299,-276.327,150.187,392.850,-393.370,-1097.930
789,46170.667000,247.018,-89.675,75.411,486.153,-233.442,150.440,880.850,-447.370,-1322.930
790,46170.707000,512.499,-182.857,132.961,489.215,-223.787,156.615,407.850,-219.370,-81.930
791,46170.722000,216.078,22.544,108.155,486.445,-215.842,172.569,-53.150,430.630,-242.930
792,46170.762000,86.331,34.568,-78.388,484.515,-214.950,171.607,359.850,-363.370,254.070
793,46170.802000,149.209,-171.836,-56.558,492.377,-208.220,171.808,2038.850,-535.370,-54.930
794,46170.856000,348.819,-101.699,71.442,503.668,-167.879,190.654,1784.850,-168.370,-1122.930
795,46170.896000,497.528,508.493,290.729,506.716,-159.169,196.803,763.850,235.630,-134.930
796,46170.921000,177.154,266.020,36.713,496.758,-177.142,201.204,-452.150,154.630,494.070
797,46170.961000,368.780,-138.771,119.070,495.807,-176.131,204.182,-245.150,209.630,-94.930
798,46171.1000,288.936,-20.540,80.372,488.899,-185.368,215.716,61.850,647.630,351.070
799,46171.56000,201.107,46.591,41.674,472.173,-203.094,232.900,86.850,458.630,1103.070
800,46171.81000,87.329,-74.646,-15.876,461.186,-225.678,242.090,147.850,736.630,1035.070
801,46171.102000,-10.480,-119.734,3.969,446.493,-236.810,257.493,386.850,252.630,495.070
802,46171.142000,-21.458,-90.677,117.085,443.611,-235.695,265.388,712.850,-98.370,269.070
803,46171.182000,15.470,191.875,142.884,445.460,-240.712,253.448,188.850,-1091.370,718.070
804,46171.222000,512.499,-14.528,256.992,440.284,-261.848,243.015,24.850,-461.370,979.070
805,46171.262000,326.862,152.798,183.566,434.580,-254.233,248.136,386.850,491.630,-20.930
806,46171.282000,313.887,227.945,179.597,439.533,-247.493,250.299,187.850,-173.370,-620.930
807,46171.321000,211.088,2.505,132.961,447.593,-227.445,253.821,-267.150,282.630,-763.930
808,46171.379000,126.253,-55.609,32.744,451.482,-227.311,256.782,-496.150,403.630,-655.930
809,46171.405000,47.407,-22.544,98.233,448.674,-219.867,254.033,-355.150,128.630,-374.930
810,46171.445000,185.138,-15.530,46.636,453.453,-224.605,250.959,-260.150,-234.370,-15.930
811,46171.490000,281.949,-110.716,22.822,460.422,-211.507,242.482,6.850,-241.370,-530.930
812,46171.527000,255.002,-58.614,52.589,465.442,-200.826,250.657,273.850,-0.370,-732.930
813,46171.566000,297.918,-42.583,91.287,470.561,-182.737,253.136,921.850,-52.370,-316.930
814,46171.587000,315.883,67.632,106.171,471.710,-171.191,260.344,722.850,90.630,226.070
815,46171.622000,316.881,156.806,137.922,458.980,-179.723,265.987,232.850,216.630,779.070
816,46171.665000,246.020,22.544,71.442,449.068,-195.568,279.300,219.850,281.630,772.070
817,46171.705000,189.131,-80.658,68.465,439.246,-204.110,282.980,352.850,270.630,590.070
818,46171.747000,196.117,-18.536,64.496,433.476,-201.959,295.817,495.850,75.630,199.070
819,46171.784000,204.101,54.607,85.333,431.519,-203.720,301.667,256.850,108.630,142.070
820,46171.822000,213.084,58.614,73.426,430.517,-205.678,299.644,-329.150,-16.370,64.070
821,46171.865000,240.031,24.548,63.504,432.261,-218.181,290.446,-686.150,-104.370,-247.930
822,46171.886000,237.037,-40.579,81.364,438.179,-210.744,282.794,-734.150,-91.370,-476.930
823,46171.925000,208.094,-93.683,100.217,447.822,-213.733,271.908,-547.150,-334.370,-372.930
824,46171.964000,193.123,46.591,180.589,448.641,-222.598,257.892,-701.150,-186.370,288.070
825,46172.4000,231.049,58.614,135.938,443.437,-244.864,240.542,-782.150,-404.370,510.070
826,46172.46000,379.758,22.544,147.845,445.423,-240.424,228.866,-753.150,-285.370,-471.930
827,46172.89000,289.934,54.607,96.248,452.076,-249.076,219.784,-687.150,110.630,-355.930
828,46172.128000,187.135,72.642,84.341,456.924,-247.537,204.097,-1207.150,-199.370,-321.930
829,46172.164000,227.057,15.530,48.620,459.763,-251.515,195.139,-889.150,43.630,-461.930
830,46172.185000,199.111,42.583,28.775,468.497,-250.656,187.309,-867.150,-15.370,-19.930
831,46172.222000,145.216,71.640,-30.760,462.370,-270.020,172.989,-1069.150,-197.370,471.070
832,46172.289000,199.111,81.659,-22.822,449.268,-298.728,130.857,-1993.150,-554.370,874.070
833,46172.341000,390.737,-70.638,7.938,443.770,-337.859,83.530,-2304.150,-496.370,579.070
834,46172.356000,505.513,-516.509,422.698,450.063,-305.599,85.421,-285.150,280.630,-1072.930
835,46172.386000,28.444,-191.875,66.481,456.027,-297.556,100.409,1201.850,515.630,-330.930
836,46172.426000,78.347,10.521,11.907,454.215,-292.066,130.067,1787.850,122.630,661.070
837,46172.490000,155.197,30.560,22.822,447.398,-295.524,145.697,1795.850,-485.370,203.070
838,46172.500000,500.522,127.750,8.930,454.578,-271.234,167.041,1131.850,361.630,-561.930
839,46172.530000,216.078,-10.521,72.434,460.587,-259.540,177.212,798.850,137.630,-649.930
840,46172.571000,120.265,-13.526,26.791,469.680,-237.140,197.523,1102.850,297.630,-462.930
841,46172.608000,127.251,66.630,30.760,471.791,-226.474,206.675,937.850,-328.370,-83.930
842,46172.650000,264.982,123.742,10.915,470.763,-229.535,198.720,-266.150,-308.370,415.070
843,46172.687000,279.953,60.618,159.752,461.919,-237.198,199.475,-614.150,384.630,134.070
844,46172.731000,313.887,-193.879,209.364,466.831,-232.533,194.695,-146.150,-293.370,-383.930
845,46172.750000,238.035,-72.642,134.946,467.919,-224.848,198.845,408.850,327.630,-45.930
846,46172.790000,218.074,41.581,38.698,462.992,-231.247,209.479,444.850,188.630,451.070
847,46172.840000,301.910,104.704,28.775,458.938,-242.729,206.202,-441.150,31.630,319.070
848,46172.876000,189.131,-24.548,31.752,454.030,-247.341,212.950,-121.150,325.630,285.070
849,46172.912000,179.150,-36.571,32.744,451.960,-256.720,216.620,61.850,138.630,183.070
850,46172.957000,142.222,72.642,43.659,444.937,-271.290,205.384,-806.150,-225.370,498.070
851,46172.998000,140.226,106.708,37.705,444.639,-288.970,180.301,-1352.150,-383.370,397.070
852,46173.31000,251.010,6.513,38.698,440.547,-300.190,151.457,-1478.150,-421.370,39.070
853,46173.68000,509.505,-181.855,97.240,448.285,-298.900,124.949,-1246.150,-264.370,-351.930
854,46173.88000,299.914,-132.759,113.116,447.284,-300.070,117.046,-692.150,238.630,-403.930
855,46173.131000,272.967,-7.515,91.287,449.251,-298.938,122.982,-458.150,593.630,19.070
856,46173.183000,194.121,21.542,88.310,446.163,-311.247,123.618,-264.150,475.630,105.070
857,46173.223000,174.160,11.523,75.411,441.390,-306.429,129.646,-304.150,308.630,-4.930
858,46173.265000,195.119,-21.542,82.357,438.437,-309.307,129.561,-137.150,138.630,-184.930
859,46173.292000,225.060,-64.626,81.364,443.367,-303.644,126.776,-196.150,-43.370,-61.930
860,46173.328000,259.992,-58.614,64.496,436.443,-313.091,130.436,178.850,80.630,237.070
861,46173.352000,261.988,-43.585,57.550,437.443,-311.921,138.339,300.850,170.630,321.070
862,46173.390000,284.943,-12.524,60.527,426.684,-318.507,145.023,316.850,175.630,195.070
863,46173.446000,270.971,14.528,56.558,425.784,-314.528,153.001,325.850,163.630,72.070
864,46173.480000,218.074,76.650,54.574,416.915,-324.817,161.552,270.850,92.630,125.070
865,46173.530000,191.127,115.726,113.116,414.039,-322.100,158.672,-163.150,-199.370,266.070
866,46173.552000,105.294,-25.550,125.023,415.828,-330.952,144.659,-583.150,-343.370,-71.930
867,46173.611000,181.146,-206.904,206.388,429.766,-305.517,134.570,535.850,-384.370,-1248.930
868,46173.637000,420.678,-112.720,136.930,453.463,-278.499,143.230,1037.850,-350.370,-1302.930
869,46173.648000,308.897,-55.609,53.581,453.544,-273.613,149.268,616.850,-27.370,-6.930
870,46173.691000,195.119,-89.675,80.372,452.832,-257.996,168.390,759.850,687.630,-226.930
871,46173.728000,202.105,-99.695,40.682,442.128,-262.323,188.907,937.850,265.630,328.070
872,46173.768000,192.125,-96.689,3.969,442.198,-259.878,209.631,1431.850,56.630,373.070
873,46173.812000,211.088,-37.573,-1.984,446.504,-232.845,229.079,1891.850,-161.370,-421.930
874,46173.855000,77.349,102.701,-32.744,448.834,-207.049,238.652,1670.850,-240.370,-431.930
875,46173.898000,167.173,103.703,85.333,456.965,-182.247,243.290,1229.850,-471.370,-24.930
876,46173.947000,366.784,203.898,448.496,456.906,-185.321,234.352,-265.150,-307.370,-114.930
877,46173.960000,288.936,229.949,208.372,454.697,-203.395,230.895,-1269.150,696.630,87.070
878,46173.992000,52.398,20.540,9.922,456.471,-213.980,222.735,-1796.150,-12.370,-273.930
879,46174.33000,189.131,-45.589,28.775,460.816,-244.305,181.571,-2211.150,-829.370,503.070
880,46174.73000,387.743,-124.744,5.953,455.676,-261.134,155.520,-1295.150,297.630,224.070
881,46174.125000,108.288,-4.509,9.922,448.709,-273.444,158.117,-905.150,559.630,168.070
882,46174.153000,77.349,-74.646,18.853,436.890,-285.036,154.824,-513.150,-78.370,430.070
883,46174.191000,168.172,-127.750,-14.884,439.665,-292.141,134.959,-73.150,-1007.370,130.070
884,46174.210000,240.031,-121.738,20.837,450.640,-269.715,119.863,698.850,-654.370,-535.930
885,46174.252000,428.663,-23.546,334.388,457.515,-263.972,119.051,183.850,-255.370,-556.930
886,46174.306000,331.852,244.978,179.597,454.570,-266.745,122.903,-299.150,114.630,418.070
887,46174.340000,285.942,-128.751,128.000,458.396,-270.498,121.822,-260.150,31.630,-437.930
888,46174.370000,287.938,-130.755,14.884,464.379,-259.909,126.061,554.850,30.630,-310.930
889,46174.420000,205.099,-12.524,58.543,460.680,-249.902,148.956,1099.850,222.630,-36.930
890,46174.486000,234.043,94.685,34.729,457.862,-245.660,167.757,562.850,333.630,153.070
891,46174.518000,139.228,-7.515,25.798,452.989,-248.276,178.496,396.850,456.630,260.070
892,46174.541000,112.281,-71.640,8.930,452.158,-239.569,186.606,758.850,-100.370,-38.930
893,46174.566000,155.197,-32.564,40.682,455.220,-229.913,192.781,963.850,-186.370,-206.930
894,46174.590000,353.809,89.675,228.217,457.407,-213.652,199.139,929.850,-186.370,-129.930
895,46174.637000,424.671,161.816,152.806,459.189,-224.893,201.780,212.850,66.630,479.070
896,46174.672000,216.078,-18.536,64.496,452.563,-215.138,216.794,736.850,201.630,130.070
897,46174.711000,148.211,25.550,33.736,450.563,-219.762,221.580,15.850,23.630,154.070
898,46174.751000,319.875,53.605,57.550,450.588,-217.897,220.649,57.850,-160.370,189.070
899,46174.790000,281.949,-17.534,106.171,443.637,-229.236,224.256,-208.150,280.630,228.070
900,46174.810000,217.076,0.501,102.202,436.807,-232.090,227.116,-298.150,349.630,-12.930
901,46174.852000,217.076,-7.515,89.302,438.819,-227.308,228.236,-139.150,233.630,-425.930
902,46174.901000,321.871,15.530,79.380,441.912,-215.709,236.433,345.850,217.630,-68.930
903,46174.931000,283.945,60.618,61.519,430.992,-233.590,244.769,37.850,405.630,587.070
904,46174.981000,289.934,9.519,104.186,424.103,-241.041,252.420,-425.150,485.630,214.070
905,46175.31000,150.207,-107.710,139.907,424.209,-234.289,257.526,-148.150,337.630,-426.930
906,46175.68000,72.359,-55.609,16.868,421.197,-241.003,255.367,-375.150,-88.370,410.070
907,46175.116000,-56.390,44.587,77.395,414.139,-259.092,253.868,-80.150,13.630,962.070
908,46175.151000,-40.421,100.697,67.473,408.085,-273.675,241.649,-541.150,-465.370,547.070
909,46175.173000,512.499,-160.814,88.310,417.537,-287.593,210.786,-245.150,415.630,0.070
910,46175.208000,138.230,60.618,123.039,411.721,-288.331,221.575,23.850,-135.370,390.070
911,46175.232000,238.035,-3.507,70.450,413.703,-284.706,214.794,-493.150,-89.370,-116.930
912,46175.278000,156.195,17.534,45.643,401.761,-304.808,211.264,-281.150,-66.370,510.070
913,46175.342000,167.173,-17.534,35.721,397.712,-314.688,197.212,-710.150,-342.370,892.070
914,46175.382000,282.947,-76.650,63.504,389.551,-339.884,177.809,-389.150,-661.370,697.070
915,46175.446000,328.858,-93.683,226.233,388.590,-338.244,169.000,-12.150,-397.370,251.070
916,46175.454000,283.945,-273.033,190.512,387.490,-346.847,165.808,471.850,-448.370,194.070
917,46175.481000,193.123,-165.824,68.465,389.571,-338.860,180.788,1128.850,-91.370,342.070
918,46175.503000,294.924,23.546,-0.992,390.708,-329.782,201.698,1423.850,-146.370,49.070
919,46175.546000,350.815,102.701,15.876,396.881,-308.291,224.929,1232.850,283.630,-297.930
920,46175.581000,253.006,23.546,56.558,387.279,-303.987,249.623,928.850,353.630,-3.930
921,46175.627000,121.263,-62.622,40.682,387.378,-298.864,264.520,1015.850,43.630,194.070
922,46175.651000,209.092,114.724,24.806,383.604,-292.142,270.602,475.850,-130.370,227.070
923,46175.675000,277.957,137.769,59.535,385.589,-289.251,271.669,-246.150,64.630,3.070
924,46175.712000,290.932,-119.734,205.395,390.463,-287.370,268.779,-127.150,-55.370,-507.930
925,46175.755000,229.053,-13.526,141.891,389.753,-270.966,282.021,436.850,631.630,-273.930
926,46175.807000,197.115,48.595,79.380,385.699,-283.209,285.608,-238.150,340.630,69.070
927,46175.838000,185.138,-10.521,57.550,378.859,-285.433,276.682,-694.150,-19.370,151.070
928,46175.872000,271.969,-125.746,63.504,381.545,-299.840,266.450,-591.150,-193.370,109.070
929,46175.915000,228.055,-85.667,79.380,381.598,-296.084,265.571,26.850,8.630,35.070
930,46175.953000,230.051,43.585,36.713,377.693,-297.951,268.463,138.850,30.630,-37.930
931,46175.972000,223.064,33.566,53.581,378.553,-303.979,254.527,-564.150,-220.370,238.070
932,46176.28000,205.099,-0.501,43.659,377.374,-316.681,239.417,-661.150,-309.370,223.070
933,46176.52000,229.053,-23.546,52.589,377.202,-326.585,222.420,-753.150,-401.370,42.070
934,46176.133000,193.123,-64.626,172.651,380.007,-332.534,210.456,-682.150,-518.370,149.070
935,46176.200000,257.996,-196.885,149.829,383.787,-337.654,193.599,-145.150,-575.370,3.070
936,46176.226000,277.957,-14.528,122.047,389.715,-330.847,197.732,385.850,-10.370,-231.930
937,46176.262000,270.971,21.542,116.093,397.575,-324.144,196.948,50.850,-146.370,-209.930
938,46176.287000,265.980,-99.695,87.318,398.592,-320.453,193.118,177.850,-31.370,-134.930
939,46176.299000,210.090,-31.562,83.349,398.595,-321.188,200.967,321.850,66.630,-132.930
940,46176.330000,227.057,-3.507,72.434,399.768,-307.804,206.259,343.850,-25.370,-146.930
941,46176.353000,229.053,1.503,65.488,406.641,-302.848,211.327,242.850,-27.370,-174.930
942,46176.395000,242.027,4.509,63.504,408.642,-298.985,213.405,28.850,27.630,-85.930
943,46176.437000,256.998,9.519,77.395,405.629,-305.698,211.246,-119.150,286.630,-234.930
944,46176.473000,257.996,18.536,99.225,410.636,-295.963,219.394,-335.150,526.630,-238.930
945,46176.515000,228.055,-16.532,112.124,403.760,-302.494,226.086,-166.150,522.630,-136.930
946,46176.553000,179.150,-34.568,114.109,399.870,-304.177,235.868,-70.150,498.630,83.070
947,46176.573000,153.201,-65.628,120.062,391.151,-303.303,237.845,-68.150,321.630,67.070
948,46176.616000,150.207,-75.648,129.984,390.244,-299.429,241.886,387.850,47.630,35.070
949,46176.653000,188.133,-39.577,136.930,390.317,-295.409,250.850,631.850,-20.370,31.070
950,46176.693000,213.084,11.523,172.651,388.465,-290.445,260.821,649.850,-6.370,126.070
951,46176.736000,212.086,42.583,177.612,387.628,-282.578,272.842,463.850,267.630,145.070
952,46176.790000,163.181,-12.524,163.721,388.739,-273.843,280.956,654.850,119.630,13.070
953,46176.838000,235.041,54.607,123.039,395.667,-265.104,286.129,653.850,-377.370,-147.930
954,46176.868000,333.848,2.505,76.403,410.476,-247.089,280.753,327.850,-478.370,-566.930
955,46176.885000,345.825,-33.566,45.643,426.228,-230.951,275.327,-22.150,-441.370,-832.930
956,46176.912000,339.836,-16.532,59.535,430.242,-220.758,265.781,-84.150,-328.370,-360.930
957,46176.955000,285.942,15.530,20.837,428.116,-233.157,262.482,-814.150,177.630,128.070
958,46177.3000,302.908,-134.763,71.442,431.988,-232.473,250.704,-218.150,-181.370,-90.930
959,46177.41000,288.936,-126.748,-14.884,433.876,-236.201,251.587,362.850,-87.370,-58.930
960,46177.101000,196.117,-35.569,41.674,427.177,-231.227,264.501,312.850,538.630,294.070
961,46177.133000,217.076,-9.519,50.605,425.212,-233.855,273.277,675.850,161.630,428.070
962,46177.147000,188.133,-13.526,46.636,415.648,-226.006,289.217,708.850,154.630,303.070
963,46177.176000,193.123,7.515,81.364,414.648,-228.698,295.042,566.850,79.630,177.070
964,46177.213000,233.045,28.556,81.364,411.833,-222.882,302.084,509.850,-26.370,123.070
965,46177.263000,245.021,30.560,104.186,409.013,-217.117,307.158,385.850,37.630,231.070
966,46177.301000,237.037,30.560,109.147,408.003,-219.942,308.061,168.850,-44.370,193.070
967,46177.333000,194.121,1.503,92.279,408.019,-218.208,302.208,75.850,-187.370,180.070
968,46177.388000,254.004,-11.523,81.364,408.950,-221.005,303.115,-13.150,-254.370,62.070
969,46177.467000,247.018,-2.505,69.457,411.844,-221.201,294.262,-143.150,-189.370,-6.930
970,46177.501000,222.066,-3.507,71.442,413.628,-231.654,291.024,-226.150,-90.370,-47.930
971,46177.536000,232.047,-32.564,71.442,419.595,-221.275,287.388,-101.150,-66.370,-86.930
972,46177.571000,245.021,-29.558,73.426,418.556,-226.017,287.254,-27.150,-19.370,-19.930
973,46177.593000,240.031,-34.568,85.333,421.519,-222.246,285.397,-17.150,12.630,11.070
974,46177.622000,239.033,-18.536,88.310,416.569,-228.934,285.203,-15.150,-42.370,-85.930
975,46177.656000,245.021,14.528,74.419,421.554,-219.488,282.523,-139.150,-122.370,-73.930
976,46177.681000,254.004,16.532,57.550,423.340,-229.154,273.405,-301.150,-139.370,25.070
977,46177.721000,257.996,-9.519,59.535,424.214,-234.998,266.358,-516.150,-110.370,49.070
978,46177.747000,240.031,-19.538,65.488,428.937,-242.758,256.314,-653.150,-107.370,-97.930
979,46177.778000,215.080,-34.568,66.481,429.801,-248.734,244.346,-633.150,-91.370,-215.930
980,46177.816000,230.051,-35.569,72.434,437.580,-246.917,237.525,-681.150,-58.370,-376.930
981,46177.893000,257.996,-21.542,74.419,444.435,-241.436,226.869,-747.150,-3.370,-429.930
982,46177.928000,254.004,-27.554,73.426,452.119,-246.212,220.847,-803.150,31.630,-421.930
983,46178.3000,228.055,-42.583,79.380,456.087,-238.908,209.254,-840.150,-0.370,-423.930
984,46178.50000,228.055,-48.595,84.341,463.762,-243.816,198.311,-806.150,-38.370,-448.930
985,46178.82000,239.033,-44.587,103.194,468.656,-239.388,184.671,-883.150,-25.370,-423.930
986,46178.93000,257.996,-8.517,110.140,469.516,-246.178,177.599,-962.150,121.630,-291.930
987,46178.117000,242.027,-13.526,117.085,473.494,-238.742,170.927,-1112.150,250.630,-139.930
988,46178.143000,216.078,-42.583,96.248,476.194,-252.203,160.721,-1065.150,207.630,-35.930
989,46178.168000,229.053,-35.569,96.248,473.250,-253.427,151.830,-870.150,264.630,-19.930
990,46178.197000,235.041,-23.546,90.295,473.167,-259.100,151.672,-730.150,306.630,252.070
991,46178.235000,242.027,9.519,72.434,465.208,-272.476,150.303,-520.150,297.630,407.070
992,46178.276000,254.004,2.505,71.442,465.078,-281.065,147.113,-316.150,110.630,222.070
993,46178.295000,273.965,-9.519,79.380,465.168,-274.525,144.344,40.850,29.630,-217.930
994,46178.343000,236.039,21.542,80.372,474.928,-271.392,150.349,201.850,157.630,-277.930
995,46178.375000,217.076,65.628,75.411,469.199,-265.643,156.401,227.850,107.630,-220.930
996,46178.417000,222.066,44.587,56.558,476.129,-256.117,155.694,95.850,-53.370,-162.930
997,46178.462000,227.057,1.503,49.612,479.046,-255.235,151.789,-33.150,-209.370,-112.930
998,46178.497000,244.023,9.519,52.589,486.857,-251.475,146.989,-57.150,-175.370,-55.930
999,46178.537000,251.010,13.526,60.527,485.827,-255.323,144.913,-0.150,-137.370,58.070
1000,46178.575000,242.027,-16.532,77.395,484.779,-260.171,140.842,94.850,-113.370,221.070
1001,46178.593000,247.018,-36.571,85.333,480.877,-262.012,144.718,222.850,-95.370,239.070
1002,46178.636000,249.014,-61.620,103.194,481.870,-260.947,148.684,618.850,3.630,216.070
1003,46178.673000,221.068,-41.581,91.287,476.988,-264.456,161.365,765.850,65.630,232.070
1004,46178.731000,228.055,13.526,86.326,472.249,-257.668,170.398,742.850,84.630,233.070
1005,46178.755000,244.023,56.611,88.310,468.270,-265.104,177.070,529.850,-82.370,129.070
1006,46178.797000,250.012,23.546,72.434,472.259,-258.298,182.184,474.850,-130.370,102.070
1007,46178.842000,251.010,-3.507,64.496,468.363,-259.299,182.150,322.850,-43.370,69.070
1008,46178.877000,250.012,12.524,71.442,472.370,-251.494,189.259,284.850,31.630,15.070
1009,46178.895000,237.037,7.515,65.488,468.403,-258.011,194.973,313.850,68.630,-8.930
1010,46178.937000,236.039,8.517,62.512,467.621,-245.600,200.235,306.850,26.630,47.070
1011,46178.975000,239.033,4.509,65.488,467.521,-253.033,204.946,292.850,-4.370,125.070
1012,46179.15000,241.029,6.513,61.519,465.680,-246.389,207.095,347.850,-6.370,200.070
1013,46179.76000,239.033,6.513,64.496,461.737,-251.066,210.892,368.850,-8.370,239.070
1014,46179.137000,233.045,13.526,55.566,458.815,-252.762,219.693,361.850,-39.370,267.070
1015,46179.163000,238.035,17.534,51.597,449.969,-260.451,219.464,375.850,-74.370,275.070
1016,46179.196000,248.016,15.530,55.566,450.987,-257.521,222.498,321.850,-172.370,264.070
1017,46179.210000,238.035,23.546,66.481,452.860,-262.222,222.370,163.850,-191.370,187.070
1018,46179.246000,249.014,-5.511,96.248,451.954,-257.560,220.531,99.850,-300.370,10.070
1019,46179.278000,245.021,-23.546,106.171,458.770,-255.652,217.645,135.850,-298.370,-315.930
1020,46179.316000,229.053,-6.513,105.178,462.821,-243.435,213.074,31.850,-221.370,-485.930
1021,46179.358000,258.994,23.546,112.124,468.578,-247.293,207.074,-246.150,-132.370,-232.930
1022,46179.407000,256.998,-17.534,106.171,462.846,-240.809,205.278,-367.150,116.630,49.070
1023,46179.437000,231.049,-70.638,84.341,462.697,-251.184,205.973,-231.150,185.630,17.070
1024,46179.478000,227.057,-37.573,79.380,458.893,-246.379,211.018,-154.150,180.630,-10.930
1025,46179.497000,228.055,-28.556,85.333,458.819,-251.187,207.933,-33.150,135.630,30.070
1026,46179.542000,241.029,-28.556,87.318,453.009,-251.085,214.812,-14.150,91.630,104.070
1027,46179.577000,250.012,-38.575,88.310,448.024,-260.531,217.491,-54.150,157.630,209.070
1028,46179.618000,228.055,-32.564,78.388,445.986,-267.178,217.303,-19.150,164.630,201.070
1029,46179.656000,231.049,-47.593,75.411,447.020,-263.276,221.348,59.850,142.630,174.070
1030,46179.698000,236.039,-55.609,77.395,438.269,-265.133,227.183,155.850,172.630,64.070
1031,46179.738000,221.068,-49.597,70.450,439.293,-262.125,233.170,280.850,133.630,15.070
1032,46179.752000,222.066,-61.620,81.364,434.522,-257.281,240.182,425.850,37.630,31.070
1033,46179.792000,236.039,-44.587,99.225,435.440,-261.785,247.927,379.850,43.630,41.070
1034,46179.832000,237.037,-32.564,98.233,434.499,-259.881,248.962,236.850,42.630,118.070
1035,46179.870000,244.023,-45.589,73.426,434.570,-255.888,256.942,430.850,-73.370,133.070
