Sample, Time, ACCX, ACCY, ACCZ, MAGX, MAGY, MAGZ, GYRX, GYRY, GYRZ
0,45874.72000,236.039,-19.538,87.318,435.002,-287.424,207.869,-83.150,8.630,-27.930
1,45874.76000,234.043,-21.542,89.302,433.144,-281.778,208.023,-66.150,13.630,-15.930
2,45874.115000,232.047,-23.546,88.310,436.953,-286.504,205.931,-42.150,10.630,-8.930
3,45874.152000,234.043,-21.542,86.326,437.026,-281.723,208.031,-29.150,14.630,-4.930
4,45874.188000,237.037,-20.540,87.318,433.041,-288.476,204.886,10.850,16.630,8.070
5,45874.229000,236.039,-16.532,88.310,432.122,-285.522,209.884,38.850,21.630,21.070
6,45874.271000,234.043,-15.530,88.310,432.132,-284.629,207.942,45.850,17.630,19.070
7,45874.312000,232.047,-14.528,88.310,434.161,-278.848,211.057,31.850,10.630,14.070
8,45874.332000,234.043,-13.526,91.287,432.083,-288.332,210.790,19.850,-1.370,15.070
9,45874.372000,231.049,-12.524,90.295,434.122,-281.659,211.962,5.850,-22.370,4.070
10,45874.413000,234.043,-15.530,93.271,434.022,-288.331,209.809,-10.150,-16.370,-6.930
11,45874.455000,238.035,-8.517,92.279,435.087,-281.724,209.011,-16.150,-8.370,-8.930
12,45874.495000,232.047,-10.521,92.279,434.075,-284.575,208.930,-14.150,-21.370,-1.930
13,45874.532000,226.058,-12.524,93.271,433.132,-282.697,208.981,-19.150,-33.370,-19.930
14,45874.570000,229.053,-12.524,90.295,431.159,-284.669,206.955,28.850,-49.370,-33.930
15,45874.610000,229.053,-3.507,89.302,435.097,-280.831,207.069,44.850,-88.370,-22.930
16,45874.630000,230.051,-2.505,86.326,436.073,-279.977,203.160,26.850,-80.370,8.070
17,45874.681000,231.049,-3.507,81.364,441.903,-279.816,206.125,68.850,-99.370,34.070
18,45874.709000,246.020,16.532,78.388,437.946,-284.678,203.032,-6.150,-124.370,52.070
19,45874.751000,240.031,15.530,75.411,437.006,-281.986,198.187,-67.150,-142.370,53.070
20,45874.790000,234.043,-4.509,84.341,436.966,-284.036,192.229,-117.150,-166.370,-61.930
21,45874.832000,240.031,1.503,93.271,441.910,-277.426,189.470,-146.150,-183.370,-196.930
22,45874.872000,240.031,-5.511,95.256,445.783,-277.503,184.556,-215.150,-30.370,-316.930
23,45874.912000,251.010,-15.530,95.256,448.798,-269.976,181.820,-279.150,137.630,-343.930
24,45874.932000,262.986,-17.534,81.364,450.699,-272.785,181.745,-289.150,150.630,-210.930
25,45874.972000,249.014,-32.564,57.550,448.869,-265.221,182.936,-273.150,162.630,-68.930
26,45875.12000,228.055,-57.613,44.651,451.706,-269.987,179.857,-225.150,53.630,-88.930
27,45875.61000,220.070,-71.640,58.543,450.773,-267.217,177.966,-78.150,-19.370,-153.930
28,45875.109000,239.033,-63.624,77.395,456.550,-270.050,174.946,6.850,-56.370,-109.930
29,45875.131000,258.994,-18.536,98.233,455.667,-264.311,178.055,65.850,-30.370,37.070
30,45875.174000,256.998,-7.515,99.225,454.679,-265.323,176.058,15.850,24.630,167.070
31,45875.220000,239.033,-19.538,95.256,450.716,-271.025,176.876,32.850,23.630,173.070
32,45875.242000,207.096,-14.528,96.248,449.726,-272.825,180.759,82.850,-20.370,130.070
33,45875.273000,202.105,-17.534,94.264,445.800,-275.743,179.687,112.850,-45.370,117.070
34,45875.309000,211.088,-3.507,81.364,447.759,-274.718,181.686,100.850,-107.370,126.070
35,45875.353000,254.004,-13.526,80.372,446.747,-277.568,181.605,136.850,-89.370,68.070
36,45875.408000,290.932,10.521,89.302,446.804,-273.759,182.695,108.850,-6.370,2.070
37,45875.432000,270.971,14.528,83.349,443.729,-285.122,183.357,78.850,112.630,62.070
38,45875.473000,236.039,2.505,83.349,446.861,-270.712,190.649,77.850,193.630,33.070
39,45875.521000,201.107,12.524,82.357,442.818,-282.062,192.293,32.850,129.630,13.070
40,45875.533000,207.096,3.507,86.326,443.905,-274.404,195.459,21.850,60.630,2.070
41,45875.573000,227.057,-3.507,88.310,444.789,-280.117,193.335,19.850,-5.370,-10.930
42,45875.618000,216.078,-0.501,79.380,448.699,-278.170,193.395,17.850,-115.370,-28.930
43,45875.654000,212.086,-2.505,81.364,445.854,-273.510,192.536,30.850,-206.370,-87.930
44,45875.694000,197.115,-1.503,84.341,450.781,-267.111,181.903,55.850,-377.370,-87.930
45,45875.741000,207.096,-9.519,83.349,454.589,-271.102,171.962,81.850,-533.370,-86.930
46,45875.770000,328.858,-28.556,57.550,460.398,-271.204,165.084,37.850,-385.370,-65.930
47,45875.814000,375.766,5.511,10.915,462.369,-269.259,166.125,28.850,282.630,47.070
48,45875.831000,266.979,-10.521,80.372,457.524,-269.984,176.916,28.850,358.630,87.070
49,45875.877000,216.078,-10.521,66.481,453.595,-273.716,180.740,-25.150,264.630,54.070
50,45875.912000,203.103,-3.507,76.403,450.681,-274.545,186.614,-16.150,273.630,46.070
51,45875.951000,205.099,-5.511,82.357,445.808,-276.399,190.489,-13.150,201.630,46.070
52,45875.992000,211.088,-4.509,87.318,446.877,-269.740,191.659,-11.150,95.630,5.070
53,45876.34000,212.086,-11.523,80.372,447.708,-279.209,190.414,-6.150,-74.370,-26.930
54,45876.74000,213.084,-13.526,77.395,447.848,-268.965,184.797,36.850,-206.370,-53.930
55,45876.110000,216.078,-6.513,74.419,450.616,-278.459,181.587,15.850,-235.370,-13.930
56,45876.132000,244.023,-9.519,64.496,450.697,-272.811,180.761,26.850,-298.370,-9.930
57,45876.172000,286.940,-8.517,55.566,455.595,-269.092,175.954,7.850,-164.370,38.070
58,45876.212000,309.895,-26.552,63.504,452.598,-274.833,174.806,44.850,-41.370,47.070
59,45876.253000,284.943,-15.530,73.426,454.555,-273.834,175.821,53.850,138.630,25.070
60,45876.316000,240.031,-13.526,79.380,445.833,-273.773,182.693,71.850,237.630,42.070
61,45876.362000,210.090,-14.528,84.341,447.844,-269.779,189.693,89.850,214.630,85.070
62,45876.378000,198.113,-9.519,93.271,440.041,-272.673,191.566,111.850,148.630,101.070
63,45876.417000,204.101,-10.521,92.279,442.944,-273.525,193.515,131.850,61.630,100.070
64,45876.432000,212.086,-9.519,93.271,437.988,-281.053,197.231,120.850,-89.370,58.070
65,45876.475000,212.086,-8.517,80.372,446.811,-274.442,192.512,127.850,-190.370,34.070
66,45876.523000,228.055,-9.519,70.450,444.800,-279.197,192.376,88.850,-223.370,32.070
67,45876.555000,248.016,-7.515,61.519,445.816,-275.533,187.562,59.850,-247.370,60.070
68,45876.590000,298.916,-13.526,61.519,452.609,-275.463,186.592,39.850,-140.370,68.070
69,45876.643000,292.928,-23.546,68.465,445.725,-281.312,183.467,21.850,33.630,10.070
70,45876.673000,266.979,-12.524,75.411,445.775,-278.370,187.483,43.850,129.630,-30.930
71,45876.694000,237.037,-8.517,79.380,442.012,-270.728,192.607,41.850,179.630,-14.930
72,45876.734000,213.084,-4.509,83.349,440.928,-279.121,197.290,34.850,158.630,15.070
73,45876.775000,206.097,-10.521,85.333,441.969,-274.352,198.408,71.850,133.630,37.070
74,45876.812000,209.092,-6.513,87.318,440.981,-276.126,203.275,63.850,31.630,50.070
75,45876.852000,218.074,-11.523,83.349,443.009,-270.372,205.406,68.850,-61.370,25.070
76,45876.892000,224.062,-6.513,80.372,440.993,-275.207,202.317,58.850,-142.370,-6.930
77,45876.934000,250.012,-1.503,64.496,441.899,-279.107,197.292,-9.150,-160.370,1.070
78,45876.974000,281.949,-3.507,66.481,441.936,-276.323,195.402,-37.150,-122.370,3.070
79,45876.994000,284.943,-9.519,64.496,442.948,-273.472,195.483,-88.150,3.630,21.070
80,45877.64000,268.975,-16.532,72.434,444.844,-276.334,193.440,-79.150,94.630,-8.930
81,45877.78000,245.021,-12.524,80.372,444.909,-272.420,198.467,-53.150,151.630,-5.930
82,45877.112000,226.058,-17.534,89.302,439.975,-278.136,199.283,-11.150,156.630,0.070
83,45877.158000,209.092,-17.534,90.295,439.036,-276.206,201.302,37.850,134.630,11.070
84,45877.197000,195.119,-5.511,89.302,438.060,-277.060,205.212,29.850,36.630,13.070
85,45877.242000,222.066,-4.509,88.310,440.028,-275.141,205.268,11.850,-25.370,-9.930
86,45877.274000,250.012,-4.509,82.357,443.901,-275.218,200.355,-41.150,-91.370,-41.930
87,45877.294000,262.986,-2.505,72.434,438.098,-273.488,197.442,-101.150,-77.370,-20.930
88,45877.334000,256.998,-19.538,76.403,440.967,-276.310,196.385,-76.150,-11.370,-29.930
89,45877.375000,247.018,-19.538,79.380,442.981,-271.502,198.489,-63.150,75.630,-53.930
90,45877.422000,234.043,-18.536,81.364,441.026,-272.475,198.459,-28.150,115.630,-42.930
91,45877.452000,230.051,-17.534,83.349,438.063,-276.246,200.316,-14.150,128.630,13.070
92,45877.502000,231.049,-14.528,84.341,440.038,-274.248,203.326,28.850,110.630,28.070
93,45877.532000,226.058,-13.526,89.302,436.124,-277.009,208.160,43.850,38.630,33.070
94,45877.577000,214.082,-6.513,86.326,436.177,-273.252,207.281,23.850,-42.370,32.070
95,45877.597000,225.060,-11.523,86.326,435.116,-279.045,203.184,8.850,-80.370,-1.930
96,45877.632000,234.043,-9.519,82.357,440.052,-273.303,203.352,-13.150,-123.370,-25.930
97,45877.697000,235.041,-10.521,80.372,440.961,-277.150,200.296,-40.150,-147.370,-21.930
98,45877.713000,243.025,-12.524,74.419,445.883,-271.592,193.573,-22.150,-141.370,-51.930
99,45877.752000,256.000,-4.509,68.465,443.897,-274.509,191.522,-46.150,-144.370,-22.930
100,45877.792000,259.992,-8.517,72.434,448.828,-268.819,189.721,-65.150,-117.370,6.070
101,45877.859000,252.008,-13.526,75.411,442.920,-274.602,188.567,-63.150,-44.370,14.070
102,45877.917000,248.016,-11.523,79.380,444.792,-279.303,188.439,-65.150,4.630,6.070
103,45877.926000,243.025,-13.526,79.380,445.794,-276.584,183.598,-44.150,59.630,-4.930
104,45877.943000,230.051,-9.519,83.349,446.736,-279.249,189.427,-27.150,67.630,-9.930
105,45877.973000,230.051,-8.517,86.326,445.779,-278.317,189.452,-23.150,41.630,18.070
106,45878.14000,230.051,-18.536,83.349,445.806,-276.426,189.504,13.850,16.630,-26.930
107,45878.54000,239.033,-6.513,81.364,446.763,-277.358,189.480,11.850,5.630,-21.930
108,45878.94000,243.025,-9.519,77.395,440.037,-272.726,189.598,-30.150,5.630,4.070
109,45878.134000,250.012,-8.517,77.395,443.836,-278.371,188.463,-28.150,16.630,-11.930
110,45878.179000,251.010,-10.521,77.395,438.055,-275.590,189.515,-44.150,63.630,-9.930
111,45878.194000,241.029,-17.534,76.403,444.824,-277.359,190.460,-50.150,113.630,-8.930
112,45878.247000,237.037,-13.526,79.380,440.892,-281.117,193.300,-29.150,126.630,-11.930
113,45878.272000,231.049,-12.524,80.372,444.818,-278.199,194.371,-25.150,130.630,30.070
114,45878.320000,229.053,-14.528,85.333,437.055,-278.283,195.340,-22.150,110.630,41.070
115,45878.367000,226.058,-14.528,88.310,439.942,-280.106,196.277,-9.150,65.630,32.070
116,45878.407000,211.088,-13.526,91.287,439.800,-290.377,200.910,-32.150,-5.370,-3.930
117,45878.435000,214.082,-9.519,96.248,442.879,-278.200,195.352,-52.150,-132.370,-80.930
118,45878.463000,227.057,-3.507,83.349,441.869,-280.263,189.391,-111.150,-211.370,-62.930
119,45878.498000,252.008,-19.538,57.550,443.914,-272.750,186.653,-110.150,-164.370,-35.930
120,45878.533000,272.967,-30.560,59.535,446.808,-273.707,184.664,24.850,-78.370,-68.930
121,45878.583000,272.967,-5.511,67.473,442.915,-273.893,179.734,2.850,3.630,10.070
122,45878.613000,264.982,-18.536,76.403,445.700,-283.177,184.398,-23.150,60.630,68.070
123,45878.658000,243.025,-19.538,80.372,448.755,-273.600,187.621,8.850,147.630,40.070
124,45878.694000,221.068,-10.521,88.310,438.933,-282.143,191.301,-2.150,150.630,26.070
125,45878.734000,203.103,-6.513,93.271,439.969,-277.454,189.466,-8.150,84.630,15.070
126,45878.754000,214.082,-9.519,93.271,444.810,-278.304,190.434,8.850,-14.370,-12.930
127,45878.797000,218.074,-17.534,93.271,441.924,-276.481,189.496,37.850,-108.370,-10.930
128,45878.837000,230.051,-18.536,79.380,441.947,-274.642,187.580,24.850,-109.370,-32.930
129,45878.877000,261.988,-5.511,62.512,444.853,-274.680,184.633,61.850,-47.370,-6.930
130,45878.914000,277.957,-13.526,63.504,443.812,-280.209,190.379,79.850,35.630,37.070
131,45878.955000,262.986,-15.530,74.419,443.869,-276.401,191.469,59.850,123.630,42.070
132,45878.995000,236.039,-13.526,79.380,443.797,-281.943,196.233,49.850,153.630,14.070
133,45879.44000,219.072,-10.521,83.349,440.987,-275.286,199.364,51.850,127.630,25.070
134,45879.57000,212.086,-7.515,88.310,438.065,-276.220,201.300,57.850,94.630,45.070
135,45879.98000,218.074,-3.507,82.357,438.071,-276.141,204.253,46.850,1.630,23.070
136,45879.140000,233.045,-14.528,81.364,441.895,-279.921,202.188,37.850,-109.370,-16.930
137,45879.193000,228.055,-14.528,72.434,445.748,-281.784,201.159,53.850,-163.370,-24.930
138,45879.218000,232.047,-14.528,73.426,442.957,-272.579,193.541,80.850,-188.370,-71.930
139,45879.265000,250.012,-20.540,68.465,446.801,-275.335,194.455,119.850,-180.370,-80.930
140,45879.297000,262.986,-19.538,67.473,447.907,-265.891,193.735,131.850,-134.370,-59.930
141,45879.333000,270.971,-14.528,68.465,448.878,-265.877,193.737,124.850,-74.370,25.070
142,45879.353000,271.969,-16.532,76.403,443.930,-272.539,194.527,108.850,8.630,74.070
143,45879.393000,246.020,-12.524,84.341,444.925,-271.448,199.478,78.850,88.630,92.070
144,45879.438000,220.070,-11.523,83.349,451.745,-269.487,198.560,70.850,97.630,71.070
145,45879.478000,216.078,-3.507,87.318,442.125,-263.898,200.666,17.850,47.630,-1.930
146,45879.514000,212.086,-0.501,84.341,447.868,-269.463,201.505,11.850,2.630,-50.930
147,45879.555000,212.086,-3.507,81.364,443.921,-274.193,203.334,-22.150,-60.370,-54.930
148,45879.595000,238.035,-9.519,78.388,449.860,-265.705,199.646,-35.150,-120.370,-63.930
149,45879.635000,261.988,-12.524,72.434,447.899,-266.758,196.662,14.850,-130.370,-92.930
150,45879.657000,288.936,-12.524,77.395,451.805,-264.864,194.754,-4.150,-22.370,-53.930
151,45879.694000,277.957,-11.523,79.380,450.850,-263.906,195.763,8.850,77.630,-87.930
152,45879.735000,270.971,-2.505,80.372,453.821,-260.029,197.843,-11.150,172.630,-102.930
153,45879.775000,253.006,-2.505,83.349,453.832,-259.898,202.765,-29.150,226.630,-83.930
154,45879.815000,216.078,-1.503,88.310,451.944,-256.930,208.746,-62.150,223.630,-68.930
155,45879.858000,197.115,0.501,91.287,447.028,-261.648,211.557,-73.150,205.630,-57.930
156,45879.904000,192.125,-0.501,89.302,448.079,-256.748,217.597,-63.150,155.630,-59.930
157,45879.935000,180.148,-2.505,91.287,449.044,-256.814,214.646,0.850,130.630,-20.930
158,45879.959000,188.133,2.505,78.388,448.136,-252.940,218.686,96.850,26.630,56.070
159,45879.997000,206.097,-5.511,82.357,443.234,-256.712,221.524,121.850,-48.370,31.070
160,45880.37000,222.066,3.507,55.566,448.138,-252.913,219.671,194.850,-251.370,-6.930
161,45880.77000,283.945,-27.554,64.496,452.981,-252.976,214.759,347.850,-389.370,-72.930
162,45880.129000,350.815,8.517,66.481,458.903,-245.487,209.076,274.850,-417.370,12.070
163,45880.157000,337.840,-60.618,85.333,455.960,-248.233,213.912,631.850,-181.370,156.070
164,45880.197000,311.891,-97.691,101.209,454.135,-241.378,223.936,980.850,-37.370,386.070
165,45880.237000,275.961,-76.650,95.256,448.353,-240.146,237.731,1434.850,19.630,623.070
166,45880.258000,244.023,-58.614,87.318,437.818,-233.072,260.533,1749.850,-1.370,729.070
167,45880.298000,213.084,-45.589,72.434,430.184,-226.877,284.299,1987.850,44.630,778.070
168,45880.338000,191.127,23.546,59.535,417.773,-215.916,312.124,1921.850,23.630,848.070
169,45880.378000,138.230,49.597,41.674,419.841,-208.113,320.214,1668.850,-141.370,674.070
170,45880.425000,117.271,58.614,19.845,414.239,-194.562,335.335,1190.850,-346.370,487.070
171,45880.458000,102.300,24.548,47.628,419.189,-187.874,335.530,930.850,-508.370,421.070
172,45880.498000,197.115,-32.564,100.217,427.030,-181.408,325.887,609.850,-513.370,109.070
173,45880.538000,461.598,50.599,134.946,430.007,-176.691,324.056,327.850,-449.370,220.070
174,45880.554000,450.620,-38.575,152.806,437.654,-184.251,319.924,329.850,-94.370,-95.930
175,45880.599000,512.499,-56.611,156.775,428.229,-166.920,337.111,506.850,785.630,-220.930
176,45880.634000,398.721,-23.546,135.938,416.860,-151.191,366.054,565.850,1195.630,-196.930
177,45880.678000,219.072,50.599,45.643,394.707,-142.365,389.869,442.850,946.630,0.070
178,45880.714000,92.320,52.603,39.690,388.881,-143.996,402.601,273.850,823.630,-94.930
179,45880.757000,58.386,4.509,7.938,377.470,-129.582,417.737,136.850,503.630,-274.930
180,45880.798000,137.232,53.605,37.705,370.715,-127.629,423.681,115.850,288.630,-183.930
181,45880.818000,217.076,60.618,22.822,371.654,-130.320,428.526,-256.150,284.630,-224.930
182,45880.854000,118.269,47.593,99.225,363.840,-134.134,431.358,-467.150,404.630,-356.930
183,45880.894000,110.285,24.548,116.093,361.901,-134.135,432.338,-340.150,291.630,0.070
184,45880.944000,183.142,-113.722,148.837,348.160,-144.730,432.020,-91.150,347.630,143.070
185,45880.980000,237.037,-58.614,104.186,357.893,-142.727,431.109,93.850,-137.370,190.070
186,45881.20000,512.499,-78.654,43.659,365.728,-137.101,425.377,721.850,-825.370,6.070
187,45881.55000,502.519,82.661,126.016,370.772,-123.820,424.771,-4.150,515.630,-214.930
188,45881.95000,383.750,36.571,153.798,358.154,-125.522,438.473,184.850,376.630,-95.930
189,45881.115000,156.195,-17.534,100.217,342.758,-117.861,450.463,499.850,521.630,415.070
190,45881.165000,38.425,27.554,60.527,336.775,-129.212,453.088,123.850,40.630,667.070
191,45881.212000,256.998,85.667,87.318,345.597,-123.361,455.233,18.850,-432.370,-280.930
192,45881.249000,153.201,48.595,89.302,351.566,-112.956,452.582,331.850,9.630,-358.930
193,45881.277000,56.390,68.634,35.721,359.436,-105.360,449.856,-123.150,-131.370,-100.930
194,45881.317000,37.427,106.708,30.760,363.936,-127.515,431.542,-839.150,-570.370,44.070
195,45881.357000,175.158,81.659,78.388,374.367,-142.074,411.482,-1347.150,-988.370,86.070
196,45881.397000,512.499,-118.732,77.395,401.206,-161.445,379.513,-1123.150,-1195.370,-537.930
197,45881.418000,334.846,18.536,92.279,409.826,-168.204,369.504,-846.150,-358.370,-327.930
198,45881.458000,275.961,90.677,73.426,412.507,-182.663,357.303,-788.150,-90.370,-196.930
199,45881.500000,202.105,52.603,79.380,416.295,-188.439,351.247,-1006.150,-37.370,-290.930
200,45881.570000,213.084,19.538,54.574,428.740,-197.430,326.427,-1422.150,-344.370,-741.930
201,45881.587000,138.230,28.556,65.488,433.480,-203.430,311.514,-1402.150,-170.370,-681.930
202,45881.620000,69.365,12.524,38.698,446.838,-216.215,285.607,-1688.150,-431.370,-460.930
203,45881.655000,68.366,0.501,35.721,453.380,-230.147,255.723,-1612.150,-280.370,-365.930
204,45881.698000,222.066,122.740,101.209,456.157,-236.464,229.978,-1774.150,-483.370,-244.930
205,45881.718000,512.499,24.548,79.380,461.754,-248.545,199.159,-1846.150,185.630,-642.930
206,45881.768000,327.860,-14.528,103.194,472.385,-249.761,183.406,-1855.150,166.630,-918.930
207,45881.797000,326.862,65.628,63.504,480.169,-245.581,158.945,-2185.150,208.630,-893.930
208,45881.839000,251.010,19.538,39.690,486.033,-241.139,145.308,-2380.150,539.630,-860.930
209,45881.879000,199.111,-41.581,36.713,488.923,-240.626,127.622,-2447.150,638.630,-903.930
210,45881.919000,93.318,-72.642,18.853,496.689,-238.206,108.030,-2219.150,486.630,-889.930
211,45881.959000,57.388,-56.611,24.806,500.720,-226.252,93.615,-1915.150,304.630,-865.930
212,45881.999000,61.380,-40.579,27.783,510.514,-218.078,76.154,-1541.150,-157.370,-962.930
213,45882.19000,58.386,46.591,59.535,516.684,-191.257,51.337,-1274.150,-474.370,-840.930
214,45882.59000,202.105,-5.511,142.884,519.661,-183.468,23.034,-1114.150,-622.370,-557.930
215,45882.100000,512.499,54.607,175.628,521.751,-170.781,1.751,-759.150,-750.370,-227.930
216,45882.135000,435.649,28.556,110.140,516.827,-175.604,0.625,-873.150,187.630,260.070
217,45882.179000,350.815,-21.542,36.713,514.679,-189.816,0.226,-955.150,614.630,94.070
218,45882.227000,152.203,-24.548,69.457,512.868,-182.015,10.276,-971.150,838.630,-163.930
219,45882.259000,82.339,-1.503,18.853,515.741,-184.785,11.187,-1216.150,480.630,-162.930
220,45882.279000,127.251,-75.648,28.775,515.865,-176.274,11.424,-991.150,407.630,-194.930
221,45882.317000,126.253,-21.542,24.806,515.876,-174.593,3.602,-988.150,-19.370,-220.930
222,45882.357000,139.228,-24.548,73.426,515.017,-165.493,-8.933,-700.150,-65.370,-213.930
223,45882.402000,334.846,-125.746,132.961,519.081,-151.569,-20.342,-355.150,-303.370,-793.930
224,45882.437000,359.797,-37.573,127.008,520.366,-129.832,-20.719,-4.150,-128.370,-486.930
225,45882.479000,338.838,-6.513,177.612,525.105,-137.381,-22.888,-195.150,93.630,79.070
226,45882.517000,304.904,-28.556,159.752,520.215,-140.996,-14.145,-111.150,339.630,276.070
227,45882.560000,221.068,-33.566,157.767,518.265,-142.678,-5.342,-115.150,505.630,196.070
228,45882.578000,152.203,-0.501,125.023,521.114,-148.047,4.349,0.850,338.630,103.070
229,45882.619000,103.298,-7.515,81.364,519.154,-149.860,8.230,-81.150,164.630,30.070
230,45882.659000,77.349,-6.513,61.519,521.981,-155.519,7.094,-269.150,149.630,-37.930
231,45882.700000,25.450,-29.558,60.527,518.234,-146.144,6.365,-324.150,-38.370,-17.930
232,45882.749000,99.306,-65.628,79.380,516.268,-146.488,-5.452,-101.150,-616.370,-314.930
233,45882.782000,512.499,-16.532,56.558,517.444,-130.005,-25.647,259.850,-758.370,-236.930
234,45882.817000,460.600,75.648,65.488,513.328,-146.136,-26.103,793.850,-106.370,295.070
235,45882.859000,449.622,38.575,45.643,516.271,-144.151,-24.075,435.850,-129.370,114.070
236,45882.880000,443.634,46.591,47.628,513.252,-152.492,-16.443,513.850,16.630,158.070
237,45882.922000,351.813,48.595,41.674,513.335,-147.580,-9.421,325.850,227.630,105.070
238,45882.957000,233.045,28.556,43.659,515.148,-156.877,-4.759,263.850,218.630,132.070
239,45883.2000,140.226,8.517,30.760,512.310,-152.899,4.199,412.850,110.630,116.070
240,45883.43000,121.263,3.507,24.806,513.123,-164.127,7.823,412.850,54.630,110.070
241,45883.78000,118.269,10.521,23.814,513.169,-161.238,9.871,417.850,-103.370,203.070
242,45883.128000,145.216,-7.515,94.264,511.013,-175.555,5.534,506.850,-423.370,190.070
243,45883.158000,222.066,-33.566,134.946,510.097,-171.025,-1.226,454.850,-502.370,175.070
244,45883.190000,301.910,-28.556,143.876,510.156,-166.428,-6.017,683.850,-497.370,-361.930
245,45883.217000,266.979,-0.501,132.961,514.205,-154.999,-4.708,719.850,-199.370,-476.930
246,45883.268000,375.766,16.532,132.961,516.164,-153.974,-2.709,717.850,-201.370,22.070
247,45883.303000,323.867,-12.524,121.054,515.053,-164.258,1.921,698.850,173.630,493.070
248,45883.339000,301.910,-17.534,113.116,512.986,-174.345,14.424,591.850,181.630,663.070
249,45883.380000,267.977,-12.524,92.279,504.890,-198.699,26.520,703.850,229.630,651.070
250,45883.432000,227.057,-32.564,75.411,502.869,-205.897,41.070,811.850,237.630,633.070
251,45883.458000,178.152,-11.523,36.713,496.833,-222.527,58.302,968.850,156.630,632.070
252,45883.482000,106.292,-19.538,19.845,492.802,-233.719,65.853,1184.850,-128.370,581.070
253,45883.530000,50.402,-39.577,32.744,488.731,-247.721,74.309,1252.850,-365.370,503.070
254,45883.558000,63.376,-45.589,68.465,486.010,-236.073,87.416,1364.850,-308.370,412.070
255,45883.600000,284.943,-30.560,71.442,482.167,-234.079,93.366,1256.850,-348.370,304.070
256,45883.639000,512.499,98.693,112.124,487.785,-248.942,99.848,1532.850,-445.370,882.070
257,45883.680000,355.805,-31.562,105.178,476.151,-251.233,126.322,1488.850,-0.370,483.070
258,45883.720000,388.741,-23.546,96.248,476.270,-245.847,151.062,1720.850,75.630,287.070
259,45883.759000,284.943,37.573,72.434,464.652,-248.688,192.275,2046.850,498.630,811.070
260,45883.779000,242.027,53.605,57.550,452.140,-244.400,217.947,2047.850,485.630,895.070
261,45883.823000,160.187,71.640,50.605,439.590,-243.684,251.388,1940.850,351.630,782.070
262,45883.859000,112.281,74.646,39.690,426.236,-230.846,279.264,1674.850,28.630,704.070
263,45883.899000,110.285,52.603,26.791,424.313,-231.398,294.983,1438.850,-222.370,703.070
264,45883.939000,119.267,38.575,52.589,418.602,-224.650,303.030,1373.850,-389.370,661.070
265,45883.979000,155.197,-2.505,79.380,423.542,-218.855,305.167,1292.850,-516.370,666.070
266,45884.20000,317.879,12.524,118.078,420.714,-213.196,306.303,1008.850,-725.370,668.070
267,45884.69000,469.583,-7.515,92.279,429.609,-201.804,303.684,1113.850,-618.370,268.070
268,45884.82000,409.700,5.511,104.186,429.696,-196.839,312.675,984.850,-314.370,379.070
269,45884.129000,317.879,31.562,82.357,429.730,-194.868,315.681,555.850,-71.370,359.070
270,45884.158000,160.187,38.575,71.442,425.784,-199.573,318.494,370.850,7.630,153.070
271,45884.198000,50.402,1.503,54.574,431.754,-189.929,322.707,200.850,-135.370,38.070
272,45884.238000,23.454,-19.538,48.620,429.777,-191.953,318.713,256.850,-215.370,75.070
273,45884.283000,43.415,-58.614,62.512,434.713,-186.210,318.881,399.850,-201.370,11.070
274,45884.322000,140.226,-29.558,117.085,432.815,-183.374,319.940,551.850,1.630,20.070
275,45884.340000,341.832,-45.589,190.512,437.849,-170.986,321.277,620.850,-229.370,263.070
276,45884.390000,465.591,-56.611,159.752,435.951,-168.912,329.200,1139.850,36.630,73.070
277,45884.419000,478.565,-18.536,99.225,432.454,-144.773,350.521,1003.850,734.630,-62.930
278,45884.468000,319.875,48.595,17.860,421.923,-136.885,368.428,1139.850,776.630,223.070
279,45884.504000,199.111,109.714,36.713,406.697,-119.347,396.431,821.850,903.630,-113.930
280,45884.553000,159.189,62.622,22.822,396.256,-104.919,411.569,498.850,562.630,-296.930
281,45884.580000,169.170,66.630,51.597,386.717,-95.205,426.577,250.850,645.630,-85.930
282,45884.620000,197.115,107.710,36.713,377.960,-97.141,429.460,-171.150,421.630,-209.930
283,45884.640000,172.164,61.620,89.302,375.903,-105.574,433.156,-609.150,333.630,-330.930
284,45884.680000,149.209,59.616,97.240,373.783,-117.894,432.810,-793.150,156.630,-351.930
285,45884.725000,186.136,-12.524,112.124,375.696,-118.997,425.897,-504.150,16.630,-192.930
286,45884.760000,208.094,-58.614,94.264,381.426,-125.508,426.709,-242.150,-137.370,-135.930
287,45884.800000,226.058,35.569,138.915,383.272,-131.312,420.649,-26.150,-51.370,159.070
288,45884.845000,328.858,-19.538,116.093,382.302,-131.326,420.647,303.850,-168.370,425.070
289,45884.880000,397.723,-78.654,77.395,389.271,-118.989,419.035,473.850,-41.370,14.070
290,45884.922000,304.904,83.663,12.899,383.452,-119.780,427.855,377.850,37.630,168.070
291,45884.942000,266.979,0.501,45.643,373.774,-118.000,428.872,-428.150,488.630,47.070
292,45884.982000,190.129,-33.566,29.767,369.723,-130.216,433.444,-352.150,211.630,9.070
293,45885.23000,141.224,-52.603,21.829,364.783,-136.012,431.307,-339.150,91.630,45.070
294,45885.63000,82.339,-10.521,16.868,371.419,-146.423,427.094,-272.150,-130.370,-9.930
295,45885.103000,149.209,-40.579,41.674,369.471,-146.529,424.137,-155.150,-373.370,144.070
296,45885.143000,256.000,-68.634,92.279,382.099,-144.696,415.357,-85.150,-588.370,-344.930
297,45885.184000,393.731,90.677,78.388,395.682,-143.060,398.704,-419.150,-545.370,-281.930
298,45885.219000,315.883,46.591,191.504,402.242,-158.278,391.406,-689.150,-129.370,196.070
299,45885.239000,343.828,-69.636,165.705,395.277,-169.801,388.123,-334.150,145.630,464.070
300,45885.280000,257.996,-13.526,127.008,391.331,-174.505,390.937,151.850,64.630,296.070
301,45885.320000,255.002,48.595,81.364,388.423,-174.494,392.899,-276.150,38.630,-236.930
302,45885.360000,215.080,49.597,98.233,392.390,-168.738,394.050,-174.150,70.630,-511.930
303,45885.405000,182.144,18.536,72.434,391.553,-159.349,392.342,-78.150,0.630,-498.930
304,45885.440000,139.228,5.511,42.667,398.265,-164.926,392.198,-214.150,98.630,-392.930
305,45885.480000,122.261,64.626,46.636,395.414,-160.344,388.387,-347.150,-93.370,-399.930
306,45885.525000,125.255,101.699,54.574,410.869,-163.409,371.606,-861.150,-562.370,-205.930
307,45885.540000,236.039,112.720,57.550,421.093,-191.392,344.287,-1373.150,-725.370,-34.930
308,45885.633000,353.809,22.544,99.225,431.616,-199.385,322.443,-1392.150,-826.370,21.070
309,45885.649000,442.635,-36.571,116.093,439.105,-215.904,301.341,-1043.150,-122.370,-425.930
310,45885.677000,355.805,71.640,103.194,438.979,-222.918,286.391,-1298.150,23.630,-383.930
311,45885.704000,266.979,46.591,83.349,444.637,-232.660,272.359,-1603.150,230.630,-526.930
312,45885.739000,164.179,64.626,45.643,443.550,-239.557,262.330,-1980.150,131.630,-648.930
313,45885.792000,115.275,38.575,15.876,454.957,-252.501,231.497,-2177.150,-92.370,-839.930
314,45885.823000,129.248,-35.569,-16.868,463.634,-252.379,196.105,-2192.150,-169.370,-839.930
315,45885.843000,117.271,24.548,5.953,473.201,-257.892,161.541,-2140.150,-191.370,-780.930
316,45885.883000,146.214,50.599,66.481,480.033,-251.178,126.330,-2131.150,-326.370,-561.930
317,45885.929000,283.945,-92.681,140.899,488.742,-249.874,99.823,-1832.150,-377.370,-670.930
318,45885.963000,512.499,18.536,76.403,496.724,-231.615,71.820,-1113.150,-365.370,-776.930
319,45886.3000,352.811,-166.826,83.349,498.667,-230.799,65.944,-709.150,201.630,-157.930
320,45886.43000,361.793,-84.665,54.574,489.855,-236.518,68.721,-615.150,384.630,256.070
321,45886.84000,340.834,-1.503,49.612,485.829,-246.108,65.497,-532.150,505.630,255.070
322,45886.124000,214.082,-33.566,40.682,478.964,-251.720,71.231,-407.150,429.630,-61.930
323,45886.144000,141.224,-82.661,40.682,482.909,-247.778,75.282,-212.150,206.630,-116.930
324,45886.184000,108.288,-90.677,62.512,482.831,-253.399,77.092,-59.150,53.630,-3.930
325,45886.224000,125.255,-69.636,65.488,483.884,-247.711,77.252,125.850,-32.370,234.070
326,45886.264000,265.980,-104.704,82.357,476.901,-260.994,78.838,477.850,-184.370,295.070
327,45886.303000,332.850,-14.528,71.442,478.917,-256.159,81.927,633.850,-204.370,-46.930
328,45886.343000,313.887,107.710,117.085,471.081,-261.785,87.659,265.850,98.630,307.070
329,45886.383000,342.830,156.806,119.070,469.113,-263.704,87.602,-427.150,82.630,244.070
330,45886.430000,455.610,163.820,95.256,469.029,-267.855,73.716,-1008.150,-128.370,-272.930
331,45886.443000,263.984,56.611,73.426,475.022,-254.849,62.285,-1970.150,907.630,-824.930
332,45886.484000,99.306,-92.681,38.698,483.828,-249.210,56.555,-1842.150,917.630,-881.930
333,45886.524000,30.441,-142.779,45.643,490.823,-235.008,54.011,-1325.150,582.630,-424.930
334,45886.563000,27.446,-169.832,2.977,487.867,-237.151,46.077,-1109.150,250.630,-115.930
335,45886.603000,157.193,-84.665,66.481,492.897,-224.815,45.445,-436.150,246.630,-721.930
336,45886.642000,208.094,91.679,17.860,499.817,-215.421,39.816,-276.150,46.630,-634.930
337,45886.697000,159.189,-5.511,100.217,503.971,-197.267,45.246,-88.150,256.630,-362.930
338,45886.720000,160.187,-56.611,61.519,509.881,-189.935,33.657,-461.150,-143.370,-528.930
339,45886.740000,206.097,34.568,125.023,503.117,-187.326,28.800,-387.150,-77.370,-98.930
340,45886.784000,272.967,-34.568,130.977,507.053,-183.515,27.929,-483.150,-251.370,128.070
341,45886.824000,512.499,-6.513,99.225,499.255,-184.046,12.164,-540.150,-231.370,20.070
342,45886.875000,508.507,-18.536,-16.868,508.048,-178.591,-0.457,-161.150,-718.370,-361.930
343,45886.902000,423.673,11.523,143.876,510.023,-178.116,16.281,486.850,648.630,80.070
344,45886.942000,217.076,9.519,79.380,506.031,-187.259,29.791,246.850,377.630,440.070
345,45886.983000,121.263,-5.511,55.566,505.949,-193.694,36.497,9.850,213.630,63.070
346,45887.2000,1.497,-10.521,26.791,506.971,-189.950,34.635,-41.150,-185.370,-107.930
347,45887.50000,-16.468,40.579,75.411,503.949,-196.795,27.555,23.850,-424.370,-107.930
348,45887.100000,143.220,-47.593,110.140,510.947,-181.018,13.251,89.850,-926.370,-473.930
349,45887.124000,512.499,-54.607,60.527,519.754,-173.830,-5.223,448.850,-513.370,-732.930
350,45887.164000,315.883,-19.538,100.217,513.968,-171.889,-0.260,650.850,-197.370,546.070
351,45887.204000,368.780,-72.642,78.388,506.899,-192.421,12.927,960.850,123.630,678.070
352,45887.244000,307.899,-60.618,68.465,507.796,-198.737,23.573,1091.850,170.630,723.070
353,45887.297000,236.039,-19.538,28.775,498.762,-221.896,45.536,1388.850,217.630,757.070
354,45887.304000,174.160,-39.577,17.860,493.785,-233.547,71.761,1704.850,88.630,904.070
355,45887.345000,100.304,-49.597,11.907,481.908,-252.019,93.850,1877.850,-182.370,957.070
356,45887.385000,48.405,-4.509,15.876,477.955,-258.351,106.455,1891.850,-309.370,878.070
357,45887.430000,27.446,10.521,40.682,470.034,-271.226,123.788,1707.850,-307.370,889.070
358,45887.465000,134.238,3.507,74.419,464.303,-267.026,142.584,1516.850,-125.370,554.070
359,45887.502000,512.499,86.669,142.884,468.255,-263.004,149.588,1289.850,-738.370,32.070
360,45887.543000,321.871,36.571,196.465,456.675,-260.752,169.303,1122.850,103.630,439.070
361,45887.583000,411.696,-34.568,107.163,458.688,-258.254,191.015,1445.850,242.630,327.070
362,45887.604000,259.992,-17.534,56.558,445.213,-254.661,226.502,1922.850,420.630,624.070
363,45887.655000,167.173,26.552,34.729,435.710,-244.474,259.229,2023.850,212.630,713.070
364,45887.683000,123.259,70.638,30.760,423.311,-233.355,292.960,2088.850,148.630,710.070
365,45887.724000,80.343,97.691,6.946,419.553,-226.422,306.917,1728.850,-99.370,788.070
366,45887.764000,70.363,61.620,36.713,414.800,-220.580,315.924,1217.850,-384.370,763.070
367,45887.804000,222.066,61.620,139.907,414.934,-211.938,321.083,1183.850,-614.370,639.070
368,45887.844000,512.499,-259.006,128.000,419.805,-210.110,316.224,1033.850,-1126.370,865.070
369,45887.884000,355.805,-67.632,99.225,421.986,-194.689,326.492,1418.850,110.630,29.070
370,45887.904000,286.940,62.622,85.333,421.234,-181.122,339.655,1261.850,54.630,44.070
371,45887.945000,164.179,53.605,56.558,420.537,-163.772,352.924,850.850,103.630,235.070
372,45887.984000,29.442,29.558,37.705,413.727,-165.601,358.763,485.850,54.630,340.070
373,45888.52000,15.470,40.579,58.543,415.718,-162.632,362.783,427.850,-213.370,186.070
374,45888.74000,92.320,-39.577,161.736,422.560,-158.858,358.965,625.850,-217.370,123.070
375,45888.112000,512.499,-169.832,173.643,434.390,-144.824,347.572,526.850,-773.370,-76.930
376,45888.157000,339.836,8.517,116.093,420.941,-137.818,369.384,831.850,567.630,40.070
377,45888.184000,380.756,30.560,42.667,411.644,-112.685,395.641,1168.850,990.630,74.070
378,45888.208000,292.928,121.738,105.178,390.410,-106.813,414.457,806.850,1288.630,-0.930
379,45888.245000,256.998,72.642,28.775,379.103,-85.674,433.715,670.850,550.630,-132.930
380,45888.282000,199.111,94.685,48.620,363.740,-76.043,448.711,340.850,746.630,-181.930
381,45888.322000,176.156,99.695,56.558,351.229,-70.232,460.655,-57.150,651.630,-305.930
382,45888.362000,153.201,46.591,70.450,341.438,-76.831,466.357,-326.150,405.630,-288.930
383,45888.403000,108.288,14.528,72.434,340.493,-74.980,465.423,-415.150,273.630,-239.930
384,45888.445000,74.355,-7.515,88.310,339.404,-83.425,468.137,-328.150,92.630,-108.930
385,45888.484000,97.310,-6.513,129.984,339.298,-90.176,463.031,-60.150,-82.370,4.070
386,45888.504000,118.269,39.577,90.295,350.036,-85.402,459.247,-3.150,-331.370,-12.930
387,45888.550000,141.224,20.540,90.295,354.946,-80.763,453.483,351.850,-559.370,188.070
388,45888.584000,392.733,-17.534,209.364,372.439,-77.942,443.755,545.850,-614.370,495.070
389,45888.622000,467.587,47.593,134.946,371.435,-79.926,440.747,354.850,-99.370,131.070
390,45888.662000,440.639,22.544,90.295,380.306,-70.372,440.044,-3.150,-16.370,-42.930
391,45888.702000,312.889,-23.546,50.605,376.304,-78.885,441.768,-139.150,133.630,34.070
392,45888.747000,189.131,-18.536,26.791,373.394,-78.900,442.746,-99.150,103.630,258.070
393,45888.784000,147.212,-27.554,22.822,370.323,-90.210,445.377,-202.150,36.630,296.070
394,45888.804000,70.363,-30.560,17.860,374.137,-94.883,445.254,-223.150,-56.370,190.070
395,45888.848000,57.388,-13.526,24.806,372.038,-104.630,435.143,-96.150,-272.370,-48.930
396,45888.884000,99.306,1.503,27.783,383.748,-99.816,432.346,-214.150,-365.370,-99.930
397,45888.933000,267.977,-20.540,95.256,392.338,-108.493,421.299,-252.150,-552.370,-257.930
398,45888.968000,430.659,10.521,148.837,405.009,-103.035,406.718,-278.150,-531.370,-144.930
399,45889.8000,375.766,59.616,127.008,406.650,-123.024,400.263,-541.150,-260.370,182.070
400,45889.44000,407.704,-51.601,158.760,406.648,-123.050,399.279,-289.150,190.630,247.070
401,45889.102000,240.031,49.597,105.178,394.821,-136.270,405.777,63.850,385.630,412.070
402,45889.109000,270.971,38.575,78.388,391.043,-129.600,409.890,-105.150,169.630,-55.930
403,45889.153000,209.092,49.597,67.473,387.031,-139.006,413.556,-470.150,221.630,-534.930
404,45889.194000,152.203,22.544,61.519,391.108,-125.686,414.917,-215.150,86.630,-575.930
405,45889.228000,139.228,-0.501,61.519,393.059,-124.765,412.979,-33.150,41.630,-349.930
406,45889.264000,141.224,13.526,34.729,393.163,-117.279,410.236,-221.150,-99.370,-248.930
407,45889.305000,151.205,70.638,39.690,400.655,-134.533,396.982,-667.150,-412.370,-72.930
408,45889.349000,192.125,133.761,52.589,402.409,-146.143,385.843,-1153.150,-578.370,39.070
409,45889.364000,265.980,56.611,58.543,415.606,-170.223,361.588,-1377.150,-468.370,-192.930
410,45889.414000,337.840,0.501,100.217,418.283,-183.973,340.555,-1263.150,-363.370,-409.930
411,45889.444000,429.661,84.665,113.116,431.758,-189.876,324.675,-1462.150,-152.370,-526.930
412,45889.485000,359.797,44.587,115.101,437.288,-207.420,301.574,-1849.150,9.630,-719.930
413,45889.525000,274.963,48.595,104.186,439.040,-219.056,289.450,-1972.150,146.630,-668.930
414,45889.564000,203.103,28.556,77.395,447.598,-228.915,269.518,-1957.150,56.630,-580.930
415,45889.604000,171.166,-3.507,39.690,449.379,-237.111,244.702,-1926.150,12.630,-724.930
416,45889.645000,138.230,26.552,12.899,457.941,-246.156,219.875,-2112.150,73.630,-764.930
417,45889.665000,117.271,32.564,2.977,463.687,-249.385,202.090,-2122.150,132.630,-671.930
418,45889.708000,72.359,50.599,-39.690,467.347,-261.441,173.236,-2039.150,4.630,-593.930
419,45889.747000,58.386,13.526,12.899,474.217,-253.466,149.863,-1925.150,-26.370,-561.930
420,45889.787000,124.257,-8.517,93.271,477.017,-257.183,115.338,-1874.150,-147.370,-583.930
421,45889.828000,512.499,-36.571,194.481,486.738,-253.789,95.777,-1504.150,-709.370,-800.930
422,45889.863000,462.596,-57.613,98.233,488.798,-243.781,80.321,-1222.150,592.630,-537.930
423,45889.903000,430.659,-119.734,134.946,489.845,-238.172,77.528,-1307.150,914.630,-140.930
424,45889.949000,246.020,-52.603,120.062,482.020,-243.666,88.181,-1098.150,1057.630,-451.930
425,45889.964000,183.142,-11.523,54.574,491.823,-237.671,95.250,-1130.150,954.630,-595.930
426,45890.4000,135.236,-110.716,34.729,487.127,-227.259,98.482,-986.150,867.630,-766.930
427,45890.47000,117.271,-34.568,20.837,493.071,-218.718,96.763,-744.150,338.630,-489.930
428,45890.87000,92.320,-1.503,27.783,491.196,-214.044,95.906,-684.150,317.630,-207.930
429,45890.128000,69.365,10.521,51.597,494.163,-210.220,96.017,-631.150,178.630,-189.930
430,45890.164000,91.322,-1.503,74.419,497.181,-201.905,87.401,-716.150,-190.370,-566.930
431,45890.218000,176.156,-38.575,129.984,499.251,-191.004,70.003,-791.150,-358.370,-546.930
432,45890.248000,393.731,-93.683,163.721,505.154,-183.751,55.460,-328.150,-433.370,-229.930
433,45890.268000,495.532,22.544,147.845,504.136,-185.158,38.698,-280.150,-597.370,116.070
434,45890.309000,410.698,-21.542,139.907,505.092,-185.329,31.810,157.850,-198.370,-58.930
435,45890.349000,235.041,-50.599,97.240,504.177,-181.560,31.913,243.850,7.630,-120.930
436,45890.389000,146.214,-13.526,66.481,509.934,-186.179,32.778,212.850,-125.370,-58.930
437,45890.425000,149.209,-19.538,50.605,505.898,-196.663,31.496,448.850,-272.370,373.070
438,45890.465000,156.195,-22.544,60.527,504.809,-204.347,27.346,371.850,-265.370,507.070
439,45890.507000,130.246,-12.524,77.395,498.842,-214.726,30.982,375.850,-180.370,434.070
440,45890.565000,172.164,-64.626,53.581,493.977,-215.714,31.930,582.850,-295.370,201.070
441,45890.573000,214.082,-68.634,56.558,496.808,-220.559,25.898,797.850,-443.370,104.070
442,45890.624000,284.943,-83.663,36.713,499.911,-208.066,32.152,1114.850,-433.370,-57.930
443,45890.650000,323.867,-95.687,78.388,499.815,-215.447,38.832,1417.850,-350.370,65.070
444,45890.687000,405.708,-71.640,106.171,497.000,-210.392,52.739,1662.850,-69.370,467.070
445,45890.728000,432.655,90.677,79.380,489.955,-229.846,70.874,1514.850,5.630,946.070
446,45890.779000,314.885,-42.583,111.132,480.140,-240.594,98.100,1593.850,134.630,884.070
447,45890.810000,206.097,-13.526,76.403,475.119,-254.347,116.397,1783.850,284.630,822.070
448,45890.830000,100.304,32.564,52.589,467.353,-258.290,149.717,1757.850,140.630,815.070
449,45890.869000,40.421,20.540,0.000,451.727,-267.413,170.093,1529.850,-64.370,856.070
450,45890.909000,30.441,17.534,18.853,449.816,-267.046,184.854,1296.850,-255.370,662.070
451,45890.949000,134.238,-13.526,115.101,450.829,-264.957,191.799,1323.850,-537.370,343.070
452,45890.995000,512.499,-234.959,192.496,448.015,-258.352,192.962,1171.850,-971.370,595.070
453,45891.52000,494.534,-108.712,128.992,448.016,-260.636,213.554,1689.850,319.630,523.070
454,45891.68000,473.575,-114.724,124.031,437.661,-242.792,250.426,2356.850,790.630,541.070
455,45891.108000,243.025,-5.511,15.876,414.643,-231.061,312.681,2716.850,1226.630,850.070
456,45891.128000,66.370,79.656,14.884,398.424,-215.349,343.583,2253.850,732.630,965.070
457,45891.169000,6.487,74.646,-55.566,380.357,-193.858,379.560,2008.850,436.630,707.070
458,45891.218000,70.363,180.853,25.798,372.834,-179.310,397.657,1566.850,179.630,569.070
459,45891.247000,375.766,137.769,61.519,371.052,-168.830,401.880,467.850,-128.370,290.070
460,45891.287000,260.990,63.624,105.178,370.009,-174.386,406.642,114.850,225.630,-37.930
461,45891.327000,159.189,-3.507,91.287,370.206,-161.095,408.979,148.850,105.630,-291.930
462,45891.365000,272.967,4.509,114.109,377.085,-155.298,410.135,262.850,-310.370,-120.930
463,45891.412000,341.832,20.540,173.643,375.145,-155.300,411.116,297.850,28.630,427.070
464,45891.430000,396.725,-111.718,180.589,367.349,-158.115,415.942,471.850,45.630,468.070
465,45891.465000,405.708,-98.693,160.744,362.661,-147.597,423.112,949.850,210.630,-249.930
466,45891.505000,220.070,75.648,22.822,360.910,-135.174,429.357,703.850,28.630,137.070
467,45891.550000,195.119,31.562,16.868,362.980,-126.583,431.566,334.850,-265.370,339.070
468,45891.588000,207.096,-35.569,13.891,365.880,-127.461,432.530,191.850,-189.370,305.070
469,45891.627000,105.294,9.519,6.946,368.886,-120.826,431.736,307.850,-276.370,210.070
470,45891.668000,57.388,8.517,0.000,378.551,-122.765,424.813,58.850,-604.370,266.070
471,45891.717000,179.150,-22.544,51.597,390.131,-125.779,411.962,-53.150,-602.370,15.070
472,45891.730000,502.519,26.552,116.093,405.520,-133.545,396.034,-61.150,-865.370,-167.930
473,45891.769000,350.815,-10.521,159.752,403.549,-134.729,388.129,-605.150,-145.370,196.070
474,45891.809000,341.832,58.614,159.752,400.403,-150.846,387.676,-529.150,39.630,378.070
475,45891.850000,305.903,-16.532,112.124,392.559,-156.577,389.470,-122.150,172.630,284.070
476,45891.889000,265.980,19.538,43.659,395.416,-160.318,389.371,-494.150,-29.370,-487.930
477,45891.925000,251.010,81.659,68.465,396.424,-157.520,387.483,-558.150,218.630,-723.930
478,45891.973000,195.119,74.646,72.434,401.330,-153.695,386.614,-559.150,42.630,-674.930
479,45892.8000,153.201,-16.532,30.760,403.250,-154.719,382.655,-806.150,41.630,-433.930
480,45892.28000,146.214,7.515,18.853,408.900,-165.328,371.549,-1033.150,-147.370,-415.930
481,45892.70000,120.265,47.593,38.698,417.392,-179.889,352.470,-1069.150,-398.370,-427.930
482,45892.107000,179.150,80.658,57.550,426.082,-181.132,336.712,-1277.150,-501.370,-290.930
483,45892.149000,327.860,20.540,82.357,435.439,-202.404,313.513,-1382.150,-405.370,-176.930
484,45892.198000,443.634,-13.526,109.147,442.025,-214.234,291.556,-1230.150,-232.370,-321.930
485,45892.227000,397.723,27.554,101.209,444.826,-220.235,277.623,-1193.150,0.630,-475.930
486,45892.267000,318.877,31.562,94.264,447.571,-230.807,269.465,-1453.150,278.630,-321.930
487,45892.307000,194.121,2.505,68.465,441.564,-242.474,260.278,-1542.150,345.630,-279.930
488,45892.327000,126.253,-14.528,37.705,443.317,-253.322,242.274,-1506.150,269.630,-458.930
489,45892.367000,102.300,-28.556,26.791,446.097,-260.374,224.378,-1393.150,192.630,-594.930
490,45892.407000,55.392,-36.571,27.783,453.799,-263.391,213.487,-1296.150,16.630,-563.930
491,45892.450000,63.376,-7.515,59.535,457.688,-260.946,196.840,-1205.150,-232.370,-460.930
492,45892.490000,168.172,94.685,104.186,464.511,-255.887,170.435,-1285.150,-353.370,-468.930
493,45892.530000,434.651,66.630,93.271,469.223,-261.494,134.877,-1498.150,-610.370,-321.930
494,45892.578000,512.499,128.751,145.860,476.087,-253.598,108.551,-1631.150,-121.370,-727.930
495,45892.610000,502.519,107.710,144.868,481.810,-258.665,92.682,-2212.150,386.630,-581.930
496,45892.632000,291.930,5.511,46.636,479.852,-258.142,77.939,-2798.150,1083.630,-814.930
497,45892.673000,131.244,-107.710,19.845,486.800,-246.856,72.363,-2344.150,1319.630,-876.930
498,45892.708000,11.478,-67.632,-76.403,488.939,-233.511,75.689,-1955.150,1217.630,-727.930
499,45892.747000,17.466,-153.800,-38.698,490.959,-227.862,73.882,-1654.150,635.630,-611.930
500,45892.788000,147.212,-88.673,27.783,497.842,-220.490,63.279,-1315.150,378.630,-688.930
501,45892.828000,211.088,-36.571,61.519,504.860,-203.688,51.955,-816.150,-191.370,-688.930
502,45892.867000,226.058,-87.671,69.457,502.124,-191.463,51.306,-211.150,286.630,-690.930
503,45892.889000,203.103,-93.683,94.264,512.045,-176.274,48.795,12.850,-124.370,-311.930
504,45892.928000,259.992,-37.573,113.116,509.068,-180.230,43.762,-116.150,-369.370,-147.930
505,45892.970000,304.904,61.620,150.822,509.166,-172.822,38.066,-81.150,-156.370,153.070
506,45893.7000,450.620,-26.552,249.054,505.181,-179.576,34.921,-219.150,-208.370,-39.930
507,45893.49000,361.793,57.613,158.760,508.163,-174.019,29.179,-659.150,129.630,-60.930
508,45893.88000,233.045,-98.693,66.481,508.173,-172.364,20.372,-577.150,-102.370,-259.930
509,45893.128000,169.170,-128.751,78.388,512.075,-171.285,23.360,406.850,45.630,260.070
510,45893.169000,202.105,-50.599,83.349,503.009,-193.342,15.846,331.850,-499.370,853.070
511,45893.189000,155.197,-2.505,59.535,494.941,-213.495,8.386,233.850,-365.370,832.070
512,45893.232000,83.337,-37.573,75.411,490.946,-221.141,7.183,293.850,-305.370,340.070
513,45893.272000,88.327,-35.569,84.341,489.975,-220.394,0.317,227.850,-512.370,-198.930
514,45893.313000,275.961,-14.528,73.426,494.916,-213.050,-10.290,407.850,-755.370,-251.930
515,45893.348000,415.688,-106.708,-5.953,491.957,-216.007,-13.328,619.850,-394.370,65.070
516,45893.393000,320.873,-115.726,0.992,487.886,-230.009,-4.872,1177.850,-179.370,526.070
517,45893.429000,280.951,-90.677,-2.977,492.642,-238.109,7.698,1527.850,-199.370,786.070
518,45893.469000,201.107,-90.677,9.922,479.773,-258.407,32.685,2014.850,-61.370,759.070
519,45893.488000,114.277,-53.605,18.853,473.943,-261.640,56.192,2157.850,-323.370,534.070
520,45893.530000,144.218,2.505,56.558,472.881,-270.505,78.567,2163.850,-388.370,356.070
521,45893.570000,266.979,104.704,128.000,468.211,-259.750,94.596,1655.850,-131.370,504.070
522,45893.612000,406.706,180.853,183.566,459.258,-276.501,108.869,1083.850,-57.370,789.070
523,45893.657000,337.840,-119.734,127.008,456.356,-277.172,120.649,1056.850,-156.370,280.070
524,45893.690000,324.866,-45.589,76.403,453.379,-284.199,142.088,1231.850,119.630,384.070
525,45893.730000,302.908,27.554,66.481,453.484,-279.758,166.802,1612.850,334.630,390.070
526,45893.778000,209.092,83.663,57.550,442.970,-272.421,199.447,1462.850,422.630,502.070
527,45893.792000,166.175,60.618,68.465,432.366,-270.076,222.118,1262.850,194.630,408.070
528,45893.832000,133.240,59.616,74.419,431.514,-263.942,239.992,1182.850,33.630,379.070
529,45893.868000,127.251,50.599,43.659,426.821,-254.264,251.073,1055.850,-264.370,220.070
530,45893.912000,96.312,38.575,47.628,430.792,-248.457,254.192,985.850,-409.370,120.070
531,45893.953000,101.302,-47.593,72.434,439.622,-241.740,253.410,892.850,-511.370,95.070
532,45893.993000,195.119,-32.564,130.977,444.559,-235.210,247.698,832.850,-669.370,254.070
533,45894.28000,512.499,-85.667,94.264,460.234,-223.144,231.339,760.850,-1488.370,37.070
534,45894.70000,512.499,-78.654,176.620,459.378,-216.301,240.380,912.850,300.630,202.070
535,45894.90000,426.667,-85.667,152.806,447.824,-213.706,272.892,1371.850,1261.630,61.070
536,45894.139000,234.043,-47.593,40.682,426.869,-191.941,320.675,1686.850,1332.630,435.070
537,45894.178000,144.218,40.579,50.605,397.050,-179.625,373.099,2088.850,1425.630,752.070
538,45894.213000,-8.483,94.685,32.744,372.204,-157.258,410.073,1711.850,927.630,798.070
539,45894.253000,11.478,112.720,7.938,361.684,-147.690,420.157,1010.850,339.630,457.070
540,45894.294000,233.045,185.863,40.682,357.971,-137.106,429.298,612.850,265.630,209.070
541,45894.329000,232.047,38.575,75.411,353.157,-135.126,435.247,47.850,297.630,-288.930
542,45894.369000,188.133,85.667,104.186,351.269,-131.397,434.363,-320.150,283.630,-359.930
543,45894.390000,186.136,-7.515,104.186,348.208,-141.814,435.052,-118.150,65.630,20.070
544,45894.433000,185.138,-67.632,161.736,350.124,-143.651,435.988,27.850,-86.370,-47.930
545,45894.479000,255.002,141.777,181.581,353.055,-141.824,432.109,199.850,-114.370,468.070
546,45894.517000,397.723,-68.634,200.434,350.113,-143.783,431.066,281.850,-273.370,314.070
547,45894.565000,343.828,-1.503,128.992,353.086,-139.880,434.131,233.850,8.630,5.070
548,45894.589000,255.002,110.716,69.457,351.212,-135.967,440.138,498.850,173.630,304.070
549,45894.629000,253.006,47.593,39.690,345.231,-147.292,443.747,-155.150,142.630,222.070
550,45894.649000,182.144,-10.521,44.651,339.464,-143.566,444.825,-409.150,230.630,123.070
551,45894.695000,82.339,3.507,25.798,340.319,-151.196,441.663,-319.150,-118.370,77.070
552,45894.730000,81.341,2.505,16.868,343.148,-156.067,434.647,-334.150,-443.370,4.070
553,45894.773000,216.078,-32.564,64.496,359.417,-170.360,421.490,-365.150,-617.370,-73.930
554,45894.813000,393.731,-50.599,99.225,373.047,-165.808,407.869,-180.150,-755.370,-129.930
555,45894.853000,333.848,-15.530,129.984,378.711,-175.471,396.790,-201.150,-268.370,130.070
556,45894.895000,318.877,-65.628,191.504,379.672,-176.351,398.735,59.850,40.630,296.070
557,45894.929000,199.111,55.609,132.961,366.007,-182.899,408.366,226.850,221.630,547.070
558,45894.949000,227.057,-7.515,104.186,362.211,-177.228,410.484,541.850,-139.370,402.070
559,45894.990000,267.977,45.589,71.442,369.982,-176.277,406.589,-70.150,-276.370,-240.930
560,45895.30000,209.092,71.640,101.209,369.074,-171.642,403.766,39.850,-74.370,-431.930
561,45895.70000,189.131,30.560,75.411,376.019,-161.144,404.069,-16.150,-110.370,-324.930
562,45895.114000,206.097,14.528,49.612,374.025,-164.166,398.080,-253.150,-120.370,-308.930
563,45895.149000,178.152,71.640,35.721,384.715,-162.308,391.265,-549.150,-244.370,-263.930
564,45895.193000,158.191,97.691,38.698,393.191,-177.841,371.175,-961.150,-516.370,-236.930
565,45895.239000,224.062,70.638,77.395,402.781,-184.586,361.167,-1002.150,-492.370,-69.930
566,45895.253000,376.764,-85.667,106.171,413.121,-204.925,337.012,-861.150,-546.370,-166.930
567,45895.299000,343.828,6.513,102.202,421.857,-203.279,323.302,-783.150,-321.370,-420.930
568,45895.340000,286.940,54.607,110.140,426.515,-214.952,308.231,-1186.150,-24.370,-370.930
569,45895.373000,217.076,-6.513,112.124,425.426,-221.875,297.217,-1343.150,152.630,-294.930
570,45895.420000,169.170,-37.573,84.341,423.185,-241.131,284.875,-1341.150,23.630,-441.930
571,45895.449000,124.257,-28.556,44.651,428.969,-241.575,265.200,-1406.150,-79.370,-424.930
572,45895.494000,84.335,-34.568,56.558,436.470,-257.174,243.139,-1212.150,-307.370,-181.930
573,45895.534000,107.290,45.589,68.465,440.234,-263.267,225.271,-1294.150,-498.370,-101.930
574,45895.554000,176.156,89.675,86.326,447.738,-277.291,191.451,-1353.150,-621.370,-67.930
575,45895.639000,512.499,147.789,45.643,453.497,-277.290,153.100,-1837.150,-443.370,-163.930
576,45895.655000,457.606,62.622,68.465,450.197,-300.790,123.916,-2216.150,154.630,-289.930
577,45895.672000,428.663,30.560,79.380,457.080,-291.869,100.569,-2767.150,941.630,-894.930
578,45895.712000,316.881,-77.652,43.659,463.027,-281.753,87.090,-2649.150,1104.630,-1113.930
579,45895.752000,149.209,-166.826,32.744,468.979,-272.346,82.444,-1972.150,1305.630,-1023.930
580,45895.792000,54.394,-90.677,31.752,471.119,-259.001,85.769,-1533.150,1060.630,-446.930
581,45895.839000,88.327,-21.542,28.775,469.230,-255.272,84.886,-1254.150,867.630,-493.930
582,45895.850000,210.090,-30.560,63.504,478.049,-249.474,85.062,-929.150,415.630,-822.930
583,45895.890000,274.963,-92.681,85.333,481.107,-238.322,76.525,-742.150,281.630,-714.930
584,45895.932000,200.109,-90.677,88.310,491.095,-219.193,80.025,-681.150,365.630,-895.930
585,45895.973000,185.138,22.544,49.612,493.172,-209.736,79.308,-673.150,212.630,-100.930
586,45896.15000,194.121,19.538,80.372,487.212,-217.726,66.289,-686.150,-17.370,182.070
587,45896.53000,247.018,-73.644,125.023,489.245,-211.131,64.508,-345.150,-52.370,-376.930
588,45896.94000,290.932,-51.601,126.016,496.103,-206.386,61.701,-240.150,-48.370,-295.930
589,45896.133000,512.499,121.738,147.845,496.079,-207.463,56.753,-437.150,44.630,-80.930
590,45896.152000,330.854,-21.542,89.302,492.169,-210.171,63.556,-604.150,509.630,2.070
591,45896.207000,255.002,-42.583,75.411,490.236,-210.093,67.490,-319.150,364.630,95.070
592,45896.234000,147.212,-25.550,68.465,490.191,-213.744,72.306,-239.150,403.630,91.070
593,45896.273000,30.441,-35.569,42.667,491.179,-212.732,74.303,-169.150,170.630,54.070
594,45896.309000,14.472,-14.528,33.736,493.995,-218.549,67.261,22.850,-348.370,-82.930
595,45896.358000,151.205,5.511,95.256,494.094,-210.354,55.686,206.850,-836.370,-260.930
596,45896.397000,427.665,-6.513,127.008,500.076,-196.719,32.468,-83.150,-878.370,-478.930
597,45896.433000,252.008,-7.515,132.961,504.094,-187.234,31.755,51.850,-223.370,-331.930
598,45896.475000,243.025,-58.614,134.946,511.029,-176.106,20.273,6.850,-311.370,-398.930
599,45896.492000,359.797,-119.734,120.062,510.053,-176.960,24.182,821.850,-211.370,101.070
600,45896.543000,322.869,-90.677,133.953,509.943,-184.525,23.972,915.850,-160.370,506.070
601,45896.575000,309.895,1.503,103.194,503.817,-206.934,37.108,866.850,-26.370,709.070
602,45896.614000,231.049,-10.521,74.419,494.923,-219.088,46.592,897.850,42.630,764.070
603,45896.650000,192.125,-44.587,47.628,486.987,-232.147,57.035,987.850,-53.370,722.070
604,45896.700000,137.232,-50.599,21.829,484.982,-237.611,65.732,1264.850,-249.370,611.070
605,45896.740000,86.331,-67.632,6.946,482.860,-250.720,71.265,1501.850,-574.370,567.070
606,45896.752000,57.388,-36.571,35.721,482.786,-257.050,81.909,1624.850,-656.370,576.070
607,45896.790000,131.244,7.515,49.612,478.835,-262.594,88.633,1315.850,-673.370,483.070
608,45896.842000,512.499,123.742,114.109,480.841,-257.130,79.936,1050.850,-954.370,285.070
609,45896.872000,406.706,43.585,144.868,471.999,-265.527,88.540,632.850,397.630,403.070
610,45896.912000,376.764,28.556,123.039,476.945,-260.414,100.494,349.850,174.630,-199.930
611,45896.954000,283.945,10.521,118.078,475.022,-260.966,116.213,740.850,353.630,-251.930
612,45896.994000,172.164,33.566,77.395,477.187,-248.066,138.215,606.850,468.630,19.070
613,45897.34000,91.322,33.566,53.581,478.097,-253.437,148.887,676.850,256.630,34.070
614,45897.54000,40.421,-4.509,21.829,478.273,-242.719,160.988,919.850,-107.370,175.070
615,45897.137000,94.316,-116.728,79.380,477.342,-240.684,166.945,1244.850,-433.370,210.070
616,45897.164000,512.499,-145.785,142.884,481.384,-230.883,178.044,1314.850,-473.370,217.070
617,45897.180000,314.885,25.550,114.109,469.710,-235.984,205.424,2422.850,536.630,842.070
618,45897.214000,342.830,-13.526,77.395,454.419,-224.644,248.992,2439.850,322.630,994.070
619,45897.254000,260.990,-16.532,13.891,436.156,-217.206,289.496,3004.850,416.630,1390.070
620,45897.294000,251.010,93.683,-16.868,414.109,-203.152,332.145,2645.850,344.630,1219.070
621,45897.314000,158.191,167.828,5.953,403.732,-185.597,358.190,2158.850,80.630,982.070
622,45897.355000,119.267,123.742,18.853,402.041,-169.338,366.508,1858.850,-240.370,902.070
623,45897.393000,127.251,34.568,19.845,397.210,-169.117,377.326,1471.850,-356.370,1038.070
624,45897.433000,118.269,16.532,23.814,396.312,-164.350,379.424,1189.850,-521.370,793.070
625,45897.470000,114.277,6.513,64.496,405.275,-148.230,376.937,1233.850,-599.370,424.070
626,45897.527000,253.006,23.546,130.977,408.389,-134.057,375.369,1102.850,-652.370,591.070
627,45897.554000,512.499,-8.517,63.504,421.946,-134.285,359.648,500.850,-758.370,322.070
628,45897.595000,397.723,144.783,48.620,424.896,-131.460,357.764,99.850,-189.370,-96.930
629,45897.612000,325.864,80.658,69.457,427.678,-140.008,354.580,-688.150,42.630,-409.930
630,45897.655000,215.080,39.577,60.527,426.650,-143.070,346.624,-1021.150,39.630,-551.930
631,45897.714000,125.255,-2.505,45.643,435.322,-146.072,335.736,-1294.150,-5.370,-631.930
632,45897.762000,69.365,-36.571,53.581,439.918,-162.395,323.486,-1093.150,-210.370,-653.930
633,45897.778000,85.333,-82.661,81.364,458.467,-153.073,309.023,-749.150,-469.370,-506.930
634,45897.812000,144.218,-101.699,90.295,470.018,-157.243,288.270,-438.150,-591.370,-166.930
635,45897.853000,512.499,-88.673,166.698,477.696,-161.337,272.432,-65.150,-994.370,387.070
636,45897.898000,512.499,-101.699,100.217,476.801,-157.305,282.378,694.850,902.630,-176.930
637,45897.913000,423.673,-3.507,21.829,459.633,-141.316,324.106,977.850,1518.630,-32.930
638,45897.955000,226.058,9.519,42.667,429.950,-118.808,368.944,1370.850,1425.630,65.070
639,45897.995000,140.226,66.630,24.806,416.554,-107.285,383.013,732.850,978.630,-11.930
640,45898.45000,115.275,124.744,11.907,397.185,-106.980,404.628,299.850,953.630,-82.930
641,45898.78000,135.236,95.687,43.659,387.709,-93.379,423.679,106.850,708.630,-151.930
642,45898.113000,208.094,32.564,60.527,376.034,-96.196,430.466,-245.150,433.630,-244.930
643,45898.153000,207.096,56.611,109.147,374.997,-100.912,431.317,-553.150,463.630,-311.930
644,45898.198000,140.226,13.526,123.039,367.069,-113.105,438.833,-382.150,443.630,-87.930
645,45898.213000,146.214,-7.515,97.240,369.201,-100.626,445.086,34.850,194.630,-246.930
646,45898.253000,159.189,8.517,83.349,369.148,-103.621,439.101,155.850,-72.370,-172.930
647,45898.293000,204.101,79.656,101.209,375.993,-99.795,437.251,-28.150,-67.370,-15.930
648,45898.333000,198.113,102.701,123.039,374.863,-110.316,433.022,-359.150,-288.370,143.070
649,45898.373000,463.595,-50.599,177.612,381.604,-113.214,427.051,204.850,-192.370,23.070
650,45898.412000,369.778,-22.544,74.419,387.597,-101.732,429.348,399.850,-117.370,-237.930
651,45898.453000,317.879,80.658,34.729,390.598,-95.176,425.601,-156.150,50.630,122.070
652,45898.493000,245.021,-54.607,62.512,385.631,-103.624,430.276,-142.150,328.630,222.070
653,45898.513000,150.207,-73.644,34.729,380.717,-108.316,434.071,-57.150,65.630,294.070
654,45898.553000,113.279,-38.575,22.822,379.661,-114.029,432.927,53.850,-92.370,192.070
655,45898.592000,85.333,10.521,5.953,385.475,-114.079,428.017,38.850,-226.370,82.070
656,45898.632000,150.207,20.540,31.752,388.377,-114.169,423.102,-28.150,-435.370,29.070
657,45898.675000,426.667,-3.507,92.279,395.161,-113.443,411.330,-10.150,-494.370,-195.930
658,45898.713000,506.511,-1.503,81.364,404.801,-117.246,405.339,-105.150,-209.370,23.070
659,45898.757000,350.815,28.556,129.984,401.804,-122.987,404.191,-478.150,-22.370,281.070
660,45898.794000,350.815,-40.579,152.806,391.795,-143.929,403.591,-275.150,244.630,375.070
661,45898.813000,162.183,46.591,115.101,380.069,-150.476,412.242,243.850,238.630,757.070
662,45898.852000,262.986,4.509,102.202,380.048,-151.527,408.278,-69.150,-262.370,232.070
663,45898.899000,242.027,49.597,99.225,378.998,-157.162,410.087,-287.150,181.630,-366.930
664,45898.933000,163.181,36.571,86.326,381.076,-148.466,416.234,78.850,80.630,-272.930
665,45898.979000,162.183,14.528,64.496,379.252,-140.062,413.514,21.850,9.630,-156.930
666,45899.57000,152.203,45.589,34.729,382.199,-137.263,410.646,-201.150,-191.370,-150.930
667,45899.73000,141.224,90.677,36.713,389.893,-141.146,402.682,-495.150,-460.370,-157.930
668,45899.80000,163.181,98.693,64.496,402.250,-156.650,381.616,-837.150,-568.370,-11.930
669,45899.115000,355.805,-108.712,98.233,401.968,-174.880,371.272,-787.150,-610.370,156.070
670,45899.164000,473.575,-179.851,88.310,416.396,-181.767,353.400,-566.150,-488.370,-0.930
671,45899.197000,460.600,59.616,95.256,418.134,-194.349,341.249,-493.150,11.630,-326.930
672,45899.238000,310.893,54.607,125.023,418.299,-183.763,348.429,-612.150,335.630,-448.930
673,45899.273000,158.191,32.564,108.155,416.244,-191.408,346.246,-901.150,320.630,-339.930
674,45899.317000,90.324,-3.507,54.574,416.082,-201.180,334.171,-1189.150,39.630,-207.930
675,45899.357000,71.361,-13.526,54.574,417.711,-221.327,321.810,-1259.150,-47.370,-146.930
676,45899.375000,74.355,-23.546,65.488,420.463,-230.270,303.861,-1097.150,-200.370,-229.930
677,45899.417000,193.123,36.571,94.264,427.072,-240.262,279.987,-1313.150,-331.370,-374.930
678,45899.455000,498.526,64.626,82.357,438.624,-244.406,260.219,-1458.150,-501.370,-472.930
679,45899.495000,345.825,38.575,103.194,440.224,-264.922,234.077,-1915.150,155.630,-325.930
680,45899.537000,373.770,-24.548,89.302,444.070,-264.579,209.503,-1921.150,143.630,-582.930
681,45899.589000,297.918,1.503,13.891,449.695,-275.530,185.601,-2043.150,311.630,-755.930
682,45899.635000,259.992,3.507,13.891,456.531,-270.287,166.087,-2218.150,495.630,-762.930
683,45899.670000,191.127,-25.550,0.992,458.366,-275.488,147.257,-2299.150,453.630,-909.930
684,45899.678000,149.209,-66.630,15.876,474.025,-263.633,123.022,-2104.150,271.630,-1090.930
685,45899.718000,141.224,-75.648,56.558,482.810,-257.495,100.585,-1850.150,155.630,-1156.930
686,45899.757000,129.248,-50.599,78.388,495.720,-234.360,75.676,-1520.150,-216.370,-858.930
687,45899.803000,162.183,33.566,66.481,497.653,-232.915,58.015,-1403.150,-193.370,-515.930
688,45899.837000,184.140,16.532,52.589,498.720,-223.210,31.729,-1454.150,-499.370,-0.930
689,45899.878000,303.906,-72.642,92.279,497.660,-226.693,8.024,-1043.150,-426.370,-213.930
690,45899.913000,451.618,-83.663,125.023,502.758,-208.106,-6.205,-367.150,-514.370,-629.930
691,45899.955000,398.721,7.515,101.209,500.744,-212.914,-8.309,-52.150,78.630,134.070
692,45899.975000,316.881,7.515,79.380,503.527,-222.224,-4.629,-184.150,367.630,385.070
693,45900.37000,160.187,-5.511,71.442,496.556,-235.349,2.863,-84.150,189.630,362.070
694,45900.62000,105.294,-1.503,82.357,490.799,-231.491,8.862,82.850,199.630,181.070
695,45900.104000,34.433,-0.501,87.318,493.192,0.123,13.342,-52.150,64.630,72.070
696,45900.137000,100.304,19.538,138.915,486.902,-231.730,1.964,-226.150,-141.370,-253.930
697,45900.177000,349.817,101.699,135.938,493.792,-223.492,-11.566,-584.150,-637.370,-613.930
698,45900.215000,371.774,55.609,70.450,494.028,-204.318,-36.606,-1008.150,-239.370,-429.930
699,45900.263000,424.671,-87.671,13.891,495.986,-201.008,-55.199,-1001.150,-424.370,-253.930
700,45900.277000,336.842,-37.573,11.907,495.056,-199.734,-42.378,-796.150,1102.630,-23.930
701,45900.318000,265.980,-3.507,25.798,502.891,-196.418,-28.502,-1037.150,1004.630,32.070
702,45900.367000,205.099,-52.603,36.713,496.985,-203.697,-14.944,-903.150,1184.630,21.070
703,45900.393000,157.193,-76.650,63.504,501.014,-195.603,2.993,-576.150,901.630,-55.930
704,45900.439000,157.193,-31.562,36.713,498.059,-199.269,8.787,-261.150,624.630,-172.930
705,45900.495000,178.152,-30.560,70.450,499.136,-193.266,20.759,39.850,395.630,-116.930
706,45900.517000,181.146,-61.620,97.240,499.129,-194.894,30.550,-37.150,204.630,47.070
707,45900.558000,158.191,-51.601,135.938,496.250,-192.203,26.686,-141.150,-54.370,36.070
708,45900.579000,253.006,27.554,146.853,495.300,-189.644,16.919,-113.150,-205.370,-24.930
709,45900.628000,239.033,23.546,146.853,496.255,-190.602,15.911,-269.150,153.630,-44.930
710,45900.658000,170.168,16.532,155.783,503.085,-187.748,13.051,-539.150,29.630,-625.930
711,45900.697000,290.932,2.505,124.031,506.275,-166.457,-5.040,-869.150,-620.370,-556.930
712,45900.738000,383.750,-33.566,22.822,506.111,-176.256,-18.100,-652.150,-149.370,15.070
713,45900.778000,218.074,-43.585,48.620,511.146,-164.629,-9.899,42.850,354.630,45.070
714,45900.815000,170.168,-26.552,49.612,505.198,-173.983,-3.284,26.850,136.630,76.070
715,45900.835000,149.209,-6.513,26.791,506.230,-170.108,-0.224,210.850,100.630,72.070
716,45900.874000,181.146,6.513,23.814,505.158,-177.581,3.501,274.850,-24.370,40.070
717,45900.917000,287.938,-7.515,41.674,502.285,-174.812,2.589,261.850,-206.370,45.070
718,45900.955000,337.840,-2.505,64.496,504.244,-173.025,-2.276,502.850,-337.370,7.070
719,45900.998000,339.836,-39.577,81.364,507.246,-167.205,1.826,650.850,-127.370,-89.930
720,45901.37000,325.864,12.524,144.868,506.167,-174.757,2.598,576.850,-263.370,-140.930
721,45901.77000,205.099,-26.552,152.806,511.129,-167.150,1.834,652.850,-190.370,-120.930
722,45901.115000,174.160,-43.585,124.031,514.998,-168.040,1.816,760.850,-246.370,-30.930
723,45901.137000,258.994,-18.536,107.163,509.164,-169.016,3.746,878.850,-472.370,477.070
724,45901.174000,240.031,0.501,106.171,505.959,-188.968,1.218,776.850,-217.370,617.070
725,45901.215000,197.115,-3.507,78.388,505.808,-200.131,7.793,597.850,-94.370,569.070
726,45901.255000,192.125,-12.524,64.496,498.798,-215.305,9.326,650.850,-106.370,516.070
727,45901.295000,205.099,-18.536,59.535,491.923,-221.810,17.002,629.850,-186.370,639.070
728,45901.335000,153.201,-25.550,37.705,487.726,-243.588,17.373,730.850,-335.370,745.070
729,45901.380000,132.242,-96.689,45.643,479.845,-252.104,21.058,1067.850,-566.370,722.070
730,45901.414000,174.160,-135.765,47.628,480.651,-263.438,20.744,1394.850,-681.370,21.070
731,45901.434000,323.867,-40.579,33.736,483.795,-248.108,27.077,1367.850,-325.370,-304.930
732,45901.479000,432.655,115.726,76.403,485.644,-255.409,35.730,839.850,-235.370,336.070
733,45901.519000,372.772,2.505,118.078,478.652,-271.107,52.986,756.850,194.630,702.070
734,45901.564000,280.951,-22.544,119.070,476.655,-277.227,72.485,717.850,387.630,345.070
735,45901.597000,191.127,55.609,100.217,471.001,-266.671,81.621,698.850,178.630,13.070
736,45901.635000,133.240,47.593,84.341,473.832,-273.038,89.318,422.850,185.630,92.070
737,45901.678000,110.285,63.624,67.473,472.960,-267.168,97.348,165.850,-27.370,25.070
738,45901.718000,160.187,44.587,59.535,475.839,-269.097,94.349,-80.150,-91.370,-214.930
739,45901.738000,158.191,-100.697,44.651,484.775,-254.868,91.809,701.850,-482.370,-528.930
740,45901.779000,468.585,-227.945,80.372,494.756,-235.817,92.355,1336.850,-573.370,-262.930
741,45901.818000,444.632,6.513,87.318,484.912,-248.483,118.544,1981.850,303.630,819.070
742,45901.858000,400.717,-0.501,98.233,475.312,-246.464,163.830,2392.850,520.630,929.070
743,45901.898000,305.903,15.530,73.426,459.736,-253.406,195.086,2634.850,590.630,1030.070
744,45901.938000,199.111,36.571,37.705,443.478,-242.027,240.621,2582.850,466.630,1145.070
745,45901.978000,163.181,68.634,15.876,429.958,-242.086,280.925,2223.850,322.630,924.070
746,45902.19000,140.226,113.722,6.946,417.620,-226.345,310.850,1868.850,96.630,683.070
747,45902.39000,121.263,71.640,16.868,411.003,-215.697,323.922,1584.850,-344.370,849.070
748,45902.77000,133.240,20.540,35.721,411.036,-213.726,326.928,1457.850,-363.370,920.070
749,45902.117000,149.209,-25.550,73.426,408.150,-212.664,332.854,1279.850,-451.370,622.070
750,45902.159000,268.975,3.507,117.085,415.179,-197.253,340.180,1129.850,-500.370,548.070
751,45902.203000,506.511,29.558,76.403,418.979,-202.111,333.166,911.850,-805.370,292.070
752,45902.242000,342.830,49.597,75.411,421.224,-181.253,334.734,334.850,-59.370,-192.930
753,45902.275000,256.000,50.599,94.264,422.260,-177.325,339.763,-72.150,137.630,-349.930
754,45902.319000,214.082,51.601,94.264,428.080,-177.295,337.806,-331.150,62.630,-364.930
755,45902.342000,151.205,1.503,84.341,425.056,-184.167,329.741,-602.150,-135.370,-122.930
756,45902.378000,123.259,-30.560,84.341,431.850,-183.309,322.891,-687.150,-324.370,-134.930
757,45902.420000,129.248,-10.521,95.256,444.308,-192.115,304.962,-662.150,-398.370,-341.930
758,45902.459000,167.173,-15.530,114.109,458.867,-189.625,284.400,-554.150,-711.370,-469.930
759,45902.500000,335.844,-33.566,126.016,478.218,-190.166,253.926,-498.150,-1229.370,-287.930
760,45902.535000,512.499,-173.840,41.674,489.714,-198.119,233.068,92.850,-606.370,44.070
761,45902.578000,398.721,-73.644,11.907,478.268,-187.985,264.806,1001.850,1943.630,92.070
762,45902.600000,263.984,73.644,56.558,443.690,-169.905,323.284,1484.850,1655.630,379.070
763,45902.639000,189.131,59.616,24.806,423.509,-160.657,361.868,1236.850,1093.630,144.070
764,45902.689000,155.197,122.740,3.969,413.178,-139.425,384.080,725.850,686.630,-85.930
765,45902.717000,171.166,105.706,37.705,399.710,-132.682,396.049,479.850,672.630,-53.930
766,45902.757000,225.060,65.628,32.744,392.039,-127.721,408.961,286.850,454.630,-230.930
767,45902.795000,238.035,43.585,44.651,383.337,-126.636,418.812,-231.150,591.630,-209.930
768,45902.842000,142.222,49.597,104.186,379.526,-122.698,426.784,-352.150,409.630,-81.930
769,45902.878000,139.228,22.544,102.202,377.429,-133.180,424.522,-267.150,191.630,-109.930
770,45902.898000,167.173,14.528,97.240,377.498,-128.452,424.653,-82.150,-61.370,-305.930
771,45902.939000,147.212,-7.515,127.008,385.326,-123.693,421.848,-85.150,6.630,-285.930
772,45902.977000,163.181,25.550,160.744,389.275,-118.936,421.004,258.850,-257.370,11.070
773,45903.18000,405.708,36.571,200.434,389.251,-120.013,416.055,359.850,-79.370,551.070
774,45903.60000,413.692,-22.544,115.101,384.410,-119.924,421.951,665.850,243.630,453.070
775,45903.115000,298.916,45.589,23.814,382.640,-108.525,425.216,253.850,-78.370,35.070
776,45903.142000,249.014,-5.511,53.581,380.685,-110.259,432.050,41.850,223.630,-86.930
777,45903.182000,176.156,-27.554,39.690,375.899,-105.626,431.187,19.850,142.630,111.070
778,45903.197000,137.232,-20.540,36.713,376.705,-117.722,437.737,-111.150,3.630,319.070
779,45903.240000,81.341,-1.503,44.651,376.667,-119.744,432.763,-78.150,-80.370,384.070
780,45903.288000,66.370,9.519,46.636,381.286,-134.990,425.462,-51.150,-463.370,219.070
781,45903.320000,290.932,-0.501,66.481,396.983,-121.874,413.066,16.850,-514.370,-368.930
782,45903.358000,507.509,-34.568,42.667,399.918,-119.232,404.292,-15.150,-270.370,8.070
783,45903.397000,346.823,27.554,103.194,402.808,-120.242,400.334,-235.150,-158.370,287.070
784,45903.440000,332.850,-39.577,140.899,395.878,-129.768,401.041,-5.150,47.630,207.070
785,45903.489000,177.154,10.521,100.217,388.086,-132.531,407.836,323.850,298.630,657.070
786,45903.513000,176.156,10.521,90.295,380.250,-138.157,413.568,411.850,-16.370,620.070
787,45903.540000,255.002,44.587,85.333,387.074,-136.143,414.620,-4.150,-119.370,-110.930
788,45903.578000,190.129,59.616,88.310,387.111,-133.359,412.730,96.850,-36.370,-208.930
789,45903.620000,174.160,31.562,81.364,387.261,-122.983,412.035,286.850,-124.370,-66.930
790,45903.662000,187.135,29.558,62.512,393.965,-128.666,407.954,50.850,-291.370,44.070
791,45903.700000,201.107,67.632,30.760,394.006,-125.068,401.169,-210.150,-353.370,-3.930
792,45903.738000,195.119,96.689,18.853,406.397,-138.575,384.093,-870.150,-645.370,-40.930
793,45903.778000,213.084,116.728,36.713,417.830,-151.177,366.056,-1249.150,-645.370,-41.930
794,45903.798000,277.957,-21.542,96.248,425.210,-175.261,344.743,-1035.150,-466.370,39.070
795,45903.839000,461.598,-99.695,123.039,428.038,-179.371,330.863,-891.150,-532.370,-429.930
796,45903.879000,381.754,63.624,111.132,438.611,-185.183,319.899,-1137.150,129.630,-405.930
797,45903.919000,234.043,-24.548,113.116,425.812,-197.681,318.547,-915.150,521.630,-170.930
798,45903.959000,129.248,-62.622,100.217,427.529,-212.837,316.161,-872.150,292.630,-256.930
799,45904.10000,83.337,-33.566,76.403,423.627,-213.916,313.173,-851.150,154.630,-333.930
800,45904.44000,91.322,-18.536,53.581,432.305,-216.840,305.238,-667.150,-9.370,-119.930
801,45904.59000,88.327,4.509,72.434,420.456,-229.588,294.043,-549.150,-20.370,130.070
802,45904.103000,116.273,30.560,73.426,429.023,-239.342,278.049,-869.150,-519.370,222.070
803,45904.145000,495.532,41.581,78.388,434.627,-250.556,244.304,-1097.150,-861.370,-48.930
804,45904.187000,429.661,105.706,77.395,442.175,-264.001,232.139,-1931.150,432.630,-601.930
805,45904.222000,385.747,25.550,78.388,443.058,-267.430,209.422,-2128.150,518.630,-952.930
806,45904.258000,305.903,-48.595,53.581,451.868,-260.215,191.933,-2143.150,495.630,-1044.930
807,45904.297000,181.146,-56.611,43.659,458.514,-268.184,173.034,-2131.150,361.630,-645.930
808,45904.338000,133.240,-25.550,34.729,461.296,-275.210,156.122,-2042.150,358.630,-649.930
809,45904.358000,114.277,-2.505,28.775,470.037,-272.723,138.501,-1797.150,375.630,-822.930
810,45904.402000,113.279,-9.519,8.930,475.056,-258.996,119.219,-1668.150,239.630,-728.930
811,45904.442000,108.288,14.528,47.628,479.871,-258.666,93.662,-1799.150,74.630,-543.930
812,45904.482000,226.058,-55.609,108.155,488.717,-247.906,67.419,-1771.150,-58.370,-586.930
813,45904.522000,473.575,-110.716,116.093,493.687,-237.882,50.985,-1271.150,-562.370,-1179.930
814,45904.568000,484.554,-87.671,92.279,501.695,-219.281,35.778,-629.150,221.630,-43.930
815,45904.602000,404.710,-82.661,95.256,493.712,-234.495,36.325,-166.150,282.630,201.070
816,45904.642000,259.992,-67.632,75.411,495.705,-232.260,48.194,239.850,327.630,261.070
817,45904.669000,87.329,6.513,13.891,492.613,-245.382,53.725,331.850,92.630,456.070
818,45904.702000,18.464,90.677,4.961,483.834,-248.369,52.644,-58.150,-231.370,369.070
819,45904.742000,72.359,158.810,68.465,486.624,-253.741,26.925,-1004.150,-700.370,-229.930
820,45904.790000,242.027,179.851,107.163,491.639,-238.544,-8.054,-1148.150,-936.370,-438.930
821,45904.822000,402.713,-74.646,139.907,488.847,-227.055,-36.263,-776.150,-1078.370,-711.930
822,45904.858000,481.559,88.673,183.566,496.898,-205.591,-50.407,-820.150,-18.370,-595.930
823,45904.905000,424.671,45.589,76.403,499.861,-201.058,-59.128,-1106.150,190.630,-403.930
824,45904.940000,286.940,-85.667,40.682,503.031,-183.864,-53.727,-1137.150,1015.630,-333.930
825,45904.968000,166.175,-58.614,69.457,503.955,-189.050,-36.164,-981.150,1265.630,61.070
826,45905.4000,133.240,-32.564,9.922,502.024,-188.946,-31.247,-1197.150,827.630,331.070
827,45905.39000,237.037,-30.560,10.915,504.020,-185.897,-24.273,-976.150,840.630,-199.930
828,45905.79000,221.068,-63.624,39.690,504.159,-178.725,-3.418,-726.150,1246.630,-308.930
829,45905.139000,190.129,-74.646,76.403,505.052,-185.855,12.123,-103.150,657.630,-101.930
830,45905.160000,170.168,-39.577,64.496,499.344,-179.055,22.139,-44.150,520.630,-123.930
831,45905.198000,185.138,-30.560,96.248,504.340,-170.239,31.245,102.850,381.630,-95.930
832,45905.220000,143.220,-5.511,65.488,501.414,-171.987,38.076,-66.150,125.630,98.070
833,45905.260000,214.082,6.513,97.240,503.361,-170.358,27.305,-250.150,-164.370,4.070
834,45905.299000,258.994,1.503,162.729,505.269,-172.300,24.304,-248.150,-185.370,-532.930
835,45905.339000,357.801,10.521,198.450,512.306,-154.474,15.959,-459.150,-149.370,-446.930
836,45905.379000,399.719,42.583,162.729,508.388,-156.526,11.961,-824.150,141.630,94.070
837,45905.419000,225.060,-84.665,51.597,509.370,-154.831,4.141,-741.150,76.630,-37.930
838,45905.458000,174.160,-69.636,37.705,510.315,-156.682,5.074,-6.150,68.630,-138.930
839,45905.504000,161.185,0.501,40.682,509.280,-161.372,6.910,145.850,50.630,86.070
840,45905.522000,126.253,17.534,16.868,504.437,-161.309,11.821,174.850,133.630,101.070
841,45905.560000,103.298,8.517,17.860,510.349,-154.712,8.080,122.850,-196.370,-7.930
842,45905.600000,301.910,-39.577,36.713,504.434,-159.812,-2.891,128.850,-639.370,117.070
843,45905.642000,432.655,3.507,54.574,506.358,-160.783,-4.882,763.850,-330.370,69.070
844,45905.683000,340.834,23.546,96.248,506.277,-166.431,-4.056,690.850,-183.370,145.070
845,45905.722000,270.971,-2.505,129.984,508.104,-174.021,-6.231,535.850,-306.370,133.070
846,45905.764000,137.232,-40.579,129.984,506.187,-172.971,-1.287,564.850,-64.370,-48.930
847,45905.801000,186.136,-14.528,124.031,509.117,-171.932,0.714,568.850,-313.370,46.070
848,45905.832000,310.893,-39.577,103.194,506.151,-174.968,-5.277,641.850,-537.370,402.070
849,45905.864000,228.055,-2.505,117.085,502.041,-191.019,-2.780,442.850,-186.370,544.070
850,45905.901000,199.111,-0.501,93.271,499.889,-205.284,-5.147,363.850,-148.370,435.070
851,45905.943000,210.090,-26.552,80.372,495.899,-212.878,-4.382,526.850,-256.370,364.070
852,45905.983000,210.090,-60.618,68.465,492.869,-221.351,-1.672,748.850,-219.370,507.070
853,45906.24000,162.183,-48.595,6.946,492.812,-225.921,4.103,1060.850,-521.370,544.070
854,45906.70000,153.201,-96.689,3.969,489.734,-237.336,2.796,1441.850,-781.370,307.070
855,45906.100000,196.117,-70.638,24.806,490.791,-231.596,4.925,1591.850,-922.370,9.070
856,45906.120000,340.834,40.579,82.357,492.836,-224.082,2.187,1456.850,-791.370,-237.930
857,45906.160000,512.499,76.650,86.326,491.807,-228.693,6.975,1329.850,-209.370,497.070
858,45906.200000,345.825,69.636,151.814,485.668,-254.331,40.678,1014.850,747.630,799.070
859,45906.247000,199.111,24.548,133.953,477.851,-260.482,62.133,591.850,627.630,457.070
860,45906.282000,134.238,29.558,85.333,477.864,-261.846,81.767,723.850,319.630,229.070
861,45906.322000,106.292,36.571,65.488,473.031,-261.652,91.600,629.850,270.630,40.070
862,45906.362000,88.327,45.589,49.612,477.906,-261.294,102.438,336.850,75.630,-96.930
863,45906.402000,105.294,79.656,64.496,478.028,-252.809,101.691,180.850,-45.370,-166.930
864,45906.422000,203.103,45.589,60.527,484.861,-249.141,93.935,351.850,-641.370,-353.930
865,45906.463000,512.499,-252.994,91.287,486.849,-244.675,83.243,877.850,-940.370,66.070
866,45906.503000,352.811,-65.628,117.085,486.973,-240.759,123.680,1998.850,459.630,506.070
867,45906.543000,318.877,-20.540,60.527,474.368,-244.586,163.881,2348.850,546.630,924.070
868,45906.583000,214.082,-12.524,35.721,457.917,-246.472,208.063,2491.850,419.630,1134.070
869,45906.623000,129.248,33.566,-0.992,444.256,-254.491,233.391,2542.850,154.630,1150.070
870,45906.664000,120.265,43.585,5.953,432.887,-239.524,269.198,2416.850,106.630,1089.070
871,45906.703000,124.257,59.616,-9.922,415.554,-233.360,296.881,2238.850,-218.370,979.070
872,45906.723000,148.211,51.601,38.698,415.850,-214.946,314.115,1924.850,-419.370,956.070
873,45906.762000,216.078,33.566,68.465,411.977,-214.869,319.029,1756.850,-535.370,759.070
874,45906.803000,301.910,21.542,98.233,418.133,-192.826,327.521,1585.850,-604.370,560.070
875,45906.844000,489.544,-1.503,71.442,421.079,-190.815,330.533,1114.850,-393.370,243.070
876,45906.879000,386.745,147.789,82.357,423.227,-177.364,337.796,261.850,132.630,-141.930
877,45906.919000,299.914,59.616,76.403,417.407,-177.394,339.753,-264.150,167.630,-267.930
878,45906.973000,183.142,33.566,60.527,419.393,-173.716,334.940,-646.150,121.630,-232.930
879,45906.989000,116.273,6.513,54.574,424.983,-188.948,327.641,-938.150,-41.370,-191.930
880,45907.24000,50.402,-1.503,75.411,431.661,-194.973,310.763,-1039.150,-227.370,-287.930
881,45907.64000,82.339,-55.609,98.233,446.123,-199.102,290.017,-849.150,-565.370,-609.930
882,45907.104000,247.018,-105.706,140.899,457.817,-193.737,272.481,-691.150,-723.370,-741.930
883,45907.145000,512.499,-125.746,124.031,478.100,-197.075,242.914,-522.150,-1119.370,-342.930
884,45907.182000,436.647,-121.738,85.333,479.129,-193.226,244.990,618.850,395.630,397.070
885,45907.220000,370.776,-53.605,21.829,464.591,-196.214,282.259,1138.850,1073.630,384.070
886,45907.260000,285.942,-6.513,10.915,434.707,-187.812,329.656,1580.850,1588.630,340.070
887,45907.283000,196.117,102.701,63.504,422.546,-159.804,358.939,1541.850,1368.630,55.070
888,45907.353000,184.140,122.740,-12.899,403.397,-145.131,387.840,1012.850,754.630,-140.930
889,45907.382000,214.082,101.699,23.814,392.923,-133.434,406.836,580.850,796.630,-33.930
890,45907.415000,273.965,33.566,27.783,383.518,-114.317,420.139,333.850,565.630,-242.930
891,45907.442000,196.117,34.568,57.550,374.851,-110.474,427.116,159.850,610.630,-255.930
892,45907.483000,135.236,35.569,88.310,368.149,-105.526,439.046,18.850,460.630,-113.930
893,45907.524000,135.236,50.599,109.147,357.402,-111.193,444.772,-144.150,429.630,-68.930
894,45907.563000,142.222,69.636,95.256,354.543,-107.478,443.887,-250.150,-17.370,-194.930
895,45907.582000,118.269,39.577,69.457,360.223,-116.931,440.683,-327.150,37.630,-242.930
896,45907.622000,156.195,-2.505,153.798,364.066,-118.925,434.732,-199.150,-318.370,23.070
897,45907.662000,512.499,-57.613,175.628,371.715,-125.698,424.720,-99.150,-455.370,603.070
898,45907.700000,485.552,-80.658,141.891,364.903,-127.554,429.575,349.850,320.630,72.070
899,45907.745000,301.910,60.618,43.659,364.950,-124.638,432.607,-237.150,222.630,70.070
900,45907.787000,240.031,-10.521,83.349,355.989,-140.732,436.079,-385.150,345.630,-39.930
901,45907.824000,150.207,-5.511,73.426,358.013,-135.031,436.241,-186.150,48.630,-17.930
902,45907.863000,116.273,-7.515,59.535,358.802,-147.336,434.916,-254.150,-172.370,7.070
903,45907.884000,164.179,6.513,36.713,371.418,-145.661,420.230,-98.150,-543.370,-0.930
904,45907.923000,292.928,-3.507,71.442,376.193,-150.452,415.187,-144.150,-630.370,-70.930
905,45907.960000,328.858,1.503,128.992,388.811,-149.512,408.349,-213.150,-384.370,-17.930
906,45908.12000,262.986,-0.501,145.860,384.785,-159.103,405.125,78.850,-28.370,300.070
907,45908.42000,350.815,26.552,120.062,383.745,-163.844,404.991,178.850,-163.370,527.070
908,45908.83000,291.930,15.530,107.163,381.722,-169.546,404.829,-262.150,0.630,28.070
909,45908.123000,214.082,7.515,88.310,381.867,-159.984,409.030,87.850,29.630,-303.930
910,45908.168000,179.150,6.513,84.341,381.959,-153.417,407.245,284.850,-27.370,-285.930
911,45908.184000,152.203,28.556,64.496,384.109,-139.179,408.628,227.850,-108.370,-122.930
912,45908.225000,157.193,80.658,55.566,384.977,-145.864,405.493,-6.150,-247.370,-5.930
913,45908.265000,155.197,96.689,35.721,394.680,-145.017,396.681,-524.150,-677.370,0.070
914,45908.308000,145.216,98.693,55.566,408.895,-166.168,375.460,-864.150,-683.370,-82.930
915,45908.341000,255.002,4.509,61.519,418.463,-173.203,354.625,-861.150,-534.370,49.070
916,45908.397000,405.708,-36.571,126.016,425.915,-192.506,335.412,-704.150,-521.370,162.070
917,45908.424000,408.702,-24.548,118.078,424.916,-193.649,328.493,-906.150,-47.370,-273.930
918,45908.464000,302.908,-1.503,118.078,425.698,-205.299,316.367,-908.150,231.630,-275.930
919,45908.485000,197.115,-26.552,121.054,417.813,-213.867,318.083,-814.150,433.630,-178.930
920,45908.525000,111.283,-26.552,92.279,416.659,-226.227,315.770,-890.150,299.630,-222.930
921,45908.564000,89.326,-33.566,80.372,417.630,-225.452,308.908,-868.150,134.630,-249.930
922,45908.612000,79.345,-32.564,78.388,422.382,-231.294,299.901,-790.150,-66.370,-172.930
923,45908.644000,74.355,-0.501,75.411,422.189,-243.010,285.804,-855.150,-279.370,-189.930
924,45908.689000,216.078,44.587,78.388,426.858,-253.003,262.911,-1041.150,-417.370,-63.930
925,45908.738000,512.499,123.742,62.512,436.389,-262.061,237.101,-1613.150,-534.370,-262.930
926,45908.767000,397.723,57.613,63.504,438.157,-271.963,219.124,-2009.150,408.630,-417.930
927,45908.787000,304.904,-82.661,86.326,440.048,-273.355,201.383,-1881.150,515.630,-1058.930
928,45908.827000,235.041,-8.517,81.364,455.685,-263.313,180.050,-1696.150,99.630,-949.930
929,45908.863000,212.086,-26.552,64.496,461.435,-265.727,157.369,-1813.150,96.630,-717.930
930,45908.903000,178.152,-7.515,58.543,463.331,-267.066,141.597,-1802.150,172.630,-782.930
931,45908.949000,120.265,-10.521,32.744,476.958,-261.779,120.128,-1758.150,134.630,-826.930
932,45908.984000,99.306,-19.538,26.791,484.834,-251.032,93.883,-1769.150,-31.370,-839.930
933,45909.24000,136.234,-4.509,78.388,490.753,-241.285,66.623,-1593.150,-213.370,-733.930
934,45909.83000,172.164,-19.538,85.333,495.827,-223.014,40.582,-1476.150,-361.370,-658.930
935,45909.89000,447.626,-77.652,141.891,508.431,-222.259,26.854,-836.150,-384.370,-871.930
936,45909.125000,348.819,-5.511,101.209,506.705,-206.447,18.438,-518.150,117.630,154.070
937,45909.164000,331.852,-63.624,85.333,503.461,-229.210,16.816,-226.150,113.630,461.070
938,45909.204000,227.057,-67.632,61.519,495.731,-227.324,20.790,184.850,75.630,437.070
939,45909.257000,111.283,-22.544,59.535,488.766,-239.608,24.371,394.850,-136.370,424.070
940,45909.284000,68.366,23.546,54.574,484.785,-246.308,23.194,320.850,-270.370,424.070
941,45909.325000,115.275,43.585,94.264,481.717,-256.043,14.066,78.850,-391.370,240.070
942,45909.365000,312.889,106.708,147.845,482.856,-243.106,2.624,69.850,-553.370,-247.930
943,45909.387000,492.538,109.714,129.984,482.848,-241.689,-15.041,-554.150,-487.370,-394.930
944,45909.435000,404.710,59.616,39.690,487.891,-227.646,-22.511,-1220.150,346.630,-468.930
945,45909.461000,346.823,-48.595,8.930,497.741,-217.973,-19.275,-1195.150,854.630,-474.930
946,45909.504000,286.940,-79.656,40.682,497.840,-212.850,-4.378,-908.150,1201.630,-69.930
947,45909.544000,152.203,-67.632,47.628,491.897,-222.152,4.206,-1184.150,818.630,309.070
948,45909.584000,176.156,-65.628,42.667,486.939,-228.946,0.074,-907.150,395.630,111.070
949,45909.625000,213.084,-54.607,46.636,487.971,-225.832,9.999,-605.150,803.630,-112.930
950,45909.664000,200.109,-48.595,74.419,490.074,-216.032,22.078,-349.150,893.630,-434.930
951,45909.697000,199.111,-22.544,91.287,495.091,-206.165,35.148,-265.150,593.630,-455.930
952,45909.725000,210.090,-4.509,107.163,500.051,-199.345,40.264,-365.150,612.630,-185.930
953,45909.784000,169.170,-28.556,78.388,496.161,-201.028,50.047,-524.150,500.630,168.070
954,45909.818000,169.170,-8.517,98.233,488.321,-205.945,46.946,-611.150,257.630,223.070
955,45909.849000,187.135,-24.548,89.302,492.146,-209.699,45.864,-694.150,135.630,-261.930
956,45909.913000,223.064,-30.560,186.543,493.299,-196.578,41.313,-418.150,86.630,-555.930
957,45909.931000,474.573,62.622,185.550,500.292,-181.641,30.921,-581.150,-199.370,-396.930
958,45909.954000,328.858,-79.656,103.194,497.301,-186.542,25.861,-871.150,276.630,-69.930
959,45910.4000,257.996,-105.706,68.465,501.329,-176.926,30.070,-408.150,465.630,-168.930
960,45910.27000,219.072,-41.581,94.264,498.437,-176.704,39.907,127.850,277.630,-92.930
961,45910.65000,151.205,-27.554,64.496,500.357,-178.488,42.812,125.850,157.630,-78.930
962,45910.128000,78.347,-31.562,25.798,497.390,-182.312,42.701,220.850,-230.370,-66.930
963,45910.144000,102.300,12.524,77.395,505.265,-173.876,36.063,423.850,-635.370,-12.930
964,45910.188000,224.062,-17.534,95.256,503.219,-179.105,18.209,305.850,-931.370,245.070
965,45910.224000,260.990,-36.571,114.109,502.277,-175.679,5.516,296.850,-649.370,186.070
966,45910.247000,232.047,-29.558,124.031,501.104,-188.302,-6.640,316.850,-753.370,-100.930
967,45910.284000,283.945,-53.605,128.992,502.315,-169.823,-22.846,580.850,-820.370,-202.930
968,45910.329000,322.869,-76.650,126.016,502.175,-178.544,-30.957,851.850,-692.370,124.070
969,45910.368000,334.846,-13.526,113.116,497.217,-185.338,-35.089,851.850,-522.370,374.070
970,45910.408000,316.881,-20.540,97.240,497.080,-194.794,-35.352,721.850,-213.370,507.070
971,45910.443000,277.957,-30.560,88.310,491.105,-206.801,-21.926,785.850,4.630,470.070
972,45910.483000,229.053,-50.599,75.411,485.093,-220.831,-13.474,918.850,43.630,474.070
973,45910.523000,192.125,-43.585,56.558,486.849,-235.486,2.843,1001.850,110.630,538.070
974,45910.549000,144.218,-18.536,33.736,480.880,-246.653,12.358,1169.850,38.630,550.070
975,45910.604000,111.283,-24.548,5.953,478.867,-252.984,23.982,1374.850,-442.370,499.070
976,45910.625000,161.185,-46.591,27.783,473.951,-258.463,33.658,1384.850,-641.370,310.070
977,45910.665000,232.047,-20.540,50.605,478.887,-252.721,33.826,1132.850,-527.370,-26.930
978,45910.724000,353.809,-24.548,74.419,477.860,-257.305,39.598,886.850,-298.370,9.070
979,45910.750000,357.801,-41.581,134.946,480.884,-250.433,47.663,1180.850,-171.370,87.070
980,45910.785000,374.768,100.697,87.318,475.882,-262.401,62.076,787.850,44.630,636.070
981,45910.825000,261.988,-80.658,80.372,473.981,-261.140,74.895,812.850,23.630,259.070
982,45910.850000,194.121,-10.521,80.372,474.901,-266.379,90.488,853.850,219.630,12.070
983,45910.885000,163.181,15.530,88.310,476.961,-259.442,101.505,841.850,224.630,183.070
984,45910.927000,114.277,44.587,80.372,471.981,-270.359,119.881,691.850,369.630,387.070
985,45910.967000,120.265,95.687,101.209,466.177,-270.178,129.712,222.850,-13.370,363.070
986,45911.7000,191.127,74.646,56.558,468.118,-269.389,122.852,189.850,-184.370,77.070
987,45911.48000,226.058,-129.753,34.729,475.129,-254.215,121.319,696.850,-787.370,-898.930
988,45911.94000,512.499,-97.691,71.442,485.012,-241.811,120.697,1005.850,-329.370,163.070
989,45911.134000,374.768,-47.593,97.240,476.234,-247.843,147.072,1416.850,327.630,626.070
990,45911.148000,277.957,-46.591,68.465,466.479,-255.517,183.236,1925.850,444.630,772.070
991,45911.194000,198.113,5.511,40.682,456.836,-254.051,207.850,2203.850,404.630,990.070
992,45911.224000,155.197,91.679,18.853,443.335,-252.324,244.269,2011.850,21.630,953.070
993,45911.265000,135.236,68.634,17.860,435.728,-244.237,268.088,1802.850,-146.370,600.070
994,45911.314000,167.173,2.505,38.698,432.037,-232.602,281.192,1661.850,-319.370,638.070
995,45911.344000,169.170,-19.538,50.605,424.210,-238.884,297.726,1315.850,-262.370,867.070
996,45911.385000,229.053,67.632,72.434,420.477,-229.325,303.887,1271.850,-247.370,912.070
997,45911.430000,348.819,33.566,82.357,417.608,-227.264,311.808,1190.850,-273.370,377.070
998,45911.445000,358.799,35.569,75.411,421.847,-204.172,325.245,1216.850,18.630,-41.930
999,45911.485000,323.867,84.665,56.558,411.288,-197.414,336.235,673.850,102.630,219.070
1000,45911.525000,255.002,39.577,64.496,410.265,-201.945,343.976,496.850,310.630,124.070
1001,45911.566000,196.117,-2.505,65.488,402.645,-193.255,355.024,314.850,222.630,-36.930
1002,45911.608000,174.160,37.573,69.457,404.758,-181.801,358.297,224.850,239.630,-170.930
1003,45911.649000,182.144,72.642,61.519,402.807,-183.483,367.100,-56.150,197.630,-30.930
1004,45911.687000,254.004,108.712,59.535,397.946,-183.657,363.152,-476.150,4.630,-19.930
1005,45911.705000,281.949,46.591,55.566,401.579,-199.888,354.838,-825.150,34.630,-103.930
1006,45911.745000,273.965,11.523,63.504,405.335,-207.609,346.761,-918.150,85.630,-254.930
1007,45911.786000,246.020,-14.528,60.527,399.444,-211.632,340.737,-721.150,72.630,-255.930
1008,45911.832000,206.097,-11.523,72.434,405.197,-215.542,332.769,-569.150,-20.370,-140.930
1009,45911.865000,230.051,-17.534,86.326,408.898,-227.045,324.587,-465.150,-117.370,-227.930
1010,45911.905000,256.000,-12.524,93.271,411.837,-224.352,317.781,-394.150,-174.370,-382.930
1011,45911.947000,235.041,4.509,93.271,418.685,-219.738,310.052,-405.150,-168.370,-410.930
1012,45911.988000,232.047,2.505,90.295,423.441,-225.527,303.014,-577.150,18.630,-364.930
1013,45912.8000,255.002,-9.519,91.287,425.388,-224.659,299.107,-752.150,156.630,-341.930
1014,45912.48000,262.986,-23.546,85.333,422.392,-229.639,291.094,-900.150,225.630,-197.930
1015,45912.88000,254.004,-43.585,85.333,420.360,-235.446,286.995,-867.150,272.630,-41.930
1016,45912.128000,221.068,-57.613,89.302,414.219,-256.517,279.513,-772.150,265.630,18.070
1017,45912.175000,208.094,-41.581,82.357,415.137,-260.259,280.395,-677.150,223.630,-20.930
1018,45912.206000,212.086,-34.568,78.388,411.154,-266.225,271.369,-656.150,177.630,-57.930
1019,45912.252000,232.047,-40.579,74.419,408.108,-274.908,266.205,-608.150,131.630,-84.930
