Sample, Time, ACCX, ACCY, ACCZ, MAGX, MAGY, MAGZ, GYRX, GYRY, GYRZ
0,46141.174000,222.587,12.047,111.616,425.983,-236.207,256.950,11.220,-51.600,-18.060
1,46141.199000,225.536,13.051,113.664,426.001,-234.453,253.009,2.220,-58.600,-16.060
2,46141.221000,228.484,10.039,110.592,426.952,-234.381,255.996,-10.780,-79.600,-14.060
3,46141.263000,225.536,11.043,107.520,431.641,-237.126,252.960,16.220,-110.600,-12.060
4,46141.303000,231.432,12.047,100.352,430.653,-239.945,249.915,29.220,-112.600,-9.060
5,46141.350000,232.415,12.047,97.280,429.769,-235.377,250.011,50.220,-116.600,-9.060
6,46141.394000,233.397,14.055,96.256,432.638,-232.669,246.094,65.220,-113.600,-1.060
7,46141.400000,233.397,15.059,94.208,432.558,-238.225,242.992,87.220,-104.600,6.940
8,46141.445000,234.380,15.059,93.184,436.413,-233.516,247.076,74.220,-70.600,8.940
9,46141.483000,233.397,16.063,91.136,430.796,-229.030,246.169,92.220,-47.600,16.940
10,46141.523000,234.380,17.067,91.136,432.688,-229.005,246.172,96.220,-24.600,22.940
11,46141.562000,234.380,19.075,89.088,433.633,-229.012,245.179,59.220,4.400,26.940
12,46141.604000,240.276,15.059,87.040,431.622,-238.120,248.960,44.220,38.400,38.940
13,46141.624000,236.345,17.067,86.016,430.776,-230.804,249.115,41.220,93.400,41.940
14,46141.669000,238.311,19.075,82.944,427.959,-229.808,255.100,6.220,204.400,38.940
15,46141.714000,233.397,20.078,106.496,426.845,-242.568,258.805,-32.780,281.400,25.940
16,46141.749000,236.345,23.090,77.824,424.011,-242.547,261.785,-118.780,131.400,27.940
17,46141.782000,222.587,17.067,109.568,420.306,-237.042,264.881,-175.780,196.400,-11.060
18,46141.822000,223.570,11.043,105.472,418.310,-244.435,262.731,-166.780,147.400,-13.060
19,46141.843000,217.674,7.027,94.208,417.408,-241.621,266.768,-157.780,159.400,-8.060
20,46141.882000,210.795,7.027,79.872,413.552,-247.109,269.630,-185.780,280.400,-18.060
21,46141.922000,219.639,10.039,96.256,407.858,-248.919,274.556,-257.780,464.400,-45.060
22,46141.969000,161.658,8.031,123.904,404.123,-246.064,282.568,-239.780,491.400,-65.060
23,46142.5000,219.639,4.016,150.528,396.541,-247.840,290.476,-204.780,567.400,6.940
24,46142.45000,263.862,-4.016,195.584,390.823,-251.463,296.359,-267.780,405.400,66.940
25,46142.85000,279.585,-4.016,198.656,385.986,-259.693,300.155,-141.780,216.400,57.940
26,46142.110000,253.052,-1.004,196.608,383.111,-262.459,301.086,-79.780,45.400,30.940
27,46142.144000,201.950,-3.012,146.432,384.992,-262.570,294.124,-13.780,-200.600,16.940
28,46142.184000,170.503,-4.016,99.328,393.538,-259.807,289.223,-63.780,-288.600,-16.060
29,46142.224000,186.226,-8.031,81.920,391.605,-262.620,287.171,-75.780,-192.600,-45.060
30,46142.264000,197.036,3.012,86.016,393.581,-256.221,285.320,-14.780,57.400,-46.060
31,46142.301000,200.967,4.016,128.000,389.685,-264.496,286.133,-5.780,392.400,-79.060
32,46142.323000,200.967,3.012,144.384,385.963,-261.505,301.111,43.220,458.400,-19.060
33,46142.371000,258.948,2.008,166.912,377.472,-260.546,309.076,-4.780,649.400,-12.060
34,46142.405000,247.155,4.016,211.968,368.136,-252.250,318.190,6.220,342.400,2.940
35,46142.449000,216.691,-4.016,202.752,370.867,-260.399,321.005,-0.780,-15.600,-56.060
36,46142.485000,180.330,5.020,159.744,376.599,-255.841,316.137,54.220,-245.600,-106.060
37,46142.525000,179.347,9.035,128.000,380.436,-251.347,309.276,134.220,-356.600,-144.060
38,46142.565000,179.347,10.039,114.688,387.046,-252.195,308.273,151.220,-311.600,-175.060
39,46142.585000,197.036,18.071,111.616,390.990,-240.274,306.543,113.220,-168.600,-171.060
40,46142.624000,212.760,20.078,112.640,394.713,-244.805,306.453,141.220,40.400,-123.060
41,46142.664000,215.708,23.090,115.712,393.003,-231.906,311.698,83.220,177.400,-54.060
42,46142.705000,200.967,20.078,116.736,391.035,-238.208,318.523,28.220,380.400,-34.060
43,46142.744000,202.933,15.059,133.120,384.408,-239.094,324.462,-153.780,305.400,32.940
44,46142.784000,209.812,24.094,156.672,379.639,-241.905,324.395,-230.780,261.400,31.940
45,46142.801000,231.432,19.075,190.464,375.867,-241.039,324.408,-211.780,97.400,47.940
46,46142.866000,230.449,10.039,189.440,375.790,-246.555,323.296,-153.780,-65.600,13.940
47,46142.885000,199.985,9.035,163.840,385.247,-245.729,312.387,-82.780,-271.600,-45.060
48,46142.925000,188.192,13.051,134.144,388.147,-241.130,311.494,-65.780,-485.600,-67.060
49,46142.961000,197.036,5.020,114.688,396.576,-245.891,296.486,-109.780,-469.600,-56.060
50,46143.11000,204.898,6.024,109.568,399.471,-241.351,292.608,-42.780,-300.600,-47.060
51,46143.25000,214.726,7.027,106.496,402.242,-245.953,289.530,-39.780,-100.600,-41.060
52,46143.65000,216.691,10.039,108.544,400.438,-240.325,297.605,13.220,133.400,-43.060
53,46143.105000,201.950,15.059,122.880,398.449,-247.640,299.435,173.220,393.400,-9.060
54,46143.146000,180.330,21.082,130.048,395.634,-246.625,306.415,-17.780,426.400,-9.060
55,46143.186000,198.019,8.031,173.056,385.263,-244.774,314.396,-128.780,389.400,42.940
56,46143.226000,200.967,7.027,185.344,381.492,-243.888,315.404,-29.780,90.400,28.940
57,46143.266000,228.484,17.067,202.752,385.283,-243.000,311.450,-43.780,-75.600,45.940
58,46143.286000,240.276,7.027,189.440,384.307,-244.903,308.424,3.220,-250.600,37.940
59,46143.326000,206.864,7.027,158.720,389.965,-245.822,304.435,55.220,-347.600,23.940
60,46143.374000,190.157,5.020,128.000,393.691,-249.554,298.393,41.220,-419.600,15.940
61,46143.406000,199.002,8.031,105.472,399.439,-243.261,288.589,49.220,-413.600,-3.060
62,46143.452000,203.916,4.016,99.328,400.238,-253.443,282.406,34.220,-332.600,24.940
63,46143.492000,214.726,3.012,91.136,405.903,-254.284,282.396,99.220,-233.600,36.940
64,46143.505000,223.570,18.071,102.400,404.109,-247.000,281.554,68.220,62.400,14.940
65,46143.545000,212.760,12.047,124.928,400.265,-251.592,283.440,29.220,197.400,45.940
66,46143.585000,214.726,15.059,142.336,397.439,-251.473,291.395,3.220,229.400,60.940
67,46143.625000,224.553,10.039,174.080,395.553,-251.420,295.372,-38.780,172.400,89.940
68,46143.670000,230.449,5.020,168.960,394.514,-257.904,292.249,-15.780,-32.600,96.940
69,46143.722000,213.743,5.020,158.720,397.427,-252.389,291.376,-4.780,-286.600,38.940
70,46143.752000,205.881,0.000,134.144,404.061,-250.645,282.471,-3.780,-395.600,6.940
71,46143.766000,203.916,1.004,112.640,405.951,-249.879,273.538,31.220,-438.600,-16.060
72,46143.816000,215.708,4.016,98.304,411.570,-253.567,268.495,53.220,-337.600,-32.060
73,46143.845000,230.449,10.039,90.112,414.406,-253.568,266.510,68.220,-188.600,-45.060
74,46143.888000,226.518,13.051,89.088,414.433,-251.716,267.544,60.220,86.400,-34.060
75,46143.922000,224.553,12.047,98.304,414.489,-247.974,271.602,45.220,329.400,-19.060
76,46143.962000,209.812,11.043,112.640,405.972,-248.866,278.533,49.220,359.400,29.940
77,46143.982000,216.691,16.063,148.480,404.082,-249.631,287.466,-114.780,376.400,38.940
78,46144.25000,223.570,3.012,169.984,398.315,-256.139,286.324,-43.780,214.400,64.940
79,46144.62000,228.484,7.027,166.912,393.586,-256.162,288.306,-50.780,-67.600,57.940
80,46144.102000,208.829,1.004,145.408,398.391,-250.622,287.436,-28.780,-238.600,18.940
81,46144.150000,200.967,2.008,134.144,405.864,-257.052,281.342,49.220,-352.600,-3.060
82,46144.186000,203.916,3.012,107.520,407.819,-251.687,273.502,39.220,-332.600,-47.060
83,46144.206000,197.036,7.027,101.376,413.573,-246.095,274.625,91.220,-292.600,-65.060
84,46144.246000,234.380,4.016,87.040,414.519,-245.323,266.685,65.220,-40.600,-98.060
85,46144.294000,225.536,15.059,108.544,412.567,-249.890,268.574,72.220,127.400,-100.060
86,46144.329000,210.795,18.071,138.240,414.623,-238.715,276.772,101.220,272.400,-43.060
87,46144.366000,203.916,17.067,133.120,405.070,-246.052,282.570,50.220,267.400,1.940
88,46144.417000,226.518,12.047,156.672,406.018,-246.020,283.567,-15.780,148.400,66.940
89,46144.445000,226.518,13.051,163.840,404.087,-248.793,283.505,-96.780,9.400,52.940
90,46144.467000,225.536,6.024,150.528,406.952,-246.144,276.603,-57.780,-279.600,30.940
91,46144.510000,219.639,9.035,135.168,411.690,-245.243,272.651,-12.780,-377.600,12.940
92,46144.549000,212.760,4.016,105.472,417.277,-250.841,263.588,33.220,-445.600,-1.060
93,46144.587000,215.708,8.031,95.232,421.134,-244.573,253.781,42.220,-407.600,-21.060
94,46144.626000,221.605,7.027,82.944,423.051,-242.716,253.823,2.220,-272.600,-18.060
95,46144.666000,223.570,11.043,93.184,428.735,-241.803,249.872,44.220,-33.600,-28.060
96,46144.693000,241.259,13.051,104.448,427.751,-244.564,249.812,48.220,67.400,-18.060
97,46144.732000,226.518,11.043,100.352,427.800,-241.679,256.836,47.220,192.400,-48.060
98,46144.773000,222.587,5.020,136.192,424.936,-243.548,256.792,47.220,3.400,-53.060
99,46144.811000,213.743,8.031,126.976,429.774,-235.319,252.996,118.220,-157.600,-62.060
100,46144.845000,226.518,16.063,121.856,430.709,-236.203,253.973,80.220,-232.600,-64.060
101,46144.885000,230.449,16.063,114.688,434.500,-235.315,250.019,81.220,-206.600,-45.060
102,46144.905000,230.449,20.078,105.472,437.413,-229.800,249.146,85.220,-186.600,-17.060
103,46144.945000,225.536,21.082,98.304,439.213,-236.246,246.028,-14.780,-120.600,-0.060
104,46144.987000,224.553,19.075,90.112,438.363,-228.969,244.192,-67.780,-78.600,-10.060
105,46145.29000,230.449,22.086,97.280,436.425,-231.840,239.155,-38.780,-52.600,-10.060
106,46145.67000,231.432,14.055,103.424,441.145,-232.674,240.139,15.220,-61.600,-14.060
107,46145.107000,232.415,17.067,109.568,439.185,-237.338,237.053,13.220,-62.600,-11.060
108,46145.155000,227.501,17.067,102.400,441.149,-231.855,235.183,62.220,-77.600,25.940
109,46145.169000,229.466,19.075,92.160,440.142,-236.429,236.079,25.220,-75.600,18.940
110,46145.207000,233.397,13.051,100.352,439.133,-241.022,235.979,-2.780,-46.600,22.940
111,46145.244000,229.466,16.063,98.304,439.243,-232.816,234.165,27.220,-90.600,18.940
112,46145.284000,233.397,16.063,95.232,438.155,-242.945,231.959,23.220,-80.600,17.940
113,46145.330000,233.397,18.071,95.232,443.021,-232.844,230.191,32.220,-60.600,20.940
114,46145.371000,232.415,16.063,95.232,441.972,-240.225,228.044,33.220,-27.600,23.940
115,46145.384000,233.397,15.059,93.184,442.962,-237.386,232.084,1.220,1.400,28.940
116,46145.435000,233.397,16.063,91.136,441.088,-235.657,228.139,-16.780,-22.600,27.940
117,46145.464000,236.345,17.067,96.256,443.905,-237.412,230.096,-17.780,-13.600,19.940
118,46145.506000,232.415,14.055,97.280,441.070,-236.631,225.135,-18.780,-30.600,19.940
119,46145.546000,232.415,14.055,95.232,442.991,-234.735,227.167,-17.780,-26.600,15.940
120,46145.585000,233.397,13.051,94.208,444.848,-237.439,228.107,0.220,-15.600,12.940
121,46145.629000,230.449,11.043,94.208,440.986,-243.005,226.988,-23.780,-14.600,15.940
122,46145.649000,233.397,11.043,91.136,440.109,-238.359,231.064,-12.780,-7.600,4.940
123,46145.689000,233.397,12.047,97.280,441.961,-241.121,229.019,2.220,5.400,0.940
124,46145.729000,233.397,12.047,97.280,440.988,-242.986,227.983,13.220,-16.600,4.940
125,46145.769000,233.397,14.055,92.160,442.020,-236.580,227.127,5.220,-2.600,-11.060
126,46145.809000,231.432,9.035,92.160,443.877,-239.284,228.066,-1.780,-12.600,-2.060
127,46145.849000,234.380,13.051,90.112,442.957,-237.444,229.099,1.220,-19.600,-7.060
128,46145.867000,235.363,13.051,94.208,439.103,-242.153,225.014,-6.780,-4.600,-4.060
129,46145.907000,235.363,13.051,93.184,446.741,-237.414,228.110,-11.780,6.400,-4.060
130,46145.947000,232.415,12.047,89.088,445.744,-241.091,228.031,-13.780,19.400,-4.060
131,46145.987000,237.328,13.051,91.136,442.032,-235.664,227.146,-30.780,47.400,-0.060
132,46146.26000,233.397,11.043,93.184,438.199,-239.359,228.056,-34.780,59.400,11.940
133,46146.67000,238.311,11.043,90.112,440.120,-237.462,230.089,-40.780,86.400,12.940
134,46146.87000,235.363,9.035,98.304,435.301,-243.938,229.944,17.220,117.400,26.940
135,46146.129000,232.415,12.047,93.184,439.132,-241.042,234.984,-15.780,101.400,33.940
136,46146.169000,234.380,13.051,96.256,435.327,-242.865,237.924,-23.780,141.400,46.940
137,46146.211000,227.501,7.027,91.136,432.427,-247.464,238.816,-112.780,139.400,21.940
138,46146.249000,228.484,6.024,103.424,433.425,-243.768,239.891,-82.780,159.400,19.940
139,46146.289000,225.536,4.016,103.424,430.507,-250.120,244.725,-27.780,101.400,19.940
140,46146.329000,228.484,6.024,110.592,426.828,-242.763,248.854,-10.780,108.400,1.940
141,46146.356000,224.553,6.024,109.568,427.734,-245.538,246.807,11.220,87.400,-5.060
142,46146.389000,225.536,5.020,107.520,427.748,-244.603,247.822,-2.780,47.400,-0.060
143,46146.434000,229.466,2.008,109.568,424.859,-248.305,247.739,-18.780,12.400,-7.060
144,46146.469000,229.466,4.016,108.544,427.748,-244.603,247.822,17.220,-26.600,-7.060
145,46146.507000,229.466,4.016,104.448,426.741,-249.176,248.718,7.220,-34.600,-30.060
146,46146.554000,232.415,4.016,104.448,429.576,-249.178,246.733,28.220,-22.600,-39.060
147,46146.567000,231.432,5.020,103.424,433.515,-238.095,248.964,42.220,1.400,-48.060
148,46146.605000,229.466,4.016,102.400,433.474,-240.883,246.915,3.220,36.400,-52.060
149,46146.649000,229.466,5.020,103.424,431.638,-237.165,250.970,27.220,65.400,-56.060
150,46146.685000,225.536,0.000,97.280,432.495,-243.585,249.840,-42.780,119.400,-67.060
151,46146.731000,202.933,5.020,106.496,431.571,-242.564,255.828,-67.780,256.400,-110.060
152,46146.769000,201.950,15.059,101.376,430.716,-236.125,257.953,-248.780,182.400,-36.060
153,46146.789000,205.881,17.067,111.616,429.630,-246.234,256.742,-231.780,187.400,8.940
154,46146.829000,213.743,11.043,111.616,422.077,-245.359,259.733,-379.780,189.400,131.940
155,46146.869000,247.155,3.012,129.024,420.035,-256.378,259.496,-380.780,284.400,312.940
156,46146.909000,262.879,-7.027,145.408,405.761,-262.881,264.309,-220.780,341.400,434.940
157,46146.949000,200.967,57.224,114.688,400.881,-273.918,265.062,-74.780,291.400,440.940
158,46146.989000,288.430,24.094,132.096,392.241,-283.172,265.847,-523.780,327.400,316.940
159,46147.29000,218.656,14.055,125.952,383.499,-299.775,265.480,-484.780,340.400,189.940
160,46147.49000,211.777,-10.039,133.120,377.643,-312.715,263.207,-573.780,412.400,143.940
161,46147.91000,196.054,-30.118,145.408,373.711,-323.719,264.956,-411.780,342.400,136.940
162,46147.130000,180.330,-29.114,139.264,369.017,-321.033,265.007,-171.780,267.400,73.940
163,46147.175000,162.641,-23.090,136.192,366.145,-323.761,267.928,-156.780,137.400,108.940
164,46147.207000,186.226,-21.082,134.144,363.214,-330.270,264.801,-134.780,118.400,124.940
165,46147.252000,164.607,-26.102,120.832,356.613,-328.544,263.834,-262.780,40.400,160.940
166,46147.272000,165.589,-40.157,129.024,353.669,-335.970,260.688,-251.780,79.400,166.940
167,46147.307000,206.864,-38.149,135.168,349.781,-343.388,258.535,-94.780,113.400,170.940
168,46147.352000,195.071,-34.133,145.408,343.152,-344.294,263.479,118.220,218.400,177.940
169,46147.387000,173.451,-45.176,156.672,334.602,-347.876,273.336,158.220,284.400,280.940
170,46147.427000,194.088,-78.306,182.272,325.105,-350.710,275.251,-18.780,270.400,395.940
171,46147.485000,282.534,-71.278,162.816,315.652,-350.718,281.205,168.220,110.400,361.940
172,46147.509000,265.827,-57.224,153.600,308.984,-354.392,285.095,285.220,95.400,224.940
173,46147.527000,265.827,-67.263,161.792,306.079,-359.829,289.948,77.220,356.400,179.940
174,46147.571000,232.415,-42.165,163.840,298.572,-356.108,297.974,6.220,424.400,162.940
175,46147.607000,174.434,-52.204,161.792,288.988,-365.336,300.747,-298.780,445.400,118.940
176,46147.649000,147.900,-77.302,148.480,281.263,-376.488,297.514,-388.780,315.400,44.940
177,46147.689000,140.038,-75.294,138.240,280.263,-380.204,295.444,-351.780,202.400,-32.060
178,46147.729000,139.056,-71.278,133.120,284.058,-379.277,293.481,-264.780,61.400,-183.060
179,46147.754000,142.004,-79.310,148.480,284.104,-375.651,291.568,-213.780,161.400,-261.060
180,46147.786000,131.194,-77.302,160.768,289.869,-369.943,298.661,89.220,172.400,-275.060
181,46147.830000,138.073,-43.169,194.560,290.894,-364.395,300.770,199.220,125.400,-305.060
182,46147.874000,260.914,-34.133,204.800,300.419,-359.689,300.884,33.220,-1.600,-296.060
183,46147.909000,260.914,-55.216,236.544,300.519,-352.360,301.040,41.220,92.400,-319.060
184,46147.951000,251.086,-28.110,239.616,302.468,-349.372,312.048,356.220,276.400,-225.060
185,46147.976000,218.656,-8.031,225.280,301.645,-341.782,326.133,642.220,236.400,-169.060
186,46148.11000,179.347,-6.024,182.272,303.666,-333.317,336.262,455.220,126.400,-114.060
187,46148.46000,128.246,-4.016,146.432,303.830,-322.167,344.457,255.220,1.400,-61.060
188,46148.91000,119.401,-9.035,105.472,302.921,-319.431,344.514,211.220,-73.600,-54.060
189,46148.129000,129.228,-15.059,95.232,301.895,-324.999,341.410,146.220,-148.600,68.940
190,46148.170000,150.848,-14.055,138.240,301.080,-315.772,345.584,238.220,-140.600,98.940
191,46148.209000,182.296,-9.035,158.720,302.010,-317.494,350.522,215.220,26.400,75.940
192,46148.227000,264.845,7.027,197.632,297.402,-309.175,357.654,339.220,59.400,68.940
193,46148.271000,256.983,16.063,215.040,294.578,-308.277,358.664,185.220,81.400,-10.060
194,46148.311000,168.537,-5.020,190.464,296.442,-310.123,356.638,-2.780,-121.600,89.940
195,46148.354000,138.073,-12.047,166.912,296.348,-316.614,352.521,-233.780,-171.600,205.940
196,46148.390000,172.468,-40.157,138.240,292.451,-324.130,345.393,-348.780,-263.600,373.940
197,46148.432000,169.520,-27.106,133.120,288.388,-343.594,336.021,-324.780,-183.600,438.940
198,46148.449000,200.967,-68.267,182.272,280.770,-346.560,329.979,-396.780,102.400,319.940
199,46148.491000,178.365,-74.290,220.160,278.886,-346.487,334.951,22.220,116.400,-218.060
200,46148.537000,136.107,-91.357,205.824,282.729,-342.675,340.011,341.220,116.400,-449.060
201,46148.572000,136.107,-83.325,200.704,293.292,-331.505,342.253,194.220,-127.600,-552.060
202,46148.612000,239.294,-77.302,181.248,300.034,-323.114,345.426,321.220,-2.600,-434.060
203,46148.652000,203.916,-68.267,180.224,305.032,-304.533,355.775,520.220,108.400,-358.060
204,46148.692000,174.434,-49.192,210.944,304.137,-301.641,363.793,618.220,381.400,-328.060
205,46148.712000,160.676,-32.125,210.944,303.500,-281.089,385.116,650.220,284.400,-206.060
206,46148.754000,131.194,2.008,188.416,298.964,-268.091,397.322,831.220,127.400,-155.060
207,46148.789000,148.883,41.161,149.504,311.577,-245.805,404.777,659.220,-190.600,-152.060
208,46148.832000,150.848,49.192,133.120,313.652,-232.876,409.034,504.220,-261.600,-169.060
209,46148.869000,135.125,56.220,122.880,317.523,-226.433,408.182,461.220,-295.600,-114.060
210,46148.912000,132.177,50.196,131.072,324.247,-219.016,408.350,210.220,-137.600,-33.060
211,46148.937000,128.246,85.333,143.360,321.355,-222.757,406.277,48.220,-39.600,-30.060
212,46148.972000,178.365,92.361,169.984,319.412,-226.447,406.196,-244.780,143.400,-111.060
213,46149.10000,291.378,62.243,225.280,314.543,-236.587,405.973,-737.780,332.400,-72.060
214,46149.54000,288.430,27.106,191.488,313.513,-242.194,400.879,-476.780,87.400,6.940
215,46149.87000,219.639,-6.024,199.680,310.566,-249.658,395.742,-839.780,243.400,-177.060
216,46149.127000,210.795,-43.169,214.016,305.653,-262.624,391.480,-587.780,446.400,-187.060
217,46149.176000,136.107,-21.082,215.040,293.460,-256.120,404.531,284.220,657.400,-18.060
218,46149.191000,115.470,10.039,204.800,281.215,-254.079,423.454,430.220,487.400,50.940
219,46149.232000,100.729,28.110,191.488,276.672,-240.380,424.734,389.220,221.400,4.940
220,46149.271000,108.591,30.118,164.864,279.516,-240.284,427.724,148.220,-231.600,43.940
221,46149.307000,122.349,33.129,163.840,281.413,-239.441,422.772,16.220,-239.600,38.940
222,46149.354000,125.298,25.098,167.936,284.199,-243.107,420.708,-135.780,-223.600,164.940
223,46149.394000,148.883,7.027,182.272,284.107,-248.799,410.641,-357.780,-88.600,101.940
224,46149.419000,190.157,-17.067,232.448,285.780,-264.426,406.332,-171.780,-110.600,61.940
225,46149.454000,269.758,-43.169,239.616,282.931,-265.360,407.303,-157.780,-44.600,105.940
226,46149.494000,199.002,-8.031,252.928,285.768,-265.342,406.313,28.220,92.400,-157.060
227,46149.551000,189.175,-1.004,219.136,285.773,-265.284,409.298,19.220,60.400,-205.060
228,46149.592000,170.503,3.012,205.824,289.719,-253.344,408.563,176.220,-30.600,-190.060
229,46149.612000,131.194,23.090,168.960,296.346,-253.217,410.565,136.220,-89.600,-186.060
230,46149.632000,118.418,27.106,149.504,300.196,-248.567,411.664,61.220,-175.600,-158.060
231,46149.674000,130.211,30.118,132.096,308.693,-249.449,407.679,23.220,-307.600,-78.060
232,46149.719000,175.417,3.012,141.312,311.569,-245.903,399.802,-15.780,-261.600,36.940
233,46149.754000,186.226,21.082,184.320,314.378,-247.756,396.783,-87.780,-382.600,67.940
234,46149.794000,199.002,-10.039,189.440,319.046,-251.514,388.753,31.220,-406.600,219.940
235,46149.834000,205.881,-3.012,207.872,321.001,-246.908,388.854,362.220,-321.600,204.940
236,46149.874000,214.726,5.020,175.104,323.945,-239.483,392.000,541.220,-205.600,31.940
237,46149.892000,200.967,15.059,149.504,327.962,-222.865,396.338,604.220,-92.600,-187.060
238,46149.930000,196.054,27.106,140.288,334.765,-209.912,398.613,541.220,-142.600,-389.060
239,46149.971000,210.795,53.208,145.408,342.511,-197.747,406.841,489.220,-118.600,-488.060
240,46150.10000,224.553,67.263,146.432,348.467,-177.478,409.270,605.220,-119.600,-438.060
241,46150.51000,230.449,106.416,155.648,345.741,-169.270,409.441,316.220,24.400,-127.060
242,46150.92000,194.088,88.345,208.896,343.012,-161.861,415.562,149.220,180.400,158.940
243,46150.112000,56.507,102.400,200.704,333.391,-173.837,418.277,147.220,222.400,452.940
244,46150.152000,150.848,61.239,205.824,322.903,-180.290,423.097,-234.780,186.400,492.940
245,46150.192000,205.881,63.247,160.768,315.118,-195.984,421.757,-238.780,169.400,402.940
246,46150.233000,187.209,49.192,151.552,315.954,-204.197,422.578,-597.780,266.400,175.940
247,46150.272000,192.123,10.039,169.984,298.732,-218.164,422.255,-404.780,412.400,97.940
248,46150.313000,149.866,15.059,183.296,293.988,-219.922,429.173,-258.780,502.400,44.940
249,46150.351000,150.848,0.000,164.864,281.539,-231.040,430.908,-109.780,407.400,6.940
250,46150.376000,144.952,34.133,162.816,277.821,-226.450,433.984,-106.780,301.400,-54.060
251,46150.412000,128.246,46.180,169.984,273.029,-231.074,434.873,-319.780,203.400,-202.060
252,46150.455000,136.107,31.122,172.032,270.101,-237.544,433.736,-411.780,194.400,-227.060
253,46150.491000,100.729,8.031,175.104,269.987,-245.029,425.620,-606.780,123.400,-221.060
254,46150.539000,101.712,-14.055,224.256,273.563,-259.754,419.344,-480.780,-10.600,-208.060
255,46150.574000,217.674,-14.055,269.312,276.360,-261.744,409.359,-451.780,-177.600,-182.060
256,46150.589000,329.704,-53.208,246.784,281.046,-264.528,404.334,-151.780,-229.600,-38.060
257,46150.632000,163.624,13.051,228.352,283.068,-255.283,407.517,475.220,-56.600,-40.060
258,46150.672000,193.106,33.129,208.896,278.431,-248.854,411.626,195.220,74.400,77.940
259,46150.711000,167.555,11.043,197.632,282.153,-253.385,411.535,-123.780,-3.600,84.940
260,46150.761000,114.488,14.055,176.128,280.148,-261.655,411.356,-109.780,-31.600,18.940
261,46150.796000,125.298,-5.020,168.960,279.170,-263.578,407.335,-223.780,-17.600,-39.060
262,46150.817000,135.125,-14.055,160.768,284.884,-260.774,406.409,-139.780,-58.600,-98.060
263,46150.851000,155.762,-9.035,146.432,285.784,-264.387,408.322,4.220,-62.600,-133.060
264,46150.892000,154.779,-8.031,156.672,288.787,-252.420,409.576,72.220,7.400,-246.060
265,46150.932000,152.814,5.020,178.176,294.529,-247.745,410.679,391.220,90.400,-280.060
266,46150.972000,170.503,62.243,191.488,294.711,-234.841,414.932,329.220,-14.600,-245.060
267,46151.12000,257.965,61.239,210.944,294.780,-230.183,419.010,165.220,11.400,-202.060
268,46151.51000,180.330,93.365,189.440,297.709,-223.693,421.142,265.220,-20.600,-223.060
269,46151.76000,185.244,71.278,198.656,296.816,-220.002,423.208,185.220,103.400,-86.060
270,46151.115000,165.589,58.227,174.080,290.238,-217.244,428.230,123.220,138.400,181.940
271,46151.155000,150.848,45.176,178.176,277.814,-226.528,430.004,35.220,254.400,223.940
272,46151.194000,131.194,39.153,179.200,277.823,-226.431,434.979,131.220,153.400,252.940
273,46151.232000,112.522,48.188,162.816,274.078,-223.693,437.021,102.220,60.400,153.940
274,46151.272000,125.298,23.090,172.032,267.353,-231.130,435.858,-23.780,33.400,202.940
275,46151.292000,124.315,31.122,191.488,265.458,-231.174,434.860,-1.780,93.400,139.940
276,46151.332000,176.399,35.137,220.160,258.725,-239.468,436.662,-81.780,39.400,204.940
277,46151.372000,185.244,42.165,231.424,255.848,-242.254,436.599,-44.780,-12.600,138.940
278,46151.414000,203.916,49.192,221.184,256.851,-237.739,432.718,-136.780,-86.600,119.940
279,46151.455000,178.365,28.110,211.968,252.934,-247.028,428.536,-258.780,-143.600,96.940
280,46151.491000,127.263,4.016,190.464,254.683,-256.379,417.398,-409.780,-141.600,222.940
281,46151.532000,134.142,-38.149,196.608,253.518,-272.044,413.085,-497.780,-96.600,336.940
282,46151.552000,181.313,-22.086,203.776,255.377,-273.949,408.074,-161.780,-154.600,354.940
283,46151.592000,189.175,-3.012,195.584,249.586,-282.269,407.888,301.220,-221.600,304.940
284,46151.632000,179.347,9.035,182.272,252.540,-273.967,409.064,268.220,-325.600,280.940
285,46151.676000,192.123,16.063,174.080,252.466,-279.444,409.942,335.220,-392.600,310.940
286,46151.710000,203.916,21.082,151.552,255.348,-275.820,406.045,124.220,-420.600,391.940
287,46151.754000,205.881,-5.020,161.792,252.453,-279.600,401.981,-99.780,-358.600,435.940
288,46151.774000,194.088,-31.122,190.464,252.266,-292.562,394.743,-154.780,-160.600,217.940
289,46151.812000,126.280,-67.263,186.368,248.567,-286.219,393.878,55.220,-66.600,-66.060
290,46151.854000,95.816,-66.259,190.464,256.171,-284.189,398.905,357.220,-35.600,-290.060
291,46151.894000,171.486,-17.067,196.608,256.365,-270.369,403.178,574.220,-64.600,-334.060
292,46151.932000,188.192,-11.043,177.152,261.360,-251.828,411.537,567.220,-25.600,-295.060
293,46151.972000,185.244,11.043,172.032,264.360,-240.660,418.742,869.220,12.400,-118.060
294,46151.999000,193.106,50.196,177.152,262.699,-224.896,430.016,823.220,49.400,51.940
295,46152.34000,195.071,59.231,169.984,259.203,-204.616,439.394,780.220,87.400,163.940
296,46152.74000,175.417,57.224,167.936,250.830,-195.352,450.520,819.220,28.400,261.940
297,46152.114000,171.486,49.192,160.768,252.945,-179.636,456.825,892.220,-23.600,339.940
298,46152.154000,168.537,75.294,168.960,251.227,-167.614,464.041,1008.220,-82.600,323.940
299,46152.193000,141.021,143.561,177.152,249.571,-151.012,471.355,1015.220,-160.600,313.940
300,46152.236000,134.142,174.682,191.488,245.951,-139.114,473.592,554.220,-55.600,403.940
301,46152.256000,129.228,91.357,181.248,243.832,-155.649,472.242,-170.780,-60.600,632.940
302,46152.296000,124.315,48.188,165.888,231.400,-165.031,469.040,-300.780,52.400,802.940
303,46152.336000,312.015,-23.090,137.216,225.492,-181.655,465.694,-307.780,99.400,1177.940
304,46152.375000,282.534,-19.075,175.104,211.152,-192.777,468.420,-64.780,95.400,863.940
305,46152.416000,215.708,-18.071,210.944,195.826,-206.700,469.095,-90.780,404.400,612.940
306,46152.455000,146.917,-8.031,200.704,181.619,-208.564,476.992,50.220,473.400,488.940
307,46152.475000,112.522,-2.008,201.728,162.600,-216.065,480.782,14.220,382.400,337.940
308,46152.515000,137.090,-1.004,189.440,158.736,-221.651,478.668,-24.780,198.400,283.940
309,46152.555000,125.298,23.090,164.864,158.790,-217.947,480.737,-141.780,-116.600,249.940
310,46152.594000,141.021,12.047,140.288,161.417,-232.704,473.464,-490.780,-229.600,178.940
311,46152.634000,180.330,-40.157,146.432,164.964,-248.521,458.213,-974.780,-254.600,7.940
312,46152.674000,269.758,-112.439,155.648,167.485,-270.686,446.804,-686.780,-63.600,-169.060
313,46152.714000,225.536,-37.145,164.864,173.126,-272.579,439.810,-491.780,30.400,-229.060
314,46152.731000,174.434,-50.196,184.320,175.862,-279.910,437.668,-607.780,96.400,-433.060
315,46152.779000,182.296,-14.055,171.008,175.802,-283.692,431.620,-493.780,169.400,-477.060
316,46152.816000,131.194,-26.102,203.776,170.807,-302.233,423.261,-744.780,319.400,-372.060
317,46152.856000,124.315,15.059,188.416,184.094,-298.530,416.397,-502.780,119.400,-474.060
318,46152.896000,129.228,13.051,205.824,186.712,-313.385,404.149,-678.780,51.400,-455.060
319,46152.935000,135.125,-6.024,185.344,187.555,-319.980,394.064,-990.780,38.400,-345.060
320,46152.955000,146.917,-28.110,192.512,194.943,-332.024,381.882,-913.780,78.400,-161.060
321,46152.999000,240.276,-65.255,188.416,198.528,-345.093,366.690,-646.780,6.400,-75.060
322,46153.36000,241.259,-62.243,145.408,197.476,-352.493,363.547,-89.780,-69.600,1.940
323,46153.76000,211.777,-67.263,160.768,201.262,-352.443,363.554,-194.780,172.400,-160.060
324,46153.134000,228.484,-55.216,162.816,201.276,-351.507,364.568,42.220,486.400,-443.060
325,46153.159000,170.503,-54.212,176.128,196.699,-341.297,374.725,158.220,508.400,-437.060
326,46153.174000,135.125,-41.161,177.152,194.960,-331.050,384.887,378.220,448.400,-433.060
327,46153.214000,110.557,14.055,171.008,196.016,-323.591,391.015,79.220,311.400,-352.060
328,46153.251000,107.608,9.035,200.704,196.007,-324.468,392.986,-101.780,178.400,-185.060
329,46153.294000,98.764,2.008,220.160,199.732,-328.200,386.944,-382.780,166.400,-123.060
330,46153.337000,110.557,-26.102,235.520,200.553,-336.589,378.810,-455.780,8.400,-53.060
331,46153.377000,113.505,-39.153,246.784,201.477,-337.609,372.822,-379.780,-88.600,-32.060
332,46153.420000,130.211,-50.196,253.952,206.106,-344.135,363.738,-281.780,-208.600,47.940
333,46153.435000,115.470,-61.239,245.760,210.745,-350.544,360.624,-157.780,-255.600,137.940
334,46153.477000,121.367,-90.353,246.784,211.634,-354.274,356.568,68.220,-225.600,130.940
335,46153.531000,107.608,-71.278,248.832,220.285,-344.903,361.753,433.220,-109.600,70.940
336,46153.557000,87.954,-77.302,268.288,224.142,-340.155,367.828,400.220,-120.600,35.940
337,46153.599000,146.917,-76.298,257.024,229.011,-330.795,374.997,551.220,-77.600,-57.060
338,46153.635000,270.741,-55.216,217.088,232.180,-308.419,393.381,762.220,169.400,-48.060
339,46153.659000,205.881,-25.098,210.944,234.222,-298.940,408.505,762.220,356.400,-186.060
340,46153.694000,119.401,21.082,204.800,233.591,-276.789,417.927,959.220,205.400,-272.060
341,46153.735000,245.190,92.361,156.672,242.310,-262.759,427.191,623.220,-248.600,-256.060
342,46153.776000,203.916,23.090,146.432,253.816,-251.616,427.445,79.220,-264.600,-267.060
343,46153.814000,218.656,37.145,130.048,265.181,-250.588,425.494,57.220,-365.600,-150.060
344,46153.854000,211.777,13.051,136.192,277.539,-245.923,421.633,40.220,-329.600,-48.060
345,46153.898000,185.244,21.082,142.336,284.222,-241.294,419.752,456.220,-322.600,-8.060
346,46153.917000,154.779,-31.122,132.096,292.926,-227.440,420.060,812.220,-457.600,-96.060
347,46153.957000,140.038,-20.078,128.000,314.214,-193.190,424.799,1516.220,-693.600,-257.060
348,46154.4000,168.537,64.251,126.976,328.921,-156.220,432.570,1926.220,-575.600,-203.060
349,46154.34000,159.693,110.431,155.648,337.125,-110.216,438.535,1670.220,-359.600,-222.060
350,46154.75000,148.883,171.671,147.456,343.056,-91.779,440.925,1080.220,-268.600,-217.060
351,46154.116000,141.021,171.671,156.672,349.816,-81.634,440.156,470.220,-148.600,-112.060
352,46154.136000,143.969,124.486,131.072,356.617,-67.921,434.490,122.220,-254.600,-15.060
353,46154.176000,190.157,105.412,132.096,366.075,-67.095,423.581,-93.780,-392.600,24.940
354,46154.220000,201.950,102.400,123.904,368.836,-71.814,414.533,-129.780,-410.600,89.940
355,46154.255000,243.225,82.322,140.288,373.536,-73.662,410.522,-77.780,-232.600,102.940
356,46154.292000,232.415,74.290,146.432,376.354,-74.638,405.532,-5.780,-85.600,222.940
357,46154.335000,253.052,57.224,142.336,371.455,-86.669,402.285,6.220,58.400,325.940
358,46154.355000,253.052,56.220,130.048,373.324,-88.456,403.244,-141.780,77.400,359.940
359,46154.392000,263.862,46.180,113.664,372.176,-103.146,401.935,-148.780,-25.600,364.940
360,46154.435000,260.914,26.102,99.328,374.968,-105.974,395.911,-127.780,-167.600,267.940
361,46154.476000,286.464,28.110,82.944,377.802,-105.995,392.931,-96.780,-158.600,164.940
362,46154.516000,253.052,37.145,73.728,376.644,-120.803,385.652,-242.780,-222.600,100.940
363,46154.560000,233.397,31.122,73.728,380.294,-130.031,379.493,-391.780,-121.600,109.940
364,46154.596000,212.760,23.090,80.896,381.024,-145.632,377.173,-820.780,87.400,77.940
365,46154.616000,203.916,18.071,88.064,375.197,-155.921,369.983,-1043.780,234.400,21.940
366,46154.656000,209.812,16.063,116.736,371.237,-168.797,369.703,-1158.780,363.400,-149.060
367,46154.695000,221.605,11.043,99.328,364.440,-181.691,370.413,-715.780,419.400,19.940
368,46154.735000,224.553,-15.059,117.760,358.527,-198.373,364.082,-920.780,277.400,67.940
369,46154.775000,222.587,-18.071,139.264,358.372,-209.425,360.862,-656.780,162.400,-88.060
370,46154.816000,207.846,4.016,136.192,355.362,-221.470,355.628,-469.780,92.400,-73.060
371,46154.837000,195.071,1.004,157.696,352.452,-226.186,350.550,-485.780,172.400,-69.060
372,46154.877000,178.365,-16.063,147.456,353.395,-226.212,348.562,-243.780,227.400,-56.060
373,46154.916000,191.140,1.004,119.808,351.472,-228.908,352.480,-163.780,110.400,-137.060
374,46154.957000,222.587,-12.047,147.456,350.630,-221.533,355.620,-79.780,56.400,-169.060
375,46154.997000,216.691,2.008,152.576,359.128,-222.414,351.635,57.220,-44.600,-243.060
376,46155.37000,227.501,11.043,153.600,360.153,-216.866,353.744,155.220,-21.600,-281.060
377,46155.77000,224.553,21.082,142.336,362.214,-204.853,357.981,118.220,1.400,-319.060
378,46155.97000,212.760,35.137,132.096,365.168,-196.551,359.157,93.220,120.400,-352.060
379,46155.137000,213.743,44.173,114.688,363.351,-191.839,367.212,152.220,284.400,-241.060
380,46155.176000,228.484,32.125,106.496,361.458,-191.864,367.208,-212.780,202.400,-181.060
381,46155.216000,219.639,17.067,132.096,361.463,-191.806,370.193,-300.780,132.400,-125.060
382,46155.255000,219.639,18.071,142.336,361.346,-200.109,367.033,-293.780,142.400,-186.060
383,46155.295000,206.864,27.106,164.864,360.442,-197.315,370.075,-52.780,198.400,-225.060
384,46155.320000,214.726,30.118,173.056,356.690,-195.435,375.082,10.220,122.400,-194.060
385,46155.360000,203.916,41.161,185.344,361.423,-195.353,376.086,-37.780,51.400,-162.060
386,46155.395000,169.520,43.169,195.584,363.322,-194.490,372.128,-129.780,13.400,-200.060
387,46155.439000,143.969,36.141,197.632,363.357,-191.761,371.192,-136.780,-54.600,-178.060
388,46155.479000,140.038,24.094,193.536,367.158,-190.756,373.208,-120.780,-58.600,-76.060
389,46155.519000,140.038,31.122,176.128,365.236,-192.672,370.181,-14.780,-37.600,-24.060
390,46155.539000,134.142,29.114,169.984,365.263,-190.820,371.215,-108.780,12.400,8.940
391,46155.579000,151.831,33.129,186.368,369.012,-193.499,372.158,-57.780,63.400,11.940
392,46155.619000,179.347,32.125,188.416,362.347,-196.374,370.098,-116.780,-48.600,21.940
393,46155.669000,241.259,28.110,187.392,360.404,-200.063,370.016,-160.780,27.400,72.940
394,46155.699000,218.656,33.129,193.536,363.222,-201.040,365.026,-183.780,69.400,-40.060
395,46155.739000,195.071,10.039,188.416,359.370,-206.489,369.878,-35.780,84.400,-42.060
396,46155.777000,154.779,20.078,169.984,362.309,-199.122,370.039,77.220,48.400,-50.060
397,46155.797000,146.917,17.067,154.624,364.209,-199.019,374.023,152.220,-41.600,-48.060
398,46155.836000,154.779,15.059,146.432,365.164,-198.130,372.054,183.220,-13.600,-83.060
399,46155.877000,161.658,20.078,153.600,365.291,-188.949,373.244,207.220,12.400,-84.060
400,46155.917000,159.693,27.106,154.624,364.401,-185.219,377.300,207.220,84.400,-135.060
401,46155.959000,183.278,32.125,178.176,365.495,-175.012,383.487,199.220,125.400,-134.060
402,46155.999000,190.157,42.165,186.368,365.559,-170.411,384.580,165.220,60.400,-146.060
403,46156.19000,198.019,46.180,189.440,365.600,-167.624,386.628,195.220,-7.600,-118.060
404,46156.57000,199.985,50.196,181.248,369.473,-161.161,386.772,163.220,-58.600,-92.060
405,46156.101000,190.157,38.149,159.744,367.632,-157.502,387.841,114.220,-108.600,-40.060
406,46156.136000,179.347,43.169,154.624,371.369,-161.097,388.765,185.220,-100.600,-29.060
407,46156.179000,184.261,54.212,148.480,371.476,-152.910,385.956,247.220,-1.600,-36.060
408,46156.219000,191.140,81.318,139.264,371.636,-141.800,392.160,347.220,139.400,-41.060
409,46156.257000,189.175,103.404,157.696,364.062,-142.718,397.103,128.220,266.400,-94.060
410,46156.277000,204.898,94.369,187.392,362.234,-138.903,406.133,-108.780,408.400,-101.060
411,46156.317000,203.916,108.424,209.920,354.589,-145.260,413.943,-95.780,465.400,-120.060
412,46156.356000,192.123,109.427,211.968,347.997,-143.437,417.951,-218.780,396.400,-70.060
413,46156.399000,188.192,109.427,188.416,344.181,-146.157,421.866,-439.780,295.400,32.940
414,46156.439000,153.797,80.314,187.392,335.411,-164.632,419.470,-595.780,229.400,127.940
415,46156.482000,133.159,52.204,184.320,331.347,-184.876,417.044,-673.780,182.400,190.940
416,46156.497000,120.384,24.094,180.224,328.317,-198.694,414.757,-577.780,84.400,220.940
417,46156.536000,114.488,21.082,183.296,320.571,-210.860,406.529,-500.780,-22.600,193.940
418,46156.577000,110.557,16.063,173.056,318.573,-218.273,403.384,-521.780,-116.600,152.940
419,46156.622000,110.557,11.043,161.792,321.230,-230.379,391.195,-506.780,-199.600,93.940
420,46156.657000,141.021,10.039,155.648,325.796,-241.486,382.014,-469.780,-179.600,66.940
421,46156.699000,138.073,-21.082,188.416,323.762,-250.867,371.865,-696.780,-151.600,156.940
422,46156.717000,232.415,-39.153,204.800,320.756,-262.094,361.675,-391.780,-252.600,196.940
423,46156.756000,314.964,-17.067,199.680,322.519,-271.288,358.498,81.220,-161.600,246.940
424,46156.800000,215.708,-1.004,201.728,319.749,-266.667,362.571,168.220,-33.600,231.940
425,46156.840000,184.261,8.031,198.656,315.836,-275.918,360.379,-79.780,166.400,323.940
426,46156.880000,167.555,-22.086,181.248,307.169,-287.024,360.130,-355.780,120.400,419.940
427,46156.919000,159.693,-52.204,178.176,296.489,-306.498,354.726,-377.780,76.400,391.940
428,46156.976000,148.883,-57.224,161.792,291.664,-313.032,351.596,-253.780,-4.600,275.940
429,46156.984000,151.831,-65.255,163.840,288.788,-315.817,351.532,-245.780,33.400,23.940
430,46157.17000,138.073,-86.337,173.056,296.337,-317.511,353.497,-83.780,167.400,-151.060
431,46157.59000,122.349,-81.318,181.248,292.765,-302.746,361.763,120.220,338.400,-205.060
432,46157.99000,140.038,-49.192,192.512,291.921,-296.170,370.853,487.220,406.400,-335.060
433,46157.140000,133.159,4.016,197.632,290.211,-284.051,383.044,547.220,340.400,-424.060
434,46157.180000,241.259,38.149,195.584,293.243,-270.213,386.327,545.220,46.400,-390.060
435,46157.200000,168.537,52.204,221.184,299.184,-251.660,394.688,470.220,69.400,-495.060
436,46157.236000,188.192,64.251,222.208,300.241,-244.961,408.757,490.220,139.400,-242.060
437,46157.281000,162.641,69.271,217.088,299.503,-230.218,414.043,257.220,249.400,-141.060
438,46157.321000,142.987,47.184,217.088,294.753,-232.034,417.976,43.220,293.400,-61.060
439,46157.359000,110.557,34.133,210.944,287.209,-230.283,418.997,117.220,236.400,-7.060
440,46157.401000,99.747,39.153,185.344,285.328,-230.171,425.959,162.220,58.400,43.940
441,46157.444000,98.764,37.145,179.200,284.369,-231.100,425.937,72.220,0.400,117.940
442,46157.460000,92.868,32.125,177.152,282.459,-232.099,422.929,-112.780,-111.600,164.940
443,46157.500000,119.401,31.122,187.392,282.340,-240.423,418.774,-131.780,-145.600,146.940
444,46157.540000,148.883,48.188,203.776,281.384,-240.552,412.802,-279.780,-383.600,217.940
445,46157.580000,233.397,23.090,207.872,287.850,-250.776,400.658,-647.780,-430.600,267.940
446,46157.617000,244.207,9.035,204.800,290.468,-265.651,387.415,-475.780,-372.600,203.940
447,46157.656000,170.503,5.020,222.208,291.162,-283.220,378.090,-565.780,-74.600,263.940
448,46157.681000,142.004,-9.035,187.392,286.272,-294.374,372.872,-378.780,-111.600,371.940
449,46157.721000,131.194,-9.035,161.792,284.289,-300.072,363.797,-197.780,-233.600,432.940
450,46157.761000,130.211,-24.094,133.120,277.364,-321.386,355.376,-667.780,-273.600,434.940
451,46157.801000,174.434,-105.412,154.624,274.245,-340.098,337.069,-789.780,-173.600,391.940
452,46157.841000,48.645,-117.459,206.848,275.147,-342.912,333.032,-77.780,-112.600,-133.060
453,46157.881000,193.106,-112.439,227.328,284.844,-326.199,338.375,468.220,-23.600,-485.060
454,46157.901000,194.088,-86.337,228.352,290.662,-316.787,347.536,705.220,-30.600,-318.060
455,46157.945000,201.950,-76.298,230.400,294.635,-303.755,355.776,645.220,48.400,-298.060
456,46157.980000,206.864,-36.141,224.256,296.803,-285.114,371.096,766.220,92.400,-303.060
457,46158.20000,179.347,-18.071,195.584,300.828,-268.398,380.409,676.220,52.400,-174.060
458,46158.60000,156.745,17.067,157.696,297.289,-251.704,393.690,707.220,55.400,-142.060
459,46158.100000,147.900,42.165,134.144,303.173,-237.672,404.938,774.220,-14.600,-95.060
460,46158.140000,142.987,42.165,142.336,303.239,-233.053,407.026,415.220,-16.600,-5.060
461,46158.160000,124.315,39.153,162.816,300.423,-232.057,413.011,336.220,43.400,-18.060
462,46158.200000,127.263,39.153,187.392,300.556,-222.798,418.181,250.220,168.400,40.940
463,46158.247000,141.021,54.212,209.920,293.019,-220.968,423.182,173.220,104.400,70.940
464,46158.276000,125.298,70.275,202.752,293.993,-219.084,425.213,86.220,-35.600,-31.060
465,46158.316000,96.798,97.380,210.944,299.722,-214.565,418.355,-175.780,-175.600,-185.060
466,46158.362000,329.704,46.180,193.536,305.228,-225.738,405.195,-692.780,-299.600,67.940
467,46158.376000,185.244,36.141,168.960,307.918,-235.914,398.020,-497.780,-188.600,131.940
468,46158.429000,197.036,48.188,203.776,306.634,-259.123,382.605,-1442.780,68.400,-166.060
469,46158.459000,229.466,-93.365,222.208,301.753,-269.399,375.416,-806.780,403.400,0.940
470,46158.504000,157.727,-10.039,226.304,296.062,-271.170,382.333,276.220,405.400,-163.060
471,46158.542000,130.211,10.039,230.400,292.439,-260.090,389.525,483.220,257.400,-73.060
472,46158.582000,94.833,23.090,185.344,294.466,-250.786,395.694,372.220,-20.600,-77.060
473,46158.621000,97.781,29.114,180.224,298.278,-248.885,396.735,167.220,-263.600,40.940
474,46158.644000,105.643,30.118,165.888,301.957,-256.242,392.605,103.220,-280.600,164.940
475,46158.679000,106.626,22.086,147.456,303.780,-260.875,388.531,-74.780,-230.600,276.940
476,46158.722000,147.900,-16.063,153.600,301.909,-259.107,386.576,-115.780,-211.600,291.940
477,46158.762000,181.313,-27.106,193.536,304.590,-270.161,381.372,77.220,-297.600,224.940
478,46158.802000,337.566,-40.157,223.232,304.701,-261.935,380.553,153.220,-322.600,342.940
479,46158.842000,253.052,-44.173,188.416,305.542,-269.310,377.413,41.220,-251.600,288.940
480,46158.859000,226.518,-33.129,206.848,303.684,-266.626,375.478,-52.780,-16.600,-15.060
481,46158.900000,213.743,-15.059,164.864,307.549,-261.021,378.587,200.220,62.400,-312.060
482,46158.942000,154.779,13.051,145.408,315.192,-256.223,384.668,214.220,116.400,-457.060
483,46158.982000,107.608,45.176,151.552,319.235,-237.753,390.040,166.220,31.400,-474.060
484,46159.21000,138.073,34.133,150.528,326.826,-235.879,387.108,-30.780,-57.600,-382.060
485,46159.63000,154.779,29.114,152.576,330.584,-237.681,386.080,-89.780,-89.600,-225.060
486,46159.102000,155.762,27.106,156.672,333.356,-242.282,383.003,-118.780,-31.600,-99.060
487,46159.126000,185.244,-6.024,153.600,330.599,-235.965,380.149,-244.780,-15.600,69.940
488,46159.161000,205.881,-39.153,193.536,325.784,-242.402,381.994,-118.780,77.400,89.940
489,46159.201000,215.708,-18.071,190.464,325.947,-231.252,390.189,507.220,156.400,0.940
490,46159.245000,199.985,34.133,198.656,325.128,-222.844,399.318,615.220,187.400,-180.060
491,46159.282000,167.555,55.216,164.864,324.351,-210.869,403.551,597.220,13.400,-429.060
492,46159.322000,167.555,51.200,165.888,333.150,-190.523,407.975,173.220,-141.600,-560.060
493,46159.340000,189.175,13.051,150.528,345.618,-177.632,403.295,-55.780,-262.600,-813.060
494,46159.381000,181.313,46.180,172.032,357.276,-155.475,404.778,218.220,-211.600,-961.060
495,46159.421000,183.278,83.325,210.944,364.089,-141.626,406.078,454.220,-52.600,-819.060
496,46159.462000,173.451,123.482,201.728,368.049,-128.751,406.357,228.220,-125.600,-66.060
497,46159.515000,124.315,123.482,190.464,369.980,-125.977,406.419,180.220,-201.600,67.940
498,46159.537000,61.420,108.424,219.136,372.853,-123.230,404.493,-61.780,1.400,-13.060
499,46159.557000,89.919,49.192,179.200,369.819,-137.088,400.215,-213.780,-212.600,26.940
500,46159.615000,75.178,99.388,137.216,380.251,-134.378,391.336,-333.780,-475.600,-131.060
501,46159.644000,238.311,111.435,210.944,387.707,-141.782,382.238,-426.780,-284.600,-204.060
502,46159.677000,235.363,79.310,161.792,391.354,-151.050,374.089,-569.780,-110.600,158.940
503,46159.720000,267.793,73.286,192.512,385.574,-158.473,372.928,-359.780,4.400,267.940
504,46159.762000,217.674,75.294,197.632,378.758,-173.121,377.579,-249.780,328.400,252.940
505,46159.801000,207.846,57.224,174.080,371.141,-176.847,379.478,-223.780,375.400,151.940
506,46159.822000,109.574,61.239,153.600,367.241,-185.941,385.246,-244.780,205.400,50.940
507,46159.861000,82.058,40.157,135.168,366.190,-193.341,382.103,-433.780,-30.600,98.940
508,46159.900000,83.040,-10.039,159.744,363.182,-205.367,377.864,-526.780,-25.600,158.940
509,46159.951000,159.693,19.075,173.056,365.943,-210.085,368.816,66.220,-233.600,189.940
510,46159.984000,452.545,-13.051,223.232,364.785,-224.893,361.537,-433.780,-195.600,284.940
511,46160.24000,369.013,-68.267,193.536,370.616,-213.785,363.771,358.220,-144.600,8.940
512,46160.44000,152.814,62.243,192.512,367.782,-213.764,366.752,-39.780,258.400,-77.060
513,46160.82000,201.950,22.086,157.696,363.950,-217.439,368.657,-137.780,181.400,-98.060
514,46160.122000,122.349,5.020,159.744,360.084,-223.824,372.494,-294.780,236.400,75.940
515,46160.162000,81.075,-6.024,133.120,359.077,-228.398,373.390,-70.780,61.400,-290.060
516,46160.202000,134.142,-61.239,172.032,366.853,-212.802,369.755,45.220,-196.600,-413.060
517,46160.242000,117.436,-85.333,181.248,364.196,-199.935,374.003,742.220,35.400,-408.060
518,46160.262000,130.211,64.251,166.912,369.199,-180.536,379.396,433.220,43.400,-455.060
519,46160.305000,200.967,76.298,194.560,375.072,-166.622,384.674,253.220,-30.600,-385.060
520,46160.341000,293.344,133.522,208.896,374.174,-162.989,383.756,10.220,-79.600,-117.060
521,46160.381000,229.466,112.439,221.184,370.358,-165.710,387.671,-18.780,239.400,24.940
522,46160.421000,210.795,108.424,192.512,364.628,-170.248,393.534,50.220,393.400,367.940
523,46160.461000,175.417,103.404,174.080,355.135,-173.804,405.380,152.220,439.400,424.940
524,46160.508000,130.211,56.220,151.552,339.873,-183.886,415.089,48.220,446.400,445.940
525,46160.521000,100.729,37.145,159.744,327.622,-181.144,423.086,296.220,355.400,402.940
526,46160.564000,76.161,53.208,161.792,317.149,-186.642,429.916,293.220,259.400,374.940
527,46160.602000,101.712,51.200,199.680,312.417,-187.484,436.854,210.220,179.400,365.940
528,46160.642000,117.436,62.243,182.272,306.726,-188.475,436.824,93.220,35.400,394.940
529,46160.684000,149.866,56.220,169.984,306.546,-201.359,433.566,-109.780,-153.600,325.940
530,46160.724000,224.553,45.176,185.344,309.338,-204.187,427.542,-380.780,-329.600,194.940
531,46160.742000,253.052,53.208,193.536,314.856,-214.443,414.401,-494.780,-350.600,96.940
532,46160.791000,197.036,23.090,167.936,316.557,-227.439,404.181,-543.780,-250.600,-75.060
533,46160.819000,142.004,35.137,167.936,317.406,-233.957,398.076,-571.780,-100.600,-14.060
534,46160.861000,138.073,23.090,158.720,316.170,-254.300,388.689,-728.780,-31.600,152.940
535,46160.899000,182.296,36.141,146.432,312.173,-269.145,381.405,-650.780,34.400,260.940
536,46160.947000,159.693,9.035,201.728,308.125,-286.894,366.102,-1156.780,78.400,172.940
537,46160.985000,133.159,-106.416,262.144,297.430,-306.544,351.743,-895.780,85.400,105.940
538,46161.1000,142.987,-108.424,270.336,299.280,-309.326,348.702,-121.780,112.400,-129.060
539,46161.41000,167.555,-73.286,245.760,305.137,-297.146,358.916,347.220,120.400,-289.060
540,46161.82000,149.866,-59.231,208.896,308.036,-293.326,364.970,612.220,86.400,-234.060
541,46161.121000,153.797,-36.141,214.016,310.272,-269.267,376.426,776.220,-36.600,-333.060
542,46161.166000,165.589,15.059,178.176,318.095,-251.585,385.766,716.220,-40.600,-228.060
543,46161.207000,170.503,8.031,156.672,315.377,-243.280,390.912,615.220,-125.600,-99.060
544,46161.222000,143.969,46.180,129.024,319.406,-225.745,395.270,747.220,-125.600,-9.060
545,46161.264000,165.589,69.271,131.072,324.249,-218.217,402.399,620.220,-130.600,67.940
546,46161.302000,165.589,47.184,149.504,322.374,-217.267,405.401,340.220,-42.600,189.940
547,46161.342000,159.693,46.180,147.456,315.798,-214.489,411.418,434.220,-5.600,224.940
548,46161.382000,149.866,56.220,194.560,309.200,-212.725,412.440,253.220,181.400,231.940
549,46161.422000,142.987,30.118,196.608,305.384,-215.446,416.355,121.220,298.400,129.940
550,46161.445000,116.453,63.247,223.232,295.131,-205.291,427.497,378.220,504.400,-43.060
551,46161.485000,165.589,97.380,214.016,285.858,-192.414,436.709,350.220,379.400,-125.060
552,46161.525000,368.031,95.373,174.080,282.131,-188.702,441.756,202.220,87.400,383.940
553,46161.565000,109.574,108.424,198.656,280.118,-197.830,444.543,-29.780,50.400,136.940
554,46161.601000,120.384,58.227,240.640,273.376,-206.221,441.370,-674.780,368.400,143.940
555,46161.642000,139.056,-4.016,250.880,253.455,-210.908,449.198,41.220,652.400,300.940
556,46161.686000,92.868,53.208,229.376,239.327,-207.236,459.202,585.220,375.400,311.940
557,46161.701000,92.868,47.184,224.256,230.859,-204.464,466.211,407.220,157.400,280.940
558,46161.740000,84.023,43.169,196.608,235.680,-197.969,467.351,247.220,-110.600,330.940
559,46161.781000,111.539,53.208,197.632,235.694,-197.033,468.365,31.220,-227.600,323.940
560,46161.826000,118.418,68.267,183.296,236.459,-209.925,464.113,-75.780,-308.600,151.940
561,46161.861000,146.917,20.078,207.872,246.748,-217.350,452.035,-640.780,-328.600,136.940
562,46161.905000,223.570,-38.149,192.512,250.311,-232.212,438.794,-479.780,-436.600,167.940
563,46161.925000,226.518,-46.180,178.176,256.836,-238.674,431.703,-443.780,-284.600,51.940
564,46161.966000,207.846,2.008,199.680,259.697,-236.843,429.757,-77.780,-65.600,-225.060
565,46162.0,181.313,26.102,180.224,262.445,-243.258,427.636,-20.780,58.400,-345.060
566,46162.40000,169.520,38.149,175.104,259.708,-235.947,428.782,16.220,127.400,-295.060
567,46162.91000,145.935,58.227,182.272,262.643,-229.399,433.899,99.220,115.400,-135.060
568,46162.125000,140.038,61.239,181.248,261.620,-234.928,432.785,-86.780,84.400,-41.060
569,46162.171000,138.073,37.145,180.224,256.885,-235.029,430.786,-143.780,50.400,72.940
570,46162.190000,169.520,24.094,169.984,256.874,-235.926,431.762,-30.780,37.400,149.940
571,46162.225000,177.382,6.024,162.816,252.970,-244.299,427.599,32.220,3.400,148.940
572,46162.265000,172.468,-6.024,174.080,252.050,-242.460,428.632,-120.780,-76.600,66.940
573,46162.306000,179.347,-12.047,186.368,251.024,-248.028,425.528,56.220,-131.600,-83.060
574,46162.340000,202.933,6.024,182.272,257.842,-234.120,429.812,237.220,-39.600,-279.060
575,46162.386000,147.900,12.047,177.152,257.038,-223.997,433.011,302.220,42.400,-583.060
576,46162.406000,136.107,22.086,212.992,265.688,-214.625,438.196,297.220,91.400,-754.060
577,46162.447000,170.503,70.275,249.856,269.694,-198.903,443.510,491.220,50.400,-609.060
578,46162.482000,150.848,75.294,244.736,273.744,-179.595,444.921,378.220,-193.600,-266.060
579,46162.531000,90.902,89.349,256.000,273.735,-180.472,446.892,449.220,-182.600,-7.060
580,46162.567000,21.129,65.255,230.400,278.635,-168.422,451.134,665.220,-268.600,490.940
581,46162.602000,86.971,97.380,202.752,282.496,-162.875,451.258,536.220,-393.600,676.940
582,46162.626000,245.190,138.541,155.648,286.210,-167.503,446.192,74.220,-401.600,569.940
583,46162.665000,171.486,85.333,225.280,280.255,-186.993,436.816,-608.780,-107.600,446.940
584,46162.704000,203.916,52.204,219.136,280.889,-209.104,429.384,-641.780,-143.600,362.940
585,46162.744000,198.019,9.035,192.512,275.081,-218.399,426.194,-429.780,73.400,246.940
586,46162.784000,146.917,14.055,174.080,276.003,-220.219,426.157,-232.780,83.400,134.940
587,46162.825000,158.710,-1.004,155.648,274.853,-234.928,423.853,-192.780,-13.600,43.940
588,46162.862000,133.159,27.106,156.672,276.828,-228.549,421.007,-15.780,-192.600,-46.060
589,46162.882000,131.194,7.027,152.576,285.164,-240.561,409.823,-304.780,-404.600,31.940
590,46162.922000,137.090,9.035,179.200,287.966,-242.492,402.824,-497.780,-308.600,-166.060
591,46162.966000,99.747,-2.008,190.464,295.504,-243.542,390.877,-337.780,-310.600,-247.060
592,46163.5000,133.159,-18.071,204.800,310.538,-249.990,378.826,-466.780,-465.600,-207.060
593,46163.45000,424.046,15.059,169.984,321.854,-251.068,362.906,-363.780,-665.600,-204.060
594,46163.85000,285.482,-8.031,149.504,336.098,-246.456,355.068,-4.780,-356.600,-315.060
595,46163.106000,191.140,21.082,178.176,330.438,-245.556,358.063,-12.780,-60.600,18.940
596,46163.146000,191.140,-32.125,167.936,335.034,-254.772,351.905,-630.780,-40.600,-109.060
597,46163.184000,134.142,-81.318,176.128,341.583,-259.421,343.859,-370.780,-210.600,-69.060
598,46163.225000,174.434,-43.169,146.432,351.142,-252.006,342.042,251.220,-347.600,-535.060
599,46163.265000,164.607,-16.063,108.544,370.415,-226.144,340.631,442.220,-301.600,-761.060
600,46163.305000,168.537,30.118,120.832,380.112,-209.431,345.975,322.220,-35.600,-862.060
601,46163.355000,127.263,45.176,139.264,381.306,-191.894,352.317,512.220,231.400,-676.060
602,46163.365000,251.086,156.612,125.952,389.150,-172.419,359.706,287.220,51.400,-589.060
603,46163.401000,305.136,141.553,126.976,386.363,-168.773,360.774,-22.780,208.400,-429.060
604,46163.441000,211.777,107.420,136.192,386.630,-150.255,371.115,163.220,313.400,-454.060
605,46163.486000,230.449,121.475,156.672,380.147,-140.986,381.249,317.220,350.400,-227.060
606,46163.539000,169.520,120.471,158.720,381.114,-139.960,386.246,194.220,406.400,-5.060
607,46163.576000,136.107,104.408,158.720,367.938,-136.216,399.236,89.220,422.400,106.940
608,46163.585000,130.211,100.392,142.336,362.161,-143.601,400.065,11.220,292.400,219.940
609,46163.639000,124.315,106.416,145.408,356.376,-151.863,402.864,-213.780,163.400,200.940
610,46163.665000,140.038,82.322,159.744,351.527,-160.229,399.695,-461.780,106.400,223.940
611,46163.706000,164.607,62.243,185.344,343.812,-171.264,402.433,-573.780,168.400,218.940
612,46163.746000,136.107,69.271,184.320,339.793,-187.902,397.100,-478.780,-12.600,184.940
613,46163.786000,273.689,60.235,202.752,344.410,-195.344,387.996,-537.780,-104.600,201.940
614,46163.832000,235.363,73.286,192.512,341.370,-209.280,379.738,-477.780,-233.600,96.940
615,46163.847000,269.758,53.208,171.008,343.060,-223.172,370.493,-523.780,-229.600,227.940
616,46163.887000,121.367,50.196,147.456,340.938,-238.967,360.208,-553.780,-180.600,211.940
617,46163.927000,156.745,-2.008,152.576,335.923,-259.282,354.795,-869.780,-64.600,453.940
618,46163.965000,177.382,-1.004,158.720,328.158,-272.442,342.567,-621.780,-21.600,448.940
619,46164.6000,142.004,-94.369,220.160,325.033,-291.991,328.222,-816.780,-232.600,330.940
620,46164.47000,130.211,-72.282,251.904,336.431,-287.495,316.399,12.220,-723.600,-301.060
621,46164.67000,159.693,-55.216,262.144,358.367,-273.660,306.779,349.220,-724.600,-874.060
622,46164.106000,166.572,-39.153,198.656,373.756,-255.157,306.201,639.220,-759.600,-762.060
623,46164.144000,215.708,0.000,146.432,390.040,-239.566,296.611,637.220,-771.600,-511.060
624,46164.189000,231.432,36.141,104.448,405.336,-227.534,292.911,697.220,-568.600,-214.060
625,46164.225000,228.484,31.122,74.752,411.239,-210.969,293.272,784.220,-362.600,-69.060
626,46164.265000,216.691,70.275,47.104,416.209,-194.260,301.592,955.220,-332.600,-17.060
627,46164.285000,207.846,74.290,56.320,420.159,-182.280,302.848,990.220,-95.600,-8.060
628,46164.324000,211.777,80.314,76.800,419.301,-176.640,310.924,741.220,32.400,84.940
629,46164.385000,188.192,99.388,96.256,414.734,-165.533,320.105,413.220,131.400,296.940
630,46164.412000,195.071,71.278,134.144,406.149,-171.064,323.953,345.220,145.400,383.940
631,46164.447000,184.261,126.494,165.888,398.515,-176.525,330.788,398.220,231.400,327.940
632,46164.484000,196.054,104.408,194.560,389.051,-177.429,337.717,-188.780,398.400,376.940
633,46164.550000,208.829,100.392,184.320,380.383,-189.315,344.414,-193.780,304.400,353.940
634,46164.559000,236.345,53.208,154.624,371.751,-197.711,342.233,-419.780,393.400,358.940
635,46164.597000,283.516,2.008,108.544,360.219,-211.467,348.886,-134.780,275.400,556.940
636,46164.636000,197.036,2.008,91.136,346.763,-227.158,351.516,-320.780,277.400,409.940
637,46164.680000,153.797,11.043,181.248,339.178,-228.973,357.434,476.220,421.400,97.940
638,46164.711000,173.451,87.341,184.320,335.618,-214.072,372.665,523.220,435.400,-191.060
639,46164.747000,197.036,61.239,180.224,330.053,-206.662,380.772,501.220,251.400,-194.060
640,46164.768000,196.054,66.259,202.752,329.231,-198.292,387.911,230.220,160.400,67.940
641,46164.813000,185.244,116.455,202.752,324.321,-211.220,385.640,4.220,77.400,181.940
642,46164.847000,193.106,96.376,181.248,327.182,-209.389,383.693,-341.780,-240.600,232.940
643,46164.887000,177.382,63.247,157.696,325.140,-219.628,376.510,-498.780,-190.600,145.940
644,46164.925000,179.347,31.122,99.328,326.796,-236.230,369.197,-388.780,-371.600,348.940
645,46164.966000,253.052,12.047,104.448,324.691,-250.290,353.975,-502.780,-298.600,443.940
646,46165.12000,252.069,42.165,93.184,321.667,-263.270,347.726,-255.780,-149.600,469.940
647,46165.29000,275.655,-21.082,113.664,304.353,-283.709,344.282,-753.780,239.400,670.940
648,46165.66000,200.967,18.071,145.408,291.010,-291.154,347.087,-73.780,530.400,630.940
649,46165.105000,68.299,43.169,156.672,269.083,-304.112,354.736,-85.780,570.400,784.940
650,46165.146000,63.386,-21.082,192.512,243.261,-324.565,356.252,-626.780,432.400,718.940
651,46165.189000,87.954,-61.239,192.512,229.689,-347.001,341.830,-829.780,120.400,558.940
652,46165.225000,170.503,-78.306,176.128,223.697,-368.459,325.450,-744.780,-108.600,571.940
653,46165.250000,160.676,-86.337,156.672,220.784,-373.214,318.382,-286.780,-366.600,539.940
654,46165.285000,257.965,-137.537,178.176,215.091,-373.464,309.416,-268.780,-350.600,611.940
655,46165.334000,292.361,-166.651,175.104,208.342,-382.713,309.210,569.220,-165.600,609.940
656,46165.372000,214.726,-85.333,146.432,201.961,-366.875,327.441,1173.220,-142.600,387.940
657,46165.432000,231.432,-73.286,138.240,195.514,-356.417,351.525,1082.220,-49.600,210.940
658,46165.449000,214.726,-95.373,121.856,199.446,-346.952,364.663,1193.220,-30.600,-8.060
659,46165.472000,199.985,-58.227,111.616,198.961,-315.386,387.216,1463.220,-45.600,-128.060
660,46165.517000,245.190,-75.294,102.400,206.019,-285.592,407.753,1584.220,-274.600,-296.060
661,46165.547000,96.798,12.047,162.816,212.287,-244.739,432.503,1869.220,14.400,-613.060
662,46165.594000,98.764,56.220,179.200,218.628,-198.408,456.375,1951.220,-46.600,-519.060
663,46165.629000,127.263,66.259,210.944,220.967,-166.981,469.978,1304.220,152.400,-541.060
664,46165.689000,100.729,72.282,186.368,224.995,-149.466,473.340,952.220,15.400,-443.060
665,46165.705000,132.177,57.224,189.440,234.836,-121.818,475.933,602.220,-134.600,-358.060
666,46165.727000,109.574,69.271,175.104,241.582,-112.608,474.149,435.220,-441.600,-448.060
667,46165.769000,99.747,78.306,171.008,260.656,-100.624,465.481,192.220,-503.600,-561.060
668,46165.806000,151.831,94.369,168.960,281.621,-88.635,455.821,56.220,-581.600,-662.060
669,46165.851000,129.228,125.490,184.320,290.251,-79.497,449.065,45.220,-472.600,-629.060
670,46165.900000,118.418,119.467,187.392,305.514,-69.396,440.351,-197.780,-430.600,-574.060
671,46165.941000,148.883,118.463,212.992,320.669,-67.500,433.452,-170.780,-283.600,-377.060
672,46165.950000,159.693,150.588,243.712,328.321,-60.285,422.675,-127.780,-203.600,-286.060
673,46165.992000,156.745,141.553,267.264,334.956,-59.301,421.712,-160.780,-90.600,-88.060
674,46166.26000,170.503,155.608,260.096,340.589,-62.053,417.683,-86.780,-72.600,28.940
675,46166.66000,178.365,145.569,230.400,342.407,-67.525,417.569,-264.780,67.400,133.940
676,46166.105000,206.864,124.486,211.968,345.158,-73.900,417.437,-515.780,315.400,273.940
677,46166.146000,225.536,71.278,123.904,341.147,-90.460,416.084,-551.780,234.400,234.940
678,46166.184000,276.637,39.153,103.424,343.021,-92.189,420.029,-315.780,282.400,266.940
679,46166.205000,270.741,80.314,56.320,343.939,-94.048,418.001,215.220,-300.600,204.940
680,46166.246000,387.685,96.376,57.344,350.440,-102.323,411.867,-174.780,-250.600,125.940
681,46166.286000,323.808,68.267,63.488,361.763,-104.103,406.873,-339.780,-309.600,51.940
682,46166.327000,321.843,62.243,54.272,367.279,-115.158,399.683,-361.780,-262.600,10.940
683,46166.367000,281.551,63.247,54.272,376.674,-118.912,388.676,-456.780,-273.600,-54.060
684,46166.406000,236.345,50.196,24.576,384.020,-134.523,381.392,-628.780,-320.600,-30.060
685,46166.434000,205.881,33.129,18.432,387.701,-141.081,371.312,-701.780,-240.600,-56.060
686,46166.470000,200.967,35.137,24.576,390.388,-152.056,370.088,-617.780,-21.600,-124.060
687,46166.510000,168.537,38.149,48.128,386.606,-152.067,372.071,-369.780,367.400,-131.060
688,46166.550000,192.123,36.141,77.824,377.915,-165.006,371.783,-719.780,398.400,26.940
689,46166.590000,176.399,34.133,66.560,371.987,-183.403,371.382,-805.780,454.400,145.940
690,46166.630000,208.829,22.086,109.568,364.320,-190.794,373.203,-744.780,627.400,142.940
691,46166.650000,199.002,6.024,168.960,351.779,-209.142,379.757,-593.780,658.400,115.940
692,46166.690000,197.036,-2.008,209.920,338.478,-213.781,385.606,-387.780,659.400,18.940
693,46166.728000,173.451,6.024,239.616,328.989,-216.517,392.496,-145.780,464.400,62.940
694,46166.769000,151.831,17.067,247.808,320.332,-226.747,390.276,-109.780,94.400,38.940
695,46166.814000,162.641,16.063,245.760,325.087,-224.871,389.329,-30.780,-94.600,49.940
696,46166.847000,150.848,47.184,220.160,330.764,-224.796,389.339,174.220,-287.600,11.940
697,46166.887000,182.296,34.133,192.512,340.284,-219.389,378.527,-68.780,-521.600,145.940
698,46166.907000,190.157,34.133,167.936,347.715,-228.626,369.389,-76.780,-600.600,208.940
699,46166.946000,187.209,37.145,141.312,356.172,-231.516,356.410,-86.780,-586.600,237.940
700,46166.990000,194.088,27.106,124.928,357.941,-239.872,349.272,-150.780,-499.600,291.940
701,46167.64000,186.226,21.082,117.760,363.568,-242.702,341.264,-182.780,-387.600,305.940
702,46167.77000,197.036,34.133,123.904,363.434,-251.961,336.093,-199.780,203.400,186.940
703,46167.107000,204.898,54.212,100.352,353.843,-261.286,333.891,-407.780,152.400,326.940
704,46167.127000,215.708,-48.188,99.328,343.134,-282.632,326.459,-715.780,67.400,397.940
705,46167.167000,242.242,-70.275,129.024,339.228,-291.024,321.301,-261.780,-31.600,370.940
706,46167.207000,240.276,-81.318,135.168,340.107,-295.651,318.220,-95.780,-136.600,255.940
707,46167.247000,247.155,-81.318,134.144,334.368,-300.287,319.107,284.220,-69.600,113.940
708,46167.287000,237.328,-55.216,125.952,339.268,-288.256,322.355,516.220,-32.600,-1.060
709,46167.327000,219.639,-21.082,109.568,342.192,-283.365,336.388,682.220,-1.600,-57.060
710,46167.372000,213.743,0.000,113.664,341.518,-264.022,342.766,603.220,87.400,-100.060
711,46167.387000,197.036,19.075,103.424,342.480,-263.833,351.724,581.220,83.400,-58.060
712,46167.425000,182.296,15.059,112.640,341.728,-250.026,355.995,368.220,127.400,55.940
713,46167.465000,185.244,7.027,123.904,329.350,-256.465,362.802,157.220,214.400,100.940
714,46167.511000,163.624,-10.039,130.048,327.577,-248.926,374.895,199.220,316.400,84.940
715,46167.545000,230.449,-4.016,155.648,319.131,-244.361,379.953,277.220,327.400,113.940
716,46167.591000,263.862,-10.039,159.744,315.381,-242.461,385.956,248.220,350.400,19.940
717,46167.611000,232.415,16.063,175.104,307.008,-233.198,397.082,259.220,435.400,-203.060
718,46167.651000,240.276,22.086,173.056,301.310,-235.047,400.018,-76.780,399.400,-376.060
719,46167.691000,220.622,38.149,173.056,299.487,-231.173,412.033,-201.780,349.400,-381.060
720,46167.731000,216.691,26.102,174.080,295.583,-239.546,407.871,-601.780,430.400,-342.060
721,46167.771000,166.572,5.020,172.032,292.690,-243.287,405.798,-645.780,355.400,-237.060
722,46167.815000,138.073,-11.043,163.840,288.803,-250.686,404.640,-628.780,332.400,-215.060
723,46167.830000,92.868,-8.031,156.672,288.638,-262.635,402.396,-380.780,196.400,-179.060
724,46167.882000,28.008,1.004,166.912,283.001,-259.143,397.489,-230.780,113.400,-118.060
725,46167.911000,33.904,-2.008,181.248,290.489,-264.637,392.410,-272.780,-132.600,-53.060
726,46167.952000,185.244,-17.067,199.680,290.429,-268.419,386.361,-183.780,-291.600,140.940
727,46167.987000,270.741,-25.098,235.520,291.397,-266.613,384.412,264.220,-292.600,63.940
728,46168.32000,268.775,-4.016,235.520,298.990,-264.700,383.469,64.220,106.400,-24.060
729,46168.67000,215.708,-20.078,227.328,291.457,-262.831,390.460,237.220,180.400,99.940
730,46168.87000,183.278,-27.106,177.152,284.946,-255.434,398.565,179.220,133.400,117.940
731,46168.127000,185.244,10.039,161.792,288.713,-257.138,402.513,339.220,-50.600,-100.060
732,46168.172000,182.296,30.118,154.624,294.521,-247.843,405.703,408.220,-36.600,-273.060
733,46168.212000,192.123,20.078,144.384,300.350,-236.755,406.943,198.220,-116.600,-386.060
734,46168.247000,176.399,48.188,162.816,303.271,-231.142,411.045,133.220,107.400,-439.060
735,46168.287000,176.399,42.165,152.576,307.168,-222.847,411.227,-152.780,70.400,-374.060
736,46168.307000,180.330,28.110,147.456,312.683,-233.922,403.043,-518.780,-10.600,-236.060
737,46168.351000,162.641,0.000,152.576,312.667,-234.877,401.033,-615.780,-138.600,-161.060
738,46168.391000,172.468,-2.008,177.152,312.540,-243.298,391.902,-307.780,-122.600,-242.060
739,46168.431000,278.603,6.024,194.560,324.917,-237.639,392.041,-70.780,-146.600,-99.060
740,46168.477000,200.967,31.122,210.944,324.896,-238.652,387.046,78.220,-97.600,-231.060
741,46168.511000,189.175,8.031,212.992,325.980,-229.322,395.203,242.220,208.400,-253.060
742,46168.546000,126.280,13.051,175.104,323.178,-227.391,402.202,474.220,56.400,-121.060
743,46168.572000,84.023,29.114,145.408,325.246,-214.540,402.479,541.220,-76.600,-53.060
744,46168.611000,73.213,33.129,135.168,331.100,-202.399,410.703,494.220,-207.600,56.940
745,46168.651000,108.591,35.137,144.384,329.273,-197.805,412.788,394.220,-128.600,192.940
746,46168.695000,239.294,67.263,197.632,325.553,-193.235,414.869,478.220,52.400,440.940
747,46168.729000,188.192,50.196,211.968,318.831,-200.632,415.696,-195.780,147.400,412.940
748,46168.769000,179.347,52.204,264.192,307.319,-212.614,419.402,133.220,279.400,410.940
749,46168.789000,202.933,86.337,240.640,295.999,-210.814,425.392,120.220,248.400,320.940
750,46168.829000,199.985,69.271,210.944,292.154,-215.406,427.278,-80.780,137.400,300.940
751,46168.879000,155.762,46.180,197.632,285.405,-224.655,427.071,-350.780,91.400,237.940
752,46168.912000,136.107,4.016,187.392,286.174,-236.728,417.863,-623.780,43.400,197.940
753,46168.952000,131.194,-21.082,186.368,281.264,-249.655,415.592,-526.780,11.400,110.940
754,46168.992000,118.418,-26.102,176.128,282.981,-261.696,407.381,-338.780,-153.600,60.940
755,46169.10000,125.298,-25.098,174.080,287.604,-269.060,402.258,-270.780,-242.600,-45.060
756,46169.55000,124.315,-16.063,174.080,292.324,-269.134,395.301,-109.780,-225.600,-109.060
757,46169.90000,91.885,14.055,186.368,304.737,-260.746,394.503,70.220,-310.600,-173.060
758,46169.131000,129.228,56.220,191.488,311.346,-260.834,385.559,-370.780,-374.600,-240.060
759,46169.171000,343.463,63.247,191.488,321.616,-269.254,369.481,-596.780,-416.600,-192.060
760,46169.211000,245.190,61.239,187.392,329.198,-267.478,361.573,-517.780,-338.600,-336.060
761,46169.251000,278.603,-11.043,167.936,333.648,-286.109,342.285,-751.780,-250.600,-26.060
762,46169.280000,235.363,-37.145,147.456,335.396,-295.479,330.152,-584.780,-186.600,321.940
763,46169.325000,220.622,-58.227,143.360,329.599,-303.878,325.986,-426.780,-134.600,485.940
764,46169.352000,176.399,-77.302,131.072,325.589,-319.638,318.682,-192.780,-135.600,490.940
765,46169.396000,152.814,-63.247,104.448,321.762,-323.255,323.573,180.220,-147.600,345.940
766,46169.432000,151.831,-58.227,91.136,316.979,-327.002,322.492,182.220,-113.600,159.940
767,46169.476000,139.056,-46.180,76.800,319.920,-319.616,323.648,316.220,-73.600,-63.060
768,46169.492000,144.952,-40.157,134.144,321.839,-317.739,324.685,144.220,-56.600,-256.060
769,46169.535000,148.883,-42.165,175.104,327.727,-302.889,330.978,291.220,194.400,-396.060
770,46169.576000,335.601,-22.086,199.680,325.929,-297.183,343.032,382.220,352.400,-324.060
771,46169.610000,285.482,21.082,177.152,327.105,-281.401,353.316,327.220,342.400,-420.060
772,46169.650000,228.484,14.055,226.304,321.484,-278.493,365.305,58.220,666.400,-302.060
773,46169.691000,171.486,20.078,200.704,318.640,-279.369,369.261,-238.780,618.400,-213.060
774,46169.730000,119.401,-19.075,175.104,306.352,-278.596,370.254,-477.780,455.400,-134.060
775,46169.751000,111.539,-29.114,172.032,302.496,-284.084,373.115,-272.780,254.400,-154.060
776,46169.792000,96.798,-20.078,161.792,301.588,-281.348,373.172,-78.780,116.400,-173.060
777,46169.834000,127.263,-8.031,179.200,306.343,-279.473,372.225,-76.780,102.400,-261.060
778,46169.867000,158.710,-11.043,209.920,308.273,-276.699,372.287,-81.780,95.400,-228.060
779,46169.917000,143.969,-24.094,219.136,308.262,-277.596,373.262,-63.780,-78.600,-263.060
780,46169.951000,231.432,0.000,238.592,320.685,-268.311,371.489,286.220,-182.600,-319.060
781,46169.977000,209.812,17.067,229.376,325.533,-259.965,373.663,338.220,-271.600,-321.060
782,46170.11000,216.691,20.078,198.656,338.981,-245.131,373.998,401.220,-330.600,-271.060
783,46170.51000,171.486,45.176,160.768,346.573,-243.238,372.061,286.220,-304.600,-307.060
784,46170.91000,192.123,34.133,148.480,356.153,-234.049,367.297,164.220,-335.600,-280.060
785,46170.131000,169.520,45.176,156.672,366.769,-219.176,371.608,200.220,-250.600,-322.060
786,46170.171000,177.382,40.157,168.960,370.557,-218.327,365.664,132.220,-182.600,-244.060
787,46170.191000,162.641,44.173,167.936,376.362,-209.071,366.864,26.220,-169.600,-128.060
788,46170.230000,170.503,35.137,174.080,380.994,-215.558,359.770,-35.780,-147.600,-66.060
789,46170.270000,188.192,32.125,171.008,381.069,-210.061,359.888,-148.780,-201.600,-38.060
790,46170.311000,201.950,23.090,161.792,381.070,-209.281,352.942,-149.780,-242.600,-117.060
791,46170.350000,208.829,34.133,148.480,395.317,-204.630,347.094,55.220,-342.600,-206.060
792,46170.390000,180.330,19.075,158.720,403.785,-207.403,340.085,-35.780,-432.600,-259.060
793,46170.430000,181.313,24.094,168.960,415.311,-193.706,330.447,36.220,-396.600,-393.060
794,46170.456000,218.656,39.153,150.528,418.263,-185.423,330.628,92.220,-204.600,-462.060
795,46170.490000,186.226,44.173,148.480,427.780,-180.815,325.767,-81.780,-11.600,-598.060
796,46170.535000,156.745,57.224,129.024,431.808,-163.300,329.129,-205.780,175.400,-610.060
797,46170.575000,136.107,38.149,63.488,431.820,-162.384,329.149,-291.780,164.400,-490.060
798,46170.610000,116.453,51.200,44.032,434.809,-151.353,329.388,-40.780,42.400,-305.060
799,46170.656000,249.121,56.220,106.496,432.935,-149.624,325.444,-30.780,1.400,-142.060
800,46170.672000,295.309,100.392,105.472,427.329,-145.001,331.502,352.220,193.400,248.940
801,46170.712000,260.914,63.247,132.096,421.546,-153.243,335.296,16.220,176.400,395.940
802,46170.752000,117.436,48.188,171.008,413.001,-156.766,348.139,664.220,485.400,488.940
803,46170.792000,124.315,158.620,204.800,400.705,-158.390,366.984,715.220,594.400,300.940
804,46170.832000,225.536,37.145,218.112,381.854,-154.683,381.955,49.220,663.400,499.940
805,46170.872000,229.466,34.133,164.864,374.146,-164.861,381.727,10.220,304.400,495.940
806,46170.912000,335.601,-13.051,122.880,369.130,-185.955,383.260,-290.780,-176.600,590.940
807,46170.931000,273.689,-5.020,162.816,363.468,-185.075,385.259,54.220,206.400,236.940
808,46170.971000,216.691,-9.035,136.192,353.065,-185.914,396.167,473.220,396.400,156.940
809,46171.16000,109.574,10.039,158.720,342.915,-169.151,417.396,859.220,539.400,222.940
810,46171.51000,87.954,88.345,128.000,333.596,-159.900,428.520,1016.220,450.400,237.940
811,46171.92000,41.766,146.573,177.152,324.343,-146.010,442.727,757.220,429.400,129.940
812,46171.132000,0.491,135.529,190.464,312.125,-140.578,447.798,159.220,144.400,309.940
813,46171.152000,148.883,98.384,256.000,312.982,-146.998,446.668,-184.780,24.400,321.940
814,46171.192000,155.762,125.490,307.200,308.124,-156.242,445.469,-186.780,90.400,251.940
815,46171.232000,234.380,90.353,343.040,305.194,-162.731,443.338,-272.780,77.400,105.940
816,46171.272000,204.898,72.282,283.648,301.363,-166.387,446.238,-312.780,143.400,78.940
817,46171.310000,126.280,74.290,202.752,298.403,-175.547,448.028,-121.780,217.400,-158.060
818,46171.355000,85.988,84.329,156.672,298.495,-169.075,451.150,1.220,141.400,-275.060
819,46171.389000,66.334,108.424,87.040,302.206,-173.743,444.093,-252.780,-109.600,-183.060
820,46171.409000,167.555,64.251,141.312,308.696,-182.934,437.940,-654.780,-183.600,33.940
821,46171.456000,140.038,33.129,176.128,304.741,-194.971,433.699,-539.780,-94.600,157.940
822,46171.495000,155.762,29.114,195.584,303.683,-202.449,426.576,-249.780,-94.600,123.940
823,46171.532000,187.209,-2.008,192.512,303.489,-216.270,422.303,-231.780,-259.600,232.940
824,46171.582000,229.466,3.012,182.272,311.891,-223.662,413.206,-150.780,-366.600,361.940
825,46171.612000,241.259,-15.059,168.960,310.797,-233.869,407.020,-260.780,-393.600,348.940
826,46171.640000,256.983,-9.035,155.648,311.717,-234.929,399.041,-134.780,-246.600,249.940
827,46171.676000,191.140,13.051,160.768,310.785,-234.005,400.054,261.220,25.400,-114.060
828,46171.721000,182.296,46.180,132.096,312.660,-235.735,403.999,269.220,-11.600,-173.060
829,46171.760000,175.417,36.141,113.664,314.615,-231.129,404.100,46.220,-57.600,-155.060
830,46171.794000,178.365,34.133,111.616,318.375,-232.911,404.067,-116.780,-87.600,-25.060
831,46171.847000,203.916,20.078,126.976,315.474,-236.750,397.019,-350.780,51.400,106.940
832,46171.856000,175.417,11.043,185.344,303.008,-248.842,395.748,-676.780,184.400,349.940
833,46171.891000,160.676,-17.067,221.184,294.239,-266.536,386.407,-412.780,274.400,423.940
834,46171.936000,117.436,1.004,226.304,281.788,-277.673,387.146,-147.780,99.400,457.940
835,46171.977000,138.073,29.114,191.488,279.764,-286.937,382.967,-193.780,-166.600,330.940
836,46172.15000,238.311,31.122,174.080,279.668,-293.448,377.856,-453.780,-64.600,324.940
837,46172.51000,190.157,-2.008,165.888,274.723,-308.325,369.575,-641.780,11.400,211.940
838,46172.104000,186.226,-58.227,171.008,267.813,-327.924,355.222,-932.780,55.400,181.940
839,46172.114000,163.624,-80.314,168.960,263.763,-346.472,345.870,-510.780,76.400,99.940
840,46172.159000,160.676,-91.357,202.752,266.644,-342.868,340.978,-355.780,9.400,-66.060
841,46172.197000,147.900,-112.439,204.800,265.699,-342.861,341.971,-46.780,-21.600,-178.060
842,46172.232000,110.557,-117.459,216.064,268.471,-347.463,338.893,58.220,-76.600,-253.060
843,46172.271000,114.488,-83.325,241.664,278.208,-327.962,346.285,754.220,-102.600,-364.060
844,46172.324000,152.814,-32.125,221.184,286.966,-311.164,356.602,836.220,-198.600,-298.060
845,46172.332000,361.152,-58.227,168.960,293.816,-295.346,364.906,579.220,-310.600,-184.060
846,46172.376000,169.520,3.012,126.976,296.728,-290.611,370.979,863.220,-47.600,-552.060
847,46172.421000,147.900,-3.012,176.128,309.357,-267.370,380.444,304.220,179.400,-463.060
848,46172.450000,178.365,66.259,163.840,309.496,-258.052,388.599,403.220,208.400,-382.060
849,46172.495000,154.779,54.212,157.696,314.451,-242.279,395.905,210.220,42.400,-340.060
850,46172.534000,139.056,24.094,153.600,322.050,-240.307,397.947,-63.780,-42.600,-386.060
851,46172.557000,144.952,5.020,171.008,327.704,-241.285,390.972,-150.780,-43.600,-473.060
852,46172.594000,136.107,8.031,165.888,332.598,-229.313,391.235,273.220,-34.600,-395.060
853,46172.630000,113.505,89.349,195.584,333.815,-209.964,396.621,572.220,-83.600,-290.060
854,46172.672000,204.898,153.600,180.224,342.521,-196.090,397.924,417.220,-361.600,-74.060
855,46172.722000,321.843,155.608,154.624,348.192,-196.093,393.954,129.220,-354.600,135.940
856,46172.753000,210.795,100.392,191.488,348.246,-192.389,396.022,172.220,-147.600,12.940
857,46172.793000,209.812,107.420,189.440,350.060,-197.900,393.918,197.220,-11.600,335.940
858,46172.812000,182.296,68.267,157.696,346.217,-202.472,396.799,-142.780,-26.600,455.940
859,46172.871000,127.263,39.153,141.312,342.172,-220.962,390.432,-385.780,-4.600,436.940
860,46172.899000,113.505,18.071,139.264,330.567,-238.655,383.076,-424.780,35.400,472.940
861,46172.936000,132.177,42.165,141.312,325.650,-251.661,376.824,-391.780,5.400,438.940
862,46172.972000,150.848,47.184,129.024,324.502,-266.351,375.515,-533.780,-91.600,427.940
863,46173.19000,196.054,17.067,177.152,316.740,-279.472,365.278,-860.780,-75.600,388.940
864,46173.46000,262.879,0.000,185.344,310.742,-301.008,344.918,-853.780,-145.600,411.940
865,46173.72000,259.931,-31.122,188.416,305.722,-320.602,329.574,-808.780,-235.600,309.940
866,46173.113000,210.795,-61.239,150.528,305.558,-330.992,313.438,-608.780,-225.600,325.940
867,46173.155000,195.071,-74.290,128.000,301.588,-343.985,307.188,-442.780,-336.600,496.940
868,46173.196000,196.054,-100.392,105.472,294.741,-359.004,292.933,-265.780,-341.600,549.940
869,46173.232000,187.209,-84.329,110.592,290.863,-365.525,289.805,-197.780,-102.600,432.940
870,46173.275000,198.019,-86.337,107.520,281.246,-376.683,287.564,-18.780,3.400,227.940
871,46173.296000,222.587,-76.298,146.432,277.557,-370.223,292.669,172.220,178.400,18.940
872,46173.332000,207.846,-45.176,173.056,271.035,-363.722,301.749,425.220,257.400,-205.060
873,46173.375000,212.760,-30.118,186.368,277.812,-353.381,310.931,241.220,228.400,-350.060
874,46173.412000,210.795,-57.224,197.632,280.743,-346.872,314.058,217.220,47.400,-388.060
875,46173.455000,193.106,-65.255,183.296,286.514,-340.325,317.190,82.220,41.400,-476.060
876,46173.501000,193.106,-66.259,140.288,292.289,-333.720,323.307,173.220,56.400,-599.060
877,46173.515000,92.868,-49.192,103.424,305.765,-317.796,332.617,456.220,171.400,-771.060
878,46173.556000,199.985,-1.004,124.928,311.744,-296.493,341.037,652.220,68.400,-739.060
879,46173.595000,273.689,19.075,131.072,311.947,-283.336,358.226,672.220,353.400,-460.060
880,46173.634000,213.743,34.133,155.648,303.780,-259.336,373.644,571.220,689.400,-302.060
881,46173.676000,186.226,87.341,191.488,294.356,-258.233,389.568,348.220,737.400,-102.060
882,46173.714000,149.866,95.373,221.184,276.441,-254.630,398.570,-225.780,665.400,69.940
883,46173.755000,128.246,83.325,227.328,266.871,-262.942,401.363,-268.780,566.400,96.940
884,46173.771000,51.593,39.153,226.304,257.281,-272.247,400.156,-542.780,352.400,146.940
885,46173.816000,46.679,18.071,215.040,249.510,-286.246,391.889,-590.780,73.400,283.940
886,46173.851000,27.025,17.067,211.968,246.459,-301.078,384.607,-324.780,-200.600,302.940
887,46173.895000,137.090,-38.149,226.304,248.969,-322.599,359.286,-1081.780,-625.600,567.940
888,46173.940000,493.820,-104.408,197.632,244.942,-339.335,348.978,-149.780,-260.600,578.940
889,46173.975000,163.624,5.020,131.072,248.788,-334.724,348.087,-330.780,-370.600,60.940
890,46173.996000,168.537,-141.553,211.968,239.895,-360.800,331.605,-651.780,368.400,29.940
891,46174.37000,90.902,-22.086,169.984,232.543,-346.787,350.790,843.220,450.400,-59.060
892,46174.77000,62.403,1.004,164.864,231.741,-336.644,354.983,387.220,185.400,-140.060
893,46174.115000,90.902,-36.141,194.560,237.474,-332.846,358.057,229.220,-38.600,-183.060
894,46174.157000,100.729,19.075,201.728,232.851,-325.482,363.180,238.220,-58.600,-65.060
895,46174.195000,106.626,-39.153,220.160,240.419,-324.642,354.257,-263.780,-182.600,-29.060
896,46174.218000,222.587,-67.263,214.016,243.176,-330.179,350.165,105.220,-415.600,-69.060
897,46174.256000,274.672,-40.157,178.176,256.565,-319.888,352.393,273.220,-460.600,2.940
898,46174.294000,258.948,-49.192,193.536,258.395,-323.683,344.358,-250.780,-247.600,-303.060
899,46174.336000,245.190,-49.192,212.992,267.035,-314.429,343.573,402.220,129.400,-505.060
900,46174.373000,180.330,23.090,174.080,274.833,-298.579,352.873,194.220,64.400,-465.060
901,46174.416000,138.073,4.016,175.104,283.447,-291.936,358.995,84.220,66.400,-441.060
902,46174.457000,132.177,35.137,149.504,283.552,-284.549,362.137,288.220,-61.600,-247.060
903,46174.476000,100.729,24.094,165.888,289.260,-282.583,365.171,152.220,-93.600,-11.060
904,46174.515000,115.470,22.086,165.888,287.417,-278.943,365.245,155.220,-20.600,129.940
905,46174.556000,134.142,18.071,173.056,283.544,-285.406,365.102,146.220,-24.600,192.940
906,46174.594000,245.190,3.012,173.056,283.585,-282.619,367.151,124.220,47.400,245.940
907,46174.634000,264.845,-24.094,166.912,279.755,-286.275,370.051,96.220,134.400,197.940
908,46174.676000,181.313,18.071,195.584,274.207,-277.130,373.222,144.220,156.400,-14.060
909,46174.697000,203.916,-18.071,185.344,271.377,-277.070,378.192,129.220,258.400,2.940
910,46174.736000,172.468,8.031,161.792,266.688,-275.086,389.168,422.220,247.400,-49.060
911,46174.776000,166.572,58.227,159.744,265.900,-264.007,394.376,290.220,149.400,-165.060
912,46174.813000,230.449,57.224,142.336,268.770,-261.299,390.459,-253.780,-39.600,-185.060
913,46174.856000,202.933,15.059,180.224,270.369,-281.644,379.088,-739.780,-54.600,-250.060
914,46174.897000,174.434,-21.082,245.760,273.089,-289.929,374.937,-797.780,114.400,-307.060
915,46174.935000,220.622,-26.102,227.328,274.047,-288.241,367.017,-415.780,-9.600,-386.060
916,46174.952000,222.587,-30.118,231.424,278.710,-293.597,370.889,520.220,63.400,-87.060
917,46174.996000,157.727,111.435,181.248,275.275,-269.535,386.315,1050.220,27.400,197.940
918,46175.35000,-54.541,149.584,169.984,264.657,-285.208,387.955,68.220,-18.600,723.940
919,46175.86000,-57.489,66.259,147.456,261.480,-308.441,372.536,-1250.780,-650.600,888.940
920,46175.112000,299.240,-22.086,129.024,255.371,-336.664,338.109,-1232.780,-903.600,1061.940
921,46175.155000,88.937,26.102,139.264,253.177,-356.376,314.810,-661.780,-965.600,905.940
922,46175.177000,198.019,-106.416,147.456,244.252,-382.824,279.421,-1146.780,-810.600,1184.940
923,46175.217000,197.036,-148.580,214.016,231.784,-394.935,277.156,115.220,-382.600,834.940
924,46175.259000,177.382,-94.369,186.368,218.470,-399.730,275.045,327.220,-162.600,978.940
925,46175.292000,142.004,-91.357,193.536,198.530,-406.171,286.814,521.220,-120.600,836.940
926,46175.345000,166.572,-88.345,173.056,188.141,-405.295,291.790,385.220,-86.600,759.940
927,46175.379000,235.363,-105.412,139.264,176.725,-410.006,292.668,264.220,-217.600,634.940
928,46175.397000,272.706,-78.306,86.016,174.033,-399.849,298.848,468.220,-293.600,485.940
929,46175.436000,199.985,-66.259,96.256,161.652,-406.327,303.665,351.220,-40.600,532.940
930,46175.477000,201.950,-80.314,120.832,156.847,-411.866,304.534,-162.780,28.400,538.940
931,46175.519000,177.382,-87.341,143.360,142.659,-411.216,300.549,-312.780,93.400,429.940
932,46175.555000,186.226,-126.494,145.408,134.046,-417.839,295.422,-275.780,195.400,337.940
933,46175.601000,176.399,-131.514,160.768,124.510,-422.662,289.337,-214.780,211.400,216.940
934,46175.636000,160.676,-154.604,191.488,120.714,-423.608,290.306,-84.780,283.400,103.940
935,46175.660000,171.486,-147.576,199.680,115.914,-429.090,294.161,227.220,124.400,35.940
936,46175.697000,184.261,-78.306,189.440,116.940,-424.301,304.211,493.220,52.400,-149.060
937,46175.736000,165.589,-104.408,167.936,122.770,-413.973,313.391,239.220,-73.600,26.940
938,46175.777000,178.365,-108.424,160.768,118.990,-413.965,316.369,362.220,0.400,95.940
939,46175.816000,145.935,-67.263,173.056,121.076,-400.899,327.592,426.220,79.400,-83.060
940,46175.857000,170.503,-55.216,167.936,123.982,-396.222,330.679,319.220,-74.600,-268.060
941,46175.876000,154.779,-50.196,175.104,134.361,-398.755,334.619,175.220,-206.600,-268.060
942,46175.942000,179.347,-33.129,179.200,140.082,-395.094,330.727,-180.780,-292.600,-165.060
943,46175.957000,184.261,-60.235,171.008,148.516,-399.796,318.704,-476.780,-303.600,-130.060
944,46175.998000,150.848,-68.267,159.744,155.938,-409.131,304.591,-563.780,-245.600,-139.060
945,46176.37000,154.779,-110.431,139.264,161.493,-416.658,290.514,-712.780,-357.600,-256.060
946,46176.75000,179.347,-83.325,128.000,174.718,-416.756,276.607,-520.780,-434.600,-272.060
947,46176.114000,206.864,-79.310,132.096,184.034,-426.046,263.493,-544.780,-477.600,-295.060
948,46176.145000,206.864,-116.455,136.192,196.361,-422.512,248.667,-392.780,-317.600,-115.060
949,46176.186000,232.415,-134.525,145.408,195.280,-431.803,242.499,-263.780,-155.600,67.940
950,46176.216000,228.484,-123.482,133.120,194.320,-432.751,241.483,135.220,13.400,227.940
951,46176.258000,196.054,-108.424,137.216,188.729,-427.192,248.556,244.220,45.400,113.940
952,46176.296000,186.226,-90.353,137.216,192.527,-426.986,256.523,310.220,12.400,-85.060
953,46176.344000,185.244,-92.361,142.336,196.417,-419.549,259.671,108.220,-14.600,-275.060
954,46176.357000,181.313,-90.353,149.504,207.811,-416.650,259.749,116.220,-46.600,-377.060
955,46176.398000,178.365,-96.376,155.648,217.314,-413.738,261.815,-24.780,-77.600,-476.060
956,46176.433000,192.123,-74.290,148.480,227.758,-410.891,259.901,78.220,-152.600,-622.060
957,46176.477000,191.140,-50.196,128.000,244.868,-405.150,261.044,46.220,-236.600,-594.060
958,46176.519000,166.572,-33.129,139.264,255.346,-399.593,257.199,-0.780,-100.600,-642.060
959,46176.557000,147.900,-26.102,137.216,274.511,-381.917,258.598,22.220,-71.600,-655.060
960,46176.577000,137.090,-2.008,149.504,285.908,-378.980,260.667,1.220,30.400,-589.060
961,46176.620000,143.969,-14.055,162.816,294.486,-374.306,259.784,-117.780,82.400,-406.060
962,46176.657000,139.056,-22.086,177.152,299.337,-365.141,257.002,-29.780,120.400,-254.060
963,46176.697000,164.607,-25.098,187.392,300.318,-362.419,255.073,71.220,137.400,-62.060
964,46176.740000,170.503,-26.102,205.824,296.619,-356.836,262.148,206.220,183.400,14.940
965,46176.780000,183.278,-46.180,205.824,297.605,-354.815,271.145,203.220,251.400,107.940
966,46176.817000,255.017,-69.271,208.896,293.825,-354.807,274.123,429.220,365.400,210.940
967,46176.841000,261.896,-44.173,177.152,286.297,-353.639,292.040,668.220,320.400,145.940
968,46176.896000,262.879,-38.149,172.032,281.656,-348.029,301.104,397.220,78.400,168.940
969,46176.916000,273.689,-41.161,150.528,283.503,-351.610,304.015,264.220,-153.600,186.940
970,46176.959000,279.585,-16.063,111.616,289.351,-338.768,301.313,176.220,-393.600,121.940
971,46177.0,229.466,-39.153,113.664,292.107,-344.325,296.226,-326.780,-379.600,120.940
972,46177.37000,218.656,-51.200,104.448,294.771,-355.574,281.071,-425.780,-442.600,22.940
973,46177.60000,197.036,-53.208,92.160,299.523,-352.958,271.187,-126.780,-438.600,48.940
974,46177.97000,167.555,-47.184,86.016,308.017,-353.879,265.212,107.220,-537.600,35.940
975,46177.137000,192.123,-69.271,82.944,312.715,-355.746,260.206,152.220,-580.600,172.940
976,46177.180000,204.898,-67.263,64.512,312.716,-354.966,253.260,330.220,-557.600,310.940
977,46177.217000,220.622,-85.333,87.040,311.757,-355.895,253.239,387.220,-439.600,319.940
978,46177.257000,233.397,-84.329,96.256,313.595,-359.593,250.179,313.220,-404.600,258.940
979,46177.297000,248.138,-58.227,122.880,313.675,-354.038,253.281,400.220,-267.600,207.940
980,46177.316000,225.536,-88.345,107.520,319.311,-357.530,258.189,324.220,-114.600,32.940
981,46177.357000,214.726,-66.259,109.568,317.640,-341.883,263.492,396.220,124.400,-185.060
982,46177.397000,210.795,-58.227,99.328,325.272,-337.982,270.549,264.220,117.400,-276.060
983,46177.441000,205.881,-61.239,92.160,327.194,-336.066,273.577,187.220,2.400,-249.060
984,46177.476000,210.795,-55.216,88.064,336.736,-330.405,275.700,190.220,-132.600,-353.060
985,46177.516000,220.622,-35.137,84.992,347.263,-321.184,271.934,71.220,-243.600,-330.060
986,46177.540000,228.484,-46.180,98.304,355.949,-308.324,268.242,106.220,-273.600,-364.060
987,46177.580000,265.827,-33.129,94.208,365.444,-305.509,265.332,101.220,-271.600,-372.060
988,46177.615000,247.155,-36.141,92.160,376.931,-295.360,261.586,36.220,-308.600,-327.060
989,46177.660000,238.311,-36.141,84.992,383.593,-291.744,254.711,-35.780,-235.600,-273.060
990,46177.701000,235.363,-37.145,76.800,394.024,-289.814,252.778,31.220,-185.600,-308.060
991,46177.735000,212.760,-22.086,98.304,401.715,-280.611,250.001,143.220,-176.600,-385.060
992,46177.757000,209.812,-9.035,78.848,407.525,-270.517,247.241,61.220,-323.600,-385.060
993,46177.795000,224.553,-10.039,78.848,419.011,-259.607,235.554,65.220,-338.600,-365.060
994,46177.841000,236.345,-2.008,78.848,428.521,-255.857,233.659,34.220,-304.600,-291.060
995,46177.879000,239.294,-1.004,84.992,434.207,-254.145,223.757,-104.780,-415.600,-220.060
996,46177.918000,232.415,-5.020,81.920,446.525,-251.488,210.902,-180.780,-397.600,-189.060
997,46177.958000,239.294,-10.039,68.608,449.450,-244.277,203.102,-305.780,-348.600,-255.060
998,46178.0,246.173,-7.027,59.392,455.187,-238.900,193.279,-256.780,-224.600,-199.060
999,46178.19000,262.879,-8.031,59.392,460.890,-236.214,186.382,-242.780,-26.600,-215.060
1000,46178.59000,271.724,2.008,69.632,464.738,-231.583,186.486,-141.780,96.400,-195.060
1001,46178.97000,238.311,16.063,69.632,469.511,-227.954,181.597,-260.780,-68.600,-328.060
1002,46178.140000,221.605,20.078,65.536,476.209,-222.389,180.731,-228.780,-39.600,-218.060
1003,46178.177000,228.484,42.165,51.200,480.957,-220.592,175.803,-223.780,74.400,-232.060
1004,46178.225000,240.276,59.231,69.632,483.866,-215.116,172.940,-376.780,134.400,-188.060
1005,46178.242000,270.741,62.243,75.776,482.970,-211.464,173.017,-502.780,248.400,-134.060
1006,46178.280000,253.052,54.212,78.848,486.703,-215.098,171.950,-397.780,201.400,-39.060
1007,46178.317000,239.294,42.165,84.992,483.783,-221.470,175.789,-189.780,233.400,43.940
1008,46178.360000,235.363,35.137,84.992,484.699,-224.128,179.712,-38.780,82.400,33.940
1009,46178.402000,228.484,41.161,78.848,487.677,-213.994,180.927,68.220,-51.600,-61.060
1010,46178.445000,216.691,35.137,74.752,489.599,-211.318,176.013,171.220,-94.600,-72.060
1011,46178.477000,223.570,45.176,71.680,491.506,-210.357,177.031,322.220,-45.600,-98.060
1012,46178.501000,233.397,56.220,71.680,495.437,-200.132,182.228,373.220,-32.600,-141.060
1013,46178.541000,226.518,56.220,78.848,499.224,-200.062,183.230,369.220,-129.600,-60.060
1014,46178.578000,233.397,48.188,61.440,499.208,-201.018,181.220,360.220,-163.600,16.940
1015,46178.621000,245.190,55.216,52.224,498.360,-193.721,180.379,373.220,-220.600,34.940
1016,46178.659000,250.104,57.224,41.984,503.997,-196.433,178.341,284.220,-178.600,78.940
1017,46178.712000,249.121,64.251,35.840,500.301,-190.051,179.466,274.220,-146.600,178.940
1018,46178.721000,246.173,34.133,34.816,498.361,-193.701,181.375,292.220,-55.600,279.940
1019,46178.758000,249.121,43.169,36.864,499.225,-200.043,184.225,309.220,-8.600,331.940
1020,46178.801000,248.138,40.157,40.960,490.576,-210.174,186.980,364.220,73.400,334.940
1021,46178.839000,253.052,32.125,40.960,487.788,-207.307,194.994,457.220,48.400,286.940
1022,46178.881000,248.138,44.173,41.984,482.018,-214.614,199.803,520.220,-33.600,347.940
1023,46178.916000,239.294,45.176,39.936,479.122,-219.173,202.686,396.220,70.400,424.940
1024,46178.941000,244.207,35.137,33.792,473.402,-222.815,207.573,22.220,128.400,409.940
1025,46178.979000,243.225,25.098,39.936,467.611,-231.915,214.333,129.220,178.400,335.940
1026,46179.24000,237.328,28.110,48.128,461.947,-231.834,222.284,264.220,178.400,188.940
1027,46179.61000,237.328,32.125,50.176,459.132,-230.819,229.264,328.220,117.400,98.940
1028,46179.101000,237.328,37.145,51.200,458.178,-231.689,232.228,275.220,106.400,64.940
1029,46179.141000,237.328,36.141,56.320,447.809,-229.818,241.204,202.220,46.400,77.940
1030,46179.184000,248.138,39.153,61.440,448.703,-233.490,240.132,118.220,34.400,92.940
1031,46179.200000,255.017,30.118,53.248,443.925,-237.178,242.036,-62.780,76.400,150.940
1032,46179.242000,267.793,14.055,58.368,443.878,-240.804,243.948,-145.780,122.400,185.940
1033,46179.282000,261.896,8.031,63.488,432.342,-254.618,247.616,-196.780,146.400,241.940
1034,46179.320000,246.173,-12.047,80.896,426.572,-261.924,252.425,-294.780,267.400,293.940
1035,46179.362000,245.190,-31.122,87.040,418.877,-271.185,252.216,-391.780,280.400,349.940
1036,46179.398000,232.415,-37.145,91.136,408.346,-280.445,253.993,-345.780,291.400,304.940
1037,46179.422000,219.639,-48.188,105.472,403.517,-287.798,255.819,-181.780,206.400,155.940
1038,46179.460000,218.656,-56.220,109.568,400.591,-294.248,255.677,-140.780,146.400,52.940
1039,46179.501000,229.466,-63.247,113.664,399.612,-296.950,258.602,-79.780,78.400,-3.060
1040,46179.539000,233.397,-59.231,100.352,396.836,-292.407,258.695,-21.780,63.400,-13.060
1041,46179.581000,228.484,-48.188,105.472,393.090,-289.689,259.742,-31.780,65.400,-25.060
1042,46179.627000,221.605,-47.184,101.376,394.945,-292.413,259.686,-119.780,22.400,-28.060
1043,46179.660000,224.553,-58.227,98.304,393.972,-294.277,258.651,-105.780,0.400,-3.060
1044,46179.678000,224.553,-56.220,97.280,395.854,-295.149,259.629,-28.780,-53.600,-14.060
1045,46179.721000,211.777,-56.220,102.400,394.915,-294.304,256.662,77.220,-87.600,12.940
1046,46179.760000,219.639,-63.247,102.400,394.947,-292.393,260.681,102.220,-86.600,15.940
1047,46179.807000,241.259,-69.271,100.352,395.927,-289.671,258.751,219.220,-117.600,20.940
1048,46179.842000,245.190,-59.231,90.112,401.635,-287.706,261.786,331.220,-136.600,-8.060
1049,46179.881000,228.484,-43.169,101.376,403.523,-288.499,266.745,394.220,-94.600,-77.060
