Sample, Time, ACCX, ACCY, ACCZ, MAGX, MAGY, MAGZ, GYRX, GYRY, GYRZ
0,45620.684000,214.726,-51.200,109.568,400.043,-326.841,181.379,-17.780,-12.600,-229.060
1,45620.692000,224.553,-52.204,100.352,400.118,-321.344,181.497,-33.780,-13.600,-329.060
2,45620.736000,228.484,-37.145,101.376,403.894,-322.171,183.474,-49.780,-39.600,-387.060
3,45620.776000,220.622,-38.149,98.304,409.577,-321.258,179.523,4.220,-99.600,-395.060
4,45620.829000,220.622,-46.180,100.352,413.538,-308.382,179.803,66.220,-148.600,-350.060
5,45620.852000,224.553,-42.165,86.016,420.234,-302.837,177.942,170.220,-146.600,-299.060
6,45620.892000,231.432,-36.141,92.160,424.140,-294.444,183.099,310.220,-99.600,-145.060
7,45620.913000,241.259,-44.173,83.968,426.016,-296.154,188.039,566.220,-29.600,-82.060
8,45620.953000,253.052,-33.129,81.920,431.903,-282.083,201.277,684.220,96.400,-53.060
9,45620.993000,264.845,-2.008,98.304,426.884,-278.584,-37.369,875.220,308.400,-9.060
10,45621.36000,204.898,19.075,103.424,425.489,-269.695,230.376,910.220,332.400,35.940
11,45621.93000,209.812,28.110,115.712,423.776,-259.155,255.464,1022.220,465.400,54.940
12,45621.115000,199.002,62.243,124.928,420.199,-245.988,275.631,871.220,313.400,63.940
13,45621.153000,217.674,71.278,141.312,415.578,-239.365,289.690,748.220,274.400,122.940
14,45621.175000,225.536,79.310,146.432,411.877,-234.580,302.717,658.220,215.400,153.940
15,45621.212000,216.691,83.325,144.384,408.220,-225.430,304.896,508.220,152.400,189.940
16,45621.257000,206.864,72.282,134.144,403.532,-223.446,315.872,442.220,52.400,221.940
17,45621.297000,201.950,66.259,121.856,403.545,-222.529,315.891,333.220,-7.600,211.940
18,45621.338000,208.829,55.216,109.568,401.640,-224.231,323.809,369.220,-106.600,246.940
19,45621.373000,214.726,51.200,108.544,403.620,-217.793,323.949,346.220,-154.600,172.940
20,45621.395000,212.760,55.216,107.520,405.527,-216.832,324.967,477.220,-162.600,90.940
21,45621.453000,222.587,70.275,102.400,403.674,-214.089,326.018,444.220,-147.600,67.940
22,45621.476000,239.294,67.263,96.256,405.607,-211.277,328.070,256.220,-160.600,84.940
23,45621.521000,230.449,63.247,91.136,407.486,-212.187,327.058,144.220,-116.600,93.940
24,45621.555000,225.536,58.227,89.088,404.717,-206.787,324.185,95.220,-95.600,81.940
25,45621.595000,231.432,49.192,89.088,404.720,-206.747,326.175,10.220,23.400,68.940
26,45621.615000,229.466,53.208,84.992,403.736,-209.508,326.115,-5.780,99.400,52.940
27,45621.655000,227.501,42.165,89.088,399.917,-212.268,328.040,-130.780,167.400,-1.060
28,45621.693000,222.587,32.125,97.280,394.189,-216.007,327.952,-371.780,152.400,1.940
29,45621.740000,204.898,2.008,120.832,387.352,-231.669,327.609,-539.780,183.400,-24.060
30,45621.785000,239.294,-5.020,147.456,384.471,-234.514,324.560,-432.780,208.400,-22.060
31,45621.862000,229.466,-22.086,152.576,383.510,-235.462,323.544,-332.780,161.400,-32.060
32,45621.980000,215.708,-18.071,147.456,380.556,-243.783,321.373,-273.780,111.400,-58.060
33,45622.53000,220.622,-14.055,142.336,377.792,-238.324,321.485,-134.780,46.400,-113.060
34,45622.120000,211.777,-1.004,135.168,386.255,-241.915,319.432,-209.780,-50.600,-160.060
35,45622.128000,203.916,-5.020,132.096,383.442,-239.341,312.520,-219.780,-58.600,-147.060
36,45622.128000,214.726,-7.027,130.048,383.389,-243.044,310.452,-185.780,-10.600,-111.060
37,45622.167000,213.743,-16.063,124.928,389.051,-243.925,308.452,-157.780,-6.600,-26.060
38,45622.167000,214.726,-13.051,121.856,385.169,-251.265,310.279,-20.780,15.400,63.940
39,45622.207000,219.639,-13.051,117.760,387.160,-243.930,309.444,64.220,17.400,124.940
40,45622.225000,211.777,-13.051,119.808,384.322,-243.948,310.434,146.220,-27.600,161.940
41,45622.256000,248.138,-15.059,124.928,382.340,-251.185,316.245,376.220,31.400,220.940
42,45622.267000,229.466,6.024,123.904,374.961,-238.264,326.455,585.220,60.400,215.940
43,45622.302000,209.812,36.141,122.880,375.977,-233.593,330.535,567.220,43.400,216.940
44,45622.326000,208.829,53.208,116.736,372.240,-230.758,337.552,515.220,-5.600,199.940
45,45622.360000,214.726,62.243,124.928,371.179,-239.815,343.326,393.220,1.400,139.940
46,45622.394000,231.432,62.243,129.024,372.345,-224.150,347.639,246.220,40.400,99.940
47,45622.418000,225.536,65.255,135.168,366.581,-230.618,348.488,109.220,107.400,85.940
48,45622.431000,211.777,51.200,133.120,363.747,-230.597,351.468,-19.780,141.400,77.940
49,45622.484000,190.157,45.176,116.736,365.571,-235.991,355.334,-72.780,34.400,43.940
50,45622.526000,179.347,52.204,112.640,364.643,-234.249,351.391,-241.780,-76.600,-54.060
51,45622.566000,197.036,50.196,113.664,367.471,-234.348,344.431,-381.780,-171.600,-167.060
52,45622.601000,257.965,34.133,129.024,375.917,-238.134,332.427,-512.780,-240.600,-304.060
53,45622.638000,209.812,-11.043,113.664,383.507,-235.501,321.553,-518.780,-286.600,-295.060
54,45622.674000,245.190,-4.016,124.928,391.007,-240.079,316.494,-461.780,-92.600,-297.060
55,45622.698000,232.415,-19.075,132.096,390.973,-242.009,311.480,-366.780,-67.600,-202.060
56,45622.737000,212.760,-29.114,135.168,391.838,-247.571,307.384,-222.780,15.400,-114.060
57,45622.774000,219.639,-23.090,139.264,394.777,-240.205,307.545,-47.780,97.400,-80.060
58,45622.817000,197.036,-14.055,136.192,392.834,-243.894,307.464,132.220,21.400,-41.060
59,45622.854000,195.071,-4.016,116.736,394.832,-236.482,310.608,186.220,-30.600,25.940
60,45622.891000,201.950,-3.012,121.856,391.084,-233.783,310.660,248.220,-103.600,94.940
61,45622.917000,245.190,-1.004,119.808,395.857,-230.933,312.717,329.220,-133.600,139.940
62,45622.951000,220.622,34.133,117.760,394.003,-228.190,313.768,382.220,-165.600,124.940
63,45623.17000,256.000,45.176,123.904,397.818,-226.249,316.798,286.220,-183.600,102.940
64,45623.78000,253.052,59.231,116.736,399.667,-229.051,312.763,273.220,-164.600,78.940
65,45623.141000,236.345,57.224,117.760,397.776,-229.056,313.755,199.220,-93.600,37.940
66,45623.207000,220.622,62.243,108.544,401.652,-222.554,315.888,138.220,-55.600,45.940
67,45623.236000,213.743,59.231,105.472,402.564,-225.251,317.821,-2.780,-5.600,70.940
68,45623.259000,212.760,48.188,93.184,400.654,-226.251,314.813,-195.780,39.400,128.940
69,45623.284000,209.812,47.184,99.328,396.680,-240.062,313.519,-242.780,141.400,147.940
70,45623.303000,194.088,38.149,110.592,397.572,-243.754,311.452,-366.780,-38.600,2.940
71,45623.338000,213.743,48.188,111.616,395.750,-238.340,308.581,-211.780,-61.600,-45.060
72,45623.362000,207.846,51.200,128.000,404.203,-242.048,300.557,-191.780,-272.600,-141.060
73,45623.388000,264.845,52.204,118.784,406.059,-243.992,293.556,-203.780,-334.600,-179.060
74,45623.436000,254.035,38.149,107.520,413.665,-240.403,284.692,-195.780,-304.600,-136.060
75,45623.472000,238.311,28.110,90.112,412.677,-242.443,274.701,-144.780,-232.600,-91.060
76,45623.497000,223.570,23.090,84.992,418.237,-250.672,271.550,-100.780,-162.600,-19.060
77,45623.558000,210.795,21.082,69.632,419.296,-242.414,271.727,-77.780,-58.600,-6.060
78,45623.602000,218.656,29.114,75.776,416.355,-249.800,270.571,-51.780,129.400,-37.060
79,45623.655000,230.449,23.090,94.208,413.587,-245.160,275.639,-204.780,171.400,-53.060
80,45623.711000,251.086,42.165,105.472,405.049,-247.066,277.575,-182.780,319.400,-46.060
81,45623.788000,228.484,34.133,111.616,406.920,-248.834,279.530,-446.780,230.400,-3.060
82,45623.812000,213.743,12.047,120.832,402.053,-258.175,273.356,-613.780,157.400,80.940
83,45623.825000,248.138,-14.055,121.856,395.207,-273.954,267.042,-543.780,81.400,87.940
84,45623.853000,219.639,-28.110,117.760,393.218,-280.489,261.927,-552.780,70.400,78.940
85,45623.898000,230.449,-33.129,123.904,391.250,-285.251,253.865,-454.780,104.400,76.940
86,45623.910000,217.674,-30.118,128.000,386.490,-287.185,251.828,-338.780,134.400,35.940
87,45623.933000,206.864,-28.110,123.904,384.460,-297.287,251.610,-235.780,143.400,28.940
88,45623.959000,200.967,-30.118,129.024,380.723,-293.692,250.686,-114.780,56.400,48.940
89,45623.972000,203.916,-30.118,119.808,382.535,-299.222,247.587,-115.780,-172.600,73.940
90,45624.28000,209.812,-40.157,132.096,384.379,-302.082,240.567,-61.780,-306.600,71.940
91,45624.62000,225.536,-40.157,124.928,385.383,-297.548,237.681,78.220,-394.600,97.940
92,45624.101000,246.173,-34.133,112.640,391.024,-299.442,230.686,120.220,-427.600,116.940
93,45624.138000,244.207,-25.098,100.352,390.937,-305.075,223.604,166.220,-378.600,96.940
94,45624.162000,242.242,-21.082,90.112,394.771,-301.380,222.694,211.220,-299.600,68.940
95,45624.176000,224.553,-14.055,78.848,396.643,-303.129,225.643,200.220,-151.600,15.940
96,45624.233000,228.484,-4.016,72.704,400.428,-303.079,225.650,208.220,7.400,-0.060
97,45624.267000,241.259,-1.004,98.304,395.819,-294.779,231.787,187.220,230.400,-12.060
98,45624.302000,233.397,3.012,108.544,396.827,-290.965,238.833,169.220,264.400,-34.060
99,45624.365000,237.328,7.027,128.000,392.118,-289.995,244.814,214.220,265.400,-8.060
100,45624.453000,228.484,7.027,126.976,393.073,-289.885,249.791,79.220,54.400,-19.060
101,45624.478000,231.432,9.035,129.024,398.790,-287.042,250.855,-18.780,-151.600,-29.060
102,45624.522000,219.639,6.024,107.520,397.748,-293.565,245.741,-45.780,-274.600,-20.060
103,45624.603000,217.674,2.008,92.160,403.495,-287.291,234.942,-87.780,-262.600,-32.060
104,45624.707000,223.570,4.016,86.016,408.175,-290.913,233.877,-77.780,-192.600,-34.060
105,45624.719000,228.484,3.012,84.992,414.842,-287.239,229.987,-50.780,-78.600,-34.060
106,45624.744000,239.294,1.004,86.016,405.408,-285.493,231.999,-20.780,95.400,-18.060
107,45624.789000,245.190,6.024,93.184,406.359,-285.422,234.986,12.220,190.400,8.940
108,45624.852000,226.518,0.000,94.208,402.587,-285.316,242.940,65.220,164.400,22.940
109,45624.852000,236.345,2.008,106.496,406.349,-287.078,243.903,45.220,135.400,30.940
110,45624.885000,222.587,1.004,110.592,400.607,-291.753,242.800,9.220,34.400,30.940
111,45624.916000,227.501,1.004,106.496,397.777,-290.914,240.824,16.220,-44.600,25.940
112,45624.959000,227.501,0.000,108.544,400.694,-285.341,242.936,26.220,-70.600,4.940
113,45624.978000,228.484,1.004,104.448,404.437,-288.097,239.899,33.220,-104.600,-4.060
114,45625.12000,229.466,1.004,100.352,403.544,-284.406,241.966,32.220,-83.600,-20.060
115,45625.47000,232.415,5.020,94.208,407.310,-285.351,237.973,26.220,-56.600,-29.060
116,45625.65000,235.363,6.024,89.088,406.373,-284.486,236.001,13.220,7.400,-26.060
117,45625.102000,235.363,9.035,91.136,403.608,-279.806,243.059,21.220,102.400,-18.060
118,45625.132000,230.449,9.035,95.232,403.585,-281.619,244.015,93.220,125.400,-16.060
119,45625.162000,237.328,17.067,93.184,400.719,-284.288,249.921,91.220,148.400,-33.060
120,45625.162000,230.449,21.082,109.568,399.890,-275.997,253.081,60.220,63.400,-41.060
121,45625.219000,228.484,18.071,115.712,401.752,-277.862,250.060,2.220,-5.600,-40.060
122,45625.244000,228.484,17.067,113.664,407.380,-281.452,249.992,11.220,-74.600,-37.060
123,45625.257000,227.501,16.063,108.544,403.657,-276.921,250.083,-31.780,-106.600,-31.060
124,45625.281000,230.449,10.039,104.448,409.266,-281.505,246.015,-45.780,-93.600,-19.060
125,45625.307000,227.501,12.047,99.328,402.676,-278.883,244.071,-41.780,-67.600,0.940
126,45625.341000,228.484,4.016,93.184,408.356,-278.789,245.077,-40.780,-6.600,26.940
127,45625.366000,232.415,2.008,98.304,401.681,-282.541,244.987,-63.780,142.400,72.940
128,45625.397000,225.536,-2.008,107.520,400.648,-288.966,244.849,-175.780,176.400,99.940
129,45625.433000,229.466,-8.031,107.520,395.985,-284.370,248.918,-26.780,143.400,112.940
130,45625.458000,227.501,-7.027,119.808,392.052,-295.394,249.672,-39.780,75.400,73.940
131,45625.494000,222.587,-8.031,119.808,391.096,-296.283,251.641,-18.780,-34.600,49.940
132,45625.538000,227.501,-9.035,116.736,391.185,-289.091,244.832,4.220,-100.600,4.940
133,45625.574000,227.501,-6.024,108.544,393.923,-296.383,244.681,-5.780,-124.600,-16.060
134,45625.618000,225.536,-6.024,102.400,392.170,-286.311,245.887,-0.780,-131.600,-18.060
135,45625.673000,232.415,-2.008,97.280,397.815,-288.165,240.883,5.220,-90.600,-34.060
136,45625.686000,229.466,-2.008,98.304,394.051,-286.422,238.925,15.220,-76.600,-23.060
137,45625.722000,231.432,-2.008,92.160,396.751,-296.482,237.720,32.220,-37.600,-7.060
138,45625.787000,237.328,0.000,100.352,397.860,-284.559,237.976,-54.780,7.400,9.940
139,45625.822000,234.380,-1.004,96.256,392.028,-295.667,235.741,-61.780,13.400,22.940
140,45625.847000,231.432,0.000,97.280,394.932,-291.029,236.839,-73.780,54.400,39.940
141,45625.871000,226.518,-3.012,95.232,393.998,-290.126,236.857,-88.780,51.400,36.940
142,45625.897000,226.518,-6.024,105.472,391.952,-301.183,234.629,-79.780,30.400,37.940
143,45625.941000,226.518,-7.027,106.496,392.039,-294.771,234.766,-103.780,0.400,35.940
144,45625.983000,231.432,-10.039,110.592,390.991,-302.132,233.613,-89.780,-24.600,39.940
145,45626.23000,231.432,-8.031,104.448,389.126,-299.525,227.698,-66.780,-15.600,38.940
146,45626.54000,229.466,-9.035,103.424,389.142,-298.570,229.708,-62.780,-13.600,32.940
147,45626.93000,228.484,-7.027,100.352,390.065,-300.370,230.665,-51.780,-23.600,15.940
148,45626.113000,228.484,-9.035,102.400,389.979,-306.764,231.524,-59.780,-15.600,15.940
149,45626.174000,230.449,-8.031,101.376,383.314,-309.639,229.463,-53.780,9.400,24.940
150,45626.199000,231.432,-8.031,101.376,385.244,-306.865,229.525,-64.780,60.400,59.940
151,45626.248000,227.501,-11.043,101.376,385.183,-311.426,230.423,-58.780,55.400,76.940
152,45626.272000,224.553,-11.043,106.496,385.223,-308.659,231.476,-69.780,43.400,74.940
153,45626.318000,222.587,-14.055,107.520,384.155,-317.014,226.324,-60.780,16.400,66.940
154,45626.354000,228.484,-17.067,113.664,381.409,-310.580,229.441,-62.780,7.400,64.940
155,45626.379000,232.415,-24.094,113.664,378.476,-317.108,225.319,-40.780,-25.600,55.940
156,45626.417000,229.466,-24.094,112.640,381.354,-314.303,226.377,-3.780,-50.600,51.940
157,45626.454000,231.432,-26.102,109.568,374.686,-317.217,222.327,8.220,-98.600,32.940
158,45626.501000,228.484,-27.106,104.448,381.358,-313.484,221.422,32.220,-135.600,-10.060
159,45626.542000,229.466,-26.102,98.304,385.093,-317.099,221.350,70.220,-149.600,-37.060
160,45626.573000,233.397,-24.094,93.184,387.047,-312.513,220.456,75.220,-140.600,-51.060
161,45626.591000,232.415,-22.086,91.136,385.185,-309.867,216.531,112.220,-114.600,-56.060
162,45626.638000,233.397,-18.071,88.064,387.961,-314.411,216.438,153.220,-41.600,-57.060
163,45626.678000,227.501,-15.059,82.944,389.952,-307.856,222.549,171.220,22.400,-48.060
164,45626.714000,225.536,-7.027,84.992,391.962,-299.527,225.713,165.220,67.400,-39.060
165,45626.753000,226.518,-3.012,88.064,389.122,-300.344,232.654,154.220,96.400,-32.060
166,45626.798000,247.155,7.027,97.280,390.115,-296.706,230.743,120.220,110.400,-35.060
167,45626.816000,244.207,18.071,102.400,387.286,-296.626,236.709,20.220,135.400,-60.060
168,45626.864000,255.017,25.098,106.496,386.281,-301.180,238.600,-152.780,127.400,-86.060
169,45626.898000,254.035,20.078,95.232,388.227,-296.672,233.725,-308.780,57.400,-105.060
170,45626.941000,245.190,-20.078,99.328,387.119,-307.815,226.524,-543.780,39.400,-50.060
171,45626.991000,224.553,-31.122,93.184,385.229,-307.041,220.570,-475.780,78.400,18.940
172,45627.56000,213.743,-45.176,92.160,384.206,-312.570,219.456,-437.780,96.400,66.940
173,45627.103000,208.829,-51.200,91.136,379.411,-317.232,218.355,-199.780,111.400,70.940
174,45627.124000,205.881,-48.188,105.472,378.416,-320.890,219.270,-149.780,158.400,68.940
175,45627.164000,203.916,-47.184,114.688,381.313,-317.090,224.329,104.220,202.400,40.940
176,45627.188000,223.570,-38.149,110.592,375.547,-324.358,231.128,274.220,181.400,70.940
177,45627.258000,207.846,-34.133,119.808,368.956,-322.516,236.131,147.220,149.400,91.940
178,45627.283000,203.916,-37.145,125.952,373.752,-317.853,237.232,180.220,79.400,112.940
179,45627.308000,170.503,4.016,104.448,370.038,-313.985,250.239,726.220,148.400,40.940
180,45627.321000,170.503,30.118,98.304,371.908,-315.772,251.198,267.220,-164.600,139.940
181,45627.344000,205.881,39.153,109.568,374.749,-314.936,245.252,-55.780,-178.600,43.940
182,45627.376000,290.395,42.165,123.904,372.825,-316.871,241.230,-389.780,-96.600,-85.060
183,45627.412000,304.154,-49.192,123.904,379.473,-314.191,233.339,-678.780,49.400,-279.060
184,45627.504000,312.015,-31.122,129.024,386.098,-313.324,226.405,-280.780,172.400,-394.060
185,45627.536000,223.570,-58.227,156.672,387.203,-302.221,231.616,-191.780,339.400,-591.060
186,45627.548000,260.914,-66.259,161.792,392.977,-296.395,244.679,121.220,477.400,-367.060
187,45627.572000,208.829,-27.106,121.856,386.413,-292.701,250.716,326.220,409.400,-162.060
188,45627.604000,173.451,-28.110,103.424,387.406,-290.602,263.692,364.220,315.400,-36.060
189,45627.636000,96.798,-8.031,97.280,385.715,-277.489,279.883,854.220,195.400,26.940
190,45627.672000,188.192,16.063,114.688,377.236,-276.393,294.813,830.220,163.400,229.940
191,45627.716000,205.881,100.392,132.096,375.565,-261.506,308.058,1067.220,-95.600,314.940
192,45627.752000,224.553,100.392,124.928,374.720,-254.170,309.208,405.220,45.400,171.940
193,45627.777000,299.240,79.310,199.680,370.919,-256.715,322.078,454.220,298.400,-35.060
194,45627.814000,245.190,80.314,176.128,366.278,-251.105,331.142,137.220,81.400,-75.060
195,45627.854000,167.555,52.204,124.928,372.027,-245.572,329.279,-18.780,-25.600,-114.060
196,45627.897000,131.194,49.192,78.848,374.785,-250.330,318.241,-238.780,-316.600,-210.060
197,45627.947000,151.831,9.035,77.824,382.346,-250.347,312.284,-544.780,-270.600,-272.060
198,45627.977000,214.726,4.016,104.448,390.880,-247.720,300.417,-630.780,-228.600,-419.060
199,45628.2000,201.950,-11.043,94.208,394.643,-248.703,294.434,-171.780,16.400,-417.060
200,45628.51000,282.534,-1.004,146.432,399.526,-237.628,295.671,-39.780,150.400,-519.060
201,45628.92000,283.516,-23.090,190.464,400.521,-234.730,302.697,-64.780,252.400,-287.060
202,45628.117000,274.672,-10.039,168.960,400.573,-231.046,303.770,210.220,201.400,-130.060
203,45628.153000,203.916,-17.067,133.120,399.735,-223.632,308.900,195.220,57.400,-86.060
204,45628.197000,179.347,-35.137,113.664,401.713,-217.993,314.991,312.220,-7.600,-14.060
205,45628.216000,169.520,-23.090,88.064,399.891,-213.340,320.060,648.220,98.400,15.940
206,45628.264000,132.177,-4.016,75.776,400.191,-192.892,335.415,1165.220,167.400,83.940
207,45628.347000,186.226,67.263,107.520,394.733,-178.075,347.658,1411.220,98.400,116.940
208,45628.382000,230.449,142.557,132.096,390.147,-168.742,359.786,759.220,198.400,24.940
209,45628.417000,268.775,105.412,184.320,389.387,-155.792,367.023,129.220,330.400,-62.060
210,45628.454000,240.276,93.365,177.152,381.827,-155.775,372.980,4.220,338.400,-64.060
211,45628.467000,228.484,79.310,155.648,382.829,-152.020,377.040,-144.780,106.400,-56.060
212,45628.492000,178.365,59.231,120.832,379.966,-153.890,376.996,-237.780,32.400,-177.060
213,45628.529000,154.779,49.192,82.944,383.696,-157.563,373.939,6.220,-146.600,-253.060
214,45628.564000,146.917,66.259,87.040,387.637,-145.681,370.219,-49.780,-140.600,-302.060
215,45628.602000,156.745,89.349,95.232,390.567,-138.412,365.405,181.220,-123.600,-287.060
216,45628.637000,147.900,105.412,117.760,397.265,-132.847,364.539,-3.780,-74.600,-317.060
217,45628.692000,154.779,97.380,130.048,399.163,-131.984,360.581,-122.780,-108.600,-227.060
218,45628.704000,245.190,109.427,167.936,399.233,-126.546,357.713,-247.780,1.400,-175.060
219,45628.737000,365.083,116.455,182.272,394.372,-135.828,354.525,-61.780,16.400,19.940
220,45628.784000,351.324,81.318,208.896,393.512,-130.207,361.605,-3.780,157.400,276.940
221,45628.817000,227.501,109.427,162.816,388.609,-143.057,363.314,380.220,95.400,523.940
222,45628.865000,199.985,95.373,153.600,379.067,-149.497,368.136,142.220,129.400,439.940
223,45628.946000,222.587,92.361,145.408,378.146,-148.437,376.114,127.220,107.400,361.940
224,45628.961000,155.762,80.314,131.072,376.180,-153.940,376.989,47.220,57.400,278.940
225,45628.993000,161.658,65.255,132.096,369.386,-166.794,379.689,-44.780,88.400,264.940
226,45629.37000,167.555,75.294,133.120,366.494,-170.536,377.616,-324.780,90.400,279.940
227,45629.62000,156.745,77.302,128.000,359.530,-195.378,376.082,-629.780,92.400,235.940
228,45629.104000,98.764,61.239,129.024,361.279,-205.509,371.891,-884.780,117.400,60.940
229,45629.138000,80.092,54.212,141.312,363.932,-217.654,357.711,-1229.780,-143.600,-237.060
230,45629.164000,246.173,17.067,139.264,367.457,-234.504,336.471,-1205.780,-343.600,-234.060
231,45629.177000,200.967,-55.216,154.624,375.853,-241.195,316.448,-913.780,-380.600,-143.060
232,45629.221000,319.877,-42.165,183.296,375.547,-262.481,305.053,-677.780,-73.600,80.940
233,45629.265000,260.914,-37.145,175.104,376.399,-268.959,300.938,-352.780,-64.600,280.940
234,45629.298000,209.812,-5.020,150.528,370.585,-278.332,293.768,-172.780,-114.600,329.940
235,45629.347000,176.399,-3.012,132.096,371.510,-279.333,288.775,-14.780,-295.600,340.940
236,45629.378000,142.987,-15.059,89.088,368.515,-290.443,284.555,92.220,-381.600,405.940
237,45629.397000,142.004,-13.051,78.848,366.569,-294.171,282.484,97.220,-298.600,560.940
238,45629.468000,168.537,1.004,82.944,362.757,-296.073,281.443,308.220,-253.600,636.940
239,45629.529000,193.106,-1.004,108.544,353.009,-316.470,275.026,-4.780,-322.600,753.940
240,45629.552000,325.773,2.008,133.120,346.278,-323.965,270.878,-68.780,-228.600,724.940
241,45629.628000,332.653,18.071,198.656,335.670,-338.741,271.543,-86.780,91.400,535.940
242,45629.652000,321.843,10.039,195.584,321.332,-349.844,275.264,-87.780,376.400,449.940
243,45629.666000,226.518,23.090,142.336,313.787,-348.112,275.290,-51.780,182.400,421.940
244,45629.689000,173.451,33.129,91.136,307.004,-359.290,270.069,-483.780,83.400,291.940
245,45629.713000,144.952,1.004,58.368,299.248,-371.573,255.871,-797.780,-68.600,254.940
246,45629.745000,133.159,-2.008,30.720,296.182,-385.821,231.692,-1021.780,-144.600,100.940
247,45629.777000,119.401,-79.310,62.464,293.957,-406.665,197.427,-1666.780,-175.600,136.940
248,45629.837000,143.969,-129.506,77.824,290.006,-417.124,180.290,-1328.780,-29.600,145.940
249,45629.852000,287.447,-145.569,164.864,283.343,-418.440,164.338,-820.780,202.400,400.940
250,45629.882000,258.948,-190.745,167.936,273.693,-431.527,157.083,-169.780,326.400,371.940
251,45629.929000,274.672,-139.545,174.080,263.210,-437.142,157.942,-4.780,291.400,290.940
252,45629.961000,228.484,-155.608,117.760,255.626,-438.938,164.855,265.220,32.400,385.940
253,45629.997000,154.779,-99.388,100.352,249.942,-440.630,175.752,589.220,-71.600,310.940
254,45630.41000,129.228,-108.424,83.968,245.302,-435.001,185.811,331.220,-184.600,260.940
255,45630.101000,128.246,-121.475,71.680,238.645,-437.778,188.726,415.220,-198.600,324.940
256,45630.114000,115.470,-125.490,69.632,236.780,-436.712,197.698,487.220,-234.600,363.940
257,45630.208000,89.919,-129.506,80.896,231.143,-433.999,199.736,419.220,-322.600,373.940
258,45630.233000,219.639,-94.369,119.808,231.197,-431.056,209.745,599.220,-294.600,114.940
259,45630.258000,333.635,-64.251,156.672,233.163,-426.333,215.817,529.220,-288.600,-71.060
260,45630.289000,391.616,-65.255,176.128,242.739,-418.723,223.950,314.220,-171.600,-259.060
261,45630.360000,395.547,-82.322,205.824,254.116,-416.779,222.019,-114.780,72.400,-564.060
262,45630.373000,303.171,-112.439,156.672,260.901,-404.802,221.289,-155.780,70.400,-599.060
263,45630.407000,186.226,-121.475,125.952,276.107,-400.001,222.408,-133.780,173.400,-710.060
264,45630.444000,191.140,-96.376,114.688,284.670,-396.263,220.511,-176.780,206.400,-683.060
265,45630.469000,164.607,-66.259,108.544,293.253,-391.531,222.614,80.220,90.400,-553.060
266,45630.493000,142.987,-65.255,94.208,307.629,-378.440,226.893,307.220,62.400,-541.060
267,45630.553000,170.503,-57.224,89.088,311.550,-369.871,241.006,466.220,108.400,-451.060
268,45630.574000,169.520,-62.243,103.424,320.243,-357.693,249.235,143.220,141.400,-409.060
269,45630.599000,194.088,-57.224,108.544,325.985,-353.018,250.337,343.220,137.400,-313.060
270,45630.624000,181.313,-52.204,108.544,327.986,-346.326,263.413,441.220,144.400,-242.060
271,45630.659000,215.708,-67.263,122.880,328.164,-334.241,272.622,552.220,203.400,-179.060
272,45630.713000,261.896,-49.192,136.192,334.039,-321.846,293.782,817.220,206.400,-220.060
273,45630.738000,218.656,10.039,157.696,331.461,-304.204,308.079,675.220,209.400,-344.060
274,45630.783000,225.536,21.082,140.288,336.222,-303.030,318.057,742.220,124.400,-350.060
275,45630.838000,187.209,49.192,132.096,343.172,-279.883,326.517,516.220,37.400,-352.060
276,45630.903000,196.054,33.129,118.784,346.071,-276.064,332.570,200.220,44.400,-351.060
277,45630.945000,176.399,8.031,118.784,351.886,-265.911,332.795,-41.780,90.400,-242.060
278,45631.13000,162.641,-9.035,146.432,350.964,-264.871,339.778,-5.780,172.400,-230.060
279,45631.68000,189.175,3.012,147.456,352.901,-262.020,343.820,365.220,203.400,-186.060
280,45631.94000,175.417,10.039,145.408,350.270,-247.302,349.103,280.220,168.400,-149.060
281,45631.138000,291.378,5.020,155.648,350.362,-241.610,359.171,357.220,221.400,-141.060
282,45631.171000,205.881,-2.008,153.600,348.722,-224.052,368.494,642.220,148.400,-145.060
283,45631.179000,224.553,25.098,155.648,346.111,-209.100,385.717,919.220,233.400,-173.060
284,45631.196000,211.777,78.306,149.504,347.341,-188.835,391.123,979.220,257.400,-284.060
285,45631.226000,189.175,70.275,140.288,345.642,-175.819,402.339,537.220,153.400,-440.060
286,45631.263000,179.347,60.235,128.000,348.807,-152.723,410.792,325.220,65.400,-518.060
287,45631.287000,139.056,62.243,115.712,352.642,-149.008,410.877,210.220,5.400,-502.060
288,45631.316000,144.952,62.243,111.616,356.682,-130.577,414.259,172.220,25.400,-510.060
289,45631.350000,163.624,76.298,119.808,357.675,-126.939,412.349,142.220,45.400,-516.060
290,45631.374000,136.107,119.467,102.400,363.587,-109.496,410.739,359.220,-84.600,-547.060
291,45631.418000,137.090,120.471,116.736,366.792,-82.852,413.300,380.220,-78.600,-626.060
292,45631.450000,182.296,184.722,143.360,372.731,-63.558,412.725,558.220,-102.600,-609.060
293,45631.475000,194.088,193.757,167.936,371.979,-48.970,410.051,134.220,-120.600,-433.060
294,45631.507000,240.276,203.796,211.968,371.056,-47.170,409.093,68.220,-25.600,-305.060
295,45631.537000,248.138,224.878,224.256,372.956,-46.288,406.130,-303.780,99.400,-256.060
296,45631.582000,250.104,183.718,207.872,371.926,-52.674,407.982,-623.780,44.400,-279.060
297,45631.618000,216.691,128.502,179.200,369.800,-69.287,402.652,-959.780,-39.600,-281.060
298,45631.655000,137.090,61.239,149.504,372.386,-87.611,400.277,-830.780,-31.600,-191.060
299,45631.708000,89.919,42.165,121.856,378.028,-89.486,394.278,-798.780,-273.600,-84.060
300,45631.721000,207.846,-40.157,143.360,386.394,-99.607,386.117,-747.780,-314.600,-2.060
301,45631.764000,180.330,-2.008,126.976,389.950,-115.326,375.842,-362.780,-352.600,56.940
302,45631.813000,167.555,-40.157,125.952,392.697,-121.760,372.725,-124.780,-200.600,150.940
303,45631.838000,164.607,-29.114,121.856,392.778,-115.425,368.881,447.220,-74.600,373.940
304,45631.881000,127.263,26.102,106.496,392.798,-114.411,373.876,567.220,-87.600,553.940
305,45631.924000,122.349,87.341,135.168,391.838,-115.360,372.860,529.220,-188.600,533.940
306,45631.943000,287.447,158.620,167.936,391.750,-121.773,372.723,352.220,-215.600,448.940
307,45631.986000,307.102,138.541,196.608,392.633,-126.360,371.632,67.220,-109.600,447.940
308,45632.31000,279.585,143.561,204.800,388.751,-133.700,373.460,235.220,77.400,442.940
309,45632.63000,293.344,155.608,190.464,386.852,-134.563,377.417,176.220,103.400,470.940
310,45632.172000,226.518,125.490,147.456,383.893,-143.704,380.202,-132.780,40.400,428.940
311,45632.195000,179.347,95.373,130.048,379.010,-154.779,378.965,-43.780,-42.600,421.940
312,45632.261000,162.641,84.329,122.880,378.938,-160.237,380.838,-74.780,-48.600,431.940
313,45632.294000,145.935,53.208,106.496,374.036,-172.307,375.600,-153.780,-137.600,478.940
314,45632.337000,146.917,47.184,114.688,373.863,-185.113,376.322,-233.780,-66.600,519.940
315,45632.387000,168.537,30.118,113.664,369.019,-192.641,369.192,-148.780,-113.600,426.940
316,45632.409000,177.382,39.153,118.784,365.073,-204.582,369.927,-37.780,-68.600,333.940
317,45632.446000,199.985,49.192,123.904,368.850,-204.629,364.958,-123.780,-99.600,242.940
318,45632.469000,197.036,53.208,120.832,365.894,-212.970,361.792,-134.780,-80.600,134.940
319,45632.490000,199.002,64.251,129.024,362.900,-224.060,358.568,-298.780,-22.600,60.940
320,45632.516000,199.002,60.235,129.024,362.843,-227.803,354.510,-448.780,35.400,17.940
321,45632.549000,194.088,43.169,128.000,360.766,-240.771,348.263,-670.780,37.400,64.940
322,45632.574000,219.639,32.125,125.952,354.971,-248.370,338.146,-864.780,-16.600,59.940
323,45632.616000,218.656,-28.110,144.384,360.424,-263.246,322.918,-807.780,-117.600,63.940
324,45632.643000,236.345,-23.090,148.480,355.506,-276.271,315.671,-509.780,-85.600,51.940
325,45632.654000,256.000,-48.188,163.840,358.206,-285.551,307.521,-464.780,24.400,119.940
326,45632.679000,240.276,-38.149,155.648,350.559,-291.167,306.395,-172.780,54.400,124.940
327,45632.717000,202.933,-18.071,152.576,346.790,-290.262,308.398,-76.780,71.400,39.940
328,45632.760000,199.985,-14.055,147.456,345.783,-294.835,309.294,92.220,30.400,15.940
329,45632.850000,178.365,5.020,126.976,350.514,-294.773,309.302,136.220,-4.600,34.940
330,45632.877000,150.848,5.020,106.496,348.670,-291.153,308.382,-10.780,-55.600,114.940
331,45632.924000,182.296,6.024,112.640,343.958,-289.442,305.427,8.220,-118.600,182.940
332,45632.934000,201.950,11.043,124.928,345.765,-295.810,306.289,-174.780,-81.600,222.940
333,45632.979000,270.741,21.082,129.024,338.028,-307.099,296.091,-299.780,-72.600,321.940
334,45633.4000,290.395,19.075,126.976,336.000,-316.402,289.922,-455.780,-2.600,300.940
335,45633.40000,229.466,5.020,136.192,327.264,-332.167,285.595,-808.780,124.400,278.940
336,45633.68000,231.432,-8.031,132.096,320.473,-343.443,275.399,-740.780,252.400,290.940
337,45633.100000,203.916,-33.129,129.024,310.815,-356.629,263.168,-772.780,202.400,407.940
338,45633.127000,181.313,-69.271,121.856,298.198,-378.954,253.723,-561.780,198.400,533.940
339,45633.188000,161.658,-56.220,124.928,281.999,-387.412,253.519,-341.780,183.400,602.940
340,45633.226000,149.866,-64.251,122.880,272.485,-390.441,245.483,-301.780,167.400,668.940
341,45633.259000,130.211,-79.310,116.736,253.443,-398.975,243.284,-73.780,132.400,668.940
342,45633.344000,130.211,-83.325,131.072,240.033,-411.041,244.002,-7.780,113.400,706.940
343,45633.367000,83.040,-110.431,115.712,222.917,-417.620,246.821,-22.780,-113.600,646.940
344,45633.379000,119.401,-103.404,154.624,212.382,-426.159,238.666,-78.780,-165.600,504.940
345,45633.458000,344.445,-108.424,173.056,216.114,-429.812,236.605,-153.780,-156.600,238.940
346,45633.499000,311.033,-91.357,185.344,214.327,-421.670,232.797,-116.780,-129.600,-115.060
347,45633.525000,416.184,-70.275,207.872,219.906,-428.145,225.705,-501.780,160.400,-417.060
348,45633.549000,294.326,-131.514,202.752,227.512,-423.776,209.895,-813.780,204.400,-349.060
349,45633.591000,202.933,-182.714,167.936,231.190,-430.374,197.824,-674.780,160.400,-310.060
350,45633.615000,183.278,-161.631,153.600,233.987,-432.364,187.840,-343.780,111.400,-287.060
351,45633.647000,230.449,-127.498,150.528,239.586,-438.604,192.688,-128.780,218.400,-318.060
352,45633.678000,137.090,-127.498,132.096,247.280,-429.362,191.902,-50.780,163.400,-413.060
353,45633.704000,138.073,-116.455,113.664,255.811,-429.074,200.872,291.220,137.400,-509.060
354,45633.728000,139.056,-81.318,111.616,267.345,-416.839,210.102,284.220,-50.600,-305.060
355,45633.784000,141.021,-129.506,100.352,274.011,-413.944,213.157,245.220,-123.600,-230.060
356,45633.815000,151.831,-116.455,115.712,282.565,-411.863,220.176,504.220,-69.600,-201.060
357,45633.847000,162.641,-127.498,109.568,282.776,-397.847,234.400,727.220,-56.600,-128.060
358,45633.882000,148.883,-100.392,119.808,287.559,-395.640,250.368,992.220,-97.600,-141.060
359,45633.934000,199.985,-67.263,133.120,296.617,-359.174,282.986,1676.220,17.400,-346.060
360,45633.988000,269.758,-4.016,133.120,309.269,-335.659,306.382,1635.220,-105.600,-371.060
361,45634.34000,217.674,10.039,168.960,312.396,-316.090,321.722,1234.220,28.400,-361.060
362,45634.78000,211.777,65.255,180.224,318.400,-294.495,345.068,1115.220,138.400,-396.060
363,45634.90000,226.518,72.282,174.080,324.440,-269.392,360.530,787.220,80.400,-440.060
364,45634.147000,192.123,48.188,155.648,329.322,-259.096,368.714,597.220,-31.600,-415.060
365,45634.178000,177.382,57.224,148.480,340.931,-240.584,371.114,356.220,-145.600,-394.060
366,45634.202000,166.572,51.200,121.856,346.700,-234.057,373.251,157.220,-190.600,-347.060
367,45634.230000,161.658,49.192,105.472,356.172,-233.055,371.297,87.220,-229.600,-304.060
368,45634.262000,173.451,47.184,96.256,361.989,-222.123,364.576,-32.780,-196.600,-292.060
369,45634.290000,188.192,25.098,101.376,365.744,-223.964,361.558,-115.780,-167.600,-282.060
370,45634.302000,209.812,12.047,121.856,369.658,-213.934,356.804,-35.780,-35.600,-258.060
371,45634.340000,230.449,3.012,135.168,371.656,-206.521,359.949,187.220,108.400,-243.060
372,45634.389000,261.896,33.129,156.672,372.787,-193.566,366.194,561.220,149.400,-225.060
373,45634.420000,234.380,61.239,166.912,370.079,-185.144,377.310,714.220,102.400,-213.060
374,45634.470000,214.726,78.306,158.720,372.298,-162.059,385.762,713.220,6.400,-186.060
375,45634.505000,192.123,85.333,145.408,377.106,-156.480,386.883,601.220,-70.600,-160.060
376,45634.527000,178.365,80.314,132.096,381.085,-142.610,391.162,511.220,-105.600,-162.060
377,45634.572000,174.434,87.341,125.952,382.224,-128.797,394.442,407.220,-117.600,-188.060
378,45634.625000,180.330,81.318,120.832,389.879,-122.323,392.602,311.220,-140.600,-202.060
379,45634.658000,176.399,87.341,110.592,388.169,-108.665,389.906,232.220,-166.600,-218.060
380,45634.734000,170.503,91.357,105.472,395.812,-103.088,389.041,152.220,-142.600,-265.060
381,45634.765000,170.503,97.380,93.184,397.832,-93.882,390.235,3.220,-105.600,-353.060
382,45634.777000,115.470,90.353,77.824,401.659,-90.265,385.344,-50.780,-151.600,-407.060
383,45634.810000,104.660,93.365,76.800,403.640,-83.047,378.538,-122.780,-126.600,-407.060
384,45634.835000,124.315,86.337,78.848,405.521,-83.159,371.576,-308.780,-73.600,-421.060
385,45634.859000,144.952,90.353,123.904,410.356,-74.949,366.785,-377.780,-155.600,-486.060
386,45634.905000,239.294,78.306,140.288,411.308,-74.098,362.826,-399.780,-71.600,-560.060
387,45634.954000,350.342,78.306,179.200,412.332,-67.790,356.994,-345.780,-27.600,-471.060
388,45634.986000,393.582,78.306,224.256,406.736,-62.290,361.081,-194.780,226.400,-231.060
389,45635.9000,319.877,124.486,214.016,404.816,-64.946,366.990,115.220,347.400,55.940
390,45635.52000,261.896,148.580,192.512,398.189,-65.833,372.929,230.220,289.400,137.940
391,45635.83000,182.296,150.588,160.768,399.208,-61.123,378.998,177.220,147.400,101.940
392,45635.119000,186.226,167.655,149.504,395.485,-57.372,386.035,218.220,160.400,93.940
393,45635.162000,143.969,141.553,128.000,387.816,-64.781,386.861,247.220,142.400,193.940
394,45635.205000,137.090,141.553,120.832,387.910,-58.290,390.978,191.220,114.400,176.940
395,45635.223000,138.073,144.565,131.072,386.836,-68.263,396.732,49.220,39.400,105.940
396,45635.267000,147.900,156.612,129.024,386.809,-70.115,395.698,-279.780,-9.600,82.940
397,45635.303000,172.468,133.522,149.504,385.778,-75.741,389.608,-509.780,-86.600,-135.060
398,45635.339000,194.088,131.514,142.336,390.328,-88.583,385.363,-865.780,-54.600,-319.060
399,45635.385000,181.313,71.278,131.072,391.150,-96.952,378.224,-1224.780,8.400,-441.060
400,45635.434000,138.073,0.000,100.352,397.597,-108.950,369.026,-1139.780,-215.600,-374.060
401,45635.448000,184.261,-24.094,137.216,401.103,-128.334,358.673,-1041.780,-186.600,-285.060
402,45635.481000,226.518,-50.196,137.216,401.946,-135.689,356.528,-696.780,-65.600,40.940
403,45635.549000,188.192,-47.184,137.216,400.793,-150.438,352.234,-270.780,-30.600,260.940
404,45635.614000,167.555,-33.129,121.856,398.853,-154.088,354.143,167.220,37.400,316.940
405,45635.649000,140.038,30.118,107.520,393.206,-152.273,357.157,629.220,15.400,493.940
406,45635.683000,187.209,73.286,142.336,395.108,-152.131,363.131,640.220,-63.600,609.940
407,45635.708000,223.570,144.565,184.320,389.454,-150.393,362.164,467.220,-111.600,603.940
408,45635.719000,305.136,149.584,194.560,391.210,-160.426,362.948,121.220,-79.600,610.940
409,45635.754000,273.689,142.557,219.136,386.402,-166.005,361.828,104.220,60.400,451.940
410,45635.873000,281.551,122.478,203.776,376.901,-169.658,368.698,-61.780,193.400,374.940
411,45635.898000,205.881,101.396,161.792,375.831,-178.812,369.497,-102.780,86.400,370.940
412,45635.930000,156.745,75.294,132.096,373.826,-187.082,369.318,-198.780,-79.600,315.940
413,45635.987000,135.125,54.212,110.592,368.897,-201.004,363.046,-222.780,-208.600,285.940
414,45636.40000,134.142,56.220,104.448,373.559,-205.600,358.977,-152.780,-171.600,261.940
415,45636.84000,140.038,82.322,103.424,370.539,-218.541,354.718,-240.780,-98.600,230.940
416,45636.124000,165.589,84.329,117.760,371.366,-226.852,350.564,-505.780,34.400,216.940
417,45636.124000,151.831,94.369,116.736,365.562,-235.328,342.418,-642.780,17.400,144.940
418,45636.167000,182.296,66.259,99.328,368.053,-259.384,327.985,-1376.780,-152.600,170.940
419,45636.192000,215.708,-19.075,169.984,359.178,-282.926,300.615,-1723.780,-107.600,192.940
420,45636.204000,273.689,-51.200,183.296,354.118,-304.548,275.282,-1293.780,-28.600,371.940
421,45636.248000,225.536,-108.424,199.680,344.305,-329.545,267.773,-625.780,-10.600,561.940
422,45636.284000,256.983,-91.357,196.608,337.560,-337.975,262.610,-228.780,-50.600,565.940
423,45636.309000,208.829,-60.235,160.768,331.836,-341.676,264.512,203.220,-225.600,395.940
424,45636.333000,166.572,-43.169,111.616,328.890,-349.121,260.371,226.220,-357.600,250.940
425,45636.358000,152.814,-30.118,94.208,327.903,-351.920,258.321,167.220,-419.600,244.940
426,45636.403000,142.004,-28.110,93.184,327.798,-359.308,255.179,145.220,-364.600,320.940
427,45636.415000,138.073,-35.137,83.968,326.903,-354.877,248.310,-61.780,-332.600,363.940
428,45636.447000,136.107,-45.176,83.968,321.066,-366.043,243.090,-20.780,-288.600,420.940
429,45636.483000,202.933,-45.176,107.520,320.048,-370.753,237.021,-108.780,-263.600,362.940
430,45636.527000,248.138,-22.086,130.048,310.599,-369.163,231.073,20.220,-172.600,305.940
431,45636.563000,332.653,-38.149,152.576,307.688,-373.898,225.000,-282.780,-50.600,229.940
432,45636.614000,355.255,-45.176,191.488,307.619,-378.557,220.922,-492.780,138.400,93.940
433,45636.628000,344.445,-76.298,188.416,300.838,-389.716,216.696,-544.780,298.400,34.940
434,45636.695000,260.914,-101.396,146.432,297.066,-388.070,209.763,-316.780,194.400,40.940
435,45636.755000,181.313,-94.369,125.952,294.066,-399.998,210.499,-273.780,138.400,72.940
436,45636.825000,192.123,-100.392,119.808,289.271,-404.661,209.398,-278.780,128.400,42.940
437,45636.878000,164.607,-82.322,113.664,294.096,-397.347,205.583,-138.780,149.400,-56.060
438,45636.964000,163.624,-80.314,119.808,292.103,-404.701,205.423,-190.780,143.400,-134.060
439,45636.989000,167.555,-85.333,130.048,294.090,-398.185,209.543,-88.780,137.400,-141.060
440,45637.25000,180.330,-79.310,132.096,296.854,-403.645,209.431,40.220,79.400,-117.060
441,45637.65000,188.192,-88.345,137.216,296.023,-395.373,211.595,-4.780,41.400,-76.060
442,45637.83000,198.019,-108.424,138.240,300.689,-399.930,209.516,127.220,-30.600,-60.060
443,45637.117000,200.967,-105.412,135.168,298.917,-391.612,214.664,342.220,-61.600,-74.060
444,45637.158000,198.019,-91.357,121.856,301.726,-395.005,226.531,531.220,-66.600,-91.060
445,45637.210000,191.140,-80.314,116.736,307.674,-376.373,238.872,748.220,33.400,-79.060
446,45637.319000,174.434,-65.255,106.496,308.617,-377.939,251.771,696.220,149.400,-76.060
447,45637.338000,185.244,-45.176,123.904,308.904,-359.187,274.052,906.220,161.400,-166.060
448,45637.394000,179.347,-23.090,117.760,310.095,-342.450,286.346,1075.220,63.400,-200.060
449,45637.497000,228.484,42.165,155.648,315.923,-332.921,301.477,863.220,-38.600,-156.060
450,45637.497000,269.758,39.153,189.440,316.150,-317.171,310.764,457.220,48.400,-171.060
451,45637.497000,279.585,51.200,189.440,318.140,-310.616,316.874,254.220,52.400,-170.060
452,45637.514000,245.190,46.180,182.272,320.945,-313.288,318.811,182.220,-28.600,-80.060
453,45637.540000,212.760,19.075,153.600,320.942,-313.327,316.821,7.220,-134.600,15.940
454,45637.577000,172.468,17.067,103.424,326.665,-309.646,313.924,-148.780,-264.600,23.940
455,45637.610000,178.365,4.016,81.920,331.285,-317.049,306.810,-166.780,-295.600,-86.060
456,45637.664000,179.347,10.039,81.920,340.813,-311.544,300.974,-142.780,-224.600,-213.060
457,45637.664000,175.417,4.016,88.064,343.613,-313.495,292.979,-185.780,-115.600,-322.060
458,45637.675000,222.587,-15.059,112.640,354.044,-311.565,291.047,-302.780,108.400,-456.060
459,45637.700000,207.846,-45.176,129.024,353.273,-298.751,291.318,-231.780,155.400,-487.060
460,45637.738000,183.278,-65.255,149.504,355.181,-297.771,293.331,-115.780,173.400,-482.060
461,45637.772000,247.155,-50.196,160.768,361.091,-281.128,297.673,211.220,176.400,-546.060
462,45637.772000,276.637,-50.196,189.440,365.071,-268.018,309.893,346.220,248.400,-456.060
463,45637.817000,237.328,-23.090,203.776,366.169,-256.992,311.124,544.220,205.400,-487.060
464,45637.853000,227.501,-3.012,196.608,369.244,-241.107,325.392,572.220,162.400,-465.060
465,45637.892000,201.950,0.000,167.936,375.215,-220.662,336.777,739.220,128.400,-371.060
466,45637.937000,174.434,-17.067,134.144,377.285,-208.552,345.989,611.220,32.400,-220.060
467,45637.970000,155.762,-23.090,92.160,382.219,-194.572,355.246,719.220,53.400,-133.060
468,45637.982000,129.228,-14.055,75.776,380.599,-175.241,361.623,1163.220,53.400,-57.060
469,45638.32000,163.624,84.329,104.448,382.801,-153.891,375.010,1417.220,-54.600,-137.060
470,45638.95000,142.987,156.612,115.712,388.027,-118.021,379.760,1374.220,-211.600,-298.060
471,45638.120000,218.656,149.584,151.552,394.845,-104.114,384.045,209.220,41.400,-536.060
472,45638.145000,232.415,166.651,179.200,392.222,-88.538,386.362,24.220,127.400,-454.060
473,45638.173000,202.933,125.490,165.888,390.330,-88.563,386.358,-195.780,166.400,-345.060
474,45638.185000,183.278,124.486,134.144,391.315,-85.783,387.414,-211.780,76.400,-240.060
475,45638.210000,154.779,89.349,102.400,395.044,-89.475,383.362,-327.780,-104.600,-250.060
476,45638.242000,135.125,83.325,92.160,397.899,-87.703,378.431,-156.780,-231.600,-262.060
477,45638.289000,108.591,93.365,87.040,408.384,-81.289,371.620,27.220,-296.600,-346.060
478,45638.353000,132.177,98.384,96.256,411.304,-74.917,367.782,41.220,-287.600,-361.060
479,45638.397000,187.209,126.494,131.072,416.228,-60.294,363.127,-57.780,-229.600,-416.060
480,45638.428000,247.155,136.533,149.504,420.922,-62.200,356.131,-116.780,-175.600,-246.060
481,45638.462000,319.877,120.471,183.296,420.996,-56.723,355.253,-96.780,-50.600,-149.060
482,45638.487000,330.687,151.592,182.272,421.067,-51.265,353.380,74.220,77.400,15.940
483,45638.518000,286.464,141.553,182.272,415.414,-50.287,360.355,154.220,131.400,71.940
484,45638.567000,242.242,162.635,159.744,419.163,-52.966,361.298,260.220,127.400,151.940
485,45638.609000,206.864,153.600,145.408,417.316,-50.145,366.329,236.220,76.400,230.940
486,45638.659000,183.278,143.561,121.856,411.556,-56.575,369.167,274.220,53.400,322.940
487,45638.673000,151.831,121.475,114.688,412.471,-59.232,373.090,166.220,20.400,408.940
488,45638.709000,153.797,107.420,108.544,413.246,-72.007,374.809,70.220,57.400,421.940
489,45638.752000,139.056,108.424,103.424,410.343,-76.644,373.711,31.220,20.400,438.940
490,45638.809000,143.969,80.314,99.328,408.398,-81.133,379.581,-94.780,-73.600,381.940
491,45638.875000,155.762,107.420,107.520,408.163,-97.741,373.259,-50.780,-139.600,341.940
492,45638.940000,183.278,111.435,110.592,407.156,-101.535,367.209,-202.780,-192.600,309.940
493,45638.963000,188.192,101.396,112.640,412.631,-116.157,364.917,-333.780,-186.600,279.940
494,45639.5000,195.071,109.427,117.760,409.684,-123.621,359.780,-488.780,-38.600,253.940
495,45639.23000,202.933,113.443,114.688,405.603,-144.840,354.349,-816.780,9.400,345.940
496,45639.38000,179.347,80.314,92.160,401.529,-165.201,345.953,-980.780,-2.600,309.940
497,45639.55000,222.587,50.196,95.232,398.222,-198.434,334.300,-1134.780,3.400,325.940
498,45639.80000,195.071,35.137,109.568,395.065,-219.894,315.935,-1387.780,-166.600,447.940
499,45639.105000,199.985,-25.098,136.192,391.969,-237.572,303.618,-1175.780,-176.600,338.940
500,45639.132000,265.827,-36.141,141.312,383.052,-265.461,288.092,-744.780,-60.600,370.940
501,45639.160000,262.879,-49.192,138.240,378.079,-282.209,277.782,-750.780,-66.600,421.940
502,45639.173000,263.862,-62.243,154.624,370.298,-297.084,271.486,-541.780,77.400,344.940
503,45639.204000,240.276,-48.188,156.672,364.573,-300.025,265.447,-391.780,130.400,217.940
504,45639.245000,199.002,-28.110,140.288,362.559,-309.172,267.239,-172.780,6.400,99.940
505,45639.287000,166.572,-21.082,128.000,364.468,-307.412,262.306,-73.780,-41.600,21.940
506,45639.330000,167.555,-21.082,111.616,365.358,-311.143,258.249,-106.780,-130.600,31.940
507,45639.388000,174.434,-30.118,103.424,368.152,-313.931,254.216,-85.780,-134.600,151.940
508,45639.434000,196.054,-30.118,109.568,357.602,-324.186,251.992,-23.780,-72.600,336.940
509,45639.448000,196.054,-32.125,120.832,354.690,-329.700,252.865,53.220,17.400,482.940
510,45639.515000,192.123,-37.145,121.856,347.098,-331.594,254.803,209.220,58.400,629.940
511,45639.545000,181.313,-26.102,128.000,333.663,-346.271,262.428,283.220,-11.600,768.940
512,45639.579000,158.710,-6.024,128.000,322.344,-344.452,269.412,499.220,-146.600,710.940
513,45639.604000,267.793,9.035,159.744,308.942,-355.659,267.165,140.220,24.400,705.940
514,45639.630000,304.154,1.004,175.104,298.448,-362.171,269.000,122.220,101.400,461.940
515,45639.648000,300.223,15.059,185.344,291.786,-365.786,275.876,-41.780,159.400,343.940
516,45639.684000,248.138,-3.012,150.528,289.835,-369.573,270.819,-265.780,18.400,246.940
517,45639.748000,167.555,0.000,95.232,278.291,-382.705,262.565,-306.780,-20.600,222.940
518,45639.788000,151.831,-20.078,55.296,273.408,-393.001,254.382,-531.780,-120.600,241.940
519,45639.842000,142.987,-20.078,38.912,271.292,-407.958,240.135,-730.780,-96.600,187.940
520,45639.877000,140.038,-36.141,43.008,265.542,-411.191,219.171,-1149.780,-54.600,133.940
521,45639.890000,192.123,-95.373,81.920,264.349,-426.408,190.995,-1483.780,-34.600,-10.060
522,45639.954000,198.019,-153.600,131.072,259.479,-434.249,167.945,-1048.780,327.400,-9.060
523,45639.979000,274.672,-186.729,181.248,254.761,-432.615,161.010,-648.780,605.400,48.940
524,45640.8000,214.726,-162.635,208.896,246.163,-439.063,164.839,-19.780,743.400,129.940
525,45640.43000,238.311,-137.537,198.656,239.628,-433.497,172.904,69.220,516.400,83.940
526,45640.79000,171.486,-127.498,154.624,232.965,-437.113,179.780,212.220,418.400,84.940
527,45640.119000,144.952,-117.459,115.712,231.112,-435.130,188.771,146.220,111.400,58.940
528,45640.133000,105.643,-98.384,103.424,229.225,-435.096,191.753,230.220,-48.600,48.940
529,45640.238000,123.332,-87.341,104.448,232.130,-430.439,193.846,222.220,-122.600,37.940
530,45640.273000,124.315,-93.365,106.496,230.265,-428.593,195.872,174.220,-131.600,63.940
531,45640.315000,122.349,-83.325,114.688,229.288,-431.276,199.792,270.220,-134.600,41.940
532,45640.350000,142.987,-81.318,124.928,231.322,-421.134,202.000,159.220,-169.600,51.940
533,45640.374000,239.294,-104.408,163.840,230.397,-419.353,200.047,160.220,-223.600,117.940
534,45640.405000,265.827,-89.349,161.792,228.534,-417.488,203.068,256.220,-265.600,151.940
535,45640.435000,361.152,-66.259,202.752,232.212,-425.624,205.884,87.220,-3.600,12.940
536,45640.482000,259.931,-64.251,174.080,233.283,-416.451,206.081,48.220,30.400,-101.060
537,45640.533000,199.985,-50.196,134.144,237.045,-418.213,207.044,11.220,-29.600,-254.060
538,45640.579000,203.916,-50.196,131.072,244.677,-413.552,206.159,-156.780,40.400,-157.060
539,45640.638000,143.969,-77.302,112.640,239.803,-422.971,196.005,-415.780,-4.600,-70.060
540,45640.675000,153.797,-92.361,124.928,243.575,-423.077,188.052,-498.780,-37.600,27.940
541,45640.713000,217.674,-137.537,145.408,243.598,-420.504,179.155,-404.780,-115.600,8.940
542,45640.743000,227.501,-172.675,165.888,242.483,-431.725,167.973,-346.780,-130.600,-1.060
543,45640.762000,270.741,-185.725,157.696,247.172,-434.470,164.938,-120.780,-73.600,-160.060
544,45640.774000,291.378,-172.675,155.648,257.733,-423.319,166.185,32.220,-19.600,-257.060
545,45640.813000,270.741,-145.569,138.240,257.737,-423.280,168.175,81.220,-14.600,-358.060
546,45640.845000,233.397,-132.518,124.928,266.303,-419.503,168.268,139.220,31.400,-361.060
547,45640.872000,170.503,-104.408,106.496,272.996,-415.536,179.304,394.220,120.400,-378.060
548,45640.895000,124.315,-79.310,104.448,284.420,-411.507,190.347,418.220,118.400,-364.060
549,45640.927000,101.712,-86.337,82.944,291.237,-398.379,201.578,291.220,119.400,-441.060
550,45640.939000,106.626,-65.255,91.136,295.089,-394.469,211.613,459.220,170.400,-383.060
551,45640.987000,107.608,-60.235,89.088,305.580,-389.536,222.675,707.220,64.400,-230.060
552,45641.20000,132.177,-62.243,115.712,306.813,-369.992,238.012,820.220,69.400,-155.060
553,45641.57000,240.276,-31.122,147.456,311.732,-358.507,260.146,1066.220,108.400,-138.060
554,45641.115000,199.985,9.035,144.384,313.922,-338.833,281.455,1159.220,-80.600,-132.060
555,45641.153000,296.292,29.114,206.848,321.680,-326.531,296.648,813.220,85.400,-223.060
556,45641.165000,257.965,28.110,205.824,325.699,-310.653,309.922,800.220,69.400,-385.060
557,45641.204000,265.827,53.208,188.416,330.629,-297.491,324.135,874.220,8.400,-365.060
558,45641.240000,200.967,34.133,159.744,335.569,-282.673,329.430,445.220,-41.600,-294.060
559,45641.287000,172.468,26.102,131.072,343.218,-277.037,331.551,255.220,-161.600,-273.060
560,45641.322000,151.831,30.118,117.760,353.811,-263.197,329.872,310.220,-177.600,-343.060
561,45641.363000,168.537,56.220,106.496,361.439,-259.354,333.943,250.220,-198.600,-443.060
562,45641.418000,172.468,57.224,104.448,371.036,-249.191,332.185,121.220,-192.600,-469.060
563,45641.429000,186.226,44.173,110.592,378.828,-232.639,330.559,-2.780,-182.600,-570.060
564,45641.474000,226.518,69.271,114.688,389.313,-226.225,323.749,-119.780,-104.600,-546.060
565,45641.502000,212.760,49.192,114.688,395.108,-217.087,318.979,-247.780,-98.600,-580.060
566,45641.540000,165.589,22.086,111.616,400.896,-208.786,318.169,-252.780,-126.600,-581.060
567,45641.583000,251.086,16.063,137.216,410.384,-206.069,310.284,-268.780,-44.600,-517.060
568,45641.632000,278.603,30.118,162.816,410.490,-197.901,306.479,14.220,100.400,-551.060
569,45641.668000,269.758,-2.008,169.984,411.501,-194.049,315.515,79.220,261.400,-291.060
570,45641.714000,243.225,-2.008,153.600,407.873,-183.787,327.663,463.220,344.400,-248.060
571,45641.740000,213.743,7.027,133.120,407.145,-168.927,338.920,577.220,338.400,-174.060
572,45641.765000,173.451,0.000,92.160,403.617,-151.336,351.224,847.220,310.400,-71.060
573,45641.807000,112.522,36.141,79.872,398.166,-136.441,367.448,1219.220,223.400,-8.060
574,45641.838000,89.919,109.427,111.616,395.755,-106.070,377.042,1452.220,95.400,67.940
575,45641.870000,99.747,148.580,129.024,397.961,-83.902,385.474,999.220,66.400,-91.060
576,45641.900000,224.553,154.604,162.816,395.242,-74.837,382.679,343.220,123.400,-167.060
577,45641.943000,219.639,161.631,178.176,392.436,-72.944,387.689,-144.780,213.400,-281.060
578,45641.980000,210.795,118.463,183.296,392.495,-69.182,392.742,-152.780,298.400,-211.060
579,45642.23000,175.417,131.514,152.576,381.135,-70.151,397.678,-118.780,194.400,-218.060
580,45642.60000,168.537,103.404,132.096,384.904,-71.056,395.675,-189.780,74.400,-227.060
581,45642.102000,143.969,107.420,111.616,388.807,-62.702,398.842,-23.780,-106.600,-243.060
582,45642.122000,95.816,105.412,91.136,391.609,-64.634,391.843,-73.780,-231.600,-263.060
583,45642.160000,98.764,99.388,95.232,397.388,-56.450,385.063,-50.780,-278.600,-391.060
584,45642.208000,131.194,102.400,115.712,405.108,-44.596,377.370,-59.780,-332.600,-526.060
585,45642.253000,142.987,129.506,124.928,406.125,-38.366,367.557,-226.780,-294.600,-554.060
586,45642.284000,259.931,131.514,169.984,410.033,-29.174,366.764,-247.780,-252.600,-411.060
587,45642.322000,341.497,149.584,204.800,414.786,-26.558,356.880,-194.780,-71.600,-327.060
588,45642.339000,348.376,116.455,211.968,413.793,-30.196,358.791,90.220,80.400,125.940
589,45642.395000,322.825,140.549,198.656,412.034,-20.963,363.958,434.220,192.400,248.940
590,45642.420000,210.795,153.600,148.480,409.139,-25.503,367.836,387.220,106.400,417.940
591,45642.463000,145.935,144.565,124.928,409.060,-31.818,372.674,536.220,158.400,390.940
592,45642.540000,152.814,169.663,135.168,406.379,-20.764,377.879,667.220,194.400,352.940
593,45642.565000,167.555,182.714,139.264,400.669,-24.289,388.736,394.220,179.400,471.940
594,45642.584000,160.676,184.722,141.312,395.863,-29.849,388.611,135.220,144.400,541.940
595,45642.608000,179.347,148.580,139.264,396.657,-41.629,394.329,36.220,136.400,614.940
596,45642.648000,166.572,120.471,133.120,389.885,-53.450,403.019,-150.780,121.400,598.940
597,45642.679000,145.935,102.400,110.592,385.916,-66.424,397.764,-240.780,46.400,531.940
598,45642.723000,138.073,72.282,103.424,386.677,-80.134,398.468,-130.780,-114.600,553.940
599,45642.756000,138.073,71.278,106.496,383.592,-97.675,393.117,-119.780,-159.600,446.940
600,45642.796000,153.797,95.373,104.448,385.353,-106.890,388.945,-234.780,-172.600,467.940
601,45642.816000,175.417,82.322,113.664,386.028,-126.214,383.561,-411.780,-130.600,358.940
602,45642.864000,175.417,98.384,122.880,384.963,-134.549,379.404,-491.780,-52.600,266.940
603,45642.893000,181.313,97.380,123.904,382.839,-151.143,375.069,-703.780,22.400,186.940
604,45642.934000,197.036,94.369,121.856,381.533,-176.145,361.605,-1038.780,-27.600,172.940
605,45642.974000,209.812,51.200,118.784,376.460,-200.222,351.138,-1289.780,-188.600,334.940
606,45643.16000,194.088,9.035,125.952,376.954,-230.910,326.615,-1525.780,-320.600,378.940
607,45643.36000,221.605,-40.157,150.528,376.740,-244.964,310.401,-1242.780,-290.600,378.940
608,45643.76000,305.136,-50.196,173.056,371.645,-270.055,294.940,-743.780,-119.600,369.940
609,45643.116000,244.207,-35.137,163.840,369.655,-276.610,288.830,-363.780,-157.600,377.940
610,45643.167000,207.846,-20.078,155.648,365.607,-295.139,280.472,-292.780,-126.600,281.940
611,45643.196000,166.572,-12.047,122.880,366.539,-296.062,279.459,-52.780,-212.600,262.940
612,45643.244000,150.848,-13.051,105.472,366.418,-304.405,274.308,-132.780,-389.600,337.940
613,45643.257000,157.727,-35.137,89.088,363.356,-319.374,260.060,-85.780,-443.600,500.940
614,45643.298000,159.693,-33.129,81.920,355.752,-321.404,255.033,85.220,-422.600,655.940
615,45643.332000,222.587,-38.149,92.160,348.830,-342.679,248.602,23.220,-285.600,784.940
616,45643.378000,263.862,-37.145,100.352,336.394,-352.880,250.356,177.220,-196.600,857.940
617,45643.417000,232.415,-9.035,132.096,326.972,-350.218,252.388,174.220,-53.600,791.940
618,45643.457000,237.328,-16.063,126.976,316.389,-363.162,253.091,99.220,-21.600,703.940
619,45643.497000,288.430,-16.063,133.120,301.111,-373.439,252.850,51.220,10.400,613.940
620,45643.517000,253.052,-1.004,118.784,288.732,-379.118,251.716,-100.780,58.400,475.940
621,45643.557000,214.726,-27.106,123.904,278.082,-396.701,249.337,-285.780,200.400,437.940
622,45643.598000,181.313,-38.149,82.944,267.630,-399.646,246.275,-280.780,302.400,257.940
623,45643.682000,182.296,-23.090,39.936,264.800,-398.806,244.299,-469.780,304.400,119.940
624,45643.700000,186.226,-31.122,32.768,258.897,-413.832,229.051,-930.780,273.400,119.940
625,45643.719000,223.570,-62.243,56.320,252.147,-420.781,206.017,-1327.780,212.400,-120.060
626,45643.736000,198.019,-119.467,99.328,253.891,-428.651,177.007,-1381.780,275.400,-213.060
627,45643.784000,230.449,-173.678,129.024,251.930,-432.555,165.980,-969.780,451.400,-88.060
628,45643.817000,252.069,-172.675,185.344,246.110,-442.766,162.770,-291.780,706.400,68.940
629,45643.886000,214.726,-149.584,174.080,235.750,-440.019,169.776,30.220,661.400,159.940
630,45643.899000,194.088,-127.498,175.104,223.384,-445.542,176.603,-51.780,564.400,103.940
631,45643.951000,170.503,-131.514,142.336,216.833,-440.931,182.659,19.220,328.400,52.940
632,45643.958000,151.831,-113.443,113.664,218.565,-452.017,176.458,-113.780,76.400,-8.060
633,45643.995000,161.658,-114.447,112.640,219.548,-449.276,175.523,-187.780,15.400,35.940
634,45644.83000,164.607,-112.439,113.664,215.734,-451.197,173.487,-158.780,18.400,84.940
635,45644.97000,175.417,-128.502,120.832,211.915,-453.177,168.466,-161.780,82.400,178.940
636,45644.118000,171.486,-126.494,134.144,204.314,-455.947,172.374,-99.780,149.400,219.940
637,45644.171000,171.486,-134.525,134.144,200.552,-454.184,171.412,-82.780,111.400,250.940
638,45644.207000,170.503,-166.651,131.072,195.758,-458.828,171.306,118.220,52.400,301.940
639,45644.248000,157.727,-166.651,126.976,186.282,-460.648,178.215,352.220,-48.600,398.940
640,45644.284000,159.693,-167.655,138.240,182.549,-457.774,187.223,602.220,-78.600,460.940
641,45644.306000,152.814,-150.588,140.288,170.169,-465.772,207.922,889.220,-126.600,512.940
642,45644.343000,226.518,-107.420,148.480,162.826,-451.662,232.082,926.220,-159.600,518.940
643,45644.391000,218.656,-93.365,156.672,154.366,-448.811,243.072,1092.220,-235.600,473.940
644,45644.426000,190.157,-27.106,175.104,152.556,-444.781,263.047,866.220,-124.600,196.940
645,45644.463000,261.896,-2.008,201.728,158.348,-437.981,279.115,491.220,-29.600,-108.060
646,45644.491000,223.570,-29.114,207.872,162.173,-435.163,280.175,95.220,182.400,-415.060
647,45644.518000,155.762,-26.102,154.624,175.557,-424.930,279.418,-289.780,87.400,-683.060
648,45644.564000,92.868,-41.161,118.784,188.822,-423.021,274.505,-357.780,-9.600,-872.060
649,45644.599000,54.541,-41.161,117.760,209.678,-418.458,259.714,-759.780,-284.600,-1043.060
650,45644.639000,132.177,-93.365,125.952,236.972,-426.770,237.695,-738.780,-343.600,-1184.060
651,45644.683000,283.516,-105.412,195.584,259.821,-414.853,223.063,-462.780,-176.600,-873.060
652,45644.703000,237.328,-165.647,204.800,275.059,-406.583,214.310,-363.780,-138.600,-711.060
653,45644.755000,283.516,-108.424,201.728,293.148,-398.139,212.527,-79.780,14.400,-718.060
654,45644.790000,218.656,-90.353,149.504,299.863,-391.600,214.665,388.220,-31.600,-574.060
655,45644.824000,180.330,-52.204,119.808,315.177,-379.373,220.916,415.220,-228.600,-577.060
656,45644.887000,158.710,-47.184,74.752,329.637,-359.908,223.341,302.220,-311.600,-535.060
657,45644.960000,180.330,-37.145,71.680,337.258,-356.143,223.432,110.220,-266.600,-435.060
658,45644.990000,176.399,-46.180,73.728,349.577,-354.246,218.518,168.220,-311.600,-360.060
659,45645.15000,213.743,-44.173,94.208,354.454,-344.008,223.716,248.220,-43.600,-200.060
660,45645.53000,202.933,-40.157,100.352,357.455,-332.841,230.921,428.220,26.400,-114.060
661,45645.72000,208.829,-25.098,123.904,354.620,-333.599,240.847,583.220,131.400,-17.060
662,45645.90000,181.313,-1.004,109.568,360.538,-317.618,258.104,846.220,4.400,-18.060
663,45645.136000,266.810,40.157,146.432,360.671,-309.139,270.221,685.220,116.400,-101.060
664,45645.164000,237.328,39.153,164.864,361.613,-309.945,275.178,419.220,171.400,-192.060
665,45645.185000,285.482,45.176,184.320,360.830,-298.807,283.371,222.220,289.400,-295.060
666,45645.224000,228.484,37.145,147.456,365.661,-292.195,290.481,169.220,143.400,-271.060
667,45645.267000,177.382,20.078,123.904,368.641,-282.041,292.691,-67.780,126.400,-317.060
668,45645.308000,155.762,13.051,101.376,372.488,-277.411,292.795,-112.780,-27.600,-314.060
669,45645.344000,130.211,-17.067,83.968,379.131,-275.569,288.866,-313.780,-216.600,-390.060
670,45645.394000,269.758,-38.149,129.024,387.736,-268.264,282.072,35.220,-153.600,-637.060
671,45645.408000,197.036,-10.039,129.024,397.460,-248.920,281.503,287.220,-123.600,-734.060
672,45645.444000,267.793,-38.149,184.320,402.392,-234.959,289.765,209.220,165.400,-725.060
673,45645.513000,268.775,-23.090,154.624,413.143,-210.807,300.241,695.220,318.400,-447.060
674,45645.564000,234.380,-26.102,148.480,405.748,-199.621,315.388,884.220,410.400,-229.060
675,45645.597000,188.192,-1.004,113.664,402.171,-186.454,335.555,1313.220,389.400,-42.060
676,45645.635000,110.557,41.161,67.584,396.922,-156.881,353.086,1432.220,222.400,116.940
677,45645.652000,1.474,106.416,86.016,399.061,-140.112,366.376,1571.220,124.400,210.940
678,45645.678000,141.021,138.541,125.952,397.503,-116.201,372.850,512.220,-84.600,-177.060
679,45645.707000,243.225,136.533,133.120,400.432,-108.951,367.041,46.220,-75.600,-150.060
680,45645.745000,263.862,129.506,160.768,401.418,-106.171,368.097,-155.780,-29.600,-165.060
681,45645.782000,265.827,102.400,203.776,390.946,-110.889,367.981,-115.780,290.400,-188.060
682,45645.828000,267.793,126.494,184.320,392.938,-104.314,375.086,-15.780,305.400,-262.060
683,45645.867000,195.071,116.455,133.120,391.995,-104.288,377.074,-130.780,110.400,-177.060
684,45645.893000,139.056,85.333,107.520,395.830,-100.573,377.159,-31.780,-49.600,-227.060
685,45645.930000,85.006,103.404,82.944,399.732,-91.460,372.386,132.220,-228.600,-195.060
686,45645.975000,101.712,85.333,96.256,406.296,-95.154,366.349,8.220,-195.600,-267.060
687,45646.0,154.779,111.435,125.952,409.362,-77.827,360.754,87.220,-294.600,-335.060
688,45646.44000,175.417,132.518,131.072,412.176,-78.862,352.779,-79.780,-264.600,-321.060
689,45646.88000,288.430,154.604,180.224,418.939,-68.677,354.001,30.220,-122.600,-227.060
690,45646.105000,322.825,152.596,200.704,419.866,-69.659,350.003,-195.780,-88.600,40.940
691,45646.149000,298.257,139.545,180.224,417.854,-78.007,345.844,-67.780,-92.600,432.940
692,45646.218000,245.190,132.518,144.384,416.655,-96.381,343.462,-194.780,-78.600,579.940
693,45646.259000,211.777,112.439,131.072,416.533,-105.504,345.256,-35.780,-63.600,624.940
694,45646.285000,217.674,113.443,117.760,412.485,-124.792,344.840,-1.780,-40.600,596.940
695,45646.354000,197.036,74.290,108.544,412.356,-134.772,349.601,-67.780,-30.600,536.940
696,45646.368000,184.261,83.325,103.424,408.482,-141.255,348.462,-87.780,33.400,426.940
697,45646.418000,168.537,77.302,97.280,404.448,-159.608,349.060,-231.780,5.400,413.940
698,45646.454000,152.814,64.251,105.472,399.610,-167.077,344.916,-427.780,31.400,332.940
699,45646.479000,138.073,62.243,109.568,400.323,-183.653,339.591,-404.780,95.400,204.940
700,45646.548000,147.900,79.310,110.592,389.801,-192.036,339.397,-722.780,101.400,163.940
701,45646.572000,107.608,53.208,110.592,389.493,-213.341,327.007,-1083.780,-125.600,166.940
702,45646.610000,219.639,20.078,124.928,391.040,-236.610,306.621,-1379.780,-287.600,49.940
703,45646.632000,270.741,-57.224,147.456,394.551,-254.395,284.366,-1153.780,-367.600,46.940
704,45646.657000,296.292,-60.235,179.200,397.275,-261.863,275.259,-535.780,-131.600,186.940
705,45646.680000,281.551,-65.255,199.680,390.617,-263.880,270.234,-100.780,68.400,318.940
706,45646.707000,258.948,-31.122,188.416,386.666,-276.658,274.929,319.220,23.400,447.940
707,45646.747000,183.278,-11.043,137.216,375.231,-283.124,279.748,376.220,-36.600,508.940
708,45646.785000,145.935,-12.047,93.184,373.279,-287.690,281.637,424.220,-204.600,516.940
709,45646.803000,102.695,1.004,75.776,367.628,-285.914,282.661,353.220,-315.600,587.940
710,45646.853000,160.676,-4.016,75.776,368.447,-295.082,281.472,334.220,-467.600,654.940
711,45646.885000,191.140,-10.039,90.112,365.502,-302.527,277.331,284.220,-414.600,642.940
712,45646.937000,248.138,22.086,99.328,356.922,-307.220,277.218,154.220,-277.600,574.940
713,45646.968000,297.274,19.075,133.120,348.285,-315.675,272.052,-40.780,-50.600,469.940
714,45647.7000,330.687,23.090,161.792,337.736,-325.909,270.824,-202.780,192.400,348.940
715,45647.45000,297.274,23.090,132.096,332.917,-332.385,270.679,-261.780,188.400,271.940
716,45647.63000,242.242,14.055,116.736,332.846,-337.063,265.607,-450.780,123.400,159.940
717,45647.107000,229.466,16.063,107.520,328.842,-352.766,261.288,-487.780,74.400,118.940
718,45647.148000,182.296,25.098,76.800,320.312,-353.034,253.313,-585.780,105.400,73.940
719,45647.200000,158.710,9.035,45.056,318.121,-373.487,238.949,-803.780,73.400,77.940
720,45647.272000,108.591,-42.165,34.816,313.276,-379.496,215.937,-1226.780,5.400,103.940
721,45647.344000,108.591,-98.384,92.160,311.244,-388.078,199.838,-1324.780,-35.600,128.940
722,45647.355000,267.793,-125.490,126.976,307.272,-399.551,177.705,-986.780,128.400,97.940
723,45647.379000,259.931,-132.518,155.648,301.486,-407.053,172.564,-302.780,288.400,244.940
724,45647.455000,240.276,-147.576,190.464,292.040,-406.203,175.552,-145.780,446.400,273.940
725,45647.514000,271.724,-84.329,172.032,283.494,-409.746,187.400,255.220,406.400,223.940
726,45647.552000,186.226,-108.424,128.000,274.959,-411.612,191.326,396.220,269.400,327.940
727,45647.588000,131.194,-61.239,97.280,267.428,-409.705,200.307,205.220,209.400,274.940
728,45647.620000,118.418,-95.373,94.208,257.879,-416.223,201.149,3.220,-38.600,305.940
729,45647.652000,164.607,-117.459,124.928,249.389,-414.484,202.168,-16.780,-37.600,380.940
730,45647.713000,174.434,-108.424,133.120,245.566,-417.282,202.103,200.220,-70.600,375.940
731,45647.727000,180.330,-158.620,133.120,238.995,-413.666,204.159,151.220,-143.600,247.940
732,45647.748000,319.877,-149.584,165.888,239.893,-417.299,205.078,249.220,-158.600,177.940
733,45647.795000,330.687,-146.573,184.320,241.884,-410.744,211.188,306.220,-163.600,-148.060
734,45647.847000,315.946,-129.506,168.960,249.447,-411.501,214.167,172.220,-149.600,-377.060
735,45647.858000,250.104,-111.435,138.240,261.941,-397.538,217.467,149.220,-181.600,-507.060
736,45647.897000,234.380,-100.392,123.904,277.080,-397.358,216.498,159.220,-84.600,-549.060
737,45647.934000,220.622,-88.345,111.616,287.548,-393.458,221.570,159.220,-70.600,-510.060
738,45647.948000,176.399,-68.267,103.424,297.174,-381.423,221.840,226.220,-85.600,-428.060
739,45647.972000,166.572,-60.235,90.112,307.575,-382.923,231.770,322.220,-31.600,-401.060
740,45648.14000,145.935,-54.212,83.968,310.675,-364.426,239.131,483.220,-27.600,-362.060
741,45648.52000,141.021,-52.204,87.040,320.303,-353.911,255.283,568.220,98.400,-271.060
742,45648.100000,142.004,-53.208,99.328,325.122,-348.196,263.369,715.220,267.400,-197.060
743,45648.128000,139.056,-35.137,76.800,325.302,-336.851,281.514,882.220,198.400,-93.060
744,45648.139000,212.760,1.004,124.928,317.975,-321.785,307.685,1154.220,110.400,55.940
745,45648.170000,246.173,56.220,150.528,318.158,-309.641,319.879,867.220,41.400,-26.060
746,45648.209000,275.655,54.212,195.584,324.095,-291.906,333.195,582.220,84.400,-84.060
747,45648.233000,276.637,56.220,188.416,324.103,-291.809,338.171,461.220,96.400,-209.060
748,45648.273000,219.639,40.157,154.624,328.048,-280.648,344.382,461.220,-2.600,-220.060
749,45648.324000,193.106,43.169,154.624,331.060,-268.584,350.611,43.220,-116.600,-295.060
750,45648.375000,151.831,23.090,122.880,342.440,-265.841,342.729,-172.780,-234.600,-324.060
751,45648.389000,156.745,30.118,98.304,352.893,-261.338,331.899,-62.780,-307.600,-407.060
752,45648.413000,151.831,37.145,82.944,358.612,-258.475,333.958,-246.780,-312.600,-505.060
753,45648.455000,190.157,49.192,99.328,373.849,-250.225,324.210,-325.780,-254.600,-567.060
754,45648.482000,243.225,57.224,105.472,380.455,-250.352,313.276,-535.780,-110.600,-752.060
755,45648.513000,238.311,30.118,110.592,392.935,-235.786,300.674,-519.780,-106.600,-747.060
756,45648.555000,196.054,10.039,136.192,400.536,-233.015,296.766,-423.780,22.400,-703.060
757,45648.595000,265.827,-8.031,151.552,405.309,-230.165,298.823,-224.780,277.400,-494.060
758,45648.635000,272.706,-2.008,185.344,400.657,-224.672,301.917,-86.780,373.400,-336.060
759,45648.685000,259.931,-26.102,175.104,396.971,-218.173,309.012,272.220,250.400,-45.060
760,45648.710000,216.691,-12.047,141.312,395.224,-208.023,314.199,460.220,45.400,-38.060
761,45648.748000,207.846,-25.098,112.640,401.033,-199.488,325.330,595.220,-108.600,-13.060
762,45648.854000,186.226,-9.035,78.848,402.181,-184.798,326.639,902.220,-145.600,-18.060
763,45648.879000,129.228,6.024,62.464,404.228,-174.500,336.807,1166.220,-125.600,61.940
764,45648.892000,168.537,75.294,80.896,409.254,-153.289,341.245,1131.220,-244.600,56.940
765,45648.922000,199.985,122.478,115.712,405.639,-141.331,346.467,895.220,18.400,-160.060
766,45648.965000,255.017,156.612,162.816,406.874,-121.008,354.859,387.220,265.400,-323.060
767,45648.994000,236.345,152.596,160.768,403.092,-121.019,356.842,-271.780,421.400,-247.060
768,45649.19000,229.466,93.365,176.128,400.209,-125.422,367.685,-370.780,479.400,-236.060
769,45649.65000,194.088,96.376,134.144,392.632,-127.140,378.578,-496.780,516.400,-207.060
770,45649.77000,151.831,65.255,117.760,390.697,-129.972,375.531,-372.780,256.400,-260.060
771,45649.115000,90.902,69.271,96.256,387.999,-119.893,377.731,-187.780,33.400,-306.060
772,45649.142000,121.367,77.302,106.496,392.758,-117.199,371.828,-151.780,-75.600,-372.060
773,45649.180000,129.228,74.290,118.784,395.697,-109.832,371.989,-56.780,-147.600,-556.060
774,45649.214000,136.107,102.400,128.000,399.531,-105.358,364.133,-33.780,-223.600,-536.060
775,45649.257000,268.775,134.525,164.864,408.247,-89.827,356.519,-159.780,-190.600,-444.060
776,45649.294000,329.704,127.498,214.016,408.144,-97.195,354.373,-261.780,-87.600,-230.060
777,45649.315000,354.273,129.506,227.328,410.122,-90.777,353.517,-8.780,54.400,-28.060
778,45649.353000,279.585,154.604,201.728,409.190,-89.854,354.530,191.220,58.400,274.940
779,45649.395000,205.881,138.541,167.936,404.326,-99.935,357.293,171.220,11.400,399.940
780,45649.433000,209.812,137.537,159.744,403.405,-98.875,365.271,226.220,85.400,338.940
781,45649.475000,191.140,123.482,144.384,400.452,-107.178,364.095,161.220,52.400,404.940
782,45649.523000,142.004,104.408,125.952,398.454,-115.370,367.896,-37.780,-24.600,476.940
783,45649.535000,132.177,68.267,105.472,397.315,-129.183,364.617,-232.780,10.400,474.940
784,45649.574000,131.194,62.243,116.736,394.354,-138.343,366.407,-118.780,-52.600,407.940
785,45649.630000,104.660,62.243,147.456,388.457,-154.070,362.085,-252.780,-83.600,303.940
786,45649.673000,102.695,75.294,142.336,389.263,-164.174,359.882,-430.780,-142.600,203.940
787,45649.757000,120.384,93.365,117.760,395.726,-174.437,345.748,-677.780,-293.600,-66.060
788,45649.782000,205.881,59.231,89.088,409.770,-182.944,322.711,-1076.780,-624.600,-251.060
789,45649.808000,236.345,28.110,125.952,415.309,-191.426,306.624,-1071.780,-792.600,-191.060
790,45649.832000,355.255,-13.051,154.624,424.515,-206.623,272.497,-1290.780,-872.600,-46.060
791,45649.869000,265.827,-24.094,195.584,435.668,-218.851,248.382,-296.780,-892.600,288.940
792,45649.897000,252.069,-10.039,173.056,443.167,-222.669,235.381,208.220,-663.600,332.940
793,45649.942000,197.036,10.039,94.208,442.996,-234.676,230.152,170.220,-506.600,483.940
794,45649.968000,157.727,5.020,62.464,440.024,-243.973,224.977,497.220,-428.600,641.940
795,45650.0,133.159,14.055,35.840,436.178,-248.584,225.868,508.220,-236.600,696.940
796,45650.18000,189.175,22.086,63.488,429.263,-269.782,223.417,242.220,-210.600,739.940
797,45650.100000,360.169,49.192,78.848,417.770,-280.009,223.182,235.220,-116.600,683.940
798,45650.152000,305.136,80.314,120.832,406.263,-291.932,229.874,122.220,175.400,587.940
799,45650.177000,333.635,63.247,139.264,402.408,-297.420,232.736,-226.780,415.400,372.940
800,45650.205000,257.965,24.094,96.256,389.105,-302.078,237.590,-314.780,425.400,450.940
801,45650.233000,179.347,27.106,60.416,376.624,-315.885,242.251,-585.780,563.400,438.940
802,45650.250000,160.676,-1.004,38.912,361.129,-341.016,231.747,-814.780,296.400,375.940
803,45650.327000,153.797,-12.047,26.624,356.318,-345.855,221.690,-766.780,65.400,346.940
804,45650.362000,236.345,-52.204,47.104,351.417,-355.605,194.620,-1136.780,-345.600,255.940
805,45650.394000,188.192,-74.290,66.560,345.420,-377.882,183.196,-974.780,-65.600,418.940
806,45650.424000,252.069,-151.592,143.360,338.704,-382.902,165.176,-880.780,40.400,217.940
807,45650.467000,320.860,-164.643,180.224,331.062,-388.459,167.036,-44.780,480.400,167.940
808,45650.492000,258.948,-114.447,171.008,326.398,-385.422,184.997,218.220,585.400,108.940
809,45650.503000,226.518,-84.329,138.240,321.644,-388.818,201.826,675.220,576.400,2.940
810,45650.540000,159.693,-31.122,108.544,316.939,-388.568,217.739,816.220,454.400,-50.060
811,45650.587000,142.004,-17.067,96.256,312.454,-372.666,237.964,575.220,318.400,31.940
812,45650.620000,108.591,-11.043,59.392,310.639,-367.934,247.013,471.220,67.400,93.940
813,45650.675000,80.092,-17.067,61.440,307.756,-371.558,250.910,273.220,-12.600,215.940
814,45650.702000,91.885,-37.145,86.016,299.236,-371.710,248.905,-12.780,-60.600,357.940
815,45650.714000,179.347,-60.235,116.736,293.466,-378.256,245.774,-187.780,-194.600,386.940
816,45650.773000,312.998,-55.216,188.416,290.584,-381.101,242.725,-9.780,9.400,413.940
817,45650.798000,321.843,-60.235,187.392,283.080,-376.581,244.799,14.220,94.400,147.940
818,45650.835000,456.476,-88.345,244.736,281.071,-384.890,242.630,-163.780,282.400,47.940
819,45650.885000,374.910,-101.396,234.496,278.223,-385.805,244.596,-210.780,378.400,-155.060
820,45650.942000,241.259,-101.396,178.176,277.264,-386.734,244.575,-228.780,306.400,-355.060
821,45650.967000,158.710,-90.353,149.504,284.860,-384.801,244.627,-202.780,174.400,-489.060
822,45650.980000,193.106,-57.224,126.976,296.352,-374.593,243.867,-92.780,108.400,-516.060
823,45651.15000,140.038,-49.192,104.448,308.705,-370.747,244.961,20.220,20.400,-478.060
824,45651.72000,133.159,-29.114,103.424,312.527,-368.728,251.972,109.220,54.400,-404.060
825,45651.98000,145.935,-26.102,103.424,317.329,-363.987,257.054,135.220,162.400,-305.060
826,45651.134000,139.056,-6.024,106.496,318.422,-353.800,262.245,212.220,279.400,-146.060
827,45651.178000,201.950,-3.012,114.688,314.539,-360.380,256.132,-324.780,-80.600,82.940
828,45651.197000,187.209,-78.306,132.096,313.589,-360.431,254.140,-115.780,-46.600,224.940
829,45651.248000,204.898,-62.243,138.240,307.779,-370.525,256.900,285.220,-13.600,388.940
830,45651.277000,195.071,-61.239,146.432,296.396,-373.306,262.792,450.220,-40.600,583.940
831,45651.319000,232.415,-21.082,159.744,288.942,-365.882,272.885,596.220,-124.600,490.940
832,45651.370000,218.656,-9.035,186.368,287.045,-366.726,277.838,368.220,7.400,213.940
833,45651.410000,252.069,-21.082,187.392,280.417,-367.632,282.782,174.220,84.400,-27.060
834,45651.442000,201.950,-43.169,159.744,287.133,-361.073,285.915,131.220,-1.600,-105.060
835,45651.464000,140.038,-15.059,102.400,290.922,-360.984,287.912,113.220,-78.600,-204.060
836,45651.495000,142.004,-22.086,83.968,293.753,-361.044,282.942,-269.780,-180.600,-329.060
837,45651.539000,157.727,-47.184,98.304,310.822,-356.550,267.149,-551.780,-326.600,-575.060
838,45651.577000,182.296,-61.239,121.856,325.987,-353.758,259.273,-220.780,-288.600,-857.060
839,45651.617000,295.309,-77.302,148.480,344.271,-330.715,254.818,-148.780,-78.600,-997.060
840,45651.659000,302.188,-80.314,201.728,354.831,-319.584,255.070,-17.780,162.400,-812.060
841,45651.678000,265.827,-65.255,174.080,357.811,-310.190,265.221,336.220,386.400,-518.060
842,45651.717000,230.449,-30.118,158.720,360.836,-297.969,279.410,575.220,356.400,-375.060
843,45651.759000,159.693,-28.110,104.448,367.654,-284.841,290.641,500.220,155.400,-272.060
844,45651.805000,146.917,-13.051,81.920,363.974,-278.264,301.716,588.220,128.400,-222.060
845,45651.843000,136.107,-9.035,78.848,366.135,-259.701,313.056,702.220,146.400,-163.060
846,45651.877000,163.624,-11.043,81.920,370.069,-249.437,320.242,745.220,-43.600,-4.060
847,45651.908000,151.831,29.114,116.736,370.282,-235.403,335.461,1230.220,56.400,-24.060
848,45651.938000,267.793,115.451,179.200,369.681,-211.361,347.907,948.220,277.400,-235.060
849,45651.975000,222.587,120.471,198.656,363.212,-201.936,366.002,294.220,482.400,-343.060
850,45652.27000,256.983,74.290,208.896,354.881,-189.086,373.225,-3.780,598.400,-299.060
851,45652.58000,218.656,80.314,175.104,348.326,-185.295,384.238,-60.780,592.400,-224.060
852,45652.95000,137.090,54.212,143.360,345.527,-183.324,393.227,-39.780,468.400,-154.060
853,45652.139000,114.488,42.165,112.640,341.712,-186.025,398.137,-20.780,334.400,-144.060
854,45652.162000,111.539,43.169,104.448,333.249,-182.434,400.190,102.220,203.400,-175.060
855,45652.198000,111.539,51.200,119.808,332.454,-171.433,401.418,312.220,122.400,-256.060
856,45652.242000,132.177,97.380,159.744,339.321,-153.881,404.785,118.220,142.400,-553.060
857,45652.277000,168.537,127.498,207.872,339.437,-145.597,406.951,-254.780,-32.600,-535.060
858,45652.355000,326.756,128.502,275.456,343.145,-150.303,397.905,-409.780,34.400,-443.060
859,45652.379000,316.929,124.486,296.960,341.302,-146.663,397.980,-247.780,162.400,-79.060
860,45652.422000,267.793,115.451,264.192,335.525,-154.827,405.754,-29.780,244.400,249.940
861,45652.459000,213.743,116.455,226.304,326.924,-161.314,407.593,-51.780,183.400,383.940
862,45652.494000,148.883,92.361,187.392,322.072,-170.479,410.375,-170.780,137.400,415.940
863,45652.518000,132.177,76.298,162.816,317.207,-180.580,412.142,35.220,81.400,475.940
864,45652.558000,119.401,60.235,146.432,312.275,-195.301,411.821,-74.780,-9.600,491.940
865,45652.604000,110.557,46.180,144.384,312.097,-208.166,409.558,-63.780,-162.600,442.940
866,45652.658000,130.211,45.176,150.528,307.251,-216.493,408.379,-155.780,-224.600,400.940
867,45652.672000,140.038,47.184,152.576,309.978,-223.921,401.262,-198.780,-174.600,311.940
868,45652.697000,138.073,56.220,163.840,307.058,-229.533,397.160,-299.780,-134.600,245.940
869,45652.720000,152.814,52.204,165.888,308.735,-244.342,387.895,-417.780,-148.600,144.940
870,45652.758000,138.073,40.157,164.864,311.502,-248.223,374.887,-646.780,-228.600,3.940
871,45652.798000,197.036,-4.016,176.128,315.936,-268.588,360.535,-841.780,-346.600,-73.060
872,45652.833000,200.967,-41.161,168.960,324.382,-272.375,348.531,-635.780,-517.600,-62.060
873,45652.854000,257.965,-70.275,183.296,329.943,-279.064,330.493,-517.780,-499.600,10.940
874,45652.894000,267.793,-77.302,186.368,335.554,-282.849,320.475,-255.780,-304.600,106.940
875,45652.934000,228.484,-64.251,183.296,338.261,-292.050,316.304,177.220,-169.600,119.940
876,45652.974000,178.365,-31.122,161.792,342.153,-284.593,320.448,425.220,-268.600,25.940
877,45653.21000,146.917,-9.035,133.120,346.942,-280.009,317.568,460.220,-465.600,-46.060
878,45653.53000,142.987,2.008,108.544,358.346,-276.214,316.671,440.220,-593.600,3.940
879,45653.99000,164.607,9.035,116.736,366.894,-273.431,312.765,351.220,-496.600,121.940
880,45653.113000,200.967,4.016,130.048,371.676,-268.924,305.905,291.220,-555.600,306.940
881,45653.154000,205.881,14.055,114.688,370.743,-267.241,298.977,252.220,-491.600,371.940
882,45653.194000,258.948,50.196,146.432,370.725,-268.995,302.918,316.220,-222.600,371.940
883,45653.233000,316.929,79.310,154.624,367.875,-269.929,303.889,112.220,-86.600,385.940
884,45653.273000,257.965,64.251,138.240,362.987,-281.064,299.666,-68.780,-46.600,370.940
885,45653.314000,196.054,43.169,109.568,360.975,-289.412,295.507,-402.780,-30.600,360.940
886,45653.334000,168.537,34.133,91.136,351.181,-312.655,284.057,-683.780,-106.600,334.940
887,45653.376000,146.917,11.043,52.224,353.878,-321.214,265.975,-779.780,-154.600,191.940
888,45653.414000,120.384,-9.035,56.320,351.895,-326.911,256.899,-908.780,-65.600,-167.060
889,45653.454000,159.693,-22.086,74.752,359.321,-335.427,237.831,-850.780,19.400,-426.060
890,45653.494000,347.393,-87.341,160.768,359.253,-339.307,226.807,-991.780,220.400,-261.060
891,45653.532000,232.415,-110.431,189.440,351.624,-343.169,221.740,-250.780,144.400,164.940
892,45653.553000,318.894,-87.341,204.800,344.014,-346.816,227.619,-26.780,327.400,333.940
893,45653.593000,259.931,-63.247,178.176,337.382,-347.761,230.573,108.220,45.400,415.940
894,45653.633000,195.071,-78.306,128.000,336.350,-354.167,231.430,327.220,-155.600,333.940
895,45653.681000,111.539,-54.212,94.208,328.799,-353.273,235.417,414.220,-361.600,306.940
896,45653.724000,72.230,-55.216,78.848,333.463,-357.850,232.342,208.220,-396.600,332.940
897,45653.754000,131.194,-71.278,91.136,325.818,-362.667,225.266,104.220,-343.600,356.940
898,45653.794000,242.242,-46.180,96.256,327.706,-363.460,230.225,400.220,-347.600,357.940
899,45653.814000,315.946,-10.039,119.808,325.890,-357.969,231.334,404.220,-259.600,288.940
900,45653.876000,392.599,3.012,143.360,323.027,-359.839,231.290,128.220,-130.600,126.940
901,45653.928000,453.528,-12.047,194.560,321.082,-363.548,230.213,-146.780,166.400,-150.060
902,45653.964000,333.635,-8.031,142.336,328.775,-355.086,236.373,-76.780,213.400,-329.060
903,45653.994000,206.864,-32.125,113.664,333.605,-347.714,235.542,-145.780,179.400,-426.060
904,45654.14000,127.263,-32.125,80.896,337.362,-349.535,233.519,-53.780,67.400,-463.060
905,45654.36000,141.021,-33.129,76.800,346.918,-342.938,236.658,-312.780,86.400,-393.060
906,45654.77000,186.226,-45.176,94.208,352.546,-345.748,229.644,-383.780,21.400,-352.060
907,45654.117000,161.658,-54.212,94.208,354.476,-342.215,221.765,-332.780,155.400,-285.060
908,45654.161000,202.933,-60.235,136.192,356.336,-344.880,224.695,-269.780,282.400,-251.060
909,45654.201000,200.967,-53.208,142.336,356.347,-344.743,231.660,-49.780,327.400,-217.060
910,45654.236000,215.708,-69.271,129.024,355.506,-337.368,234.800,63.220,244.400,-146.060
911,45654.282000,201.950,-69.271,126.976,356.546,-331.644,245.864,276.220,280.400,-63.060
912,45654.302000,182.296,-47.184,109.568,356.630,-326.810,258.898,533.220,169.400,40.940
913,45654.333000,215.708,-35.137,107.520,351.029,-322.908,274.887,629.220,378.400,87.940
914,45654.373000,206.864,2.008,132.096,347.296,-320.034,283.894,774.220,179.400,98.940
915,45654.414000,239.294,-3.012,146.432,341.840,-305.197,297.132,620.220,154.400,176.940
916,45654.454000,237.328,61.239,181.248,338.180,-297.625,312.207,820.220,269.400,-29.060
917,45654.494000,235.363,73.286,162.816,341.204,-285.405,326.397,441.220,228.400,-160.060
918,45654.514000,206.864,53.208,154.624,337.513,-278.964,330.507,257.220,35.400,-117.060
919,45654.559000,176.399,36.141,122.880,342.281,-276.173,329.579,-42.780,-73.600,-115.060
920,45654.597000,180.330,26.102,103.424,343.183,-278.986,325.542,-287.780,-248.600,-176.060
921,45654.634000,188.192,17.067,91.136,352.610,-280.051,311.608,-423.780,-306.600,-292.060
922,45654.676000,212.760,15.059,110.592,364.847,-283.728,302.596,-567.780,-273.600,-529.060
923,45654.716000,180.330,-29.114,126.976,376.196,-282.117,283.749,-716.780,-278.600,-669.060
924,45654.736000,238.311,-57.224,131.072,387.612,-276.646,274.931,-546.780,-151.600,-688.060
925,45654.776000,295.309,-47.184,160.768,391.549,-265.583,276.167,-7.780,82.400,-660.060
926,45654.816000,293.344,-36.141,161.792,393.568,-256.377,277.360,158.220,268.400,-520.060
927,45654.856000,229.466,-21.082,145.408,395.719,-239.471,297.616,463.220,478.400,-296.060
928,45654.896000,189.175,-10.039,102.400,386.422,-229.187,314.730,770.220,589.400,-11.060
929,45654.937000,116.453,10.039,75.776,379.079,-215.077,338.890,868.220,559.400,152.940
930,45654.977000,55.524,19.075,63.488,375.429,-206.608,352.990,977.220,229.400,292.940
931,45654.993000,6.388,44.173,87.040,367.938,-201.932,363.025,625.220,113.400,241.940
932,45655.33000,222.587,53.208,159.744,370.078,-184.384,369.370,418.220,159.400,-262.060
933,45655.83000,210.795,121.475,191.488,367.359,-176.098,373.520,195.220,229.400,-273.060
934,45655.116000,270.741,82.322,246.784,363.716,-166.012,376.714,-250.780,296.400,-458.060
935,45655.163000,251.086,130.510,224.256,360.948,-161.371,381.781,172.220,332.400,-296.060
936,45655.199000,217.674,135.529,214.016,361.962,-156.719,384.866,-96.780,104.400,-194.060
937,45655.214000,164.607,88.345,166.912,367.656,-154.910,379.940,-93.780,-134.600,-227.060
938,45655.254000,98.764,85.333,120.832,373.411,-148.539,374.116,169.220,-400.600,-305.060
939,45655.296000,108.591,72.282,130.048,384.845,-142.093,368.302,148.220,-354.600,-440.060
940,45655.337000,175.417,177.694,140.288,387.794,-133.070,359.547,-119.780,-587.600,-394.060
941,45655.377000,293.344,149.584,172.032,395.272,-138.662,349.492,-365.780,-344.600,136.940
942,45655.421000,323.808,146.573,188.416,397.012,-148.890,340.326,-367.780,-186.600,425.940
943,45655.454000,337.566,63.247,218.112,391.111,-165.436,340.959,-233.780,-22.600,772.940
944,45655.474000,279.585,72.282,196.608,385.188,-183.775,343.544,193.220,40.400,844.940
945,45655.514000,188.192,64.251,154.624,381.244,-195.696,345.274,226.220,65.400,770.940
946,45655.554000,204.898,39.153,143.360,366.055,-200.301,354.105,109.220,131.400,613.940
947,45655.598000,158.710,41.161,118.784,362.133,-210.428,353.884,98.220,20.400,509.940
948,45655.634000,152.814,21.082,107.520,350.652,-219.739,353.669,-24.780,9.400,447.940
949,45655.676000,153.797,15.059,113.664,352.485,-224.256,355.565,-5.780,32.400,387.940
950,45655.694000,167.555,59.231,134.144,341.937,-234.491,354.337,-163.780,67.400,303.940
951,45655.742000,144.952,44.173,120.832,341.864,-239.968,355.215,-303.780,116.400,51.940
952,45655.777000,151.831,41.161,119.808,336.042,-250.198,351.010,-467.780,18.400,18.940
953,45655.817000,187.209,8.031,137.216,340.589,-262.299,337.829,-862.780,-123.600,3.940
954,45655.857000,210.795,-52.204,157.696,343.248,-273.607,319.688,-767.780,-224.600,-72.060
955,45655.897000,235.363,-47.184,150.528,345.933,-283.842,309.528,-519.780,-268.600,10.940
956,45655.917000,270.741,-53.208,179.200,347.763,-287.618,302.488,-438.780,-86.600,74.940
957,45655.962000,243.225,-44.173,179.200,346.762,-291.354,299.423,-167.780,-27.600,107.940
958,45655.997000,212.760,-40.157,156.672,347.630,-296.877,297.318,-29.780,-116.600,161.940
959,45656.36000,167.555,-24.094,126.976,342.883,-297.895,295.300,144.220,-155.600,127.940
960,45656.79000,142.004,-28.110,95.232,343.797,-300.572,298.228,106.220,-186.600,241.940
961,45656.121000,137.090,-26.102,82.944,343.776,-301.586,293.233,108.220,-270.600,343.940
962,45656.154000,204.898,-22.086,103.424,338.907,-311.726,293.010,391.220,-312.600,463.940
963,45656.176000,205.881,0.000,110.592,335.061,-316.337,293.901,265.220,-311.600,450.940
964,45656.214000,294.326,12.047,126.976,333.105,-320.942,293.800,210.220,-138.600,430.940
965,45656.257000,280.568,35.137,168.960,323.712,-316.409,297.861,-68.780,197.400,281.940
966,45656.297000,261.896,16.063,160.768,315.150,-320.127,300.753,-168.780,358.400,267.940
967,45656.338000,222.587,16.063,136.192,313.127,-329.372,297.570,-366.780,235.400,201.940
968,45656.378000,172.468,22.086,109.568,305.320,-346.099,290.240,-534.780,129.400,126.940
969,45656.399000,162.641,24.094,68.608,305.237,-350.914,278.201,-777.780,-58.600,55.940
970,45656.437000,176.399,15.059,41.984,307.791,-369.609,256.920,-965.780,-129.600,-144.060
971,45656.488000,168.537,-11.043,66.560,306.773,-372.780,235.963,-1451.780,-207.600,-191.060
972,45656.528000,172.468,-87.341,105.472,311.224,-389.852,202.784,-1835.780,84.400,-133.060
973,45656.647000,278.603,-121.475,133.120,304.397,-402.317,178.637,-1328.780,446.400,142.940
974,45656.663000,211.777,-188.737,167.936,290.186,-402.700,168.661,-635.780,507.400,370.940
975,45656.689000,286.464,-146.573,193.536,284.420,-409.967,175.461,-122.780,604.400,239.940
976,45656.698000,214.726,-140.549,177.152,271.135,-413.651,183.320,104.220,398.400,220.940
977,45656.718000,171.486,-111.435,148.480,268.158,-424.545,190.046,225.220,326.400,210.940
978,45656.743000,114.488,-97.380,121.856,264.534,-413.465,197.239,352.220,14.400,155.940
979,45656.797000,107.608,-98.384,114.688,258.732,-423.462,204.975,432.220,-154.600,214.940
980,45656.823000,90.902,-102.400,100.352,258.947,-408.628,214.242,579.220,-264.600,344.940
981,45656.858000,97.781,-99.388,119.808,254.146,-414.128,217.102,298.220,-284.600,371.940
982,45656.878000,229.466,-88.345,140.288,256.999,-413.155,218.122,335.220,-344.600,187.940
983,45656.919000,344.445,-50.196,208.896,251.468,-403.036,224.297,375.220,-110.600,-4.060
984,45656.963000,423.063,-44.173,250.880,260.061,-398.187,232.370,78.220,243.400,-334.060
985,45656.998000,340.514,-55.216,219.136,266.660,-399.931,232.342,19.220,192.400,-528.060
986,45657.39000,279.585,-56.220,202.752,279.149,-386.806,239.603,75.220,93.400,-625.060
987,45657.78000,157.727,-58.227,140.288,287.736,-381.255,236.750,71.220,-19.600,-498.060
988,45657.99000,143.969,-58.227,120.832,293.298,-390.225,242.535,-65.780,98.400,-295.060
989,45657.138000,142.987,-60.235,97.280,295.385,-376.380,246.811,-12.780,284.400,-234.060
990,45657.176000,130.211,-51.200,88.064,294.351,-383.585,253.619,8.220,458.400,-283.060
991,45657.219000,155.762,-44.173,128.000,293.608,-369.660,263.860,-74.780,724.400,-311.060
992,45657.258000,162.641,-49.192,144.384,292.750,-364.020,271.936,318.220,787.400,-219.060
993,45657.298000,145.935,-58.227,145.408,279.534,-363.824,290.819,310.220,821.400,-87.060
994,45657.338000,157.727,-71.278,186.368,271.109,-359.004,308.812,349.220,694.400,91.940
995,45657.358000,156.745,-84.329,181.248,255.152,-351.536,326.851,573.220,698.400,299.940
996,45657.398000,181.313,-50.196,180.224,234.555,-338.439,354.949,880.220,941.400,395.940
997,45657.439000,106.626,15.059,161.792,223.394,-326.309,374.089,1442.220,593.400,353.940
998,45657.478000,182.296,32.125,200.704,214.203,-308.617,395.339,817.220,348.400,163.940
999,45657.518000,201.950,49.192,239.616,211.484,-301.091,407.431,531.220,277.400,-186.060
1000,45657.558000,191.140,60.235,250.880,210.770,-285.296,419.702,324.220,321.400,-271.060
1001,45657.578000,165.589,43.169,240.640,204.126,-287.157,422.636,-3.780,277.400,-219.060
1002,45657.618000,120.384,21.082,192.512,207.874,-289.855,422.585,-104.780,195.400,-189.060
1003,45657.657000,109.574,16.063,154.624,206.055,-284.403,421.703,-94.780,8.400,-193.060
1004,45657.718000,113.505,12.047,145.408,212.718,-281.548,422.769,-56.780,-73.600,-335.060
1005,45657.757000,135.125,17.067,144.384,216.528,-279.665,422.814,106.220,-80.600,-458.060
1006,45657.787000,132.177,21.082,162.816,229.870,-272.239,419.013,-16.780,-82.600,-542.060
1007,45657.797000,134.142,7.027,194.560,235.558,-270.508,410.107,-214.780,-30.600,-500.060
1008,45657.842000,193.106,-26.102,240.640,241.294,-266.670,415.170,-145.780,39.400,-424.060
1009,45657.881000,193.106,-42.165,275.456,238.494,-263.940,416.219,-66.780,442.400,-327.060
1010,45657.921000,192.123,-42.165,269.312,229.160,-255.625,426.328,180.220,633.400,-304.060
1011,45657.966000,176.399,-58.227,237.568,220.756,-249.032,441.376,412.220,704.400,-118.060
1012,45657.999000,146.917,-34.133,195.584,198.251,-236.135,460.515,1030.220,785.400,172.940
1013,45658.39000,78.127,26.102,131.072,185.279,-217.675,476.803,1280.220,649.400,289.940
1014,45658.59000,-45.697,51.200,90.112,173.403,-188.229,492.332,1087.220,385.400,312.940
1015,45658.104000,-12.284,74.290,147.456,169.870,-170.696,501.651,705.220,-29.600,283.940
1016,45658.138000,145.935,63.247,201.728,166.199,-162.482,502.815,192.220,-18.600,117.940
1017,45658.179000,111.539,130.510,199.680,169.108,-157.006,499.952,26.220,161.400,-202.060
1018,45658.219000,123.332,65.255,295.936,166.236,-159.733,502.874,-282.780,439.400,-364.060
1019,45658.259000,134.142,85.333,306.176,155.864,-157.122,502.914,157.220,541.400,-402.060
1020,45658.278000,88.937,90.353,273.408,147.360,-156.319,502.919,-61.780,325.400,-342.060
1021,45658.319000,74.196,97.380,276.480,144.614,-149.885,506.036,-28.780,245.400,-380.060
1022,45658.359000,55.524,119.467,247.808,144.710,-143.374,511.147,148.220,175.400,-324.060
1023,45658.399000,46.679,135.529,261.120,144.719,-142.497,509.177,46.220,-3.600,-391.060
1024,45658.439000,74.196,150.588,281.600,155.214,-135.966,508.337,-40.780,-216.600,-341.060
1025,45658.486000,118.418,161.631,306.176,160.935,-132.305,504.445,-181.780,-264.600,-217.060
1026,45658.526000,110.557,150.588,286.720,169.311,-142.309,502.255,-187.780,-343.600,23.940
1027,45658.546000,112.522,122.478,263.168,171.992,-153.362,497.050,-336.780,-358.600,203.940
1028,45658.581000,128.246,106.416,233.472,181.275,-166.122,493.809,-391.780,-312.600,290.940
1029,45658.619000,116.453,87.341,226.304,184.966,-172.563,489.698,-402.780,-260.600,286.940
1030,45658.666000,84.023,64.251,206.848,188.458,-193.642,486.271,-396.780,-283.600,454.940
1031,45658.702000,63.386,43.169,179.200,189.207,-207.489,480.010,-245.780,-365.600,502.940
1032,45658.737000,61.420,31.122,169.984,192.863,-215.879,469.890,-204.780,-391.600,474.940
1033,45658.757000,72.230,39.153,175.104,193.695,-224.132,468.721,-177.780,-306.600,335.940
1034,45658.798000,76.161,55.216,185.344,199.382,-223.179,466.760,-257.780,-285.600,202.940
1035,45658.837000,87.954,54.212,202.752,205.854,-233.345,457.602,-385.780,-324.600,104.940
1036,45658.878000,130.211,36.141,231.424,211.332,-246.389,442.413,-656.780,-473.600,-21.060
1037,45658.929000,170.503,24.094,265.216,225.292,-262.029,429.170,-614.780,-643.600,-69.060
1038,45658.957000,143.969,-8.031,225.280,245.815,-281.383,408.896,-476.780,-940.600,14.940
1039,45658.998000,109.574,-25.098,177.152,258.087,-282.351,397.953,-411.780,-1101.600,153.940
1040,45659.37000,131.194,-38.149,151.552,277.849,-287.996,376.974,-252.780,-1212.600,242.940
1041,45659.67000,175.417,-30.118,145.408,290.884,-301.095,353.838,-31.780,-1153.600,281.940
1042,45659.102000,198.019,-32.125,146.432,303.129,-303.915,341.861,26.220,-1016.600,290.940
1043,45659.142000,223.570,-30.118,148.480,314.527,-299.419,330.038,269.220,-828.600,190.940
1044,45659.182000,204.898,-11.043,156.672,322.205,-291.132,327.241,310.220,-584.600,86.940
1045,45659.218000,198.019,-11.043,148.480,322.189,-292.087,325.232,266.220,-521.600,66.940
1046,45659.238000,195.071,-9.035,148.480,331.678,-289.351,318.341,131.220,-454.600,85.940
1047,45659.279000,200.967,-8.031,143.360,332.518,-296.745,314.207,187.220,-412.600,77.940
