Sample, Time, ACCX, ACCY, ACCZ, MAGX, MAGY, MAGZ, GYRX, GYRY, GYRZ
0,45731.462000,94.833,0.000,230.400,139.759,-292.840,456.238,-77.780,246.400,-14.060
1,45731.503000,89.919,-1.004,236.544,138.847,-290.143,454.305,-84.780,292.400,-30.060
2,45731.523000,85.006,-3.012,244.736,135.088,-288.342,455.332,-93.780,355.400,-28.060
3,45731.563000,80.092,-8.031,249.856,131.178,-297.553,455.130,-7.780,407.400,-1.060
4,45731.603000,75.178,-5.020,251.904,119.025,-287.501,462.289,101.220,443.400,7.940
5,45731.643000,74.196,4.016,260.096,112.437,-284.860,461.341,98.220,346.400,-25.060
6,45731.683000,57.489,3.012,273.408,111.447,-288.459,465.241,84.220,175.400,-28.060
7,45731.723000,60.438,0.000,275.456,109.645,-282.032,467.364,87.220,43.400,-25.060
8,45731.744000,59.455,4.016,271.360,112.522,-279.246,467.428,86.220,-104.600,-24.060
9,45731.780000,66.334,5.020,253.952,113.432,-281.962,468.366,63.220,-195.600,-9.060
10,45731.820000,75.178,4.016,247.808,122.036,-275.437,468.518,45.220,-215.600,-7.060
11,45731.859000,85.006,5.020,221.184,124.874,-275.419,467.528,103.220,-190.600,2.940
12,45731.899000,92.868,21.082,216.064,127.664,-279.026,468.450,135.220,-178.600,-67.060
13,45731.939000,84.023,12.047,238.592,134.424,-268.881,467.681,86.220,-247.600,-51.060
14,45731.995000,77.144,12.047,249.856,144.773,-273.305,468.597,72.220,-260.600,-8.060
15,45732.4000,74.196,11.043,250.880,145.739,-271.518,465.652,25.220,-316.600,20.940
16,45732.39000,66.334,15.059,242.688,150.558,-265.043,465.797,22.220,-416.600,41.940
17,45732.79000,60.438,18.071,238.592,163.770,-266.837,458.816,-1.780,-551.600,8.940
18,45732.131000,69.282,11.043,257.024,177.954,-266.766,452.871,-25.780,-697.600,41.940
19,45732.160000,119.401,13.051,272.384,194.948,-268.549,443.906,8.220,-806.600,66.940
20,45732.198000,161.658,6.024,261.120,213.770,-274.907,433.852,14.220,-956.600,97.940
21,45732.219000,159.693,9.035,222.208,228.978,-269.308,429.021,66.220,-1168.600,97.940
22,45732.260000,144.952,-3.012,176.128,252.525,-275.682,414.995,78.220,-1307.600,83.940
23,45732.300000,145.935,-1.004,150.528,280.978,-269.167,401.251,139.220,-1388.600,62.940
24,45732.340000,147.900,8.031,116.736,309.307,-271.034,380.366,174.220,-1423.600,29.940
25,45732.386000,167.555,15.059,111.616,332.959,-268.481,354.595,22.220,-1471.600,-18.060
26,45732.419000,230.449,4.016,158.720,349.996,-266.677,341.728,-69.780,-1166.600,-32.060
27,45732.459000,223.570,7.027,154.624,364.198,-264.092,323.900,67.220,-992.600,-37.060
28,45732.483000,223.570,13.051,142.336,378.382,-263.262,310.014,131.220,-838.600,29.940
29,45732.524000,205.881,7.027,124.928,385.843,-269.829,296.955,83.220,-781.600,66.940
30,45732.564000,201.950,2.008,100.352,398.208,-263.546,282.188,61.220,-800.600,46.940
31,45732.604000,208.829,10.039,84.992,410.506,-262.662,272.278,81.220,-666.600,-15.060
32,45732.638000,228.484,9.035,94.208,416.101,-267.402,260.250,100.220,-465.600,-28.060
33,45732.678000,227.501,14.055,96.256,419.013,-261.887,259.377,135.220,-176.600,-36.060
34,45732.703000,208.829,8.031,112.640,416.167,-262.783,262.338,182.220,142.400,1.940
35,45732.750000,206.864,10.039,110.592,413.477,-252.606,269.513,39.220,190.400,8.940
36,45732.784000,208.829,11.043,119.808,410.526,-260.889,269.332,-63.780,90.400,49.940
37,45732.833000,235.363,5.020,159.744,413.402,-258.103,269.396,55.220,-27.600,17.940
38,45732.859000,263.862,21.082,157.696,411.481,-259.999,267.363,107.220,-236.600,33.940
39,45732.900000,248.138,12.047,138.240,414.352,-256.512,256.501,59.220,-442.600,41.940
40,45732.920000,218.656,9.035,102.400,420.877,-262.974,249.410,99.220,-536.600,32.940
41,45732.960000,208.829,9.035,84.992,431.384,-254.767,240.649,82.220,-589.600,14.940
42,45733.0,207.846,10.039,64.512,432.312,-254.969,229.705,31.220,-568.600,-18.060
43,45733.49000,236.345,11.043,64.512,436.020,-259.675,220.658,85.220,-384.600,-28.060
44,45733.81000,249.121,12.047,72.704,437.996,-253.276,218.808,72.220,-164.600,-12.060
45,45733.120000,245.190,16.063,80.896,437.912,-259.650,220.662,87.220,116.400,-5.060
46,45733.164000,234.380,16.063,100.352,433.314,-250.454,225.824,123.220,287.400,6.940
47,45733.184000,229.466,12.047,88.064,433.208,-258.621,229.628,49.220,185.400,26.940
48,45733.233000,235.363,6.024,97.280,432.372,-251.187,235.753,8.220,212.400,48.940
49,45733.259000,233.397,8.031,117.760,433.187,-261.174,239.520,82.220,31.400,43.940
50,45733.305000,233.397,11.043,109.568,429.499,-253.934,237.680,106.220,-128.600,27.940
51,45733.340000,229.466,11.043,91.136,434.147,-259.466,232.596,-11.780,-239.600,-0.060
52,45733.380000,230.449,14.055,77.824,437.020,-256.719,230.669,17.220,-228.600,-40.060
53,45733.403000,229.466,14.055,69.632,438.968,-252.191,226.790,23.220,-145.600,-55.060
54,45733.443000,236.345,15.059,68.608,441.772,-254.883,227.731,27.220,-5.600,-54.060
55,45733.483000,233.397,16.063,79.872,436.177,-249.363,232.814,92.220,227.400,-41.060
56,45733.531000,238.311,19.075,94.208,432.366,-252.025,239.714,108.220,382.400,27.940
57,45733.564000,231.432,0.000,95.232,424.839,-250.078,250.685,81.220,405.400,31.940
58,45733.608000,235.363,24.094,110.592,425.856,-245.388,255.760,189.220,219.400,29.940
59,45733.640000,235.363,27.106,124.928,425.861,-245.329,258.745,30.220,52.400,42.940
60,45733.660000,236.345,16.063,120.832,420.128,-249.127,255.672,21.220,-137.600,73.940
61,45733.711000,231.432,22.086,104.448,429.560,-250.912,251.669,24.220,-196.600,45.940
62,45733.744000,225.536,18.071,86.016,430.527,-249.107,249.720,6.220,-220.600,31.940
63,45733.784000,225.536,17.067,73.728,433.261,-256.457,246.583,3.220,-127.600,7.940
64,45733.824000,239.294,14.055,80.896,426.662,-254.712,246.611,17.220,21.400,19.940
65,45733.864000,231.432,17.067,91.136,426.614,-258.357,247.528,75.220,180.400,49.940
66,45733.884000,231.432,14.055,93.184,422.933,-251.799,257.608,80.220,283.400,76.940
67,45733.924000,230.449,14.055,111.616,419.129,-253.603,261.543,0.220,266.400,78.940
68,45733.963000,229.466,13.051,122.880,417.247,-252.732,260.564,5.220,139.400,74.940
69,45734.11000,234.380,11.043,123.904,412.487,-255.445,265.472,23.220,9.400,53.940
70,45734.44000,227.501,13.051,114.688,414.423,-251.833,261.573,17.220,-110.600,29.940
71,45734.84000,223.570,8.031,96.256,414.339,-257.428,256.481,11.220,-222.600,19.940
72,45734.101000,224.553,10.039,89.088,418.159,-254.668,254.556,-2.780,-246.600,-9.060
73,45734.143000,227.501,9.035,87.040,423.872,-251.865,253.630,41.220,-233.600,5.940
74,45734.180000,232.415,6.024,78.848,423.778,-258.356,249.513,180.220,-177.600,19.940
75,45734.223000,235.363,-1.004,75.776,427.637,-252.828,248.641,70.220,-127.600,23.940
76,45734.263000,237.328,10.039,83.968,427.580,-256.571,244.583,61.220,-201.600,10.940
77,45734.303000,239.294,10.039,90.112,427.652,-251.113,242.710,82.220,-152.600,61.940
78,45734.343000,242.242,14.055,93.184,428.598,-251.101,242.712,80.220,-28.600,74.940
79,45734.363000,224.553,21.082,91.136,431.410,-252.915,241.683,121.220,-12.600,68.940
80,45734.403000,236.345,11.043,96.256,426.686,-252.899,245.655,13.220,57.400,47.940
81,45734.444000,236.345,11.043,102.400,425.688,-256.596,244.580,10.220,-101.600,-2.060
82,45734.485000,238.311,10.039,92.160,430.289,-265.753,241.408,16.220,-166.600,-11.060
83,45734.525000,237.328,7.027,79.872,431.360,-255.819,233.664,11.220,-193.600,-7.060
84,45734.568000,232.415,8.031,67.584,430.449,-253.103,232.726,-18.780,-141.600,-12.060
85,45734.583000,237.328,7.027,66.560,436.041,-259.421,233.594,-31.780,-48.600,-25.060
86,45734.630000,240.276,11.043,69.632,434.247,-252.137,232.752,17.220,104.400,-33.060
87,45734.664000,244.207,10.039,79.872,436.148,-252.014,237.730,36.220,151.400,-9.060
88,45734.704000,240.276,13.051,82.944,430.473,-252.050,239.711,67.220,158.400,22.940
89,45734.744000,233.397,14.055,101.376,428.602,-251.062,244.702,39.220,77.400,40.940
90,45734.780000,237.328,13.051,100.352,428.591,-251.958,245.677,17.220,-10.600,46.940
91,45734.821000,236.345,14.055,96.256,430.430,-255.637,243.613,6.220,-76.600,30.940
92,45734.845000,237.328,10.039,89.088,430.478,-251.992,242.696,-0.780,-153.600,21.940
93,45734.883000,234.380,10.039,80.896,436.093,-255.737,234.667,-23.780,-190.600,11.940
94,45734.924000,236.345,11.043,70.656,432.315,-254.930,231.695,-4.780,-195.600,-11.060
95,45734.970000,239.294,13.051,67.584,431.310,-258.704,226.640,-5.780,-145.600,-19.060
96,45735.45000,245.190,9.035,68.608,440.763,-259.476,227.632,-23.780,-45.600,-1.060
97,45735.61000,244.207,10.039,66.560,435.188,-252.183,229.768,25.220,105.400,-18.060
98,45735.70000,242.242,9.035,69.632,432.354,-252.162,232.748,3.220,244.400,-39.060
99,45735.103000,236.345,13.051,81.920,430.486,-251.134,239.730,72.220,280.400,-44.060
100,45735.143000,232.415,12.047,86.016,423.859,-252.021,245.669,35.220,285.400,-29.060
101,45735.193000,232.415,17.067,105.472,426.700,-251.964,246.669,14.220,230.400,-22.060
102,45735.225000,234.380,13.051,108.544,422.919,-252.735,256.594,-5.780,100.400,1.940
103,45735.265000,238.311,13.051,106.496,423.933,-247.303,252.732,-20.780,-19.600,8.940
104,45735.285000,237.328,14.055,99.328,425.803,-249.091,253.691,-17.780,-110.600,13.940
105,45735.324000,230.449,11.043,87.040,430.438,-255.539,248.588,-9.780,-188.600,15.940
106,45735.370000,231.432,9.035,77.824,432.403,-250.056,246.718,0.220,-174.600,14.940
107,45735.404000,235.363,12.047,75.776,431.325,-259.308,242.541,9.220,-105.600,5.940
108,45735.444000,241.259,10.039,73.728,428.561,-253.849,242.653,15.220,-27.600,17.940
109,45735.484000,243.225,13.051,75.776,427.624,-252.984,240.681,28.220,79.400,13.940
110,45735.534000,238.311,10.039,83.968,428.607,-251.003,247.687,96.220,223.400,22.940
111,45735.546000,226.518,8.031,79.872,424.819,-251.852,253.631,101.220,262.400,36.940
112,45735.594000,227.501,11.043,102.400,423.893,-250.851,258.624,27.220,185.400,15.940
113,45735.640000,232.415,9.035,109.568,421.979,-252.669,260.572,93.220,5.400,-31.060
114,45735.683000,235.363,15.059,105.472,421.090,-248.159,257.683,44.220,-105.600,-26.060
115,45735.709000,238.311,13.051,101.376,424.881,-247.271,253.729,2.220,-215.600,-7.060
116,45735.754000,234.380,14.055,87.040,429.517,-253.719,248.625,-43.780,-276.600,-8.060
117,45735.772000,235.363,12.047,78.848,432.408,-249.218,242.758,-74.780,-275.600,-17.060
118,45735.835000,237.328,10.039,67.584,438.012,-253.861,235.705,-82.780,-237.600,-35.060
119,45735.882000,239.294,14.055,66.560,436.175,-249.383,231.819,-51.780,-170.600,-41.060
120,45735.919000,240.276,11.043,69.632,435.238,-248.518,229.846,-14.780,-76.600,-37.060
121,45735.954000,244.207,14.055,78.848,439.063,-245.700,230.907,-11.780,111.400,-22.060
122,45735.996000,240.276,13.051,80.896,436.196,-248.369,236.813,1.220,218.400,18.940
123,45736.35000,234.380,11.043,89.088,433.398,-245.619,238.857,-37.780,125.400,-6.060
124,45736.50000,237.328,10.039,97.280,432.355,-252.922,240.689,34.220,9.400,-8.060
125,45736.74000,237.328,15.059,88.064,435.169,-254.717,240.655,31.220,-145.600,-35.060
126,45736.111000,238.311,11.043,82.944,437.186,-244.770,232.913,-21.780,-283.600,-31.060
127,45736.172000,240.276,14.055,73.728,439.940,-250.347,226.830,-18.780,-298.600,-41.060
128,45736.197000,240.276,13.051,69.632,443.862,-239.459,219.111,6.220,-248.600,-40.060
129,45736.236000,238.311,13.051,61.440,444.709,-245.996,212.011,23.220,-170.600,-35.060
130,45736.249000,244.207,13.051,60.416,449.505,-241.334,213.112,0.220,-68.600,-28.060
131,45736.315000,245.190,17.067,63.488,446.631,-244.080,215.038,8.220,82.400,-1.060
132,45736.352000,245.190,17.067,70.656,449.500,-242.152,218.067,15.220,168.400,6.940
133,45736.377000,236.345,15.059,77.824,442.790,-249.413,225.860,27.220,145.400,11.940
134,45736.407000,243.225,16.063,80.896,441.915,-243.967,223.985,14.220,84.400,3.940
135,45736.457000,240.276,17.067,82.944,440.967,-243.999,222.989,4.220,-3.600,-8.060
136,45736.471000,241.259,16.063,77.824,448.553,-242.944,225.011,-12.780,-58.600,-12.060
137,45736.535000,240.276,15.059,74.752,447.616,-242.080,223.039,-20.780,-85.600,-27.060
138,45736.574000,240.276,15.059,68.608,447.550,-246.699,220.952,-16.780,-81.600,-36.060
139,45736.599000,242.242,17.067,65.536,445.742,-240.350,219.095,-25.780,-20.600,-38.060
140,45736.641000,242.242,17.067,67.584,450.436,-243.036,219.044,-17.780,43.400,-30.060
141,45736.705000,244.207,18.071,66.560,445.761,-239.356,223.094,-45.780,125.400,-19.060
142,45736.791000,239.294,15.059,78.848,445.691,-244.794,225.963,-8.780,168.400,-19.060
143,45736.820000,237.328,19.075,78.848,447.639,-241.046,229.029,8.220,154.400,-17.060
144,45736.845000,238.311,17.067,82.944,441.936,-242.954,228.980,-44.780,110.400,-13.060
145,45736.906000,235.363,20.078,83.968,442.901,-241.947,232.981,-29.780,62.400,-11.060
146,45736.935000,237.328,18.071,82.944,441.992,-239.211,233.038,-22.780,22.400,-0.060
147,45736.959000,236.345,17.067,80.896,442.862,-244.715,231.928,-18.780,-9.600,-13.060
148,45736.994000,241.259,17.067,80.896,441.057,-238.327,232.061,-17.780,-20.600,-9.060
149,45737.11000,238.311,19.075,77.824,441.964,-241.082,231.009,-4.780,9.400,-9.060
150,45737.45000,241.259,16.063,83.968,440.086,-240.172,232.020,-15.780,26.400,1.940
151,45737.76000,237.328,19.075,77.824,439.989,-247.462,233.854,5.220,41.400,2.940
152,45737.114000,235.363,16.063,77.824,438.209,-239.241,234.027,-44.780,71.400,8.940
153,45737.147000,236.345,14.055,81.920,434.311,-247.537,233.844,-32.780,57.400,14.940
154,45737.175000,238.311,14.055,81.920,438.087,-248.364,235.822,-57.780,58.400,6.940
155,45737.207000,238.311,11.043,84.992,435.211,-251.150,235.758,-33.780,45.400,2.940
156,45737.234000,237.328,13.051,84.992,437.177,-245.647,234.883,-20.780,42.400,-5.060
157,45737.257000,242.242,15.059,88.064,438.164,-242.847,236.934,19.220,49.400,-24.060
158,45737.306000,237.328,23.090,84.992,438.119,-246.453,239.841,88.220,50.400,-43.060
159,45737.337000,239.294,29.114,86.016,435.312,-244.581,243.855,89.220,47.400,-63.060
160,45737.375000,236.345,42.165,81.920,438.224,-239.066,242.982,21.220,-7.600,-78.060
161,45737.415000,223.570,43.169,66.560,436.346,-237.376,237.048,-22.780,-15.600,-95.060
162,45737.434000,219.639,46.180,66.560,442.993,-236.255,243.049,-93.780,49.400,-162.060
163,45737.471000,227.501,46.180,73.728,443.971,-234.332,247.070,-132.780,150.400,-184.060
164,45737.535000,238.311,5.020,89.088,438.260,-236.337,242.046,-491.780,159.400,-145.060
165,45737.559000,256.000,-22.086,109.568,439.163,-239.911,245.950,-314.780,316.400,-131.060
166,45737.601000,276.637,-26.102,90.112,434.450,-238.979,249.941,-94.780,194.400,-80.060
167,45737.672000,245.190,-38.149,100.352,436.373,-237.063,252.968,14.220,223.400,-176.060
168,45737.682000,212.760,3.012,86.016,432.804,-222.260,263.225,474.220,290.400,-62.060
169,45737.707000,173.451,29.114,84.992,430.908,-223.864,276.118,581.220,266.400,95.940
170,45737.741000,242.242,112.439,116.736,425.413,-211.795,288.302,629.220,387.400,9.940
171,45737.800000,255.017,143.561,126.976,418.887,-206.112,302.339,222.220,477.400,-48.060
172,45737.825000,228.484,99.388,134.144,411.288,-208.863,307.242,-114.780,453.400,-3.060
173,45737.849000,176.399,83.325,97.280,406.457,-217.015,315.018,-156.780,217.400,2.940
174,45737.894000,129.228,60.235,70.656,405.530,-215.253,312.071,-371.780,45.400,-57.060
175,45737.912000,163.624,48.188,104.448,401.637,-222.730,306.933,-343.780,37.400,-160.060
176,45737.952000,222.587,91.357,105.472,407.390,-217.158,307.060,-193.780,70.400,-412.060
177,45737.995000,241.259,100.392,121.856,406.553,-208.965,305.244,-301.780,88.400,-505.060
178,45738.37000,294.326,79.310,159.744,410.395,-204.392,302.363,-312.780,173.400,-784.060
179,45738.76000,289.413,95.373,145.408,413.508,-184.220,301.802,-402.780,143.400,-925.060
180,45738.117000,201.950,56.220,148.480,420.268,-174.074,301.033,-427.780,120.400,-874.060
181,45738.135000,209.812,31.122,164.864,418.418,-170.513,297.128,-430.780,131.400,-463.060
182,45738.174000,183.278,51.200,181.248,416.503,-172.350,298.080,-224.780,112.400,-201.060
183,45738.215000,142.004,60.235,161.792,420.264,-174.113,299.043,-277.780,-33.600,78.940
184,45738.252000,219.639,9.035,144.384,414.339,-191.712,292.692,-552.780,11.400,282.940
185,45738.295000,199.002,3.012,126.976,409.492,-199.279,283.572,-484.780,-111.600,302.940
186,45738.342000,215.708,-19.075,120.832,408.297,-216.835,276.234,-583.780,-7.600,317.940
187,45738.395000,183.278,8.031,116.736,402.505,-225.174,275.053,-369.780,74.400,168.940
188,45738.407000,195.071,-17.067,99.328,402.395,-232.621,268.927,-562.780,76.400,219.940
189,45738.437000,310.050,-9.035,116.736,397.403,-251.123,262.558,-652.780,122.400,184.940
190,45738.487000,229.466,-11.043,112.640,391.754,-249.326,264.577,-350.780,262.400,38.940
191,45738.514000,333.635,-41.161,136.192,388.827,-255.777,264.436,-228.780,280.400,8.940
192,45738.560000,217.674,15.059,126.976,385.063,-254.813,269.424,-39.780,197.400,-78.060
193,45738.595000,174.434,7.027,114.688,383.106,-259.438,268.328,37.220,91.400,6.940
194,45738.614000,171.486,29.114,122.880,386.901,-258.511,266.364,-273.780,-138.600,21.940
195,45738.652000,244.207,28.110,131.072,387.719,-266.920,257.234,-364.780,-247.600,16.940
196,45738.696000,266.810,16.063,128.000,391.474,-268.000,246.276,-472.780,-299.600,82.940
197,45738.739000,267.793,12.047,123.904,396.946,-281.882,235.047,-664.780,-257.600,-36.060
198,45738.781000,156.745,-34.133,138.240,395.894,-288.522,223.964,-752.780,-244.600,-184.060
199,45738.814000,250.104,-57.224,151.552,398.718,-288.660,215.013,-374.780,9.400,-164.060
200,45738.839000,223.570,-66.259,150.528,402.543,-285.063,209.127,-427.780,44.400,-41.060
201,45738.880000,181.313,-54.212,145.408,396.817,-288.783,210.034,-85.780,55.400,58.940
202,45738.911000,175.417,-42.165,142.336,400.609,-288.655,214.021,216.220,79.400,78.940
203,45738.954000,175.417,-35.137,131.072,393.882,-296.870,219.804,337.220,24.400,173.940
204,45738.997000,146.917,-25.098,120.832,394.866,-294.870,227.806,460.220,-46.600,282.940
205,45739.40000,162.641,-33.129,141.312,390.247,-287.466,234.919,545.220,-12.600,405.940
206,45739.80000,211.777,-34.133,148.480,383.486,-298.391,242.633,486.220,-34.600,598.940
207,45739.94000,262.879,-39.153,158.720,370.147,-305.778,248.424,549.220,33.400,832.940
208,45739.136000,260.914,-24.094,146.432,365.400,-308.336,261.293,741.220,94.400,981.940
209,45739.179000,184.261,4.016,154.624,349.189,-319.229,276.951,739.220,92.400,954.940
210,45739.216000,232.415,1.004,182.272,332.121,-322.943,285.799,270.220,92.400,873.940
211,45739.254000,213.743,11.043,216.064,320.712,-328.336,298.597,570.220,312.400,649.940
212,45739.297000,156.745,10.039,202.752,312.184,-330.885,314.445,561.220,322.400,358.940
213,45739.324000,170.503,29.114,168.960,307.498,-328.881,326.416,605.220,150.400,211.940
214,45739.354000,142.004,25.098,158.720,304.822,-317.769,334.606,435.220,40.400,120.940
215,45739.410000,180.330,25.098,159.744,305.835,-313.897,344.636,587.220,76.400,24.940
216,45739.442000,166.572,40.157,128.000,305.063,-301.863,351.853,287.220,157.400,-17.060
217,45739.475000,168.537,32.125,147.456,306.042,-300.700,363.815,355.220,270.400,4.940
218,45739.522000,186.226,42.165,156.672,299.512,-294.297,367.921,329.220,390.400,-8.060
219,45739.540000,227.501,51.200,189.440,287.390,-282.335,379.098,348.220,493.400,-2.060
220,45739.577000,173.451,36.141,216.064,284.556,-283.093,389.024,33.220,612.400,30.940
221,45739.620000,243.225,10.039,237.568,268.468,-284.085,395.942,128.220,522.400,102.940
222,45739.657000,194.088,15.059,224.256,264.787,-277.527,406.022,89.220,323.400,44.940
223,45739.696000,207.846,-8.031,192.512,264.772,-278.463,405.008,95.220,-50.600,-37.060
224,45739.741000,178.365,-34.133,151.552,267.525,-284.819,405.871,54.220,-342.600,-97.060
225,45739.766000,144.952,-25.098,128.000,286.529,-278.273,400.071,299.220,-555.600,-186.060
226,45739.786000,100.729,-3.012,126.976,297.215,-257.961,401.513,850.220,-567.600,-194.060
227,45739.828000,117.436,37.145,141.312,304.118,-237.679,403.945,1061.220,-460.600,-96.060
228,45739.868000,210.795,87.341,152.576,312.929,-216.418,408.389,1014.220,-370.600,-42.060
229,45739.908000,240.276,107.420,146.432,319.631,-210.794,410.508,382.220,-148.600,32.940
230,45739.949000,291.378,61.239,151.552,315.016,-202.573,412.665,44.220,-136.600,53.940
231,45739.989000,292.361,59.231,140.288,319.745,-202.530,411.678,30.220,15.400,6.940
232,45740.6000,286.464,60.235,135.168,313.978,-209.037,410.537,59.220,3.400,26.940
233,45740.48000,186.226,64.251,126.976,315.846,-210.844,410.501,107.220,-6.600,-26.060
234,45740.99000,155.762,63.247,108.544,319.660,-208.923,412.537,-73.780,30.400,-38.060
235,45740.126000,118.418,60.235,120.832,315.876,-208.954,413.525,-172.780,22.400,-67.060
236,45740.168000,154.779,54.212,114.688,315.759,-216.478,403.418,-696.780,16.400,-147.060
237,45740.216000,152.814,34.133,152.576,314.591,-231.402,390.169,-696.780,-38.600,-213.060
238,45740.230000,176.399,21.082,185.344,315.435,-237.978,381.078,-821.780,16.400,-281.060
239,45740.279000,251.086,-41.161,216.064,317.174,-248.986,378.857,-477.780,-22.600,-191.060
240,45740.309000,251.086,-30.118,224.256,321.916,-247.267,369.949,-305.780,-225.600,-107.060
241,45740.349000,290.395,-28.110,203.776,325.570,-255.677,358.835,-265.780,-282.600,-120.060
242,45740.389000,215.708,-23.090,142.336,335.099,-250.172,352.998,-195.780,-369.600,-163.060
243,45740.429000,200.967,-33.129,96.256,341.600,-258.447,346.864,-185.780,-399.600,-155.060
244,45740.449000,174.434,-24.094,83.968,349.111,-262.128,340.829,-31.780,-315.600,-202.060
245,45740.489000,148.883,-23.090,84.992,353.061,-249.370,335.138,-123.780,-272.600,-218.060
246,45740.529000,157.727,-38.149,80.896,356.816,-251.210,332.121,-7.780,-72.600,-128.060
247,45740.569000,193.106,-24.094,119.808,355.982,-243.757,339.241,499.220,174.400,-104.060
248,45740.609000,198.019,27.106,128.000,350.613,-222.507,352.615,907.220,117.400,-5.060
249,45740.650000,275.655,136.533,193.536,348.857,-213.234,359.772,743.220,209.400,-230.060
250,45740.689000,299.240,133.522,196.608,348.006,-206.736,364.883,80.220,187.400,-217.060
251,45740.709000,258.948,95.373,157.696,348.116,-199.290,371.009,54.220,34.400,-196.060
252,45740.749000,189.175,75.294,143.360,349.890,-207.589,366.857,-149.780,-31.600,-153.060
253,45740.789000,133.159,59.231,107.520,347.137,-201.233,365.993,-172.780,-12.600,-151.060
254,45740.829000,140.038,56.220,93.184,349.982,-200.357,362.037,-202.780,4.400,-238.060
255,45740.869000,143.969,107.420,113.664,353.723,-203.134,358.005,-49.780,-22.600,-405.060
256,45740.909000,164.607,120.471,119.808,353.857,-193.095,356.230,-321.780,-52.600,-432.060
257,45740.950000,160.676,96.376,140.288,356.679,-193.253,346.284,-465.780,-57.600,-525.060
258,45740.971000,172.468,88.345,131.072,364.195,-196.096,336.289,-596.780,-142.600,-531.060
259,45741.11000,222.587,59.231,161.792,365.050,-201.776,326.223,-989.780,-180.600,-468.060
260,45741.50000,421.098,11.043,175.104,368.740,-207.457,314.171,-944.780,25.400,-166.060
261,45741.89000,222.587,-27.106,197.632,367.535,-225.130,300.863,-901.780,12.400,-138.060
262,45741.135000,279.585,-35.137,163.840,361.722,-234.483,294.688,-750.780,161.400,45.940
263,45741.166000,193.106,-32.125,137.216,362.457,-249.265,287.412,-502.780,-176.600,59.940
264,45741.189000,166.572,-30.118,102.400,368.135,-248.411,280.476,-460.780,-336.600,-23.060
265,45741.229000,143.969,-21.082,81.920,370.943,-249.504,269.516,-289.780,-375.600,-16.060
266,45741.278000,243.225,-64.251,122.880,372.698,-258.796,261.363,-552.780,-264.600,156.940
267,45741.311000,229.466,-42.165,126.976,366.880,-268.208,252.203,-96.780,-141.600,236.940
268,45741.361000,259.931,-61.239,133.120,363.062,-270.948,255.123,537.220,-34.600,471.940
269,45741.398000,256.000,-48.188,110.592,363.099,-268.979,262.127,745.220,-175.600,599.940
270,45741.410000,264.845,13.051,164.864,352.545,-280.812,272.801,730.220,-55.600,635.940
271,45741.450000,215.708,34.133,162.816,343.179,-275.186,285.837,778.220,47.400,738.940
272,45741.491000,188.192,11.043,198.656,330.704,-288.915,294.478,485.220,133.400,874.940
273,45741.531000,232.415,25.098,206.848,315.497,-295.275,307.250,492.220,231.400,627.940
274,45741.573000,168.537,1.004,200.704,306.110,-290.663,315.292,325.220,150.400,623.940
275,45741.613000,142.987,26.102,186.368,297.484,-298.981,317.091,186.220,8.400,438.940
276,45741.626000,122.349,39.153,144.384,295.546,-302.612,319.995,-195.780,-141.600,203.940
277,45741.669000,111.539,58.227,104.448,299.215,-310.087,309.895,-504.780,-136.600,-27.060
278,45741.713000,150.848,68.267,90.112,301.913,-318.626,292.808,-758.780,-173.600,-160.060
279,45741.755000,201.950,16.063,108.544,305.503,-330.876,272.660,-1684.780,-261.600,-88.060
280,45741.789000,265.827,-121.475,167.936,311.803,-350.750,235.445,-2128.780,-217.600,-45.060
281,45741.829000,271.724,-188.737,190.464,307.730,-368.792,205.216,-828.780,-144.600,290.940
282,45741.856000,240.276,-161.631,202.752,301.899,-379.899,202.982,-157.780,-77.600,375.940
283,45741.890000,215.708,-131.514,169.984,299.938,-385.343,206.841,272.220,-166.600,396.940
284,45741.930000,136.107,-98.384,131.072,301.876,-382.472,211.879,651.220,-334.600,223.940
285,45741.970000,126.280,-88.345,84.992,301.063,-373.226,217.047,585.220,-395.600,197.940
286,45742.25000,166.572,-104.408,74.752,305.821,-371.311,218.090,492.220,-456.600,259.940
287,45742.53000,163.624,-103.404,75.776,304.897,-370.291,224.078,414.220,-302.600,179.940
288,45742.70000,196.054,-123.482,91.136,307.766,-368.362,227.107,449.220,-153.600,228.940
289,45742.111000,226.518,-129.506,88.064,308.703,-370.006,236.025,664.220,-7.600,210.940
290,45742.166000,332.653,-83.325,101.376,304.069,-364.299,250.065,888.220,193.400,197.940
291,45742.189000,267.793,-13.051,111.616,304.275,-351.882,276.190,1257.220,204.400,109.940
292,45742.238000,342.480,27.106,158.720,303.546,-338.580,301.338,826.220,437.400,61.940
293,45742.271000,359.186,42.165,183.296,299.074,-321.743,322.577,735.220,499.400,-148.060
294,45742.311000,184.261,89.349,171.008,299.215,-313.166,339.669,695.220,485.400,-327.060
295,45742.333000,181.313,47.184,174.080,301.310,-299.223,348.920,534.220,347.400,-256.060
296,45742.373000,159.693,72.282,148.480,299.491,-295.310,362.926,475.220,118.400,-242.060
297,45742.411000,162.641,75.294,128.000,314.842,-280.335,369.235,305.220,-157.600,-156.060
298,45742.451000,184.261,68.267,124.928,315.855,-274.923,364.378,111.220,-234.600,-155.060
299,45742.493000,192.123,67.263,118.784,328.196,-271.993,365.454,9.220,-293.600,-188.060
300,45742.533000,194.088,51.200,130.048,329.165,-269.408,356.558,-118.780,-232.600,-238.060
301,45742.553000,207.846,44.173,139.264,336.724,-269.444,349.606,-50.780,-150.600,-239.060
302,45742.600000,181.313,36.141,117.760,345.355,-261.067,350.792,23.220,-225.600,-221.060
303,45742.631000,263.862,20.078,121.856,352.917,-261.065,345.830,119.220,-71.600,-278.060
304,45742.671000,270.741,28.110,82.944,355.836,-255.472,348.937,199.220,-17.600,-266.060
305,45742.713000,224.553,20.078,78.848,355.080,-241.703,351.219,372.220,98.400,-331.060
306,45742.756000,197.036,35.137,107.520,358.129,-226.890,357.506,386.220,210.400,-357.060
307,45742.778000,237.328,34.133,121.856,352.577,-218.564,365.632,70.220,414.400,-277.060
308,45742.809000,228.484,26.102,133.120,351.702,-213.898,370.703,-28.780,344.400,-238.060
309,45742.858000,221.605,22.086,147.456,343.179,-214.849,374.649,-16.780,284.400,-261.060
310,45742.889000,219.639,23.090,152.576,346.010,-215.669,377.620,27.220,165.400,-247.060
311,45742.934000,206.864,16.063,147.456,347.985,-210.069,381.720,-54.780,50.400,-166.060
312,45742.968000,204.898,10.039,137.216,346.137,-206.488,378.810,22.220,-17.600,-191.060
313,45743.7000,215.708,30.118,128.000,353.793,-199.995,377.965,31.220,-45.600,-247.060
314,45743.28000,215.708,21.082,109.568,352.842,-200.066,374.978,22.220,-30.600,-263.060
315,45743.70000,203.916,21.082,115.712,355.811,-190.808,378.163,160.220,2.400,-300.060
316,45743.110000,199.002,57.224,112.640,357.928,-175.073,385.464,539.220,-93.600,-311.060
317,45743.151000,213.743,75.294,129.024,359.062,-161.318,385.758,533.220,-89.600,-225.060
318,45743.190000,185.244,93.365,151.552,365.736,-157.566,385.848,568.220,-178.600,-17.060
319,45743.245000,189.175,103.404,188.416,361.161,-146.557,390.054,464.220,5.400,129.940
320,45743.259000,196.054,105.412,187.392,361.154,-147.414,393.020,260.220,13.400,342.940
321,45743.291000,212.760,89.349,162.816,358.204,-155.678,393.834,2.220,-76.600,466.940
322,45743.333000,206.864,67.263,136.192,356.165,-165.878,388.641,-203.780,-220.600,537.940
323,45743.374000,242.242,57.224,129.024,352.974,-190.826,379.153,-488.780,-250.600,492.940
324,45743.416000,245.190,53.208,140.288,349.080,-198.303,374.015,-390.780,-82.600,328.940
325,45743.450000,209.812,42.165,133.120,344.220,-207.566,371.822,-505.780,75.400,255.940
326,45743.470000,165.589,24.094,139.264,342.098,-224.140,368.482,-681.780,179.400,139.940
327,45743.516000,138.073,12.047,110.592,336.208,-239.010,361.194,-838.780,265.400,75.940
328,45743.553000,124.315,-48.188,139.264,329.271,-260.461,345.808,-1408.780,297.400,-39.060
329,45743.600000,160.676,-93.365,130.048,335.721,-272.420,338.601,-718.780,-2.600,-481.060
330,45743.641000,241.259,-107.420,175.104,340.520,-266.958,333.751,-480.780,60.400,-655.060
331,45743.670000,295.309,-88.345,145.408,347.294,-255.877,333.997,266.220,-10.600,-522.060
332,45743.715000,222.587,-34.133,120.832,351.310,-240.038,345.281,831.220,65.400,-177.060
333,45743.730000,17.198,52.204,88.064,352.651,-212.307,357.808,1368.220,-65.600,28.940
334,45743.774000,211.777,114.447,115.712,357.523,-202.908,366.967,668.220,-86.600,-247.060
335,45743.810000,336.583,146.573,121.856,358.628,-191.025,365.233,209.220,-64.600,-281.060
336,45743.850000,237.328,109.427,136.192,360.599,-185.464,367.343,-104.780,44.400,-350.060
337,45743.890000,289.413,87.341,188.416,357.869,-178.075,372.470,129.220,378.400,-152.060
338,45743.931000,216.691,117.459,157.696,350.246,-182.638,378.329,1.220,144.400,-160.060
339,45743.951000,174.434,83.325,141.312,347.460,-178.972,380.392,-263.780,399.400,-158.060
340,45743.991000,161.658,119.467,94.208,352.238,-176.064,385.434,137.220,8.400,-279.060
341,45744.31000,167.555,105.412,101.376,352.254,-174.329,380.498,-148.780,-42.600,-394.060
342,45744.71000,175.417,96.376,110.592,353.274,-168.839,379.622,-162.780,2.400,-502.060
343,45744.109000,195.071,113.443,120.832,356.104,-168.899,374.652,-245.780,20.400,-541.060
344,45744.151000,253.052,100.392,145.408,353.281,-167.222,368.715,-496.780,70.400,-515.060
345,45744.180000,191.140,59.231,191.488,353.259,-169.015,370.666,-282.780,165.400,-294.060
346,45744.214000,127.263,70.275,237.568,350.345,-174.549,370.544,-181.780,166.400,-54.060
347,45744.261000,178.365,44.173,219.136,344.505,-186.534,370.281,-329.780,205.400,243.940
348,45744.294000,157.727,25.098,198.656,334.949,-193.130,367.142,-266.780,-21.600,483.940
349,45744.334000,182.296,-2.008,186.368,331.809,-214.395,358.728,-492.780,-89.600,551.940
350,45744.388000,161.658,-13.051,150.528,332.624,-223.622,354.554,-466.780,-197.600,468.940
351,45744.428000,168.537,-18.071,132.096,328.689,-233.886,347.367,-465.780,-177.600,421.940
352,45744.435000,109.574,-26.102,140.288,325.557,-254.293,335.987,-555.780,-112.600,290.940
353,45744.475000,216.691,-33.129,162.816,324.430,-266.430,324.786,-696.780,89.400,6.940
354,45744.513000,275.655,-41.161,156.672,324.447,-264.695,319.850,-331.780,54.400,-146.060
355,45744.551000,198.019,6.024,178.176,323.508,-263.850,316.883,-285.780,90.400,-228.060
356,45744.594000,327.739,-33.129,159.744,324.355,-270.387,309.783,-404.780,-28.600,-113.060
357,45744.639000,270.741,1.004,143.360,330.055,-268.519,307.841,-160.780,-172.600,-173.060
358,45744.656000,238.311,-9.035,120.832,332.799,-274.973,303.730,-68.780,-272.600,-1.060
359,45744.700000,185.244,13.051,92.160,335.650,-273.259,295.813,-37.780,-374.600,102.940
360,45744.731000,176.399,7.027,77.824,337.443,-279.784,288.715,-160.780,-368.600,240.940
361,45744.791000,191.140,22.086,84.992,338.250,-289.108,279.566,-404.780,-261.600,259.940
362,45744.813000,224.553,37.145,87.040,336.203,-299.406,269.397,-806.780,-176.600,306.940
363,45744.895000,288.430,2.008,128.000,329.178,-326.510,245.933,-1379.780,-94.600,415.940
364,45744.903000,259.931,-81.318,165.888,320.415,-342.587,225.685,-1403.780,-62.600,470.940
365,45744.936000,178.365,-129.506,195.584,312.588,-359.548,206.415,-1076.780,20.400,310.940
366,45744.954000,193.106,-129.506,199.680,313.421,-367.021,198.300,-574.780,147.400,-55.060
367,45744.998000,181.313,-107.420,186.368,311.450,-372.582,196.189,-167.780,139.400,-161.060
368,45745.35000,174.434,-98.384,172.032,317.222,-366.016,200.316,-77.780,81.400,-175.060
369,45745.71000,155.762,-69.271,176.128,318.155,-367.699,207.244,230.220,119.400,-194.060
370,45745.96000,148.883,-60.235,151.552,321.088,-361.170,211.366,174.220,75.400,-117.060
371,45745.131000,142.004,-57.224,149.504,323.959,-359.223,215.390,195.220,50.400,-46.060
372,45745.171000,140.038,-61.239,147.456,327.690,-363.656,220.274,168.220,-11.600,29.940
373,45745.215000,137.090,-53.208,155.648,328.730,-357.152,224.393,266.220,-27.600,161.940
374,45745.255000,148.883,-70.275,161.792,319.243,-359.869,232.278,408.220,-5.600,433.940
375,45745.294000,168.537,-76.298,168.960,311.616,-365.252,243.093,496.220,-0.600,611.940
376,45745.341000,220.622,-84.329,162.816,301.115,-372.621,247.894,566.220,-21.600,812.940
377,45745.355000,256.983,-51.200,166.912,285.040,-373.456,262.772,793.220,-37.600,934.940
378,45745.394000,272.706,-36.141,172.032,275.496,-381.456,281.486,923.220,-38.600,1005.940
379,45745.435000,205.881,-22.086,178.176,257.629,-375.748,304.458,961.220,102.400,792.940
380,45745.474000,220.622,8.031,196.608,249.260,-367.205,325.514,897.220,192.400,571.940
381,45745.514000,132.177,-8.031,196.608,242.676,-365.285,334.497,745.220,204.400,381.940
382,45745.554000,152.814,21.082,163.840,239.092,-352.197,350.685,747.220,27.400,154.940
383,45745.585000,156.745,22.086,163.840,240.207,-340.976,361.866,608.220,-44.600,49.940
384,45745.614000,153.797,23.090,163.840,244.127,-331.647,368.038,542.220,-68.600,-34.060
385,45745.653000,178.365,25.098,168.960,243.307,-323.259,376.173,334.220,-34.600,24.940
386,45745.696000,175.417,26.102,169.984,249.041,-319.441,380.241,261.220,2.400,31.940
387,45745.736000,169.520,22.086,177.152,246.198,-320.297,385.192,380.220,65.400,98.940
388,45745.776000,169.520,16.063,181.248,243.502,-310.199,388.387,128.220,113.400,154.940
389,45745.793000,169.520,-6.024,188.416,237.770,-314.757,393.254,207.220,202.400,199.940
390,45745.838000,155.762,-2.008,182.272,232.257,-303.662,402.434,324.220,303.400,166.940
391,45745.873000,162.641,-5.020,186.368,221.895,-300.934,408.445,331.220,424.400,123.940
392,45745.914000,188.192,-16.063,189.440,217.287,-293.395,422.523,462.220,532.400,128.940
393,45745.955000,192.123,-20.078,180.224,203.171,-288.806,432.546,481.220,434.400,109.940
394,45745.996000,234.380,6.024,180.224,199.603,-274.003,442.802,474.220,303.400,65.940
395,45746.40000,260.914,10.039,193.536,193.003,-273.038,449.776,265.220,141.400,-122.060
396,45746.59000,266.810,7.027,196.608,197.797,-268.395,449.882,210.220,113.400,-264.060
397,45746.96000,232.415,22.086,173.056,205.507,-258.198,451.105,66.220,-40.600,-302.060
398,45746.132000,202.933,0.000,172.032,207.310,-264.605,449.976,-249.780,-41.600,-316.060
399,45746.176000,166.572,-4.016,151.552,214.929,-260.860,449.073,-140.780,-96.600,-346.060
400,45746.215000,157.727,-6.024,114.688,223.400,-263.594,444.054,-31.780,-222.600,-345.060
401,45746.255000,160.676,-9.035,91.136,229.228,-252.525,444.298,142.220,-302.600,-329.060
402,45746.271000,156.745,-8.031,94.208,238.775,-246.026,442.461,299.220,-285.600,-290.060
403,45746.311000,147.900,5.020,150.528,247.498,-231.177,446.769,637.220,-242.600,-234.060
404,45746.353000,226.518,70.275,199.680,250.467,-221.920,449.954,818.220,-151.600,48.940
405,45746.395000,190.157,84.329,251.904,251.630,-206.294,452.278,368.220,-139.600,15.940
406,45746.436000,222.587,53.208,267.264,244.075,-205.439,454.274,-62.780,90.400,235.940
407,45746.475000,198.019,35.137,226.304,241.028,-220.232,448.981,-228.780,-8.600,201.940
408,45746.495000,203.916,9.035,211.968,241.891,-225.814,443.891,-384.780,-73.600,223.940
409,45746.535000,156.745,-2.008,188.416,243.564,-241.441,439.582,-413.780,-166.600,96.940
410,45746.575000,156.745,-9.035,163.840,244.518,-240.571,436.618,-317.780,-173.600,-67.060
411,45746.615000,144.952,6.024,147.456,250.936,-254.441,425.391,-343.780,-233.600,-222.060
412,45746.663000,147.900,10.039,128.000,257.554,-254.431,421.423,-527.780,-275.600,-288.060
413,45746.695000,134.142,7.027,133.120,265.956,-261.044,405.380,-594.780,-207.600,-376.060
414,45746.734000,121.367,-5.020,123.904,274.320,-271.184,396.225,-872.780,-168.600,-490.060
415,45746.754000,110.557,-14.055,163.840,284.613,-278.571,386.137,-636.780,-119.600,-605.060
416,45746.794000,301.205,-16.063,189.440,296.049,-271.326,374.372,-257.780,-103.600,-326.060
417,45746.834000,228.484,21.082,203.776,297.981,-268.533,375.429,59.220,-164.600,-248.060
418,45746.874000,258.948,44.173,192.512,305.562,-267.537,374.467,292.220,-64.600,-230.060
419,45746.911000,224.553,65.255,169.984,305.689,-258.356,375.657,-39.780,-98.600,-176.060
420,45746.956000,167.555,35.137,141.312,308.418,-265.764,369.536,-223.780,-151.600,-150.060
421,45746.976000,161.658,31.122,125.952,311.232,-266.780,362.556,-326.780,-207.600,-125.060
422,45747.18000,172.468,13.051,116.736,314.927,-273.182,360.436,-314.780,-157.600,-92.060
423,45747.54000,191.140,2.008,119.808,317.742,-274.197,353.456,-230.780,-57.600,-94.060
424,45747.94000,192.123,9.035,107.520,318.647,-276.972,351.409,-79.780,-54.600,-175.060
425,45747.141000,175.417,38.149,117.760,318.799,-265.959,352.638,90.220,108.400,-360.060
426,45747.176000,216.691,68.267,132.096,318.870,-261.280,357.711,293.220,193.400,-569.060
427,45747.199000,229.466,67.263,125.952,321.813,-253.095,352.916,-269.780,213.400,-631.060
428,45747.239000,202.933,47.184,154.624,322.887,-243.882,355.103,-336.780,215.400,-710.060
429,45747.275000,282.534,33.129,199.680,325.801,-238.348,355.225,-233.780,287.400,-631.060
430,45747.315000,67.317,14.055,226.304,323.884,-240.205,355.183,-356.780,100.400,-385.060
431,45747.352000,220.622,7.027,250.880,324.861,-237.523,351.263,-209.780,179.400,-254.060
432,45747.405000,92.868,18.071,245.760,321.969,-241.264,349.190,-211.780,28.400,-117.060
433,45747.456000,102.695,1.004,226.304,322.894,-242.265,344.197,-269.780,-139.600,-28.060
434,45747.480000,179.347,1.004,203.776,324.712,-246.957,337.137,-231.780,-238.600,27.940
435,45747.496000,192.123,-8.031,167.936,328.326,-258.154,323.974,-521.780,-358.600,114.940
436,45747.552000,164.607,-32.125,144.384,332.958,-263.882,308.939,-525.780,-279.600,134.940
437,45747.575000,142.987,-33.129,148.480,330.007,-271.385,301.813,-629.780,-159.600,124.940
438,45747.623000,116.453,-15.059,135.168,330.863,-277.045,292.742,-230.780,-33.600,-123.060
439,45747.656000,198.019,-16.063,156.672,332.808,-273.336,293.818,-307.780,124.400,-180.060
440,45747.674000,203.916,8.031,158.720,335.469,-285.383,284.614,-483.780,-27.600,-188.060
441,45747.718000,277.620,-24.094,180.224,331.708,-282.841,276.705,-615.780,-28.600,-9.060
442,45747.758000,290.395,-6.024,172.032,336.359,-288.334,273.611,-265.780,-115.600,-1.060
443,45747.794000,270.741,-1.004,137.216,340.091,-291.228,263.609,-107.780,-235.600,30.940
444,45747.841000,206.864,-5.020,101.376,340.053,-293.976,263.550,101.220,-360.600,98.940
445,45747.875000,193.106,3.012,88.064,344.773,-294.050,256.593,-21.780,-401.600,223.940
446,45747.898000,184.261,15.059,92.160,342.726,-304.348,246.425,-234.780,-377.600,257.940
447,45747.936000,214.726,11.043,90.112,344.490,-312.763,236.302,-542.780,-419.600,298.940
448,45747.976000,273.689,-4.016,113.664,340.569,-321.331,222.189,-714.780,-295.600,294.940
449,45748.15000,278.603,-63.247,138.240,341.181,-343.697,201.821,-970.780,-287.600,259.940
450,45748.56000,160.676,-110.431,139.264,335.424,-347.787,183.822,-835.780,-309.600,232.940
451,45748.96000,156.745,-109.427,162.816,336.262,-354.422,171.746,-398.780,-71.600,-82.060
452,45748.118000,229.466,-84.329,161.792,336.277,-353.486,172.761,-122.780,-32.600,-130.060
453,45748.163000,199.985,-89.349,156.672,336.262,-354.422,171.746,15.220,-2.600,-20.060
454,45748.206000,188.192,-61.239,157.696,338.201,-351.551,176.783,219.220,88.400,-23.060
455,45748.243000,178.365,-46.180,133.120,338.143,-356.853,186.617,416.220,109.400,47.940
456,45748.275000,151.831,-23.090,126.976,336.331,-352.082,197.657,465.220,58.400,132.940
457,45748.320000,143.969,-18.071,131.072,330.549,-360.305,202.446,385.220,82.400,244.940
458,45748.355000,163.624,-39.153,141.312,323.950,-359.320,210.415,254.220,31.400,462.940
459,45748.375000,165.589,-44.173,145.408,312.533,-364.811,218.238,415.220,5.400,759.940
460,45748.426000,188.192,-74.290,155.648,298.264,-371.255,226.037,490.220,-97.600,1098.940
461,45748.463000,246.173,-88.345,188.416,272.590,-382.274,241.679,794.220,-96.600,1441.940
462,45748.502000,187.209,-84.329,200.704,246.976,-388.751,255.428,987.220,-242.600,1318.940
463,45748.536000,158.710,-56.220,220.160,239.421,-389.436,272.311,944.220,-73.600,939.940
464,45748.576000,177.382,-63.247,219.136,229.037,-389.280,287.218,906.220,-76.600,422.940
465,45748.596000,162.641,-64.251,189.440,227.357,-375.271,302.434,866.220,-171.600,134.940
466,45748.638000,165.589,-22.086,175.104,235.077,-365.717,317.568,963.220,-203.600,-74.060
467,45748.680000,173.451,27.106,145.408,248.571,-348.817,329.883,550.220,-297.600,-165.060
468,45748.716000,204.898,27.106,126.976,253.370,-344.115,332.974,304.220,-172.600,-174.060
469,45748.763000,204.898,27.106,113.664,257.181,-342.214,334.015,256.220,-76.600,-141.060
470,45748.802000,181.313,7.027,91.136,259.030,-345.015,329.980,-422.780,-44.600,-17.060
471,45748.823000,241.259,-17.067,139.264,261.861,-345.075,325.009,-169.780,153.400,39.940
472,45748.855000,188.192,-88.345,190.464,248.489,-354.392,325.786,-285.780,382.400,537.940
473,45748.904000,199.002,-89.349,214.016,239.934,-358.032,332.658,421.220,503.400,420.940
474,45748.939000,212.760,-53.208,197.632,232.492,-350.471,349.717,690.220,425.400,374.940
475,45748.985000,200.967,-53.208,172.032,216.511,-344.816,368.712,797.220,245.400,342.940
476,45749.18000,223.570,-16.063,141.312,213.897,-329.903,383.945,442.220,228.400,284.940
477,45749.56000,222.587,-34.133,104.448,207.159,-338.255,382.763,33.220,29.400,289.940
478,45749.76000,218.656,-33.129,99.328,209.924,-343.695,383.646,18.220,-27.600,120.940
479,45749.116000,183.278,-52.204,145.408,209.059,-337.373,379.800,-214.780,-61.600,75.940
480,45749.158000,148.883,-85.333,181.248,210.930,-339.141,381.755,-85.780,100.400,-174.060
481,45749.203000,159.693,-79.310,173.056,215.727,-334.459,383.851,178.220,37.400,-143.060
482,45749.238000,197.036,-37.145,208.896,218.616,-330.757,383.934,66.220,-5.600,-287.060
483,45749.275000,197.036,-42.165,200.704,226.258,-325.199,382.074,153.220,-159.600,-394.060
484,45749.296000,213.743,-29.114,163.840,238.565,-324.978,385.081,188.220,-265.600,-488.060
485,45749.334000,165.589,-37.145,145.408,255.856,-306.352,389.481,341.220,-303.600,-469.060
486,45749.376000,163.624,-35.137,131.072,268.243,-299.796,388.645,321.220,-174.600,-474.060
487,45749.416000,139.056,-28.110,93.184,278.004,-278.483,395.080,520.220,-233.600,-388.060
488,45749.456000,123.332,-10.039,83.968,285.747,-266.356,401.318,891.220,-144.600,-289.060
489,45749.500000,256.983,20.078,164.864,291.624,-252.402,408.586,732.220,-60.600,-313.060
490,45749.514000,193.106,62.243,148.480,298.663,-222.823,418.178,764.220,-224.600,-369.060
491,45749.556000,270.741,54.212,175.104,313.099,-205.190,420.564,466.220,-205.600,-343.060
492,45749.596000,262.879,64.251,175.104,317.955,-195.966,420.767,431.220,-272.600,-332.060
493,45749.639000,239.294,52.204,166.912,325.590,-191.266,421.873,261.220,-143.600,-342.060
494,45749.679000,199.002,41.161,149.504,332.388,-178.372,421.163,276.220,-187.600,-299.060
495,45749.727000,138.073,27.106,92.160,338.155,-171.865,422.305,365.220,-222.600,-382.060
496,45749.758000,115.470,38.149,73.728,349.759,-153.411,421.720,470.220,-212.600,-485.060
497,45749.778000,174.434,82.322,95.232,352.025,-126.682,429.254,663.220,64.400,-686.060
498,45749.819000,186.226,129.506,132.096,355.036,-113.858,427.543,350.220,104.400,-536.060
499,45749.861000,208.829,146.573,155.648,356.182,-99.187,427.856,-46.780,140.400,-482.060
500,45749.914000,256.983,162.635,187.392,354.295,-99.153,430.838,-115.780,168.400,-398.060
501,45749.939000,239.294,175.686,197.632,352.499,-91.888,429.001,-329.780,-27.600,-126.060
502,45749.979000,223.570,161.631,173.056,357.997,-104.698,425.753,-434.780,-130.600,-43.060
503,45749.999000,182.296,134.525,133.120,358.742,-118.583,417.501,-487.780,-251.600,31.940
504,45750.40000,139.056,122.478,108.544,360.578,-122.301,413.446,-474.780,-269.600,38.940
505,45750.80000,138.073,121.475,76.800,371.795,-131.469,405.311,-459.780,-341.600,60.940
506,45750.118000,126.280,113.443,71.680,371.472,-153.729,390.911,-524.780,-289.600,77.940
507,45750.158000,162.641,93.365,96.256,375.255,-152.938,381.982,-367.780,-154.600,128.940
508,45750.197000,201.950,90.353,111.616,373.082,-173.177,378.564,-508.780,-77.600,208.940
509,45750.215000,256.983,74.290,145.408,368.239,-180.705,371.434,-636.780,103.400,234.940
510,45750.256000,285.482,39.153,169.984,356.705,-193.720,369.151,-621.780,219.400,213.940
511,45750.296000,283.516,-50.196,214.016,347.976,-209.407,368.804,-483.780,454.400,340.940
512,45750.338000,222.587,-49.192,198.656,330.786,-221.464,372.501,-178.780,340.400,314.940
513,45750.378000,214.726,-59.231,184.320,330.794,-221.366,377.476,20.220,187.400,200.940
514,45750.419000,187.209,-33.129,141.312,325.156,-218.673,378.520,412.220,-64.600,83.940
515,45750.465000,190.157,-26.102,116.736,325.999,-226.029,376.375,30.220,-168.600,34.940
516,45750.479000,190.157,-7.027,94.208,331.732,-221.451,372.502,-35.780,-239.600,-67.060
517,45750.519000,194.088,-44.173,104.448,335.384,-230.660,367.339,-467.780,-96.600,-113.060
518,45750.559000,207.846,-69.271,109.568,333.482,-230.802,361.365,-576.780,-6.600,-95.060
519,45750.606000,191.140,-84.329,105.472,330.637,-231.678,365.321,121.220,303.400,-113.060
520,45750.639000,145.935,-40.157,149.504,330.761,-223.296,372.462,598.220,341.400,-189.060
521,45750.679000,172.468,58.227,145.408,327.360,-196.524,385.957,1075.220,245.400,-243.060
522,45750.700000,273.689,127.498,184.320,330.320,-188.144,391.113,205.220,117.400,-428.060
523,45750.740000,233.397,141.553,204.800,329.471,-181.626,397.218,79.220,128.400,-496.060
524,45750.786000,256.983,127.498,169.984,335.139,-181.668,391.258,-120.780,-147.600,-237.060
525,45750.821000,183.278,114.447,151.552,338.996,-176.161,389.391,33.220,-398.600,135.940
526,45750.857000,158.710,92.361,102.400,347.323,-189.050,380.178,-114.780,-666.600,379.940
527,45750.899000,221.605,90.353,90.112,354.820,-192.887,366.182,-88.780,-630.600,444.940
528,45750.918000,200.967,99.388,83.968,357.437,-207.762,352.939,-82.780,-610.600,461.940
529,45750.959000,231.432,94.369,102.400,356.352,-217.092,344.782,-280.780,-446.600,575.940
530,45751.17000,212.760,68.267,108.544,351.337,-236.647,331.428,-755.780,-407.600,647.940
531,45751.47000,215.708,13.051,100.352,344.334,-262.718,313.954,-1063.780,-352.600,755.940
532,45751.81000,179.347,-62.243,116.736,340.040,-297.211,285.364,-1006.780,-515.600,888.940
533,45751.123000,266.810,-117.459,171.008,330.275,-317.803,268.997,-718.780,-376.600,773.940
534,45751.159000,203.916,-108.424,181.248,322.584,-326.246,263.832,-63.780,-278.600,694.940
535,45751.177000,233.397,-93.365,164.864,315.833,-335.515,262.630,319.220,-237.600,526.940
536,45751.227000,208.829,-71.278,139.264,310.204,-332.704,269.644,612.220,-348.600,523.940
537,45751.263000,186.226,-56.220,109.568,308.213,-340.039,270.480,483.220,-424.600,505.940
538,45751.299000,170.503,-42.165,80.896,300.538,-347.527,267.325,298.220,-413.600,548.940
539,45751.341000,207.846,-31.122,53.248,293.946,-344.924,264.387,-122.780,-458.600,571.940
540,45751.379000,292.361,-55.216,50.176,293.760,-357.107,250.203,-316.780,-413.600,481.940
541,45751.401000,255.017,-57.224,59.392,289.819,-367.449,239.036,-322.780,-408.600,266.940
542,45751.441000,270.741,-96.376,79.872,286.769,-381.502,224.807,-704.780,-145.600,222.940
543,45751.481000,247.155,-141.553,83.968,285.795,-383.386,222.776,-43.780,149.400,-33.060
544,45751.521000,197.036,-95.373,75.776,283.940,-381.423,230.773,311.220,384.400,-170.060
545,45751.557000,212.760,-88.345,87.040,287.856,-372.913,241.900,154.220,582.400,-216.060
546,45751.599000,184.261,-88.345,79.872,277.518,-369.911,261.842,244.220,936.400,-126.060
547,45751.625000,166.572,-56.220,94.208,269.153,-360.550,277.943,265.220,937.400,-126.060
548,45751.661000,163.624,-49.192,121.856,257.858,-357.679,291.912,-57.780,950.400,-33.060
549,45751.703000,158.710,-67.263,150.528,242.719,-358.619,300.822,-85.780,853.400,23.940
550,45751.737000,136.107,-96.376,195.584,237.960,-361.313,306.725,-190.780,808.400,-33.060
551,45751.777000,165.589,-119.467,227.328,233.223,-362.214,310.677,-87.780,432.400,-57.060
552,45751.818000,193.106,-132.518,207.872,230.326,-366.773,313.560,39.220,157.400,-29.060
553,45751.839000,233.397,-114.447,185.344,237.914,-365.699,316.578,138.220,29.400,36.940
554,45751.879000,218.656,-74.290,164.864,239.908,-359.105,324.678,602.220,-278.600,-54.060
555,45751.918000,225.536,-31.122,143.360,248.544,-350.669,328.849,425.220,-295.600,-73.060
556,45751.956000,286.464,9.035,165.888,261.029,-337.583,334.119,405.220,-221.600,-246.060
557,45751.996000,238.311,21.082,154.624,269.557,-336.574,333.159,101.220,-259.600,-313.060
558,45752.43000,212.760,15.059,138.240,282.968,-324.489,333.436,152.220,-278.600,-319.060
559,45752.79000,209.812,34.133,94.208,294.452,-315.139,335.641,277.220,-350.600,-358.060
560,45752.100000,205.881,26.102,75.776,303.969,-310.530,330.780,208.220,-367.600,-323.060
561,45752.140000,221.605,30.118,71.680,314.452,-304.916,329.920,151.220,-281.600,-306.060
562,45752.180000,209.812,30.118,60.416,326.872,-295.670,326.157,-133.780,-209.600,-283.060
563,45752.221000,214.726,25.098,87.040,330.583,-300.337,319.101,-261.780,-130.600,-380.060
564,45752.263000,207.846,16.063,109.568,342.966,-293.840,315.279,-397.780,-61.600,-414.060
565,45752.310000,233.397,-31.122,124.928,340.080,-296.743,309.245,-348.780,27.400,-307.060
566,45752.319000,236.345,-38.149,142.336,343.801,-301.293,308.159,-288.780,143.400,-197.060
567,45752.359000,229.466,-37.145,148.480,341.058,-294.040,306.320,-50.780,195.400,-70.060
568,45752.403000,242.242,-21.082,141.312,342.035,-292.137,309.346,76.220,69.400,-80.060
569,45752.442000,227.501,-2.008,118.784,343.050,-287.466,313.425,169.220,-23.600,-101.060
570,45752.484000,204.898,0.000,110.592,347.735,-291.029,315.346,141.220,-92.600,-90.060
571,45752.519000,204.898,-10.039,102.400,349.701,-285.527,314.471,23.220,-0.600,30.940
572,45752.540000,173.451,-22.086,96.256,344.846,-294.731,315.263,-161.780,161.400,209.940
573,45752.580000,169.520,-31.122,116.736,339.115,-298.509,313.184,-309.780,186.400,386.940
574,45752.623000,212.760,-42.165,124.928,329.460,-313.195,317.831,110.220,83.400,445.940
575,45752.663000,222.587,-4.016,135.168,329.528,-308.556,320.913,256.220,-79.600,311.940
576,45752.699000,281.551,7.027,151.552,327.673,-305.832,320.969,170.220,-118.600,181.940
577,45752.742000,255.017,22.086,144.384,327.672,-306.612,327.915,303.220,-63.600,-100.060
578,45752.786000,238.311,30.118,120.832,332.577,-293.743,327.201,112.220,-33.600,-261.060
579,45752.801000,206.864,14.055,104.448,340.142,-293.702,324.229,44.220,-119.600,-226.060
580,45752.840000,154.779,-20.078,95.232,343.988,-289.090,323.338,-230.780,-68.600,-209.060
581,45752.884000,234.380,-37.145,102.400,344.853,-294.653,319.243,-241.780,-47.600,-313.060
582,45752.921000,241.259,-40.157,116.736,353.445,-289.043,319.375,146.220,20.400,-413.060
583,45752.969000,259.931,-17.067,134.144,354.640,-271.488,326.713,418.220,76.400,-378.060
584,45753.2000,230.449,3.012,147.456,359.582,-256.650,333.004,460.220,167.400,-324.060
585,45753.23000,230.449,18.071,132.096,359.697,-249.145,342.115,447.220,128.400,-390.060
586,45753.60000,211.777,59.231,96.256,364.612,-236.159,347.372,273.220,4.400,-373.060
587,45753.101000,186.226,65.255,93.184,368.549,-225.096,348.608,49.220,41.400,-449.060
588,45753.141000,183.278,73.286,72.704,373.412,-215.794,352.792,-62.780,90.400,-664.060
589,45753.182000,165.589,61.239,60.416,375.439,-205.731,351.020,-189.780,141.400,-622.060
590,45753.217000,175.417,78.306,57.344,374.596,-198.375,353.164,-162.780,304.400,-683.060
591,45753.237000,199.985,87.341,60.416,373.795,-188.213,358.353,44.220,482.400,-746.060
592,45753.285000,191.140,137.537,117.760,364.527,-175.278,370.550,88.220,601.400,-791.060
593,45753.317000,239.294,161.631,175.104,358.170,-156.848,380.879,-284.780,611.400,-662.060
594,45753.360000,181.313,125.490,216.064,352.388,-165.070,385.669,-327.780,522.400,-574.060
595,45753.402000,282.534,111.435,253.952,348.706,-157.752,387.808,-370.780,484.400,-583.060
596,45753.442000,133.159,102.400,245.760,340.246,-154.122,391.851,-370.780,408.400,-313.060
597,45753.490000,132.177,58.227,244.736,333.351,-173.546,386.455,-867.780,245.400,-35.060
598,45753.504000,150.848,39.153,237.568,325.646,-183.684,388.217,-503.780,255.400,108.940
599,45753.551000,161.658,46.180,206.848,324.436,-202.176,379.864,-881.780,-91.600,233.940
600,45753.580000,159.693,28.110,177.152,321.407,-215.215,370.631,-758.780,-78.600,222.940
601,45753.621000,169.520,4.016,151.552,322.057,-235.611,357.267,-961.780,-132.600,358.940
602,45753.668000,160.676,-37.145,135.168,317.873,-263.418,342.744,-910.780,-151.600,370.940
603,45753.700000,167.555,-36.141,132.096,311.004,-280.230,330.441,-823.780,-106.600,357.940
604,45753.754000,173.451,-57.224,128.000,308.019,-289.683,317.305,-730.780,11.400,260.940
605,45753.789000,120.384,-69.271,126.976,303.981,-307.315,307.972,-592.780,139.400,137.940
606,45753.810000,176.399,-66.259,119.808,301.992,-313.850,302.857,-427.780,-89.600,0.940
607,45753.844000,273.689,-72.282,169.984,304.829,-313.072,293.926,-399.780,59.400,-251.060
608,45753.885000,265.827,-45.176,146.432,309.609,-309.365,293.017,-206.780,-35.600,-260.060
609,45753.921000,301.205,-56.220,162.816,310.628,-303.875,292.141,-152.780,110.400,-278.060
610,45753.943000,279.585,-5.020,151.552,312.447,-308.567,285.081,-122.780,147.400,-187.060
611,45753.989000,194.088,-16.063,138.240,310.577,-307.559,291.068,-165.780,163.400,-7.060
612,45754.22000,167.555,-22.086,93.184,303.832,-315.989,285.905,-167.780,27.400,241.940
613,45754.69000,181.313,-15.059,101.376,297.148,-320.618,287.786,-164.780,89.400,271.940
614,45754.100000,187.209,19.075,126.976,290.410,-328.971,286.603,-164.780,213.400,248.940
615,45754.141000,219.639,15.059,139.264,277.907,-343.031,278.329,-854.780,392.400,352.940
616,45754.162000,143.969,-74.290,207.872,270.242,-349.622,274.198,-846.780,458.400,217.940
617,45754.205000,159.693,-146.573,289.792,263.432,-362.672,266.948,-489.780,499.400,69.940
618,45754.244000,147.900,-127.498,291.840,258.696,-363.553,271.896,-73.780,387.400,-95.060
619,45754.284000,148.883,-117.459,256.000,256.774,-366.229,276.809,-48.780,212.400,-67.060
620,45754.324000,118.418,-93.365,216.064,259.652,-363.424,277.868,176.220,46.400,-173.060
621,45754.364000,107.608,-76.298,191.488,260.571,-366.043,283.781,345.220,-79.600,-140.060
622,45754.412000,104.660,-58.227,162.816,268.296,-354.890,287.014,344.220,-147.600,-143.060
623,45754.421000,105.643,-37.145,159.744,267.481,-346.443,298.133,428.220,-72.600,-48.060
624,45754.464000,102.695,-32.125,168.960,268.483,-343.468,309.139,395.220,51.400,71.940
625,45754.504000,106.626,-42.165,190.464,261.824,-347.044,318.005,387.220,174.400,428.940
626,45754.544000,121.367,-59.231,201.728,253.206,-355.265,324.780,404.220,238.400,724.940
627,45754.582000,130.211,-60.235,200.704,234.414,-347.016,337.858,489.220,159.400,945.940
628,45754.624000,203.916,-55.216,219.136,219.165,-356.182,347.586,577.220,116.400,1179.940
629,45754.644000,221.605,-4.016,253.952,199.349,-354.242,366.497,774.220,255.400,990.940
630,45754.684000,146.917,32.125,245.760,182.416,-348.677,381.510,665.220,245.400,675.940
631,45754.724000,127.263,14.055,253.952,173.928,-347.678,391.465,484.220,423.400,355.940
632,45754.769000,69.282,18.071,226.304,162.771,-334.729,405.649,495.220,336.400,234.940
633,45754.804000,95.816,14.055,208.896,162.875,-328.121,415.736,402.220,125.400,85.940
634,45754.844000,88.937,9.035,193.536,162.070,-318.777,425.880,471.220,22.400,-33.060
635,45754.862000,103.678,15.059,204.800,165.088,-306.635,436.089,511.220,21.400,-140.060
636,45754.904000,113.505,43.169,210.944,168.107,-293.713,439.352,478.220,50.400,-185.060
637,45754.945000,115.470,46.180,211.968,167.249,-288.073,447.428,432.220,84.400,-144.060
638,45754.988000,95.816,70.275,203.776,172.285,-266.744,457.836,603.220,119.400,-129.060
639,45755.54000,159.693,87.341,214.016,167.573,-265.812,461.827,465.220,293.400,-21.060
640,45755.86000,180.330,78.306,197.632,163.911,-257.480,468.962,298.220,108.400,87.940
641,45755.102000,182.296,52.204,220.160,158.224,-258.432,470.922,5.220,144.400,165.940
642,45755.124000,186.226,41.161,234.496,153.573,-252.940,474.016,20.220,245.400,149.940
643,45755.162000,159.693,23.090,227.328,140.310,-254.050,472.979,45.220,293.400,142.940
644,45755.202000,147.900,-6.024,203.776,139.399,-252.113,478.986,112.220,136.400,170.940
645,45755.256000,139.056,0.000,187.392,137.483,-253.951,479.939,95.220,-8.600,111.940
646,45755.284000,135.125,-5.020,165.888,137.503,-252.177,476.993,93.220,-116.600,58.940
647,45755.323000,119.401,26.102,180.224,136.717,-241.079,483.196,526.220,-93.600,37.940
648,45755.344000,127.263,38.149,203.776,134.865,-238.317,485.241,409.220,9.400,187.940
649,45755.382000,94.833,87.341,238.592,135.097,-221.748,489.572,394.220,41.400,140.940
650,45755.425000,119.401,56.220,273.408,123.684,-226.421,492.440,22.220,170.400,195.940
651,45755.465000,136.107,40.157,275.456,122.651,-232.826,493.297,-144.780,136.400,288.940
652,45755.505000,159.693,30.118,262.144,111.338,-230.170,496.321,28.220,111.400,274.940
653,45755.545000,128.246,23.090,246.784,109.275,-242.202,491.088,-180.780,39.400,166.940
654,45755.565000,123.332,2.008,216.064,108.375,-238.589,489.175,-172.780,-28.600,72.940
655,45755.611000,94.833,5.020,187.392,113.012,-245.017,485.066,-174.780,-152.600,-114.060
656,45755.641000,78.127,-1.004,183.296,112.952,-249.578,485.964,-256.780,-123.600,-231.060
657,45755.681000,66.334,8.031,189.440,120.473,-252.363,478.953,-160.780,-138.600,-307.060
658,45755.725000,77.144,21.082,216.064,128.946,-255.077,474.929,-297.780,-52.600,-461.060
659,45755.769000,105.643,45.176,224.256,136.445,-259.656,469.870,-218.780,-145.600,-571.060
660,45755.794000,118.418,46.180,236.544,147.752,-262.391,462.866,-552.780,-231.600,-674.060
661,45755.826000,125.298,-5.020,248.832,169.435,-266.138,443.920,-775.780,-384.600,-675.060
662,45755.860000,189.175,-24.094,241.664,181.540,-279.835,437.678,-569.780,-428.600,-511.060
663,45755.900000,179.347,-48.188,240.640,192.780,-287.190,428.587,-525.780,-336.600,-366.060
664,45755.942000,175.417,-57.224,235.520,201.184,-294.562,420.485,-235.780,-233.600,-274.060
665,45755.982000,133.159,-33.129,207.872,207.005,-283.572,416.749,12.220,-235.600,-304.060
666,45756.24000,118.418,-40.157,183.296,220.277,-281.584,415.816,91.220,-267.600,-252.060
667,45756.40000,113.505,-39.153,149.504,223.181,-276.927,417.909,232.220,-304.600,-181.060
668,45756.84000,180.330,-28.110,151.552,230.813,-272.266,417.025,418.220,-130.600,16.940
669,45756.124000,142.987,13.051,173.056,226.287,-258.372,428.255,811.220,62.400,76.940
670,45756.165000,159.693,34.133,182.272,222.720,-243.549,439.506,800.220,140.400,106.940
671,45756.206000,190.157,96.376,203.776,221.083,-225.953,450.819,501.220,238.400,-132.060
672,45756.246000,190.157,111.435,235.520,219.285,-219.487,454.933,244.220,355.400,-340.060
673,45756.266000,141.021,99.388,217.088,211.741,-217.735,455.954,-64.780,309.400,-398.060
674,45756.314000,102.695,66.259,189.440,210.797,-217.728,456.947,-202.780,154.400,-350.060
675,45756.345000,81.075,34.133,176.128,211.714,-219.587,454.919,-327.780,67.400,-360.060
676,45756.385000,75.178,38.149,168.960,214.458,-226.060,449.813,-151.780,15.400,-472.060
677,45756.426000,81.075,66.259,172.032,222.156,-216.759,452.011,-123.780,-56.600,-584.060
678,45756.462000,137.090,82.322,207.872,233.586,-210.352,444.207,-132.780,-125.600,-732.060
679,45756.484000,197.036,116.455,249.856,243.118,-204.809,440.361,-179.780,-79.600,-849.060
680,45756.525000,270.741,138.541,266.240,248.837,-201.167,435.474,-356.780,-12.600,-841.060
681,45756.565000,192.123,80.314,240.640,251.504,-213.156,429.255,-671.780,152.400,-755.060
682,45756.605000,89.919,59.231,203.776,255.254,-215.055,423.252,-518.780,103.400,-646.060
683,45756.645000,-27.025,30.118,216.064,257.068,-220.566,421.148,-522.780,75.400,-279.060
684,45756.687000,118.418,9.035,226.304,252.164,-232.656,414.916,-316.780,6.400,150.940
685,45756.722000,71.248,-14.055,239.616,251.095,-241.030,408.768,-529.780,-64.600,132.940
686,45756.755000,109.574,-52.204,241.664,243.196,-264.229,398.316,-469.780,-85.600,488.940
687,45756.784000,106.626,-56.220,229.376,244.991,-270.734,392.213,-377.780,-398.600,472.940
688,45756.824000,105.643,-60.235,236.544,243.951,-276.458,381.148,-350.780,-485.600,468.940
689,45756.864000,68.299,-65.255,214.016,251.327,-289.418,368.948,-279.780,-677.600,403.940
690,45756.905000,148.883,-66.259,197.632,256.895,-296.009,355.885,-186.780,-617.600,416.940
691,45756.945000,147.900,-19.075,194.560,262.527,-298.780,350.862,94.220,-437.600,148.940
692,45756.965000,193.106,-11.043,197.632,262.547,-297.007,347.915,15.220,-266.600,126.940
693,45757.9000,249.121,9.035,195.584,266.283,-300.621,347.844,145.220,-274.600,105.940
694,45757.42000,254.035,14.055,199.680,269.179,-296.062,344.961,63.220,-256.600,154.940
695,45757.90000,197.036,-19.075,183.296,269.920,-310.766,341.666,6.220,-273.600,275.940
696,45757.129000,178.365,2.008,146.432,269.016,-307.211,336.767,5.220,-335.600,374.940
697,45757.161000,163.624,8.031,134.144,270.842,-311.806,334.682,-102.780,-360.600,320.940
698,45757.185000,153.797,22.086,106.496,271.670,-320.117,330.528,-120.780,-370.600,267.940
699,45757.226000,211.777,17.067,119.808,270.655,-324.009,319.503,-406.780,-282.600,260.940
700,45757.261000,229.466,-6.024,146.432,265.613,-344.636,298.169,-1147.780,-104.600,260.940
701,45757.301000,203.916,-99.388,193.536,261.519,-366.011,284.778,-950.780,137.400,217.940
702,45757.341000,146.917,-121.475,271.360,254.808,-371.732,277.684,-413.780,160.400,61.940
703,45757.387000,161.658,-107.420,266.240,254.783,-373.564,277.645,-78.780,120.400,-1.060
704,45757.407000,155.762,-95.373,231.424,250.964,-376.323,279.570,67.220,-20.600,-21.060
705,45757.448000,131.194,-66.259,199.680,258.630,-369.713,284.695,333.220,-99.600,-54.060
706,45757.486000,126.280,-53.208,187.392,257.717,-367.795,289.707,426.220,-107.600,-10.060
707,45757.526000,124.315,-27.106,157.696,259.610,-368.530,297.652,446.220,-72.600,106.940
708,45757.566000,103.678,-23.090,179.200,257.890,-356.528,303.872,317.220,-60.600,172.940
709,45757.609000,116.453,-48.188,199.680,256.843,-364.650,310.660,259.220,6.400,366.940
710,45757.645000,91.885,-68.267,212.992,246.517,-359.193,315.734,229.220,-35.600,572.940
711,45757.665000,140.038,-80.314,215.040,234.200,-361.070,321.644,355.220,-39.600,709.940
712,45757.705000,166.572,-79.310,210.944,221.904,-361.934,332.549,608.220,-90.600,819.940
713,45757.745000,207.846,-46.180,214.016,213.429,-360.019,342.523,697.220,-35.600,937.940
714,45757.792000,209.812,-16.063,202.752,203.959,-361.762,353.413,664.220,-96.600,872.940
715,45757.826000,180.330,-22.086,187.392,191.718,-358.903,367.381,652.220,-112.600,663.940
716,45757.866000,158.710,-16.063,204.800,187.136,-349.511,382.493,683.220,25.400,452.940
717,45757.885000,120.384,15.059,178.176,182.534,-341.134,392.611,720.220,40.400,247.940
718,45757.926000,129.228,23.090,169.984,187.291,-339.999,400.600,448.220,-123.600,114.940
719,45757.974000,140.038,21.082,154.624,188.432,-326.166,404.874,248.220,-117.600,-19.060
720,45758.7000,164.607,31.122,177.152,190.367,-323.334,407.921,241.220,120.400,-91.060
721,45758.49000,154.779,39.153,156.672,189.536,-315.842,417.031,223.220,246.400,-58.060
722,45758.86000,142.004,35.137,177.152,181.035,-314.999,419.026,116.220,381.400,-54.060
723,45758.104000,109.574,31.122,200.704,174.437,-313.235,420.048,-51.780,431.400,54.940
724,45758.146000,95.816,14.055,224.256,162.983,-320.695,420.867,-148.780,442.400,147.940
725,45758.189000,122.349,-22.086,258.048,154.535,-316.148,424.930,-13.780,437.400,181.940
726,45758.224000,143.969,-34.133,285.696,147.941,-314.345,427.943,237.220,392.400,239.940
727,45758.264000,145.935,-58.227,275.456,132.981,-302.421,439.115,425.220,288.400,369.940
728,45758.309000,185.244,-25.098,257.024,130.201,-298.696,444.164,592.220,217.400,329.940
729,45758.344000,193.106,-5.020,210.944,129.363,-292.042,457.234,557.220,-42.600,167.940
730,45758.369000,192.123,-4.016,208.896,131.339,-286.423,462.330,437.220,-142.600,10.940
731,45758.402000,186.226,3.012,191.488,137.140,-277.985,468.486,280.220,-159.600,-163.060
732,45758.442000,181.313,2.008,174.080,145.830,-265.066,467.779,148.220,-187.600,-223.060
733,45758.487000,162.641,12.047,172.032,150.607,-262.158,472.821,86.220,-138.600,-291.060
734,45758.526000,161.658,17.067,165.888,156.271,-263.019,471.817,59.220,-79.600,-300.060
735,45758.566000,145.935,26.102,157.696,162.038,-256.511,472.958,33.220,-84.600,-319.060
736,45758.591000,152.814,12.047,154.624,169.614,-255.573,469.011,-27.780,-47.600,-323.060
737,45758.627000,157.727,6.024,155.648,168.640,-257.457,466.980,5.220,-75.600,-293.060
738,45758.666000,157.727,9.035,152.576,176.238,-255.486,469.023,109.220,-100.600,-273.060
739,45758.706000,142.987,7.027,188.416,181.154,-241.720,467.334,424.220,-59.600,-263.060
740,45758.747000,199.985,49.192,226.304,181.252,-235.190,473.440,492.220,-165.600,-21.060
741,45758.787000,93.850,92.361,254.976,189.081,-216.670,478.819,593.220,-231.600,18.940
742,45758.809000,172.468,56.220,290.816,186.249,-215.850,475.849,-1.780,-150.600,124.940
743,45758.867000,190.157,39.153,278.528,189.021,-220.451,472.771,4.220,-150.600,238.940
744,45758.889000,176.399,34.133,243.712,191.854,-220.472,469.791,-54.780,-267.600,231.940
745,45758.925000,176.399,18.071,205.824,195.499,-230.539,467.593,-236.780,-355.600,200.940
746,45758.965000,163.624,-1.004,165.888,197.214,-242.599,458.387,-328.780,-384.600,111.940
747,45759.6000,134.142,-5.020,144.384,206.644,-244.404,453.389,-338.780,-313.600,-59.060
748,45759.46000,139.056,0.000,130.048,212.251,-249.007,448.326,-360.780,-233.600,-175.060
749,45759.66000,140.038,4.016,129.024,215.871,-260.127,439.143,-491.780,-71.600,-248.060
750,45759.106000,133.159,-1.004,141.312,218.684,-261.161,431.168,-505.780,94.400,-389.060
751,45759.145000,132.177,15.059,183.296,222.225,-278.596,426.824,-488.780,206.400,-638.060
752,45759.185000,132.177,2.008,208.896,226.099,-271.354,420.021,-729.780,89.400,-886.060
753,45759.226000,140.038,-30.118,258.048,246.841,-275.055,404.059,-698.780,-109.600,-1128.060
754,45759.274000,291.378,-47.184,266.240,256.338,-272.221,402.144,-451.780,-131.600,-889.060
755,45759.287000,281.551,-67.263,251.904,264.914,-267.567,400.267,338.220,-35.600,-353.060
756,45759.327000,146.917,16.063,156.672,271.737,-253.601,407.536,757.220,-291.600,-126.060
757,45759.367000,110.557,77.302,143.360,273.860,-237.027,410.876,346.220,-167.600,-113.060
758,45759.407000,193.106,57.224,163.840,279.515,-237.985,404.896,-160.780,-72.600,-99.060
759,45759.449000,143.969,60.235,154.624,277.598,-239.842,404.854,-177.780,131.400,-178.060
760,45759.489000,134.142,34.133,153.600,278.447,-247.120,406.690,-415.780,79.400,-256.060
761,45759.509000,127.263,14.055,153.600,278.400,-249.985,400.661,-393.780,123.400,-362.060
762,45759.555000,147.900,51.200,177.152,285.174,-238.904,400.907,-44.780,148.400,-593.060
763,45759.595000,190.157,117.459,185.344,293.786,-231.521,398.093,-173.780,-89.600,-675.060
764,45759.629000,251.086,81.318,228.352,296.685,-226.162,389.259,-511.780,-67.600,-807.060
765,45759.670000,236.345,70.275,222.208,308.929,-229.762,384.227,-348.780,46.400,-750.060
766,45759.706000,138.073,47.184,207.872,308.034,-226.090,385.299,-177.780,151.400,-438.060
767,45759.747000,91.885,41.161,217.088,305.223,-224.257,387.323,-9.780,127.400,-132.060
768,45759.767000,137.090,19.075,231.424,298.560,-227.112,386.258,-26.780,3.400,306.940
769,45759.807000,92.868,22.086,212.992,295.655,-231.769,384.165,31.220,-45.600,351.940
770,45759.847000,139.056,-13.051,211.968,289.846,-241.084,379.980,-305.780,-80.600,542.940
771,45759.887000,142.004,-44.173,177.152,285.745,-263.297,370.549,-356.780,-211.600,591.940
772,45759.927000,111.539,-50.196,165.888,285.500,-280.021,358.257,-490.780,-287.600,470.940
773,45759.967000,105.643,-46.180,160.768,282.529,-288.538,346.136,-506.780,-286.600,328.940
774,45759.991000,162.641,-33.129,137.216,283.290,-301.468,339.894,-534.780,-299.600,341.940
775,45760.27000,205.881,-71.278,162.816,281.278,-309.057,327.794,-346.780,-152.600,131.940
776,45760.67000,271.724,-42.165,196.608,279.346,-311.850,326.737,-222.780,141.400,109.940
777,45760.106000,293.344,-19.075,211.968,278.451,-308.178,327.808,-16.780,239.400,52.940
778,45760.157000,257.965,-24.094,190.464,270.848,-310.968,330.722,36.220,219.400,79.940
779,45760.187000,217.674,-27.106,167.936,267.963,-314.631,332.629,85.220,78.400,206.940
780,45760.206000,147.900,0.000,119.808,265.049,-320.165,332.507,-44.780,-108.600,227.940
781,45760.246000,116.453,27.106,123.904,261.212,-323.899,331.427,-187.780,-88.600,48.940
782,45760.299000,180.330,54.212,120.832,261.058,-334.172,321.262,-565.780,113.400,7.940
783,45760.335000,195.071,-3.012,143.360,255.194,-346.430,307.067,-1253.780,294.400,31.940
784,45760.369000,179.347,-139.545,209.920,248.241,-368.836,289.671,-1697.780,606.400,145.940
785,45760.407000,111.539,-171.671,248.832,235.688,-385.802,273.377,-996.780,587.400,0.940
786,45760.427000,133.159,-164.643,278.528,232.806,-388.646,270.329,-410.780,489.400,-88.060
787,45760.469000,121.367,-152.596,251.904,228.967,-393.179,275.200,-28.780,303.400,-88.060
788,45760.510000,97.781,-113.443,230.400,229.095,-383.979,277.385,200.220,168.400,-123.060
789,45760.547000,86.971,-71.278,205.824,227.207,-384.725,287.313,398.220,89.400,-125.060
790,45760.589000,93.850,-46.180,188.416,233.006,-377.067,300.415,476.220,-16.600,-96.060
791,45760.627000,88.937,-39.153,185.344,234.028,-372.318,308.474,281.220,-35.600,-68.060
792,45760.669000,84.023,-42.165,214.016,241.677,-366.682,310.595,170.220,28.400,50.940
793,45760.697000,77.144,-74.290,224.256,234.024,-373.136,313.430,111.220,-113.600,281.940
794,45760.727000,52.576,-67.263,234.496,234.031,-373.058,317.410,467.220,-185.600,436.940
795,45760.769000,216.691,-80.314,280.576,231.274,-367.521,321.503,124.220,-435.600,777.940
796,45760.810000,153.797,-7.027,293.888,225.612,-367.401,331.443,846.220,-267.600,577.940
797,45760.850000,153.797,15.059,290.816,224.822,-357.121,342.602,485.220,-329.600,586.940
798,45760.891000,171.486,-17.067,251.904,228.579,-360.482,355.466,637.220,-468.600,406.940
799,45760.906000,98.764,0.000,152.576,229.622,-353.179,353.634,565.220,-721.600,440.940
800,45760.947000,76.161,-3.012,76.800,240.111,-347.486,356.754,478.220,-1001.600,383.940
801,45760.990000,175.417,-16.063,103.424,246.695,-349.407,347.771,220.220,-952.600,421.940
802,45761.30000,250.104,-6.024,180.224,258.916,-354.819,343.696,403.220,-583.600,311.940
803,45761.69000,228.484,4.016,183.296,263.939,-334.407,354.084,721.220,-350.600,193.940
804,45761.110000,268.775,41.161,223.232,263.048,-330.696,357.146,445.220,-174.600,87.940
805,45761.130000,221.605,2.008,199.680,268.782,-326.878,361.214,234.220,-196.600,-51.060
806,45761.170000,162.641,3.012,159.744,278.309,-322.153,362.323,235.220,-293.600,-45.060
807,45761.209000,151.831,-2.008,138.240,283.104,-317.510,362.429,230.220,-332.600,-51.060
808,45761.251000,164.607,0.000,136.192,285.960,-316.498,365.439,379.220,-211.600,-48.060
809,45761.292000,168.537,0.000,129.024,290.842,-306.202,373.622,464.220,-20.600,-17.060
810,45761.327000,164.607,0.000,133.120,289.899,-306.175,375.611,392.220,179.400,-1.060
811,45761.374000,167.555,-2.008,142.336,282.602,-287.679,389.918,384.220,568.400,0.940
812,45761.389000,210.795,-3.012,153.600,268.517,-281.200,402.966,437.220,676.400,-26.060
813,45761.440000,151.831,7.027,179.200,256.436,-267.230,423.138,728.220,654.400,-73.060
814,45761.471000,178.365,9.035,199.680,245.305,-252.430,438.356,669.220,581.400,8.940
815,45761.511000,217.674,23.090,208.896,238.846,-241.348,447.534,714.220,359.400,-34.060
816,45761.551000,229.466,50.196,196.608,236.142,-232.107,453.695,354.220,236.400,-90.060
817,45761.596000,239.294,36.141,203.776,228.688,-224.683,463.788,418.220,265.400,-169.060
818,45761.611000,202.933,54.212,189.440,226.006,-213.649,467.997,274.220,199.400,-275.060
819,45761.647000,168.537,46.180,171.008,228.996,-203.377,476.177,136.220,154.400,-317.060
820,45761.689000,137.090,48.188,153.600,228.069,-201.616,473.230,119.220,109.400,-312.060
821,45761.729000,140.038,49.192,144.384,228.119,-197.952,473.308,31.220,33.400,-293.060
822,45761.776000,144.952,45.176,123.904,230.099,-191.514,473.448,22.220,18.400,-305.060
823,45761.810000,147.900,49.192,128.000,230.076,-193.327,474.404,20.220,109.400,-263.060
824,45761.831000,132.177,63.247,173.056,226.448,-182.305,478.611,155.220,73.400,-86.060
825,45761.870000,142.987,103.404,221.184,221.814,-175.058,477.764,344.220,119.400,116.940
826,45761.906000,152.814,122.478,276.480,216.101,-177.862,478.691,42.220,141.400,212.940
827,45761.951000,198.019,70.275,296.960,203.549,-196.347,478.279,-460.780,263.400,509.940
828,45761.991000,170.503,42.165,283.648,192.049,-206.652,474.064,-267.780,138.400,488.940
829,45762.30000,178.365,14.055,251.904,185.077,-231.593,467.555,-534.780,22.400,394.940
830,45762.51000,152.814,-14.055,204.800,183.108,-237.134,466.439,-336.780,-104.600,221.940
831,45762.91000,119.401,-15.059,151.552,185.840,-244.504,462.308,-314.780,-161.600,22.940
832,45762.131000,113.505,-28.110,140.288,191.414,-251.037,452.231,-459.780,-144.600,-225.060
833,45762.205000,91.885,-66.259,151.552,196.074,-255.652,447.166,-384.780,53.400,-306.060
834,45762.235000,85.006,-67.263,157.696,195.076,-259.349,446.092,-225.780,87.400,-429.060
835,45762.251000,95.816,9.035,209.920,199.938,-250.067,449.280,345.220,168.400,-508.060
836,45762.291000,209.812,89.349,233.472,202.092,-231.582,456.639,491.220,21.400,-543.060
837,45762.319000,175.417,98.384,264.192,207.858,-225.094,456.786,-47.780,2.400,-522.060
838,45762.346000,212.760,98.384,228.352,217.325,-224.151,451.847,-167.780,-96.600,-498.060
839,45762.386000,147.900,69.271,204.800,222.919,-229.670,446.764,-432.780,-76.600,-491.060
840,45762.431000,133.159,59.231,190.464,227.558,-236.079,443.651,-440.780,-81.600,-472.060
841,45762.466000,87.954,57.224,163.840,233.175,-239.805,436.617,-349.780,-126.600,-449.060
842,45762.506000,104.660,52.204,148.480,240.780,-236.216,427.753,-275.780,-174.600,-439.060
843,45762.537000,132.177,62.243,150.528,250.133,-243.538,421.644,-132.780,-209.600,-442.060
844,45762.579000,165.589,73.286,156.672,258.804,-231.613,416.937,-191.780,-183.600,-459.060
845,45762.609000,159.693,62.243,185.344,258.817,-229.917,410.011,-248.780,-38.600,-564.060
846,45762.649000,242.242,70.275,210.944,261.571,-235.494,403.928,-331.780,176.400,-528.060
847,45762.690000,182.296,33.129,271.360,255.958,-230.968,405.011,-323.780,388.400,-369.060
848,45762.730000,66.334,-21.082,315.392,245.432,-239.390,402.827,-299.780,228.400,72.940
849,45762.749000,123.332,-5.020,286.720,245.343,-245.823,401.695,75.220,16.400,356.940
850,45762.790000,113.505,-9.035,243.712,240.566,-248.731,396.653,-208.780,-290.600,382.940
851,45762.830000,136.107,-28.110,200.704,241.365,-258.913,390.470,-294.780,-406.600,369.940
852,45762.879000,142.004,-23.090,188.416,243.960,-275.581,379.178,-310.780,-388.600,375.940
853,45762.910000,156.745,-46.180,158.720,243.867,-281.292,368.115,-452.780,-297.600,322.940
854,45762.952000,136.107,-50.196,149.504,245.465,-302.416,363.689,-515.780,-176.600,197.940
855,45762.992000,97.781,-71.278,148.480,248.262,-303.646,345.764,-591.780,-60.600,8.940
856,45763.16000,100.729,-35.137,140.288,250.142,-304.537,345.748,-277.780,21.400,-272.060
857,45763.49000,191.140,-50.196,169.984,255.713,-311.869,341.621,-451.780,23.400,-184.060
858,45763.89000,141.021,-37.145,184.320,256.699,-308.310,335.731,-408.780,55.400,-318.060
859,45763.135000,226.518,-38.149,210.944,259.448,-313.944,326.663,-464.780,2.400,-147.060
860,45763.171000,261.896,-22.086,221.184,260.341,-317.636,324.596,-276.780,44.400,-233.060
861,45763.209000,256.983,-13.051,214.016,264.166,-314.818,325.657,-189.780,70.400,-216.060
862,45763.231000,209.812,-9.035,185.344,267.057,-310.317,319.789,-106.780,9.400,-103.060
863,45763.269000,149.866,-13.051,132.096,266.932,-319.478,319.594,-156.780,-108.600,13.940
864,45763.310000,142.004,-7.027,118.784,272.627,-317.668,314.668,-156.780,-230.600,134.940
865,45763.351000,151.831,6.024,115.712,267.726,-329.719,310.425,-210.780,-197.600,166.940
866,45763.389000,188.192,11.043,131.072,271.373,-338.986,302.276,-630.780,-6.600,198.940
867,45763.431000,262.879,-7.027,181.248,263.682,-346.649,290.166,-898.780,36.400,248.940
868,45763.449000,243.225,-99.388,226.304,255.729,-372.791,269.705,-1278.780,240.400,156.940
869,45763.491000,102.695,-155.608,211.968,252.770,-379.613,250.658,-1121.780,167.400,-19.060
870,45763.537000,68.299,-176.690,238.592,252.591,-391.717,240.453,-778.780,296.400,-256.060
871,45763.571000,121.367,-142.557,222.208,253.623,-385.312,239.597,-23.780,195.400,-319.060
872,45763.611000,113.505,-121.475,210.944,260.204,-388.810,243.510,56.220,143.400,-288.060
873,45763.652000,91.885,-82.322,202.752,266.061,-376.631,253.725,392.220,142.400,-245.060
874,45763.684000,101.712,-47.184,199.680,264.220,-374.511,269.681,547.220,110.400,-74.060
875,45763.719000,68.299,-16.063,210.944,269.020,-370.569,280.713,526.220,-7.600,31.940
876,45763.751000,65.351,-21.082,223.232,267.272,-360.439,284.905,304.220,-51.600,187.940
877,45763.790000,80.092,-47.184,250.880,259.606,-367.809,287.721,257.220,-149.600,503.940
878,45763.830000,94.833,-67.263,216.064,250.982,-376.108,290.515,315.220,-415.600,808.940
879,45763.870000,132.177,-57.224,202.752,248.120,-377.959,291.466,336.220,-683.600,971.940
880,45763.910000,237.328,-80.314,217.088,239.570,-380.761,294.378,415.220,-676.600,1062.940
881,45763.930000,178.365,8.031,221.184,236.665,-386.198,299.231,614.220,-525.600,556.940
882,45763.975000,208.829,-22.086,229.376,237.680,-381.527,303.310,357.220,-210.600,400.940
883,45764.10000,144.952,-34.133,215.040,233.873,-384.149,312.201,658.220,-208.600,286.940
884,45764.59000,138.073,-9.035,174.080,237.853,-371.039,324.421,545.220,-259.600,193.940
885,45764.91000,133.159,-16.063,156.672,243.511,-372.738,327.377,368.220,-291.600,43.940
886,45764.131000,158.710,-16.063,157.696,244.517,-368.944,333.427,475.220,-120.600,-21.060
887,45764.151000,155.762,-20.078,152.576,251.417,-349.461,341.809,552.220,-84.600,29.940
888,45764.191000,148.883,-28.110,175.104,248.518,-354.820,350.643,675.220,115.400,31.940
889,45764.232000,150.848,-15.059,174.080,244.181,-327.944,370.106,892.220,259.400,83.940
890,45764.271000,123.332,18.071,167.936,238.692,-315.797,386.271,875.220,201.400,52.940
891,45764.314000,211.777,33.129,162.816,239.807,-304.576,397.453,965.220,108.400,132.940
892,45764.351000,240.276,58.227,195.584,233.481,-284.236,411.801,651.220,210.400,112.940
893,45764.371000,269.758,65.255,229.376,229.814,-276.742,422.896,405.220,494.400,8.940
894,45764.415000,274.672,53.208,241.664,217.577,-273.064,431.908,306.220,525.400,-8.060
895,45764.451000,186.226,51.200,192.512,210.113,-265.757,436.031,84.220,329.400,-86.060
896,45764.499000,161.658,16.063,172.032,205.388,-265.741,440.003,-34.780,100.400,-142.060
897,45764.532000,133.159,21.082,144.384,208.140,-272.117,439.871,-32.780,-22.600,-187.060
898,45764.570000,128.246,14.055,146.432,211.089,-263.854,439.057,72.220,53.400,-114.060
899,45764.620000,103.678,25.098,186.368,204.458,-264.799,442.011,266.220,123.400,27.940
900,45764.659000,137.090,26.102,207.872,201.701,-259.261,446.103,71.220,-8.600,350.940
901,45764.672000,90.902,57.224,284.672,190.356,-258.515,445.108,247.220,80.400,361.940
902,45764.712000,168.537,38.149,279.552,188.422,-261.327,443.056,3.220,30.400,414.940
903,45764.752000,177.382,9.035,274.432,182.644,-268.731,442.890,-145.780,-44.600,478.940
904,45764.792000,198.019,-2.008,239.616,176.785,-281.710,438.626,-147.780,-69.600,390.940
905,45764.832000,172.468,-14.055,196.608,176.705,-287.266,435.524,-210.780,-184.600,283.940
906,45764.852000,146.917,-13.051,171.008,172.857,-291.896,435.420,-224.780,-257.600,59.940
907,45764.892000,110.557,-8.031,146.432,183.283,-290.024,430.502,-252.780,-251.600,-141.060
908,45764.932000,94.833,-5.020,151.552,187.837,-302.047,421.301,-338.780,-159.600,-271.060
909,45764.972000,96.798,0.000,159.744,195.393,-302.123,412.359,-518.780,-51.600,-421.060
910,45765.25000,147.900,21.082,193.536,211.301,-314.015,402.183,-619.780,-78.600,-655.060
911,45765.52000,192.123,-6.024,208.896,220.711,-315.274,378.298,-1015.780,-289.600,-836.060
912,45765.72000,144.952,-40.157,218.112,239.557,-319.820,367.289,-976.780,-391.600,-912.060
913,45765.112000,234.380,-76.298,215.040,255.569,-323.565,352.313,-693.780,-390.600,-696.060
914,45765.152000,235.363,-62.243,227.328,262.986,-332.958,335.215,-477.780,-272.600,-421.060
915,45765.192000,200.967,-68.267,204.800,276.248,-331.087,328.312,-244.780,-258.600,-299.060
916,45765.232000,159.693,-56.220,176.128,288.438,-338.390,321.212,-129.780,-306.600,-318.060
917,45765.274000,159.693,-63.247,144.384,292.315,-331.109,316.400,48.220,-340.600,-296.060
918,45765.291000,152.814,-59.231,123.904,307.681,-314.418,316.778,233.220,-379.600,-251.060
919,45765.330000,154.779,-39.153,105.472,313.368,-313.466,314.817,424.220,-274.600,-192.060
920,45765.371000,150.848,-40.157,106.496,318.299,-299.525,322.084,411.220,-123.600,-203.060
921,45765.411000,218.656,-23.090,122.880,321.343,-285.531,333.327,854.220,0.400,-177.060
922,45765.455000,202.933,52.204,181.248,320.542,-276.148,345.461,677.220,365.400,-214.060
923,45765.495000,221.605,73.286,185.344,317.024,-257.680,355.795,376.220,451.400,-305.060
924,45765.535000,222.587,74.290,210.944,313.358,-250.167,367.886,109.220,560.400,-419.060
925,45765.555000,162.641,89.349,178.176,311.483,-249.217,370.887,-277.780,365.400,-518.060
926,45765.601000,104.660,41.161,142.336,317.194,-246.452,367.970,-533.780,204.400,-590.060
927,45765.635000,80.092,37.145,153.600,319.115,-243.776,363.057,-390.780,220.400,-635.060
928,45765.671000,83.040,32.125,137.216,320.926,-249.326,358.963,-468.780,88.400,-541.060
929,45765.717000,78.127,54.212,155.648,326.757,-237.459,353.256,-341.780,-79.600,-512.060
930,45765.754000,111.539,50.196,169.984,338.062,-239.434,338.311,-548.780,-237.600,-595.060
931,45765.772000,368.031,15.059,266.240,337.102,-240.382,337.295,-342.780,71.400,-355.060
932,45765.812000,350.342,22.086,297.984,334.274,-239.523,336.315,-77.780,274.400,-49.060
933,45765.854000,190.157,70.275,246.784,325.827,-235.736,348.318,413.220,331.400,336.940
934,45765.899000,117.436,52.204,233.472,314.380,-243.118,353.118,-182.780,239.400,495.940
935,45765.934000,247.155,41.161,197.632,307.571,-256.148,346.862,-137.780,-174.600,453.940
936,45765.975000,189.175,44.173,174.080,309.326,-266.201,346.651,-125.780,-235.600,193.940
937,45765.995000,185.244,-3.012,174.080,310.243,-267.300,336.683,-162.780,-363.600,133.940
938,45766.32000,106.626,38.149,138.240,316.810,-270.955,332.636,20.220,-439.600,-210.060
939,45766.72000,82.058,64.251,132.096,328.142,-271.857,325.671,-96.780,-441.600,-387.060
940,45766.115000,152.814,49.192,176.128,342.416,-263.815,305.971,-673.780,-516.600,-519.060
941,45766.164000,180.330,-1.004,224.256,355.567,-268.631,285.000,-773.780,-592.600,-401.060
942,45766.195000,185.244,-32.125,230.400,360.183,-276.073,275.897,-313.780,-609.600,-174.060
943,45766.237000,154.779,-37.145,250.880,366.823,-273.491,263.031,-20.780,-571.600,233.940
944,45766.252000,223.570,5.020,204.800,368.567,-283.680,255.855,289.220,-537.600,440.940
945,45766.290000,159.693,-4.016,165.888,361.868,-288.484,248.780,205.220,-575.600,627.940
946,45766.332000,145.935,-24.094,123.904,357.921,-299.665,241.574,234.220,-577.600,832.940
947,45766.376000,119.401,-40.157,96.256,351.175,-308.114,235.416,210.220,-542.600,949.940
948,45766.415000,126.280,-32.125,105.472,340.466,-329.460,227.984,163.220,-552.600,946.940
949,45766.455000,135.125,-44.173,104.448,332.821,-334.277,220.907,188.220,-585.600,856.940
950,45766.475000,351.324,-67.263,146.432,317.442,-351.123,212.569,-67.780,-465.600,896.940
951,45766.517000,350.342,-64.251,152.576,313.591,-355.793,210.474,42.220,-372.600,546.940
952,45766.564000,318.894,-87.341,164.864,310.617,-365.109,204.304,-288.780,-292.600,328.940
953,45766.599000,162.641,-102.400,113.664,311.443,-372.660,192.209,-228.780,-349.600,15.940
954,45766.635000,188.192,-98.384,108.544,317.211,-365.373,186.405,-234.780,-289.600,-309.060
955,45766.689000,182.296,-105.412,95.232,331.462,-360.683,182.547,57.220,-213.600,-412.060
956,45766.697000,183.278,-94.369,93.184,338.161,-355.098,182.676,249.220,-166.600,-395.060
957,45766.734000,197.036,-97.380,103.424,343.935,-348.513,187.798,364.220,41.400,-370.060
958,45766.774000,186.226,-73.286,105.472,349.701,-342.785,195.885,502.220,68.400,-280.060
959,45766.814000,182.296,-64.251,131.072,355.600,-327.798,209.143,682.220,120.400,-155.060
960,45766.854000,182.296,-66.259,126.976,360.502,-316.508,221.326,697.220,121.400,-151.060
961,45766.894000,196.054,-68.267,137.216,358.663,-314.369,238.278,767.220,109.400,-22.060
962,45766.932000,252.069,-56.220,119.808,361.650,-304.897,252.409,947.220,46.400,185.940
963,45766.952000,237.328,2.008,125.952,362.791,-291.824,264.624,1030.220,48.400,283.940
964,45766.992000,293.344,11.043,130.048,355.335,-285.199,280.669,982.220,232.400,382.940
965,45767.32000,267.793,114.447,115.712,353.590,-276.569,301.737,878.220,191.400,145.940
966,45767.72000,243.225,50.196,143.360,348.980,-269.049,314.821,474.220,264.400,58.940
967,45767.114000,189.175,28.110,139.264,346.189,-266.981,328.785,549.220,310.400,-110.060
968,45767.152000,192.123,62.243,125.952,350.154,-254.826,338.996,420.220,262.400,-277.060
969,45767.172000,158.710,21.082,118.784,356.029,-240.892,345.269,401.220,165.400,-296.060
970,45767.214000,153.797,59.231,134.144,357.156,-228.755,356.470,494.220,195.400,-530.060
971,45767.254000,173.451,76.298,132.096,365.999,-205.583,364.934,431.220,221.400,-560.060
972,45767.294000,147.900,74.290,150.528,367.096,-195.337,373.111,358.220,211.400,-567.060
973,45767.335000,128.246,97.380,143.360,367.317,-179.665,378.418,468.220,186.400,-536.060
974,45767.389000,282.534,114.447,124.928,373.248,-161.228,380.808,311.220,172.400,-462.060
975,45767.397000,203.916,88.345,120.832,374.284,-154.783,381.941,255.220,-40.600,-199.060
976,45767.432000,259.931,117.459,125.952,376.383,-140.022,386.237,457.220,39.400,-189.060
977,45767.471000,243.225,115.451,136.192,379.289,-135.345,389.325,199.220,31.400,-105.060
978,45767.511000,227.501,116.455,146.432,377.509,-127.125,389.497,301.220,155.400,7.940
979,45767.551000,207.846,86.337,148.480,370.918,-125.283,394.500,-34.780,87.400,102.940
980,45767.592000,197.036,65.255,139.264,368.904,-134.430,396.292,255.220,5.400,239.940
981,45767.631000,188.192,62.243,134.144,367.015,-134.416,398.278,286.220,28.400,303.940
982,45767.657000,172.468,17.067,122.880,367.128,-126.931,406.395,555.220,-31.600,315.940
983,45767.691000,195.071,11.043,108.544,365.401,-115.007,408.635,1294.220,-60.600,296.940
984,45767.737000,237.328,56.220,102.400,365.711,-92.903,415.074,2027.220,-99.600,192.940
985,45767.777000,239.294,116.455,97.280,364.480,-45.152,423.051,2345.220,-30.600,292.940
986,45767.816000,185.244,136.533,111.616,365.909,-10.249,427.775,2104.220,2.400,400.940
987,45767.856000,171.486,176.690,112.640,362.514,18.141,430.363,1651.220,40.400,483.940
988,45767.876000,201.950,166.651,126.976,362.663,29.115,429.602,798.220,-34.600,592.940
989,45767.915000,216.691,145.569,114.688,370.133,21.886,429.459,376.220,-176.600,729.940
990,45767.957000,229.466,96.376,90.112,372.801,9.916,424.235,96.220,-310.600,816.940
991,45767.994000,228.484,104.408,89.088,383.011,-3.825,416.995,-89.780,-428.600,749.940
992,45768.34000,233.397,69.271,77.824,389.275,-28.747,402.549,-252.780,-483.600,685.940
993,45768.75000,213.743,46.180,59.392,398.570,-40.590,399.327,-291.780,-467.600,500.940
994,45768.95000,200.967,55.216,56.320,403.071,-56.316,388.058,-589.780,-413.600,476.940
995,45768.135000,206.864,74.290,71.680,410.312,-79.315,377.633,-770.780,-491.600,391.940
996,45768.176000,215.708,53.208,47.104,422.398,-93.226,360.446,-920.780,-668.600,167.940
997,45768.216000,219.639,61.239,43.008,436.242,-116.391,337.097,-989.780,-622.600,26.940
998,45768.256000,239.294,58.227,40.960,435.190,-123.031,326.013,-1025.780,-507.600,-74.060
999,45768.296000,253.052,73.286,35.840,442.576,-135.094,312.837,-947.780,-378.600,-82.060
1000,45768.316000,252.069,60.235,43.008,450.927,-145.391,295.721,-775.780,-388.600,-68.060
1001,45768.357000,240.276,63.247,37.888,451.713,-155.729,281.577,-710.780,-325.600,103.940
1002,45768.397000,232.415,73.286,44.032,455.274,-171.390,274.287,-796.780,-147.600,123.940
1003,45768.437000,229.466,51.200,40.960,451.403,-176.294,260.252,-988.780,-122.600,143.940
1004,45768.494000,244.207,71.278,41.984,448.234,-199.430,249.808,-1065.780,-20.600,28.940
1005,45768.516000,258.948,37.145,8.192,449.941,-211.588,235.627,-1116.780,-238.600,2.940
1006,45768.536000,258.948,-2.008,1.024,450.711,-222.881,219.474,-1071.780,-100.600,-18.060
1007,45768.577000,273.689,3.012,10.240,449.695,-226.793,207.453,-957.780,35.400,-68.060
1008,45768.617000,260.914,-13.051,14.336,449.483,-241.587,200.176,-924.780,137.400,-9.060
1009,45768.657000,238.311,-35.137,23.552,442.815,-244.501,196.125,-1011.780,196.400,-7.060
1010,45768.697000,246.173,-1.004,38.912,438.918,-252.017,188.997,-635.780,240.400,-77.060
1011,45768.739000,283.516,-15.059,61.440,439.898,-249.295,187.067,-642.780,235.400,-70.060
1012,45768.772000,286.464,-24.094,70.656,430.315,-258.523,189.841,-701.780,507.400,156.940
1013,45768.804000,237.328,-72.282,76.800,427.315,-270.451,190.577,-635.780,540.400,323.940
1014,45768.837000,211.777,-75.294,118.784,417.762,-277.788,196.375,-404.780,514.400,274.940
1015,45768.877000,204.898,-70.275,112.640,411.048,-285.087,202.177,-13.780,327.400,178.940
1016,45768.917000,202.933,-58.227,99.328,409.190,-283.163,208.183,-15.780,203.400,121.940
1017,45768.962000,219.639,-57.224,101.376,412.879,-290.403,210.024,97.220,60.400,17.940
1018,45768.997000,227.501,-57.224,105.472,411.879,-294.119,207.954,34.220,-156.600,-30.060
1019,45769.17000,232.415,-64.251,84.992,418.545,-290.464,203.068,105.220,-309.600,-68.060
1020,45769.56000,223.570,-43.169,84.992,424.365,-279.493,198.337,236.220,-389.600,-109.060
1021,45769.125000,229.466,-45.176,61.440,427.200,-279.495,196.352,236.220,-325.600,-23.060
1022,45769.172000,260.914,-48.188,52.224,434.862,-272.943,198.492,259.220,-137.600,-40.060
1023,45769.189000,263.862,-16.063,56.320,434.008,-266.484,201.612,316.220,112.400,-101.060
1024,45769.224000,310.050,-3.012,58.368,434.059,-263.579,209.631,415.220,336.400,-182.060
1025,45769.244000,226.518,44.173,61.440,439.015,-248.566,224.878,386.220,366.400,-283.060
1026,45769.277000,269.758,71.278,73.728,440.106,-239.937,243.961,330.220,577.400,-287.060
1027,45769.317000,247.155,69.271,95.232,435.518,-231.384,263.034,156.220,702.400,-165.060
1028,45769.359000,221.605,73.286,97.280,426.078,-231.236,276.949,11.220,799.400,35.940
1029,45769.399000,202.933,58.227,113.664,420.266,-242.129,285.660,-132.780,600.400,221.940
1030,45769.440000,199.985,55.216,128.000,410.846,-240.207,296.628,36.220,378.400,301.940
1031,45769.475000,179.347,35.137,132.096,408.006,-241.024,303.569,360.220,134.400,221.940
1032,45769.495000,190.157,57.224,116.736,409.027,-236.294,310.633,615.220,12.400,163.940
1033,45769.535000,194.088,67.263,114.688,408.173,-229.835,313.753,312.220,13.400,72.940
1034,45769.580000,235.363,58.227,115.712,409.162,-227.016,316.799,320.220,-69.600,11.940
1035,45769.615000,219.639,58.227,105.472,405.390,-226.130,317.807,306.220,-92.600,29.940
1036,45769.655000,264.845,24.094,108.544,409.212,-223.351,316.877,161.220,-135.600,121.940
1037,45769.696000,229.466,30.118,89.088,411.977,-228.791,317.760,299.220,-237.600,184.940
1038,45769.716000,239.294,14.055,78.848,413.033,-220.572,315.947,302.220,-309.600,267.940
1039,45769.757000,243.225,25.098,80.896,413.838,-230.676,313.744,405.220,-283.600,231.940
1040,45769.797000,224.553,33.129,79.872,418.673,-223.246,315.899,347.220,-283.600,185.940
1041,45769.835000,233.397,39.153,106.496,416.822,-219.704,310.998,336.220,-162.600,50.940
1042,45769.876000,227.501,47.184,89.088,416.865,-216.897,314.042,181.220,-117.600,45.940
1043,45769.916000,224.553,47.184,95.232,418.695,-221.452,313.947,89.220,-70.600,-12.060
1044,45769.936000,221.605,47.184,93.184,421.644,-213.189,313.133,6.220,-40.600,2.940
1045,45769.976000,221.605,48.188,97.280,419.700,-216.898,312.057,-111.780,-57.600,8.940
1046,45770.17000,219.639,55.216,107.520,420.574,-221.583,305.990,-136.780,-146.600,-5.060
1047,45770.57000,238.311,48.188,97.280,427.177,-222.510,301.007,-151.780,-298.600,-70.060
1048,45770.97000,222.587,44.173,80.896,431.905,-221.726,291.084,-148.780,-362.600,-85.060
1049,45770.137000,240.276,34.133,78.848,436.573,-225.484,283.054,-211.780,-343.600,-40.060
1050,45770.164000,232.415,37.145,65.536,439.420,-223.810,273.148,-156.780,-287.600,-8.060
1051,45770.199000,240.276,32.125,75.776,441.303,-223.902,267.181,-90.780,-226.600,18.940
1052,45770.251000,245.190,24.094,57.344,438.402,-227.740,260.132,-215.780,-134.600,76.940
1053,45770.290000,250.104,16.063,57.344,441.147,-234.194,256.021,-150.780,-158.600,87.940
1054,45770.319000,234.380,18.071,51.200,437.264,-240.774,249.907,-349.780,-239.600,70.940
1055,45770.366000,258.948,0.000,49.152,439.049,-247.396,237.833,-325.780,-399.600,31.940
1056,45770.409000,236.345,3.012,68.608,440.859,-252.186,225.798,-328.780,-492.600,17.940
1057,45770.417000,255.017,-31.122,92.160,445.478,-258.829,210.744,-205.780,-477.600,88.940
1058,45770.457000,260.914,-36.141,98.304,449.300,-254.511,194.927,-355.780,-580.600,65.940
1059,45770.496000,247.155,-32.125,74.752,452.084,-257.417,184.923,-297.780,-507.600,53.940
1060,45770.541000,246.173,-38.149,63.488,454.802,-264.962,171.836,-154.780,-441.600,-55.060
1061,45770.577000,249.121,-32.125,53.248,460.449,-266.018,160.881,18.220,-456.600,-110.060
