Sample, Time, ACCX, ACCY, ACCZ, MAGX, MAGY, MAGZ, GYRX, GYRY, GYRZ
0,51883.98000,249.081,38.727,-5.977,490.757,284.196,-36.192,-17.040,0.510,3.980
1,51883.127000,249.081,39.733,-4.981,492.645,279.361,-36.296,-18.040,3.510,3.980
2,51883.156000,252.046,37.721,-6.973,493.631,281.312,-36.250,-12.040,8.510,2.980
3,51883.181000,251.058,39.733,-5.977,494.580,279.380,-36.291,-2.040,15.510,1.980
4,51883.202000,252.046,37.721,-3.984,493.641,282.283,-36.229,-2.040,15.510,2.980
5,51883.249000,250.069,36.715,-4.981,489.761,281.274,-36.259,-6.040,9.510,0.980
6,51883.283000,250.069,40.739,-4.981,491.706,282.264,-36.233,-3.040,9.510,-0.020
7,51883.323000,251.058,37.721,-4.981,493.641,282.283,-36.229,-9.040,9.510,2.980
8,51883.365000,250.069,38.727,-3.984,494.582,279.401,-35.310,2.960,12.510,-2.020
9,51883.405000,252.046,39.733,-3.984,488.829,284.242,-33.253,11.960,15.510,-1.020
10,51883.428000,251.058,37.721,-3.984,492.699,284.280,-33.244,22.960,20.510,1.980
11,51883.476000,251.058,39.733,-3.984,492.685,283.266,-35.228,10.960,19.510,1.980
12,51883.578000,251.058,39.733,-4.981,491.741,285.241,-33.225,-4.040,18.510,0.980
13,51883.593000,252.046,39.733,-1.992,496.566,284.296,-34.217,-4.040,23.510,-1.020
14,51883.648000,251.058,39.733,-2.988,489.763,280.411,-31.375,-0.040,22.510,-2.020
15,51883.663000,249.081,39.733,0.000,493.666,284.289,-33.242,12.960,22.510,-9.020
16,51883.679000,251.058,39.733,-2.988,490.787,286.246,-31.243,3.960,17.510,-12.020
17,51883.740000,251.058,40.739,-1.992,492.635,277.505,-32.414,-3.040,20.510,-5.020
18,51883.748000,252.046,40.739,-0.996,489.742,278.448,-32.399,-7.040,21.510,-4.020
19,51883.773000,250.069,41.745,-0.996,492.628,276.556,-31.455,32.960,36.510,-14.020
20,51883.804000,251.058,40.739,0.996,491.736,284.314,-31.284,24.960,21.510,-15.020
21,51883.897000,249.081,39.733,1.992,491.741,285.241,-33.225,-22.040,-19.490,1.980
22,51883.922000,250.069,40.739,0.996,490.728,280.399,-32.354,-33.040,-38.490,6.980
23,51883.954000,251.058,42.750,-1.992,494.638,284.342,-31.278,-23.040,-43.490,13.980
24,51884.29000,253.035,39.733,-6.973,490.738,281.370,-32.332,-10.040,-18.490,12.980
25,51884.44000,252.046,40.739,-4.981,492.639,277.549,-30.452,17.960,11.510,-0.020
26,51884.69000,252.046,40.739,-4.981,493.680,285.303,-31.258,-12.040,44.510,-10.020
27,51884.118000,252.046,39.733,-1.992,493.677,284.397,-28.336,-27.040,50.510,-19.020
28,51884.143000,251.058,36.715,-1.992,492.698,282.511,-25.438,-42.040,69.510,3.980
29,51884.197000,255.012,40.739,-1.992,491.704,279.610,-24.524,-29.040,97.510,-4.020
30,51884.211000,249.081,39.733,3.984,493.674,282.606,-21.512,-14.040,95.510,-46.020
31,51884.240000,248.093,40.739,5.977,492.766,288.444,-20.403,-60.040,58.510,-21.020
32,51884.268000,248.093,43.756,6.973,488.881,286.508,-18.493,-53.040,19.510,2.980
33,51884.338000,251.058,40.739,5.977,494.674,285.572,-19.482,-22.040,4.510,22.980
34,51884.354000,248.093,42.750,5.977,491.751,283.580,-20.513,-11.040,-9.490,10.980
35,51884.363000,251.058,39.733,4.981,490.748,279.709,-19.621,-31.040,-20.490,11.980
36,51884.418000,250.069,41.745,1.992,488.905,289.377,-20.391,-26.040,-21.490,17.980
37,51884.460000,249.081,43.756,4.981,493.730,287.547,-17.479,14.960,-13.490,-0.020
38,51884.494000,251.058,38.727,5.977,493.730,287.547,-17.479,-13.040,-31.490,5.980
39,51884.538000,251.058,39.733,0.996,490.788,283.614,-18.553,-40.040,-38.490,17.980
40,51884.564000,254.023,38.727,-0.996,491.742,282.609,-20.535,-32.040,-18.490,19.980
41,51884.607000,251.058,39.733,0.996,492.737,285.531,-20.468,-28.040,5.510,12.980
42,51884.670000,249.081,41.745,2.988,494.686,286.564,-18.480,-16.040,14.510,9.980
43,51884.720000,248.093,39.733,2.988,493.700,285.498,-22.428,-20.040,12.510,2.980
44,51884.742000,250.069,41.745,5.977,490.751,280.615,-22.543,-31.040,0.510,2.980
45,51884.758000,248.093,40.739,5.977,495.635,284.632,-18.520,-26.040,-18.490,-0.020
46,51884.797000,251.058,41.745,1.992,487.857,280.673,-18.625,-13.040,-19.490,3.980
47,51884.838000,252.046,38.727,2.988,492.718,283.589,-20.511,-14.040,-14.490,1.980
48,51884.884000,252.046,38.727,1.992,493.705,285.541,-20.466,-16.040,-11.490,1.980
49,51884.939000,251.058,38.727,2.988,492.683,279.728,-19.616,-1.040,-11.490,3.980
50,51885.42000,250.069,40.739,0.996,491.730,281.617,-21.538,4.960,-11.490,1.980
51,51885.120000,252.046,38.727,1.992,492.714,283.546,-22.473,10.960,-14.490,-4.020
52,51885.142000,249.081,40.739,2.988,490.751,280.615,-22.543,-6.040,-23.490,-6.020
53,51885.182000,252.046,41.745,1.992,495.633,285.495,-23.405,-2.040,-27.490,-8.020
54,51885.226000,251.058,40.739,2.988,495.642,285.581,-19.480,-6.040,-26.490,-5.020
55,51885.226000,250.069,39.733,0.000,491.742,282.609,-20.535,-9.040,-27.490,-7.020
56,51885.256000,251.058,40.739,0.000,488.830,282.495,-24.466,-6.040,-16.490,-7.020
57,51885.279000,252.046,36.715,0.000,493.738,289.381,-22.342,2.960,-1.490,-10.020
58,51885.297000,251.058,41.745,-0.996,489.767,278.685,-21.607,8.960,5.510,-12.020
59,51885.322000,250.069,40.739,0.000,493.719,287.439,-22.385,0.960,1.510,-10.020
60,51885.339000,249.081,41.745,-1.992,495.661,288.407,-23.340,-2.040,-5.490,-8.020
61,51885.354000,252.046,40.739,1.992,494.628,281.602,-23.493,1.960,-1.490,-6.020
62,51885.424000,250.069,41.745,0.996,490.819,288.317,-25.313,6.960,-1.490,-7.020
63,51885.482000,251.058,41.745,0.996,494.703,289.369,-23.321,14.960,-2.490,-5.020
64,51885.498000,251.058,40.739,0.996,491.791,288.370,-23.349,14.960,-5.490,-4.020
65,51885.519000,252.046,40.739,1.992,489.838,286.409,-23.397,-12.040,-17.490,-8.020
66,51885.544000,252.046,40.739,-0.996,490.784,284.455,-24.419,-32.040,-20.490,-8.020
67,51885.580000,251.058,39.733,5.977,491.702,279.589,-25.505,-13.040,-30.490,-14.020
68,51885.627000,251.058,42.750,2.988,485.961,286.307,-26.349,-55.040,-63.490,-18.020
69,51885.657000,250.069,42.750,4.981,492.759,289.264,-27.250,-37.040,-102.490,-6.020
70,51885.695000,241.174,47.780,8.965,488.878,288.234,-28.261,48.960,-145.490,37.980
71,51885.738000,237.220,44.762,12.949,492.730,288.099,-36.102,76.960,-297.490,36.980
72,51885.779000,253.035,37.721,5.977,491.657,279.157,-45.128,99.960,-411.490,36.980
73,51885.799000,248.093,36.715,-4.981,485.825,278.842,-56.915,131.960,-504.490,3.980
74,51885.840000,245.127,39.733,-29.883,482.025,288.276,-67.501,100.960,-475.490,-72.020
75,51885.882000,252.046,41.745,-41.837,479.056,284.083,-80.349,152.960,-387.490,-134.020
76,51885.918000,241.174,28.668,-47.813,479.116,291.699,-87.045,40.960,-266.490,-175.020
77,51885.957000,245.127,58.845,-46.817,474.300,294.500,-89.935,-63.040,-154.490,-199.020
78,51885.997000,249.081,42.750,-51.798,475.307,298.415,-88.865,-247.040,-19.490,-183.020
79,51886.37000,244.139,51.804,-41.837,471.534,307.223,-83.774,-241.040,59.510,-200.020
80,51886.85000,255.012,52.809,-30.879,470.634,313.146,-78.741,-272.040,99.510,-186.020
81,51886.120000,250.069,59.851,-30.879,467.774,316.160,-72.796,-173.040,70.510,-173.020
82,51886.140000,255.012,45.768,-26.895,462.960,318.098,-70.802,-36.040,122.510,-208.020
83,51886.175000,238.208,63.874,-21.914,460.091,321.910,-72.685,6.960,63.510,-157.020
84,51886.223000,241.174,68.904,-21.914,463.072,328.863,-66.640,-93.040,-8.490,-86.020
85,51886.258000,245.127,49.792,-25.899,461.145,329.794,-67.604,-50.040,-16.490,-55.020
86,51886.299000,233.266,82.986,-20.918,461.171,332.685,-68.521,-49.040,-67.490,-53.020
87,51886.339000,248.093,40.739,-26.895,457.289,331.655,-69.533,-107.040,-86.490,-70.020
88,51886.379000,242.162,79.969,-34.864,456.331,332.616,-69.513,-89.040,-133.490,-41.020
89,51886.420000,248.093,61.862,-30.879,454.430,336.438,-71.394,-73.040,-71.490,-10.020
90,51886.460000,230.301,77.957,-48.809,457.299,332.626,-69.511,36.960,-19.490,-32.020
91,51886.479000,247.104,51.804,-40.840,454.411,334.496,-71.437,-27.040,78.510,-10.020
92,51886.520000,242.162,77.957,-25.899,458.266,332.635,-69.509,-58.040,51.510,18.980
93,51886.555000,245.127,50.798,-36.856,455.361,331.701,-66.594,-208.040,61.510,50.980
94,51886.602000,244.139,63.874,-17.930,455.309,325.919,-64.761,23.960,73.510,-9.020
95,51886.635000,242.162,62.868,-32.872,455.386,332.822,-59.704,17.960,116.510,-22.020
96,51886.683000,242.162,63.874,-17.930,456.368,334.730,-61.621,218.960,160.510,-93.020
97,51886.728000,246.116,62.868,-12.949,458.286,331.945,-56.775,-60.040,-34.490,15.980
98,51886.763000,252.046,47.780,-8.965,457.338,334.761,-60.638,-41.040,-129.490,18.980
99,51886.784000,248.093,63.874,-14.942,454.354,327.786,-67.663,10.960,-168.490,19.980
100,51886.825000,239.197,68.904,-40.840,453.450,333.667,-64.593,11.960,-132.490,5.980
101,51886.860000,240.185,64.880,-28.887,455.366,333.513,-72.437,56.960,-103.490,-22.020
102,51886.902000,243.151,66.892,-25.899,452.483,335.426,-72.401,31.960,-138.490,-28.020
103,51886.949000,237.220,69.910,-33.868,450.490,330.445,-77.419,-56.040,-140.490,-31.020
104,51886.977000,249.081,60.857,-16.934,444.765,339.083,-79.201,8.960,-138.490,-53.020
105,51887.19000,234.255,78.963,-48.809,449.542,333.262,-81.281,-4.040,-116.490,-34.020
106,51887.59000,247.104,63.874,-40.840,444.742,337.098,-81.206,-26.040,-8.490,-28.020
107,51887.99000,240.185,66.892,-29.883,447.593,332.229,-83.270,-10.040,-20.490,-7.020
108,51887.119000,236.232,81.980,-46.817,449.598,339.087,-81.152,-69.040,1.510,26.980
109,51887.180000,246.116,62.868,-35.860,451.502,335.287,-78.290,-91.040,35.510,40.980
110,51887.205000,242.162,69.910,-38.848,449.534,331.428,-76.419,-38.040,83.510,54.980
111,51887.240000,244.139,69.910,-35.860,452.431,330.529,-74.471,-104.040,138.510,50.980
112,51887.300000,246.116,60.857,-34.864,450.543,334.480,-70.465,-87.040,165.510,41.980
113,51887.325000,242.162,71.921,-34.864,457.380,339.573,-62.492,-53.040,209.510,57.980
114,51887.360000,239.197,65.886,-25.899,458.305,334.771,-60.635,-86.040,204.510,75.980
115,51887.424000,244.139,57.839,-22.911,458.269,329.140,-51.934,-130.040,183.510,66.980
116,51887.453000,248.093,62.868,-13.946,459.264,331.177,-47.965,-18.040,181.510,47.980
117,51887.482000,239.197,63.874,-18.926,461.199,330.312,-44.057,-81.040,147.510,42.980
118,51887.514000,243.151,55.827,-10.957,456.366,330.307,-42.106,-26.040,128.510,27.980
119,51887.543000,245.127,61.862,-10.957,461.208,330.398,-40.132,-18.040,60.510,17.980
120,51887.580000,241.174,65.886,-13.946,459.273,330.379,-40.137,-68.040,3.510,16.980
121,51887.622000,248.093,58.845,-11.953,461.210,330.419,-39.151,26.960,5.510,14.980
122,51887.657000,245.127,60.857,-16.934,460.259,331.445,-36.189,34.960,-6.490,12.980
123,51887.700000,245.127,66.892,-17.930,462.123,324.625,-38.297,-2.040,-3.490,10.980
124,51887.745000,245.127,63.874,-14.942,459.249,327.509,-38.239,5.960,-8.490,9.980
125,51887.764000,246.116,63.874,-11.953,463.129,329.403,-42.112,-11.040,-26.490,12.980
126,51887.849000,245.127,59.851,-15.938,463.069,322.671,-39.319,-25.040,-35.490,2.980
127,51887.884000,243.151,60.857,-16.934,460.174,323.592,-40.286,-5.040,-47.490,4.980
128,51887.900000,247.104,61.862,-21.914,465.045,327.480,-42.150,9.960,-22.490,3.980
129,51887.917000,244.139,62.868,-17.930,462.173,330.386,-41.111,23.960,-11.490,0.980
130,51887.957000,243.151,65.886,-18.926,463.055,321.657,-41.303,-8.040,-21.490,8.980
131,51888.2000,245.127,60.857,-18.926,463.136,330.352,-43.071,-12.040,-10.490,4.980
132,51888.37000,245.127,63.874,-14.942,462.093,322.576,-43.246,6.960,-10.490,2.980
133,51888.57000,246.116,60.857,-19.922,457.298,326.455,-41.209,-15.040,-14.490,8.980
134,51888.104000,246.116,61.862,-17.930,462.088,322.532,-45.208,15.960,-5.490,0.980
135,51888.144000,244.139,63.874,-14.942,460.201,327.368,-45.105,-15.040,-16.490,5.980
136,51888.178000,248.093,57.839,-16.934,462.098,323.503,-45.187,-5.040,-16.490,-1.020
137,51888.224000,246.116,61.862,-16.934,460.229,330.281,-45.040,4.960,-7.490,-8.020
138,51888.284000,245.127,62.868,-18.926,460.154,322.514,-45.213,15.960,3.510,-9.020
139,51888.300000,245.127,63.874,-17.930,460.215,328.382,-43.121,21.960,13.510,-2.020
140,51888.349000,244.139,62.868,-18.926,459.266,330.314,-43.080,6.960,14.510,-3.020
141,51888.389000,245.127,64.880,-14.942,461.168,327.377,-45.103,16.960,6.510,-4.020
142,51888.398000,246.116,60.857,-17.930,461.119,322.501,-46.192,-18.040,-13.490,-4.020
143,51888.438000,244.139,63.874,-20.918,460.241,331.273,-44.038,12.960,-10.490,-5.020
144,51888.485000,245.127,63.874,-18.926,460.201,327.368,-45.105,13.960,3.510,-8.020
145,51888.518000,246.116,64.880,-15.938,458.301,331.211,-46.004,5.960,-7.490,-2.020
146,51888.565000,245.127,63.874,-18.926,461.130,323.494,-45.189,-12.040,-16.490,-5.020
147,51888.624000,246.116,62.868,-16.934,463.096,327.331,-48.042,-3.040,-15.490,-4.020
148,51888.642000,244.139,63.874,-19.922,460.187,326.354,-47.089,-4.040,-4.490,-4.020
149,51888.683000,245.127,63.874,-18.926,459.259,330.250,-46.024,4.960,4.510,-3.020
150,51888.704000,245.127,62.868,-17.930,461.211,332.189,-46.957,3.960,7.510,-6.020
151,51888.738000,245.127,62.868,-19.922,460.224,330.237,-47.003,3.960,1.510,-7.020
152,51888.784000,246.116,62.868,-20.918,463.141,331.280,-45.012,-3.040,2.510,-9.020
153,51888.820000,244.139,65.886,-18.926,460.203,328.274,-48.027,17.960,5.510,-11.020
154,51888.862000,245.127,61.862,-18.926,458.261,327.306,-47.072,-2.040,1.510,-8.020
155,51888.903000,246.116,62.868,-17.930,461.206,331.261,-45.017,5.960,4.510,-9.020
156,51888.949000,245.127,62.868,-18.926,459.278,332.191,-45.981,0.960,12.510,-7.020
157,51888.992000,242.162,67.898,-18.926,459.285,333.141,-46.940,21.960,16.510,-6.020
158,51889.30000,246.116,63.874,-16.934,456.340,328.301,-45.093,-6.040,-0.490,4.980
159,51889.39000,246.116,63.874,-20.918,458.242,325.364,-47.115,1.960,7.510,0.980
160,51889.80000,244.139,65.886,-16.934,456.359,330.243,-45.049,-13.040,-6.490,4.980
161,51889.127000,245.127,61.862,-16.934,457.313,329.238,-47.031,-28.040,-16.490,3.980
162,51889.165000,245.127,64.880,-18.926,458.264,327.327,-46.091,-2.040,-9.490,-0.020
163,51889.213000,245.127,63.874,-20.918,458.207,321.502,-46.220,-7.040,-8.490,2.980
164,51889.247000,246.116,64.880,-17.930,461.150,326.320,-49.049,-1.040,-7.490,1.980
165,51889.312000,243.151,63.874,-18.926,460.140,321.500,-47.197,-21.040,-19.490,6.980
166,51889.339000,245.127,63.874,-17.930,457.343,332.172,-45.985,-1.040,-14.490,4.980
167,51889.347000,246.116,62.868,-19.922,459.278,332.191,-45.981,-0.040,-9.490,0.980
168,51889.382000,244.139,63.874,-15.938,459.236,328.265,-48.029,-1.040,-18.490,1.980
169,51889.423000,246.116,64.880,-18.926,458.278,329.226,-48.010,-5.040,-17.490,6.980
170,51889.473000,245.127,62.868,-19.922,460.243,332.179,-46.960,-0.040,-7.490,3.980
171,51889.503000,245.127,63.874,-17.930,458.327,334.102,-46.921,-5.040,-18.490,5.980
172,51889.570000,244.139,63.874,-21.914,460.253,333.150,-46.938,-18.040,-22.490,7.980
173,51889.587000,244.139,62.868,-18.926,463.132,331.193,-48.937,-2.040,-17.490,3.980
174,51889.622000,247.104,63.874,-19.922,460.166,324.391,-48.113,-13.040,-18.490,6.980
175,51889.662000,247.104,58.845,-20.918,456.378,333.069,-48.909,9.960,7.510,-4.020
176,51889.679000,242.162,63.874,-20.918,461.232,335.036,-49.836,5.960,18.510,6.980
177,51889.730000,255.012,51.804,-4.981,459.253,330.185,-48.967,90.960,41.510,8.980
178,51889.774000,255.012,68.904,-4.981,461.204,332.124,-49.901,185.960,-27.490,48.980
179,51889.800000,256.988,64.880,-11.953,460.148,324.218,-55.962,125.960,-65.490,63.980
180,51889.839000,260.942,65.886,-23.907,458.211,324.178,-56.948,17.960,-47.490,93.980
181,51889.883000,254.023,54.821,-17.930,465.020,328.127,-56.846,26.960,-15.490,68.980
182,51889.922000,263.907,38.727,-19.922,461.155,328.133,-54.893,37.960,17.510,16.980
183,51889.962000,293.560,45.768,-12.949,458.211,324.178,-56.948,185.960,90.510,-57.020
184,51889.983000,286.641,-49.792,-27.891,451.488,329.872,-59.778,252.960,165.510,-249.020
185,51890.25000,280.710,-113.163,-49.805,447.660,331.992,-49.932,-648.040,148.510,32.980
186,51890.59000,203.614,27.662,-211.175,450.564,327.640,-28.448,-2170.040,-206.490,566.980
187,51890.99000,214.486,5.532,-291.860,457.236,318.818,-35.495,126.960,-430.490,386.980
188,51890.139000,245.127,-98.075,-303.813,457.795,292.895,-111.580,4437.960,-436.490,485.980
189,51890.183000,183.846,184.582,-263.969,455.893,218.776,-216.198,5816.960,-890.490,625.980
190,51890.222000,185.822,171.505,-200.218,431.048,164.669,-283.156,2854.960,-1544.490,773.980
191,51890.268000,233.266,125.234,-173.323,414.275,139.374,-322.979,1435.960,-1840.490,447.980
192,51890.427000,229.313,132.275,-155.393,380.946,102.290,-362.118,1972.960,-1505.490,238.980
193,51890.434000,219.429,131.269,-132.482,354.362,61.497,-396.422,1888.960,-1246.490,49.980
194,51890.473000,209.544,150.381,-90.646,327.830,22.969,-415.966,1642.960,-1037.490,-239.020
195,51890.490000,224.371,133.281,-43.829,312.270,15.871,-423.021,564.960,-548.490,-476.020
196,51890.490000,247.104,138.310,-20.918,306.536,23.538,-424.824,99.960,-227.490,-605.020
197,51890.540000,267.861,156.417,31.875,306.623,33.182,-427.552,-886.040,190.510,-655.020
198,51890.584000,301.467,107.128,66.739,317.632,69.380,-418.880,-1701.040,680.510,-753.020
199,51890.690000,299.490,88.016,70.724,338.347,105.975,-396.449,-1237.040,1366.510,-1047.020
200,51890.707000,267.861,49.792,-25.899,367.647,127.401,-361.589,-676.040,1713.510,-934.020
201,51890.749000,256.988,-174.523,-492.078,378.410,138.356,-353.478,551.960,601.510,-128.020
202,51890.757000,104.772,-90.028,-144.436,388.973,128.018,-342.898,715.960,1044.510,-422.020
203,51890.758000,326.178,315.348,-35.860,402.695,143.058,-326.844,-1008.040,851.510,-532.020
204,51890.772000,296.525,-76.951,-44.825,408.691,159.921,-312.728,-84.040,530.510,51.980
205,51890.849000,228.324,51.804,-45.821,415.455,156.384,-300.044,-6.040,539.510,-306.020
206,51890.865000,247.104,83.992,-35.860,415.499,159.448,-293.111,83.960,333.510,-200.020
207,51890.928000,237.220,78.963,-28.887,418.479,167.265,-291.951,-86.040,97.510,-52.020
208,51890.957000,232.278,59.851,-70.724,421.458,174.197,-286.887,-224.040,165.510,-45.020
209,51890.972000,233.266,57.839,-33.868,421.441,171.392,-282.046,-94.040,126.510,-102.020
210,51890.980000,234.255,58.845,-56.778,419.514,172.322,-283.010,-168.040,-46.490,-19.020
211,51891.50000,269.838,34.703,-48.809,422.460,176.299,-279.974,-227.040,-21.490,-15.020
212,51891.67000,258.965,54.821,-34.864,418.624,180.102,-281.859,87.960,-25.490,-21.020
213,51891.80000,237.220,59.851,-46.817,420.531,178.092,-285.822,30.960,-126.490,60.980
214,51891.124000,247.104,53.815,-50.802,418.502,169.249,-289.945,141.960,-157.490,59.980
215,51891.165000,231.290,62.868,-56.778,417.486,165.249,-294.940,97.960,-212.490,112.980
216,51891.205000,240.185,69.910,-55.782,412.640,165.115,-298.875,158.960,-233.490,128.980
217,51891.264000,241.174,45.768,-60.763,413.473,152.396,-304.059,-38.040,-268.490,214.980
218,51891.270000,248.093,52.809,-63.751,408.604,150.277,-310.001,153.960,-285.490,185.980
219,51891.307000,245.127,53.815,-61.759,407.616,149.189,-314.930,99.960,-356.490,251.980
220,51891.357000,239.197,38.727,-81.681,404.587,138.266,-324.986,115.960,-339.490,289.980
221,51891.405000,253.035,49.792,-66.739,403.564,134.200,-332.923,229.960,-369.490,408.980
222,51891.420000,251.058,38.727,-76.700,396.656,122.268,-343.009,251.960,-425.490,466.980
223,51891.465000,257.977,39.733,-90.646,394.564,107.535,-350.205,232.960,-470.490,459.980
224,51891.518000,263.907,26.656,-85.665,390.603,99.580,-357.255,363.960,-407.490,434.980
225,51891.545000,274.780,26.656,-88.654,386.499,77.040,-365.609,406.960,-399.490,525.980
226,51891.609000,258.965,20.621,-101.603,380.577,67.059,-375.650,154.960,-389.490,577.980
227,51891.617000,257.977,36.715,-77.696,377.597,59.242,-376.810,449.960,-317.490,524.980
228,51891.645000,227.336,-1.509,-127.502,376.425,39.664,-384.112,703.960,-200.490,423.980
229,51891.697000,149.251,75.945,-134.475,375.133,7.487,-390.713,1312.960,-197.490,344.980
230,51891.732000,262.919,196.652,-95.626,364.262,-14.192,-401.023,768.960,-782.490,66.980
231,51891.780000,195.707,108.134,1.992,367.231,-5.598,-408.672,15.960,-492.490,-323.020
232,51891.890000,200.649,91.033,-47.813,365.527,19.496,-414.002,-1070.040,-46.490,-645.020
233,51891.907000,223.382,77.957,-34.864,384.540,82.954,-404.708,-2115.040,424.510,-922.020
234,51891.922000,246.116,-42.750,-40.840,410.348,144.061,-372.897,-1607.040,1293.510,-904.020
235,51891.929000,301.467,-77.957,-104.591,438.816,177.344,-327.969,-646.040,1667.510,-734.020
236,51891.950000,264.896,-98.075,-163.362,456.567,203.641,-287.140,-118.040,1521.510,-478.020
237,51891.998000,216.463,-83.992,-225.121,462.478,209.997,-265.412,-446.040,912.510,-325.020
238,51892.48000,184.834,-72.927,-337.681,464.653,229.929,-242.410,-542.040,385.510,-94.020
239,51892.73000,256.988,-138.310,-288.872,461.667,223.817,-254.320,595.960,-600.490,298.980
240,51892.93000,221.405,24.644,-100.607,463.602,223.836,-254.316,46.960,-29.490,46.980
241,51892.163000,256.988,68.904,-61.759,459.796,230.572,-255.155,-1048.040,-328.490,97.980
242,51892.214000,235.243,38.727,-65.743,462.790,239.403,-252.010,-931.040,-258.490,97.980
243,51892.245000,227.336,20.621,-90.646,459.009,248.146,-249.863,82.960,-14.490,-140.020
244,51892.270000,229.313,19.615,-53.790,459.009,248.146,-249.863,318.960,108.510,-169.020
245,51892.333000,246.116,129.257,-52.794,457.065,248.041,-253.792,259.960,-32.490,-198.020
246,51892.359000,245.127,47.780,-49.805,453.203,248.953,-254.761,-163.040,-141.490,-129.020
247,51892.389000,248.093,39.733,-63.751,448.432,256.586,-258.524,-43.040,-172.490,-153.020
248,51892.397000,241.174,67.898,-91.642,449.451,261.493,-256.451,-106.040,-59.490,-172.020
249,51892.437000,251.058,45.768,-78.693,446.594,266.298,-257.332,105.960,134.510,-266.020
250,51892.478000,234.255,74.939,-70.724,445.689,271.294,-250.358,-146.040,145.510,-217.020
251,51892.514000,245.127,53.815,-60.763,445.724,274.271,-247.350,-42.040,202.510,-195.020
252,51892.554000,241.174,60.857,-42.833,441.831,271.364,-245.461,-20.040,189.510,-209.020
253,51892.599000,234.255,77.957,-38.848,443.906,285.061,-241.230,36.960,87.510,-174.020
254,51892.633000,230.301,70.916,-57.774,444.893,287.012,-241.185,-80.040,45.510,-150.020
255,51892.673000,235.243,74.939,-73.712,442.941,284.189,-236.348,-64.040,69.510,-122.020
256,51892.712000,256.000,57.839,-39.844,436.216,288.977,-236.256,-135.040,149.510,-163.020
257,51892.733000,229.313,96.063,-52.794,442.070,293.909,-235.154,-158.040,26.510,-139.020
258,51892.773000,233.266,80.974,-59.767,438.263,299.762,-232.090,-146.040,51.510,-142.020
259,51892.813000,229.313,99.081,-64.747,435.440,305.774,-222.156,-165.040,115.510,-133.020
260,51892.853000,228.324,46.774,-65.743,439.371,310.796,-216.152,-244.040,186.510,-89.020
261,51892.893000,251.058,105.116,-30.879,436.496,311.911,-208.288,-405.040,190.510,-112.020
262,51892.947000,230.301,82.986,-27.891,438.470,314.950,-203.313,-316.040,18.510,-48.020
263,51892.973000,241.174,73.933,-46.817,436.641,324.748,-198.196,-329.040,17.510,-38.020
264,51893.13000,244.139,84.998,-63.751,437.636,326.785,-194.226,-335.040,120.510,-55.020
265,51893.33000,233.266,96.063,-45.821,439.657,333.794,-185.240,-235.040,304.510,-79.020
266,51893.74000,236.232,92.039,-49.805,442.546,329.292,-170.624,-608.040,347.510,-102.020
267,51893.117000,249.081,71.921,-20.918,441.758,344.212,-153.624,-549.040,368.510,-99.020
268,51893.152000,233.266,90.028,-14.942,440.888,350.416,-135.836,-412.040,421.510,-252.020
269,51893.193000,221.405,89.022,6.973,439.959,351.658,-123.062,-539.040,260.510,-178.020
270,51893.233000,237.220,66.892,-20.918,439.061,356.718,-113.144,-407.040,199.510,-175.020
271,51893.273000,234.255,101.092,8.965,436.307,370.433,-105.981,-184.040,322.510,-365.020
272,51893.314000,272.803,99.081,6.973,431.511,373.428,-100.041,-354.040,240.510,-341.020
273,51893.354000,263.907,116.181,22.911,424.837,381.345,-90.073,-342.040,146.510,-260.020
274,51893.387000,245.127,100.086,33.868,421.066,390.174,-84.001,-115.040,151.510,-262.020
275,51893.418000,229.313,54.821,-21.914,421.086,390.368,-75.170,-1045.040,-403.490,262.980
276,51893.464000,221.405,90.028,-61.759,422.983,382.102,-54.756,-2348.040,-779.490,385.980
277,51893.492000,221.405,149.375,6.973,426.896,383.434,-40.008,-2221.040,-807.490,180.980
278,51893.533000,242.162,29.674,95.626,421.104,380.853,-22.426,-1527.040,-261.490,-105.020
279,51893.573000,238.208,83.992,115.549,417.315,387.763,-15.416,-8.040,190.510,-31.020
280,51893.615000,223.382,115.175,109.572,420.182,383.929,-14.514,241.960,338.510,140.980
281,51893.657000,210.533,148.369,102.599,422.128,384.056,-9.604,159.960,409.510,121.980
282,51893.677000,210.533,156.417,77.696,418.210,376.510,1.988,-499.040,318.510,-33.020
283,51893.715000,207.568,116.181,93.634,413.568,390.659,29.751,-750.040,360.510,-135.020
284,51893.755000,221.405,113.163,71.720,408.713,386.038,42.387,-636.040,254.510,-26.020
285,51893.793000,218.440,76.951,51.798,407.821,389.394,63.053,-398.040,237.510,16.980
286,51893.835000,219.429,90.028,50.802,404.953,391.458,69.958,-176.040,317.510,21.980
287,51893.878000,210.533,70.916,24.903,405.869,383.054,84.483,-288.040,265.510,58.980
288,51893.932000,215.475,93.045,34.864,401.045,381.367,98.165,-609.040,92.510,164.980
289,51893.969000,206.579,58.845,36.856,404.901,376.874,112.783,-730.040,-38.490,173.980
290,51894.12000,217.452,80.974,51.798,406.710,362.481,119.332,-592.040,-138.490,198.980
291,51894.19000,223.382,62.868,68.732,412.606,370.455,126.386,-295.040,-213.490,164.980
292,51894.55000,223.382,64.880,82.677,413.512,362.827,132.103,-264.040,-148.490,185.980
293,51894.94000,237.220,99.081,103.595,418.214,348.376,134.734,-775.040,-198.490,281.980
294,51894.134000,220.417,52.809,122.521,420.100,339.117,154.145,-1023.040,-28.490,238.980
295,51894.175000,200.649,83.992,36.856,422.939,329.739,167.673,-1092.040,-316.490,197.980
296,51894.223000,203.614,71.921,-25.899,422.783,311.508,177.074,-1190.040,-642.490,145.980
297,51894.258000,207.568,83.992,39.844,429.543,309.697,179.990,-182.040,-447.490,-134.020
298,51894.297000,370.656,121.210,-69.728,426.748,324.793,161.687,1273.960,-277.490,-376.020
299,51894.318000,365.714,37.721,18.926,425.706,322.303,137.113,275.960,-888.490,-37.020
300,51894.358000,261.931,46.774,-13.946,430.550,326.816,119.571,286.960,-654.490,-206.020
301,51894.393000,264.896,65.886,7.969,428.668,335.233,106.025,93.960,-486.490,-161.020
302,51894.433000,239.197,65.886,14.942,426.746,338.860,95.314,369.960,-233.490,-12.020
303,51894.473000,242.162,89.022,26.895,426.632,328.957,86.268,475.960,-168.490,-56.020
304,51894.514000,235.243,72.927,15.938,426.680,335.581,78.570,473.960,-188.490,37.980
305,51894.554000,251.058,62.868,13.946,426.735,343.154,69.912,126.960,-219.490,8.980
306,51894.594000,247.104,67.898,18.926,428.687,345.977,65.076,77.960,-266.490,8.980
307,51894.633000,248.093,64.880,11.953,430.595,344.853,57.209,57.960,-321.490,16.980
308,51894.653000,242.162,77.957,-7.969,426.624,335.926,50.138,10.960,-257.490,57.980
309,51894.700000,242.162,48.786,0.996,429.572,341.672,45.369,-29.040,-241.490,20.980
310,51894.735000,233.266,77.957,3.984,432.366,330.977,43.176,27.960,-380.490,-9.020
311,51894.775000,238.208,76.951,-2.988,429.552,341.478,36.538,-0.040,-372.490,20.980
312,51894.815000,216.463,76.951,-10.957,433.364,338.322,23.728,44.960,-504.490,43.980
313,51894.862000,229.313,82.986,2.988,434.292,336.196,14.857,-460.040,-776.490,69.980
314,51894.894000,266.873,61.862,-58.770,433.248,330.167,5.895,-645.040,-839.490,107.980
315,51894.934000,259.954,45.768,-65.743,435.254,337.910,4.109,-226.040,-321.490,18.980
316,51894.954000,241.174,65.886,-49.805,440.039,333.060,2.051,66.960,-99.490,89.980
317,51894.995000,236.232,72.927,-34.864,442.939,333.066,1.076,14.960,40.510,62.980
318,51895.35000,245.127,35.709,-29.883,437.120,331.111,2.982,-7.040,23.510,36.980
319,51895.75000,240.185,79.969,-7.969,438.041,327.151,-1.027,293.960,70.510,-91.020
320,51895.129000,252.046,42.750,-44.825,436.156,332.892,-3.845,157.960,-18.490,-10.020
321,51895.155000,239.197,67.898,-41.837,439.082,335.790,-5.736,84.960,54.510,-29.020
322,51895.197000,245.127,80.974,-34.864,439.035,330.936,-5.844,174.960,111.510,5.980
323,51895.244000,241.174,35.709,-21.914,438.101,334.767,-7.722,290.960,128.510,-14.020
324,51895.277000,254.023,88.016,-20.918,438.078,332.782,-9.728,152.960,28.510,-19.020
325,51895.297000,252.046,41.745,-25.899,436.185,336.690,-7.684,67.960,18.510,41.980
326,51895.337000,255.012,58.845,-33.868,439.010,328.929,-8.831,286.960,88.510,30.980
327,51895.379000,249.081,56.833,-40.840,438.984,326.923,-11.817,300.960,184.510,86.980
328,51895.419000,248.093,66.892,-27.891,439.012,329.836,-11.752,473.960,255.510,84.980
329,51895.459000,250.069,64.880,-20.918,442.767,318.201,-12.983,379.960,267.510,105.980
330,51895.508000,244.139,37.721,-38.848,442.811,323.034,-13.857,679.960,356.510,19.980
331,51895.537000,268.849,74.939,-17.930,438.992,328.757,-16.680,652.960,415.510,-9.020
332,51895.577000,258.965,6.538,-23.907,443.836,329.753,-17.628,278.960,225.510,97.980
333,51895.597000,256.988,-2.515,-38.848,442.822,325.774,-21.641,469.960,219.510,120.980
334,51895.652000,257.977,40.739,-67.735,442.739,316.173,-16.951,205.960,518.510,104.980
335,51895.679000,240.185,-5.532,-79.689,441.787,317.199,-13.988,864.960,684.510,102.980
336,51895.717000,220.417,-65.886,-215.160,450.437,314.976,-30.691,2204.960,462.510,213.980
337,51895.757000,249.081,-115.175,-196.233,452.206,304.596,-62.299,3449.960,402.510,401.980
338,51895.795000,258.965,-10.562,-170.335,463.364,268.679,-112.105,4710.960,435.510,722.980
339,51895.835000,264.896,25.650,-188.265,482.090,214.478,-158.379,3582.960,72.510,1075.980
340,51895.877000,265.884,39.733,-151.409,491.142,157.529,-192.967,2256.960,-317.490,1174.980
341,51895.914000,270.826,75.945,-167.346,492.465,101.497,-226.570,1649.960,-821.490,1357.980
342,51895.995000,269.838,107.128,-164.358,481.245,49.182,-262.078,813.960,-1212.490,1340.980
343,51896.38000,249.081,132.275,-158.381,465.448,22.214,-290.168,38.960,-1701.490,993.980
344,51896.54000,248.093,160.440,-118.537,430.226,-10.077,-331.166,130.960,-1911.490,563.980
345,51896.92000,232.278,188.605,-62.755,396.189,-19.145,-375.569,-121.040,-2121.490,119.980
346,51896.199000,233.266,187.599,-26.895,353.664,-5.946,-418.515,-955.040,-2171.490,-274.020
347,51896.215000,257.977,134.287,89.650,326.030,41.849,-439.087,-2204.040,-1173.490,-799.020
348,51896.342000,239.197,45.768,108.576,323.710,101.993,-438.737,-2161.040,-44.490,-942.020
349,51896.352000,267.861,-17.603,149.416,356.212,154.494,-404.161,-2656.040,1646.510,-693.020
350,51896.358000,285.652,-80.974,-288.872,382.573,174.662,-381.102,119.960,1940.510,-421.020
351,51896.375000,269.838,-170.499,-113.556,393.927,147.677,-377.755,2211.960,373.510,-590.020
352,51896.397000,342.981,169.493,78.693,414.159,135.620,-361.309,784.960,1195.510,-483.020
353,51896.397000,395.367,164.464,-25.899,424.195,169.112,-342.892,-1434.040,408.510,-301.020
354,51896.415000,275.768,-0.503,-61.759,427.319,188.881,-327.737,-1125.040,132.510,-150.020
355,51896.438000,255.012,9.556,-106.584,426.523,204.600,-318.564,-862.040,210.510,-150.020
356,51896.477000,271.815,51.804,-56.778,428.463,204.662,-316.597,463.960,393.510,-269.020
357,51896.525000,187.799,94.051,-90.646,434.278,204.826,-311.678,-135.040,291.510,-173.020
358,51896.555000,257.977,31.686,-66.739,434.409,215.765,-299.667,-190.040,419.510,-182.020
359,51896.585000,210.533,80.974,-47.813,436.411,220.832,-290.724,-60.040,359.510,-153.020
360,51896.633000,227.336,81.980,-37.852,442.208,218.170,-281.945,-316.040,243.510,-1.020
361,51896.660000,248.093,67.898,-52.794,439.397,226.060,-274.911,-370.040,225.510,-17.020
362,51896.695000,256.000,45.768,-48.809,447.211,232.133,-266.915,253.960,376.510,-136.020
363,51896.743000,248.093,48.786,-58.770,448.206,234.170,-262.945,125.960,408.510,-149.020
364,51896.785000,233.266,78.963,-40.840,454.005,231.530,-253.184,541.960,572.510,-116.020
365,51896.815000,224.371,93.045,-23.907,455.886,225.745,-252.328,371.960,277.510,-59.020
366,51896.857000,231.290,89.022,-33.868,454.838,217.926,-254.465,50.960,97.510,25.980
367,51896.883000,236.232,80.974,-30.879,457.818,224.858,-249.402,-109.040,43.510,5.980
368,51896.940000,236.232,70.916,-28.887,462.704,229.781,-248.301,-33.040,62.510,15.980
369,51896.955000,233.266,98.075,-36.856,460.710,223.031,-245.514,-313.040,-42.490,55.980
370,51897.9000,228.324,58.845,-52.794,456.963,234.730,-241.339,-714.040,-58.490,27.980
371,51897.42000,258.965,48.786,-9.961,459.799,227.077,-237.580,160.960,59.510,5.980
372,51897.133000,220.417,74.939,-33.868,459.856,233.787,-241.354,-19.040,-175.490,19.980
373,51897.149000,242.162,58.845,-36.856,454.000,229.718,-247.341,-137.040,-270.490,48.980
374,51897.163000,242.162,64.880,-63.751,455.991,235.562,-247.207,-24.040,-198.490,61.980
375,51897.200000,245.127,58.845,-42.833,454.906,223.859,-249.430,84.960,-86.490,39.980
376,51897.220000,245.127,63.874,-34.864,453.014,229.536,-255.192,159.960,-89.490,102.980
377,51897.260000,220.417,75.945,-46.817,450.999,221.707,-257.331,202.960,-178.490,116.980
378,51897.300000,244.139,63.874,-33.868,451.942,220.594,-264.219,51.960,-245.490,128.980
379,51897.340000,237.220,66.892,-61.759,450.881,212.645,-272.243,192.960,-312.490,188.980
380,51897.382000,238.208,63.874,-71.720,444.060,209.473,-281.153,18.960,-289.490,216.980
381,51897.420000,246.116,55.827,-48.809,447.751,191.948,-285.457,218.960,-238.490,239.980
382,51897.460000,238.208,65.886,-50.802,441.915,191.590,-299.207,182.960,-411.490,349.980
383,51897.498000,256.988,45.768,-52.794,443.657,173.033,-305.499,69.960,-508.490,400.980
384,51897.517000,240.185,49.792,-74.708,439.721,168.831,-318.349,172.960,-633.490,385.980
385,51897.557000,243.151,36.715,-88.654,427.983,158.686,-333.309,214.960,-587.490,388.980
386,51897.602000,239.197,40.739,-88.654,427.841,146.755,-346.323,329.960,-559.490,364.980
387,51897.653000,256.988,32.692,-98.615,417.055,135.584,-364.245,391.960,-542.490,410.980
388,51897.683000,298.502,49.792,-84.669,416.949,125.767,-369.367,405.960,-434.490,434.980
389,51897.755000,296.525,27.662,-49.805,410.915,104.136,-379.666,652.960,-489.490,357.980
390,51897.772000,244.139,37.721,-93.634,405.102,105.762,-391.410,379.960,-744.490,324.980
391,51897.805000,175.938,76.951,-181.292,394.281,90.729,-408.438,640.960,-696.490,240.980
392,51897.839000,178.903,133.281,-12.949,391.216,75.059,-413.696,997.960,-39.490,-205.020
393,51897.858000,173.961,142.334,6.973,407.791,85.251,-398.724,414.960,857.510,-686.020
394,51897.898000,202.625,83.992,-68.732,431.323,113.136,-376.481,-370.040,934.510,-807.020
395,51897.944000,221.405,57.839,-87.658,447.221,150.763,-349.135,-968.040,910.510,-655.020
396,51897.982000,233.266,-1.509,-129.494,458.143,175.569,-328.948,-953.040,848.510,-574.020
397,51898.43000,240.185,-17.603,-94.630,468.163,204.509,-296.903,-242.040,958.510,-599.020
398,51898.162000,248.093,-73.933,-70.724,473.283,227.511,-267.943,83.960,1171.510,-507.020
399,51898.178000,213.498,-154.405,-351.626,485.133,245.790,-236.131,283.960,1047.510,-473.020
400,51898.204000,304.432,-197.658,-393.463,485.033,237.786,-247.096,775.960,-367.490,295.980
401,51898.213000,270.826,-55.827,-29.883,485.864,224.160,-249.358,467.960,63.510,-5.020
402,51898.219000,235.243,145.352,-37.852,484.953,229.976,-249.231,-737.040,-267.490,42.980
403,51898.250000,261.931,11.568,-52.794,478.240,235.757,-248.136,-900.040,-425.490,182.980
404,51898.283000,256.000,18.609,-63.751,479.187,235.572,-256.964,223.960,-201.490,39.980
405,51898.349000,263.907,69.910,-37.852,474.320,233.475,-261.924,240.960,-184.490,-47.020
406,51898.364000,252.046,70.916,-49.805,470.491,238.227,-264.769,-548.040,-397.490,30.980
407,51898.412000,208.556,-3.521,-127.502,465.719,244.092,-260.726,-955.040,-240.490,113.980
408,51898.477000,228.324,25.650,-86.661,467.733,251.036,-254.684,-71.040,163.510,-86.020
409,51898.493000,231.290,83.992,-58.770,467.670,244.262,-253.854,77.960,165.510,-130.020
410,51898.499000,222.394,53.815,-72.716,466.756,249.171,-250.805,-370.040,37.510,-48.020
411,51898.557000,229.313,43.756,-66.739,468.827,261.941,-244.633,-65.040,131.510,-130.020
412,51898.582000,236.232,62.868,-46.817,468.759,255.123,-245.765,286.960,174.510,-281.020
413,51898.619000,248.093,33.697,-42.833,467.862,261.953,-243.654,392.960,136.510,-217.020
414,51898.659000,242.162,55.827,-76.700,467.857,261.910,-245.616,-55.040,36.510,-206.020
415,51898.699000,256.000,36.715,-57.774,468.005,276.537,-242.349,-0.040,117.510,-286.020
416,51898.742000,244.139,59.851,-65.743,464.105,272.681,-239.501,-10.040,146.510,-294.020
417,51898.782000,257.977,49.792,-46.817,462.318,287.290,-236.239,-106.040,188.510,-295.020
418,51898.800000,239.197,38.727,-67.735,461.371,288.359,-231.314,171.960,234.510,-387.020
419,51898.844000,219.429,125.234,-44.825,458.523,294.134,-232.172,106.960,143.510,-398.020
420,51898.879000,223.382,81.980,-39.844,455.687,300.902,-232.028,53.960,81.510,-270.020
421,51898.920000,251.058,63.874,-41.837,451.832,302.763,-233.956,3.960,22.510,-219.020
422,51898.963000,223.382,105.116,-68.732,445.090,305.631,-232.926,-137.040,-52.490,-149.020
423,51899.3000,245.127,69.910,-65.743,449.046,313.544,-227.838,-29.040,101.510,-102.020
424,51899.47000,225.359,115.175,-48.809,449.084,316.543,-223.849,-83.040,184.510,-60.020
425,51899.78000,239.197,83.992,-43.829,452.976,317.680,-217.932,-260.040,172.510,-23.020
426,51899.119000,227.336,100.086,-40.840,450.162,324.664,-207.976,-434.040,164.510,-35.020
427,51899.140000,232.278,74.939,-49.805,452.120,324.898,-198.160,-432.040,175.510,-5.020
428,51899.178000,235.243,89.022,-45.821,450.264,330.921,-188.224,-488.040,235.510,-50.020
429,51899.218000,237.220,82.986,-30.879,454.130,328.283,-177.487,-486.040,264.510,-37.020
430,51899.258000,246.116,66.892,-32.872,455.280,344.128,-163.403,-338.040,249.510,-83.020
431,51899.298000,227.336,110.145,-4.981,456.291,347.201,-156.469,-421.040,185.510,-123.020
432,51899.345000,242.162,89.022,-34.864,454.388,348.369,-146.640,-422.040,168.510,-122.020
433,51899.379000,258.965,80.974,-33.868,453.514,354.530,-130.815,-515.040,283.510,-174.020
434,51899.419000,226.347,107.128,-29.883,453.677,367.539,-112.873,-598.040,432.510,-257.020
435,51899.439000,245.127,71.921,-14.942,454.783,377.689,-93.033,-598.040,579.510,-316.020
436,51899.479000,245.127,79.969,18.926,450.978,381.793,-81.182,-385.040,579.510,-467.020
437,51899.523000,240.185,111.151,30.879,445.304,391.790,-65.281,-253.040,438.510,-459.020
438,51899.560000,257.977,113.163,30.879,438.580,394.831,-56.402,-328.040,112.510,-326.020
439,51899.602000,249.081,148.369,-54.786,431.928,405.596,-49.312,-1563.040,-665.490,-104.020
440,51899.638000,245.127,211.741,-50.802,430.038,402.491,-13.101,-3141.040,-1110.490,-76.020
441,51899.679000,264.896,4.527,-143.440,433.056,406.274,25.235,-3480.040,-995.490,152.980
442,51899.719000,240.185,-90.028,-47.813,440.624,392.369,7.291,-74.040,-450.490,294.980
443,51899.759000,191.753,81.980,-34.864,442.464,390.597,-30.010,2136.960,-307.490,227.980
444,51899.779000,200.649,156.417,16.934,442.197,372.194,-72.587,986.960,-697.490,293.980
445,51899.819000,223.382,115.175,52.794,443.096,368.902,-90.310,-1315.040,-1091.490,319.980
446,51899.860000,224.371,84.998,86.661,445.958,365.026,-91.371,-1692.040,-1161.490,399.980
447,51899.909000,236.232,99.081,97.619,448.773,355.410,-88.637,-1542.040,-622.490,424.980
448,51899.938000,256.000,79.969,117.541,445.855,351.714,-78.918,-713.040,-27.490,265.980
449,51899.978000,289.606,165.470,122.521,449.683,347.825,-80.958,489.960,235.510,19.980
450,51900.19000,245.127,116.181,142.444,446.753,345.769,-84.932,881.960,455.510,-186.020
451,51900.60000,256.988,132.275,136.467,446.870,357.462,-82.711,1013.960,597.510,-315.020
452,51900.87000,236.232,126.240,117.541,443.972,355.708,-72.949,148.960,612.510,-237.020
453,51900.120000,236.232,115.175,94.630,445.092,365.102,-43.319,-681.040,613.510,-179.020
454,51900.158000,241.174,71.921,45.821,443.329,374.662,-4.864,-1122.040,612.510,-4.020
455,51900.199000,205.591,58.845,17.930,449.221,374.676,37.317,-1087.040,638.510,95.980
456,51900.239000,224.371,35.709,22.911,443.464,375.072,57.907,-463.040,670.510,152.980
457,51900.284000,214.486,61.862,30.879,443.489,372.677,81.390,-168.040,606.510,190.980
458,51900.324000,213.498,89.022,41.837,438.610,364.302,99.826,-506.040,310.510,227.980
459,51900.364000,219.429,63.874,54.786,442.377,347.511,128.882,-1002.040,149.510,293.980
460,51900.399000,213.498,73.933,34.864,443.344,342.235,153.283,-1125.040,-49.490,352.980
461,51900.419000,222.394,75.945,42.833,446.129,326.168,171.565,-1413.040,-76.490,280.980
462,51900.460000,192.741,79.969,-0.996,448.927,312.863,183.043,-641.040,-288.490,152.980
463,51900.505000,225.359,39.733,-4.981,447.905,307.050,183.893,-341.040,-472.490,64.980
464,51900.545000,270.826,178.546,68.732,447.928,313.436,165.402,1433.960,-231.490,-168.020
465,51900.582000,365.714,-24.644,0.000,449.878,321.524,135.185,505.960,-1051.490,-1.020
466,51900.622000,264.896,95.057,-24.903,447.961,329.596,105.940,929.960,-779.490,-216.020
467,51900.660000,256.988,123.222,3.984,443.234,344.695,88.614,120.960,-596.490,-277.020
468,51900.700000,218.440,99.081,-5.977,449.925,338.698,77.707,-25.040,-476.490,-42.020
469,51900.722000,255.012,67.898,26.895,448.047,345.389,73.929,15.960,-309.490,-12.020
470,51900.762000,254.023,47.780,20.918,448.029,345.217,66.080,111.960,-311.490,40.980
471,51900.804000,234.255,83.992,11.953,443.143,342.063,57.174,243.960,-351.490,-46.020
472,51900.844000,248.093,74.939,1.992,451.870,345.858,49.431,-91.040,-437.490,27.980
473,51900.893000,250.069,68.904,-9.961,450.863,342.829,44.459,-161.040,-385.490,42.980
474,51900.919000,238.208,68.904,20.918,452.735,338.727,33.584,30.960,-388.490,35.980
475,51900.965000,259.954,53.815,-27.891,452.733,338.705,32.603,-69.040,-265.490,52.980
476,51901.2000,240.185,63.874,-27.891,452.753,342.416,24.840,95.960,-168.490,12.980
477,51901.40000,240.185,83.992,12.949,455.677,345.292,21.968,23.960,-160.490,65.980
478,51901.59000,241.174,64.880,23.907,456.576,339.369,16.935,-63.040,-387.490,36.980
479,51901.99000,218.440,91.033,-13.946,455.591,340.071,5.181,-148.040,-540.490,62.980
480,51901.142000,237.220,56.833,-34.864,457.423,331.180,-2.858,-157.040,-505.490,116.980
481,51901.182000,274.780,55.827,-37.852,457.462,336.832,-10.578,31.960,-370.490,49.980
482,51901.225000,237.220,63.874,-53.790,458.388,333.800,-16.527,-158.040,-245.490,49.980
483,51901.260000,249.081,67.898,-33.868,464.176,331.936,-15.575,-7.040,-100.490,21.980
484,51901.299000,242.162,69.910,-45.821,460.353,336.753,-15.477,-5.040,-25.490,46.980
485,51901.344000,241.174,58.845,-30.879,463.156,327.029,-17.648,20.960,28.510,51.980
486,51901.364000,250.069,74.939,-26.895,457.351,326.088,-13.758,-34.040,-23.490,88.980
487,51901.403000,254.023,52.809,-28.887,463.163,327.094,-14.704,-99.040,-46.490,103.980
488,51901.443000,263.907,11.568,-41.837,464.145,328.117,-12.718,102.960,70.510,35.980
489,51901.483000,281.699,50.798,-20.918,463.180,329.014,-15.642,360.960,97.510,-130.020
490,51901.525000,299.490,87.010,2.988,457.359,327.922,-18.621,212.960,48.510,-171.020
491,51901.573000,254.023,13.580,-52.794,451.594,331.770,-17.567,81.960,152.510,-253.020
492,51901.605000,225.359,3.521,-60.763,446.891,344.452,-12.392,92.960,285.510,-164.020
493,51901.645000,236.232,13.580,-71.720,448.808,340.782,-3.644,-786.040,63.510,212.980
494,51901.685000,263.907,-4.527,-55.782,450.676,331.351,7.919,-658.040,305.510,170.980
495,51901.719000,251.058,-89.022,-137.463,449.620,324.330,-2.046,1652.960,626.510,337.980
496,51901.740000,224.371,-83.992,-201.214,449.521,318.979,-24.720,3499.960,788.510,461.980
497,51901.780000,206.579,47.780,-232.093,458.878,297.542,-77.151,4192.960,466.510,619.980
498,51901.835000,231.290,84.998,-164.358,467.178,264.661,-120.032,2960.960,27.510,700.980
499,51901.868000,256.000,98.075,-169.339,478.367,229.047,-156.103,1948.960,-283.490,870.980
500,51901.900000,234.255,122.216,-161.370,483.669,185.544,-195.303,1659.960,-542.490,821.980
501,51901.943000,260.942,117.187,-176.311,481.252,143.929,-233.497,1795.960,-762.490,606.980
502,51901.997000,244.139,95.057,-155.393,467.372,115.038,-261.626,2126.960,-1034.490,492.980
503,51902.18000,262.919,114.169,-140.451,450.418,71.275,-302.840,1871.960,-1294.490,560.980
504,51902.97000,247.104,117.187,-117.541,424.837,34.353,-338.037,1125.960,-1583.490,414.980
505,51902.123000,231.290,171.505,-110.568,393.607,13.836,-374.842,476.960,-1711.490,175.980
506,51902.219000,216.463,217.776,27.891,355.826,14.742,-405.302,-577.040,-1755.490,-381.020
507,51902.235000,245.127,196.652,85.665,344.648,62.783,-421.911,-1608.040,-805.490,-944.020
508,51902.265000,274.780,69.910,167.346,363.393,97.266,-406.397,-581.040,1044.510,-1369.020
509,51902.296000,301.467,94.051,139.455,382.955,116.225,-391.225,-593.040,1567.510,-1264.020
510,51902.327000,306.409,-2.515,-48.809,414.485,166.041,-345.923,-1490.040,1882.510,-1021.020
511,51902.343000,205.591,-199.670,-492.078,431.082,176.449,-321.140,831.960,716.510,-331.020
512,51902.352000,263.907,30.680,-58.770,442.524,159.108,-320.520,697.960,814.510,-281.020
513,51902.385000,318.270,-7.544,-66.739,443.785,186.582,-307.159,-1372.040,128.510,-246.020
514,51902.427000,218.440,8.550,-74.708,441.958,196.401,-301.061,-562.040,38.510,-151.020
515,51902.497000,244.139,54.821,-91.642,446.759,190.817,-292.349,-100.040,417.510,-174.020
516,51902.512000,239.197,65.886,-64.747,449.698,193.844,-288.353,677.960,567.510,-195.020
517,51902.607000,210.533,72.927,-63.751,449.719,194.038,-279.523,-85.040,433.510,-136.020
518,51902.623000,254.023,51.804,-53.790,456.666,209.876,-268.369,-617.040,342.510,-129.020
519,51902.698000,249.081,42.750,-40.840,459.638,214.974,-258.443,-36.040,385.510,-170.020
520,51902.713000,243.151,68.904,-34.864,463.498,212.272,-250.650,250.960,402.510,-194.020
521,51902.720000,245.127,89.022,-10.957,462.513,209.457,-245.811,99.960,255.510,-103.020
522,51902.809000,232.278,58.845,-28.887,464.484,213.338,-246.701,5.960,167.510,-44.020
523,51902.862000,240.185,80.974,-10.957,463.553,216.328,-242.714,56.960,-7.490,-33.020
524,51902.878000,226.347,79.969,-33.868,465.507,218.288,-242.667,-198.040,-161.490,-12.020
525,51902.887000,247.104,46.774,-66.739,464.582,223.090,-244.523,-157.040,-96.490,5.980
526,51902.902000,248.093,54.821,-47.813,462.619,220.158,-244.593,26.960,12.510,-35.020
527,51902.935000,241.174,79.969,-42.833,461.680,223.062,-244.530,-65.040,72.510,-58.020
528,51902.975000,236.232,61.862,-32.872,464.610,225.118,-240.556,-112.040,62.510,-58.020
529,51902.982000,238.208,72.927,-30.879,462.640,221.237,-239.665,1.960,27.510,-37.020
530,51903.22000,247.104,64.880,-15.938,460.682,219.233,-241.675,59.960,-49.490,-7.020
531,51903.65000,242.162,72.927,-40.840,460.703,222.081,-244.554,45.960,-54.490,5.980
532,51903.148000,243.151,64.880,-45.821,461.593,214.302,-245.705,57.960,-18.490,-6.020
533,51903.189000,238.208,68.904,-49.805,454.908,222.996,-244.546,24.960,-16.490,2.980
534,51903.217000,233.266,64.880,-40.840,459.762,224.963,-245.473,-21.040,-12.490,-21.020
535,51903.232000,247.104,62.868,-40.840,460.665,218.198,-244.640,18.960,-48.490,-10.020
536,51903.284000,234.255,80.974,-36.856,460.746,226.893,-246.408,-29.040,-41.490,34.980
537,51903.382000,251.058,62.868,-38.848,459.689,218.102,-248.567,204.960,7.510,70.980
538,51903.389000,227.336,81.980,-27.891,460.579,210.323,-249.719,134.960,-61.490,110.980
539,51903.404000,242.162,58.845,-42.833,461.598,216.115,-251.549,67.960,-110.490,144.980
540,51903.458000,243.151,69.910,-45.821,461.549,212.123,-256.541,88.960,-104.490,117.980
541,51903.488000,236.232,73.933,-46.817,459.497,200.411,-258.767,-7.040,-107.490,157.980
542,51903.516000,235.243,58.845,-35.860,461.479,206.169,-262.557,62.960,-143.490,177.980
543,51903.553000,242.162,74.939,-33.868,459.425,195.319,-269.667,23.960,-284.490,209.980
544,51903.593000,240.185,52.809,-53.790,458.456,196.173,-274.554,-22.040,-331.490,265.980
545,51903.618000,250.069,47.780,-52.794,458.393,191.168,-281.529,179.960,-297.490,320.980
546,51903.650000,255.012,53.815,-55.782,457.273,177.372,-290.664,154.960,-363.490,422.980
547,51903.681000,262.919,33.697,-56.778,454.160,157.711,-300.914,330.960,-391.490,505.980
548,51903.719000,258.965,72.927,-49.805,449.173,144.783,-312.979,554.960,-455.490,505.980
549,51903.769000,272.803,23.639,-85.665,451.965,134.952,-320.056,255.960,-323.490,509.980
550,51903.781000,258.965,53.815,-64.747,452.797,122.211,-326.221,547.960,-239.490,460.980
551,51903.859000,252.046,57.839,-56.778,446.795,103.535,-334.493,19.960,-378.490,475.980
552,51903.949000,161.112,37.721,-68.732,443.781,94.510,-346.468,237.960,-539.490,316.980
553,51904.143000,231.290,70.916,-119.533,430.151,88.273,-359.384,430.960,-746.490,256.980
554,51904.178000,290.595,39.733,-161.370,431.938,75.433,-370.452,1089.960,-344.490,2.980
555,51904.276000,190.764,39.733,-137.463,425.736,36.348,-380.159,2449.960,-316.490,-146.020
556,51904.340000,216.463,181.564,4.981,435.363,30.703,-376.341,1054.960,379.510,-591.020
557,51904.539000,248.093,94.051,-21.914,448.302,65.993,-365.724,-1049.040,565.510,-877.020
558,51904.539000,263.907,-32.692,-77.696,456.475,106.326,-344.218,-1133.040,497.510,-553.020
559,51904.539000,242.162,-38.727,-83.673,462.650,140.752,-325.789,-350.040,571.510,-466.020
560,51904.539000,232.278,-46.774,-96.623,469.694,165.434,-309.535,-512.040,478.510,-397.020
561,51904.659000,248.093,-29.674,-77.696,470.965,192.132,-287.366,-1020.040,307.510,-215.020
562,51904.765000,241.174,-89.022,-56.778,474.985,205.049,-275.302,-653.040,557.510,-70.020
563,51904.765000,199.660,-129.257,-391.471,477.944,207.386,-258.573,-495.040,73.510,112.980
564,51904.765000,225.359,31.686,-121.525,477.888,203.330,-266.508,-54.040,43.510,87.980
565,51904.806000,259.954,32.692,-54.786,476.952,206.255,-265.465,-168.040,77.510,70.980
566,51904.996000,270.826,15.591,-59.767,482.746,204.456,-261.570,40.960,98.510,85.980
567,51904.996000,246.116,19.615,-73.712,482.668,195.783,-258.821,-3.040,29.510,41.980
568,51904.997000,242.162,25.650,-50.802,483.692,201.617,-258.689,-213.040,-13.490,-9.020
569,51904.997000,244.139,22.633,-63.751,481.767,202.570,-258.672,129.960,17.510,-41.020
570,51904.997000,230.301,39.733,-58.770,478.895,206.360,-261.536,90.960,-6.490,-59.020
571,51904.997000,228.324,-6.538,-73.712,480.884,211.298,-258.480,-124.040,43.510,-66.020
572,51905.36000,247.104,83.992,-61.759,481.753,201.555,-260.656,443.960,170.510,-152.020
573,51905.83000,259.954,40.739,-45.821,481.779,203.562,-257.669,119.960,119.510,-58.020
574,51905.83000,247.104,44.762,-44.825,482.739,202.622,-256.707,19.960,44.510,-47.020
575,51905.146000,255.012,41.745,-40.840,484.655,200.699,-256.746,-225.040,-103.490,9.980
576,51905.146000,241.174,43.756,-53.790,479.872,206.456,-257.609,-263.040,-178.490,46.980
577,51905.146000,262.919,46.774,-26.895,478.978,215.076,-262.323,-289.040,-307.490,104.980
578,51905.165000,228.324,27.662,-76.700,476.060,214.012,-265.295,-732.040,-411.490,121.980
579,51905.245000,256.000,40.739,-62.755,471.298,221.732,-265.133,-396.040,-305.490,35.980
580,51905.245000,232.278,-6.538,-90.646,465.534,226.465,-267.982,-747.040,-320.490,122.980
581,51905.245000,223.382,-12.574,-123.518,464.683,237.265,-261.860,-845.040,-179.490,125.980
582,51905.245000,237.220,62.868,-54.786,465.747,247.004,-260.661,-1009.040,-157.490,95.980
583,51905.245000,212.510,34.703,-73.712,463.870,251.063,-251.749,-1045.040,-171.490,134.980
584,51905.265000,225.359,81.980,-74.708,462.912,251.140,-247.827,-130.040,-6.490,-159.020
585,51905.284000,230.301,49.792,-63.751,460.041,255.815,-254.594,762.960,93.510,-177.020
586,51905.316000,256.988,31.686,-80.685,462.007,259.653,-257.447,-87.040,-94.490,-124.020
587,51905.316000,241.174,35.709,-103.595,455.291,264.527,-253.430,-253.040,4.510,-203.020
588,51905.341000,239.197,31.686,-83.673,454.344,265.596,-248.505,48.960,313.510,-334.020
589,51905.379000,251.058,45.768,-66.739,453.374,264.681,-245.585,214.960,380.510,-313.020
590,51905.391000,245.127,65.886,-60.763,454.439,272.673,-235.599,19.960,312.510,-265.020
591,51905.446000,231.290,65.886,-58.770,453.493,274.627,-234.577,-86.040,250.510,-193.020
592,51905.460000,224.371,36.715,-65.743,459.457,288.534,-222.488,-88.040,246.510,-153.020
593,51905.485000,251.058,70.916,-47.813,457.482,284.610,-223.560,-126.040,212.510,-156.020
594,51905.520000,234.255,65.886,-57.774,456.546,285.788,-213.729,-182.040,148.510,-126.020
595,51905.539000,238.208,86.004,-20.918,454.691,293.579,-211.598,-177.040,152.510,-185.020
596,51905.578000,244.139,12.574,-92.638,454.830,306.351,-204.450,-405.040,162.510,-100.020
597,51905.601000,255.012,102.098,-20.918,458.767,311.437,-195.503,-177.040,216.510,-213.020
598,51905.625000,223.382,-5.532,-3.984,456.836,310.577,-189.642,-589.040,-70.490,-87.020
599,51905.650000,249.081,121.210,-29.883,448.172,315.303,-191.517,-283.040,-260.490,-164.020
600,51905.683000,225.359,66.892,-28.887,449.227,324.956,-194.242,-204.040,-425.490,-21.020
601,51905.709000,209.544,112.157,-65.743,440.493,324.613,-206.036,-187.040,-454.490,-3.020
602,51905.760000,232.278,87.010,-37.852,439.504,323.525,-210.966,-47.040,-325.490,29.980
603,51905.784000,236.232,78.963,-68.732,435.675,328.277,-213.810,-49.040,-287.490,17.980
604,51905.821000,256.988,63.874,-83.673,433.735,327.330,-211.874,-306.040,-84.490,-58.020
605,51905.861000,239.197,64.880,-69.728,437.715,338.112,-208.684,-270.040,49.510,-82.020
606,51905.904000,236.232,89.022,-52.794,435.784,336.367,-198.921,-451.040,268.510,-89.020
607,51905.959000,229.313,95.057,-53.790,434.931,346.260,-189.877,-513.040,175.510,-52.020
608,51905.984000,225.359,106.122,-55.782,435.918,344.695,-173.238,-418.040,284.510,9.980
609,51906.26000,225.359,86.004,-36.856,438.827,344.788,-170.288,-224.040,282.510,-76.020
610,51906.49000,246.116,80.974,-73.712,438.934,352.857,-156.380,-552.040,484.510,-164.020
611,51906.80000,235.243,77.957,-35.860,440.984,360.146,-134.639,-393.040,595.510,-215.020
612,51906.123000,225.359,72.927,-27.891,439.200,371.260,-113.802,-580.040,614.510,-351.020
613,51906.160000,212.510,104.110,14.942,438.313,375.544,-95.076,-415.040,623.510,-376.020
614,51906.203000,223.382,98.075,8.965,433.588,384.493,-83.120,-191.040,524.510,-307.020
615,51906.246000,256.988,130.263,43.829,431.708,387.646,-71.286,-377.040,347.510,-211.020
616,51906.285000,239.197,96.063,11.953,423.076,393.558,-63.327,-60.040,277.510,-169.020
617,51906.338000,208.556,98.075,-0.996,426.063,401.440,-59.223,-119.040,236.510,-223.020
618,51906.349000,224.371,136.299,22.911,421.246,401.587,-50.404,-80.040,262.510,-196.020
619,51906.385000,212.510,103.104,13.946,421.248,400.724,-45.520,203.960,477.510,-216.020
620,51906.421000,220.417,153.399,56.778,414.576,409.547,-38.474,-13.040,349.510,-252.020
621,51906.464000,238.208,108.134,34.864,415.614,415.511,-32.455,-176.040,195.510,-22.020
622,51906.503000,223.382,119.198,33.868,413.678,414.607,-28.557,-51.040,87.510,8.980
623,51906.545000,198.672,125.234,-2.988,416.564,411.831,-23.709,-722.040,-325.490,106.980
624,51906.583000,237.220,119.198,12.949,419.474,410.176,-11.972,-1590.040,-546.490,167.980
625,51906.626000,229.313,126.240,-22.911,423.285,399.966,7.423,-1713.040,-805.490,202.980
626,51906.671000,244.139,150.381,-1.992,429.083,395.556,24.989,-2049.040,-936.490,-11.020
627,51906.684000,240.185,28.668,26.895,431.026,393.892,36.724,-1922.040,-561.490,159.980
628,51906.723000,237.220,21.627,18.926,432.030,395.131,48.522,-221.040,46.510,28.980
629,51906.765000,228.324,84.998,19.922,431.057,396.826,37.770,901.960,103.510,-158.020
630,51906.803000,213.498,111.151,59.767,426.153,393.500,21.015,561.960,-114.490,-124.020
631,51906.841000,223.382,99.081,72.716,421.361,399.170,16.227,-213.040,-222.490,-48.020
632,51906.885000,222.394,72.927,98.615,423.344,402.296,25.127,-664.040,-230.490,55.980
633,51906.926000,245.127,67.898,102.599,430.054,393.840,34.760,-888.040,-183.490,167.980
634,51906.965000,251.058,53.815,102.599,430.027,388.295,47.385,-313.040,189.510,166.980
635,51906.984000,248.093,92.039,74.708,433.011,395.270,54.411,71.960,323.510,172.980
636,51907.35000,217.452,102.098,41.837,430.051,387.648,62.081,-360.040,205.510,135.980
637,51907.66000,226.347,90.028,54.786,432.012,387.041,77.762,-350.040,176.510,182.980
638,51907.104000,218.440,82.986,46.817,430.989,378.574,90.321,-533.040,77.510,191.980
639,51907.141000,208.556,86.004,71.720,432.906,374.019,102.972,-445.040,77.510,208.980
640,51907.184000,237.220,84.998,96.623,432.829,362.714,118.412,-518.040,67.510,192.980
641,51907.221000,228.324,70.916,95.626,427.049,362.894,129.191,-198.040,295.510,127.980
642,51907.265000,223.382,77.957,104.591,422.145,354.282,136.834,-71.040,427.510,144.980
643,51907.303000,224.371,64.880,94.630,421.197,351.813,157.372,-495.040,328.510,183.980
644,51907.321000,219.429,68.904,82.677,420.201,345.374,173.898,-642.040,165.510,289.980
645,51907.364000,227.336,76.951,78.693,422.929,322.598,195.953,-1445.040,-114.490,335.980
646,51907.404000,217.452,43.756,10.957,417.944,303.521,213.171,-1118.040,-159.490,258.980
647,51907.446000,211.521,43.756,13.946,423.687,296.825,214.996,-877.040,-378.490,269.980
648,51907.482000,191.753,40.739,-33.868,428.404,284.273,215.708,-627.040,-600.490,251.980
649,51907.515000,197.683,17.603,-73.712,440.930,281.267,205.861,144.960,-882.490,161.980
650,51907.557000,260.942,169.493,331.704,438.991,282.974,196.088,885.960,255.510,-130.020
651,51907.598000,512.988,107.128,-13.946,435.174,293.120,173.750,1370.960,-738.490,-3.020
652,51907.622000,244.139,29.674,-4.981,441.007,301.375,149.429,466.960,-930.490,-173.020
653,51907.662000,257.977,78.963,-31.875,440.103,311.657,132.004,177.960,-642.490,-343.020
654,51907.700000,243.151,63.874,2.988,439.129,312.467,125.155,-213.040,-401.490,-188.020
655,51907.739000,233.266,53.815,18.926,437.218,315.318,123.253,-7.040,-240.490,-96.020
656,51907.780000,245.127,57.839,44.825,436.271,319.904,111.585,633.960,-78.490,-195.020
657,51907.823000,199.660,79.969,33.868,432.378,318.766,105.667,441.960,-56.490,-81.020
658,51907.857000,271.815,56.833,11.953,432.475,329.381,102.961,270.960,-112.490,2.980
659,51907.899000,252.046,59.851,14.942,434.402,331.082,91.235,385.960,-198.490,-20.020
660,51907.939000,245.127,78.963,-10.957,435.356,330.962,85.350,-114.040,-363.490,8.980
661,51907.959000,256.000,50.798,15.938,434.299,323.057,79.289,-50.040,-335.490,91.980
662,51907.999000,243.151,66.892,22.911,434.272,321.913,71.418,99.960,-415.490,49.980
663,51908.39000,250.069,53.815,-10.957,438.100,319.793,61.572,-195.040,-484.490,31.980
664,51908.80000,245.127,64.880,-0.996,439.142,329.317,52.960,201.960,-406.490,-3.020
665,51908.122000,234.255,63.874,-42.833,441.996,326.239,44.072,-147.040,-425.490,95.980
666,51908.157000,254.023,54.821,-45.821,439.013,318.401,41.930,-146.040,-224.490,46.980
667,51908.200000,242.162,56.833,-9.961,440.960,320.296,39.034,148.960,-6.490,6.980
668,51908.237000,253.035,70.916,-8.965,443.915,326.107,37.208,-18.040,-81.490,39.980
669,51908.257000,252.046,51.804,-28.887,443.863,320.325,39.041,-56.040,-75.490,74.980
670,51908.308000,259.954,53.815,-27.891,444.804,318.328,36.057,45.960,72.510,65.980
671,51908.337000,256.988,57.839,-7.969,448.695,319.444,40.993,110.960,147.510,102.980
672,51908.377000,244.139,70.916,-20.918,448.624,311.720,42.783,0.960,173.510,109.980
673,51908.423000,256.988,43.756,-0.996,447.732,318.593,46.856,179.960,208.510,40.980
674,51908.460000,283.676,27.662,-2.988,445.794,318.553,45.870,308.960,296.510,-42.020
675,51908.500000,297.514,4.527,-1.992,439.053,321.421,46.901,727.960,556.510,-158.020
676,51908.539000,308.386,-51.804,-57.774,436.259,333.000,45.190,1172.960,887.510,-166.020
677,51908.578000,285.652,-27.662,-30.879,433.355,332.950,44.202,1366.960,1074.510,44.980
678,51908.599000,240.185,0.503,-71.720,428.401,319.462,50.757,765.960,1209.510,381.980
679,51908.639000,210.533,147.363,-176.311,431.386,323.805,70.473,146.960,1093.510,478.980
680,51908.679000,214.486,-50.798,-133.479,446.726,310.299,67.264,893.960,442.510,753.980
681,51908.719000,205.591,8.550,-131.486,448.536,302.077,45.510,2712.960,258.510,675.980
682,51908.759000,255.012,42.750,-175.315,466.676,287.607,-2.825,3544.960,-215.490,849.980
683,51908.823000,215.475,140.322,-132.482,480.805,260.305,-59.299,2445.960,-832.490,886.980
684,51908.884000,257.977,130.263,-110.568,487.076,221.235,-118.012,1495.960,-1528.490,874.980
685,51908.900000,278.734,143.340,-94.630,493.369,184.128,-175.701,1633.960,-1621.490,968.980
686,51908.907000,280.710,120.204,-74.708,484.143,143.850,-238.396,1758.960,-1628.490,544.980
687,51908.953000,290.595,110.145,-79.689,465.192,95.063,-286.590,2105.960,-1500.490,399.980
688,51908.987000,278.734,88.016,-39.844,447.431,66.026,-319.634,1762.960,-1589.490,507.980
689,51909.68000,273.792,79.969,-19.922,424.660,19.445,-354.058,980.960,-1383.490,516.980
690,51909.124000,233.266,178.546,69.728,398.383,8.015,-376.923,252.960,-1077.490,111.980
691,51909.209000,240.185,219.788,175.315,391.879,37.809,-387.062,-1852.040,-306.490,-415.020
692,51909.225000,280.710,42.750,80.685,405.836,77.120,-370.470,-1538.040,681.510,-776.020
693,51909.242000,300.479,-181.564,-171.331,425.235,79.553,-356.646,725.960,835.510,-1105.020
694,51909.248000,266.873,-214.758,-137.463,432.779,58.377,-352.197,2075.960,594.510,-570.020
695,51909.272000,297.514,-174.523,-40.840,439.413,43.038,-346.639,966.960,738.510,-419.020
696,51909.303000,248.093,45.768,-49.805,446.413,63.773,-333.415,-911.040,373.510,-398.020
697,51909.329000,213.498,37.721,-80.685,448.702,98.009,-321.863,-2156.040,130.510,-138.020
698,51909.369000,232.278,99.081,-108.576,450.926,125.450,-310.462,-1609.040,333.510,-217.020
699,51909.389000,253.035,73.933,-44.825,452.000,133.528,-296.552,-3.040,534.510,-444.020
700,51909.429000,328.154,-12.574,-16.934,458.838,138.621,-288.579,68.960,394.510,-289.020
701,51909.469000,247.104,35.709,-28.887,459.962,153.344,-281.385,-614.040,83.510,-386.020
702,51909.529000,241.174,44.762,-33.868,458.133,164.027,-280.171,-484.040,80.510,-341.020
703,51909.550000,252.046,16.597,-54.786,454.405,178.552,-279.857,126.960,105.510,-297.020
704,51909.628000,215.475,88.016,-71.720,452.451,175.707,-276.001,219.960,162.510,-275.020
705,51909.644000,245.127,47.780,-44.825,455.461,186.458,-273.795,-138.040,89.510,-206.020
706,51909.744000,243.151,63.874,-37.852,450.699,194.177,-273.634,-13.040,70.510,-243.020
707,51909.814000,254.023,34.703,-33.868,450.763,200.067,-270.561,0.960,53.510,-236.020
708,51909.824000,247.104,73.933,-66.739,453.653,199.103,-271.557,290.960,81.510,-228.020
709,51909.864000,235.243,66.892,-49.805,451.723,199.127,-269.599,123.960,97.510,-152.020
710,51909.907000,246.116,67.898,-57.774,447.834,196.263,-265.748,-64.040,136.510,-86.020
711,51909.914000,241.174,61.862,-38.848,448.893,205.960,-266.511,18.960,175.510,-129.020
712,51909.969000,233.266,93.045,-42.833,452.803,209.018,-261.532,-154.040,14.510,-52.020
713,51910.8000,256.988,37.721,-55.782,454.704,205.197,-259.651,-105.040,124.510,-43.020
714,51910.184000,238.208,73.933,-43.829,451.891,213.065,-253.599,97.960,255.510,-140.020
715,51910.293000,233.266,70.916,-30.879,454.713,204.398,-251.824,12.960,212.510,-56.020
716,51910.354000,241.174,67.898,-35.860,452.839,209.363,-245.833,198.960,205.510,-54.020
717,51910.354000,235.243,77.957,-30.879,455.750,210.362,-245.805,22.960,58.510,-14.020
718,51910.354000,233.266,84.998,-29.883,457.707,213.229,-248.679,-18.040,10.510,13.980
719,51910.354000,237.220,68.904,-26.895,455.684,203.566,-245.956,-241.040,-85.490,84.980
720,51910.388000,230.301,103.104,-33.868,451.855,208.318,-248.801,-136.040,-183.490,135.980
721,51910.524000,256.988,29.674,-31.875,455.725,208.356,-248.792,-312.040,-244.490,237.980
722,51910.524000,241.174,51.804,-36.856,454.753,208.303,-250.756,-18.040,-229.490,157.980
723,51910.524000,258.965,50.798,-44.825,455.648,202.337,-257.751,153.960,-109.490,64.980
724,51910.548000,210.533,113.163,-36.856,451.737,199.257,-263.712,240.960,-270.490,74.980
725,51910.604000,245.127,55.827,-54.786,453.556,188.488,-268.851,-96.040,-322.490,243.980
726,51910.615000,238.208,53.815,-38.848,447.762,191.172,-276.648,-14.040,-312.490,195.980
727,51910.714000,253.035,56.833,-66.739,446.705,182.381,-278.807,-154.040,-276.490,213.980
728,51910.714000,233.266,45.768,-51.798,447.719,188.993,-287.484,-104.040,-240.490,226.980
729,51910.714000,237.220,45.768,-47.813,443.712,175.320,-289.757,121.960,-244.490,247.980
730,51910.726000,241.174,63.874,-64.747,442.668,169.291,-298.719,14.960,-345.490,300.980
731,51910.750000,243.151,42.750,-49.805,440.675,164.310,-303.737,159.960,-330.490,298.980
732,51910.814000,269.838,58.845,-43.829,439.593,155.282,-316.689,269.960,-467.490,360.980
733,51910.814000,258.965,24.644,-105.588,435.588,143.379,-326.768,124.960,-598.490,429.980
734,51910.865000,273.792,30.680,-78.693,430.542,124.605,-339.944,331.960,-398.490,431.980
735,51910.889000,290.595,32.692,-65.743,428.542,119.559,-347.905,491.960,-392.490,404.980
736,51910.919000,272.803,29.674,-62.755,422.574,104.724,-358.054,211.960,-547.490,427.980
737,51910.971000,258.965,14.585,-63.751,409.965,103.415,-367.916,284.960,-632.490,427.980
738,51910.999000,213.498,-5.532,-119.533,407.789,81.713,-383.112,854.960,-377.490,348.980
739,51910.999000,161.112,104.110,-110.568,403.703,60.230,-387.521,1213.960,-236.490,332.980
740,51911.24000,227.336,120.204,-133.479,399.615,39.610,-396.813,868.960,-377.490,222.980
741,51911.90000,207.568,31.686,-190.257,391.764,31.423,-412.702,1008.960,-592.490,26.980
742,51911.285000,241.174,49.792,-92.638,390.480,-1.553,-411.475,1875.960,-367.490,-31.020
743,51911.366000,185.822,107.128,-9.961,401.100,-5.182,-404.668,955.960,542.510,-687.020
744,51911.395000,177.915,81.980,-32.872,422.731,26.525,-384.306,-314.040,947.510,-1242.020
745,51911.588000,252.046,-49.792,-56.778,445.566,80.765,-354.615,-1532.040,1151.510,-996.020
746,51911.588000,277.745,-56.833,-105.588,467.280,118.555,-322.349,-432.040,1279.510,-732.020
747,51911.588000,256.988,-15.591,-102.599,472.465,148.354,-293.237,-489.040,906.510,-594.020
748,51911.588000,290.595,-57.839,-93.634,475.639,172.999,-276.993,-1041.040,521.510,-550.020
749,51911.588000,252.046,-62.868,-71.720,475.946,200.593,-257.747,-1333.040,274.510,-254.020
750,51911.606000,256.988,-78.963,-80.685,474.327,229.139,-238.485,-1485.040,181.510,-21.020
751,51911.628000,272.803,-69.910,-64.747,474.438,236.366,-218.711,-742.040,182.510,41.980
752,51911.684000,247.104,-65.886,-221.136,472.536,239.303,-216.688,-405.040,-264.490,122.980
753,51911.756000,266.873,1.509,-33.868,473.482,238.234,-221.613,-263.040,-100.490,118.980
754,51911.898000,272.803,43.756,-41.837,473.546,244.124,-218.540,-397.040,-96.490,129.980
755,51911.898000,239.197,21.627,-27.891,474.579,250.045,-214.484,-1021.040,-261.490,197.980
756,51911.898000,235.243,17.603,-53.790,472.714,255.096,-204.569,-1332.040,-108.490,198.980
757,51911.898000,254.023,23.639,-54.786,473.676,253.293,-198.723,-560.040,-80.490,65.980
758,51911.910000,203.614,54.821,-59.767,471.830,262.055,-196.572,-346.040,-83.490,-2.020
759,51911.929000,240.185,55.827,-56.778,471.887,267.880,-196.442,-382.040,-103.490,-75.020
760,51911.956000,227.336,19.615,-52.794,469.973,269.825,-195.422,-247.040,-75.490,-88.020
761,51911.977000,237.220,56.833,-50.802,466.141,273.670,-195.345,336.960,79.510,-207.020
762,51911.995000,263.907,114.169,-1.992,468.062,272.675,-197.324,-190.040,-156.490,-255.020
763,51912.65000,242.162,34.703,-69.728,458.484,282.311,-196.150,-469.040,-337.490,-149.020
764,51912.65000,242.162,75.945,-78.693,455.677,293.761,-203.747,-65.040,-242.490,-294.020
765,51912.65000,227.336,39.733,-76.700,451.805,293.701,-204.737,69.960,-32.490,-211.020
766,51912.65000,227.336,54.821,-78.693,451.859,298.620,-201.686,35.960,185.510,-204.020
767,51912.93000,279.722,68.904,-36.856,450.005,304.664,-190.768,-132.040,269.510,-227.020
768,51912.154000,254.023,38.727,-51.798,451.005,307.629,-188.739,-123.040,129.510,-187.020
769,51912.210000,247.104,58.845,-50.802,444.317,315.416,-184.658,-96.040,131.510,-311.020
770,51912.210000,250.069,57.839,-47.813,441.470,321.192,-185.516,114.960,93.510,-290.020
771,51912.231000,230.301,87.010,-44.825,438.633,327.959,-185.372,28.960,67.510,-258.020
772,51912.278000,219.429,80.974,-54.786,437.675,328.036,-181.450,-143.040,69.510,-182.020
773,51912.296000,241.174,69.910,-41.837,434.904,340.716,-177.251,-63.040,73.510,-126.020
774,51912.327000,239.197,70.916,-48.809,433.960,342.691,-175.248,-239.040,29.510,-96.020
775,51912.360000,238.208,78.963,-47.813,433.009,343.717,-172.286,-195.040,46.510,-132.020
776,51912.360000,238.208,97.069,-40.840,432.081,346.728,-167.317,-204.040,92.510,-110.020
777,51912.385000,241.174,76.951,-48.809,433.066,346.910,-159.466,-325.040,184.510,-94.020
778,51912.431000,235.243,80.974,-45.821,428.259,348.028,-150.625,-229.040,263.510,-105.020
779,51912.489000,242.162,82.986,-20.918,433.222,358.970,-140.565,-288.040,270.510,-64.020
780,51912.513000,239.197,94.051,-35.860,431.251,353.320,-131.869,-291.040,202.510,-88.020
781,51912.550000,220.417,88.016,-48.809,433.251,358.366,-123.907,-356.040,290.510,-87.020
782,51912.575000,204.602,94.051,-15.938,435.277,366.303,-116.862,-123.040,381.510,-70.020
783,51912.610000,253.035,80.974,-27.891,434.324,364.675,-102.191,-308.040,421.510,-107.020
784,51912.635000,236.232,78.963,-3.984,433.478,374.633,-90.203,-401.040,393.510,-131.020
785,51912.648000,242.162,81.980,3.984,435.475,377.888,-75.417,-229.040,454.510,-169.020
786,51912.685000,241.174,100.086,-0.996,434.588,383.057,-60.594,-456.040,436.510,-235.020
787,51912.723000,250.069,48.786,18.926,427.852,383.336,-44.912,-373.040,417.510,-328.020
788,51912.758000,290.595,81.980,16.934,423.142,395.069,-38.777,-255.040,319.510,-420.020
789,51912.796000,258.965,77.957,-22.911,414.450,394.250,-28.026,-724.040,91.510,-251.020
790,51912.876000,262.919,111.151,-13.946,415.554,403.493,-5.264,-1541.040,87.510,-125.020
791,51912.903000,216.463,118.193,-94.630,418.514,402.313,28.059,-2461.040,-184.490,-86.020
792,51912.926000,209.544,-5.532,-94.630,431.956,386.501,53.233,-1616.040,-586.490,420.980
793,51912.939000,229.313,30.680,-50.802,438.584,374.615,39.254,-589.040,-804.490,174.980
794,51912.986000,227.336,70.916,-33.868,445.262,370.258,14.655,-307.040,-1056.490,254.980
795,51913.29000,256.000,91.033,45.821,450.921,360.995,-12.016,-736.040,-1665.490,304.980
796,51913.61000,250.069,80.974,97.619,452.743,354.649,-36.670,-1203.040,-1378.490,389.980
797,51913.98000,244.139,26.656,158.381,456.510,346.661,-48.607,-568.040,-460.490,290.980
798,51913.146000,204.602,89.022,169.339,460.276,334.250,-41.030,-248.040,499.510,434.980
799,51913.185000,191.753,272.094,57.774,452.626,338.554,-18.395,72.960,1139.510,-525.020
800,51913.221000,254.023,0.503,64.747,457.463,338.602,-18.384,691.960,483.510,139.980
801,51913.264000,265.884,52.809,40.840,457.487,341.471,-20.281,512.960,224.510,-103.020
802,51913.285000,230.301,89.022,23.907,458.440,340.466,-22.263,-106.040,32.510,-106.020
803,51913.321000,246.116,70.916,16.934,454.608,343.428,-18.283,30.960,8.510,7.980
804,51913.371000,229.313,80.974,20.918,454.577,340.493,-19.328,127.960,12.510,15.980
805,51913.435000,237.220,92.039,28.887,455.561,342.423,-20.264,-40.040,-50.490,22.980
806,51913.461000,239.197,69.910,25.899,458.482,344.393,-20.214,-285.040,-205.490,20.980
807,51913.486000,251.058,61.862,13.946,455.540,340.460,-21.288,-214.040,-237.490,17.980
808,51913.512000,249.081,77.957,11.953,453.526,333.515,-27.331,84.960,-158.490,6.980
809,51913.562000,235.243,78.963,0.996,454.480,333.395,-33.215,-0.040,-199.490,9.980
810,51913.574000,233.266,65.886,0.996,454.473,333.331,-36.159,56.960,-154.490,2.980
811,51913.614000,238.208,83.992,3.984,458.409,340.164,-35.999,250.960,21.510,23.980
812,51913.658000,235.243,61.862,4.981,458.381,339.021,-43.870,112.960,-70.490,40.980
813,51913.692000,249.081,82.986,20.918,455.397,331.161,-46.992,319.960,37.510,26.980
814,51913.734000,233.266,93.045,13.946,454.418,330.159,-47.997,-10.040,-123.490,20.980
815,51913.773000,245.127,57.839,26.895,456.371,332.120,-47.950,-115.040,-211.490,38.980
816,51913.813000,249.081,69.910,12.949,456.431,339.736,-54.645,111.960,-198.490,23.980
817,51913.862000,245.127,58.845,11.953,457.291,329.907,-60.745,-83.040,-293.490,55.980
818,51913.894000,255.012,70.916,-5.977,462.129,331.723,-68.540,81.960,-301.490,69.980
819,51913.914000,244.139,71.921,-18.926,456.228,323.706,-77.557,46.960,-338.490,88.980
820,51913.959000,256.000,55.827,-6.973,460.153,330.432,-82.302,-61.040,-295.490,77.980
821,51913.994000,251.058,59.851,20.918,459.113,324.446,-89.302,103.960,-413.490,76.980
822,51914.34000,267.861,75.945,60.763,462.022,328.940,-106.848,104.960,-873.490,44.980
823,51914.85000,317.282,79.969,66.739,454.187,325.305,-136.365,89.960,-1648.490,85.980
824,51914.133000,289.606,118.193,-17.930,446.326,318.779,-164.966,-242.040,-1745.490,234.980
825,51914.154000,264.896,5.532,98.615,437.676,326.289,-172.663,-633.040,-756.490,147.980
826,51914.194000,204.602,45.768,193.245,450.382,333.811,-145.010,-324.040,771.510,88.980
827,51914.214000,243.151,31.686,54.786,463.999,327.600,-80.396,-798.040,2062.510,372.980
828,51914.255000,283.676,93.045,-28.887,475.708,326.030,-24.508,-1236.040,2245.510,465.980
829,51914.293000,268.849,104.110,-59.767,476.688,310.311,54.579,-1952.040,1778.510,590.980
830,51914.333000,203.614,82.986,-152.405,472.759,289.453,122.754,-1576.040,1220.510,501.980
831,51914.374000,165.066,19.615,-201.214,462.160,287.127,154.061,-449.040,736.510,156.980
832,51914.415000,179.892,42.750,-82.677,460.262,293.624,141.452,1749.960,59.510,43.980
833,51914.460000,511.012,147.363,-44.825,460.309,302.880,121.064,793.960,-629.490,-396.020
834,51914.495000,195.707,-5.532,-41.837,463.170,304.267,94.623,-91.040,-1233.490,-148.020
835,51914.535000,303.444,60.857,-44.825,463.159,305.929,81.911,4.960,-938.490,-301.020
836,51914.554000,222.394,98.075,-10.957,463.134,308.323,58.428,314.960,-696.490,-140.020
837,51914.594000,229.313,88.016,-79.689,459.253,309.063,49.611,-307.040,-414.490,23.980
838,51914.640000,250.069,52.809,-24.903,464.154,315.000,52.695,-494.040,-135.490,39.980
839,51914.674000,265.884,33.697,-3.984,467.978,309.320,57.480,-355.040,-35.490,8.980
840,51914.719000,254.023,45.768,17.930,463.143,308.410,62.353,-68.040,7.510,-121.020
841,51914.758000,249.081,64.880,9.961,457.357,311.180,58.480,213.960,-67.490,-153.020
842,51914.818000,237.220,77.957,-3.984,461.306,320.775,51.836,302.960,-114.490,-11.020
843,51914.849000,232.278,82.986,-19.922,460.306,318.694,45.904,53.960,-181.490,46.980
844,51914.875000,255.012,57.839,-2.988,461.206,312.771,40.871,24.960,-182.490,58.980
845,51914.904000,246.116,52.809,-34.864,460.208,310.712,35.920,-25.040,-159.490,51.980
846,51914.938000,244.139,56.833,-25.899,461.242,317.517,36.073,104.960,-19.490,-8.020
847,51914.978000,252.046,55.827,-13.946,463.172,317.493,34.116,239.960,36.510,55.980
848,51915.30000,252.046,43.756,-11.953,464.135,318.344,28.253,441.960,-12.490,68.980
849,51915.54000,233.266,64.880,-7.969,465.085,318.181,20.406,561.960,-80.490,30.980
850,51915.94000,229.313,89.022,2.988,464.991,310.241,12.384,283.960,-250.490,39.980
851,51915.139000,269.838,24.644,-38.848,466.918,311.058,4.561,-30.040,-271.490,167.980
852,51915.173000,245.127,88.016,-15.938,467.872,312.708,-9.130,402.960,-206.490,38.980
853,51915.195000,249.081,49.792,-26.895,469.721,305.736,-18.107,31.960,-390.490,176.980
854,51915.243000,259.954,13.580,-37.852,471.640,304.720,-21.067,-187.040,-365.490,197.980
855,51915.275000,259.954,40.739,-24.903,472.582,303.607,-27.954,398.960,-261.490,-106.020
856,51915.319000,252.046,82.986,-26.895,466.708,299.365,-41.790,564.960,-245.490,-198.020
857,51915.354000,299.490,-22.633,-74.708,460.048,312.697,-50.334,557.960,43.510,-205.020
858,51915.393000,240.185,-15.591,-92.638,451.321,312.418,-59.185,1010.960,344.510,-265.020
859,51915.433000,203.614,22.633,-149.416,450.374,314.372,-58.163,552.960,449.510,-48.020
860,51915.473000,235.243,-49.792,-111.564,455.094,301.841,-56.470,1502.960,953.510,214.980
861,51915.514000,253.035,-58.845,-190.257,462.702,290.094,-64.560,2534.960,1050.510,348.980
862,51915.534000,211.521,28.668,-168.342,467.323,273.097,-89.444,3691.960,976.510,434.980
863,51915.587000,212.510,55.827,-180.296,478.648,250.233,-119.347,3251.960,561.510,461.980
864,51915.613000,219.429,90.028,-133.479,491.822,217.766,-145.537,1887.960,15.510,529.980
865,51915.653000,258.965,58.845,-126.506,494.367,186.187,-170.749,1606.960,-256.490,599.980
866,51915.693000,265.884,31.686,-104.591,501.621,141.991,-198.193,1863.960,-419.490,693.980
867,51915.735000,273.792,-2.515,-96.623,502.047,91.904,-225.782,2352.960,-496.490,743.980
868,51915.775000,282.687,30.680,-91.642,495.890,58.536,-240.265,2539.960,-499.490,785.980
869,51915.817000,247.104,46.774,-85.665,489.516,5.470,-267.934,1250.960,-840.490,858.980
870,51915.837000,277.745,46.774,-58.770,473.776,-16.557,-291.992,-56.040,-1092.490,765.980
871,51915.877000,256.000,24.644,-30.879,454.216,-31.977,-322.776,-455.040,-1151.490,561.980
872,51915.920000,239.197,55.827,24.903,430.088,-21.965,-342.218,-1386.040,-931.490,447.980
873,51915.978000,263.907,29.674,59.767,430.252,-3.670,-348.676,-1210.040,37.510,-100.020
874,51915.995000,242.162,18.609,8.965,432.254,2.282,-343.636,-679.040,331.510,-317.020
875,51916.35000,211.521,-2.515,-21.914,438.259,21.864,-338.286,-227.040,366.510,-384.020
876,51916.77000,198.672,-22.633,-41.837,441.104,15.183,-334.505,532.960,175.510,-492.020
877,51916.120000,229.313,-50.798,-129.494,438.214,17.031,-337.412,681.960,-122.490,-448.020
878,51916.155000,234.255,-48.786,-13.946,438.284,23.871,-335.299,351.960,52.510,-416.020
879,51916.177000,247.104,-68.904,-111.564,442.152,23.887,-336.271,331.960,87.510,-289.020
880,51916.219000,242.162,-53.815,-91.642,442.130,21.039,-333.392,-11.040,16.510,-318.020
881,51916.257000,213.498,-33.697,-51.798,444.183,33.636,-335.070,-197.040,101.510,-423.020
882,51916.297000,285.652,-1.509,-99.611,442.328,41.427,-332.939,-589.040,72.510,-351.020
883,51916.337000,256.000,36.715,-94.630,441.582,62.906,-326.580,-501.040,195.510,-517.020
884,51916.375000,225.359,35.709,-61.759,445.661,83.440,-321.213,-440.040,219.510,-548.020
885,51916.430000,284.664,25.650,-54.786,448.605,86.510,-315.254,598.960,444.510,-545.020
886,51916.457000,272.803,50.798,-45.821,451.544,88.653,-307.355,-53.040,339.510,-585.020
887,51916.477000,255.012,13.580,-34.864,448.837,108.106,-303.987,-461.040,136.510,-506.020
888,51916.516000,261.931,58.845,-76.700,447.955,116.835,-303.795,-596.040,-6.490,-407.020
889,51916.555000,240.185,16.597,-79.689,448.171,137.395,-295.493,-409.040,118.510,-345.020
890,51916.687000,255.012,34.703,-43.829,449.218,145.215,-293.356,146.960,254.510,-337.020
891,51916.772000,251.058,50.798,-57.774,449.274,150.155,-289.324,-141.040,135.510,-238.020
892,51916.820000,267.861,20.621,-50.802,449.283,149.357,-281.496,-248.040,197.510,-259.020
893,51916.830000,235.243,62.868,-47.813,444.605,164.930,-277.238,-155.040,195.510,-248.020
894,51916.839000,234.255,58.845,-44.825,447.474,161.118,-275.355,-239.040,148.510,-162.020
895,51916.863000,250.069,58.845,-52.794,450.574,179.765,-267.089,-220.040,139.510,-128.020
896,51916.872000,237.220,55.827,-49.805,453.518,183.720,-265.034,-176.040,166.510,-121.020
897,51916.900000,248.093,57.839,-49.805,454.485,182.845,-261.129,-169.040,180.510,-94.020
898,51916.938000,235.243,63.874,-18.926,450.660,185.871,-254.205,-92.040,134.510,-116.020
899,51916.954000,240.185,51.804,-34.864,450.655,185.828,-256.167,-107.040,-32.490,-75.020
900,51917.10000,247.104,72.927,-25.899,448.805,194.547,-255.977,-70.040,-76.490,-99.020
901,51917.28000,243.151,43.756,-54.786,450.773,198.406,-257.849,-152.040,-76.490,-43.020
902,51917.55000,239.197,72.927,-49.805,451.773,201.371,-255.820,-43.040,-2.490,-73.020
903,51917.100000,236.232,47.780,-50.802,445.905,193.655,-251.100,-52.040,67.510,-21.020
904,51917.120000,247.104,77.957,-30.879,445.992,203.299,-253.828,42.960,38.510,-43.020
905,51917.155000,240.185,62.868,-38.848,445.933,197.453,-254.938,-43.040,-39.490,23.980
906,51917.210000,254.023,25.650,-45.821,448.868,200.437,-252.905,19.960,13.510,42.980
907,51917.237000,219.429,92.039,-45.821,445.962,200.365,-254.874,150.960,-61.490,1.980
908,51917.284000,253.035,44.762,-50.802,446.866,194.485,-257.944,0.960,-35.490,72.980
909,51917.327000,239.197,93.045,-46.817,449.735,190.673,-256.062,159.960,94.510,54.980
910,51917.355000,234.255,67.898,-47.813,450.770,197.500,-254.927,-35.040,80.510,67.980
911,51917.425000,246.116,64.880,-31.875,452.658,192.664,-255.031,82.960,69.510,98.980
912,51917.530000,235.243,66.892,-32.872,452.576,183.948,-254.243,13.960,-59.490,109.980
913,51917.551000,245.127,55.827,-32.872,450.625,182.894,-257.213,7.960,-126.490,135.980
914,51917.631000,245.127,60.857,-41.837,452.496,177.023,-260.281,-3.040,-201.490,152.980
915,51917.718000,243.151,53.815,-54.786,453.448,176.881,-267.147,-37.040,-180.490,149.980
916,51917.875000,250.069,46.774,-54.786,452.506,179.763,-268.066,105.960,-73.490,141.980
917,51917.875000,252.046,46.774,-52.794,452.450,173.937,-268.195,93.960,-15.490,139.980
918,51917.974000,240.185,49.792,-47.813,456.242,166.187,-269.340,7.960,-3.490,107.980
919,51918.81000,246.116,40.739,-47.813,448.505,166.133,-268.377,-24.040,-17.490,86.980
920,51918.154000,243.151,54.821,-51.798,456.228,165.173,-271.324,71.960,10.510,71.980
921,51918.154000,244.139,52.809,-30.879,454.269,162.284,-269.431,147.960,-5.490,27.980
922,51918.435000,247.104,42.750,-50.802,457.203,166.131,-272.281,-0.040,-70.490,68.980
923,51918.435000,250.069,33.697,-47.813,456.155,158.312,-274.418,27.960,-43.490,60.980
924,51918.435000,250.069,44.762,-46.817,454.208,156.416,-271.522,-40.040,-35.490,62.980
925,51918.495000,244.139,51.804,-53.790,452.253,155.318,-276.454,-92.040,-47.490,60.980
926,51918.495000,249.081,37.721,-53.790,455.221,161.258,-272.393,-13.040,21.510,47.980
927,51918.711000,243.151,46.774,-46.817,456.136,155.486,-270.558,22.960,24.510,26.980
928,51918.711000,247.104,42.750,-39.844,455.188,158.302,-274.420,-35.040,-14.490,23.980
929,51918.711000,244.139,41.745,-48.809,454.208,156.416,-271.522,-78.040,-85.490,14.980
930,51918.730000,246.116,40.739,-47.813,455.164,156.318,-276.426,-31.040,-80.490,7.980
931,51918.819000,250.069,34.703,-57.774,452.302,160.194,-275.365,-20.040,-38.490,1.980
932,51918.819000,246.116,42.750,-50.802,456.179,161.181,-276.316,0.960,20.510,-21.020
933,51918.819000,244.139,38.727,-48.809,453.230,156.299,-276.430,-12.040,-1.490,-9.020
934,51918.819000,244.139,45.768,-48.809,452.246,154.369,-275.495,-15.040,-21.490,-25.020
935,51918.880000,245.127,40.739,-52.794,449.355,155.333,-274.499,-19.040,-27.490,-22.020
936,51919.35000,244.139,45.768,-51.798,450.363,160.132,-277.332,24.960,-9.490,-37.020
937,51919.35000,242.162,43.756,-51.798,453.272,161.110,-278.285,-61.040,-12.490,-30.020
938,51919.35000,245.127,45.768,-46.817,455.200,160.179,-277.321,-19.040,-23.490,-43.020
939,51919.35000,244.139,41.745,-49.805,449.367,157.210,-277.399,-50.040,-25.490,-37.020
940,51919.144000,245.127,43.756,-54.786,448.440,161.106,-276.334,-16.040,-11.490,-44.020
941,51919.144000,240.185,39.733,-51.798,448.501,167.859,-278.145,-9.040,2.510,-51.020
942,51919.144000,242.162,54.821,-53.790,452.314,162.071,-278.265,76.960,38.510,-50.020
943,51919.144000,239.197,44.762,-52.794,448.517,168.894,-275.180,54.960,23.510,-49.020
944,51919.234000,245.127,46.774,-57.774,452.347,165.027,-276.238,-24.040,37.510,-24.020
945,51919.234000,252.046,57.839,-40.840,450.431,166.950,-276.200,-15.040,11.510,-25.020
946,51919.234000,241.174,47.780,-50.802,449.515,171.838,-274.132,-150.040,-29.490,14.980
947,51919.234000,250.069,42.750,-51.798,448.506,167.902,-276.183,-9.040,12.510,13.980
948,51919.315000,242.162,54.821,-48.809,453.376,170.905,-274.145,-38.040,-1.490,53.980
949,51919.315000,252.046,45.768,-44.825,453.328,166.051,-274.252,53.960,6.510,97.980
950,51919.339000,245.127,51.804,-45.821,450.391,163.045,-277.267,69.960,-41.490,110.980
951,51919.339000,241.174,51.804,-49.805,454.202,157.236,-278.369,77.960,-82.490,151.980
952,51919.405000,234.255,47.780,-39.844,451.211,149.311,-284.435,119.960,-159.490,208.980
953,51919.405000,248.093,47.780,-48.809,451.199,148.319,-285.438,20.960,-248.490,230.980
954,51919.405000,243.151,33.697,-52.794,449.248,147.264,-288.407,52.960,-270.490,261.980
955,51919.405000,251.058,42.750,-49.805,451.037,133.562,-294.592,138.960,-285.490,311.980
956,51919.455000,238.208,37.721,-52.794,444.184,127.433,-305.529,114.960,-412.490,370.980
957,51919.455000,254.023,25.650,-52.794,439.247,119.382,-316.506,185.960,-485.490,424.980
958,51919.455000,267.861,35.709,-65.743,436.160,103.496,-331.575,242.960,-610.490,480.980
959,51919.501000,280.710,8.550,-77.696,431.116,84.744,-343.770,185.960,-600.490,445.980
960,51919.501000,285.652,24.644,-71.720,419.421,78.525,-356.681,334.960,-598.490,406.980
961,51919.553000,260.942,15.591,-62.755,414.462,67.626,-364.778,111.960,-718.490,454.980
962,51919.570000,244.139,-16.597,-81.681,400.837,62.316,-379.635,81.960,-831.490,434.980
963,51919.597000,250.069,19.615,-84.669,391.019,51.154,-397.555,580.960,-782.490,544.980
964,51919.624000,243.151,48.786,-97.619,376.252,27.431,-410.862,379.960,-842.490,444.980
965,51919.624000,213.498,31.686,-149.416,359.762,25.977,-425.639,81.960,-948.490,288.980
966,51919.650000,207.568,6.538,-65.743,351.042,27.532,-439.352,109.960,-611.490,161.980
967,51919.674000,160.124,67.898,-57.774,354.029,36.298,-439.151,-357.040,38.510,-105.020
968,51919.708000,187.799,69.910,-40.840,363.042,65.724,-428.672,-1091.040,561.510,-407.020
969,51919.708000,245.127,-5.532,-52.794,386.691,105.303,-404.208,-1353.040,1173.510,-391.020
970,51919.784000,248.093,-6.538,-80.685,416.984,128.745,-366.359,-559.040,1561.510,-393.020
971,51919.825000,256.000,47.780,-99.611,442.602,166.896,-319.367,-979.040,1674.510,-500.020
972,51919.870000,254.023,33.697,-112.560,463.440,209.079,-263.469,-1686.040,1498.510,-468.020
973,51919.903000,300.479,9.556,-134.475,471.673,247.341,-203.763,-2314.040,1337.510,-389.020
974,51919.927000,243.151,2.515,-166.350,476.791,268.574,-166.996,-1803.040,1061.510,-177.020
975,51919.928000,263.907,45.768,-117.541,473.101,279.065,-129.506,-1184.040,549.510,-96.020
976,51919.974000,246.116,27.662,-58.770,467.470,291.241,-102.770,-822.040,381.510,-176.020
977,51919.996000,252.046,48.786,-38.848,466.634,302.170,-90.761,-175.040,353.510,-186.020
978,51920.67000,257.977,82.986,-6.973,461.908,310.235,-74.902,-549.040,297.510,-185.020
979,51920.82000,248.093,43.756,0.000,455.190,310.687,-51.370,-672.040,461.510,-177.020
980,51920.114000,228.324,30.680,-63.751,445.673,321.790,-27.608,-635.040,527.510,-206.020
981,51920.139000,244.139,28.668,-68.732,445.709,323.019,-15.812,-785.040,376.510,-106.020
982,51920.208000,187.799,19.615,-85.665,440.903,322.389,1.815,-685.040,164.510,38.980
983,51920.238000,256.988,95.057,-66.739,438.097,332.091,3.006,-273.040,-295.490,-115.020
984,51920.296000,294.548,91.033,66.739,439.093,335.013,3.073,-193.040,-44.490,-227.020
985,51920.310000,282.687,22.633,17.930,439.981,327.213,0.940,76.960,-144.490,1.980
986,51920.353000,261.931,51.804,9.961,437.175,337.799,-1.773,-190.040,-252.490,-115.020
987,51920.386000,258.965,54.821,2.988,440.047,334.893,-2.812,-254.040,-262.490,-117.020
988,51920.400000,239.197,64.880,-19.922,436.239,341.609,-4.632,-139.040,-127.490,-113.020
989,51920.431000,260.942,55.827,-3.984,434.337,344.546,-2.610,-125.040,-64.490,-85.020
990,51920.442000,248.093,67.898,-0.996,433.350,342.594,-2.655,-117.040,-37.490,-102.020
991,51920.517000,240.185,82.986,3.984,428.503,340.692,1.215,-260.040,-60.490,-108.020
992,51920.561000,250.069,61.862,-4.981,430.546,351.433,3.419,-308.040,-35.490,-75.020
993,51920.589000,248.093,55.827,-3.984,428.632,352.493,8.342,-208.040,-15.490,-95.020
994,51920.594000,249.081,60.857,0.000,428.642,353.464,8.363,-129.040,-4.490,-121.020
995,51920.647000,245.127,63.874,-0.996,424.784,354.419,9.357,-55.040,20.510,-129.020
996,51920.655000,241.174,79.969,3.984,421.857,351.521,11.248,-18.040,2.510,-130.020
997,51920.672000,240.185,74.939,0.000,419.028,359.238,10.433,-69.040,-29.490,-85.020
998,51920.687000,248.093,71.921,0.996,418.075,361.127,8.511,124.960,19.510,-83.020
999,51920.710000,244.139,76.951,-2.988,420.019,362.117,8.537,89.960,54.510,-27.020
1000,51920.751000,245.127,69.910,-4.981,416.133,361.044,5.563,190.960,112.510,-87.020
1001,51920.793000,249.081,76.951,0.996,419.014,358.224,8.449,16.960,173.510,-62.020
1002,51920.814000,248.093,69.910,9.961,414.193,359.212,11.402,250.960,288.510,-24.020
1003,51920.850000,237.220,68.904,0.000,413.294,366.021,12.532,324.960,256.510,-50.020
1004,51920.899000,246.116,83.992,-1.992,410.387,365.949,10.563,221.960,280.510,-104.020
1005,51920.934000,242.162,71.921,0.000,410.375,364.072,13.464,290.960,343.510,-55.020
1006,51920.969000,239.197,88.016,10.957,409.495,372.822,14.637,215.960,363.510,-100.020
1007,51921.14000,239.197,76.951,15.938,406.538,366.106,19.385,27.960,337.510,-93.020
1008,51921.55000,228.324,88.016,23.907,404.713,376.831,22.561,180.960,317.510,-106.020
1009,51921.96000,224.371,106.122,45.821,404.732,377.888,26.507,97.960,208.510,-92.020
1010,51921.133000,245.127,83.992,20.918,402.790,377.805,23.559,14.960,73.510,-57.020
1011,51921.158000,239.197,93.045,24.903,397.938,374.974,29.370,38.960,72.510,-101.020
1012,51921.194000,239.197,78.963,23.907,398.018,383.669,27.602,22.960,3.510,-141.020
1013,51921.245000,241.174,100.086,22.911,394.151,383.653,28.574,-219.040,-27.490,-139.020
1014,51921.275000,259.954,56.833,10.957,396.132,387.641,32.589,24.960,138.510,-89.020
1015,51921.311000,253.035,101.092,12.949,392.265,387.625,33.561,221.960,301.510,-164.020
1016,51921.352000,243.151,95.057,18.926,390.301,382.925,41.298,-344.040,232.510,-169.020
1017,51921.393000,279.722,89.022,17.930,388.466,390.910,52.259,-570.040,185.510,-78.020
1018,51921.433000,263.907,73.933,36.856,388.499,390.349,70.879,-976.040,246.510,1.980
1019,51921.453000,232.278,72.927,57.774,386.583,390.503,78.724,109.960,505.510,-43.020
1020,51921.493000,213.498,78.963,55.782,386.531,385.605,76.654,364.960,367.510,79.980
1021,51921.534000,202.625,103.104,49.805,382.709,391.306,72.850,413.960,78.510,59.980
1022,51921.570000,221.405,98.075,73.712,384.585,386.363,67.840,55.960,-30.490,43.980
1023,51921.612000,210.533,92.039,69.728,387.515,388.419,71.815,-558.040,-90.490,99.980
1024,51921.678000,217.452,89.022,57.774,388.366,374.103,82.286,-755.040,-121.490,152.980
1025,51921.694000,227.336,83.992,69.728,393.240,376.264,90.190,-439.040,33.510,113.980
1026,51921.753000,217.452,91.033,53.790,391.244,369.493,91.997,15.960,128.510,81.980
1027,51921.774000,220.417,108.134,50.802,389.365,375.299,92.121,163.960,126.510,41.980
1028,51921.794000,223.382,93.045,48.809,390.281,370.411,90.054,144.960,136.510,17.980
1029,51921.840000,212.510,105.116,42.833,390.319,374.294,90.140,-2.040,26.510,-4.020
1030,51921.875000,218.440,90.028,42.833,391.300,375.318,92.126,-303.040,-116.490,1.980
1031,51921.913000,224.371,83.992,53.790,391.189,362.804,96.751,-345.040,-102.490,-3.020
1032,51921.950000,220.417,78.963,49.805,392.234,370.602,97.907,-202.040,-142.490,4.980
1033,51921.993000,235.243,73.933,49.805,394.183,372.520,95.993,28.960,-143.490,4.980
1034,51922.33000,234.255,83.992,40.840,392.261,374.378,93.088,96.960,-155.490,44.980
1035,51922.75000,241.174,82.986,60.763,399.972,372.425,89.138,-31.040,-204.490,74.980
1036,51922.95000,230.301,84.998,44.825,399.918,367.506,86.087,-87.040,-188.490,75.980
1037,51922.133000,231.290,86.004,56.778,401.729,354.882,84.830,-179.040,-200.490,70.980
1038,51922.173000,228.324,81.980,71.720,406.603,357.928,88.830,-325.040,-143.490,59.980
1039,51922.214000,227.336,81.980,50.802,408.512,355.056,89.751,-411.040,-245.490,86.980
1040,51922.254000,226.347,75.945,43.829,411.404,353.229,93.639,-539.040,-345.490,83.980
1041,51922.295000,234.255,68.904,36.856,418.169,352.346,94.615,-391.040,-354.490,49.980
1042,51922.334000,237.220,64.880,46.817,419.069,346.422,89.582,-201.040,-344.490,44.980
1043,51922.378000,231.290,81.980,50.802,421.001,346.419,88.605,66.960,-145.490,-63.020
1044,51922.415000,224.371,100.086,38.848,419.134,354.966,80.946,296.960,-133.490,-94.020
1045,51922.430000,250.069,96.063,81.681,418.194,357.869,81.008,110.960,-183.490,-31.020
1046,51922.473000,253.035,64.880,13.946,424.838,346.134,73.897,-276.040,-443.490,128.980
1047,51922.519000,274.780,18.609,21.914,426.780,347.102,72.942,-537.040,-480.490,78.980
1048,51922.554000,243.151,63.874,25.899,427.690,341.286,72.815,-442.040,-442.490,14.980
1049,51922.594000,247.104,74.939,15.938,425.754,342.130,67.926,-126.040,-403.490,49.980
1050,51922.635000,241.174,63.874,6.973,435.436,344.058,63.086,-49.040,-366.490,64.980
1051,51922.675000,242.162,70.916,6.973,435.418,343.886,55.237,-184.040,-344.490,43.980
1052,51922.716000,248.093,64.880,10.957,438.207,333.148,51.082,-187.040,-323.490,46.980
1053,51922.735000,248.093,53.815,0.000,437.294,338.943,50.228,-120.040,-256.490,36.980
1054,51922.771000,242.162,68.904,0.000,434.388,338.871,48.259,-85.040,-241.490,14.980
1055,51922.814000,248.093,56.833,7.969,439.204,337.839,43.343,-195.040,-258.490,36.980
1056,51922.855000,244.139,58.845,-4.981,441.073,331.947,39.293,-32.040,-241.490,25.980
1057,51922.897000,241.174,62.868,-10.957,438.195,335.673,33.486,-22.040,-250.490,13.980
1058,51922.930000,240.185,66.892,-13.946,439.118,331.734,30.458,-63.040,-249.490,37.980
1059,51922.976000,242.162,54.821,-19.922,442.035,334.545,24.643,-104.040,-222.490,35.980
1060,51923.11000,250.069,60.857,-23.907,440.983,324.914,28.350,-125.040,-126.490,46.980
1061,51923.54000,254.023,61.862,-10.957,442.026,333.575,24.621,63.960,-68.490,19.980
1062,51923.74000,238.208,70.916,-14.942,441.033,331.559,21.633,-30.040,-94.490,11.980
1063,51923.115000,248.093,68.904,-13.946,440.039,328.658,22.547,-100.040,-95.490,31.980
1064,51923.155000,245.127,65.886,-12.949,443.850,322.849,21.445,-69.040,-97.490,76.980
1065,51923.197000,249.081,63.874,-19.922,444.846,325.771,21.512,70.960,-22.490,79.980
1066,51923.235000,248.093,63.874,-22.911,446.826,330.623,20.643,114.960,38.510,114.980
1067,51923.276000,246.116,64.880,-13.946,450.684,329.668,19.650,155.960,86.510,125.980
1068,51923.314000,250.069,53.815,-16.934,451.519,316.085,19.350,185.960,99.510,146.980
1069,51923.354000,244.139,59.851,-3.984,453.419,313.127,16.346,302.960,97.510,138.980
1070,51923.374000,245.127,55.827,-13.946,459.267,317.995,14.505,269.960,28.510,165.980
1071,51923.413000,250.069,50.798,-8.965,460.183,313.991,8.534,306.960,13.510,185.980
1072,51923.455000,245.127,53.815,-17.930,462.017,304.237,5.380,344.960,-4.490,220.980
1073,51923.495000,256.000,31.686,-19.922,465.840,300.305,1.378,388.960,13.510,221.980
1074,51923.540000,253.035,60.857,-21.914,465.812,298.277,-2.590,439.960,32.510,215.980
1075,51923.571000,248.093,59.851,-14.942,469.661,296.351,-3.605,38.960,-0.490,279.980
1076,51923.611000,259.954,-5.532,-21.914,475.409,290.583,-3.721,-24.040,0.510,286.980
1077,51923.660000,245.127,39.733,-15.938,476.316,285.608,-9.714,528.960,116.510,171.980
1078,51923.696000,250.069,51.804,-19.922,477.168,273.946,-10.951,280.960,101.510,171.980
