Sample, Time, ACCX, ACCY, ACCZ, MAGX, MAGY, MAGZ, GYRX, GYRY, GYRZ
0,51047.755000,250.069,38.727,-20.918,494.186,257.115,-122.104,36.960,-33.490,-2.020
1,51047.771000,249.081,41.745,-20.918,496.142,259.097,-121.075,25.960,-36.490,-2.020
2,51047.831000,248.093,40.739,-20.918,493.289,263.945,-119.993,16.960,-42.490,-0.020
3,51047.855000,248.093,40.739,-18.926,493.216,257.084,-123.087,10.960,-45.490,2.980
4,51047.872000,249.081,39.733,-24.903,493.245,259.997,-123.022,13.960,-39.490,1.980
5,51047.889000,250.069,39.733,-23.907,490.371,263.766,-126.867,18.960,-23.490,1.980
6,51047.933000,248.093,42.750,-24.903,494.236,262.876,-124.918,-5.040,-14.490,-1.020
7,51048.82000,252.046,38.727,-24.903,491.374,266.752,-123.857,-8.040,9.510,-6.020
8,51048.99000,250.069,40.739,-23.907,493.297,265.779,-124.855,-5.040,26.510,-9.020
9,51048.155000,249.081,44.762,-25.899,490.401,265.815,-121.919,-11.040,32.510,-9.020
10,51048.155000,250.069,40.739,-22.911,492.256,258.024,-124.049,-19.040,40.510,-5.020
11,51048.155000,250.069,41.745,-19.922,492.355,267.776,-121.871,-5.040,48.510,-4.020
12,51048.161000,252.046,39.733,-18.926,495.250,267.739,-124.808,0.960,48.510,-9.020
13,51048.177000,249.081,43.756,-17.930,492.354,266.891,-117.968,-13.040,37.510,-6.020
14,51048.193000,252.046,40.739,-17.930,494.287,266.888,-118.945,-19.040,26.510,-0.020
15,51048.231000,247.104,41.745,-17.930,497.119,259.193,-117.148,-19.040,16.510,-2.020
16,51048.278000,251.058,41.745,-18.926,498.159,266.948,-117.954,-38.040,2.510,0.980
17,51048.315000,250.069,41.745,-18.926,491.344,262.071,-116.116,-22.040,5.510,-1.020
18,51048.350000,249.081,43.756,-16.934,494.289,266.910,-117.963,-25.040,-9.490,3.980
19,51048.389000,252.046,42.750,-17.930,492.284,259.167,-116.178,-44.040,-15.490,5.980
20,51048.403000,250.069,38.727,-22.911,492.272,258.175,-117.181,-16.040,2.510,0.980
21,51048.451000,248.093,40.739,-16.934,495.219,262.151,-114.145,-23.040,4.510,-0.020
22,51048.487000,250.069,41.745,-17.930,493.270,261.119,-116.133,-31.040,2.510,1.980
23,51048.542000,251.058,40.739,-17.930,495.273,267.955,-114.996,-21.040,8.510,-0.020
24,51048.603000,248.093,42.750,-16.934,495.200,260.210,-114.188,-14.040,6.510,2.980
25,51048.654000,250.069,41.745,-19.922,493.331,266.987,-114.041,-15.040,8.510,4.980
26,51048.690000,250.069,40.739,-16.934,492.305,262.015,-119.057,6.960,8.510,-0.020
27,51048.718000,249.081,41.745,-18.926,493.359,269.899,-113.976,-7.040,0.510,3.980
28,51048.726000,248.093,42.750,-16.934,496.269,270.877,-114.929,-9.040,-6.490,8.980
29,51048.754000,252.046,39.733,-17.930,493.336,267.915,-115.982,-5.040,-5.490,3.980
30,51048.853000,250.069,40.739,-16.934,495.209,261.181,-114.166,-7.040,-2.490,1.980
31,51048.887000,250.069,39.733,-17.930,491.384,265.976,-115.048,-0.040,2.510,0.980
32,51049.39000,248.093,41.745,-18.926,496.240,267.964,-114.994,-7.040,-2.490,4.980
33,51049.79000,250.069,41.745,-16.934,495.225,262.216,-111.201,-5.040,1.510,4.980
34,51049.158000,250.069,39.733,-19.922,497.229,269.937,-113.967,3.960,13.510,2.980
35,51049.214000,250.069,41.745,-16.934,494.272,264.105,-113.122,3.960,12.510,2.980
36,51049.214000,250.069,40.739,-16.934,492.328,263.116,-113.149,4.960,13.510,2.980
37,51049.238000,250.069,40.739,-17.930,494.317,268.938,-113.996,4.960,7.510,2.980
38,51049.252000,251.058,40.739,-15.938,497.243,270.951,-111.984,14.960,7.510,5.980
39,51049.327000,249.081,42.750,-15.938,495.216,262.130,-115.126,13.960,4.510,6.980
40,51049.327000,250.069,41.745,-17.930,496.233,267.015,-114.034,5.960,4.510,2.980
41,51049.353000,249.081,40.739,-15.938,497.154,262.170,-114.140,14.960,4.510,4.980
42,51049.393000,250.069,42.750,-15.938,493.324,266.038,-113.082,-4.040,-9.490,6.980
43,51049.455000,252.046,40.739,-18.926,493.335,267.030,-112.079,-0.040,-1.490,0.980
44,51049.537000,250.069,41.745,-17.930,497.184,265.104,-113.094,4.960,14.510,-3.020
45,51049.537000,250.069,40.739,-19.922,497.120,258.330,-112.264,-1.040,16.510,-2.020
46,51049.560000,250.069,41.745,-17.930,493.338,267.052,-111.098,4.960,23.510,-4.020
47,51049.617000,249.081,42.750,-15.938,495.204,260.253,-112.225,-5.040,23.510,-7.020
48,51049.634000,251.058,41.745,-14.942,495.301,269.983,-111.029,-19.040,16.510,-6.020
49,51049.704000,250.069,37.721,-18.926,495.287,268.969,-113.012,-9.040,25.510,-8.020
50,51049.704000,250.069,42.750,-14.942,496.183,261.255,-111.220,-3.040,40.510,-15.020
51,51049.738000,250.069,42.750,-14.942,495.244,263.273,-107.255,-4.040,52.510,-15.020
52,51049.800000,251.058,41.745,-12.949,497.247,270.994,-110.021,2.960,46.510,-11.020
53,51049.814000,249.081,40.739,-12.949,495.310,270.954,-111.007,-1.040,37.510,-12.020
54,51049.913000,246.116,42.750,-11.953,495.300,269.098,-107.126,-18.040,24.510,-12.020
55,51049.913000,250.069,43.756,-10.957,496.272,269.151,-105.161,-11.040,16.510,-10.020
56,51049.932000,250.069,43.756,-12.949,498.207,269.170,-105.156,0.960,15.510,-9.020
57,51049.975000,249.081,44.762,-9.961,496.287,271.050,-107.080,-13.040,4.510,-6.020
58,51049.985000,252.046,41.745,-12.949,494.302,265.270,-104.271,-27.040,2.510,-5.020
59,51050.59000,249.081,43.756,-11.953,495.347,273.068,-103.115,-2.040,7.510,-9.020
60,51050.59000,248.093,41.745,-12.949,491.463,272.016,-105.108,-11.040,4.510,-5.020
61,51050.80000,250.069,44.762,-12.949,493.349,267.159,-106.192,-12.040,1.510,-5.020
62,51050.208000,251.058,42.750,-12.949,493.384,270.137,-103.184,-13.040,6.510,-5.020
63,51050.274000,249.081,42.750,-11.953,492.433,272.047,-104.124,-3.040,14.510,-5.020
64,51050.310000,250.069,45.768,-11.953,493.396,271.129,-102.181,-10.040,9.510,-3.020
65,51050.328000,249.081,42.750,-9.961,495.303,269.120,-106.144,-6.040,5.510,-2.020
66,51050.404000,250.069,43.756,-9.961,492.372,265.295,-102.313,-2.040,-0.490,0.980
67,51050.404000,250.069,44.762,-11.953,495.302,268.235,-102.241,-6.040,-3.490,2.980
68,51050.404000,251.058,44.762,-10.957,494.366,272.045,-105.101,-2.040,-8.490,3.980
69,51050.459000,249.081,43.756,-10.957,497.263,271.145,-103.153,-2.040,-12.490,4.980
70,51050.478000,251.058,44.762,-9.961,494.356,271.074,-105.122,-4.040,-19.490,6.980
71,51050.500000,249.081,43.756,-10.957,493.353,267.203,-104.230,-11.040,-23.490,4.980
72,51050.594000,251.058,42.750,-11.953,494.363,272.023,-106.082,-9.040,-15.490,5.980
73,51050.594000,250.069,43.756,-12.949,491.435,269.104,-105.172,0.960,2.510,3.980
74,51050.613000,250.069,43.756,-13.946,496.293,271.114,-104.137,0.960,12.510,1.980
75,51050.664000,250.069,42.750,-10.957,496.286,270.165,-103.177,13.960,24.510,-2.020
76,51050.768000,249.081,44.762,-10.957,492.374,266.201,-105.235,0.960,19.510,0.980
77,51050.798000,250.069,44.762,-9.961,494.332,268.204,-103.225,11.960,12.510,1.980
78,51050.863000,247.104,43.756,-9.961,494.292,263.415,-100.389,-2.040,3.510,1.980
79,51050.898000,249.081,43.756,-10.957,495.338,272.097,-103.136,-8.040,-5.490,1.980
80,51050.945000,249.081,43.756,-12.949,494.311,265.357,-100.346,-5.040,-7.490,2.980
81,51050.945000,250.069,44.762,-9.961,495.352,273.111,-101.152,-5.040,-9.490,5.980
82,51051.9000,247.104,44.762,-7.969,493.318,263.341,-103.335,-11.040,-22.490,7.980
83,51051.74000,250.069,41.745,-12.949,493.358,267.246,-102.267,-19.040,-31.490,3.980
84,51051.178000,249.081,44.762,-13.946,493.349,267.159,-106.192,-19.040,-19.490,-1.020
85,51051.234000,249.081,44.762,-11.953,497.282,273.972,-107.013,-10.040,-4.490,1.980
86,51051.293000,249.081,43.756,-12.949,496.235,265.268,-105.247,-0.040,6.510,0.980
87,51051.325000,251.058,42.750,-10.957,496.324,274.048,-103.091,-4.040,0.510,-0.020
88,51051.325000,249.081,43.756,-10.957,494.330,268.183,-104.206,-14.040,-8.490,1.980
89,51051.373000,252.046,44.762,-12.949,494.377,273.037,-104.098,-12.040,-7.490,3.980
90,51051.442000,251.058,43.756,-11.953,494.368,272.066,-104.120,-6.040,3.510,1.980
91,51051.442000,251.058,43.756,-12.949,493.346,266.253,-103.270,-6.040,11.510,-2.020
92,51051.442000,251.058,42.750,-12.949,494.321,267.212,-104.227,-16.040,26.510,-11.020
93,51051.538000,251.058,45.768,-12.949,493.367,268.217,-102.246,-5.040,39.510,-8.020
94,51051.538000,250.069,43.756,-8.965,496.293,271.114,-104.137,11.960,34.510,-2.020
95,51051.595000,249.081,44.762,-7.969,496.321,273.142,-100.169,2.960,22.510,-1.020
96,51051.619000,251.058,42.750,-10.957,495.361,274.082,-101.131,3.960,13.510,-1.020
97,51051.619000,250.069,44.762,-8.965,495.311,268.322,-98.317,3.960,9.510,-4.020
98,51051.645000,250.069,43.756,-8.965,489.549,273.076,-100.185,-3.040,2.510,3.980
99,51051.680000,248.093,43.756,-9.961,497.263,270.261,-99.250,3.960,-4.490,2.980
100,51051.743000,251.058,43.756,-9.961,494.370,272.088,-103.138,-5.040,-5.490,0.980
101,51051.743000,249.081,45.768,-9.961,498.263,274.110,-101.124,2.960,-5.490,2.980
102,51051.875000,253.035,43.756,-9.961,494.380,273.059,-103.117,5.960,-0.490,1.980
103,51051.875000,249.081,44.762,-8.965,492.385,266.309,-100.329,4.960,1.510,1.980
104,51051.907000,250.069,43.756,-8.965,494.386,273.123,-100.173,-0.040,-1.490,2.980
105,51051.907000,249.081,44.762,-11.953,494.401,275.022,-102.093,3.960,-2.490,-0.020
106,51051.954000,250.069,46.774,-9.961,495.295,268.171,-105.185,2.960,0.510,1.980
107,51052.21000,249.081,44.762,-7.969,493.414,273.071,-102.138,-4.040,-8.490,0.980
108,51052.102000,250.069,45.768,-9.961,495.302,268.235,-102.241,-10.040,-11.490,-2.020
109,51052.102000,251.058,43.756,-11.953,488.577,273.024,-102.149,-8.040,-6.490,-3.020
110,51052.234000,250.069,43.756,-10.957,495.295,267.286,-101.282,-5.040,3.510,-4.020
111,51052.234000,247.104,44.762,-7.969,494.358,270.211,-100.238,-6.040,2.510,-2.020
112,51052.234000,251.058,42.750,-10.957,494.372,272.109,-102.157,-3.040,3.510,-8.020
113,51052.277000,248.093,45.768,-10.957,489.493,267.251,-100.314,-8.040,7.510,-6.020
114,51052.300000,248.093,45.768,-8.965,494.332,268.204,-103.225,3.960,4.510,0.980
115,51052.335000,250.069,45.768,-7.969,495.326,270.220,-100.236,-3.040,-2.490,0.980
116,51052.378000,249.081,42.750,-11.953,492.482,276.039,-99.132,-15.040,-12.490,-0.020
117,51052.465000,250.069,44.762,-9.961,495.295,267.286,-101.282,-17.040,-21.490,0.980
118,51052.465000,250.069,45.768,-10.957,491.446,269.212,-100.266,-17.040,-25.490,-1.020
119,51052.536000,250.069,44.762,-12.949,494.387,274.008,-104.076,-18.040,-27.490,-0.020
120,51052.536000,248.093,45.768,-11.953,493.436,275.034,-101.114,-14.040,-29.490,1.980
121,51052.536000,251.058,44.762,-11.953,495.385,276.952,-103.028,-17.040,-28.490,1.980
122,51052.536000,249.081,44.762,-12.949,495.366,275.010,-103.072,-13.040,-23.490,3.980
123,51052.560000,249.081,45.768,-12.949,493.379,270.094,-105.146,-0.040,-12.490,2.980
124,51052.605000,250.069,43.756,-10.957,490.503,272.072,-102.166,-0.040,-9.490,1.980
125,51052.654000,250.069,45.768,-11.953,491.501,275.900,-105.021,0.960,-7.490,-0.020
126,51052.654000,251.058,44.762,-10.957,494.387,274.008,-104.076,-8.040,-5.490,0.980
127,51052.720000,250.069,45.768,-10.957,492.405,269.135,-104.189,-2.040,-1.490,-1.020
128,51052.720000,249.081,44.762,-12.949,492.405,269.135,-104.189,-4.040,-1.490,1.980
129,51052.780000,250.069,44.762,-11.953,491.451,270.139,-102.207,-0.040,-2.490,-0.020
130,51052.780000,250.069,44.762,-12.949,490.553,277.832,-104.980,-8.040,-5.490,-0.020
131,51052.800000,251.058,43.756,-11.953,492.416,270.127,-103.186,-0.040,-3.490,0.980
132,51052.835000,249.081,44.762,-12.949,489.521,271.048,-104.152,-2.040,-0.490,1.980
133,51052.918000,249.081,46.774,-12.949,491.449,270.118,-103.188,-2.040,-0.490,2.980
134,51052.985000,248.093,43.756,-9.961,493.372,269.144,-104.187,-4.040,-3.490,3.980
135,51052.985000,250.069,44.762,-9.961,493.422,274.020,-103.098,-8.040,-6.490,-0.020
136,51052.985000,249.081,45.768,-11.953,493.358,268.130,-106.170,-8.040,-5.490,-2.020
137,51053.39000,250.069,46.774,-13.946,490.500,272.050,-103.147,-1.040,-2.490,0.980
138,51053.100000,248.093,45.768,-10.957,492.433,272.047,-104.124,-4.040,-8.490,-0.020
139,51053.119000,251.058,45.768,-9.961,489.564,275.859,-106.007,-7.040,-12.490,0.980
140,51053.159000,250.069,44.762,-11.953,493.429,274.969,-104.057,2.960,-13.490,0.980
141,51053.204000,249.081,45.768,-12.949,491.501,275.900,-105.021,-1.040,-14.490,-1.020
142,51053.204000,249.081,45.768,-13.946,494.427,277.913,-103.009,-7.040,-12.490,0.980
143,51053.283000,248.093,45.768,-11.953,492.384,267.172,-105.213,-15.040,-13.490,-0.020
144,51053.345000,250.069,47.780,-10.957,492.412,270.084,-105.148,-23.040,-19.490,1.980
145,51053.359000,252.046,46.774,-13.946,492.462,275.845,-107.962,-15.040,-16.490,1.980
146,51053.404000,249.081,46.774,-14.942,494.403,275.928,-105.014,-24.040,-13.490,-2.020
147,51053.465000,248.093,46.774,-11.953,492.405,269.135,-104.189,-9.040,-3.490,-1.020
148,51053.465000,250.069,46.774,-11.953,493.431,274.991,-103.076,-15.040,-4.490,0.980
149,51053.519000,249.081,44.762,-12.949,490.468,269.094,-105.174,-6.040,-4.490,1.980
150,51053.519000,249.081,43.756,-12.949,489.555,274.889,-106.028,-18.040,-13.490,1.980
151,51053.557000,249.081,45.768,-14.942,491.522,277.863,-103.997,-16.040,-9.490,1.980
152,51053.575000,249.081,45.768,-14.942,493.431,275.876,-106.979,-6.040,-3.490,2.980
153,51053.604000,251.058,44.762,-14.942,491.454,271.046,-105.129,2.960,5.510,5.980
154,51053.658000,249.081,46.774,-11.953,492.497,278.822,-104.954,6.960,0.510,2.980
155,51053.658000,249.081,47.780,-13.946,490.487,271.921,-109.034,-15.040,-18.490,7.980
156,51053.700000,248.093,44.762,-16.934,490.536,276.797,-107.945,-6.040,-16.490,6.980
157,51053.719000,249.081,44.762,-14.942,494.397,275.863,-107.958,-6.040,-12.490,5.980
158,51053.800000,249.081,44.762,-14.942,491.476,273.893,-108.008,0.960,-6.490,4.980
159,51053.865000,249.081,46.774,-12.949,490.480,270.971,-108.075,6.960,-2.490,2.980
160,51053.943000,249.081,45.768,-14.942,492.471,276.815,-107.941,-3.040,-9.490,4.980
161,51053.943000,250.069,45.768,-14.942,492.386,268.078,-108.135,-8.040,-15.490,4.980
162,51054.1000,250.069,45.768,-15.938,490.539,276.818,-106.964,1.960,-10.490,8.980
163,51054.1000,249.081,45.768,-14.942,494.394,275.842,-108.939,1.960,-10.490,5.980
164,51054.97000,248.093,46.774,-13.946,492.396,269.049,-108.113,9.960,-9.490,4.980
165,51054.162000,249.081,43.756,-14.942,491.473,273.872,-108.989,-4.040,-14.490,4.980
166,51054.234000,247.104,45.768,-14.942,489.527,272.861,-109.996,-0.040,-13.490,6.980
167,51054.234000,250.069,45.768,-15.938,487.592,272.842,-110.001,4.960,-13.490,7.980
168,51054.396000,250.069,43.756,-17.930,494.387,274.893,-107.979,-2.040,-7.490,4.980
169,51054.397000,248.093,45.768,-15.938,490.482,271.878,-110.997,2.960,-8.490,5.980
170,51054.397000,250.069,42.750,-12.949,490.492,272.848,-110.975,-1.040,-8.490,8.980
171,51054.417000,249.081,46.774,-14.942,488.571,273.844,-108.996,3.960,-12.490,3.980
172,51054.488000,252.046,44.762,-13.946,492.462,275.845,-107.962,-14.040,-19.490,8.980
173,51054.488000,250.069,44.762,-15.938,493.368,269.986,-110.052,-2.040,-22.490,6.980
174,51054.488000,250.069,44.762,-16.934,489.513,271.847,-111.980,-16.040,-16.490,8.980
175,51054.515000,249.081,43.756,-18.926,492.386,268.078,-108.135,-2.040,2.510,4.980
176,51054.600000,251.058,45.768,-18.926,490.456,268.987,-110.080,-0.040,11.510,3.980
177,51054.600000,248.093,45.768,-15.938,494.354,271.937,-110.006,-5.040,8.510,5.980
178,51054.600000,249.081,45.768,-17.930,490.485,271.899,-110.015,-11.040,-0.490,5.980
179,51054.600000,247.104,45.768,-12.949,491.403,267.033,-111.102,-33.040,-34.490,-13.020
180,51054.614000,223.382,49.792,-12.949,488.545,271.837,-111.982,42.960,-53.490,-122.020
181,51054.645000,241.174,63.874,0.996,491.475,277.410,-124.601,-156.040,-569.490,68.980
182,51054.659000,267.861,21.627,-68.732,484.614,269.448,-130.676,-431.040,-710.490,103.980
183,51054.669000,263.907,0.503,-91.642,487.588,278.085,-136.362,28.960,-296.490,-38.020
184,51054.709000,242.162,52.809,-59.767,484.691,279.869,-142.213,3.960,-77.490,-140.020
185,51054.729000,230.301,42.750,-24.903,479.898,282.885,-135.291,-384.040,11.510,-142.020
186,51054.750000,223.382,77.957,-19.922,476.115,291.607,-134.125,-375.040,65.510,-223.020
187,51054.780000,285.652,38.727,-28.887,480.008,292.745,-128.207,-223.040,78.510,-67.020
188,51054.818000,247.104,68.904,-19.922,479.050,293.706,-128.188,102.960,57.510,-20.020
189,51054.849000,249.081,65.886,-25.899,480.977,292.776,-127.224,-85.040,-12.490,79.980
190,51054.875000,246.116,33.697,-16.934,481.839,282.969,-132.343,246.960,-27.490,114.980
191,51054.897000,236.232,61.862,-32.872,477.929,279.026,-133.420,338.960,-68.490,150.980
192,51054.921000,236.232,53.815,-30.879,481.797,279.927,-138.295,304.960,-92.490,186.980
193,51054.958000,250.069,47.780,-17.930,485.607,275.865,-148.184,209.960,-197.490,221.980
194,51054.982000,246.116,46.774,-30.879,488.371,263.121,-155.325,129.960,-267.490,328.980
195,51055.19000,250.069,34.703,-34.864,491.210,257.260,-158.391,451.960,-256.490,385.980
196,51055.62000,241.174,41.745,-18.926,493.878,236.555,-174.536,524.960,-389.490,491.980
197,51055.99000,276.757,28.668,-18.926,497.568,221.663,-191.530,339.960,-663.490,633.980
198,51055.146000,251.058,15.591,-38.848,493.461,202.618,-217.458,524.960,-853.490,546.980
199,51055.206000,322.224,76.951,-58.770,483.674,196.159,-242.139,715.960,-1090.490,287.980
200,51055.228000,287.629,60.857,-152.405,469.871,175.941,-273.017,1302.960,-1074.490,-3.020
201,51055.253000,230.301,-22.633,-100.607,459.086,166.539,-298.746,1843.960,-511.490,-384.020
202,51055.284000,202.625,-11.568,-101.603,453.130,153.581,-311.795,1655.960,-342.490,-202.020
203,51055.321000,188.788,-22.633,-95.626,446.380,158.132,-322.495,-621.040,-535.490,57.980
204,51055.363000,180.880,-80.974,-111.564,442.586,165.861,-322.332,-704.040,-282.490,-8.020
205,51055.410000,202.625,-95.057,-114.553,440.677,168.733,-323.253,72.960,128.510,33.980
206,51055.443000,171.985,-45.768,-197.230,437.729,162.103,-314.580,149.960,192.510,125.980
207,51055.480000,216.463,-29.674,-142.444,441.658,168.872,-317.363,-568.040,-45.490,147.980
208,51055.506000,205.591,-33.697,-106.584,439.713,166.997,-313.487,-536.040,-21.490,236.980
209,51055.540000,199.660,9.556,-102.599,443.597,168.934,-315.397,-387.040,-67.490,277.980
210,51055.590000,207.568,17.603,-69.728,442.714,176.778,-311.302,-1055.040,23.510,246.980
211,51055.623000,223.382,16.597,-52.794,444.702,179.062,-296.537,-1054.040,253.510,208.980
212,51055.660000,217.452,22.633,-101.603,451.532,183.205,-287.605,-393.040,517.510,-9.020
213,51055.728000,205.591,22.633,-108.576,459.432,197.153,-274.530,-523.040,442.510,-97.020
214,51055.777000,208.556,22.633,-108.576,463.341,198.442,-261.744,-676.040,275.510,-108.020
215,51055.839000,211.521,69.910,-103.595,464.433,210.210,-256.578,-584.040,344.510,-217.020
216,51055.864000,256.988,30.680,-105.588,466.536,225.051,-244.476,-354.040,526.510,-439.020
217,51055.886000,306.409,-14.585,-28.887,467.580,230.195,-231.611,91.960,696.510,-444.020
218,51055.913000,336.062,-32.692,-52.794,473.513,241.168,-220.567,-316.040,447.510,-417.020
219,51055.939000,251.058,105.116,-55.782,468.856,256.935,-207.479,-625.040,282.510,-425.020
220,51055.970000,259.954,28.668,-103.595,472.877,268.105,-186.628,-560.040,782.510,-139.020
221,51056.8000,266.873,21.627,-56.778,476.742,263.699,-168.085,285.960,1000.510,-188.020
222,51056.59000,233.266,40.739,-25.899,476.790,265.921,-155.287,44.960,973.510,-226.020
223,51056.97000,224.371,43.756,-11.953,480.763,271.352,-130.642,-168.040,775.510,-181.020
224,51056.123000,224.371,73.933,-8.965,481.793,274.598,-115.858,-224.040,644.510,-96.020
225,51056.160000,250.069,46.774,-13.946,485.760,281.733,-101.962,43.960,626.510,-8.020
226,51056.189000,244.139,40.739,4.981,487.702,279.185,-86.324,-219.040,566.510,-6.020
227,51056.249000,256.000,54.821,18.926,486.776,280.448,-72.568,-107.040,538.510,-20.020
228,51056.278000,247.104,65.886,-20.918,489.675,278.686,-65.737,-99.040,540.510,24.980
229,51056.319000,251.058,60.857,22.911,490.713,282.017,-47.028,-629.040,566.510,57.980
230,51056.360000,242.162,41.745,-11.953,497.476,276.711,-26.538,-404.040,723.510,117.980
231,51056.520000,311.351,-26.656,-25.899,493.677,279.111,-3.937,317.960,1061.510,4.980
232,51056.549000,262.919,73.933,0.000,491.754,276.568,13.654,200.960,1134.510,-112.020
233,51056.565000,314.317,35.709,21.914,487.039,282.972,42.226,-192.040,1080.510,-35.020
234,51056.572000,238.208,50.798,19.922,480.332,288.817,46.264,716.960,722.510,-142.020
235,51056.582000,194.718,57.839,77.696,480.346,288.947,52.151,10.960,284.510,12.980
236,51056.623000,192.741,34.703,104.591,476.497,290.872,53.166,-426.040,-5.490,-59.020
237,51056.638000,184.834,2.515,70.724,476.450,286.902,49.155,195.960,-133.490,90.980
238,51056.660000,241.174,14.585,68.732,476.372,282.631,31.408,753.960,-396.490,137.980
239,51056.691000,266.873,57.839,58.770,471.406,274.299,7.677,537.960,-334.490,166.980
240,51056.722000,215.475,0.503,12.949,476.295,281.013,1.952,334.960,-228.490,113.980
241,51056.744000,255.012,35.709,3.984,476.144,268.996,-14.986,369.960,-458.490,291.980
242,51056.784000,226.347,41.745,0.996,474.140,264.791,-28.813,-216.040,-698.490,344.980
243,51056.828000,238.208,76.951,78.693,474.994,257.552,-49.566,-138.040,-984.490,305.980
244,51056.862000,234.255,115.175,128.498,470.008,245.509,-65.534,-911.040,-830.490,287.980
245,51056.904000,241.174,90.028,162.366,468.068,245.447,-67.501,-895.040,-458.490,107.980
246,51056.944000,258.965,50.798,102.599,468.103,248.424,-64.493,-496.040,-101.490,-66.020
247,51056.964000,230.301,22.633,-24.903,467.142,251.112,-74.242,609.960,-190.490,-168.020
248,51057.4000,270.826,0.503,-75.704,462.266,250.698,-90.932,751.960,-680.490,-125.020
249,51057.49000,270.826,-43.756,-142.444,451.465,241.145,-123.529,1309.960,-1097.490,-65.020
250,51057.84000,262.919,1.509,-154.397,440.610,230.189,-175.770,1663.960,-1494.490,97.980
251,51057.124000,266.873,12.574,-143.440,418.117,215.323,-224.200,679.960,-2189.490,309.980
252,51057.167000,259.954,-7.544,-133.479,392.827,211.130,-271.418,199.960,-2355.490,393.980
253,51057.202000,228.324,3.521,-57.774,358.714,193.411,-312.090,270.960,-2097.490,517.980
254,51057.259000,192.741,59.851,81.681,339.243,185.003,-332.912,229.960,-1222.490,627.980
255,51057.289000,224.371,106.122,147.424,347.019,187.193,-325.002,-661.040,716.510,172.980
256,51057.310000,265.884,79.969,-221.136,358.743,193.692,-299.335,-584.040,1307.510,-95.020
257,51057.350000,267.861,91.033,-65.743,368.668,215.555,-280.197,-784.040,441.510,-210.020
258,51057.385000,314.317,140.322,-33.868,372.626,221.720,-266.322,-435.040,398.510,-3.020
259,51057.424000,332.108,-97.069,-31.875,375.497,217.045,-259.555,180.960,443.510,-134.020
260,51057.463000,238.208,62.868,-70.724,369.819,228.768,-253.423,-360.040,82.510,-251.020
261,51057.519000,256.988,37.721,-99.611,374.773,239.624,-247.288,-487.040,68.510,-185.020
262,51057.562000,245.127,21.627,-96.623,370.893,236.846,-239.512,-109.040,269.510,-85.020
263,51057.583000,239.197,54.821,-65.743,376.787,245.684,-237.342,21.960,278.510,-137.020
264,51057.604000,231.290,60.857,-87.658,377.772,245.866,-229.491,-257.040,305.510,-64.020
265,51057.645000,259.954,15.591,-39.844,378.753,246.004,-223.602,255.960,303.510,-77.020
266,51057.690000,227.336,70.916,-40.840,374.806,239.063,-228.667,34.960,-29.490,24.980
267,51057.780000,245.127,27.662,-46.817,386.466,244.936,-231.455,-118.040,-158.490,77.980
268,51057.809000,252.046,29.674,-68.732,380.630,241.946,-232.514,348.960,-224.490,128.980
269,51057.825000,257.977,23.639,-65.743,380.558,236.854,-243.414,396.960,-253.490,173.980
270,51057.850000,246.116,55.827,-52.794,377.518,224.938,-254.472,300.960,-351.490,262.980
271,51057.888000,265.884,30.680,-81.681,375.436,211.176,-261.647,229.960,-423.490,402.980
272,51057.928000,247.104,15.591,-59.767,375.296,200.152,-277.583,637.960,-378.490,379.980
273,51057.953000,285.652,54.821,-46.817,375.144,187.250,-290.618,391.960,-612.490,441.980
274,51057.983000,311.351,13.580,-28.887,366.253,172.192,-309.603,148.960,-849.490,490.980
275,51058.24000,316.293,19.615,-16.934,354.612,171.777,-323.366,153.960,-1236.490,371.980
276,51058.65000,305.421,74.939,-23.907,337.951,154.595,-347.319,477.960,-1375.490,196.980
277,51058.108000,256.000,76.951,-184.280,309.732,144.828,-381.918,28.960,-2028.490,466.980
278,51058.144000,258.965,57.839,-176.311,282.578,143.939,-410.434,-79.040,-1824.490,118.980
279,51058.183000,151.228,40.739,64.747,278.719,147.526,-422.131,266.960,-76.490,-308.020
280,51058.232000,120.587,54.821,6.973,302.820,137.255,-414.463,417.960,1053.510,-428.020
281,51058.247000,205.591,19.615,-20.918,339.805,153.837,-382.635,-340.040,2252.510,-622.020
282,51058.309000,277.745,16.597,-63.751,382.570,167.585,-349.878,27.960,2847.510,-749.020
283,51058.403000,272.803,70.916,-122.521,432.138,178.184,-286.776,-298.040,2959.510,-822.020
284,51058.429000,334.085,-3.521,-135.471,472.412,224.913,-209.163,-1328.040,2759.510,-812.020
285,51058.445000,335.073,-46.774,-150.412,496.084,254.135,-126.089,-450.040,2649.510,-714.020
286,51058.463000,258.965,7.544,-147.424,495.423,272.917,-65.853,-74.040,1939.510,-661.020
287,51058.490000,289.606,27.662,-96.623,488.979,294.490,-8.509,-1224.040,1363.510,-453.020
288,51058.534000,205.591,22.633,-124.514,487.159,299.088,24.932,-2164.040,279.510,-195.020
289,51058.563000,239.197,-12.574,-102.599,479.507,300.738,59.275,-2233.040,-300.490,-148.020
290,51058.593000,236.232,-21.627,-117.541,473.768,305.709,67.219,-322.040,-584.490,-75.020
291,51058.628000,231.290,30.680,-88.654,476.639,307.204,45.684,540.960,-753.490,-51.020
292,51058.663000,208.556,144.346,-67.735,474.686,310.530,21.237,385.960,-970.490,-225.020
293,51058.708000,337.050,-21.627,-5.977,472.651,303.391,6.364,-1000.040,-1154.490,145.980
294,51058.745000,283.676,12.574,-44.825,476.555,309.038,-3.309,-609.040,-903.490,-103.020
295,51058.788000,250.069,56.833,-14.942,474.619,309.883,-8.198,-481.040,-596.490,-91.020
296,51058.827000,244.139,56.833,-9.961,476.580,314.562,-16.916,56.960,-528.490,-86.020
297,51058.888000,257.977,56.833,-37.852,475.572,314.164,-34.579,-85.040,-555.490,-23.020
298,51058.894000,262.919,38.727,-28.887,468.735,309.071,-42.551,28.960,-468.490,-31.020
299,51058.924000,246.116,60.857,-47.813,468.784,316.579,-54.152,150.960,-393.490,-19.020
300,51058.964000,254.023,59.851,-48.809,468.724,312.480,-64.050,115.960,-348.490,15.980
301,51059.5000,252.046,30.680,-60.763,464.840,312.313,-69.946,139.960,-204.490,22.980
302,51059.45000,222.394,77.957,-58.770,466.764,312.224,-74.847,313.960,-151.490,-5.020
303,51059.87000,232.278,46.774,-61.759,464.806,311.105,-80.760,134.960,-133.490,64.980
304,51059.127000,250.069,48.786,-44.825,463.735,301.300,-84.903,196.960,-60.490,39.980
305,51059.174000,242.162,53.815,-51.798,461.860,308.897,-91.603,252.960,-98.490,30.980
306,51059.204000,251.058,56.833,-40.840,466.679,308.772,-99.441,396.960,-125.490,44.980
307,51059.229000,240.185,37.721,-54.786,467.544,298.987,-103.579,263.960,-185.490,88.980
308,51059.274000,249.081,61.862,-46.817,464.569,292.982,-110.583,328.960,-248.490,112.980
309,51059.305000,244.139,42.750,-71.720,470.288,286.933,-123.454,137.960,-326.490,201.980
310,51059.345000,223.382,62.868,-53.790,466.372,283.810,-131.376,115.960,-405.490,212.980
311,51059.388000,314.317,11.568,-73.712,467.356,286.624,-136.215,161.960,-231.490,238.980
312,51059.432000,261.931,5.532,-73.712,468.238,280.528,-149.097,421.960,-204.490,135.980
313,51059.473000,248.093,33.697,-71.720,464.244,268.732,-154.271,328.960,-187.490,104.980
314,51059.508000,229.313,27.662,-83.673,462.244,263.686,-162.232,255.960,-115.490,101.980
315,51059.547000,215.475,18.609,-105.588,466.121,264.673,-163.183,28.960,-43.490,115.980
316,51059.567000,213.498,15.591,-93.634,464.134,258.873,-161.355,144.960,43.510,66.980
317,51059.607000,217.452,15.591,-89.650,465.172,266.606,-163.142,111.960,85.510,36.980
318,51059.658000,227.336,24.644,-80.685,469.039,265.737,-160.211,-49.040,52.510,-0.020
319,51059.688000,224.371,16.597,-84.669,468.027,260.895,-159.340,-185.040,22.510,-32.020
320,51059.727000,224.371,21.627,-84.669,467.116,266.711,-159.213,-79.040,41.510,-74.020
321,51059.768000,218.440,18.609,-94.630,466.233,274.555,-155.118,-202.040,38.510,-125.020
322,51059.808000,214.486,30.680,-84.669,466.251,275.612,-151.172,-81.040,56.510,-159.020
323,51059.882000,233.266,53.815,-52.794,466.320,282.429,-150.040,-125.040,38.510,-233.020
324,51059.888000,233.266,21.627,-100.607,464.429,286.359,-147.015,-195.040,129.510,-254.020
325,51059.904000,230.301,-26.656,-68.732,461.538,286.438,-142.116,158.960,283.510,-280.020
326,51059.949000,277.745,92.039,-76.700,456.844,299.207,-133.016,-476.040,198.510,-320.020
327,51059.992000,270.826,45.768,-73.712,460.830,308.284,-119.077,-397.040,292.510,-234.020
328,51060.25000,274.780,50.798,-58.770,457.979,312.269,-113.111,-105.040,379.510,-202.020
329,51060.64000,247.104,62.868,-79.689,459.889,307.649,-103.402,-91.040,539.510,-91.020
330,51060.105000,237.220,44.762,-64.747,461.958,317.765,-85.522,-109.040,659.510,-79.020
331,51060.145000,248.093,41.745,-51.798,462.929,315.163,-71.848,13.960,709.510,-52.020
332,51060.187000,232.278,53.815,-39.844,464.922,318.375,-59.024,44.960,714.510,-62.020
333,51060.214000,242.162,53.815,-2.988,468.861,322.598,-45.193,-45.040,615.510,-79.020
334,51060.249000,246.116,66.892,-8.965,467.918,322.826,-34.402,-11.040,451.510,-13.020
335,51060.284000,241.174,51.804,-10.957,469.857,322.004,-28.533,-106.040,391.510,22.980
336,51060.327000,256.988,70.916,7.969,472.704,315.344,-23.771,-32.040,289.510,59.980
337,51060.369000,245.127,54.821,-23.907,468.843,313.623,-12.049,-296.040,294.510,118.980
338,51060.409000,247.104,56.833,-1.992,472.725,312.906,-2.251,-58.040,380.510,133.980
339,51060.447000,234.255,61.862,-1.992,476.528,304.378,5.413,-129.040,388.510,156.980
340,51060.489000,238.208,82.986,22.911,480.406,301.848,21.056,-542.040,286.510,134.980
341,51060.529000,267.861,9.556,-8.965,480.381,296.325,34.663,-502.040,376.510,231.980
342,51060.550000,288.618,16.597,-51.798,483.284,294.606,43.457,573.960,820.510,123.980
343,51060.590000,273.792,29.674,-37.852,480.445,298.698,54.329,540.960,1022.510,-24.020
344,51060.629000,272.803,80.974,-4.981,480.549,305.861,71.159,605.960,1081.510,-74.020
345,51060.719000,278.734,24.644,-2.988,475.741,306.979,80.000,276.960,750.510,-35.020
346,51060.735000,217.452,24.644,-86.661,476.681,304.960,76.034,542.960,277.510,-21.020
347,51060.778000,223.382,-0.503,-111.564,485.305,304.247,39.752,1205.960,-772.490,189.980
348,51060.813000,240.185,50.798,-104.591,489.560,301.824,236.820,611.960,-1439.490,241.980
349,51060.829000,244.139,6.538,-85.665,497.486,283.853,-54.818,87.960,-1971.490,221.980
350,51060.849000,271.815,11.568,-67.735,489.554,277.521,-118.719,641.960,-2063.490,157.980
351,51060.889000,268.849,45.768,-53.790,469.880,259.253,-190.754,1080.960,-2060.490,203.980
352,51060.947000,266.873,55.827,-46.817,443.378,233.325,-255.128,1004.960,-1897.490,224.980
353,51060.969000,253.035,49.792,-41.837,410.179,211.581,-302.753,902.960,-1521.490,249.980
354,51061.10000,237.220,58.845,-40.840,388.665,194.200,-333.584,881.960,-1252.490,223.980
355,51061.45000,232.278,75.945,12.949,375.963,184.951,-351.468,272.960,-736.490,310.980
356,51061.88000,242.162,81.980,6.973,367.129,173.087,-357.634,-94.040,-226.490,254.980
357,51061.128000,228.324,107.128,25.899,368.160,178.986,-354.559,-407.040,227.510,114.980
358,51061.168000,263.907,74.939,22.911,375.056,186.409,-328.882,-1027.040,874.510,-89.020
359,51061.188000,266.873,29.674,-103.595,384.983,207.409,-304.860,-622.040,988.510,-124.020
360,51061.227000,258.965,39.733,-59.767,393.724,208.702,-294.025,55.960,798.510,-214.020
361,51061.268000,216.463,25.650,-70.724,401.601,218.896,-275.150,-422.040,733.510,-163.020
362,51061.309000,262.919,121.210,-40.840,405.542,224.025,-264.240,-15.040,741.510,-503.020
363,51061.345000,347.923,10.562,-32.872,405.602,228.124,-254.343,-325.040,405.510,-244.020
364,51061.388000,218.440,81.980,-87.658,403.773,237.037,-245.323,-642.040,205.510,-237.020
365,51061.425000,265.884,25.650,-60.763,406.899,256.828,-229.186,-543.040,464.510,-214.020
366,51061.468000,258.965,69.910,-40.840,408.913,262.888,-219.241,-380.040,333.510,-148.020
367,51061.492000,209.544,93.045,-60.763,412.909,272.052,-201.377,-1365.040,103.510,-3.020
368,51061.528000,262.919,18.609,-42.833,409.120,278.076,-190.464,-724.040,199.510,-102.020
369,51061.569000,241.174,32.692,-2.988,411.101,280.296,-178.643,-260.040,246.510,-146.020
370,51061.612000,242.162,76.951,-43.829,410.222,288.183,-172.586,-402.040,180.510,-117.020
371,51061.649000,262.919,23.639,-22.911,410.341,298.129,-161.577,-435.040,187.510,-128.020
372,51061.687000,237.220,82.986,-23.907,413.231,295.395,-154.767,-11.040,238.510,-150.020
373,51061.729000,239.197,68.904,-1.992,408.452,300.310,-149.765,-148.040,129.510,-61.020
374,51061.767000,239.197,62.868,-28.887,406.533,301.327,-146.804,-65.040,111.510,-35.020
375,51061.809000,241.174,73.933,0.996,407.518,303.257,-147.740,17.960,26.510,-76.020
376,51061.845000,239.197,49.792,-10.957,408.516,306.200,-146.692,-124.040,-33.490,-13.020
377,51061.869000,242.162,70.916,-26.895,406.555,303.290,-145.780,176.960,-26.490,20.980
378,51061.907000,235.243,67.898,-16.934,408.530,308.983,-152.514,212.960,-60.490,62.980
379,51061.949000,253.035,62.868,-25.899,410.340,296.359,-153.771,302.960,-93.490,80.980
380,51061.987000,246.116,74.939,-36.856,408.395,297.117,-162.584,215.960,-98.490,106.980
381,51062.29000,240.185,60.857,-25.899,411.220,290.242,-167.634,259.960,-65.490,128.980
382,51062.67000,241.174,59.851,-30.879,411.201,289.184,-171.581,249.960,-100.490,181.980
383,51062.109000,233.266,79.969,-19.922,415.947,281.314,-178.610,445.960,-120.490,189.980
384,51062.128000,239.197,58.845,-27.891,416.852,277.202,-189.487,251.960,-256.490,277.980
385,51062.170000,245.127,31.686,-20.918,417.630,259.542,-198.703,362.960,-356.490,335.980
386,51062.219000,253.035,37.721,-36.856,418.463,249.455,-216.577,604.960,-472.490,437.980
387,51062.250000,257.977,41.745,0.000,419.232,233.477,-237.524,686.960,-809.490,540.980
388,51062.290000,255.012,50.798,32.872,413.168,211.566,-260.578,841.960,-1514.490,691.980
389,51062.327000,384.494,57.839,-54.786,396.441,191.988,-305.178,872.960,-1938.490,532.980
390,51062.367000,341.992,142.334,-91.642,371.883,163.533,-352.933,1107.960,-2080.490,320.980
391,51062.410000,313.328,68.904,-40.840,339.712,145.897,-390.657,861.960,-1933.490,100.980
392,51062.448000,177.915,68.904,11.953,326.083,142.314,-415.282,635.960,-837.490,-340.020
393,51062.467000,159.135,60.857,29.883,329.078,152.029,-416.041,-93.040,28.510,-456.020
394,51062.509000,164.077,16.597,19.922,352.516,171.090,-397.916,-476.040,944.510,-538.020
395,51062.552000,226.347,24.644,-30.879,383.700,189.407,-372.927,-569.040,1908.510,-537.020
396,51062.589000,269.838,42.750,-68.732,428.541,213.335,-319.346,-709.040,2312.510,-570.020
397,51062.630000,296.525,45.768,-91.642,462.918,250.320,-240.981,-682.040,2548.510,-636.020
398,51062.670000,312.340,35.709,-76.700,482.736,281.425,-158.853,-673.040,2529.510,-547.020
399,51062.708000,299.490,43.756,-81.681,485.073,306.427,-81.802,-792.040,2222.510,-435.020
400,51062.749000,290.595,19.615,-95.626,473.691,314.663,-11.036,-960.040,1915.510,-258.020
401,51062.787000,267.861,42.750,-65.743,457.448,322.614,48.927,-1534.040,1471.510,-119.020
402,51062.808000,220.417,68.904,-79.689,448.810,322.313,83.225,-1528.040,1066.510,-182.020
403,51062.850000,226.347,8.550,-65.743,437.315,326.817,116.644,-953.040,493.510,-112.020
404,51062.888000,208.556,5.532,-98.615,427.621,322.127,128.287,-156.040,108.510,-161.020
405,51062.928000,177.915,56.833,-82.677,424.769,328.744,121.563,-319.040,-666.490,-17.020
406,51062.968000,262.919,68.904,36.856,431.483,325.617,108.759,-174.040,-966.490,-36.020
407,51063.9000,279.722,38.727,163.362,425.727,333.069,97.145,151.960,-331.490,-26.020
408,51063.50000,427.985,52.809,-49.805,426.650,333.531,73.621,240.960,-1033.490,-41.020
409,51063.88000,236.232,61.862,-22.911,425.721,339.174,65.899,-487.040,-892.490,-210.020
410,51063.117000,253.035,71.921,1.992,427.619,337.964,54.108,-0.040,-577.490,-203.020
411,51063.149000,244.139,81.980,6.973,421.831,343.344,36.564,213.960,-673.490,-30.020
412,51063.190000,240.185,68.904,-14.942,421.751,336.419,30.526,-518.040,-700.490,-21.020
413,51063.228000,270.826,-2.515,-24.903,423.730,343.018,20.870,-222.040,-514.490,-21.020
414,51063.270000,258.965,23.639,-22.911,423.731,345.672,9.161,531.960,-153.490,-116.020
415,51063.314000,232.278,98.075,-24.903,421.797,347.422,1.350,441.960,-196.490,-106.020
416,51063.348000,244.139,66.892,-10.957,421.779,347.249,-6.499,228.960,-209.490,-0.020
417,51063.390000,247.104,60.857,-37.852,419.760,340.262,-14.504,400.960,-143.490,42.980
418,51063.429000,243.151,71.921,-18.926,416.861,342.024,-21.335,163.960,-105.490,-7.020
419,51063.448000,239.197,71.921,-31.875,418.829,345.883,-23.207,-0.040,-69.490,17.980
420,51063.500000,258.965,61.862,5.977,420.767,346.808,-26.124,27.960,-38.490,10.980
421,51063.530000,252.046,66.892,-9.961,423.578,338.919,-33.158,276.960,-182.490,101.980
422,51063.572000,240.185,61.862,-8.965,420.693,341.695,-38.006,145.960,-327.490,115.980
423,51063.613000,258.965,70.916,-36.856,420.619,336.582,-49.887,210.960,-365.490,206.980
424,51063.655000,246.116,65.886,-46.817,425.374,329.682,-56.895,299.960,-181.490,147.980
425,51063.688000,251.058,31.686,-56.778,426.375,334.417,-62.672,-145.040,-188.490,150.980
426,51063.732000,257.977,55.827,-32.872,421.488,328.609,-59.869,-271.040,-150.490,101.980
427,51063.769000,240.185,30.680,-53.790,426.249,320.005,-56.127,-293.040,-211.490,155.980
428,51063.788000,251.058,46.774,-60.763,426.302,325.787,-57.960,39.960,-37.490,115.980
429,51063.829000,234.255,54.821,-48.809,428.185,320.908,-60.026,174.960,94.510,31.980
430,51063.868000,204.602,29.674,-48.809,432.090,324.808,-60.912,-113.040,33.510,56.980
431,51063.913000,256.000,36.715,-50.802,432.090,323.923,-57.009,153.960,161.510,29.980
432,51063.950000,219.429,68.904,-27.891,433.970,318.138,-56.153,263.960,188.510,-24.020
433,51063.988000,247.104,51.804,-33.868,429.171,321.975,-56.077,27.960,73.510,-75.020
434,51064.30000,274.780,48.786,-35.860,430.196,326.946,-51.062,-110.040,143.510,-118.020
435,51064.72000,210.533,4.527,-64.747,427.256,323.034,-51.155,147.960,226.510,-121.020
436,51064.90000,223.382,66.892,-47.813,428.339,333.831,-46.009,37.960,252.510,-207.020
437,51064.128000,313.328,63.874,-22.911,423.517,333.935,-39.153,-144.040,344.510,-181.020
438,51064.170000,239.197,60.857,-21.914,427.445,337.166,-26.324,-277.040,441.510,-182.020
439,51064.212000,257.977,63.874,-27.891,417.827,339.380,-9.624,-348.040,466.510,-162.020
440,51064.252000,239.197,59.851,3.984,421.802,347.465,3.312,-303.040,408.510,-153.020
441,51064.293000,250.069,52.809,-3.984,418.926,347.695,15.079,-282.040,267.510,-84.020
442,51064.328000,241.174,65.886,1.992,417.984,349.693,18.064,-154.040,184.510,-44.020
443,51064.373000,262.919,57.839,-0.996,420.849,344.953,21.887,-1.040,258.510,-35.020
444,51064.417000,242.162,72.927,10.957,419.838,339.248,27.642,-61.040,234.510,-53.020
445,51064.430000,243.151,73.933,4.981,419.035,354.017,37.775,-249.040,247.510,-1.020
446,51064.470000,256.988,63.874,-5.977,419.017,350.327,46.519,-280.040,308.510,19.980
447,51064.509000,232.278,60.857,19.922,417.999,342.788,57.137,-147.040,317.510,53.980
448,51064.552000,236.232,71.921,17.930,418.017,343.846,61.083,-101.040,309.510,74.980
449,51064.589000,246.116,68.904,17.930,421.860,339.223,69.815,-303.040,282.510,108.980
450,51064.632000,246.116,53.815,19.922,421.904,341.402,80.650,-162.040,394.510,96.980
451,51064.675000,245.127,56.833,19.922,420.952,340.659,91.419,-48.040,531.510,122.980
452,51064.710000,235.243,76.951,32.872,421.925,338.964,102.171,90.960,600.510,101.980
453,51064.753000,243.151,51.804,27.891,420.883,327.671,118.589,-328.040,537.510,140.980
454,51064.778000,268.849,63.874,29.883,419.966,329.905,132.366,-199.040,634.510,132.980
455,51064.824000,259.954,40.739,34.864,420.929,326.355,146.999,35.960,694.510,222.980
456,51064.849000,294.548,16.597,17.930,419.033,328.472,155.868,445.960,816.510,163.980
457,51064.890000,267.861,36.715,44.825,417.131,330.524,161.794,629.960,900.510,-3.020
458,51064.933000,259.954,77.957,75.704,414.244,330.647,168.655,493.960,701.510,118.980
459,51064.974000,246.116,29.674,-48.809,413.258,329.580,164.707,553.960,370.510,125.980
460,51065.12000,212.510,17.603,-51.798,419.136,342.668,139.512,1293.960,-248.490,151.980
461,51065.53000,222.394,69.910,-12.949,435.511,343.023,104.251,1380.960,-711.490,173.980
462,51065.72000,222.394,83.992,4.981,443.131,331.383,101.067,-1416.040,-1078.490,388.980
463,51065.114000,240.185,22.633,-24.903,464.244,315.862,91.941,-1737.040,-1294.490,335.980
464,51065.153000,250.069,-3.521,-69.728,487.195,295.916,57.223,44.960,-1768.490,256.980
465,51065.192000,262.919,7.544,-74.708,496.662,288.740,-8.621,815.960,-2023.490,151.980
466,51065.229000,262.919,61.862,4.981,503.169,276.574,-79.484,467.960,-1927.490,440.980
467,51065.272000,284.664,34.703,14.942,502.955,265.722,-131.701,-461.040,-1568.490,323.980
468,51065.317000,309.375,29.674,7.969,486.225,246.986,-182.166,311.960,-1525.490,138.980
469,51065.353000,260.942,38.727,47.813,473.545,243.239,-214.637,616.960,-1268.490,220.980
470,51065.392000,264.896,36.715,40.840,460.801,230.949,-238.473,595.960,-296.490,13.980
471,51065.410000,278.734,35.709,-31.875,450.062,222.862,-248.482,1001.960,73.510,-13.020
472,51065.453000,249.081,10.562,-96.623,445.061,208.921,-262.531,912.960,-238.490,125.980
473,51065.490000,241.174,7.544,-57.774,430.354,193.699,-286.436,513.960,-746.490,222.980
474,51065.529000,227.336,56.833,68.732,421.537,183.754,-293.540,-197.040,-436.490,361.980
475,51065.569000,223.382,73.933,5.977,412.803,179.894,-288.740,-101.040,100.510,73.980
476,51065.609000,229.313,74.939,32.872,418.624,180.986,-285.762,36.960,390.510,-97.020
477,51065.652000,204.602,22.633,-7.969,422.625,191.962,-273.742,-45.040,734.510,-118.020
478,51065.695000,230.301,-10.562,-153.401,426.500,190.295,-262.983,624.960,513.510,-295.020
479,51065.714000,297.514,247.953,-72.716,429.456,193.474,-252.119,-397.040,537.510,-604.020
480,51065.754000,330.131,-105.116,-38.848,428.638,206.344,-240.068,-503.040,395.510,-185.020
481,51065.790000,236.232,87.010,-61.759,429.809,225.037,-228.863,-439.040,483.510,-452.020
482,51065.833000,255.012,58.845,-40.840,431.858,234.074,-215.909,-324.040,415.510,-248.020
483,51065.870000,241.174,38.727,-47.813,431.921,239.080,-208.934,-174.040,363.510,-238.020
484,51065.914000,248.093,57.839,-25.899,429.109,246.085,-197.997,-453.040,250.510,-226.020
485,51065.953000,234.255,14.585,-30.879,432.070,250.191,-189.073,-581.040,183.510,-212.020
486,51065.990000,253.035,52.809,-2.988,431.187,258.034,-184.978,86.960,171.510,-188.020
487,51066.53000,248.093,69.910,-21.914,428.357,264.867,-181.891,-119.040,7.510,-134.020
488,51066.60000,246.116,58.845,-34.864,427.418,267.770,-181.828,-163.040,-60.490,-92.020
489,51066.93000,240.185,68.904,-35.860,424.537,269.705,-180.811,-246.040,-53.490,-82.020
490,51066.148000,239.197,45.768,-30.879,423.618,273.687,-175.821,-235.040,-16.490,-54.020
491,51066.173000,251.058,57.839,-25.899,421.669,272.654,-177.809,-0.040,-2.490,-42.020
492,51066.210000,235.243,57.839,-18.926,420.733,275.579,-176.766,-224.040,-46.490,3.980
493,51066.250000,255.012,54.821,-35.860,424.579,273.632,-178.762,81.960,-34.490,-18.020
494,51066.294000,238.208,68.904,-23.907,421.646,270.669,-179.815,-75.040,-159.490,70.980
495,51066.332000,244.139,54.821,-27.891,417.751,268.625,-182.810,-56.040,-172.490,83.980
496,51066.374000,249.081,51.804,-36.856,420.606,264.684,-186.814,105.960,-170.490,102.980
497,51066.398000,247.104,40.739,-53.790,419.658,267.500,-190.677,238.960,-190.490,97.980
498,51066.430000,238.208,70.916,-46.817,418.611,260.566,-196.717,190.960,-222.490,121.980
499,51066.473000,241.174,47.780,-41.837,424.396,260.428,-205.534,158.960,-220.490,199.980
500,51066.510000,255.012,52.809,-45.821,422.299,244.767,-210.789,207.960,-232.490,238.980
501,51066.550000,246.116,31.686,-40.840,423.265,246.524,-219.574,252.960,-301.490,275.980
502,51066.598000,256.000,44.762,-52.794,423.131,234.680,-228.663,394.960,-363.490,303.980
503,51066.630000,261.931,45.768,-43.829,421.092,226.614,-241.595,484.960,-470.490,413.980
504,51066.673000,275.768,46.774,-26.895,418.914,204.891,-257.772,556.960,-605.490,435.980
505,51066.692000,280.710,49.792,-18.926,415.889,196.643,-278.556,396.960,-1083.490,443.980
506,51066.733000,347.923,30.680,-26.895,400.123,173.493,-309.503,677.960,-1182.490,254.980
507,51066.770000,308.386,96.063,-57.774,387.460,170.782,-339.010,505.960,-1542.490,219.980
508,51066.812000,230.301,59.851,-122.521,367.983,164.078,-370.581,384.960,-1570.490,323.980
509,51066.859000,197.683,41.745,-42.833,356.213,151.861,-391.471,445.960,-1070.490,167.980
510,51066.890000,168.031,39.733,-18.926,357.178,151.849,-392.450,435.960,-16.490,-142.020
511,51066.933000,157.158,39.733,-11.953,370.729,151.161,-385.572,-49.040,584.510,-313.020
512,51066.974000,223.382,17.603,-45.821,395.119,167.449,-361.623,-106.040,1399.510,-521.020
513,51067.13000,239.197,34.703,-62.755,427.300,186.055,-323.877,85.960,1785.510,-655.020
514,51067.33000,260.942,39.733,-70.724,457.573,204.901,-274.362,-336.040,1965.510,-731.020
515,51067.74000,288.618,11.568,-91.642,479.270,234.601,-212.856,-330.040,2017.510,-736.020
516,51067.112000,292.571,24.644,-76.700,487.302,256.855,-175.080,-219.040,1855.510,-668.020
517,51067.154000,279.722,24.644,-68.732,487.574,272.669,-117.850,-586.040,1611.510,-483.020
518,51067.192000,270.826,16.597,-94.630,484.026,294.206,-63.443,-1372.040,1138.510,-267.020
519,51067.234000,246.116,21.627,-74.708,480.344,303.898,-18.125,-1498.040,768.510,-188.020
520,51067.274000,239.197,22.633,-69.728,471.803,313.328,17.370,-1176.040,470.510,-92.020
521,51067.312000,220.417,12.574,-93.634,463.136,312.746,38.913,-811.040,200.510,-108.020
522,51067.355000,214.486,15.591,-55.782,455.452,316.727,46.831,-694.040,-116.490,-112.020
523,51067.374000,227.336,5.532,-73.712,459.341,318.707,46.883,-370.040,-422.490,-18.020
524,51067.412000,196.695,27.662,-74.708,455.467,320.395,37.106,-109.040,-591.490,-22.020
525,51067.454000,262.919,147.363,98.615,458.380,322.279,33.231,-34.040,-239.490,-290.020
526,51067.495000,348.911,5.532,-44.825,458.364,323.012,22.460,107.960,-644.490,3.980
527,51067.539000,274.780,13.580,-52.794,452.474,316.850,9.562,153.960,-535.490,-69.020
528,51067.572000,256.000,75.945,-24.903,453.548,329.330,2.977,-201.040,-474.490,-170.020
529,51067.617000,249.081,33.697,-22.911,450.618,328.158,-4.901,-193.040,-449.490,-28.020
530,51067.654000,236.232,63.874,-10.957,448.679,328.981,-10.770,-0.040,-324.490,-45.020
531,51067.673000,271.815,35.709,-30.879,450.617,329.906,-13.688,75.960,-182.490,-112.020
532,51067.715000,238.208,61.862,-19.922,446.781,334.593,-19.476,134.960,-138.490,-120.020
533,51067.772000,255.012,63.874,-17.930,445.757,329.643,-23.510,-16.040,-172.490,-22.020
534,51067.792000,246.116,66.892,-15.938,446.791,337.333,-27.260,-25.040,-219.490,1.980
535,51067.832000,243.151,45.768,-19.922,440.943,334.213,-34.206,-20.040,-256.490,4.980
536,51067.875000,237.220,71.921,-26.895,441.887,334.006,-44.016,279.960,-266.490,30.980
537,51067.913000,241.174,67.898,-31.875,442.851,334.857,-49.879,112.960,-294.490,26.980
538,51067.952000,238.208,54.821,-49.805,440.860,329.898,-53.916,100.960,-215.490,11.980
539,51067.994000,246.116,63.874,-38.848,443.784,333.659,-60.691,47.960,-237.490,56.980
540,51068.13000,246.116,58.845,-31.875,440.838,330.567,-67.630,161.960,-240.490,59.980
541,51068.57000,255.012,40.739,-51.798,442.719,326.551,-74.580,188.960,-243.490,96.980
542,51068.94000,237.220,62.868,-43.829,440.694,319.499,-85.528,331.960,-209.490,73.980
543,51068.145000,238.208,59.851,-45.821,441.643,318.451,-89.472,272.960,-314.490,156.980
544,51068.175000,250.069,53.815,-54.786,442.553,315.268,-102.289,117.960,-357.490,195.980
545,51068.215000,246.116,51.804,-59.767,443.485,313.184,-109.198,216.960,-338.490,218.980
546,51068.253000,254.023,52.809,-47.813,449.216,309.012,-124.969,560.960,-334.490,189.980
547,51068.297000,240.185,50.798,-46.817,444.204,294.079,-140.021,405.960,-522.490,267.980
548,51068.337000,281.699,16.597,-105.588,443.141,286.108,-149.026,-4.040,-477.490,278.980
549,51068.355000,249.081,27.662,-88.654,442.174,287.868,-156.835,242.960,-167.490,143.980
550,51068.393000,223.382,26.656,-89.650,442.142,284.912,-158.862,83.960,-78.490,141.980
551,51068.433000,215.475,29.674,-83.673,445.002,281.014,-160.903,-198.040,-54.490,161.980
552,51068.477000,230.301,22.633,-97.619,445.025,282.999,-158.898,-187.040,-2.490,129.980
553,51068.514000,220.417,24.644,-83.673,446.873,274.258,-160.069,344.960,122.510,42.980
554,51068.555000,225.359,26.656,-90.646,445.934,277.161,-160.006,259.960,129.510,59.980
555,51068.617000,229.313,17.603,-78.693,449.810,276.379,-153.151,-67.040,76.510,19.980
556,51068.637000,237.220,11.568,-81.681,448.840,276.348,-154.134,-90.040,88.510,-9.020
557,51068.657000,219.429,26.656,-76.700,450.808,279.323,-152.103,-67.040,69.510,-33.020
558,51068.694000,223.382,29.674,-79.689,449.861,281.277,-151.081,-219.040,32.510,-72.020
559,51068.733000,221.405,11.568,-91.642,446.942,278.444,-146.246,-142.040,49.510,-109.020
560,51068.774000,224.371,49.792,-74.708,446.045,285.273,-144.135,-55.040,105.510,-161.020
561,51068.817000,234.255,36.715,-78.693,446.115,291.228,-138.119,-283.040,77.510,-189.020
562,51068.854000,241.174,12.574,-86.661,443.266,295.234,-131.172,110.960,262.510,-203.020
563,51068.897000,223.382,58.845,-48.809,444.196,291.360,-131.256,420.960,345.510,-248.020
564,51068.939000,255.012,135.293,-43.829,446.215,299.232,-127.154,-481.040,123.510,-242.020
565,51068.977000,259.954,17.603,-71.720,444.394,308.232,-114.209,-590.040,142.510,-110.020
566,51068.995000,281.699,36.715,-69.728,445.408,311.326,-106.293,-361.040,260.510,-151.020
567,51069.33000,256.988,55.827,-66.739,445.496,317.453,-92.428,-282.040,346.510,-131.020
568,51069.77000,233.266,50.798,-72.716,447.468,318.702,-80.628,-242.040,433.510,-154.020
569,51069.115000,252.046,28.668,-76.700,444.665,325.793,-65.767,-230.040,586.510,-85.020
570,51069.153000,244.139,49.792,-40.840,446.585,322.144,-56.037,145.960,729.510,-127.020
571,51069.193000,232.278,62.868,-23.907,446.633,324.366,-43.239,20.960,614.510,-100.020
572,51069.234000,247.104,67.898,-1.992,447.715,334.279,-34.191,-116.040,505.510,-63.020
573,51069.275000,242.162,70.916,0.000,448.674,330.685,-21.520,-53.040,413.510,-52.020
574,51069.318000,245.127,64.880,11.953,447.665,325.001,-14.784,31.960,321.510,32.980
575,51069.338000,237.220,69.910,-8.965,451.605,330.994,-8.758,-260.040,127.510,101.980
576,51069.375000,263.907,38.727,-42.833,449.674,329.249,1.006,-370.040,233.510,111.980
577,51069.413000,233.266,66.892,5.977,452.536,324.487,3.848,70.960,383.510,37.980
578,51069.455000,235.243,64.880,17.930,456.424,324.698,11.706,-169.040,307.510,109.980
579,51069.498000,247.104,57.839,-7.969,457.340,316.293,26.231,-377.040,280.510,185.980
580,51069.559000,265.884,20.621,-12.949,457.353,315.538,36.021,-216.040,478.510,127.980
581,51069.574000,247.104,62.868,1.992,459.364,320.691,48.888,240.960,698.510,89.980
582,51069.615000,256.988,67.898,5.977,462.256,317.095,60.583,0.960,635.510,131.980
583,51069.635000,298.502,10.562,-36.856,464.135,307.772,77.051,-20.040,728.510,165.980
584,51069.674000,290.595,0.503,-22.911,463.211,309.941,87.884,376.960,968.510,61.980
585,51069.717000,276.757,44.762,2.988,460.286,305.296,98.562,807.960,1105.510,-100.020
586,51069.754000,267.861,47.780,2.988,454.632,319.889,102.797,802.960,786.510,-81.020
587,51069.798000,241.174,-14.585,-85.665,460.459,325.447,88.223,1218.960,239.510,-99.020
588,51069.835000,187.799,15.591,-98.615,470.000,318.098,58.660,841.960,-747.490,368.980
589,51069.878000,209.544,34.703,-75.704,485.192,297.883,15.094,114.960,-1455.490,410.980
590,51069.917000,257.977,9.556,-66.739,498.491,282.460,-30.331,-1026.040,-2195.490,575.980
591,51069.955000,293.560,-1.509,-58.770,502.212,275.788,-70.678,-692.040,-2349.490,433.980
592,51069.974000,307.398,1.509,-57.774,499.981,260.602,-142.608,555.960,-2182.490,277.980
593,51070.18000,300.479,26.656,-40.840,480.249,235.603,-211.851,1268.960,-1920.490,284.980
594,51070.55000,292.571,65.886,-5.977,449.760,197.081,-273.571,1513.960,-1621.490,453.980
595,51070.95000,267.861,86.004,49.805,426.254,175.603,-313.324,703.960,-1262.490,512.980
596,51070.138000,261.931,69.910,18.926,413.549,166.333,-332.189,366.960,-551.490,110.980
597,51070.177000,224.371,36.715,24.903,400.926,162.241,-336.229,44.960,-288.490,0.980
598,51070.219000,242.162,15.591,16.934,395.138,164.104,-337.181,-218.040,67.510,29.980
599,51070.262000,256.988,8.550,-22.911,402.909,165.366,-327.330,447.960,740.510,-149.020
600,51070.294000,225.359,39.733,-21.914,410.558,153.123,-313.856,254.960,741.510,-192.020
601,51070.317000,218.440,39.733,-32.872,414.556,164.077,-302.817,-190.040,523.510,-82.020
602,51070.359000,215.475,3.521,-133.479,417.537,170.146,-292.869,-115.040,451.510,-212.020
603,51070.397000,250.069,48.786,-68.732,420.427,167.413,-286.059,430.960,534.510,-532.020
604,51070.434000,287.629,159.434,-45.821,422.454,176.234,-282.917,249.960,587.510,-579.020
605,51070.482000,334.085,-78.963,-30.879,423.533,184.356,-267.044,-477.040,441.510,-398.020
606,51070.514000,289.606,18.609,-19.922,423.643,194.215,-259.961,-80.040,396.510,-480.020
607,51070.557000,256.000,44.762,-62.755,425.758,210.048,-246.856,-470.040,328.510,-277.020
608,51070.594000,227.336,45.768,-44.825,425.879,220.900,-238.770,4.960,406.510,-304.020
609,51070.623000,260.942,52.809,-43.829,425.902,222.001,-232.861,36.960,269.510,-209.020
610,51070.655000,220.417,58.845,-49.805,425.021,229.866,-227.785,-345.040,223.510,-187.020
611,51070.695000,240.185,42.750,-47.813,424.011,224.161,-222.030,-31.040,297.510,-169.020
612,51070.734000,234.255,71.921,-27.891,425.135,238.884,-214.836,-176.040,184.510,-205.020
613,51070.777000,240.185,64.880,-27.891,425.177,241.926,-208.885,-706.040,27.510,-127.020
614,51070.818000,267.861,21.627,-23.907,422.362,249.773,-203.813,-137.040,14.510,-93.020
615,51070.859000,250.069,58.845,-31.875,421.324,242.924,-205.929,43.960,34.510,-58.020
616,51070.907000,247.104,48.786,-32.872,421.430,253.625,-204.710,88.960,69.510,-45.020
617,51070.944000,237.220,68.904,-15.938,422.409,254.627,-203.705,102.960,16.510,-13.020
618,51070.958000,241.174,56.833,-38.848,425.285,252.649,-206.685,-18.040,-89.490,54.980
619,51070.998000,249.081,52.809,-32.872,426.216,249.660,-210.672,6.960,-110.490,51.980
620,51071.39000,239.197,65.886,-29.883,422.318,246.709,-210.746,17.960,-173.490,87.980
621,51071.77000,243.151,52.809,-30.879,421.308,242.773,-212.797,-79.040,-206.490,111.980
622,51071.119000,241.174,56.833,-38.848,422.276,244.552,-220.600,30.960,-251.490,163.980
623,51071.185000,252.046,38.727,-51.798,421.168,230.864,-224.829,39.960,-230.490,175.980
624,51071.209000,245.127,51.804,-49.805,423.148,236.600,-229.601,182.960,-157.490,174.980
625,51071.237000,241.174,49.792,-41.837,419.196,229.615,-236.629,155.960,-165.490,238.980
626,51071.279000,240.185,45.768,-41.837,421.977,217.907,-240.806,162.960,-224.490,276.980
627,51071.303000,243.151,42.750,-38.848,420.963,214.812,-248.722,212.960,-371.490,338.980
628,51071.339000,260.942,42.750,-45.821,424.695,202.963,-259.764,227.960,-464.490,421.980
629,51071.377000,264.896,34.703,-45.821,417.743,187.082,-272.880,292.960,-583.490,528.980
630,51071.418000,294.548,30.680,-43.829,418.420,160.533,-289.158,355.960,-706.490,559.980
631,51071.455000,333.097,25.650,-28.887,410.641,159.207,-301.953,650.960,-789.490,378.980
632,51071.498000,285.652,45.768,-29.883,402.704,143.144,-322.920,483.960,-950.490,376.980
633,51071.537000,263.907,65.886,-42.833,389.110,142.538,-344.537,-120.040,-1294.490,421.980
634,51071.579000,233.266,51.804,-97.619,373.514,135.979,-371.193,-106.040,-1384.490,449.980
635,51071.598000,243.151,19.615,-86.661,360.894,135.447,-389.864,138.960,-1214.490,201.980
636,51071.635000,153.205,43.756,34.864,355.029,130.407,-395.872,152.960,-183.490,-29.020
637,51071.684000,159.135,45.768,13.946,378.421,145.498,-381.759,-300.040,793.510,-278.020
638,51071.733000,304.432,18.609,-43.829,400.838,156.998,-353.997,-487.040,1851.510,-496.020
639,51071.758000,248.093,40.739,-82.677,442.744,177.943,-302.450,-109.040,2162.510,-590.020
640,51071.804000,271.815,42.750,-83.673,473.094,203.693,-247.878,-322.040,2009.510,-604.020
641,51071.837000,305.421,19.615,-91.642,491.745,219.664,-191.586,-397.040,1891.510,-635.020
642,51071.879000,249.081,-0.503,-119.533,500.833,248.940,-143.846,-217.040,1465.510,-479.020
643,51071.917000,269.838,28.668,-77.696,498.240,272.126,-103.129,-427.040,1091.510,-414.020
644,51071.935000,259.954,27.662,-55.782,494.552,282.638,-64.658,-1003.040,735.510,-337.020
645,51071.983000,236.232,26.656,-74.708,485.024,292.748,-41.899,-1342.040,414.510,-218.020
646,51072.15000,237.220,-4.527,-68.732,485.157,299.307,-8.410,-1858.040,103.510,-86.020
647,51072.57000,256.988,-10.562,-84.669,479.366,295.863,14.056,-1295.040,-30.490,-18.020
648,51072.99000,175.938,9.556,-127.502,476.543,302.760,20.087,-417.040,-367.490,-30.020
649,51072.142000,191.753,52.809,-142.444,478.499,308.259,4.523,482.960,-529.490,-97.020
650,51072.180000,289.606,120.204,-14.942,470.758,310.816,-8.185,-268.040,-672.490,-294.020
651,51072.223000,353.853,-52.809,6.973,474.637,311.824,-8.155,-7.040,-526.490,56.980
652,51072.237000,246.116,103.104,-12.949,471.685,309.552,-21.940,293.960,-370.490,-232.020
653,51072.284000,257.977,71.921,-31.875,468.835,315.306,-23.780,-607.040,-461.490,-123.020
654,51072.320000,236.232,54.821,-26.895,462.051,315.132,-28.702,-89.040,-313.490,-97.020
655,51072.380000,251.058,60.857,-27.891,465.020,322.841,-32.447,-14.040,-253.490,-40.020
656,51072.415000,249.081,61.862,-35.860,464.950,316.887,-38.463,-169.040,-267.490,-47.020
657,51072.439000,247.104,31.686,-31.875,457.244,320.651,-40.357,-37.040,-155.490,-48.020
658,51072.477000,243.151,66.892,-25.899,461.083,318.640,-45.297,166.960,-166.490,-32.020
659,51072.519000,252.046,59.851,-19.922,459.203,325.309,-50.056,17.960,-296.490,15.980
660,51072.557000,246.116,58.845,-35.860,458.194,323.142,-59.913,102.960,-339.490,60.980
661,51072.583000,236.232,57.839,-39.844,460.123,323.981,-66.755,110.960,-334.490,52.980
662,51072.620000,251.058,43.756,-57.774,459.053,315.061,-74.801,12.960,-282.490,64.980
663,51072.659000,251.058,36.715,-56.778,456.201,321.678,-81.524,200.960,-143.490,9.980
664,51072.697000,232.278,68.904,-44.825,457.127,319.530,-91.377,280.960,-115.490,18.980
665,51072.739000,247.104,60.857,-40.840,457.063,313.640,-94.449,108.960,-218.490,70.980
666,51072.777000,256.000,36.715,-57.774,457.080,316.445,-99.291,140.960,-230.490,105.980
667,51072.819000,243.151,47.780,-54.786,458.894,305.611,-107.372,354.960,-162.490,92.980
668,51072.869000,231.290,61.862,-55.782,458.880,305.482,-113.259,292.960,-255.490,148.980
669,51072.897000,240.185,50.798,-52.794,460.790,305.264,-124.047,273.960,-325.490,184.980
670,51072.920000,252.046,31.686,-97.619,459.715,296.301,-134.055,135.960,-184.490,179.980
671,51072.957000,243.151,42.750,-85.665,463.493,286.651,-133.281,27.960,-32.490,123.980
672,51073.2000,250.069,45.768,-22.911,465.459,290.489,-136.133,22.960,-181.490,212.980
673,51073.40000,219.429,34.703,-47.813,462.421,278.595,-146.210,191.960,-507.490,262.980
674,51073.84000,268.849,32.692,-85.665,457.508,273.413,-159.084,167.960,-481.490,222.980
675,51073.117000,266.873,-3.521,-108.576,458.415,269.323,-168.980,667.960,-106.490,191.980
676,51073.158000,207.568,45.768,-92.638,459.314,263.399,-174.013,600.960,19.510,153.980
677,51073.200000,223.382,16.597,-82.677,462.139,255.639,-175.160,-203.040,-118.490,160.980
678,51073.219000,231.290,-3.521,-85.665,461.207,260.376,-179.960,115.960,-84.490,109.980
679,51073.263000,223.382,34.703,-92.638,461.102,250.560,-185.081,355.960,-59.490,46.980
680,51073.300000,230.301,19.615,-92.638,459.125,246.614,-187.134,-31.040,-131.490,14.980
681,51073.343000,235.243,15.591,-102.599,458.261,256.400,-182.996,-324.040,-80.490,-5.020
682,51073.387000,224.371,-5.532,-94.630,458.216,251.567,-182.123,-113.040,-11.490,-64.020
683,51073.419000,221.405,16.597,-88.654,459.226,256.388,-183.975,-47.040,12.510,-73.020
684,51073.462000,227.336,23.639,-106.584,460.261,262.330,-178.938,-146.040,30.510,-107.020
685,51073.499000,212.510,8.550,-108.576,457.378,264.244,-178.901,-112.040,120.510,-147.020
686,51073.542000,213.498,42.750,-83.673,457.462,272.097,-174.804,-193.040,145.510,-180.020
687,51073.560000,239.197,10.562,-94.630,458.488,276.184,-165.886,-445.040,136.510,-181.020
688,51073.598000,257.977,-20.621,-87.658,457.500,272.463,-158.125,168.960,366.510,-230.020
689,51073.638000,225.359,73.933,-57.774,453.767,286.061,-155.870,358.960,348.510,-310.020
690,51073.688000,246.116,30.680,-90.646,454.790,289.242,-144.029,-561.040,240.510,-188.020
691,51073.734000,284.664,57.839,-69.728,458.793,300.239,-131.028,-396.040,368.510,-202.020
692,51073.762000,279.722,29.674,-67.735,462.727,305.304,-123.062,-354.040,440.510,-87.020
693,51073.800000,240.185,51.804,-59.767,459.821,301.716,-108.438,-248.040,539.510,-177.020
694,51073.838000,232.278,38.727,-73.712,460.886,307.939,-90.645,-269.040,583.510,-74.020
695,51073.862000,221.405,61.862,-34.864,466.769,313.152,-76.788,-86.040,630.510,-83.020
696,51073.909000,251.058,60.857,-37.852,464.913,318.289,-62.949,-225.040,560.510,-85.020
697,51073.938000,233.266,48.786,-41.837,465.845,310.920,-45.458,-334.040,566.510,-93.020
698,51073.982000,253.035,56.833,-4.981,467.896,319.978,-31.524,-86.040,544.510,-89.020
699,51074.18000,252.046,59.851,2.988,465.939,316.227,-24.746,-210.040,349.510,-1.020
700,51074.60000,251.058,54.821,-18.926,468.911,321.325,-14.820,-196.040,373.510,50.980
701,51074.98000,236.232,41.745,-15.938,468.929,320.613,-3.068,-46.040,453.510,82.980
702,51074.140000,250.069,62.868,5.977,470.842,316.900,3.718,51.960,392.510,104.980
703,51074.178000,240.185,51.804,2.988,473.688,308.471,16.286,-373.040,351.510,161.980
704,51074.199000,248.093,54.821,3.984,471.814,312.551,26.179,-5.040,535.510,61.980
705,51074.240000,256.988,68.904,-7.969,473.691,304.091,37.763,-321.040,621.510,119.980
706,51074.294000,308.386,21.627,-70.724,475.698,306.569,61.358,-318.040,723.510,123.980
707,51074.319000,328.154,-29.674,-27.891,476.685,305.003,77.997,408.960,1046.510,52.980
708,51074.358000,254.023,72.927,13.946,472.836,305.160,86.818,875.960,999.510,-137.020
709,51074.398000,231.290,18.609,-209.183,473.805,307.823,75.111,762.960,128.510,76.980
710,51074.440000,210.533,23.639,-220.140,485.313,306.966,30.987,591.960,-1368.490,132.980
711,51074.485000,223.382,29.674,-161.370,492.866,301.734,-33.837,326.960,-2168.490,105.980
712,51074.518000,273.792,10.562,-120.529,490.777,297.595,-88.851,469.960,-2530.490,4.980
713,51074.549000,285.652,10.562,-57.774,473.982,280.887,-179.478,1625.960,-2289.490,-71.020
714,51074.578000,277.745,34.703,-3.984,442.541,248.655,-263.616,2354.960,-1905.490,178.980
715,51074.623000,278.734,63.874,23.907,416.823,201.614,-317.670,1987.960,-1345.490,348.980
716,51074.683000,235.243,66.892,50.802,402.010,175.691,-342.793,1055.960,-499.490,454.980
717,51074.698000,254.023,148.369,88.654,396.040,159.087,-345.135,-68.040,122.510,396.980
718,51074.740000,248.093,43.756,70.724,402.911,164.503,-322.445,-1077.040,825.510,154.980
719,51074.783000,175.938,-10.562,-256.996,413.695,174.769,-301.601,-490.040,1387.510,-334.020
720,51074.822000,309.375,275.112,1.992,417.631,178.086,-284.848,417.960,1148.510,-673.020
721,51074.840000,321.236,-139.316,-25.899,431.392,197.031,-267.727,-849.040,636.510,-377.020
722,51074.883000,357.807,-49.792,-29.883,431.450,200.224,-254.907,15.960,467.510,-371.020
723,51074.919000,220.417,81.980,-30.879,428.667,211.026,-247.809,-465.040,265.510,-375.020
724,51074.964000,277.745,14.585,-49.805,429.752,221.844,-241.682,-93.040,323.510,-228.020
725,51075.0,238.208,51.804,-46.817,428.739,217.002,-240.811,341.960,373.510,-185.020
726,51075.39000,225.359,61.862,-47.813,431.723,223.977,-233.786,37.960,292.510,-118.020
727,51075.82000,247.104,50.798,-34.864,434.651,226.012,-230.792,97.960,268.510,-146.020
728,51075.120000,231.290,70.916,-37.852,435.592,222.246,-225.971,64.960,170.510,-88.020
729,51075.163000,245.127,52.809,-25.899,434.662,225.235,-221.984,-113.040,23.510,-51.020
730,51075.182000,263.907,46.774,-32.872,433.671,223.241,-223.991,-79.040,-33.490,11.980
731,51075.219000,239.197,52.809,-27.891,435.658,229.042,-225.820,205.960,-84.490,47.980
732,51075.259000,251.058,45.768,-31.875,433.670,224.104,-228.875,298.960,-109.490,104.980
733,51075.302000,234.255,62.868,-48.809,432.639,219.089,-235.854,165.960,-155.490,163.980
734,51075.339000,252.046,42.750,-31.875,431.561,208.336,-239.037,231.960,-110.490,174.980
735,51075.382000,241.174,75.945,-35.860,431.517,205.272,-245.969,212.960,-174.490,209.980
736,51075.422000,256.000,22.633,-46.817,440.166,200.395,-250.963,209.960,-205.490,294.980
737,51075.459000,241.174,49.792,-40.840,435.153,183.692,-258.208,270.960,-278.490,311.980
738,51075.483000,247.104,30.680,-49.805,433.089,172.756,-269.243,118.960,-404.490,393.980
739,51075.519000,273.792,31.686,-54.786,436.924,170.701,-276.145,161.960,-445.490,440.980
740,51075.560000,285.652,28.668,0.000,429.941,151.002,-286.404,218.960,-577.490,508.980
741,51075.602000,318.270,57.839,16.934,424.993,143.728,-306.189,276.960,-1022.490,504.980
742,51075.639000,343.969,59.851,9.961,405.485,133.205,-334.903,-48.040,-1630.490,550.980
743,51075.683000,303.444,93.045,-69.728,383.098,125.524,-365.521,-321.040,-1866.490,598.980
744,51075.720000,235.243,79.969,2.988,362.883,140.385,-386.808,-868.040,-1075.490,127.980
745,51075.763000,157.158,54.821,40.840,371.788,159.973,-382.432,-574.040,134.510,-387.020
746,51075.815000,210.533,47.780,0.000,382.520,166.226,-367.561,-488.040,1097.510,-373.020
747,51075.840000,240.185,35.709,-46.817,422.517,191.811,-324.740,-460.040,1853.510,-259.020
748,51075.860000,276.757,55.827,-59.767,454.694,205.973,-268.460,-490.040,2045.510,-356.020
749,51075.903000,274.780,63.874,-54.786,479.283,233.846,-203.066,-729.040,2082.510,-535.020
750,51075.939000,269.838,55.827,-81.681,488.465,268.428,-134.613,-941.040,1912.510,-544.020
751,51075.982000,280.710,16.597,-116.545,488.812,291.125,-73.308,-1048.040,1629.510,-392.020
752,51076.19000,187.799,34.703,-202.210,486.061,298.712,-35.880,-891.040,1109.510,-195.020
753,51076.63000,194.718,22.633,-178.303,480.414,308.968,-8.206,-753.040,-112.490,-286.020
754,51076.100000,167.042,32.692,-318.755,472.680,311.590,-17.970,-332.040,-1242.490,-121.020
755,51076.143000,315.305,-74.939,-70.724,468.820,317.809,-42.357,-716.040,-1161.490,-6.020
756,51076.160000,386.471,-46.774,-33.868,466.833,317.294,-64.928,-70.040,-1117.490,70.980
757,51076.209000,231.290,78.963,-64.747,462.923,315.983,-78.695,-656.040,-957.490,-18.020
758,51076.242000,273.792,32.692,-45.821,460.930,312.771,-91.519,-246.040,-696.490,85.980
759,51076.284000,265.884,54.821,-68.732,459.933,311.597,-100.373,389.960,-494.490,60.980
760,51076.323000,256.988,61.862,-51.798,456.023,310.286,-114.139,209.960,-447.490,73.980
761,51076.360000,237.220,43.756,-85.665,453.117,311.984,-123.914,0.960,-382.490,123.980
762,51076.408000,224.371,62.868,-63.751,454.021,306.988,-130.888,413.960,-163.490,70.980
763,51076.444000,224.371,73.933,-70.724,452.942,297.982,-142.858,377.960,-192.490,93.980
764,51076.463000,226.347,40.739,-79.689,452.891,293.969,-148.831,6.960,-225.490,189.980
765,51076.502000,218.440,34.703,-70.724,455.775,293.825,-156.674,491.960,-153.490,140.980
766,51076.544000,257.977,53.815,-47.813,452.827,290.712,-164.594,519.960,-272.490,42.980
767,51076.580000,227.336,29.674,-54.786,452.762,286.569,-176.454,121.960,-539.490,153.980
768,51076.628000,285.652,30.680,-72.716,446.839,278.336,-195.282,-37.040,-923.490,283.980
769,51076.679000,288.618,26.656,-118.537,438.967,268.185,-212.195,-88.040,-906.490,209.980
770,51076.709000,238.208,40.739,-148.420,432.253,277.483,-227.694,207.960,-558.490,1.980
771,51076.742000,212.510,40.739,-92.638,430.244,271.466,-235.677,515.960,-156.490,-78.020
772,51076.783000,173.961,-10.562,-156.389,430.157,262.707,-236.852,667.960,346.510,-15.020
773,51076.802000,200.649,26.656,-113.556,433.965,256.876,-238.935,483.960,224.510,-63.020
774,51076.844000,220.417,5.532,-98.615,435.843,250.185,-235.157,50.960,275.510,-34.020
775,51076.880000,232.278,14.585,-93.634,437.848,256.159,-229.136,-329.040,148.510,39.980
776,51076.923000,229.313,16.597,-101.603,435.950,258.254,-221.248,-397.040,118.510,39.980
777,51076.964000,229.313,29.674,-97.619,440.910,270.038,-217.053,-213.040,165.510,-88.020
778,51077.2000,240.185,25.650,-109.572,439.951,270.115,-213.131,-196.040,183.510,-118.020
779,51077.44000,192.741,12.574,-106.584,440.000,274.106,-208.139,209.960,245.510,-211.020
780,51077.80000,214.486,42.750,-98.615,438.990,270.170,-210.190,313.960,268.510,-267.020
781,51077.104000,206.579,20.621,-102.599,441.026,279.078,-203.123,-129.040,237.510,-97.020
782,51077.140000,222.394,52.809,-124.514,442.002,278.289,-195.293,-109.040,351.510,-249.020
783,51077.184000,223.382,50.798,-116.545,447.925,286.522,-176.466,-396.040,518.510,-200.020
784,51077.222000,301.467,56.833,-58.770,448.015,293.556,-165.522,-117.040,508.510,-143.020
785,51077.260000,272.803,38.727,-65.743,453.917,299.826,-147.718,-394.040,494.510,-36.020
786,51077.302000,246.116,39.733,-61.759,457.798,299.087,-138.901,-432.040,537.510,-67.020
787,51077.342000,262.919,22.633,-41.837,459.828,306.182,-125.990,111.960,511.510,-10.020
788,51077.383000,210.533,80.974,-52.794,461.752,303.461,-118.201,-67.040,368.510,21.980
789,51077.422000,240.185,28.668,-52.794,467.570,301.878,-104.495,-191.040,390.510,29.980
790,51077.458000,229.313,49.792,-38.848,469.506,301.033,-99.606,57.960,402.510,-9.020
791,51077.485000,234.255,55.827,-47.813,469.524,300.321,-87.854,-330.040,285.510,46.980
792,51077.522000,268.849,32.692,-50.802,471.507,302.562,-75.052,-201.040,512.510,55.980
793,51077.563000,241.174,53.815,-34.864,478.297,302.801,-67.187,153.960,610.510,83.980
794,51077.609000,243.151,77.957,19.922,481.160,296.292,-55.557,-151.040,455.510,23.980
795,51077.642000,288.618,20.621,-4.981,478.278,295.573,-42.831,-450.040,285.510,64.980
796,51077.705000,280.710,4.527,-40.840,480.296,300.792,-27.020,-302.040,458.510,-63.020
797,51077.722000,313.328,-5.532,-53.790,477.444,303.007,-13.248,120.960,615.510,-67.020
798,51077.764000,245.127,54.821,-130.490,480.302,299.087,-16.271,788.960,579.510,-145.020
799,51077.782000,255.012,-0.503,-234.086,480.280,299.756,-29.985,646.960,-428.490,-5.020
800,51077.825000,193.730,-10.562,-223.128,484.954,291.195,-68.411,1219.960,-858.490,52.980
801,51077.863000,230.301,35.709,-152.405,488.582,278.353,-124.586,1395.960,-1515.490,171.980
802,51077.905000,230.301,35.709,-86.661,480.513,259.270,-194.654,1095.960,-1786.490,210.980
803,51077.943000,234.255,30.680,-73.712,463.734,238.312,-257.917,589.960,-1811.490,342.980
804,51077.989000,265.884,29.674,-47.813,441.092,207.934,-305.710,559.960,-1632.490,355.980
805,51078.22000,265.884,46.774,-40.840,412.789,191.199,-348.310,453.960,-1310.490,340.980
806,51078.64000,249.081,46.774,-12.949,395.200,177.028,-367.294,384.960,-963.490,321.980
807,51078.83000,218.440,51.804,45.821,382.455,162.083,-379.421,-57.040,-371.490,334.980
808,51078.124000,264.896,86.004,63.751,389.203,157.511,-369.701,-175.040,768.510,148.980
809,51078.162000,260.942,140.322,29.883,402.775,155.269,-345.206,-263.040,1102.510,85.980
810,51078.212000,210.533,61.862,-176.311,410.748,175.194,-325.134,-1036.040,597.510,-122.020
811,51078.247000,265.884,-3.521,-37.852,415.610,175.478,-314.330,95.960,851.510,-480.020
812,51078.284000,303.444,103.104,-18.926,425.398,183.706,-297.455,183.960,827.510,-456.020
813,51078.322000,325.189,-34.703,-41.837,426.438,190.576,-294.359,-409.040,257.510,-285.020
814,51078.368000,231.290,70.916,-51.798,424.690,207.321,-282.223,-759.040,172.510,-408.020
815,51078.428000,261.931,19.615,-72.716,420.921,216.172,-275.169,-384.040,183.510,-299.020
816,51078.445000,240.185,48.786,-72.716,421.904,216.332,-268.299,359.960,398.510,-320.020
817,51078.465000,254.023,57.839,-60.763,425.898,228.128,-263.126,103.960,304.510,-207.020
818,51078.503000,216.463,48.786,-45.821,423.964,228.109,-263.130,33.960,205.510,-179.020
819,51078.545000,241.174,65.886,-43.829,426.795,219.529,-257.431,10.960,65.510,-118.020
820,51078.582000,231.290,63.874,-48.809,423.984,229.188,-258.203,-210.040,-59.490,-20.020
821,51078.625000,226.347,68.904,-58.770,422.085,233.031,-259.102,-381.040,-123.490,21.980
822,51078.663000,259.954,31.686,-65.743,425.121,245.788,-253.909,-329.040,-100.490,48.980
823,51078.707000,234.255,52.809,-66.739,423.160,243.763,-256.900,-55.040,-29.490,3.980
824,51078.725000,245.127,48.786,-63.751,422.167,240.863,-255.986,-259.040,-34.490,-9.020
825,51078.763000,235.243,52.809,-46.817,417.351,242.779,-254.973,61.960,-65.490,14.980
826,51078.804000,245.127,51.804,-68.732,418.267,237.891,-257.041,-105.040,-92.490,31.980
827,51078.862000,231.290,55.827,-60.763,420.293,246.712,-253.899,-22.040,-63.490,32.980
828,51078.883000,239.197,60.857,-53.790,420.206,238.837,-258.977,-8.040,-92.490,61.980
829,51078.924000,237.220,50.798,-64.747,420.211,239.765,-260.918,-100.040,-193.490,128.980
830,51078.967000,251.058,41.745,-65.743,416.288,234.808,-263.978,-20.040,-169.490,119.980
831,51079.4000,239.197,64.880,-65.743,417.237,233.761,-267.922,63.960,-146.490,134.980
832,51079.44000,245.127,42.750,-74.708,419.160,232.787,-268.920,54.960,-89.490,182.980
833,51079.63000,242.162,43.756,-62.755,420.970,220.163,-270.177,251.960,-99.490,188.980
834,51079.104000,249.081,50.798,-51.798,421.938,221.942,-277.981,213.960,-202.490,235.980
835,51079.153000,246.116,32.692,-70.724,421.772,207.141,-289.097,209.960,-331.490,279.980
836,51079.184000,251.058,47.780,-70.724,415.829,194.313,-296.259,314.960,-395.490,306.980
837,51079.232000,256.000,42.750,-74.708,419.634,190.208,-308.110,229.960,-455.490,366.980
838,51079.264000,305.421,42.750,-56.778,413.711,180.206,-319.132,281.960,-558.490,383.980
839,51079.307000,278.734,21.627,-37.852,405.822,169.019,-339.010,296.960,-815.490,335.980
840,51079.344000,280.710,48.786,-54.786,395.102,163.759,-352.879,30.960,-1134.490,223.980
841,51079.385000,280.710,50.798,-49.805,379.531,158.323,-372.646,463.960,-1147.490,152.980
842,51079.404000,203.614,56.833,-166.350,361.969,148.811,-400.352,762.960,-1350.490,254.980
843,51079.445000,245.127,7.544,-36.856,347.288,135.596,-421.270,533.960,-1044.490,224.980
844,51079.483000,167.042,3.521,-41.837,350.955,116.087,-427.580,1091.960,174.510,-114.020
845,51079.527000,135.413,36.715,-18.926,367.412,114.586,-414.830,385.960,901.510,-329.020
846,51079.564000,207.568,5.532,-53.790,401.566,137.094,-376.993,-478.040,1551.510,-552.020
847,51079.612000,226.347,8.550,-109.572,425.134,166.209,-342.955,-780.040,1993.510,-574.020
848,51079.648000,258.965,-11.568,-148.420,459.375,194.845,-291.252,-742.040,1979.510,-438.020
849,51079.684000,266.873,19.615,-117.541,478.001,208.810,-237.947,-63.040,1800.510,-428.020
850,51079.725000,256.988,37.721,-89.650,491.797,224.562,-189.516,-323.040,1475.510,-432.020
851,51079.747000,254.023,27.662,-100.607,496.967,250.693,-150.680,-693.040,1039.510,-375.020
852,51079.784000,273.792,30.680,-70.724,495.216,262.130,-115.126,-1150.040,736.510,-293.020
853,51079.829000,245.127,22.633,-53.790,491.454,267.529,-88.536,-853.040,478.510,-153.020
854,51079.868000,249.081,27.662,-63.751,489.744,287.272,-72.411,-739.040,327.510,-136.020
855,51079.920000,254.023,32.692,-23.907,483.998,288.661,-50.817,-834.040,263.510,-112.020
856,51079.952000,246.116,25.650,-63.751,476.379,296.784,-31.040,-1016.040,143.510,-84.020
857,51079.988000,222.394,5.532,-83.673,476.448,300.970,-17.218,-744.040,-4.490,-58.020
858,51080.25000,198.672,12.574,-115.549,474.521,301.900,-18.182,-196.040,-362.490,-37.020
859,51080.49000,241.174,68.904,-107.580,471.579,299.736,-27.062,-175.040,-514.490,-165.020
860,51080.87000,265.884,46.774,16.934,471.604,304.374,-36.765,-35.040,-414.490,-166.020
861,51080.140000,259.954,57.839,-50.802,467.702,302.266,-42.704,96.960,-365.490,-37.020
862,51080.165000,265.884,0.503,-47.813,465.871,314.695,-50.278,-244.040,-396.490,-90.020
863,51080.208000,238.208,56.833,-33.868,465.862,314.609,-54.202,-93.040,-292.490,-136.020
864,51080.260000,255.012,45.768,-27.891,462.930,312.531,-59.158,-143.040,-255.490,-105.020
865,51080.287000,255.012,30.680,-33.868,455.221,316.275,-62.033,62.960,-182.490,-124.020
866,51080.325000,240.185,76.951,-36.856,454.308,322.069,-62.887,-100.040,-169.490,-148.020
867,51080.373000,254.023,46.774,-43.829,450.397,318.989,-68.848,-65.040,-112.490,-112.020
868,51080.390000,247.104,58.845,-46.817,455.307,326.782,-69.645,-81.040,-46.490,-123.020
869,51080.428000,251.058,58.845,-37.852,452.457,331.651,-67.582,-58.040,-9.490,-109.020
870,51080.468000,259.954,60.857,-25.899,449.545,330.652,-67.610,79.960,24.510,-70.020
871,51080.509000,243.151,56.833,-25.899,446.690,336.362,-71.412,188.960,1.510,-124.020
872,51080.547000,249.081,55.827,-27.891,446.716,339.253,-72.328,157.960,-99.490,-32.020
873,51080.584000,247.104,66.892,-32.872,445.665,332.275,-80.331,162.960,-166.490,14.980
874,51080.627000,245.127,61.862,-36.856,446.600,330.213,-86.258,291.960,-147.490,39.980
875,51080.664000,220.417,62.868,-45.821,444.609,326.139,-94.198,267.960,-189.490,40.980
876,51080.688000,246.116,65.886,-54.786,441.679,324.967,-102.076,108.960,-215.490,85.980
877,51080.725000,234.255,51.804,-60.763,442.666,327.803,-105.933,52.960,-161.490,102.980
878,51080.767000,239.197,66.892,-54.786,446.470,321.929,-109.978,102.960,-104.490,102.980
879,51080.804000,247.104,50.798,-57.774,448.330,314.181,-110.146,-40.040,-90.490,153.980
880,51080.847000,242.162,52.809,-50.802,446.426,317.981,-113.008,129.960,-32.490,127.980
881,51080.888000,234.255,55.827,-47.813,449.244,310.156,-117.099,164.960,-118.490,124.980
882,51080.924000,243.151,61.862,-44.825,449.230,310.026,-122.985,108.960,-194.490,133.980
883,51080.967000,254.023,37.721,-76.700,452.130,310.033,-123.960,37.960,-132.490,133.980
884,51081.4000,243.151,46.774,-74.708,451.097,304.112,-128.016,287.960,72.510,121.980
885,51081.30000,229.313,54.821,-60.763,456.810,294.482,-127.237,119.960,64.510,169.980
886,51081.74000,223.382,59.851,-13.946,456.838,297.394,-127.172,-39.040,-95.490,158.980
887,51081.107000,301.467,30.680,-54.786,456.798,292.605,-124.337,-428.040,-113.490,206.980
888,51081.153000,236.232,20.621,-50.802,458.731,293.487,-129.216,231.960,-44.490,118.980
889,51081.184000,242.162,42.750,-43.829,460.647,292.448,-133.158,215.960,-147.490,142.980
890,51081.228000,256.988,24.644,-71.720,459.532,277.811,-136.427,111.960,-120.490,135.980
891,51081.265000,232.278,25.650,-64.747,460.444,273.765,-144.361,339.960,-45.490,78.980
892,51081.310000,229.313,42.750,-68.732,462.445,281.464,-148.108,31.960,-104.490,55.980
893,51081.329000,234.255,23.639,-66.739,462.403,277.537,-150.157,-85.040,-117.490,27.980
894,51081.368000,230.301,31.686,-61.759,460.494,280.410,-151.078,-69.040,-121.490,-22.020
895,51081.415000,233.266,29.674,-82.677,454.720,283.287,-150.045,-199.040,-108.490,-31.020
896,51081.448000,229.313,23.639,-76.700,457.575,278.461,-150.146,-95.040,-26.490,-66.020
897,51081.490000,228.324,61.862,-64.747,454.739,285.229,-150.002,-102.040,-54.490,-103.020
898,51081.554000,247.104,28.668,-75.704,453.827,290.160,-145.972,-295.040,-19.490,-124.020
899,51081.569000,224.371,-0.503,-69.728,452.916,295.976,-145.845,-24.040,50.510,-143.020
900,51081.608000,239.197,39.733,-72.716,453.888,295.144,-139.977,-20.040,111.510,-206.020
901,51081.645000,227.336,77.957,-71.720,454.855,294.269,-136.072,-329.040,157.510,-194.020
902,51081.668000,272.803,80.974,-44.825,451.105,305.061,-128.976,-375.040,178.510,-177.020
903,51081.712000,250.069,33.697,-67.735,448.249,308.118,-121.068,-442.040,90.510,-101.020
904,51081.749000,274.780,34.703,-54.786,451.263,318.028,-112.997,-357.040,164.510,-144.020
905,51081.787000,244.139,52.809,-58.770,449.372,321.073,-106.069,-152.040,211.510,-88.020
906,51081.829000,243.151,54.821,-51.798,450.337,319.291,-99.242,-161.040,247.510,-62.020
907,51081.867000,237.220,31.686,-68.732,452.365,327.250,-91.215,85.960,362.510,-96.020
908,51081.909000,244.139,72.927,-37.852,445.545,321.445,-87.436,230.960,377.510,-136.020
909,51081.950000,232.278,63.874,-38.848,451.444,330.325,-83.304,-6.040,307.510,-87.020
910,51081.989000,246.116,62.868,-40.840,451.436,327.607,-74.538,-127.040,268.510,-29.020
911,51082.8000,259.954,53.815,-31.875,452.391,324.855,-67.733,-159.040,285.510,23.980
912,51082.45000,232.278,67.898,-23.907,451.484,329.829,-61.740,6.960,306.510,34.980
913,51082.87000,239.197,57.839,-24.903,456.313,327.158,-52.963,-121.040,248.510,60.980
914,51082.129000,252.046,64.880,-39.844,457.315,329.260,-46.050,-207.040,269.510,141.980
915,51082.165000,244.139,62.868,-31.875,460.200,325.599,-37.299,-80.040,473.510,99.980
916,51082.208000,248.093,55.827,-16.934,464.998,319.109,-25.665,-110.040,512.510,83.980
917,51082.245000,248.093,59.851,3.984,464.031,316.467,-12.977,-184.040,474.510,111.980
918,51082.289000,257.977,51.804,-17.930,465.056,318.785,3.748,-195.040,522.510,103.980
919,51082.308000,262.919,40.739,-6.973,467.912,311.327,16.337,-52.040,672.510,100.980
920,51082.349000,261.931,27.662,-15.938,471.792,308.818,32.961,76.960,795.510,58.980
921,51082.389000,275.768,24.644,-23.907,468.985,316.751,41.957,143.960,771.510,-13.020
922,51082.427000,267.861,51.804,-23.907,470.876,309.305,55.525,299.960,803.510,-51.020
923,51082.469000,262.919,29.674,-17.930,466.151,319.139,63.578,332.960,697.510,-64.020
924,51082.507000,237.220,15.591,-85.665,469.028,317.161,60.598,836.960,325.510,64.980
925,51082.550000,222.394,16.597,-64.747,474.771,315.751,38.024,909.960,-303.490,181.980
926,51082.588000,224.371,17.603,-67.735,485.219,302.543,6.372,678.960,-766.490,270.980
927,51082.630000,221.405,31.686,-58.770,494.700,291.979,-36.992,118.960,-1435.490,394.980
928,51082.649000,251.058,21.627,-41.837,498.361,277.692,-70.644,36.960,-1702.490,424.980
929,51082.705000,273.792,22.633,-44.825,495.223,265.711,-128.775,498.960,-1743.490,415.980
930,51082.735000,271.815,70.916,-23.907,487.089,237.201,-186.304,452.960,-1732.490,411.980
931,51082.768000,279.722,42.750,-18.926,472.309,220.404,-237.702,52.960,-1677.490,428.980
932,51082.810000,269.838,22.633,-14.942,451.761,203.895,-273.416,134.960,-1310.490,367.980
933,51082.848000,261.931,23.639,-12.949,433.307,201.257,-297.049,432.960,-884.490,212.980
934,51082.889000,235.243,34.703,-6.973,420.598,191.059,-313.973,89.960,-598.490,301.980
935,51082.927000,235.243,42.750,12.949,417.580,180.243,-319.123,-136.040,-315.490,305.980
936,51082.969000,248.093,49.792,25.899,418.613,186.164,-315.067,-372.040,422.510,168.980
937,51082.989000,242.162,91.033,13.946,423.435,181.659,-301.427,-95.040,725.510,-80.020
938,51083.29000,226.347,15.591,-160.374,429.398,194.682,-285.435,-710.040,513.510,-17.020
939,51083.67000,210.533,32.692,-101.603,431.447,202.834,-268.579,-387.040,450.510,-290.020
940,51083.109000,229.313,51.804,-81.681,435.410,210.812,-260.548,481.960,808.510,-451.020
941,51083.150000,278.734,91.033,-53.790,438.309,208.165,-249.813,235.960,791.510,-446.020
942,51083.188000,327.166,-4.527,-14.942,441.391,224.007,-236.707,-289.040,427.510,-379.020
943,51083.229000,238.208,78.963,-41.837,435.665,229.107,-222.876,-723.040,261.510,-394.020
944,51083.270000,270.826,29.674,-40.840,432.016,249.673,-212.621,-408.040,324.510,-233.020
945,51083.289000,220.417,78.963,-58.770,436.885,250.907,-202.777,-127.040,308.510,-249.020
946,51083.327000,244.139,51.804,-46.817,436.058,262.806,-190.746,-659.040,226.510,-207.020
947,51083.370000,240.185,43.756,-34.864,432.292,270.816,-177.828,-620.040,181.510,-205.020
948,51083.408000,256.000,39.733,-23.907,436.221,275.816,-172.805,-439.040,195.510,-178.020
949,51083.449000,248.093,47.780,-23.907,430.533,285.684,-162.792,-195.040,125.510,-185.020
950,51083.490000,241.174,61.862,-17.930,433.508,292.573,-159.690,-264.040,44.510,-141.020
951,51083.528000,247.104,59.851,-35.860,429.687,297.411,-158.610,14.960,39.510,-111.020
952,51083.572000,240.185,72.927,-11.953,428.680,293.496,-159.680,-19.040,-4.490,-81.020
953,51083.609000,244.139,52.809,-22.911,426.745,293.478,-159.685,-111.040,-63.490,-32.020
954,51083.628000,242.162,62.868,-18.926,426.790,298.310,-160.558,59.960,-83.490,-38.020
955,51083.670000,247.104,62.868,-22.911,422.852,292.340,-165.602,61.960,-92.490,2.980
956,51083.707000,250.069,43.756,-33.868,426.708,291.363,-167.577,218.960,-12.490,2.980
957,51083.749000,241.174,79.969,-19.922,426.683,290.241,-174.466,364.960,-76.490,12.980
958,51083.790000,234.255,82.986,-50.802,423.717,284.323,-177.546,255.960,-153.490,90.980
959,51083.830000,244.139,56.833,-35.860,424.674,285.109,-186.353,272.960,-186.490,106.980
960,51083.873000,240.185,65.886,-48.809,423.597,275.240,-193.439,336.960,-247.490,130.980
961,51083.910000,239.197,62.868,-57.774,428.461,279.948,-202.150,157.960,-234.490,164.980
962,51083.973000,252.046,44.762,-52.794,427.404,272.042,-208.211,430.960,-118.490,168.980
963,51083.983000,242.162,64.880,-43.829,428.194,255.374,-216.425,373.960,-153.490,198.980
964,51084.10000,244.139,57.839,-32.872,426.186,249.379,-223.427,330.960,-283.490,270.980
965,51084.52000,256.988,46.774,-58.770,424.132,239.414,-234.440,307.960,-356.490,323.980
966,51084.88000,241.174,53.815,-55.782,428.877,232.407,-246.353,430.960,-406.490,375.980
967,51084.130000,276.757,33.697,-60.763,430.587,211.778,-258.575,307.960,-421.490,484.980
968,51084.168000,272.803,21.627,-52.794,429.589,209.719,-263.526,486.960,-410.490,469.980
969,51084.212000,290.595,41.745,-37.852,432.248,188.044,-279.693,541.960,-497.490,428.980
970,51084.249000,274.780,20.621,-19.922,424.402,179.899,-293.619,207.960,-844.490,398.980
971,51084.269000,267.861,46.774,-36.856,415.532,167.689,-315.483,313.960,-1130.490,386.980
972,51084.312000,244.139,68.904,-78.693,398.034,164.953,-344.020,51.960,-1441.490,358.980
973,51084.353000,252.046,36.715,-79.689,382.480,162.321,-368.628,-86.040,-1457.490,281.980
974,51084.388000,236.232,28.668,-31.875,374.685,159.074,-380.484,368.960,-592.490,5.980
975,51084.480000,178.903,41.745,-22.911,380.360,145.560,-379.792,903.960,418.510,-235.020
976,51084.512000,187.799,50.798,-25.899,398.883,156.785,-362.832,139.960,985.510,-404.020
977,51084.548000,244.139,27.662,-50.802,429.108,173.409,-326.115,-99.040,1737.510,-594.020
978,51084.565000,253.035,30.680,-61.759,462.349,199.080,-276.442,-312.040,2028.510,-688.020
979,51084.592000,274.780,9.556,-92.638,484.918,218.196,-211.247,-420.040,2210.510,-749.020
980,51084.610000,280.710,42.750,-80.685,486.352,251.732,-142.834,-510.040,2068.510,-698.020
981,51084.648000,302.456,20.621,-73.712,488.712,282.236,-80.370,-1037.040,1757.510,-570.020
982,51084.690000,265.884,18.609,-72.716,480.168,290.759,-41.953,-1136.040,1449.510,-353.020
983,51084.728000,254.023,19.615,-87.658,473.635,305.321,5.428,-1154.040,1002.510,-225.020
984,51084.770000,209.544,7.544,-105.588,469.829,305.887,32.891,-904.040,386.510,-198.020
985,51084.808000,188.788,7.544,-146.428,461.180,310.764,37.885,-646.040,-376.490,-164.020
986,51084.853000,241.174,76.951,-74.708,460.226,316.170,19.370,-157.040,-1131.490,-174.020
987,51084.888000,295.537,-33.697,-8.965,459.259,320.562,-1.128,-604.040,-1193.490,-58.020
988,51084.932000,287.629,-52.809,-42.833,461.655,317.085,237.100,-195.040,-1029.490,39.980
989,51084.950000,261.931,62.868,-56.778,460.156,318.134,-23.736,-594.040,-909.490,-79.020
990,51084.988000,259.954,19.615,-42.833,460.159,319.925,-30.560,-148.040,-630.490,-35.020
991,51085.30000,246.116,65.886,-29.883,459.158,319.592,-45.280,274.960,-444.490,-69.020
992,51085.77000,256.000,58.845,-38.848,454.315,321.249,-56.041,-10.040,-474.490,8.980
993,51085.112000,258.965,48.786,-57.774,446.555,320.979,-64.889,54.960,-435.490,2.980
994,51085.158000,251.058,53.815,-50.802,449.387,315.053,-70.898,135.960,-259.490,8.980
995,51085.190000,245.127,62.868,-52.794,449.431,321.633,-80.559,227.960,-230.490,24.980
996,51085.229000,235.243,52.809,-57.774,450.311,313.768,-85.635,113.960,-206.490,77.980
997,51085.259000,235.243,63.874,-58.770,447.415,315.552,-91.485,194.960,-185.490,86.980
998,51085.308000,239.197,40.739,-64.747,449.324,313.564,-94.467,100.960,-109.490,121.980
999,51085.329000,249.081,49.792,-66.739,453.135,308.640,-99.472,225.960,2.510,114.980
1000,51085.372000,244.139,36.715,-57.774,452.043,296.872,-104.639,154.960,43.510,125.980
1001,51085.409000,235.243,48.786,-50.802,454.056,304.680,-103.481,302.960,13.510,114.980
1002,51085.452000,236.232,44.762,-54.786,453.953,294.885,-107.621,263.960,-55.490,180.980
1003,51085.489000,233.266,44.762,-51.798,458.724,289.020,-111.664,51.960,-111.490,202.980
1004,51085.539000,280.710,45.768,-36.856,463.545,288.032,-114.617,175.960,-154.490,217.980
1005,51085.572000,234.255,22.633,-44.825,461.539,282.922,-125.522,340.960,-358.490,182.980
1006,51085.590000,261.931,19.615,-79.689,458.517,272.947,-136.537,208.960,-348.490,149.980
1007,51085.645000,246.116,19.615,-91.642,461.338,266.029,-143.550,309.960,-124.490,143.980
1008,51085.670000,231.290,34.703,-92.638,461.355,268.833,-148.391,105.960,-56.490,118.980
1009,51085.712000,227.336,22.633,-83.673,464.273,269.897,-145.419,-102.040,-29.490,105.980
1010,51085.753000,245.127,6.538,-85.665,466.168,266.011,-146.482,123.960,65.510,55.980
1011,51085.794000,231.290,17.603,-73.712,462.261,262.090,-146.577,307.960,96.510,-1.020
1012,51085.832000,235.243,26.656,-79.689,463.250,264.947,-149.454,77.960,83.510,-34.020
1013,51085.877000,222.394,14.585,-78.693,463.273,266.932,-147.448,-40.040,70.510,-79.020
1014,51085.890000,225.359,4.527,-81.681,463.297,268.917,-145.443,-130.040,77.510,-101.020
1015,51085.933000,232.278,18.609,-75.704,464.330,274.838,-141.387,-86.040,100.510,-143.020
1016,51085.969000,227.336,21.627,-77.696,461.394,270.085,-135.614,-68.040,139.510,-183.020
1017,51086.17000,230.301,39.733,-77.696,459.531,276.927,-132.524,-160.040,156.510,-239.020
1018,51086.49000,256.988,30.680,-68.732,458.650,283.907,-123.545,-348.040,238.510,-276.020
1019,51086.92000,267.861,12.574,-61.759,456.870,297.696,-113.436,-294.040,350.510,-256.020
1020,51086.134000,240.185,26.656,-38.848,456.932,301.817,-102.557,-327.040,314.510,-407.020
1021,51086.174000,259.954,74.939,-34.864,450.275,311.654,-93.527,-266.040,282.510,-376.020
1022,51086.212000,257.977,60.857,-45.821,453.280,320.592,-85.477,-326.040,270.510,-264.020
1023,51086.230000,263.907,47.780,-57.774,449.437,321.698,-77.615,-263.040,357.510,-149.020
1024,51086.272000,253.035,71.921,-36.856,452.442,328.868,-61.759,-192.040,448.510,-147.020
1025,51086.309000,238.208,62.868,-34.864,450.560,331.999,-50.907,-305.040,382.510,-100.020
1026,51086.355000,245.127,60.857,-19.922,448.645,331.289,-38.178,-198.040,395.510,-88.020
1027,51086.392000,248.093,48.786,-30.879,449.614,329.551,-29.388,-43.040,434.510,-101.020
1028,51086.432000,244.139,56.833,-18.926,446.816,338.455,-20.371,18.960,444.510,-93.020
1029,51086.473000,241.174,68.904,-11.953,446.877,343.438,-14.376,-139.040,340.510,-69.020
1030,51086.537000,245.127,63.874,-14.942,446.881,341.712,-4.608,-252.040,303.510,-22.020
1031,51086.560000,250.069,59.851,-13.946,447.875,342.865,3.265,-142.040,336.510,-21.020
1032,51086.574000,240.185,71.921,-7.969,446.836,333.363,12.859,-65.040,330.510,4.980
1033,51086.612000,243.151,64.880,-0.996,445.976,342.307,22.862,-218.040,297.510,27.980
1034,51086.654000,248.093,65.886,3.984,446.938,339.619,32.611,-135.040,332.510,40.980
1035,51086.693000,251.058,57.839,7.969,448.896,340.739,38.524,-142.040,376.510,40.980
1036,51086.730000,249.081,65.886,18.926,449.853,338.008,46.311,-99.040,377.510,65.980
1037,51086.772000,236.232,63.874,10.957,451.732,329.569,58.876,-111.040,470.510,93.980
1038,51086.814000,256.000,52.809,15.938,449.820,329.766,68.683,135.960,557.510,88.980
1039,51086.852000,250.069,69.910,21.914,450.845,332.969,81.505,23.960,610.510,70.980
1040,51086.870000,236.232,70.916,31.875,447.957,331.322,96.172,-257.040,629.510,86.980
1041,51086.912000,272.803,35.709,30.879,453.680,319.146,113.566,-162.040,591.510,215.980
1042,51086.954000,276.757,38.727,33.868,455.652,322.163,117.560,446.960,629.510,201.980
1043,51086.992000,266.873,44.762,40.840,451.758,319.256,119.448,705.960,661.510,58.980
1044,51087.33000,253.035,55.827,55.782,448.964,329.066,125.544,521.960,562.510,14.980
1045,51087.75000,215.475,16.597,22.911,449.945,330.090,127.530,425.960,413.510,100.980
1046,51087.114000,214.486,4.527,-34.864,451.844,330.648,107.933,1034.960,-129.490,108.980
1047,51087.152000,234.255,24.644,14.942,464.262,320.436,79.294,1036.960,-431.490,309.980
