Sample, Time, ACCX, ACCY, ACCZ, MAGX, MAGY, MAGZ, GYRX, GYRY, GYRZ
0,51676.651000,246.116,52.809,-20.918,459.027,304.252,-36.795,54.960,166.510,62.980
1,51676.674000,246.116,50.798,-16.934,459.041,305.266,-34.811,96.960,192.510,66.980
2,51676.722000,249.081,54.821,-8.965,461.979,309.156,-35.699,115.960,181.510,53.980
3,51676.758000,240.185,52.809,-0.996,461.014,309.168,-34.720,55.960,111.510,57.980
4,51676.795000,247.104,43.756,0.000,461.936,304.345,-33.845,24.960,1.510,51.980
5,51676.842000,253.035,42.750,-9.961,463.876,305.291,-35.781,6.960,-55.490,46.980
6,51676.921000,249.081,49.792,-8.965,462.838,298.443,-37.896,75.960,-71.490,51.980
7,51676.942000,242.162,51.804,-11.953,462.876,303.211,-41.713,36.960,-110.490,68.980
8,51676.982000,254.023,43.756,-16.934,462.775,293.437,-44.872,60.960,-85.490,52.980
9,51677.11000,255.012,42.750,-26.895,464.743,296.412,-42.841,45.960,-25.490,36.980
10,51677.37000,243.151,45.768,-20.918,465.734,299.291,-44.736,19.960,33.510,-5.020
11,51677.76000,245.127,58.845,-5.977,467.697,302.222,-44.667,29.960,1.510,-67.020
12,51677.104000,248.093,45.768,-11.953,462.813,297.321,-44.786,-121.040,-124.490,73.980
13,51677.177000,255.012,37.721,-11.953,467.655,298.296,-46.715,1.960,-143.490,77.980
14,51677.211000,255.012,44.762,-15.938,469.590,299.199,-50.614,-11.040,-152.490,70.980
15,51677.227000,248.093,42.750,-28.887,466.641,295.201,-54.631,-0.040,-110.490,53.980
16,51677.263000,249.081,42.750,-27.891,463.699,291.268,-55.706,87.960,-33.490,31.980
17,51677.299000,245.127,47.780,-25.899,468.527,290.344,-55.716,89.960,18.510,11.980
18,51677.351000,254.023,44.762,-26.895,466.604,291.318,-54.718,17.960,35.510,-1.020
19,51677.366000,250.069,39.733,-26.895,469.548,295.273,-52.662,19.960,81.510,-9.020
20,51677.400000,250.069,41.745,-20.918,469.553,296.200,-54.603,95.960,128.510,-48.020
21,51677.437000,246.116,42.750,-15.938,466.667,297.208,-51.645,-21.040,93.510,-33.020
22,51677.483000,248.093,49.792,-6.973,464.763,300.123,-50.604,-91.040,33.510,-19.020
23,51677.587000,255.012,43.756,-19.922,466.622,291.490,-46.869,-82.040,28.510,-7.020
24,51677.622000,248.093,47.780,-19.922,461.848,297.333,-43.807,-24.040,49.510,-11.020
25,51677.676000,250.069,44.762,-14.942,466.683,297.359,-44.777,-8.040,77.510,-1.020
26,51677.692000,249.081,46.774,-12.949,467.650,297.368,-44.775,-13.040,69.510,3.980
27,51677.728000,249.081,41.745,-8.965,464.672,288.688,-41.051,42.960,49.510,5.980
28,51677.737000,244.139,45.768,-8.965,464.752,297.383,-42.819,22.960,7.510,8.980
29,51677.744000,249.081,46.774,-5.977,467.681,300.302,-43.729,-18.040,-42.490,13.980
30,51677.799000,249.081,43.756,-12.949,469.597,299.264,-47.670,-81.040,-99.490,18.980
31,51677.815000,249.081,39.733,-14.942,468.627,298.348,-44.751,-39.040,-97.490,13.980
32,51677.855000,252.046,44.762,-21.914,463.708,290.470,-47.878,3.960,-63.490,2.980
33,51677.917000,252.046,43.756,-21.914,465.640,290.467,-48.855,-26.040,-27.490,1.980
34,51677.959000,248.093,44.762,-20.918,466.695,299.236,-47.677,27.960,20.510,-4.020
35,51677.973000,252.046,44.762,-15.938,467.634,296.332,-47.740,14.960,27.510,-5.020
36,51678.15000,247.104,44.762,-14.942,467.589,290.615,-42.963,-9.040,18.510,-7.020
37,51678.43000,249.081,44.762,-12.949,466.704,299.322,-43.753,-18.040,8.510,-8.020
38,51678.79000,249.081,43.756,-15.938,465.661,292.430,-47.830,-27.040,-15.490,-2.020
39,51678.112000,248.093,46.774,-12.949,466.697,299.257,-46.696,-0.040,-25.490,-2.020
40,51678.167000,252.046,45.768,-16.934,464.760,299.217,-47.682,-11.040,-25.490,5.980
41,51678.192000,250.069,42.750,-18.926,463.776,298.172,-50.649,2.960,-8.490,-4.020
42,51678.242000,247.104,45.768,-15.938,463.663,285.637,-47.005,-7.040,-7.490,-1.020
43,51678.267000,249.081,43.756,-15.938,466.678,297.316,-46.739,-7.040,-13.490,0.980
44,51678.307000,247.104,44.762,-15.938,465.659,292.409,-48.812,-5.040,-21.490,-2.020
45,51678.372000,250.069,44.762,-18.926,465.735,300.176,-48.639,-23.040,-21.490,-1.020
46,51678.380000,248.093,46.774,-15.938,465.730,299.248,-46.698,-6.040,-6.490,-6.020
47,51678.407000,249.081,45.768,-16.934,466.659,295.374,-46.782,-11.040,3.510,-3.020
48,51678.457000,251.058,46.774,-16.934,464.732,296.304,-47.746,-2.040,11.510,-7.020
49,51678.505000,249.081,46.774,-16.934,466.702,300.185,-48.637,-11.040,17.510,-0.020
50,51678.545000,248.093,44.762,-16.934,466.711,301.156,-48.615,-5.040,29.510,-1.020
51,51678.567000,250.069,43.756,-15.938,466.711,300.271,-44.712,5.960,39.510,-3.020
52,51678.664000,248.093,45.768,-15.938,465.744,300.262,-44.714,-6.040,33.510,-0.020
53,51678.680000,248.093,45.768,-15.938,464.757,298.311,-44.760,-4.040,32.510,-2.020
54,51678.687000,249.081,45.768,-14.942,462.855,301.248,-42.737,0.960,26.510,1.980
55,51678.709000,248.093,47.780,-13.946,466.713,300.293,-43.731,2.960,21.510,3.980
56,51678.762000,251.058,44.762,-13.946,470.592,301.301,-43.700,5.960,14.510,4.980
57,51678.794000,249.081,46.774,-14.942,465.725,298.320,-44.758,2.960,10.510,0.980
58,51678.872000,251.058,43.756,-12.949,466.671,295.482,-41.877,-5.040,11.510,4.980
59,51678.942000,248.093,45.768,-11.953,462.791,294.473,-41.907,3.960,13.510,5.980
60,51678.967000,251.058,45.768,-15.938,468.638,298.456,-39.845,-6.040,16.510,4.980
61,51679.27000,251.058,43.756,-11.953,465.734,298.406,-40.833,3.960,18.510,4.980
62,51679.68000,249.081,44.762,-12.949,464.752,296.498,-38.916,9.960,22.510,4.980
63,51679.77000,251.058,42.750,-13.946,469.617,299.458,-38.840,4.960,23.510,4.980
64,51679.92000,247.104,45.768,-11.953,465.687,293.552,-40.941,6.960,19.510,5.980
65,51679.107000,249.081,43.756,-10.957,464.778,299.389,-39.833,-5.040,8.510,8.980
66,51679.142000,251.058,42.750,-12.949,467.669,298.425,-40.828,-11.040,0.510,7.980
67,51679.163000,248.093,45.768,-11.953,467.579,289.644,-42.985,-11.040,5.510,4.980
68,51679.207000,250.069,45.768,-8.965,468.520,285.878,-38.163,-17.040,0.510,4.980
69,51679.243000,249.081,44.762,-10.957,466.692,297.445,-40.852,-16.040,-8.490,6.980
70,51679.292000,249.081,44.762,-12.949,466.637,291.641,-40.001,-19.040,-12.490,5.980
71,51679.318000,249.081,44.762,-11.953,468.659,300.420,-38.821,-12.040,-7.490,1.980
72,51679.361000,250.069,45.768,-12.949,467.696,300.453,-36.861,-12.040,-3.490,3.980
73,51679.446000,249.081,43.756,-9.961,464.742,295.527,-38.938,-14.040,-11.490,0.980
74,51679.462000,250.069,43.756,-11.953,467.661,297.476,-39.869,-18.040,-11.490,0.980
75,51679.489000,250.069,44.762,-12.949,466.694,297.466,-39.871,-7.040,-2.490,-3.020
76,51679.498000,250.069,45.768,-12.949,465.717,296.486,-39.895,-6.040,-0.490,-2.020
77,51679.567000,248.093,46.774,-11.953,466.720,300.358,-40.788,-4.040,-6.490,-2.020
78,51679.583000,251.058,42.750,-12.949,469.596,297.495,-39.864,-6.040,-9.490,-2.020
79,51679.643000,249.081,45.768,-11.953,466.661,294.511,-41.898,1.960,-5.490,-5.020
80,51679.719000,251.058,45.768,-13.946,464.776,299.368,-40.814,-7.040,-9.490,-4.020
81,51679.748000,249.081,45.768,-12.949,463.797,298.366,-41.819,-1.040,-12.490,-3.020
82,51679.787000,249.081,44.762,-11.953,465.736,298.428,-39.852,-14.040,-21.490,-2.020
83,51679.829000,250.069,45.768,-13.946,466.701,298.416,-40.831,5.960,-8.490,-4.020
84,51679.838000,250.069,45.768,-11.953,469.582,296.481,-41.848,-1.040,-10.490,-7.020
85,51679.853000,249.081,43.756,-12.949,462.780,293.481,-42.910,-3.040,-15.490,-9.020
86,51679.879000,249.081,47.780,-13.946,466.715,300.314,-42.750,3.960,-19.490,-10.020
87,51679.919000,248.093,47.780,-11.953,467.704,302.287,-41.723,-11.040,-26.490,-3.020
88,51679.969000,250.069,46.774,-16.934,468.533,288.640,-44.966,-7.040,-20.490,-4.020
89,51680.27000,249.081,42.750,-12.949,465.741,299.356,-41.793,-0.040,-12.490,-11.020
90,51680.53000,250.069,47.780,-14.942,464.793,302.173,-45.655,-9.040,-7.490,-13.020
91,51680.109000,250.069,47.780,-13.946,464.813,303.251,-40.727,-5.040,4.510,-8.020
92,51680.136000,249.081,45.768,-14.942,462.872,303.168,-43.675,16.960,17.510,-2.020
93,51680.144000,249.081,46.774,-12.949,465.724,297.436,-40.855,4.960,17.510,-6.020
94,51680.178000,252.046,45.768,-11.953,462.848,300.298,-41.778,-0.040,13.510,-8.020
95,51680.252000,249.081,48.786,-11.953,465.788,304.210,-41.685,3.960,8.510,-6.020
96,51680.300000,247.104,48.786,-10.957,463.841,303.199,-42.692,-9.040,-6.490,-5.020
97,51680.318000,250.069,44.762,-14.942,465.774,302.311,-39.766,-1.040,-11.490,-9.020
98,51680.342000,248.093,46.774,-12.949,465.793,305.138,-43.625,-7.040,-15.490,-11.020
99,51680.387000,249.081,48.786,-12.949,467.575,289.601,-44.947,1.960,-17.490,-7.020
100,51680.423000,250.069,44.762,-14.942,459.894,295.372,-43.855,-2.040,-14.490,-5.020
101,51680.467000,250.069,47.780,-15.938,459.897,296.279,-46.776,15.960,-6.490,-10.020
102,51680.485000,248.093,48.786,-14.942,463.768,295.453,-41.883,3.960,-3.490,-4.020
103,51680.522000,247.104,49.792,-13.946,460.871,297.237,-47.734,1.960,3.510,-7.020
104,51680.562000,248.093,50.798,-13.946,464.755,298.289,-45.741,-4.040,-0.490,-7.020
105,51680.604000,250.069,45.768,-14.942,462.876,303.211,-41.713,-8.040,-9.490,-8.020
106,51680.644000,248.093,47.780,-12.949,462.888,305.088,-44.613,-9.040,-7.490,-12.020
107,51680.690000,248.093,44.762,-14.942,461.919,305.057,-45.597,-5.040,-5.490,-8.020
108,51680.742000,249.081,47.780,-15.938,463.825,302.163,-45.657,17.960,13.510,-11.020
109,51680.763000,248.093,45.768,-12.949,459.040,307.013,-43.598,5.960,10.510,-6.020
110,51680.783000,247.104,51.804,-11.953,464.823,305.107,-44.609,24.960,2.510,4.980
111,51680.829000,249.081,50.798,-11.953,464.854,308.041,-43.563,-1.040,-17.490,8.980
112,51680.874000,249.081,49.792,-12.949,463.868,306.090,-43.608,-15.040,-24.490,12.980
113,51680.908000,250.069,48.786,-15.938,465.762,302.204,-44.671,-8.040,-16.490,13.980
114,51680.948000,251.058,45.768,-13.946,459.911,298.177,-48.696,-10.040,-10.490,10.980
115,51681.14000,247.104,49.792,-13.946,463.877,307.061,-43.587,-16.040,-13.490,6.980
116,51681.29000,250.069,48.786,-14.942,463.879,307.082,-42.606,-20.040,-12.490,8.980
117,51681.72000,248.093,49.792,-15.938,464.805,304.050,-48.555,-6.040,-2.490,6.980
118,51681.108000,250.069,46.774,-14.942,464.793,302.173,-45.655,-19.040,-8.490,7.980
119,51681.124000,249.081,47.780,-14.942,463.766,295.432,-42.864,-18.040,-8.490,7.980
120,51681.163000,249.081,46.774,-13.946,459.960,302.169,-43.704,-9.040,-5.490,8.980
121,51681.208000,250.069,47.780,-15.938,463.835,303.134,-45.635,-9.040,-2.490,10.980
122,51681.248000,250.069,46.774,-16.934,463.851,305.054,-46.573,-2.040,7.510,8.980
123,51681.299000,248.093,50.798,-12.949,461.860,299.210,-46.707,3.960,12.510,3.980
124,51681.321000,249.081,46.774,-11.953,461.845,296.427,-40.885,-24.040,-6.490,9.980
125,51681.362000,248.093,45.768,-14.942,461.864,299.253,-44.745,-11.040,1.510,6.980
126,51681.399000,248.093,49.792,-15.938,458.945,297.305,-43.814,-6.040,5.510,1.980
127,51681.419000,250.069,45.768,-13.946,463.844,304.105,-45.614,-10.040,9.510,1.980
128,51681.477000,249.081,48.786,-14.942,460.890,298.295,-43.788,3.960,21.510,2.980
129,51681.507000,248.093,47.780,-14.942,464.710,292.572,-40.965,-0.040,19.510,11.980
130,51681.540000,247.104,49.792,-12.949,463.839,303.177,-43.673,-0.040,5.510,8.980
131,51681.580000,248.093,44.762,-12.949,461.909,304.086,-45.618,-22.040,-8.490,9.980
132,51681.620000,250.069,47.780,-15.938,464.799,302.237,-42.711,-22.040,-14.490,7.980
133,51681.660000,251.058,45.768,-13.946,465.781,303.261,-40.725,-21.040,-13.490,8.980
134,51681.747000,248.093,48.786,-14.942,463.764,295.410,-43.846,2.960,0.510,4.980
135,51681.754000,252.046,47.780,-11.953,460.941,303.192,-41.718,-25.040,-7.490,7.980
136,51681.777000,245.127,52.809,-10.957,462.865,303.103,-46.619,-6.040,-18.490,-3.020
137,51681.799000,250.069,46.774,-11.953,464.802,302.259,-41.730,-56.040,-47.490,9.980
138,51681.841000,251.058,42.750,-14.942,462.891,305.109,-43.632,-52.040,-67.490,-6.020
139,51681.919000,248.093,46.774,-16.934,464.786,301.223,-44.695,-15.040,-44.490,-6.020
140,51681.934000,250.069,45.768,-14.942,462.848,301.183,-45.681,-4.040,-18.490,-12.020
141,51681.961000,248.093,48.786,-12.949,464.812,304.114,-45.612,-15.040,-26.490,-10.020
142,51682.1000,249.081,46.774,-15.938,463.832,303.112,-46.616,-33.040,-37.490,-12.020
143,51682.54000,246.116,45.768,-16.934,460.871,297.237,-47.734,-35.040,-36.490,-24.020
144,51682.63000,249.081,48.786,-18.926,464.809,304.093,-46.593,-14.040,-12.490,-30.020
145,51682.109000,250.069,45.768,-20.918,463.762,295.389,-44.827,7.960,25.510,-26.020
146,51682.151000,248.093,54.821,-13.946,455.099,300.137,-45.720,36.960,49.510,-30.020
147,51682.190000,246.116,51.804,-13.946,461.961,308.983,-43.548,-10.040,29.510,-12.020
148,51682.220000,247.104,46.774,-13.946,459.995,306.030,-44.598,29.960,31.510,-15.020
149,51682.267000,247.104,50.798,-12.949,459.016,305.029,-45.603,1.960,0.510,-20.020
150,51682.310000,249.081,49.792,-14.942,462.879,304.117,-44.635,-45.040,-33.490,-11.020
151,51682.347000,249.081,48.786,-15.938,460.937,303.149,-43.680,-12.040,-25.490,-10.020
152,51682.360000,249.081,50.798,-15.938,462.907,307.030,-44.570,8.960,-5.490,-19.020
153,51682.403000,247.104,48.786,-19.922,462.926,308.971,-44.527,-41.040,-15.490,-21.020
154,51682.443000,247.104,50.798,-15.938,459.984,305.038,-45.601,-8.040,-8.490,-28.020
155,51682.485000,250.069,52.809,-16.934,460.963,306.040,-44.596,-31.040,-22.490,-11.020
156,51682.524000,248.093,49.792,-17.930,458.030,302.193,-41.746,-4.040,-13.490,-13.020
157,51682.564000,248.093,51.804,-11.953,456.176,311.753,-47.421,9.960,-16.490,-25.020
158,51682.607000,246.116,53.815,-18.926,460.989,308.931,-45.513,-80.040,-35.490,-16.020
159,51682.647000,247.104,49.792,-16.934,457.100,306.067,-41.662,-7.040,-19.490,-0.020
160,51682.687000,251.058,52.809,-18.926,458.953,299.139,-48.676,15.960,-20.490,-11.020
161,51682.700000,249.081,52.809,-20.918,458.141,314.706,-46.371,-29.040,-17.490,-11.020
162,51682.742000,245.127,55.827,-19.922,456.084,302.951,-50.559,40.960,21.510,2.980
163,51682.784000,250.069,51.804,-18.926,458.067,306.076,-41.660,2.960,20.510,7.980
164,51682.867000,246.116,54.821,-16.934,456.150,308.862,-46.505,8.960,24.510,-1.020
165,51682.882000,250.069,51.804,-19.922,459.035,306.970,-45.560,-10.040,13.510,3.980
166,51682.909000,248.093,53.815,-16.934,456.171,310.826,-45.481,-26.040,16.510,6.980
167,51682.956000,247.104,51.804,-17.930,457.161,312.820,-43.473,3.960,26.510,12.980
168,51683.37000,248.093,52.809,-15.938,457.150,311.827,-44.476,12.960,36.510,2.980
169,51683.68000,248.093,53.815,-15.938,458.053,304.178,-39.740,-7.040,29.510,15.980
170,51683.83000,249.081,53.815,-12.949,456.192,312.789,-44.456,20.960,34.510,15.980
171,51683.98000,249.081,49.792,-12.949,460.021,308.037,-41.612,-28.040,7.510,27.980
172,51683.127000,247.104,51.804,-13.946,458.098,309.010,-40.614,-11.040,10.510,23.980
173,51683.167000,250.069,50.798,-15.938,460.057,311.899,-42.507,-22.040,15.510,27.980
174,51683.205000,252.046,48.786,-13.946,462.914,307.094,-41.627,13.960,29.510,21.980
175,51683.247000,246.116,54.821,-9.961,458.053,305.062,-43.643,10.960,-10.490,16.980
176,51683.282000,250.069,46.774,-7.969,463.891,308.075,-41.603,6.960,-60.490,20.980
177,51683.324000,244.139,48.786,-7.969,461.933,306.071,-43.613,40.960,-146.490,8.980
178,51683.344000,246.116,48.786,-12.949,460.977,307.938,-46.515,42.960,-192.490,-6.020
179,51683.382000,241.174,57.839,-18.926,459.020,306.819,-52.428,117.960,-281.490,-0.020
180,51683.422000,241.174,54.821,-23.907,456.111,308.496,-63.185,220.960,-271.490,-12.020
181,51683.462000,245.127,55.827,-39.844,453.217,311.186,-71.957,63.960,-210.490,-62.020
182,51683.509000,250.069,40.739,-35.860,453.163,306.267,-75.008,96.960,-122.490,-101.020
183,51683.553000,240.185,45.768,-48.809,453.246,314.983,-75.795,-108.040,-93.490,-97.020
184,51683.589000,259.954,60.857,-43.829,450.350,315.019,-72.858,-265.040,32.510,-127.020
185,51683.625000,242.162,63.874,-26.895,451.343,316.151,-65.967,-397.040,112.510,-113.020
186,51683.665000,255.012,43.756,-23.907,446.500,313.407,-56.231,-426.040,141.510,-107.020
187,51683.687000,254.023,49.792,-20.918,446.641,327.085,-52.005,-331.040,119.510,-145.020
188,51683.725000,248.093,50.798,-17.930,446.685,330.148,-45.072,-213.040,97.510,-181.020
189,51683.784000,246.116,44.762,-13.946,440.934,335.011,-42.034,-132.040,55.510,-193.020
190,51683.838000,233.266,100.086,-7.969,440.894,330.221,-39.198,-104.040,-48.490,-150.020
191,51683.858000,249.081,59.851,-32.872,433.187,333.986,-41.092,-220.040,-33.490,-83.020
192,51683.882000,242.162,96.063,-10.957,437.123,339.935,-37.029,-172.040,18.510,-113.020
193,51683.922000,241.174,67.898,-24.903,432.341,343.944,-29.105,-562.040,-23.490,-60.020
194,51683.965000,251.058,58.845,-16.934,435.212,339.269,-22.338,-467.040,26.510,-104.020
195,51683.987000,240.185,79.969,-27.891,428.500,344.187,-16.359,-308.040,77.510,-130.020
196,51684.32000,250.069,59.851,-16.934,430.524,351.218,-6.392,-329.040,198.510,-130.020
197,51684.62000,245.127,81.980,-18.926,427.679,354.382,6.420,-172.040,306.510,-165.020
198,51684.102000,233.266,112.157,-22.911,429.653,357.422,11.395,-300.040,362.510,-132.020
199,51684.150000,254.023,41.745,14.942,422.941,360.570,25.180,-484.040,486.510,-154.020
200,51684.185000,237.220,51.804,28.887,421.033,360.810,36.950,100.960,473.510,-290.020
201,51684.227000,246.116,92.039,46.817,413.395,370.508,40.091,60.960,84.510,-267.020
202,51684.267000,257.977,88.016,-1.992,411.531,378.213,38.296,-97.040,-134.490,-215.020
203,51684.307000,285.652,69.910,-34.864,401.859,379.909,31.449,58.960,-57.490,-254.020
204,51684.325000,271.815,104.110,2.988,403.771,377.943,29.448,-79.040,-118.490,-120.020
205,51684.363000,245.127,119.198,4.981,401.847,377.148,38.252,-1378.040,-256.490,74.980
206,51684.403000,207.568,70.916,26.895,403.759,371.665,52.845,-964.040,-244.490,186.980
207,51684.442000,183.846,81.980,31.875,406.690,374.606,52.916,-517.040,-250.490,81.980
208,51684.483000,184.834,70.916,33.868,408.612,372.748,55.821,-513.040,-307.490,64.980
209,51684.523000,194.718,62.868,50.802,413.324,358.383,62.377,-707.040,-274.490,185.980
210,51684.563000,210.533,62.868,31.875,413.290,352.773,72.059,-840.040,-283.490,257.980
211,51684.605000,221.405,49.792,20.918,420.996,348.124,77.856,-703.040,-188.490,320.980
212,51684.627000,205.591,75.945,-9.961,431.566,339.619,83.573,-585.040,-368.490,408.980
213,51684.663000,207.568,55.827,49.805,437.305,333.764,79.533,-121.040,-313.490,256.980
214,51684.709000,358.795,159.434,-122.521,433.460,337.481,73.723,961.960,252.510,-366.020
215,51684.752000,336.062,26.656,2.988,441.090,328.581,62.754,-681.040,-840.490,390.980
216,51684.783000,270.826,69.910,-37.852,439.189,335.056,49.165,87.960,-536.490,-126.020
217,51684.829000,247.104,71.921,-23.907,442.997,330.973,38.295,19.960,-396.490,11.980
218,51684.865000,259.954,52.809,-34.864,441.957,324.988,31.295,575.960,-132.490,83.980
219,51684.905000,243.151,89.022,-14.942,442.965,330.671,24.559,508.960,-71.490,56.980
220,51684.945000,241.174,67.898,-19.922,441.890,321.708,14.551,315.960,-174.490,126.980
221,51684.964000,244.139,66.892,-22.911,446.696,320.569,4.729,324.960,-104.490,149.980
222,51685.5000,238.208,69.910,-24.903,445.764,324.421,3.832,242.960,-56.490,183.980
223,51685.50000,250.069,58.845,-45.821,451.473,316.517,-5.157,306.960,-8.490,242.980
224,51685.85000,257.977,55.827,-24.903,456.296,314.666,-3.227,322.960,84.510,222.980
225,51685.125000,248.093,67.898,-25.899,459.163,312.601,-10.131,399.960,3.510,253.980
226,51685.165000,231.290,47.780,0.000,461.920,298.023,-12.410,286.960,-30.490,274.980
227,51685.204000,258.965,37.721,-40.840,461.881,295.887,-21.284,302.960,-170.490,269.980
228,51685.244000,258.965,64.880,-16.934,465.709,292.883,-27.226,289.960,-176.490,291.980
229,51685.284000,228.324,8.550,-70.724,472.380,284.060,-34.273,158.960,-142.490,317.980
230,51685.303000,302.456,53.815,-47.813,475.164,271.511,-32.584,57.960,130.510,408.980
231,51685.347000,253.035,7.544,-33.868,479.987,269.659,-30.654,278.960,137.510,281.980
232,51685.387000,236.232,122.216,-101.603,481.850,263.702,-37.647,670.960,52.510,8.980
233,51685.427000,251.058,63.874,-178.303,475.149,272.244,-43.355,757.960,-15.490,-254.020
234,51685.467000,170.996,61.862,-228.109,478.047,277.515,-69.710,2310.960,125.510,-414.020
235,51685.512000,183.846,79.969,-240.062,467.241,271.436,-120.862,3184.960,-203.490,-597.020
236,51685.549000,209.544,61.862,-217.152,461.121,252.501,-185.038,3978.960,-648.490,-607.020
237,51685.600000,229.313,71.921,-170.335,448.036,216.695,-263.333,4483.960,-827.490,-603.020
238,51685.609000,263.907,102.098,-133.479,436.928,177.778,-307.369,4218.960,-1050.490,-314.020
239,51685.658000,248.093,112.157,-92.638,423.629,114.377,-360.779,3590.960,-1098.490,-137.020
240,51685.768000,257.977,104.110,-56.778,400.757,58.023,-398.363,2513.960,-1175.490,-164.020
241,51685.798000,246.116,90.028,-34.864,377.126,19.501,-418.881,1648.960,-1048.490,-191.020
242,51685.813000,242.162,52.809,-7.969,366.278,0.692,-431.089,892.960,-478.490,-304.020
243,51685.829000,251.058,79.969,-4.981,366.245,-1.379,-437.019,490.960,-118.490,-453.020
244,51685.858000,198.672,52.809,20.918,373.099,6.519,-433.888,-402.040,328.510,-563.020
245,51685.887000,256.988,45.768,16.934,378.101,21.345,-423.741,-637.040,578.510,-332.020
246,51685.932000,249.081,2.515,-7.969,401.409,26.835,-404.938,575.960,1236.510,-332.020
247,51685.947000,149.251,-38.727,-330.708,427.393,8.168,-382.742,617.960,1007.510,-336.020
248,51685.987000,232.278,4.527,-152.405,430.368,14.173,-375.738,637.960,183.510,-373.020
249,51686.29000,199.660,-72.927,-68.732,438.163,18.304,-367.785,-198.040,395.510,-195.020
250,51686.64000,276.757,66.892,-92.638,447.851,17.644,-357.972,25.960,391.510,-331.020
251,51686.117000,265.884,71.921,-56.778,453.791,29.566,-347.888,-165.040,579.510,-392.020
252,51686.154000,260.942,-5.532,-30.879,465.484,35.763,-335.958,-196.040,525.510,-415.020
253,51686.189000,422.054,41.745,-52.794,469.520,50.601,-324.833,-512.040,419.510,-400.020
254,51686.249000,242.162,22.633,-75.704,479.340,64.417,-318.622,-351.040,311.510,-316.020
255,51686.255000,255.012,21.627,-77.696,481.398,74.425,-305.647,34.960,514.510,-284.020
256,51686.295000,228.324,41.745,-59.767,486.173,65.950,-296.018,331.960,508.510,-197.020
257,51686.332000,221.405,38.727,-67.735,492.083,74.939,-286.980,78.960,386.510,-140.020
258,51686.368000,226.347,55.827,-22.911,493.031,72.122,-283.118,219.960,271.510,-163.020
259,51686.408000,250.069,54.821,-32.872,497.924,77.109,-279.075,-3.040,92.510,-32.020
260,51686.452000,249.081,53.815,-29.883,497.945,79.073,-278.050,-1.040,-16.490,-30.020
261,51686.485000,256.000,34.703,-51.798,497.884,73.204,-280.142,-48.040,-90.490,37.980
262,51686.533000,262.919,20.621,-57.774,495.937,72.193,-281.149,75.960,-42.490,99.980
263,51686.584000,239.197,47.780,-49.805,495.921,71.158,-284.114,270.960,-82.490,115.980
264,51686.592000,251.058,32.692,-44.825,493.937,66.263,-285.208,229.960,-61.490,116.980
265,51686.629000,230.301,49.792,-50.802,497.770,63.302,-289.188,180.960,-122.490,141.980
266,51686.665000,251.058,28.668,-27.891,490.871,51.456,-295.349,-20.040,-313.490,211.980
267,51686.708000,261.931,49.792,-30.879,484.970,43.438,-304.366,-182.040,-543.490,311.980
268,51686.748000,272.803,33.697,-33.868,474.253,39.969,-325.059,-116.040,-831.490,523.980
269,51686.790000,316.293,15.591,-33.868,459.569,25.847,-343.056,496.960,-966.490,524.980
270,51686.942000,372.633,76.951,-8.965,439.868,-4.136,-374.163,844.960,-1188.490,647.980
271,51687.12000,298.502,126.240,-16.934,417.432,-20.210,-389.277,302.960,-1496.490,845.980
272,51687.19000,206.579,64.880,-135.471,388.315,-23.147,-421.765,-847.040,-1643.490,881.980
273,51687.29000,222.394,82.986,-40.840,354.588,-3.714,-449.844,-752.040,-1146.490,368.980
274,51687.34000,144.309,68.904,-30.879,346.169,27.139,-455.061,-1178.040,-295.490,38.980
275,51687.51000,144.309,43.756,-43.829,358.166,65.310,-445.363,-1500.040,608.510,-20.020
276,51687.57000,183.846,26.656,-60.763,379.887,104.050,-414.057,-1625.040,1224.510,-158.020
277,51687.85000,227.336,54.821,-82.677,412.426,157.780,-367.685,-1655.040,1760.510,-281.020
278,51687.145000,251.058,64.880,-91.642,431.043,174.313,-330.014,-2017.040,1946.510,-230.020
279,51687.168000,286.641,50.798,-148.420,452.024,228.426,-261.103,-2273.040,1829.510,-27.020
280,51687.220000,269.838,40.739,-160.374,466.955,257.240,-192.766,-2177.040,1546.510,180.980
281,51687.229000,242.162,59.851,-137.463,471.986,266.197,-140.582,-2130.040,1029.510,393.980
282,51687.268000,225.359,65.886,-138.459,476.944,269.157,-96.376,-2179.040,674.510,383.980
283,51687.329000,228.324,38.727,-91.642,475.177,278.674,-59.884,-1822.040,353.510,158.980
284,51687.345000,209.544,37.721,-90.646,476.240,283.127,-34.285,-1556.040,133.510,65.980
285,51687.393000,220.417,34.703,-99.611,473.389,286.227,-24.416,-1137.040,-305.490,-18.020
286,51687.425000,201.637,42.750,-76.700,475.321,285.340,-21.490,-757.040,-502.490,-128.020
287,51687.465000,279.722,83.992,63.751,468.541,286.957,-33.236,-359.040,-690.490,-279.020
288,51687.507000,233.266,138.310,0.996,461.887,300.354,-38.837,74.960,-519.490,-383.020
289,51687.529000,341.004,-64.880,-60.763,462.834,300.169,-47.665,-888.040,-633.490,-1.020
290,51687.569000,236.232,8.550,-39.844,457.115,308.850,-47.484,12.960,-125.490,-478.020
291,51687.609000,256.000,94.051,0.996,453.351,320.398,-50.178,-100.040,-29.490,-462.020
292,51687.650000,237.220,77.957,-35.860,448.525,320.459,-45.283,-422.040,-72.490,-189.020
293,51687.690000,259.954,50.798,-2.988,446.630,324.345,-44.220,-251.040,-13.490,-178.020
294,51687.730000,248.093,63.874,-31.875,442.838,331.211,-39.172,-282.040,-56.490,-208.020
295,51687.770000,246.116,64.880,-33.868,437.104,337.994,-37.073,-273.040,59.510,-235.020
296,51687.818000,241.174,65.886,-10.957,436.131,336.172,-31.231,-159.040,87.510,-210.020
297,51687.845000,249.081,82.986,13.946,429.424,342.017,-27.193,-229.040,25.510,-148.020
298,51687.873000,239.197,88.016,-26.895,429.483,346.980,-22.179,-384.040,44.510,-156.020
299,51687.925000,246.116,82.986,-16.934,427.622,352.958,-14.205,-330.040,80.510,-156.020
300,51687.949000,235.243,68.904,-16.934,430.592,358.035,-5.260,-540.040,164.510,-154.020
301,51687.990000,229.313,93.045,0.996,425.812,361.181,7.548,-520.040,211.510,-224.020
302,51688.30000,229.313,80.974,3.984,420.039,361.426,21.271,-717.040,179.510,-199.020
303,51688.72000,238.208,79.969,24.903,419.139,366.465,30.206,-587.040,48.510,-189.020
304,51688.142000,253.035,61.862,13.946,417.297,373.501,42.127,-501.040,77.510,-205.020
305,51688.160000,237.220,90.028,10.957,410.475,366.790,48.828,-459.040,126.510,-250.020
306,51688.189000,234.255,86.004,18.926,405.700,370.864,59.696,-416.040,181.510,-233.020
307,51688.209000,252.046,77.957,12.949,404.783,373.983,69.570,-255.040,336.510,-248.020
308,51688.250000,235.243,80.974,14.942,394.213,378.971,80.445,-115.040,453.510,-309.020
309,51688.292000,241.174,82.986,-9.961,384.639,386.881,91.388,-26.040,681.510,-363.020
310,51688.327000,233.266,120.204,44.825,375.062,393.884,105.252,-119.040,652.510,-328.020
311,51688.367000,232.278,98.075,74.708,371.232,396.867,110.214,-131.040,326.510,-186.020
312,51688.407000,251.058,137.305,75.704,369.342,401.681,109.336,123.960,-139.490,-95.020
313,51688.447000,259.954,153.399,28.887,364.409,393.673,100.322,-385.040,-666.490,-136.020
314,51688.489000,266.873,158.428,11.953,370.288,398.843,112.217,-1518.040,-739.490,-143.020
315,51688.509000,259.954,45.768,16.934,376.048,390.550,129.697,-1907.040,-746.490,-24.020
316,51688.549000,198.672,10.562,62.755,371.198,387.741,136.489,-242.040,31.510,-7.020
317,51688.593000,173.961,84.998,69.728,371.168,384.807,135.443,81.960,129.510,39.980
318,51688.634000,177.915,56.833,53.790,373.093,383.855,135.426,67.960,-106.490,74.980
319,51688.670000,194.718,79.969,64.747,374.028,380.908,133.401,-273.040,-133.490,206.980
320,51688.710000,234.255,82.986,57.774,382.735,380.109,137.325,-353.040,-181.490,242.980
321,51688.752000,222.394,122.216,67.735,387.511,374.287,135.244,-24.040,-206.490,223.980
322,51688.797000,237.220,120.204,75.704,391.274,363.624,134.035,37.960,-152.490,162.980
323,51688.829000,210.533,105.116,85.665,394.156,361.689,133.017,145.960,-6.490,137.980
324,51688.854000,214.486,125.234,66.739,398.988,360.809,134.969,-241.040,-196.490,179.980
325,51688.890000,200.649,96.063,42.833,396.982,353.066,136.754,-315.040,-179.490,79.980
326,51688.930000,181.869,54.821,-27.891,403.782,355.160,140.738,-233.040,-142.490,31.980
327,51688.970000,242.162,156.417,189.261,403.778,356.001,134.873,587.960,-85.490,-183.020
328,51689.10000,360.772,42.750,-0.996,407.554,347.215,130.763,-357.040,-464.490,178.980
329,51689.54000,320.247,-67.898,40.840,412.427,352.009,125.976,96.960,-529.490,66.980
330,51689.88000,246.116,120.204,-9.961,418.155,346.930,113.127,450.960,-429.490,-48.020
331,51689.130000,252.046,62.868,1.992,417.155,347.482,94.505,709.960,-241.490,112.980
332,51689.150000,237.220,101.092,-18.926,420.124,356.960,82.953,1061.960,-111.490,155.980
333,51689.190000,237.220,73.933,-10.957,420.001,346.971,69.983,549.960,-21.490,162.980
334,51689.227000,237.220,89.022,-5.977,417.062,344.828,62.084,631.960,46.510,178.980
335,51689.267000,234.255,84.998,-11.953,422.917,351.530,55.380,307.960,44.510,155.980
336,51689.307000,258.965,61.862,17.930,427.735,350.520,51.445,447.960,38.510,136.980
337,51689.347000,229.313,82.986,14.942,428.617,343.539,42.466,640.960,13.510,193.980
338,51689.392000,244.139,77.957,28.887,429.507,337.530,33.509,630.960,-63.490,232.980
339,51689.433000,228.324,96.063,8.965,432.415,339.370,27.672,276.960,-273.490,294.980
340,51689.473000,254.023,49.792,-19.922,440.951,323.727,18.517,-331.040,-404.490,300.980
341,51689.492000,254.023,64.880,-14.942,443.854,324.640,14.620,-40.040,-313.490,271.980
342,51689.528000,239.197,54.821,-31.875,450.502,313.832,5.568,247.960,-220.490,383.980
343,51689.568000,273.792,59.851,-17.930,454.275,305.024,0.478,296.960,-94.490,413.980
344,51689.608000,266.873,62.868,-24.903,460.960,296.331,-0.682,267.960,-0.490,394.980
345,51689.655000,288.618,38.727,-14.942,459.982,296.214,-5.590,204.960,111.510,298.980
346,51689.692000,261.931,24.644,-73.712,466.763,296.366,-1.650,347.960,252.510,248.980
347,51689.727000,204.602,113.163,-96.623,467.653,289.471,-6.704,811.960,283.510,111.980
348,51689.775000,205.591,86.004,-280.903,461.740,282.209,-25.510,2102.960,-46.490,-155.020
349,51689.790000,192.741,74.939,-229.105,465.591,290.877,-74.343,2876.960,-424.490,-333.020
350,51689.830000,219.429,71.921,-228.109,460.510,282.330,-152.016,4240.960,-746.490,-511.020
351,51689.869000,244.139,121.210,-168.342,449.329,244.471,-236.236,4142.960,-1215.490,-376.020
352,51689.910000,261.931,95.057,-116.545,441.173,212.228,-286.982,3601.960,-1454.490,-235.020
353,51689.958000,268.849,88.016,-81.681,421.130,153.442,-348.150,2659.960,-1468.490,109.980
354,51690.24000,244.139,83.992,-50.802,398.339,106.667,-391.404,2087.960,-1331.490,159.980
355,51690.42000,227.336,64.880,-60.763,377.614,70.849,-422.644,1575.960,-1069.490,54.980
356,51690.69000,211.521,58.845,-48.809,360.910,47.086,-436.936,987.960,-797.490,-132.020
357,51690.117000,209.544,56.833,-48.809,351.973,25.427,-447.242,818.960,-251.490,-347.020
358,51690.155000,222.394,49.792,-55.782,352.872,18.619,-448.372,996.960,97.510,-376.020
359,51690.172000,197.683,53.815,-50.802,363.335,0.276,-448.757,941.960,354.510,-530.020
360,51690.222000,231.290,35.709,-48.809,376.842,-6.108,-436.121,690.960,561.510,-556.020
361,51690.262000,210.533,41.745,-39.844,398.073,-14.336,-422.530,937.960,863.510,-734.020
362,51690.315000,218.440,41.745,-92.638,415.465,-20.531,-403.018,689.960,898.510,-734.020
363,51690.374000,227.336,46.774,-46.817,433.942,-14.160,-386.166,-29.040,782.510,-746.020
364,51690.437000,225.359,-45.768,-145.432,447.635,-1.148,-374.080,366.960,451.510,-614.020
365,51690.462000,233.266,-2.515,-68.732,453.465,-0.854,-363.274,597.960,491.510,-544.020
366,51690.480000,240.185,-50.798,-86.661,464.115,-2.433,-351.519,-53.040,542.510,-502.020
367,51690.498000,345.946,281.147,-45.821,480.888,29.032,-339.998,-1067.040,501.510,-543.020
368,51690.552000,304.432,-104.110,-39.844,479.133,45.712,-330.805,-555.040,133.510,-62.020
369,51690.598000,270.826,4.527,-61.759,482.236,66.150,-329.365,-330.040,140.510,-387.020
370,51690.639000,242.162,54.821,-82.677,487.141,72.130,-324.318,67.960,267.510,-275.020
371,51690.655000,245.127,46.774,-98.615,491.994,72.328,-317.439,304.960,372.510,-158.020
372,51690.795000,224.371,45.768,-65.743,493.010,75.444,-308.542,15.960,447.510,-71.020
373,51690.812000,242.162,51.804,-49.805,500.675,66.005,-299.909,-20.040,392.510,-51.020
374,51690.826000,225.359,45.768,-54.786,504.617,72.019,-292.903,48.960,292.510,-27.020
375,51690.826000,247.104,50.798,-43.829,505.612,73.172,-285.030,-13.040,201.510,-2.020
376,51690.854000,249.081,54.821,-62.755,509.536,78.129,-281.969,-243.040,75.510,42.980
377,51690.892000,244.139,42.750,-42.833,512.398,73.367,-279.127,-121.040,52.510,79.980
378,51690.906000,249.081,31.686,-44.825,512.372,71.361,-282.114,-13.040,34.510,125.980
379,51690.964000,234.255,47.780,-37.852,509.439,67.514,-279.263,201.960,-21.490,119.980
380,51691.37000,247.104,41.745,-41.837,508.455,66.469,-282.230,67.960,-150.490,194.980
381,51691.91000,247.104,42.750,-25.899,505.483,61.371,-292.157,110.960,-300.490,260.980
382,51691.115000,254.023,48.786,-27.891,503.363,43.725,-299.417,102.960,-434.490,391.980
383,51691.145000,294.548,8.550,-18.926,491.593,30.624,-316.404,407.960,-672.490,511.980
384,51691.191000,288.618,59.851,-15.938,477.813,10.622,-337.471,598.960,-959.490,551.980
385,51691.255000,347.923,57.839,-22.911,461.162,-5.590,-361.402,653.960,-1381.490,470.980
386,51691.285000,296.525,112.157,-65.743,435.776,-23.030,-393.224,422.960,-1610.490,641.980
387,51691.316000,271.815,70.916,-36.856,397.007,-23.213,-428.613,-471.040,-1581.490,592.980
388,51691.350000,182.857,96.063,17.930,369.086,-4.587,-451.794,-1198.040,-823.490,199.980
389,51691.375000,174.950,52.809,-16.934,371.496,44.019,-448.749,-1850.040,8.510,-79.020
390,51691.399000,201.637,-10.562,-55.782,389.325,82.505,-427.263,-1207.040,997.510,-33.020
391,51691.438000,214.486,57.839,-85.665,410.968,112.572,-393.208,-1113.040,1323.510,-97.020
392,51691.473000,228.324,86.004,-109.572,428.764,146.333,-365.943,-2127.040,1345.510,-153.020
393,51691.499000,253.035,53.815,-120.529,443.765,186.388,-315.990,-2147.040,1389.510,-29.020
394,51691.536000,275.768,32.692,-113.556,456.748,217.707,-265.253,-1629.040,1546.510,173.980
395,51691.570000,251.058,31.686,-140.451,470.600,237.515,-208.887,-1213.040,1616.510,306.980
396,51691.610000,233.266,73.933,-111.564,477.542,246.254,-167.490,-1004.040,1338.510,38.980
397,51691.636000,220.417,115.175,-109.572,475.807,257.842,-125.068,-1792.040,703.510,-45.020
398,51691.671000,183.846,111.151,-181.292,472.152,274.827,-101.163,-3946.040,-548.490,163.980
399,51691.695000,224.371,29.674,-97.619,469.413,283.407,-62.733,-3511.040,-593.490,0.980
400,51691.744000,191.753,43.756,-93.634,464.726,294.492,-41.903,-1900.040,-399.490,-112.020
401,51691.765000,124.541,116.181,-200.218,461.880,298.520,-33.974,-1001.040,-339.490,-266.020
402,51691.799000,362.749,134.287,54.786,449.425,313.651,-46.413,587.960,-577.490,-668.020
403,51691.839000,364.726,-5.532,-55.782,445.517,310.614,-50.411,-502.040,-607.490,70.980
404,51691.876000,312.340,-9.556,-20.918,444.680,324.175,-51.093,-489.040,-333.490,-365.020
405,51691.915000,230.301,78.963,-24.903,437.879,321.196,-51.173,-418.040,-273.490,-339.020
406,51691.958000,253.035,67.898,-24.903,432.158,330.741,-55.877,36.960,-127.490,-236.020
407,51692.13000,247.104,80.974,-20.918,428.366,339.376,-58.635,139.960,-87.490,-204.020
408,51692.36000,241.174,70.916,-33.868,425.462,339.326,-59.623,14.960,-183.490,-174.020
409,51692.55000,237.220,64.880,-49.805,422.566,340.247,-60.589,-145.040,-73.490,-196.020
410,51692.98000,251.058,66.892,-20.918,419.773,351.826,-62.299,137.960,-11.490,-180.020
411,51692.135000,229.313,94.051,-35.860,413.003,351.782,-61.334,-198.040,-36.490,-121.020
412,51692.178000,227.336,86.004,-50.802,415.952,356.664,-61.219,-511.040,-81.490,2.980
413,51692.220000,213.498,83.992,-20.918,416.916,353.998,-50.489,-578.040,48.510,-114.020
414,51692.264000,253.035,73.933,-34.864,410.207,358.938,-43.529,-310.040,46.510,-81.020
415,51692.296000,256.000,48.786,-28.887,410.270,363.943,-36.553,-384.040,147.510,-160.020
416,51692.340000,251.058,71.921,-21.914,409.379,369.068,-23.693,-341.040,215.510,-207.020
417,51692.399000,230.301,79.969,-23.907,407.474,370.214,-14.845,-294.040,200.510,-164.020
418,51692.413000,247.104,99.081,-11.953,407.543,375.284,-4.926,-390.040,300.510,-199.020
419,51692.436000,233.266,86.004,-17.930,401.728,371.603,6.748,-471.040,361.510,-195.020
420,51692.479000,231.290,94.051,0.000,397.948,377.714,21.586,-506.040,439.510,-196.020
421,51692.533000,228.324,83.992,11.953,395.183,387.804,40.436,-492.040,448.510,-243.020
422,51692.556000,245.127,77.957,16.934,389.445,391.912,53.264,-394.040,503.510,-282.020
423,51692.599000,236.232,63.874,15.938,380.765,392.086,65.017,-179.040,503.510,-327.020
424,51692.638000,243.151,103.104,27.891,368.312,402.837,74.056,-22.040,410.510,-350.020
425,51692.689000,263.907,94.051,49.805,367.331,400.929,75.973,-211.040,59.510,-192.020
426,51692.710000,243.151,174.523,11.953,367.401,407.768,78.086,-571.040,-161.490,-140.020
427,51692.740000,267.861,147.363,17.930,373.206,404.308,94.693,-1425.040,-453.490,-39.020
428,51692.786000,219.429,83.992,51.798,367.335,391.285,122.830,-1931.040,-214.490,-240.020
429,51692.819000,234.255,52.809,45.821,359.655,394.424,136.613,-285.040,120.510,-243.020
430,51692.863000,200.649,56.833,61.759,356.837,406.650,120.207,812.960,254.510,-150.020
431,51692.896000,181.869,112.157,62.755,351.047,408.492,118.275,206.960,80.510,-48.020
432,51692.939000,204.602,106.122,57.774,352.002,406.624,121.177,-549.040,-171.490,25.980
433,51692.978000,208.556,88.016,60.763,355.849,401.161,135.774,-938.040,-261.490,122.980
434,51693.21000,217.452,93.045,55.782,357.640,385.710,138.377,-503.040,-229.490,93.980
435,51693.41000,205.591,81.980,65.743,362.550,392.618,141.482,-43.040,-40.490,63.980
436,51693.78000,200.649,89.022,56.778,361.557,390.602,138.494,114.960,-23.490,141.980
437,51693.116000,198.672,101.092,46.817,366.345,385.774,137.416,-138.040,-120.490,165.980
438,51693.168000,186.811,84.998,43.829,369.235,383.925,140.323,-16.040,-94.490,158.980
439,51693.199000,196.695,93.045,27.891,373.959,373.206,136.172,62.960,-211.490,177.980
440,51693.275000,210.533,78.963,15.938,376.825,371.120,128.287,267.960,-242.490,178.980
441,51693.290000,259.954,270.083,206.195,384.592,376.740,115.679,550.960,-428.490,101.980
442,51693.314000,280.710,98.075,-40.840,384.609,379.545,110.838,-221.040,-387.490,-105.020
443,51693.335000,356.819,55.827,85.665,395.063,362.001,102.626,-574.040,-805.490,411.980
444,51693.370000,243.151,52.809,-12.949,400.840,360.914,94.768,-107.040,-593.490,92.980
445,51693.410000,290.595,72.927,-18.926,405.658,359.019,94.736,-386.040,-540.490,113.980
446,51693.453000,224.371,74.939,-6.973,406.622,360.755,84.970,275.960,-229.490,169.980
447,51693.496000,242.162,104.110,1.992,413.346,357.714,76.091,427.960,-123.490,148.980
448,51693.530000,237.220,79.969,-3.984,416.225,355.757,74.092,-97.040,-202.490,193.980
449,51693.570000,240.185,74.939,7.969,419.980,345.008,68.958,1.960,-188.490,168.980
450,51693.612000,233.266,77.957,0.996,419.027,347.782,63.134,85.960,-252.490,198.980
451,51693.654000,246.116,74.939,7.969,428.639,342.871,56.181,216.960,-280.490,206.980
452,51693.674000,240.185,62.868,-25.899,429.602,343.721,50.318,231.960,-210.490,215.980
453,51693.719000,246.116,65.886,-19.922,434.360,336.843,44.291,207.960,-93.490,172.980
454,51693.754000,242.162,82.986,-7.969,435.316,336.745,39.387,350.960,-72.490,175.980
455,51693.792000,250.069,61.862,-15.938,438.123,328.812,30.391,135.960,-103.490,208.980
456,51693.832000,256.988,33.697,-13.946,441.042,331.645,25.557,307.960,-81.490,201.980
457,51693.872000,245.127,79.969,-23.907,446.765,324.754,18.552,388.960,-112.490,189.980
458,51693.918000,252.046,51.804,-12.949,447.695,321.765,14.565,193.960,-127.490,212.980
459,51693.952000,247.104,56.833,-0.996,448.581,315.712,3.645,615.960,-206.490,144.980
460,51693.977000,243.151,80.974,-49.805,448.476,306.780,-5.380,8.960,-255.490,197.980
461,51694.12000,251.058,15.591,-28.887,453.349,310.689,-6.263,121.960,-45.490,246.980
462,51694.52000,256.988,78.963,-35.860,457.191,308.699,-10.222,613.960,-23.490,185.980
463,51694.92000,262.919,89.022,-53.790,462.890,298.939,-15.330,-178.040,20.510,331.980
464,51694.143000,282.687,-25.650,-51.798,463.781,289.412,-7.694,314.960,338.510,200.980
465,51694.187000,264.896,53.815,-46.817,464.739,288.451,-7.714,815.960,686.510,119.980
466,51694.214000,230.301,54.821,-69.728,465.703,286.669,-0.886,498.960,606.510,219.980
467,51694.260000,225.359,72.927,-134.475,468.622,287.733,2.085,566.960,535.510,138.980
468,51694.297000,223.382,73.933,-191.253,470.523,288.313,-16.530,1989.960,144.510,-102.020
469,51694.322000,206.579,70.916,-200.218,471.349,282.562,-57.844,2787.960,-100.490,-248.020
470,51694.355000,218.440,86.004,-194.241,464.391,276.305,-118.799,3516.960,-528.490,-367.020
471,51694.397000,224.371,94.051,-148.420,465.033,257.350,-186.884,3731.960,-773.490,-438.020
472,51694.437000,252.046,101.092,-106.584,461.781,231.950,-237.468,3796.960,-909.490,-325.020
473,51694.482000,265.884,101.092,-79.689,456.309,179.153,-297.491,3788.960,-867.490,-108.020
474,51694.527000,248.093,113.163,-51.798,445.901,113.040,-343.110,3102.960,-839.490,137.980
475,51694.597000,248.093,125.234,-25.899,434.723,62.883,-368.764,2236.960,-682.490,64.980
476,51694.612000,233.266,110.145,-52.794,423.828,40.989,-388.886,864.960,-627.490,-131.020
477,51694.619000,234.255,114.169,-41.837,416.097,44.517,-401.572,-129.040,-594.490,-248.020
478,51694.653000,236.232,48.786,-57.774,406.461,50.075,-409.315,-452.040,-483.490,-271.020
479,51694.693000,230.301,42.750,-71.720,403.548,49.939,-414.227,319.960,-346.490,-220.020
480,51694.739000,215.475,18.609,-47.813,400.483,34.269,-419.485,731.960,-94.490,-264.020
481,51694.859000,212.510,54.821,-20.918,408.095,19.911,-413.903,1106.960,356.510,-370.020
482,51694.947000,205.591,74.939,-9.961,421.612,14.498,-401.246,639.960,566.510,-450.020
483,51695.54000,199.660,72.927,-22.911,439.176,28.433,-393.055,-300.040,540.510,-472.020
484,51695.70000,236.232,25.650,-82.677,451.944,44.477,-375.020,-742.040,688.510,-510.020
485,51695.70000,260.942,-74.939,-139.455,455.858,48.463,-371.981,816.960,285.510,-344.020
486,51695.70000,220.417,-45.768,-107.580,468.372,38.294,-354.529,462.960,773.510,-426.020
487,51695.181000,395.367,194.640,-5.977,478.328,64.861,-342.150,-1491.040,271.510,-500.020
488,51695.181000,308.386,-56.833,-43.829,482.343,79.505,-339.855,-177.040,64.510,-129.020
489,51695.242000,220.417,74.939,-107.580,481.463,88.255,-338.682,-35.040,169.510,-402.020
490,51695.280000,251.058,47.780,-80.685,484.346,84.572,-330.913,253.960,316.510,-242.020
491,51695.307000,226.347,61.862,-80.685,487.260,85.593,-329.903,310.960,343.510,-163.020
492,51695.356000,236.232,63.874,-72.716,492.159,89.761,-319.013,-174.040,257.510,-94.020
493,51695.362000,225.359,46.774,-50.802,494.185,97.697,-311.968,-107.040,185.510,-84.020
494,51695.362000,237.220,41.745,-65.743,496.153,100.672,-309.936,10.960,101.510,-49.020
495,51695.546000,243.151,56.833,-67.735,498.048,96.786,-310.999,-26.040,64.510,-41.020
496,51695.643000,240.185,55.827,-69.728,500.004,98.768,-309.971,-63.040,48.510,12.980
497,51695.651000,242.162,44.762,-69.728,501.025,102.812,-303.014,49.960,78.510,38.980
498,51695.674000,246.116,55.827,-48.809,497.103,97.877,-305.093,188.960,74.510,72.980
499,51695.675000,248.093,43.756,-58.770,501.872,91.106,-306.214,121.960,38.510,113.980
500,51695.675000,230.301,65.886,-47.813,503.751,85.300,-306.339,148.960,-78.490,152.980
501,51695.675000,277.745,37.721,-49.805,496.885,76.410,-310.473,78.960,-129.490,251.980
502,51695.675000,233.266,42.750,-63.751,496.842,72.483,-312.522,181.960,-172.490,312.980
503,51695.683000,245.127,27.662,-55.782,494.779,60.663,-319.653,322.960,-228.490,330.980
504,51695.683000,278.734,50.798,-18.926,486.819,39.984,-329.936,353.960,-453.490,434.980
505,51695.698000,299.490,29.674,-4.981,479.015,37.535,-349.620,138.960,-962.490,546.980
506,51695.713000,337.050,4.527,-12.949,453.622,18.261,-376.579,542.960,-1305.490,404.980
507,51695.753000,293.560,90.028,-44.825,421.410,-5.049,-407.565,650.960,-1562.490,579.980
508,51695.843000,227.336,83.992,-165.354,381.605,-12.058,-444.089,-711.040,-1887.490,967.980
509,51695.877000,210.533,67.898,-34.864,338.267,14.939,-476.923,-1536.040,-1549.490,834.980
510,51695.908000,182.857,70.916,10.957,315.311,43.645,-485.160,-1677.040,-740.490,550.980
511,51695.921000,160.124,49.792,-16.934,316.617,77.721,-480.479,-1680.040,474.510,410.980
512,51695.955000,210.533,75.945,-38.848,340.203,110.525,-455.184,-1365.040,1294.510,281.980
513,51695.988000,220.417,115.175,-59.767,377.383,143.935,-408.273,-1745.040,1919.510,221.980
514,51696.20000,234.255,125.234,-83.673,412.700,182.419,-350.466,-2057.040,2303.510,202.980
515,51696.76000,269.838,133.281,-118.537,446.274,234.173,-261.968,-2685.040,2616.510,234.980
516,51696.103000,280.710,80.974,-192.249,467.924,251.985,-167.383,-3005.040,2435.510,559.980
517,51696.143000,260.942,110.145,-209.183,476.916,263.612,-83.750,-2993.040,1893.510,618.980
518,51696.180000,154.193,83.992,-212.171,474.147,269.257,-46.366,-2428.040,676.510,73.980
519,51696.223000,160.124,15.591,-196.233,475.300,282.492,-18.611,-1489.040,-170.490,-194.020
520,51696.241000,271.815,266.059,-71.720,461.831,294.528,-38.966,859.960,-1223.490,-839.020
521,51696.301000,366.703,-135.293,-47.813,458.867,292.148,-57.658,-596.040,-1150.490,77.980
522,51696.339000,321.236,-5.532,-22.911,451.157,298.524,-73.223,-275.040,-756.490,-391.020
523,51696.363000,259.954,63.874,-62.755,440.707,319.628,-79.641,-69.040,-525.490,-497.020
524,51696.403000,252.046,23.639,-41.837,435.869,321.329,-88.440,421.960,-189.490,-344.020
525,51696.465000,248.093,93.045,-44.825,431.976,321.075,-98.260,473.960,-58.490,-300.020
526,51696.495000,241.174,61.862,-54.786,425.256,326.791,-100.109,155.960,-8.490,-180.020
527,51696.521000,229.313,61.862,-29.883,422.333,324.800,-101.140,-122.040,14.510,-228.020
528,51696.540000,223.382,62.868,-60.763,415.664,334.529,-97.015,-139.040,12.510,-175.020
529,51696.591000,227.336,72.927,-34.864,419.597,340.456,-93.933,-161.040,130.510,-151.020
530,51696.639000,238.208,78.963,-22.911,417.713,344.450,-87.965,-160.040,133.510,-128.020
531,51696.663000,259.954,58.845,-23.907,416.736,342.586,-84.085,-363.040,105.510,-113.020
532,51696.708000,236.232,68.904,-51.798,414.890,349.578,-74.127,-437.040,177.510,-128.020
533,51696.744000,238.208,90.028,-16.934,416.818,346.016,-60.473,-398.040,398.510,-187.020
534,51696.781000,263.907,76.951,-21.914,412.121,356.993,-44.549,-408.040,470.510,-109.020
535,51696.825000,232.278,78.963,-3.984,410.252,360.254,-27.809,-552.040,457.510,-156.020
536,51696.861000,251.058,59.851,1.992,411.232,357.739,-10.211,-506.040,426.510,-200.020
537,51696.881000,241.174,87.010,53.790,406.474,363.733,-0.281,-240.040,228.510,-225.020
538,51696.924000,215.475,89.022,48.809,408.468,369.598,0.834,-488.040,-19.490,-186.020
539,51696.983000,250.069,91.033,-11.953,400.774,371.723,12.633,-548.040,-43.490,-131.020
540,51697.19000,229.313,93.045,14.942,401.795,375.767,19.589,-299.040,21.510,-152.020
541,51697.54000,239.197,89.022,2.988,399.920,380.732,25.579,-401.040,12.510,-109.020
542,51697.80000,271.815,48.786,-3.984,396.996,376.087,36.257,-265.040,297.510,-145.020
543,51697.130000,243.151,63.874,14.942,388.366,382.906,41.294,160.960,443.510,-273.020
544,51697.164000,236.232,86.004,35.860,384.520,384.853,43.290,83.960,196.510,-268.020
545,51697.189000,265.884,94.051,30.879,383.679,397.508,45.531,-268.040,-130.490,-172.020
546,51697.229000,238.208,121.210,-20.918,380.798,398.558,50.451,-646.040,-404.490,-193.020
547,51697.263000,304.432,113.163,16.934,381.701,391.793,51.284,-851.040,-472.490,-133.020
548,51697.311000,262.919,23.639,47.813,376.870,390.042,62.022,-626.040,149.510,-45.020
549,51697.343000,208.556,89.022,32.872,375.976,398.662,57.308,852.960,594.510,-24.020
550,51697.381000,210.533,129.257,38.848,368.263,402.362,52.471,598.960,341.510,-28.020
551,51697.424000,173.961,135.293,35.860,369.193,398.488,52.387,-337.040,14.510,-23.020
552,51697.461000,185.822,107.128,50.802,373.120,401.719,65.215,-1289.040,-287.490,95.980
553,51697.505000,196.695,83.992,51.798,375.882,384.552,77.589,-1101.040,-375.490,149.980
554,51697.524000,218.440,75.945,60.763,376.879,386.611,82.540,-400.040,-267.490,63.980
555,51697.561000,208.556,84.998,58.770,378.827,389.392,75.741,434.960,16.510,52.980
556,51697.605000,208.556,111.151,30.879,377.806,386.232,64.881,615.960,24.510,47.980
557,51697.643000,211.521,110.145,43.829,376.825,384.324,66.798,188.960,74.510,18.980
558,51697.690000,209.544,136.299,45.821,378.783,387.213,64.905,29.960,31.510,91.980
559,51697.723000,210.533,103.104,16.934,383.549,378.651,70.609,-734.040,-328.490,157.980
560,51697.765000,200.649,72.927,22.911,383.591,381.693,76.561,-666.040,-431.490,137.980
561,51697.803000,226.347,46.774,-9.961,396.995,366.399,81.153,-584.040,-571.490,275.980
562,51697.845000,221.405,238.900,182.288,395.059,367.243,76.264,529.960,-51.490,65.980
563,51697.871000,242.162,137.305,-39.844,397.899,363.151,65.392,540.960,-515.490,345.980
564,51697.904000,275.768,-0.503,-15.938,404.637,362.009,54.594,143.960,-602.490,355.980
565,51697.941000,265.884,57.839,-35.860,408.452,357.128,51.551,-301.040,-487.490,25.980
566,51697.983000,252.046,77.957,-21.914,411.365,359.011,47.677,84.960,-210.490,86.980
567,51698.21000,237.220,81.980,-15.938,413.263,356.916,39.789,365.960,-60.490,137.980
568,51698.59000,246.116,79.969,1.992,414.136,348.101,35.672,137.960,11.510,118.980
569,51698.100000,240.185,76.951,5.977,417.060,350.977,32.800,79.960,-39.490,141.980
570,51698.142000,243.151,64.880,0.996,421.885,349.148,35.712,31.960,-79.490,132.980
571,51698.157000,244.139,75.945,-1.992,420.912,349.958,28.863,116.960,-43.490,107.980
572,51698.198000,243.151,75.945,9.961,424.767,348.982,26.888,221.960,7.510,154.980
573,51698.237000,243.151,75.945,0.000,425.685,344.115,25.802,181.960,-6.490,242.980
574,51698.279000,245.127,68.904,5.977,430.434,336.266,19.753,127.960,-108.490,259.980
575,51698.327000,241.174,65.886,-2.988,435.226,332.365,16.735,135.960,-224.490,292.980
576,51698.362000,256.000,50.798,-14.942,442.880,325.450,7.772,114.960,-215.490,319.980
577,51698.400000,251.058,50.798,-0.996,443.784,320.454,0.798,338.960,-187.490,302.980
578,51698.440000,247.104,62.868,-13.946,446.560,308.703,-5.341,297.960,-219.490,323.980
579,51698.480000,251.058,60.857,-18.926,453.279,304.734,-12.280,168.960,-236.490,346.980
580,51698.497000,260.942,24.644,-30.879,458.031,296.928,-16.365,-72.040,-196.490,306.980
581,51698.537000,296.525,25.650,-23.907,459.886,289.137,-18.496,411.960,75.510,279.980
582,51698.575000,287.629,27.662,-48.809,459.910,292.007,-20.393,558.960,356.510,217.980
583,51698.615000,270.826,44.762,-57.774,466.576,280.487,-17.693,806.960,679.510,159.980
584,51698.655000,263.907,67.898,-95.626,465.660,284.490,-11.722,626.960,618.510,220.980
585,51698.695000,180.880,74.939,-273.930,467.508,276.635,-16.796,848.960,142.510,85.980
586,51698.735000,214.486,39.733,-201.214,468.447,278.133,-37.355,1555.960,-190.490,49.980
587,51698.779000,198.672,66.892,-192.249,475.083,274.251,-84.499,2989.960,-565.490,-124.020
588,51698.799000,233.266,103.104,-150.412,474.753,253.475,-146.742,3098.960,-904.490,-199.020
589,51698.862000,266.873,106.122,-120.529,470.393,217.041,-213.264,3202.960,-1101.490,-168.020
590,51698.878000,256.000,83.992,-99.611,459.246,177.757,-273.980,3398.960,-1109.490,-56.020
591,51698.942000,268.849,111.151,-86.661,453.859,129.297,-313.313,3556.960,-1120.490,118.980
592,51698.957000,250.069,127.246,-48.809,437.798,77.777,-354.697,2971.960,-1117.490,47.980
593,51699.45000,235.243,128.251,-6.973,427.601,29.528,-382.268,2070.960,-857.490,-84.020
594,51699.62000,249.081,131.269,21.914,417.678,6.801,-396.522,604.960,-673.490,-294.020
595,51699.84000,221.405,104.110,45.821,405.324,31.706,-405.802,-854.040,-450.490,-377.020
596,51699.143000,298.502,-18.609,10.957,414.353,63.937,-400.164,-1218.040,283.510,-395.020
597,51699.150000,252.046,-3.521,-14.942,427.979,70.131,-389.211,-77.040,565.510,-269.020
598,51699.177000,242.162,23.639,-30.879,435.734,71.242,-386.228,144.960,543.510,-368.020
599,51699.219000,219.429,16.597,-59.767,443.553,76.474,-372.366,124.960,488.510,-422.020
600,51699.280000,237.220,-34.703,-93.634,453.262,78.661,-365.432,386.960,419.510,-433.020
601,51699.310000,241.174,-93.045,-118.537,461.972,77.020,-355.644,767.960,397.510,-356.020
602,51699.360000,247.104,75.945,-69.728,475.454,68.630,-345.995,299.960,581.510,-394.020
603,51699.382000,284.664,125.234,-70.724,478.570,88.313,-334.764,-1036.040,431.510,-401.020
604,51699.420000,340.015,-7.544,-46.817,486.522,108.043,-323.522,-1022.040,281.510,-161.020
605,51699.450000,267.861,18.609,-51.798,487.563,114.913,-320.426,-576.040,224.510,-285.020
606,51699.480000,279.722,26.656,-49.805,486.726,126.726,-312.320,-269.040,244.510,-233.020
607,51699.520000,230.301,55.827,-66.739,488.769,136.583,-306.213,8.960,250.510,-138.020
608,51699.562000,253.035,37.721,-61.759,493.594,133.869,-299.398,123.960,268.510,-109.020
609,51699.597000,220.417,62.868,-53.790,497.463,133.022,-295.486,58.960,220.510,-109.020
610,51699.637000,230.301,54.821,-40.840,499.428,135.090,-290.533,-2.040,174.510,-49.020
611,51699.679000,236.232,62.868,-37.852,499.371,129.265,-290.662,1.960,-14.490,13.980
612,51699.722000,247.104,42.750,-47.813,497.550,140.897,-290.408,-28.040,-83.490,34.980
613,51699.768000,245.127,57.839,-52.794,496.493,132.991,-296.470,118.960,-127.490,61.980
614,51699.810000,239.197,52.809,-57.774,497.461,133.000,-296.467,201.960,-123.490,93.980
615,51699.827000,256.000,45.768,-63.751,493.495,125.002,-305.479,146.960,-130.490,140.980
616,51699.872000,222.394,63.874,-48.809,489.513,114.198,-309.650,228.960,-187.490,153.980
617,51699.900000,224.371,61.862,-59.767,492.382,111.271,-311.670,-7.040,-275.490,224.980
618,51699.953000,255.012,22.633,-49.805,486.557,111.020,-320.514,170.960,-365.490,242.980
619,51699.977000,237.220,57.839,-69.728,481.613,102.019,-330.531,39.960,-494.490,342.980
620,51700.87000,296.525,43.756,-41.837,473.632,80.261,-345.741,428.960,-497.490,358.980
621,51700.125000,308.386,22.633,-13.946,458.953,66.183,-361.775,523.960,-858.490,404.980
622,51700.144000,355.830,49.792,9.961,435.553,53.659,-391.522,945.960,-1364.490,243.980
623,51700.159000,300.479,73.933,-69.728,397.651,43.712,-430.068,423.960,-1841.490,34.980
624,51700.185000,248.093,101.092,-138.459,359.891,46.581,-459.504,-229.040,-1643.490,331.980
625,51700.202000,186.811,80.974,-1.992,348.424,62.800,-467.014,-953.040,-541.490,50.980
626,51700.244000,134.425,55.827,10.957,351.534,81.555,-453.842,-859.040,751.510,2.980
627,51700.284000,182.857,62.868,-48.809,376.151,120.258,-425.473,-1397.040,1397.510,59.980
628,51700.318000,249.081,106.122,-87.658,400.831,160.450,-373.534,-1905.040,1797.510,-39.020
629,51700.358000,240.185,103.104,-126.506,424.722,216.425,-309.479,-2836.040,1727.510,143.980
630,51700.400000,258.965,79.969,-158.381,438.774,254.011,-238.988,-3097.040,1484.510,275.980
631,51700.420000,243.151,74.939,-155.393,447.785,276.382,-196.304,-2483.040,1421.510,318.980
632,51700.462000,231.290,54.821,-154.397,456.602,275.755,-140.402,-1799.040,1251.510,379.980
633,51700.502000,224.371,74.939,-184.280,454.933,293.254,-93.926,-1548.040,717.510,278.980
634,51700.542000,159.135,37.721,-209.183,455.999,297.730,-67.346,-2063.040,-75.490,147.980
635,51700.582000,219.429,28.668,-117.541,452.205,301.942,-50.590,-1479.040,-447.490,-128.020
636,51700.620000,276.757,106.122,67.735,444.499,306.592,-56.387,-598.040,-857.490,-315.020
637,51700.659000,243.151,125.234,-35.860,440.675,313.156,-65.075,266.960,-536.490,-165.020
638,51700.702000,325.189,-34.703,-6.973,438.791,320.667,-75.699,311.960,-389.490,-131.020
639,51700.722000,251.058,65.886,-46.817,434.902,318.687,-75.752,-626.040,-359.490,-266.020
640,51700.763000,275.768,29.674,-39.844,432.118,331.237,-77.440,-230.040,-158.490,-240.020
641,51700.803000,239.197,91.033,-25.899,425.388,335.982,-79.310,175.960,-5.490,-228.020
642,51700.843000,237.220,68.904,-37.852,424.378,331.162,-77.458,-189.040,-65.490,-152.020
643,51700.883000,220.417,79.969,-40.840,420.626,342.817,-75.246,-109.040,34.510,-169.020
644,51700.923000,215.475,77.957,-38.848,419.682,344.793,-73.243,-186.040,94.510,-138.020
645,51700.959000,230.301,83.992,-28.887,416.786,344.829,-70.306,-321.040,92.510,-137.020
646,51700.999000,273.792,48.786,-18.926,418.819,351.946,-56.415,-336.040,150.510,-144.020
647,51701.39000,242.162,69.910,-23.907,413.929,345.232,-50.690,-247.040,165.510,-174.020
648,51701.62000,261.931,63.874,-4.981,413.114,359.894,-45.463,-215.040,104.510,-119.020
649,51701.102000,237.220,79.969,-16.934,409.260,360.007,-38.604,-383.040,124.510,-197.020
650,51701.142000,222.394,103.104,-19.922,409.358,367.105,-24.717,-289.040,240.510,-166.020
651,51701.182000,215.475,66.892,-19.922,405.499,367.175,-19.820,-256.040,319.510,-163.020
652,51701.222000,258.965,96.063,-12.949,401.619,363.513,-8.142,-341.040,433.510,-174.020
653,51701.258000,246.116,48.786,-14.942,400.734,368.703,7.662,-482.040,500.510,-225.020
654,51701.298000,251.058,97.069,14.942,395.069,379.671,23.584,-113.040,627.510,-293.020
655,51701.343000,258.965,68.904,4.981,390.327,385.816,40.382,-499.040,526.510,-274.020
656,51701.363000,256.000,106.122,55.782,383.568,384.994,50.156,-144.040,435.510,-337.020
657,51701.408000,274.780,86.004,44.825,378.815,391.916,58.145,-349.040,185.510,-218.020
658,51701.443000,280.710,126.240,39.844,375.964,395.900,64.111,-567.040,86.510,-193.020
659,51701.484000,253.035,150.381,52.794,368.277,398.975,74.951,-792.040,79.510,-308.020
660,51701.524000,225.359,72.927,66.739,364.411,397.211,84.710,-519.040,158.510,-259.020
661,51701.560000,192.741,66.892,59.767,361.619,407.927,87.884,123.960,92.510,-170.020
662,51701.603000,157.158,64.880,46.817,354.772,400.979,83.793,-315.040,-81.490,-62.020
663,51701.643000,170.996,63.874,47.813,359.626,399.429,99.459,-993.040,-206.490,121.980
664,51701.684000,190.764,67.898,45.821,362.487,392.899,110.107,-994.040,-200.490,206.980
665,51701.704000,201.637,93.045,45.821,365.356,388.202,115.893,-510.040,-186.490,202.980
666,51701.744000,233.266,98.075,62.755,372.121,387.319,116.868,81.960,-151.490,149.980
667,51701.779000,216.463,130.263,69.728,374.002,383.303,109.919,438.960,-88.490,119.980
668,51701.825000,227.336,137.305,65.743,376.849,380.160,98.087,65.960,-201.490,78.980
669,51701.862000,213.498,122.216,64.747,379.806,385.107,101.145,-136.040,-138.490,47.980
670,51701.902000,224.371,116.181,49.805,376.809,374.486,104.826,-361.040,-250.490,61.980
671,51701.940000,219.429,97.069,55.782,385.593,382.359,105.999,-288.040,-198.490,8.980
672,51701.982000,221.405,113.163,48.809,384.581,377.517,106.871,-286.040,-210.490,3.980
673,51702.3000,212.510,83.992,17.930,386.473,372.725,108.729,-449.040,-364.490,18.980
674,51702.49000,207.568,81.980,32.872,389.357,371.696,104.790,-333.040,-529.490,5.980
675,51702.84000,203.614,21.627,-11.953,396.102,370.618,96.935,37.960,-541.490,90.980
676,51702.119000,278.734,122.216,130.490,404.739,366.518,83.133,554.960,-384.490,183.980
677,51702.160000,319.259,-0.503,-78.693,399.924,370.203,76.340,245.960,187.510,-162.020
678,51702.203000,389.436,33.697,43.829,406.582,361.251,63.407,477.960,-469.490,470.980
679,51702.244000,213.498,112.157,0.000,409.429,358.108,51.575,-228.040,-412.490,27.980
680,51702.284000,254.023,70.916,-8.965,411.386,360.975,48.701,-158.040,-372.490,95.980
681,51702.323000,237.220,94.051,5.977,419.108,361.762,36.967,536.960,-242.490,153.980
682,51702.347000,252.046,70.916,2.988,420.909,349.052,31.785,-7.040,-309.490,158.980
683,51702.383000,246.116,69.910,-5.977,418.935,347.782,19.004,323.960,-316.490,157.980
684,51702.424000,236.232,81.980,-21.914,423.754,346.772,15.069,235.960,-301.490,185.980
685,51702.459000,244.139,78.963,-5.977,421.782,344.639,7.172,68.960,-284.490,192.980
686,51702.507000,242.162,60.857,-30.879,428.510,341.641,0.255,-7.040,-243.490,195.980
687,51702.543000,247.104,71.921,-19.922,432.333,336.824,0.157,82.960,-134.490,220.980
688,51702.588000,255.012,67.898,-11.953,435.095,324.059,-7.966,170.960,-83.490,251.980
689,51702.623000,249.081,65.886,-23.907,438.988,326.966,-9.855,32.960,-30.490,268.980
690,51702.663000,245.127,53.815,-15.938,442.849,326.918,-13.770,234.960,-7.490,227.980
691,51702.683000,257.977,61.862,-35.860,445.699,321.164,-11.931,279.960,35.510,226.980
692,51702.724000,240.185,47.780,-7.969,447.595,318.162,-16.897,333.960,28.510,173.980
693,51702.765000,246.116,54.821,-22.911,449.387,305.366,-26.003,344.960,12.510,204.980
694,51702.807000,252.046,39.733,-21.914,450.354,305.375,-26.001,351.960,59.510,233.980
695,51702.843000,258.965,43.756,-9.961,456.133,303.425,-28.974,427.960,87.510,247.980
696,51702.883000,246.116,73.933,-8.965,458.954,296.507,-35.986,294.960,-38.490,231.980
697,51702.924000,280.710,29.674,-2.988,459.790,283.808,-40.189,200.960,-108.490,300.980
698,51702.964000,275.768,22.633,-57.774,466.564,283.896,-39.192,147.960,95.510,341.980
699,51702.984000,282.687,0.503,-70.724,471.257,268.474,-36.582,899.960,744.510,291.980
700,51703.20000,267.861,100.086,-33.868,468.373,268.618,-28.740,1072.960,1088.510,167.980
701,51703.60000,185.822,94.051,-94.630,472.253,266.995,-16.019,518.960,863.510,302.980
702,51703.100000,214.486,53.815,-333.697,478.962,261.171,-19.076,1532.960,108.510,-57.020
703,51703.140000,213.498,46.774,-173.323,480.781,258.320,-61.304,2780.960,-225.490,-273.020
704,51703.180000,195.707,48.786,-171.331,481.638,255.504,-101.572,3919.960,-471.490,-422.020
705,51703.223000,240.185,113.163,-147.424,479.375,235.615,-166.742,4042.960,-874.490,-474.020
706,51703.264000,246.116,96.063,-103.595,480.936,210.909,-232.011,3479.960,-1038.490,-290.020
707,51703.305000,276.757,109.139,-45.821,475.590,169.007,-281.985,2787.960,-1001.490,-136.020
708,51703.385000,269.838,95.057,-33.868,468.318,126.288,-324.136,2342.960,-951.490,60.980
709,51703.428000,262.919,94.051,-17.930,460.033,76.958,-357.611,2073.960,-794.490,89.980
710,51703.444000,248.093,114.169,6.973,449.955,38.655,-374.173,1917.960,-652.490,7.980
711,51703.458000,224.371,104.110,19.922,444.920,19.104,-378.540,1360.960,-318.490,-178.020
712,51703.658000,216.463,99.081,90.646,448.587,-1.290,-380.946,1237.960,120.510,-314.020
713,51703.685000,192.741,89.022,71.720,465.067,-1.690,-362.288,57.960,892.510,-407.020
714,51703.708000,225.359,-50.798,-202.210,485.501,5.800,-339.523,-145.040,835.510,-464.020
715,51703.708000,260.942,60.857,-57.774,498.106,4.434,-318.933,644.960,823.510,-539.020
716,51703.708000,267.861,153.399,0.996,514.803,26.363,-299.779,-497.040,699.510,-666.020
717,51703.708000,420.077,-98.075,8.965,521.749,43.063,-293.509,-1063.040,273.510,-363.020
718,51703.722000,295.537,-52.809,-47.813,518.058,61.472,-293.108,-583.040,-9.490,-422.020
719,51703.755000,231.290,68.904,-54.786,514.322,74.163,-287.931,-48.040,223.510,-481.020
720,51703.782000,256.988,39.733,-62.755,518.083,61.709,-282.316,460.960,297.510,-221.020
721,51703.814000,229.313,65.886,-40.840,522.098,75.468,-276.118,250.960,297.510,-230.020
722,51703.868000,254.023,40.739,-41.837,524.098,80.514,-268.157,80.960,121.510,-151.020
723,51703.890000,220.417,64.880,-35.860,524.063,77.537,-271.165,201.960,66.510,-139.020
724,51703.930000,246.116,69.910,-38.848,526.982,79.485,-272.096,207.960,-19.490,-50.020
725,51704.10000,241.174,62.868,-62.755,524.040,75.552,-273.170,-117.040,-90.490,10.980
726,51704.150000,256.000,43.756,-60.763,522.119,77.431,-275.094,101.960,62.510,6.980
727,51704.217000,234.255,55.827,-41.837,524.091,80.449,-271.100,244.960,68.510,29.980
728,51704.277000,241.174,50.798,-46.817,524.023,73.631,-272.232,77.960,-15.490,114.980
729,51704.287000,256.000,48.786,-35.860,524.903,64.882,-273.405,74.960,-73.490,115.980
730,51704.288000,240.185,44.762,-45.821,520.015,60.822,-279.389,79.960,-179.490,168.980
731,51704.293000,262.919,29.674,-41.837,517.996,53.834,-287.394,195.960,-297.490,216.980
732,51704.302000,235.243,52.809,-34.864,511.206,53.596,-295.259,111.960,-531.490,283.980
733,51704.317000,276.757,30.680,-54.786,505.198,35.740,-310.378,139.960,-553.490,392.980
734,51704.325000,304.432,32.692,-22.911,496.358,25.580,-327.293,441.960,-657.490,426.980
735,51704.477000,327.166,16.597,3.984,476.621,-10.035,-349.700,622.960,-1052.490,491.980
736,51704.492000,304.432,84.998,-25.899,452.365,-10.939,-380.172,322.960,-1237.490,573.980
737,51704.499000,244.139,118.193,-93.634,431.829,-29.972,-398.289,-228.040,-1389.490,657.980
738,51704.508000,190.764,116.181,-121.525,398.069,-13.495,-428.395,-1165.040,-1579.490,694.980
739,51704.515000,205.591,58.845,-16.934,360.509,10.668,-460.300,-1681.040,-1143.490,542.980
740,51704.554000,206.579,67.898,35.860,349.103,31.871,-461.815,-1298.040,-46.490,419.980
741,51704.588000,198.672,96.063,6.973,362.966,61.474,-445.438,-1031.040,836.510,303.980
742,51704.602000,219.429,133.281,-26.895,392.449,101.390,-408.205,-2136.040,1731.510,153.980
743,51704.661000,263.907,147.363,-74.708,431.939,169.231,-340.912,-2996.040,2174.510,71.980
744,51704.695000,279.722,104.110,-123.518,447.944,211.409,-283.064,-3881.040,2310.510,243.980
745,51704.731000,295.537,82.986,-147.424,467.856,249.569,-189.012,-3494.040,2244.510,543.980
746,51704.769000,268.849,128.251,-215.160,475.869,260.194,-106.383,-2727.040,1729.510,326.980
747,51704.808000,137.390,63.874,-255.004,468.320,269.870,-60.093,-2365.040,393.510,80.980
748,51704.850000,208.556,37.721,-178.303,465.581,282.851,-42.159,-1785.040,-453.490,-185.020
749,51704.888000,160.124,-18.609,-139.455,458.895,290.660,-37.097,-792.040,-463.490,-153.020
750,51704.911000,362.749,130.263,9.961,451.170,296.884,-59.530,919.960,-746.490,-578.020
751,51704.950000,329.143,87.010,9.961,448.302,303.350,-73.122,440.960,-537.490,-195.020
752,51704.988000,321.236,-82.986,-35.860,443.465,304.188,-77.036,-566.040,-372.490,-234.020
753,51705.30000,262.919,45.768,-36.856,434.893,317.716,-75.773,-94.040,-143.490,-437.020
754,51705.74000,243.151,62.868,-30.879,431.070,322.533,-75.674,-157.040,-37.490,-313.020
755,51705.111000,228.324,95.057,-11.953,429.170,325.491,-72.671,-181.040,83.510,-194.020
756,51705.149000,245.127,48.786,-16.934,424.370,327.559,-64.790,-356.040,28.510,-143.020
757,51705.191000,240.185,105.116,-13.946,427.300,329.615,-60.815,-478.040,-28.490,-219.020
758,51705.231000,254.023,68.904,-12.949,420.623,337.510,-51.828,-831.040,-10.490,-187.020
759,51705.258000,250.069,58.845,-4.981,423.570,340.602,-44.889,-190.040,0.510,-217.020
760,51705.288000,245.127,92.039,10.957,418.871,354.211,-41.654,-414.040,-95.490,-167.020
761,51705.331000,235.243,69.910,2.988,414.007,349.504,-32.943,-637.040,-207.490,-99.020
762,51705.378000,256.988,69.910,0.996,413.998,348.533,-32.965,-222.040,-95.490,-140.020
763,51705.411000,229.313,96.063,-12.949,413.162,362.116,-32.665,-177.040,-138.490,-113.020
764,51705.449000,254.023,59.851,-0.996,409.273,359.252,-28.814,-283.040,-68.490,-118.020
765,51705.493000,238.208,72.927,9.961,410.238,359.240,-29.793,-176.040,-45.490,-149.020
766,51705.530000,254.023,91.033,-15.938,404.525,367.986,-26.669,-216.040,24.510,-185.020
767,51705.554000,232.278,80.974,-0.996,403.562,367.135,-20.806,-355.040,-14.490,-135.020
768,51705.591000,243.151,94.051,-7.969,395.904,374.006,-13.805,-382.040,56.510,-181.020
769,51705.633000,229.313,84.998,5.977,396.965,381.955,-5.781,-526.040,0.510,-162.020
770,51705.670000,243.151,81.980,-9.961,392.127,380.139,2.014,-296.040,119.510,-206.020
771,51705.714000,244.139,74.939,-1.992,394.118,385.098,6.051,-194.040,193.510,-251.020
772,51705.756000,244.139,92.039,21.914,384.497,389.923,9.080,25.960,248.510,-304.020
773,51705.789000,229.313,94.051,20.918,378.674,387.040,12.926,-105.040,148.510,-324.020
774,51705.833000,265.884,98.075,26.895,373.970,399.722,18.101,-152.040,-108.490,-179.020
775,51705.870000,286.641,95.057,-13.946,370.120,402.511,14.232,-235.040,-236.490,-167.020
776,51705.889000,247.104,195.646,-56.778,369.149,399.826,24.958,-1028.040,-318.490,123.980
777,51705.931000,273.792,23.639,35.860,366.279,397.468,51.377,-2783.040,-75.490,-122.020
778,51705.970000,219.429,58.845,21.914,368.254,396.990,72.945,-434.040,455.510,-153.020
779,51706.13000,187.799,115.175,9.961,359.530,395.870,69.960,415.960,272.510,-166.020
780,51706.69000,182.857,120.204,22.911,349.981,409.303,67.296,109.960,86.510,-274.020
781,51706.110000,190.764,108.134,38.848,353.914,415.230,70.378,-477.040,-226.490,-187.020
782,51706.135000,191.753,78.963,22.911,355.737,400.967,82.814,-878.040,-267.490,70.980
783,51706.169000,210.533,67.898,55.782,353.787,398.165,88.631,-564.040,-174.490,89.980
784,51706.194000,200.649,104.110,63.751,357.655,397.296,91.562,112.960,-41.490,38.980
785,51706.231000,216.463,119.198,39.844,361.527,399.125,84.746,71.960,-199.490,139.980
786,51706.269000,219.429,88.016,41.837,372.141,396.316,84.706,-381.040,-315.490,137.980
787,51706.313000,225.359,129.257,56.778,373.058,389.680,91.426,-899.040,-422.490,321.980
788,51706.350000,243.151,75.945,38.848,384.536,373.569,103.841,-1115.040,-468.490,337.980
789,51706.400000,214.486,103.104,22.911,388.337,365.020,110.524,-822.040,-542.490,423.980
790,51706.431000,208.556,254.994,47.813,397.887,352.471,109.285,-401.040,-381.490,300.980
791,51706.493000,318.270,42.750,37.852,400.844,359.188,104.537,-231.040,-580.490,-66.020
792,51706.518000,286.641,-22.633,22.911,412.296,345.472,93.469,337.960,-563.490,244.980
793,51706.530000,262.919,105.116,-31.875,414.224,349.827,70.034,527.960,-442.490,-17.020
794,51706.573000,232.278,74.939,-17.930,412.257,346.853,68.002,-340.040,-482.490,74.980
795,51706.610000,259.954,58.845,-5.977,415.129,345.716,59.157,447.960,-300.490,95.980
796,51706.655000,232.278,96.063,-27.891,419.982,350.315,45.540,377.960,-301.490,119.980
797,51706.699000,254.023,61.862,-14.942,417.937,340.437,38.452,318.960,-236.490,125.980
798,51706.730000,245.127,67.898,-26.895,420.839,343.097,25.769,534.960,-222.490,212.980
799,51706.780000,240.185,86.004,-32.872,424.623,337.029,12.893,447.960,-152.490,221.980
800,51706.819000,231.290,79.969,-53.790,430.421,337.021,9.963,178.960,-11.490,231.980
801,51706.833000,233.266,71.921,-39.844,430.397,335.036,7.958,374.960,86.510,210.980
802,51706.873000,237.220,70.916,-26.895,434.213,330.155,4.916,113.960,99.510,201.980
803,51706.910000,258.965,49.792,-31.875,440.907,321.548,7.681,-4.040,81.510,211.980
804,51706.954000,250.069,60.857,-38.848,436.001,313.799,10.440,113.960,175.510,199.980
805,51706.990000,250.069,58.845,-31.875,442.752,311.901,9.432,270.960,324.510,199.980
806,51707.34000,244.139,59.851,-12.949,442.780,313.929,13.400,289.960,306.510,208.980
807,51707.71000,245.127,59.851,-4.981,449.507,309.163,14.289,111.960,184.510,286.980
808,51707.109000,241.174,43.756,5.977,450.348,296.508,12.048,340.960,85.510,315.980
809,51707.149000,256.988,53.815,-1.992,455.112,289.694,8.965,245.960,-19.490,336.980
810,51707.170000,242.162,22.633,8.965,457.984,287.673,4.023,349.960,-153.490,280.980
811,51707.204000,265.884,54.821,-20.918,459.809,277.832,-3.056,60.960,-280.490,254.980
812,51707.244000,288.618,39.733,-31.875,464.675,281.676,-6.883,-116.040,-152.490,340.980
813,51707.284000,311.351,0.503,-57.774,469.446,274.043,-3.120,743.960,589.510,249.980
814,51707.324000,250.069,67.898,-43.829,469.361,265.305,-3.314,1069.960,581.510,266.980
815,51707.364000,200.649,125.234,-96.623,471.307,265.432,1.596,166.960,454.510,156.980
816,51707.405000,221.405,38.727,-194.241,478.036,263.319,-9.224,1347.960,149.510,-46.020
817,51707.469000,203.614,67.898,-150.412,478.041,268.648,-31.661,2836.960,162.510,-238.020
818,51707.475000,227.336,91.033,-157.385,479.848,264.805,-74.892,3504.960,39.510,-338.020
819,51707.504000,220.417,109.139,-105.588,481.562,251.254,-118.338,3200.960,-162.490,-376.020
820,51707.560000,258.965,95.057,-78.693,483.282,238.651,-162.744,2614.960,-488.490,-302.020
821,51707.584000,256.988,75.945,-54.786,481.100,223.056,-209.186,2315.960,-646.490,-231.020
822,51707.630000,281.699,81.980,-33.868,481.803,203.799,-246.877,1509.960,-885.490,-121.020
823,51707.672000,263.907,69.910,1.992,470.842,178.626,-283.743,1013.960,-956.490,-114.020
824,51707.757000,257.977,58.845,22.911,466.913,176.258,-301.456,848.960,-715.490,-144.020
825,51707.773000,249.081,56.833,25.899,457.015,157.286,-321.511,892.960,-505.490,-221.020
826,51707.798000,223.382,64.880,20.918,453.010,147.151,-339.396,907.960,-308.490,-226.020
827,51707.817000,224.371,65.886,11.953,450.975,139.128,-350.366,638.960,-183.490,-227.020
828,51707.848000,223.382,68.904,6.973,450.900,132.246,-354.441,596.960,-75.490,-276.020
829,51707.884000,229.313,42.750,14.942,452.840,132.308,-352.475,151.960,126.510,-370.020
830,51707.924000,227.336,3.521,23.907,455.803,138.205,-350.376,204.960,415.510,-338.020
831,51707.970000,189.776,15.591,-199.222,465.460,134.610,-341.610,136.960,366.510,-264.020
832,51708.15000,291.583,-41.745,-64.747,467.487,144.315,-342.371,-109.040,-36.490,-198.020
833,51708.50000,240.185,208.723,-38.848,473.378,151.362,-333.376,-454.040,224.510,-421.020
834,51708.90000,473.452,-99.081,-46.817,479.297,162.206,-328.219,-632.040,103.510,-18.020
835,51708.110000,239.197,67.898,-84.669,472.572,166.110,-324.224,71.960,201.510,-331.020
836,51708.150000,253.035,57.839,-86.661,482.267,166.398,-315.371,139.960,382.510,-120.020
837,51708.190000,234.255,69.910,-53.790,482.231,161.652,-310.574,671.960,467.510,-14.020
838,51708.257000,219.429,104.110,-57.774,488.993,158.978,-302.773,199.960,328.510,24.980
839,51708.283000,217.452,41.745,-64.747,489.955,157.175,-296.927,-127.040,267.510,19.980
840,51708.323000,218.440,75.945,-56.778,494.798,156.402,-290.070,-53.040,278.510,-29.020
841,51708.360000,252.046,36.715,-49.805,502.603,161.505,-282.095,-227.040,186.510,66.980
842,51708.400000,257.977,53.815,-52.794,502.657,166.424,-279.043,-168.040,119.510,10.980
843,51708.427000,250.069,24.644,-52.794,502.685,168.452,-275.076,-176.040,162.510,19.980
844,51708.447000,240.185,50.798,-37.852,507.479,163.688,-273.210,352.960,194.510,5.980
845,51708.488000,232.278,81.980,-34.864,509.326,154.062,-270.478,96.960,85.510,32.980
846,51708.577000,236.232,52.809,-34.864,506.426,154.056,-269.503,-119.040,-56.490,67.980
847,51708.604000,230.301,71.921,-37.852,502.569,155.895,-272.413,-240.040,-191.490,101.980
848,51708.633000,259.954,22.633,-51.798,507.444,160.710,-276.218,60.960,-162.490,161.980
849,51708.654000,246.116,65.886,-37.852,506.348,148.899,-283.347,267.960,-169.490,132.980
850,51708.695000,258.965,35.709,-47.813,506.329,147.842,-287.293,265.960,-192.490,228.980
851,51708.730000,263.907,60.857,0.000,505.146,127.272,-295.598,451.960,-313.490,306.980
852,51708.750000,269.838,62.868,2.988,494.393,119.941,-315.396,210.960,-774.490,418.980
853,51708.792000,283.676,34.703,-2.988,476.775,104.604,-343.232,269.960,-1332.490,380.980
854,51708.855000,332.108,53.815,-20.918,450.491,95.742,-381.730,636.960,-1478.490,299.980
855,51708.872000,287.629,74.939,-85.665,418.430,88.850,-416.274,-33.040,-1730.490,454.980
856,51708.907000,258.965,67.898,-5.977,381.651,91.858,-439.821,-410.040,-1578.490,462.980
857,51708.947000,193.730,54.821,15.938,370.148,104.215,-446.435,-1141.040,-377.490,177.980
858,51708.987000,190.764,52.809,-1.992,376.307,136.720,-427.068,-1490.040,417.510,79.980
859,51709.34000,220.417,31.686,-47.813,393.219,178.325,-395.709,-1330.040,1222.510,198.980
860,51709.69000,230.301,57.839,-60.763,419.639,199.054,-347.140,-1025.040,1660.510,262.980
861,51709.95000,245.127,102.098,-88.654,443.091,211.211,-289.943,-1152.040,2017.510,235.980
862,51709.132000,246.116,109.139,-111.564,460.009,244.941,-219.531,-1749.040,2061.510,107.980
863,51709.167000,254.023,82.986,-157.385,465.985,253.692,-177.156,-2180.040,1768.510,173.980
864,51709.207000,224.371,78.963,-163.362,472.059,268.656,-116.991,-2281.040,1107.510,300.980
865,51709.250000,216.463,64.880,-179.300,471.261,275.551,-67.806,-2594.040,474.510,203.980
866,51709.290000,179.892,6.538,-189.261,470.338,275.088,-44.283,-2044.040,-333.490,67.980
867,51709.333000,225.359,14.585,-81.681,464.642,283.122,-29.407,-1204.040,-174.490,-137.020
868,51709.369000,222.394,93.045,-57.774,458.909,291.674,-35.113,831.960,-51.490,-344.020
869,51709.389000,375.598,48.786,-1.992,456.063,300.987,-51.583,742.960,-422.490,-402.020
870,51709.430000,263.907,7.544,-12.949,450.250,301.729,-59.424,40.960,-494.490,-310.020
871,51709.470000,275.768,43.756,-28.887,441.592,307.405,-62.259,-475.040,-435.490,-382.020
872,51709.510000,254.023,48.786,-31.875,432.929,313.016,-68.036,-136.040,-331.490,-329.020
873,51709.549000,230.301,76.951,-34.864,427.244,325.559,-68.751,-162.040,-238.490,-266.020
874,51709.590000,214.486,111.151,-27.891,425.352,330.351,-70.610,-500.040,-198.490,-256.020
875,51709.630000,280.710,3.521,-50.802,422.489,332.459,-61.743,-834.040,-117.490,-69.020
876,51709.670000,253.035,63.874,-14.942,419.633,336.400,-57.739,-178.040,102.510,-284.020
877,51709.708000,241.174,72.927,-20.918,419.715,344.232,-54.623,-354.040,13.510,-193.020
878,51709.730000,232.278,84.998,-16.934,415.854,344.280,-50.707,-302.040,-0.490,-197.020
879,51709.768000,244.139,92.039,-15.938,411.066,347.340,-41.823,-391.040,-1.490,-137.020
880,51709.810000,246.116,53.815,-19.922,408.274,358.056,-38.649,-161.040,93.510,-194.020
881,51709.852000,241.174,83.992,-3.984,407.289,355.242,-33.811,-124.040,107.510,-277.020
882,51709.902000,239.197,76.951,-38.848,402.529,362.098,-28.765,-207.040,102.510,-202.020
883,51709.927000,248.093,80.974,-14.942,399.690,367.960,-25.699,-187.040,315.510,-219.020
884,51709.970000,242.162,87.010,-20.918,399.777,374.950,-16.718,-232.040,292.510,-172.020
885,51710.7000,235.243,86.004,-14.942,393.055,377.128,-2.954,-461.040,334.510,-247.020
886,51710.27000,226.347,99.081,19.922,392.183,384.195,9.949,-464.040,263.510,-200.020
887,51710.72000,236.232,98.075,1.992,387.358,382.508,23.631,-490.040,341.510,-203.020
888,51710.112000,245.127,77.957,1.992,383.536,384.692,36.420,-347.040,418.510,-231.020
889,51710.148000,234.255,89.022,22.911,377.853,393.719,52.299,-280.040,470.510,-284.020
890,51710.192000,239.197,76.951,29.883,374.071,400.693,62.252,-314.040,430.510,-321.020
891,51710.229000,270.826,115.175,48.809,368.306,403.657,67.209,-49.040,305.510,-286.020
892,51710.267000,261.931,118.193,16.934,366.349,399.905,73.987,-360.040,10.510,-172.020
893,51710.314000,246.116,122.216,6.973,357.717,406.703,78.042,-360.040,8.510,-193.020
894,51710.353000,243.151,146.358,26.895,355.788,404.980,88.787,-917.040,-116.490,-158.020
895,51710.368000,186.811,147.363,30.879,359.707,405.492,110.381,-1626.040,-236.490,-144.020
896,51710.410000,210.533,58.845,54.786,361.626,400.074,127.917,-1182.040,-375.490,-113.020
897,51710.450000,211.521,58.845,61.759,359.607,391.317,127.718,-119.040,-102.490,-86.020
898,51710.489000,204.602,106.122,69.728,358.637,392.171,122.832,35.960,-98.490,-13.020
899,51710.532000,203.614,107.128,79.689,358.689,396.184,128.805,-586.040,-172.490,25.980
900,51710.573000,211.521,94.051,80.685,363.463,387.709,138.433,-678.040,-219.490,46.980
901,51710.614000,208.556,83.992,82.677,366.309,381.027,142.214,-401.040,-157.490,74.980
902,51710.648000,210.533,83.992,68.732,365.327,380.004,140.228,-59.040,-38.490,68.980
903,51710.674000,210.533,104.110,67.735,370.174,381.022,140.260,-33.040,-60.490,121.980
904,51710.709000,206.579,114.169,57.774,369.175,376.309,147.018,-415.040,-167.490,157.980
905,51710.750000,213.498,98.075,55.782,374.906,367.736,151.743,-626.040,-344.490,131.980
906,51710.793000,201.637,88.016,36.856,383.570,361.240,161.424,-785.040,-506.490,184.980
907,51710.833000,204.602,54.821,16.934,394.061,346.694,157.201,-661.040,-626.490,242.980
908,51710.873000,240.185,140.322,147.424,393.125,352.273,146.535,781.960,-133.490,-53.020
909,51710.912000,283.676,119.198,-9.961,396.972,355.612,120.140,1496.960,-430.490,291.980
910,51710.957000,245.127,75.945,-25.899,403.666,350.521,106.312,748.960,-485.490,295.980
911,51710.990000,281.699,64.880,7.969,405.577,352.072,87.717,-147.040,-769.490,128.980
912,51711.15000,254.023,63.874,-28.887,411.380,354.761,75.041,138.960,-644.490,154.980
913,51711.50000,245.127,78.963,-16.934,411.295,348.655,62.156,440.960,-446.490,136.980
914,51711.90000,250.069,81.980,-18.926,420.902,344.586,49.338,409.960,-242.490,150.980
915,51711.130000,234.255,81.980,-21.914,419.964,349.258,41.594,234.960,-219.490,118.980
916,51711.177000,243.151,74.939,-10.957,422.827,346.266,36.631,57.960,-174.490,148.980
917,51711.223000,239.197,70.916,-17.930,424.743,345.228,32.689,193.960,-200.490,141.980
918,51711.252000,238.208,80.974,-17.930,425.615,337.276,23.688,63.960,-303.490,119.980
919,51711.297000,250.069,77.957,-34.864,428.492,335.298,20.708,-37.040,-260.490,146.980
920,51711.311000,248.093,56.833,-42.833,429.429,333.258,15.762,165.960,-53.490,119.980
921,51711.357000,239.197,69.910,-31.875,432.322,333.200,11.844,298.960,-9.490,116.980
922,51711.392000,249.081,74.939,-20.918,436.107,324.500,11.659,62.960,2.510,161.980
923,51711.428000,247.104,59.851,-26.895,437.089,326.408,9.742,212.960,23.510,200.980
924,51711.468000,242.162,64.880,-16.934,441.870,321.514,5.721,231.960,6.510,225.980
925,51711.508000,244.139,61.862,-21.914,443.774,318.599,4.679,183.960,-34.490,253.980
926,51711.548000,240.185,54.821,-24.903,450.498,314.674,-0.297,155.960,-50.490,251.980
927,51711.588000,251.058,46.774,-12.949,453.330,308.747,-6.306,368.960,-135.490,275.980
928,51711.631000,255.012,51.804,-50.802,454.126,292.144,-11.577,57.960,-184.490,354.980
929,51711.652000,246.116,37.721,-42.833,457.026,293.036,-16.454,169.960,-2.490,346.980
930,51711.691000,236.232,26.656,-55.782,464.577,273.694,-16.867,107.960,56.510,332.980
931,51711.732000,299.490,58.845,-66.739,466.521,273.799,-12.938,249.960,282.510,296.980
932,51711.772000,292.571,36.715,-63.751,473.285,271.146,-4.157,381.960,583.510,351.980
933,51711.813000,253.035,8.550,-38.848,473.202,260.661,4.436,682.960,829.510,275.980
934,51711.857000,249.081,63.874,-49.805,475.143,259.860,11.287,675.960,619.510,227.980
935,51711.892000,188.788,77.957,-236.078,477.111,264.604,5.512,1187.960,307.510,-1.020
936,51711.932000,236.232,62.868,-186.272,481.878,261.328,-13.183,2020.960,-171.490,-151.020
937,51711.952000,198.672,79.969,-177.307,481.812,264.220,-58.229,3056.960,-463.490,-331.020
938,51712.3000,233.266,124.228,-114.553,482.614,259.116,-114.238,2810.960,-832.490,-368.020
939,51712.37000,246.116,124.228,-92.638,479.493,248.193,-168.424,2211.960,-993.490,-395.020
940,51712.72000,263.907,95.057,-45.821,470.467,226.555,-221.879,2072.960,-886.490,-375.020
941,51712.115000,266.873,95.057,-25.899,472.173,212.054,-264.366,1857.960,-794.490,-382.020
942,51712.172000,260.942,84.998,8.965,461.273,192.749,-299.140,1369.960,-638.490,-295.020
943,51712.224000,247.104,68.904,19.922,459.255,187.531,-314.951,990.960,-475.490,-313.020
944,51712.255000,258.965,43.756,36.856,457.181,176.488,-330.891,703.960,-199.490,-279.020
945,51712.284000,231.290,42.750,53.790,454.134,163.622,-340.990,490.960,-0.490,-268.020
946,51712.293000,239.197,38.727,51.798,455.164,169.522,-337.914,167.960,315.510,-313.020
947,51712.330000,238.208,5.532,34.864,466.806,170.821,-328.054,546.960,526.510,-361.020
948,51712.389000,193.730,14.585,-52.794,478.338,160.514,-316.491,1030.960,842.510,-390.020
949,51712.415000,247.104,32.692,-129.494,484.075,153.753,-317.610,488.960,234.510,-192.020
950,51712.459000,398.332,174.523,14.942,489.010,161.783,-307.614,-856.040,322.510,-385.020
951,51712.489000,264.896,-33.697,-40.840,485.347,183.104,-307.149,-612.040,-98.490,-68.020
952,51712.533000,231.290,49.792,-75.704,486.474,197.849,-298.974,-582.040,-68.490,-232.020
953,51712.573000,272.803,24.644,-74.708,486.528,202.768,-295.923,-23.040,195.510,-118.020
954,51712.599000,237.220,73.933,-70.724,488.378,193.164,-292.209,454.960,375.510,-191.020
955,51712.634000,229.313,64.880,-70.724,489.436,201.092,-285.166,-148.040,346.510,-81.020
956,51712.674000,250.069,50.798,-51.798,492.314,196.481,-275.456,-235.040,341.510,-92.020
957,51712.714000,222.394,66.892,-34.864,495.366,210.274,-267.298,56.960,300.510,-107.020
958,51712.754000,244.139,60.857,-36.856,500.221,210.494,-259.438,-59.040,171.510,-32.020
959,51712.794000,240.185,59.851,-41.837,502.149,209.564,-258.474,-116.040,71.510,-2.020
960,51712.834000,245.127,46.774,-35.860,498.263,207.606,-257.545,159.960,57.510,-10.020
961,51712.874000,237.220,60.857,-33.868,499.231,208.500,-261.445,81.960,-146.490,65.980
962,51712.914000,242.162,60.857,-45.821,496.305,207.371,-267.361,-39.040,-227.490,81.980
963,51712.934000,243.151,51.804,-53.790,497.271,207.359,-268.340,-13.040,-198.490,91.980
964,51712.977000,241.174,62.868,-55.782,494.310,203.253,-277.263,50.960,-172.490,103.980
965,51713.18000,247.104,50.798,-47.813,494.214,193.523,-278.460,-53.040,-198.490,156.980
966,51713.52000,244.139,49.792,-59.767,491.281,191.445,-283.415,20.960,-209.490,190.980
967,51713.90000,248.093,49.792,-54.786,493.085,179.641,-291.519,248.960,-195.490,193.980
968,51713.137000,248.093,55.827,-63.751,493.069,179.490,-298.387,242.960,-210.490,248.980
969,51713.170000,268.849,51.804,-50.802,491.074,174.487,-304.386,296.960,-206.490,294.980
970,51713.217000,269.838,28.668,-29.883,490.940,162.643,-313.475,473.960,-377.490,239.980
971,51713.315000,269.838,39.733,-15.938,479.146,145.788,-324.661,444.960,-652.490,231.980
972,51713.324000,293.560,44.762,-28.887,460.685,143.085,-351.238,196.960,-1121.490,248.980
973,51713.355000,289.606,49.792,-35.860,442.189,137.404,-380.823,272.960,-1332.490,169.980
974,51713.370000,258.965,62.868,-88.654,409.214,134.538,-408.415,-140.040,-1540.490,285.980
975,51713.393000,254.023,39.733,-28.887,384.889,124.162,-428.310,51.960,-1048.490,202.980
976,51713.438000,185.822,26.656,15.938,384.913,127.031,-430.207,359.960,-61.490,123.980
977,51713.473000,183.846,58.845,-17.930,392.695,127.517,-411.547,257.960,1175.510,-203.020
978,51713.514000,247.104,43.756,-58.770,421.067,151.954,-371.719,-74.040,1737.510,-443.020
979,51713.555000,252.046,41.745,-79.689,448.381,165.831,-326.243,-182.040,2140.510,-551.020
980,51713.575000,248.093,48.786,-112.560,465.197,192.420,-271.681,-812.040,2022.510,-490.020
981,51713.615000,277.745,47.780,-128.498,474.289,219.969,-214.172,-2028.040,1500.510,-16.020
982,51713.655000,256.988,33.697,-120.529,478.490,244.322,-167.531,-2174.040,1082.510,183.980
983,51713.690000,233.266,42.750,-89.650,474.747,251.662,-140.898,-2274.040,491.510,118.980
984,51713.742000,248.093,32.692,-58.770,475.942,267.054,-103.289,-2377.040,240.510,116.980
985,51713.773000,232.278,19.615,-73.712,475.089,272.546,-73.749,-2255.040,-21.490,176.980
986,51713.813000,241.174,43.756,-52.794,473.229,275.893,-53.085,-1865.040,-97.490,24.980
987,51713.852000,239.197,42.750,-57.774,466.467,273.281,-36.486,-1716.040,-333.490,57.980
988,51713.892000,205.591,37.721,-74.708,468.500,282.167,-30.400,-1205.040,-476.490,5.980
989,51713.914000,211.521,14.585,-18.926,465.593,281.211,-28.466,-1001.040,-395.490,-84.020
990,51713.954000,210.533,176.534,-72.716,463.698,285.097,-27.403,197.960,12.510,-330.020
991,51713.994000,350.888,-2.515,15.938,457.916,288.773,-34.199,-15.040,-483.490,-333.020
992,51714.34000,250.069,12.574,-22.911,451.165,292.440,-40.996,299.960,-258.490,-287.020
993,51714.74000,262.919,80.974,-19.922,447.433,307.806,-46.547,-250.040,-218.490,-439.020
994,51714.113000,245.127,38.727,-30.879,445.561,312.793,-39.575,-376.040,-110.490,-173.020
995,51714.163000,252.046,53.815,-20.918,441.722,316.574,-42.442,164.960,22.510,-191.020
996,51714.192000,245.127,63.874,-15.938,437.841,315.544,-43.453,28.960,0.510,-144.020
997,51714.212000,240.185,59.851,-16.934,435.920,317.424,-45.377,8.960,-32.490,-152.020
998,51714.252000,246.116,61.862,-16.934,434.021,321.267,-46.276,-51.040,-16.490,-118.020
999,51714.299000,244.139,61.862,-19.922,431.161,325.165,-44.235,-24.040,0.510,-83.020
1000,51714.334000,247.104,49.792,-18.926,432.154,328.065,-45.149,109.960,63.510,-98.020
1001,51714.377000,237.220,65.886,-11.953,431.156,325.122,-46.197,41.960,31.510,-67.020
1002,51714.410000,250.069,63.874,-9.961,430.212,327.097,-44.194,41.960,-0.490,-44.020
1003,51714.457000,240.185,64.880,-13.946,426.347,327.987,-46.143,-97.040,-63.490,-19.020
1004,51714.495000,238.208,64.880,-20.918,429.287,331.899,-46.050,-21.040,-66.490,-25.020
1005,51714.535000,254.023,62.868,-33.868,432.129,326.059,-48.135,-20.040,2.510,-10.020
1006,51714.558000,248.093,56.833,-25.899,431.196,329.027,-45.129,-24.040,86.510,-13.020
1007,51714.592000,251.058,58.845,-23.907,428.287,328.049,-44.177,109.960,157.510,-33.020
1008,51714.632000,236.232,66.892,-5.977,429.303,332.050,-39.182,-97.040,105.510,-15.020
1009,51714.672000,247.104,69.910,0.996,429.301,332.028,-40.163,80.960,61.510,29.980
1010,51714.712000,241.174,63.874,-11.953,429.326,334.035,-37.177,1.960,30.510,45.980
1011,51714.752000,249.081,66.892,-7.969,432.236,335.012,-38.130,40.960,15.510,49.980
1012,51714.794000,250.069,51.804,-12.949,434.082,326.250,-40.282,107.960,23.510,78.980
1013,51714.835000,243.151,62.868,-15.938,431.170,326.136,-44.213,306.960,42.510,87.980
1014,51714.857000,241.174,58.845,-13.946,437.957,328.100,-46.116,129.960,27.510,91.980
1015,51714.894000,246.116,69.910,-1.992,438.903,326.146,-47.138,122.960,3.510,85.980
1016,51714.934000,252.046,52.809,-16.934,438.879,323.277,-45.241,5.960,19.510,132.980
1017,51714.974000,250.069,61.862,-16.934,439.818,320.374,-45.303,140.960,75.510,121.980
1018,51715.25000,234.255,83.992,-15.938,437.787,310.625,-46.505,-45.040,36.510,139.980
1019,51715.55000,249.081,42.750,-9.961,443.628,312.796,-38.599,-332.040,-5.490,147.980
1020,51715.95000,256.000,19.615,-4.981,446.474,306.999,-38.722,-141.040,0.510,126.980
1021,51715.141000,260.942,25.650,-11.953,446.424,301.238,-35.907,45.960,89.510,83.980
1022,51715.177000,247.104,47.780,-41.837,449.321,299.454,-30.057,160.960,207.510,40.980
1023,51715.196000,250.069,45.768,-13.946,453.234,304.303,-31.902,160.960,299.510,39.980
1024,51715.232000,251.058,59.851,8.965,450.354,305.375,-26.001,-18.040,332.510,13.980
1025,51715.272000,263.907,27.662,3.984,451.340,305.557,-18.149,-104.040,324.510,-1.020
1026,51715.313000,249.081,50.798,15.938,451.351,305.665,-13.244,210.960,408.510,-31.020
1027,51715.353000,238.208,73.933,23.907,451.390,307.801,-4.370,-42.040,432.510,-66.020
1028,51715.393000,253.035,26.656,3.984,452.332,302.287,9.239,-54.040,339.510,-41.020
1029,51715.435000,234.255,55.827,46.817,450.400,302.290,10.215,2.960,221.510,-92.020
1030,51715.474000,241.174,67.898,42.833,448.594,314.957,13.435,-253.040,30.510,-69.020
1031,51715.494000,250.069,42.750,26.895,451.498,314.122,18.326,-259.040,-100.490,9.980
