Sample, Time, ACCX, ACCY, ACCZ, MAGX, MAGY, MAGZ, GYRX, GYRY, GYRZ
0,51154.346000,249.081,47.780,4.981,475.416,300.335,-45.673,7.960,-7.490,19.980
1,51154.371000,249.081,48.786,2.988,470.586,301.237,-46.644,-6.040,-19.490,19.980
2,51154.409000,250.069,48.786,0.996,472.495,298.365,-45.723,-19.040,-24.490,21.980
3,51154.445000,249.081,50.798,1.992,471.530,299.261,-48.647,4.960,-23.490,14.980
4,51154.489000,247.104,48.786,3.984,472.486,298.278,-49.648,-5.040,-35.490,16.980
5,51154.526000,249.081,47.780,0.996,473.462,299.259,-49.624,-25.040,-43.490,22.980
6,51154.570000,249.081,49.792,0.000,473.401,293.390,-51.715,-4.040,-31.490,19.980
7,51154.607000,249.081,47.780,0.000,475.352,294.445,-48.746,-11.040,-28.490,15.980
8,51154.650000,249.081,47.780,0.000,473.448,298.245,-51.608,-20.040,-24.490,19.980
9,51154.669000,250.069,49.792,2.988,478.229,292.466,-51.726,13.960,-16.490,8.980
10,51154.707000,250.069,46.774,0.996,473.453,299.172,-53.548,-9.040,-27.490,16.980
11,51154.747000,249.081,48.786,0.000,475.388,298.307,-49.641,-15.040,-36.490,14.980
12,51154.785000,252.046,46.774,-0.996,470.487,292.369,-52.725,-12.040,-28.490,20.980
13,51154.827000,249.081,45.768,0.000,472.464,296.315,-50.672,5.960,-16.490,6.980
14,51154.871000,249.081,47.780,0.000,475.367,297.228,-54.568,-15.040,-25.490,1.980
15,51154.905000,252.046,46.774,-0.996,471.502,297.233,-52.615,-14.040,-21.490,-0.020
16,51154.969000,249.081,47.780,-1.992,478.288,299.198,-54.518,-1.040,-12.490,-3.020
17,51154.975000,250.069,45.768,-2.988,472.432,293.359,-52.699,-14.040,-2.490,-0.020
18,51155.10000,249.081,46.774,-2.988,471.462,293.328,-53.682,6.960,16.510,-12.020
19,51155.45000,248.093,45.768,-1.992,471.445,291.408,-52.744,0.960,12.510,-8.020
20,51155.89000,252.046,47.780,-2.988,474.343,291.393,-54.700,7.960,9.510,4.980
21,51155.126000,248.093,51.804,0.000,475.308,290.496,-51.776,23.960,4.510,-4.020
22,51155.171000,249.081,49.792,0.000,473.435,297.231,-53.591,-18.040,-24.490,-2.020
23,51155.209000,249.081,49.792,0.000,475.320,292.374,-54.676,-38.040,-40.490,8.980
24,51155.246000,249.081,45.768,-1.992,471.523,300.081,-55.494,-0.040,-30.490,1.980
25,51155.287000,248.093,47.780,-5.977,474.393,297.154,-57.514,-20.040,-28.490,3.980
26,51155.306000,250.069,48.786,-2.988,473.430,297.187,-55.554,-10.040,-19.490,-3.020
27,51155.350000,250.069,47.780,-5.977,474.355,293.270,-57.600,-13.040,-8.490,3.980
28,51155.386000,249.081,47.780,-0.996,472.465,297.200,-54.575,3.960,-6.490,2.980
29,51155.430000,251.058,46.774,-3.984,473.378,292.290,-57.624,-20.040,-23.490,13.980
30,51155.467000,248.093,46.774,-2.988,473.458,300.100,-55.489,-20.040,-23.490,12.980
31,51155.509000,252.046,43.756,-5.977,473.432,297.209,-54.573,-21.040,-9.490,-1.020
32,51155.547000,248.093,46.774,-2.988,474.376,295.234,-56.576,14.960,5.510,-30.020
33,51155.595000,249.081,46.774,-2.988,470.502,294.268,-54.644,-19.040,-0.490,-13.020
34,51155.609000,248.093,49.792,-4.981,473.428,297.166,-56.535,1.960,16.510,-15.020
35,51155.652000,248.093,49.792,2.988,475.396,300.140,-54.503,-1.040,15.510,-10.020
36,51155.691000,247.104,49.792,3.984,473.437,298.137,-56.513,-21.040,-17.490,2.980
37,51155.729000,249.081,46.774,-0.996,470.502,294.268,-54.644,-10.040,-53.490,10.980
38,51155.767000,250.069,43.756,0.000,473.371,291.341,-56.664,13.960,-87.490,19.980
39,51155.806000,251.058,47.780,-5.977,469.540,296.071,-60.490,-31.040,-109.490,14.980
40,51155.847000,248.093,51.804,-10.957,475.323,294.164,-61.501,-68.040,-80.490,0.980
41,51155.890000,253.035,47.780,-9.961,470.504,295.174,-57.566,-64.040,-37.490,-1.020
42,51155.909000,251.058,45.768,-7.969,471.484,297.061,-60.464,17.960,8.510,-1.020
43,51155.950000,251.058,47.780,-9.961,471.512,299.973,-60.399,6.960,15.510,-14.020
44,51155.987000,248.093,48.786,-6.973,469.471,288.369,-57.719,-34.040,2.510,-11.020
45,51156.27000,248.093,50.798,-6.973,469.559,298.013,-60.447,-7.040,1.510,-4.020
46,51156.70000,248.093,48.786,-1.992,472.461,298.041,-60.440,-5.040,-11.490,-11.020
47,51156.106000,250.069,47.780,-7.969,470.552,300.029,-57.458,-15.040,-25.490,-3.020
48,51156.149000,246.116,49.792,-8.965,471.524,300.966,-59.397,6.960,-23.490,-7.020
49,51156.190000,250.069,49.792,-5.977,471.451,294.105,-62.491,-31.040,-34.490,-13.020
50,51156.235000,248.093,50.798,-6.973,473.412,297.015,-63.403,-22.040,-33.490,-5.020
51,51156.249000,247.104,49.792,-7.969,470.547,300.870,-63.323,-8.040,-35.490,-7.020
52,51156.287000,249.081,49.792,-11.953,471.453,294.127,-61.510,-18.040,-23.490,-7.020
53,51156.327000,252.046,48.786,-8.965,472.440,296.078,-61.464,-5.040,4.510,-6.020
54,51156.367000,250.069,51.804,-9.961,468.615,300.873,-62.347,8.960,21.510,-5.020
55,51156.409000,247.104,49.792,-6.973,470.526,298.907,-64.348,33.960,34.510,-3.020
56,51156.446000,249.081,50.798,-6.973,464.700,296.002,-61.482,-12.040,13.510,-9.020
57,51156.489000,251.058,48.786,-8.965,468.624,301.844,-62.325,-9.040,5.510,-5.020
58,51156.532000,245.127,50.798,-4.981,471.536,302.843,-62.297,-1.040,18.510,-9.020
59,51156.546000,250.069,50.798,-7.969,467.603,296.031,-61.476,-27.040,14.510,-5.020
60,51156.589000,247.104,50.798,-6.973,468.645,302.922,-57.398,15.960,15.510,-4.020
61,51156.629000,250.069,50.798,-8.965,468.591,298.003,-60.449,-7.040,0.510,-4.020
62,51156.667000,248.093,49.792,-5.977,472.496,301.018,-57.432,-1.040,5.510,-3.020
63,51156.709000,250.069,52.809,0.000,467.673,302.870,-59.362,-22.040,1.510,-3.020
64,51156.751000,251.058,47.780,-7.969,470.554,300.935,-60.380,5.960,11.510,-14.020
65,51156.789000,247.104,53.815,-3.984,468.622,300.937,-59.403,-4.040,-0.490,-5.020
66,51156.830000,248.093,42.750,-6.973,467.666,301.920,-58.403,21.960,0.510,-8.020
67,51156.847000,251.058,59.851,-5.977,467.680,303.819,-60.322,4.960,-10.490,-16.020
68,51156.891000,248.093,50.798,-7.969,469.617,303.859,-59.336,-44.040,-17.490,-7.020
69,51156.940000,248.093,54.821,-5.977,470.592,303.934,-56.391,12.960,11.510,1.980
70,51156.972000,249.081,51.804,-5.977,471.564,305.755,-62.232,9.960,9.510,5.980
71,51157.15000,248.093,51.804,-4.981,467.664,301.899,-59.384,-13.040,-9.490,3.980
72,51157.55000,252.046,50.798,-5.977,468.662,304.842,-58.336,-20.040,-13.490,5.980
73,51157.94000,249.081,48.786,-8.965,466.637,296.043,-60.497,-2.040,-3.490,8.980
74,51157.132000,249.081,53.815,-2.988,469.603,302.845,-61.320,14.960,5.510,7.980
75,51157.170000,248.093,47.780,-6.973,468.631,301.908,-59.382,-15.040,-5.490,12.980
76,51157.189000,248.093,50.798,-5.977,465.672,296.055,-59.518,4.960,5.510,1.980
77,51157.229000,245.127,51.804,-8.965,467.677,302.913,-57.400,-36.040,-6.490,1.980
78,51157.271000,248.093,52.809,-4.981,468.605,299.017,-58.465,10.960,-0.490,5.980
79,51157.314000,247.104,51.804,-3.984,470.547,299.101,-55.517,11.960,-5.490,13.980
80,51157.351000,250.069,49.792,-5.977,470.575,302.898,-59.356,-21.040,-18.490,13.980
81,51157.389000,251.058,47.780,-9.961,469.544,296.114,-58.528,-15.040,-17.490,2.980
82,51157.431000,250.069,49.792,-8.965,468.563,295.091,-60.514,-23.040,-7.490,-5.020
83,51157.467000,250.069,51.804,-7.969,466.727,304.824,-58.340,-10.040,5.510,-3.020
84,51157.492000,248.093,50.798,-7.969,469.512,294.043,-64.458,0.960,6.510,-3.020
85,51157.529000,248.093,47.780,-5.977,468.640,302.879,-59.360,-13.040,-0.490,-3.020
86,51157.572000,247.104,51.804,-6.973,464.731,298.936,-60.437,13.960,1.510,4.980
87,51157.607000,250.069,46.774,-4.981,468.586,297.076,-58.508,-5.040,-9.490,1.980
88,51157.650000,249.081,51.804,-7.969,467.697,305.739,-61.260,-31.040,-8.490,-18.020
89,51157.692000,249.081,52.809,-6.973,467.692,304.811,-59.319,-10.040,3.510,-15.020
90,51157.727000,249.081,50.798,-7.969,469.615,303.838,-60.317,1.960,2.510,-6.020
91,51157.770000,249.081,51.804,-6.973,468.638,302.858,-60.341,23.960,6.510,-7.020
92,51157.794000,248.093,51.804,-5.977,465.771,305.807,-57.340,-9.040,4.510,-7.020
93,51157.831000,249.081,50.798,-8.965,464.759,301.849,-60.372,6.960,13.510,-5.020
94,51157.869000,245.127,50.798,-5.977,466.736,305.794,-58.319,-29.040,4.510,10.980
95,51157.911000,249.081,50.798,-4.981,467.677,302.913,-57.400,-5.040,10.510,0.980
96,51157.949000,250.069,50.798,-3.984,469.577,299.070,-56.501,-25.040,0.510,-10.020
97,51157.992000,248.093,50.798,-3.984,462.805,299.004,-56.516,-3.040,0.510,-10.020
98,51158.31000,248.093,51.804,-5.977,465.722,300.931,-58.429,-13.040,-8.490,-10.020
99,51158.69000,248.093,51.804,-5.977,468.695,308.683,-60.212,12.960,-1.490,-15.020
100,51158.111000,249.081,53.815,-6.973,463.777,299.941,-58.455,-0.040,-8.490,-8.020
101,51158.130000,249.081,52.809,-5.977,465.797,308.698,-58.256,23.960,2.510,-15.020
102,51158.170000,247.104,52.809,-4.981,465.778,306.756,-58.299,9.960,-1.490,-8.020
103,51158.214000,248.093,49.792,-7.969,465.795,308.676,-59.237,2.960,-1.490,-10.020
104,51158.249000,248.093,54.821,-6.973,463.789,301.818,-61.355,3.960,-5.490,-9.020
105,51158.290000,248.093,52.809,-6.973,464.820,307.717,-58.280,-16.040,-8.490,-6.020
106,51158.332000,247.104,55.827,-7.969,465.814,310.618,-59.194,-5.040,-4.490,-8.020
107,51158.371000,248.093,53.815,-5.977,465.740,302.872,-58.386,-21.040,-4.490,-7.020
108,51158.409000,248.093,55.827,-4.981,463.806,302.854,-58.390,6.960,-1.490,-5.020
109,51158.432000,250.069,52.809,-6.973,464.837,309.638,-59.218,5.960,-5.490,-9.020
110,51158.471000,249.081,52.809,-6.973,465.795,308.676,-59.237,-21.040,-14.490,-2.020
111,51158.512000,249.081,53.815,-6.973,462.810,299.932,-58.457,-23.040,-6.490,3.980
112,51158.550000,246.116,52.809,-4.981,464.778,303.791,-60.329,-0.040,0.510,2.980
113,51158.591000,248.093,54.821,-10.957,466.720,304.759,-61.284,-23.040,-10.490,3.980
114,51158.642000,248.093,54.821,-5.977,462.864,305.735,-59.309,-1.040,-1.490,3.980
115,51158.669000,249.081,52.809,-8.965,466.800,312.569,-59.149,-13.040,-3.490,5.980
116,51158.714000,250.069,50.798,-6.973,466.786,311.555,-61.133,-20.040,1.510,-2.020
117,51158.732000,247.104,53.815,-6.973,463.784,300.890,-59.415,-3.040,16.510,-7.020
118,51158.770000,245.127,57.839,-6.973,463.850,306.802,-55.361,-8.040,13.510,5.980
119,51158.810000,248.093,51.804,-6.973,463.815,303.824,-58.369,12.960,14.510,9.980
120,51158.854000,247.104,55.827,-5.977,464.834,309.616,-60.199,-19.040,6.510,8.980
121,51158.891000,248.093,53.815,-5.977,466.691,300.962,-57.445,12.960,14.510,5.980
122,51158.930000,246.116,54.821,-4.981,468.657,303.915,-56.395,6.960,6.510,12.980
123,51158.974000,248.093,54.821,-3.984,469.612,302.932,-57.396,-12.040,-9.490,30.980
124,51159.14000,246.116,52.809,-2.988,465.788,307.727,-58.278,-2.040,-19.490,28.980
125,51159.51000,251.058,46.774,-6.973,464.794,305.711,-61.267,-29.040,-20.490,20.980
126,51159.71000,247.104,53.815,-5.977,468.685,306.827,-56.330,16.960,-3.490,17.980
127,51159.112000,248.093,52.809,-4.981,468.652,303.872,-58.357,7.960,-4.490,21.980
128,51159.150000,249.081,51.804,-8.965,468.654,303.893,-57.376,2.960,3.510,19.980
129,51159.197000,248.093,49.792,-3.984,464.813,306.768,-57.321,-10.040,8.510,14.980
130,51159.246000,247.104,50.798,-5.977,468.668,304.907,-55.392,-0.040,-0.490,20.980
131,51159.271000,250.069,49.792,-8.965,470.566,301.927,-59.377,20.960,2.510,10.980
132,51159.311000,246.116,55.827,-3.984,470.530,298.065,-58.482,-21.040,-22.490,19.980
133,51159.351000,250.069,48.786,-5.977,468.605,299.017,-58.465,24.960,-15.490,29.980
134,51159.375000,248.093,52.809,-6.973,468.638,302.858,-60.341,41.960,-9.490,20.980
135,51159.412000,249.081,51.804,-5.977,468.638,302.858,-60.341,-24.040,-25.490,24.980
136,51159.450000,249.081,51.804,-5.977,470.561,301.884,-61.339,-22.040,-24.490,26.980
137,51159.501000,251.058,48.786,-8.965,469.521,294.129,-60.533,9.960,-5.490,21.980
138,51159.534000,252.046,49.792,-6.973,469.547,297.020,-61.450,21.960,13.510,18.980
139,51159.571000,249.081,49.792,-5.977,469.535,295.143,-58.549,12.960,25.510,19.980
140,51159.615000,249.081,47.780,-6.973,471.486,297.082,-59.483,7.960,24.510,15.980
141,51159.652000,249.081,48.786,-3.984,472.468,298.990,-61.400,11.960,24.510,11.980
142,51159.672000,249.081,48.786,-3.984,473.421,297.101,-59.478,1.960,11.510,17.980
143,51159.712000,249.081,47.780,-4.981,472.423,293.273,-56.623,17.960,-0.490,20.980
144,51159.750000,250.069,46.774,-7.969,470.549,300.007,-58.439,14.960,-2.490,17.980
145,51159.792000,249.081,48.786,-4.981,469.480,289.340,-57.698,0.960,-7.490,14.980
146,51159.830000,249.081,44.762,-8.965,471.512,299.089,-56.496,-12.040,-1.490,9.980
147,51159.872000,249.081,49.792,-6.973,473.386,293.239,-58.583,6.960,21.510,1.980
148,51159.920000,248.093,47.780,-2.988,471.491,297.125,-57.521,-2.040,30.510,4.980
149,51159.954000,248.093,46.774,-4.981,469.464,288.304,-60.663,2.960,23.510,8.980
150,51159.972000,247.104,47.780,-1.992,469.570,299.005,-59.444,6.960,8.510,4.980
151,51160.14000,247.104,49.792,-4.981,471.373,284.547,-55.839,-27.040,-7.490,1.980
152,51160.51000,249.081,45.768,-0.996,473.440,298.158,-55.532,-20.040,-8.490,1.980
153,51160.96000,249.081,46.774,-6.973,475.377,299.083,-58.450,-11.040,-8.490,2.980
154,51160.134000,249.081,47.780,-5.977,473.369,291.319,-57.645,10.960,0.510,-0.020
155,51160.171000,251.058,46.774,-5.977,471.470,295.162,-58.545,-8.040,-2.490,-3.020
156,51160.214000,248.093,46.774,-6.973,471.510,299.067,-57.477,-0.040,-2.490,-4.020
157,51160.251000,248.093,48.786,-7.969,472.463,298.063,-59.459,-1.040,3.510,-2.020
158,51160.291000,247.104,48.786,-5.977,475.384,299.148,-55.506,-5.040,7.510,-7.020
159,51160.314000,250.069,48.786,-4.981,471.512,299.089,-56.496,-5.040,10.510,-10.020
160,51160.350000,249.081,48.786,-2.988,472.446,296.142,-58.521,5.960,12.510,-9.020
161,51160.396000,250.069,49.792,-1.992,469.591,300.968,-58.420,-4.040,2.510,-9.020
162,51160.434000,249.081,48.786,-2.988,470.504,295.174,-57.566,-12.040,-4.490,-11.020
163,51160.471000,246.116,47.780,-1.992,471.521,300.060,-56.475,-16.040,-21.490,-11.020
164,51160.512000,252.046,49.792,-4.981,473.447,299.992,-60.395,4.960,-13.490,-11.020
165,51160.555000,248.093,49.792,-4.981,470.481,293.189,-59.571,-12.040,-26.490,-16.020
166,51160.592000,250.069,51.804,-7.969,468.567,295.134,-58.552,-23.040,-18.490,-17.020
167,51160.611000,247.104,48.786,-4.981,471.547,302.951,-57.391,-1.040,-11.490,-0.020
168,51160.661000,249.081,49.792,-6.973,469.542,296.093,-59.509,19.960,3.510,-4.020
169,51160.696000,249.081,47.780,-4.981,471.507,299.046,-58.459,-20.040,-0.490,-11.020
170,51160.731000,248.093,49.792,-3.984,467.680,303.819,-60.322,-6.040,1.510,-7.020
171,51160.782000,248.093,46.774,-4.981,471.523,300.081,-55.494,-5.040,-1.490,-7.020
172,51160.811000,246.116,53.815,-4.981,465.726,300.974,-56.467,-10.040,-17.490,-4.020
173,51160.855000,247.104,52.809,-1.992,468.649,302.965,-55.436,-17.040,-41.490,-2.020
174,51160.892000,250.069,48.786,4.981,468.645,303.807,-61.301,-36.040,-99.490,-11.020
175,51160.917000,252.046,49.792,12.949,469.538,296.934,-65.374,-3.040,-167.490,-17.020
176,51160.954000,238.208,64.880,16.934,465.730,304.534,-71.097,-17.040,-349.490,-27.020
177,51160.991000,238.208,46.774,-7.969,465.663,299.485,-80.036,-78.040,-556.490,15.980
178,51161.32000,246.116,38.727,-67.735,462.803,305.153,-85.800,-67.040,-388.490,-59.020
179,51161.74000,240.185,67.898,-37.852,460.878,306.989,-89.686,279.960,-9.490,-177.020
180,51161.115000,248.093,54.821,-22.911,459.897,305.081,-87.769,-243.040,2.510,-146.020
181,51161.152000,264.896,65.886,-16.934,457.050,309.994,-83.743,-322.040,12.510,-81.020
182,51161.196000,260.942,36.715,-12.949,459.025,313.918,-82.671,-58.040,33.510,-2.020
183,51161.234000,252.046,56.833,-11.953,459.061,317.779,-83.566,89.960,7.510,-39.020
184,51161.252000,247.104,51.804,-17.930,455.094,308.012,-84.772,-62.040,-73.490,-24.020
185,51161.295000,227.336,72.927,-13.946,453.195,311.855,-85.671,-27.040,-190.490,-14.020
186,51161.332000,242.162,51.804,-23.907,454.121,308.822,-91.621,-17.040,-218.490,22.980
187,51161.372000,241.174,56.833,-28.887,456.049,308.776,-94.560,-1.040,-242.490,-2.020
188,51161.411000,258.965,62.868,-33.868,453.213,316.428,-98.318,-79.040,-200.490,-49.020
189,51161.454000,251.058,68.904,-33.868,451.323,321.242,-99.196,-21.040,-178.490,-3.020
190,51161.495000,238.208,69.910,-44.825,453.246,320.269,-100.194,-114.040,-61.490,43.980
191,51161.532000,239.197,54.821,-44.825,452.236,316.333,-102.245,31.960,19.510,91.980
192,51161.551000,244.139,66.892,-33.868,455.096,311.550,-100.384,41.960,64.510,82.980
193,51161.594000,246.116,49.792,-10.957,455.122,314.441,-101.300,19.960,-4.490,113.980
194,51161.631000,240.185,67.898,-31.875,459.901,309.526,-106.303,38.960,-123.490,122.980
195,51161.675000,251.058,54.821,-35.860,462.745,303.707,-107.407,51.960,-140.490,174.980
196,51161.712000,242.162,33.697,-44.825,460.777,301.617,-113.341,114.960,-124.490,166.980
197,51161.760000,254.023,69.910,-28.887,465.539,293.898,-113.502,103.960,-153.490,142.980
198,51161.792000,247.104,43.756,-48.809,462.569,287.936,-118.544,-38.040,-151.490,236.980
199,51161.835000,246.116,61.862,-47.813,464.511,288.904,-119.499,185.960,-96.490,235.980
200,51161.872000,231.290,38.727,-33.868,469.240,279.114,-125.591,201.960,-108.490,263.980
201,51161.896000,265.884,2.515,-49.805,472.049,271.202,-133.606,-4.040,-216.490,200.980
202,51161.935000,258.965,17.603,-61.759,471.026,266.252,-137.640,179.960,-198.490,144.980
203,51161.972000,237.220,57.839,-38.848,470.038,265.164,-142.570,230.960,-185.490,-76.020
204,51162.15000,252.046,31.686,-68.732,468.124,267.993,-145.453,-0.040,-75.490,-56.020
205,51162.64000,232.278,16.597,-63.751,470.123,274.787,-146.279,306.960,203.510,-90.020
206,51162.95000,226.347,45.768,-60.763,467.236,274.909,-139.417,57.960,243.510,-112.020
207,51162.132000,247.104,30.680,-44.825,470.141,274.075,-134.527,-117.040,259.510,-213.020
208,51162.175000,263.907,42.750,-32.872,465.369,279.939,-130.484,-188.040,227.510,-235.020
209,51162.195000,279.722,-12.574,-53.790,465.507,292.711,-123.335,179.960,354.510,-271.020
210,51162.237000,261.931,38.727,-38.848,461.611,289.782,-122.428,660.960,450.510,-341.020
211,51162.275000,233.266,92.039,-24.903,461.710,299.534,-120.250,220.960,263.510,-143.020
212,51162.312000,253.035,37.721,-38.848,460.722,297.561,-121.277,185.960,169.510,-35.020
213,51162.357000,246.116,36.715,-44.825,459.728,294.661,-120.362,335.960,188.510,-57.020
214,51162.397000,234.255,74.939,-17.930,458.756,294.608,-122.327,350.960,204.510,-33.020
215,51162.437000,256.988,39.733,-17.930,463.574,291.829,-118.456,228.960,195.510,71.980
216,51162.477000,235.243,45.768,-7.969,462.588,290.763,-122.404,268.960,75.510,4.980
217,51162.496000,243.151,63.874,-22.911,462.586,290.741,-123.385,15.960,-17.490,20.980
218,51162.534000,256.000,44.762,-19.922,462.591,291.669,-125.326,135.960,-88.490,94.980
219,51162.577000,242.162,72.927,-15.938,459.614,284.758,-129.408,95.960,-158.490,102.980
220,51162.616000,259.954,35.709,-27.891,460.518,279.762,-136.382,-27.040,-381.490,196.980
221,51162.662000,294.548,30.680,-3.984,465.335,279.615,-145.201,188.960,-396.490,148.980
222,51162.695000,304.432,47.780,-1.992,457.496,273.305,-163.990,353.960,-749.490,92.980
223,51162.732000,273.792,108.134,-35.860,449.763,277.695,-181.561,-158.040,-1119.490,-27.020
224,51162.774000,270.826,84.998,-227.113,435.186,276.044,-206.145,-700.040,-1594.490,53.980
225,51162.816000,204.602,30.680,-125.510,413.922,283.064,-230.550,-523.040,-1591.490,36.980
226,51162.835000,130.471,24.644,3.984,403.271,287.276,-254.996,39.960,-1013.490,-41.020
227,51162.877000,99.830,-46.774,13.946,405.266,291.394,-245.094,-275.040,490.510,66.980
228,51162.915000,136.402,19.615,-246.039,425.511,278.582,-218.857,381.960,1540.510,39.980
229,51162.952000,322.224,16.597,-167.346,427.512,285.397,-218.702,-278.040,-133.490,-27.020
230,51162.995000,293.560,33.697,43.829,425.541,281.516,-217.812,76.960,282.510,-243.020
231,51163.34000,352.865,52.809,-24.903,420.768,288.243,-218.653,8.960,-5.490,-317.020
232,51163.74000,311.351,-21.627,-105.588,418.913,296.035,-216.523,64.960,-63.490,-334.020
233,51163.116000,296.525,-18.609,-89.650,409.228,297.602,-229.257,1483.960,77.510,-383.020
234,51163.135000,266.873,-66.892,-67.735,406.083,276.754,-249.340,1765.960,144.510,-229.020
235,51163.175000,206.579,-23.639,-50.802,405.853,256.064,-263.529,1901.960,452.510,148.980
236,51163.220000,186.811,1.509,-27.891,411.528,242.550,-262.836,1268.960,878.510,323.980
237,51163.262000,169.019,22.633,-16.934,423.027,227.517,-245.493,584.960,1309.510,347.980
238,51163.295000,218.440,-7.544,-45.821,446.217,218.660,-217.202,726.960,1777.510,424.980
239,51163.351000,292.571,17.603,-48.809,465.446,199.216,-183.270,1334.960,2034.510,645.980
240,51163.381000,217.452,77.957,-140.451,482.623,168.059,-151.563,794.960,1630.510,707.980
241,51163.419000,220.417,91.033,-99.611,493.197,156.059,-128.272,676.960,1124.510,639.980
242,51163.456000,257.977,185.587,12.949,496.022,150.068,-137.225,-1209.040,-440.490,163.980
243,51163.475000,300.479,104.110,28.887,499.964,155.197,-126.315,-942.040,-54.490,223.980
244,51163.524000,333.097,-39.733,16.934,500.794,140.687,-124.674,417.960,332.510,80.980
245,51163.560000,341.992,-31.686,72.716,505.670,142.870,-115.789,236.960,403.510,1.980
246,51163.597000,302.456,22.633,76.700,507.520,133.266,-112.076,-196.040,251.510,2.980
247,51163.644000,228.324,44.762,16.934,499.962,151.659,-110.703,95.960,-113.490,-137.020
248,51163.676000,237.220,95.057,-132.482,498.060,158.997,-129.177,-68.040,-659.490,-174.020
249,51163.716000,233.266,97.069,-117.541,488.396,163.412,-144.790,-1759.040,-1636.490,-27.020
250,51163.754000,232.278,70.916,-70.724,478.863,182.282,-164.985,-2530.040,-1558.490,-257.020
251,51163.777000,213.498,16.597,-53.790,469.288,196.341,-183.326,-1362.040,-1209.490,-347.020
252,51163.814000,205.591,25.650,-3.984,458.769,210.628,-190.876,-788.040,-834.490,-466.020
253,51163.857000,254.023,11.568,15.938,452.198,232.740,-197.264,-483.040,-230.490,-691.020
254,51163.897000,249.081,-14.585,19.922,452.421,252.481,-182.115,-230.040,403.510,-785.020
255,51163.935000,251.058,-51.804,-42.833,452.511,259.515,-171.171,197.960,869.510,-600.020
256,51163.977000,240.185,-56.833,-130.490,450.699,268.600,-154.302,400.960,649.510,-394.020
257,51164.16000,272.803,18.609,-74.708,456.588,275.625,-146.289,-213.040,300.510,-346.020
258,51164.55000,278.734,16.597,-136.467,449.971,290.252,-140.094,-1462.040,-641.490,-112.020
259,51164.97000,229.313,-21.627,-45.821,449.074,297.082,-137.983,-1792.040,-930.490,49.980
260,51164.115000,212.510,0.503,-18.926,449.152,304.870,-136.829,-1447.040,-853.490,27.980
261,51164.154000,231.290,-45.768,20.918,450.151,306.066,-126.994,-1125.040,-148.490,55.980
262,51164.196000,342.981,126.240,-20.918,452.072,305.956,-132.876,234.960,-253.490,9.980
263,51164.233000,315.305,10.562,-27.891,453.991,304.054,-131.934,-197.040,26.510,28.980
264,51164.281000,297.514,28.668,-19.922,454.031,307.959,-130.866,26.960,-51.490,-86.020
265,51164.317000,240.185,42.750,-67.735,454.071,311.864,-129.799,-141.040,-68.490,-47.020
266,51164.360000,215.475,47.780,-61.759,451.098,304.997,-131.919,79.960,77.510,-80.020
267,51164.402000,211.521,146.358,-61.759,451.144,308.082,-124.005,-631.040,-38.490,10.980
268,51164.416000,292.571,1.509,-42.833,452.219,317.045,-113.997,-1172.040,47.510,12.980
269,51164.457000,252.046,49.792,-45.821,454.181,317.323,-102.219,8.960,315.510,-86.020
270,51164.499000,248.093,65.886,-47.813,452.205,311.629,-95.485,-93.040,324.510,-35.020
271,51164.536000,246.116,48.786,-28.887,455.208,320.547,-88.416,-165.040,296.510,-28.020
272,51164.579000,214.486,65.886,-12.949,452.314,319.720,-80.595,-165.040,111.510,-62.020
273,51164.621000,235.243,93.045,-3.984,451.377,322.645,-79.552,-413.040,-173.490,-31.020
274,51164.656000,235.243,30.680,-44.825,453.362,327.539,-78.458,-393.040,-278.490,31.980
275,51164.704000,276.757,59.851,-34.864,451.397,325.471,-83.412,159.960,-148.490,-73.020
276,51164.726000,236.232,47.780,-32.872,451.437,330.261,-86.247,-268.040,-255.490,-65.020
277,51164.760000,257.977,71.921,-51.798,454.354,332.187,-88.160,-203.040,-202.490,-21.020
278,51164.797000,231.290,63.874,-68.732,447.496,322.499,-84.466,-77.040,-28.490,21.980
279,51164.835000,237.220,79.969,-31.875,446.593,330.149,-89.202,126.960,118.510,4.980
280,51164.879000,254.023,46.774,-34.864,452.437,332.341,-80.315,-59.040,49.510,45.980
281,51164.917000,236.232,40.739,-49.805,448.473,323.479,-84.443,-63.040,9.510,-7.020
282,51164.955000,259.954,38.727,-33.868,451.465,332.289,-82.279,97.960,57.510,-110.020
283,51164.995000,228.324,58.845,-41.837,447.560,329.274,-85.297,143.960,36.510,-94.020
284,51165.36000,241.174,98.075,-37.852,445.639,330.269,-83.317,-137.040,3.510,-27.020
285,51165.55000,235.243,76.951,-30.879,449.570,336.175,-81.216,95.960,37.510,42.980
286,51165.97000,241.174,59.851,-34.864,446.547,323.547,-80.522,17.960,-15.490,84.980
287,51165.135000,244.139,68.904,-29.883,447.537,327.289,-87.302,53.960,-67.490,77.980
288,51165.177000,223.382,92.039,-39.844,450.430,326.346,-87.317,-75.040,-204.490,173.980
289,51165.219000,254.023,22.633,-62.755,455.208,321.431,-92.319,50.960,-168.490,166.980
290,51165.255000,251.058,36.715,-58.770,454.232,320.451,-92.343,91.960,-67.490,84.980
291,51165.309000,227.336,87.010,-41.837,456.186,323.296,-96.198,-126.040,-74.490,111.980
292,51165.340000,279.722,-3.521,-57.774,456.138,317.557,-92.403,-38.040,56.510,41.980
293,51165.360000,226.347,87.010,-57.774,454.227,319.523,-90.402,-45.040,154.510,-50.020
294,51165.397000,245.127,59.851,-39.844,454.198,315.726,-86.564,-84.040,211.510,-13.020
295,51165.436000,237.220,82.986,-19.922,453.258,317.744,-82.598,-46.040,173.510,5.980
296,51165.479000,249.081,55.827,-38.848,457.097,313.079,-75.829,-261.040,138.510,51.980
297,51165.516000,253.035,43.756,-34.864,458.186,323.940,-67.741,-249.040,176.510,-11.020
298,51165.559000,247.104,63.874,-19.922,456.187,317.147,-66.915,46.960,179.510,-52.020
299,51165.599000,249.081,49.792,-30.879,457.168,317.286,-61.026,-45.040,117.510,15.980
300,51165.635000,252.046,32.692,-7.969,455.316,325.983,-61.817,513.960,234.510,-62.020
301,51165.677000,226.347,91.033,-27.891,456.237,322.023,-65.826,377.960,44.510,-102.020
302,51165.696000,251.058,76.951,-33.868,456.251,324.806,-71.648,153.960,-116.490,-49.020
303,51165.748000,228.324,71.921,-44.825,452.361,323.690,-76.584,-64.040,-121.490,-2.020
304,51165.781000,257.977,73.933,-35.860,454.272,320.839,-74.682,-83.040,19.510,40.980
305,51165.824000,241.174,56.833,-37.852,456.223,321.009,-67.810,-169.040,110.510,64.980
306,51165.856000,260.942,61.862,-13.946,455.316,326.868,-65.720,360.960,262.510,-16.020
307,51165.902000,241.174,51.804,-14.942,454.342,326.794,-68.666,325.960,182.510,28.980
308,51165.940000,251.058,45.768,-16.934,457.214,323.888,-69.705,493.960,152.510,0.980
309,51165.980000,244.139,63.874,-27.891,457.120,315.948,-77.727,584.960,98.510,28.980
310,51166.5000,241.174,73.933,-18.926,457.057,310.058,-80.800,271.960,2.510,47.980
311,51166.37000,232.278,50.798,-36.856,459.952,309.137,-79.833,61.960,-31.490,140.980
312,51166.80000,239.197,77.957,-14.942,463.827,310.987,-85.668,259.960,12.510,69.980
313,51166.119000,257.977,16.597,-39.844,463.799,308.075,-85.733,-59.040,-65.490,83.980
314,51166.156000,255.012,74.939,-16.934,463.849,312.951,-84.644,-115.040,-4.490,8.980
315,51166.199000,281.699,34.703,1.992,465.725,307.123,-85.750,-229.040,-261.490,62.980
316,51166.236000,266.873,28.668,-24.903,461.837,306.913,-93.608,142.960,-386.490,24.980
317,51166.284000,283.676,23.639,-35.860,457.030,313.316,-109.167,438.960,-354.490,-117.020
318,51166.297000,258.965,41.745,-51.798,453.080,306.353,-115.214,235.960,-293.490,21.980
319,51166.340000,252.046,55.827,-73.712,450.123,303.153,-127.059,161.960,-425.490,134.980
320,51166.376000,234.255,26.656,-126.506,435.611,307.413,-147.589,547.960,-644.490,21.980
321,51166.420000,267.861,36.715,-74.708,431.527,290.353,-171.512,1626.960,-688.490,-83.020
322,51166.457000,237.220,-54.821,-62.755,422.695,285.544,-209.883,2251.960,-440.490,-310.020
323,51166.506000,222.394,-49.792,-34.864,419.349,248.688,-251.896,3605.960,142.510,-88.020
324,51166.544000,208.556,39.733,-21.914,423.797,213.309,-274.246,2397.960,551.510,129.980
325,51166.587000,225.359,33.697,30.879,427.550,199.021,-263.768,1101.960,845.510,131.980
326,51166.620000,138.378,134.287,-125.510,438.399,215.198,-238.870,-1410.040,718.510,291.980
327,51166.639000,289.606,84.998,-100.607,442.317,217.458,-226.063,-2520.040,-190.490,635.980
328,51166.681000,197.683,104.110,-65.743,447.239,221.841,-205.361,-1127.040,27.510,648.980
329,51166.720000,246.116,93.045,-107.580,455.960,222.056,-199.454,-316.040,161.510,233.980
330,51166.757000,263.907,58.845,-81.681,458.815,217.229,-199.555,174.960,169.510,-93.020
331,51166.800000,288.618,32.692,-26.895,455.920,218.150,-200.522,822.960,233.510,-283.020
332,51166.837000,281.699,33.697,-18.926,457.846,218.968,-208.345,1104.960,176.510,-420.020
333,51166.880000,289.606,13.580,-30.879,458.786,216.949,-212.310,933.960,61.510,-344.020
334,51166.922000,259.954,63.874,-33.868,453.980,221.605,-219.082,-395.040,-442.490,-89.020
335,51166.936000,256.988,-2.515,-37.852,446.326,231.152,-222.808,-929.040,-592.490,-150.020
336,51166.979000,262.919,-54.821,-38.848,439.594,235.876,-225.660,-57.040,-257.490,-249.020
337,51167.21000,240.185,-56.833,-53.790,440.597,240.632,-230.455,807.960,176.510,-164.020
338,51167.60000,251.058,0.503,-81.681,441.467,231.774,-236.534,640.960,29.510,4.980
339,51167.101000,255.012,14.585,-53.790,435.603,226.755,-241.561,-47.040,-261.490,5.980
340,51167.137000,251.058,-65.886,-44.825,430.835,233.526,-240.440,-330.040,-313.490,5.980
341,51167.186000,263.907,-88.016,-38.848,428.827,227.531,-247.442,681.960,-54.490,107.980
342,51167.229000,239.197,-69.910,-43.829,427.700,212.786,-255.617,1081.960,159.510,290.980
343,51167.237000,233.266,-96.063,-37.852,436.222,194.359,-258.950,1588.960,568.510,192.980
344,51167.292000,212.510,-72.927,4.981,444.723,172.222,-254.520,1813.960,998.510,179.980
345,51167.319000,227.336,-58.845,-19.922,461.887,141.820,-232.604,1753.960,1678.510,270.980
346,51167.361000,274.780,8.550,-40.840,477.324,130.126,-197.527,1459.960,1968.510,305.980
347,51167.399000,236.232,31.686,-15.938,490.760,113.365,-171.393,971.960,2063.510,354.980
348,51167.441000,257.977,60.857,-47.813,506.205,99.989,-124.585,25.960,2032.510,327.980
349,51167.480000,269.838,107.128,-69.728,513.081,101.931,-83.340,-672.040,1508.510,376.980
350,51167.519000,195.707,70.916,-82.677,518.763,84.081,-59.208,-1813.040,611.510,673.980
351,51167.561000,252.046,63.874,-216.156,515.797,78.162,-62.287,-1633.040,-500.490,363.980
352,51167.582000,296.525,2.515,48.809,518.716,80.996,-67.122,2157.960,88.510,-152.020
353,51167.625000,336.062,-26.656,175.315,514.828,79.016,-67.174,1353.960,179.510,-201.020
354,51167.661000,309.375,-32.692,152.405,520.661,81.985,-67.095,-176.040,-253.490,-127.020
355,51167.705000,287.629,42.750,46.817,515.898,91.453,-75.721,-483.040,-406.490,-186.020
356,51167.741000,251.058,78.963,-147.424,509.134,95.874,-92.309,-787.040,-967.490,-277.020
357,51167.781000,251.058,59.851,-183.284,502.432,109.681,-123.398,-2088.040,-1793.490,-109.020
358,51167.819000,270.826,70.916,-53.790,491.010,136.019,-156.180,-2264.040,-1794.490,-515.020
359,51167.865000,195.707,-7.544,-40.840,475.753,163.527,-178.156,-1783.040,-1419.490,-852.020
360,51167.879000,217.452,-12.574,-99.611,463.289,178.571,-194.520,371.960,-1009.490,-934.020
361,51167.921000,204.602,31.686,14.942,453.664,188.639,-217.853,411.960,-747.490,-761.020
362,51167.957000,180.880,53.815,-11.953,446.019,199.157,-221.558,-544.040,-423.490,-515.020
363,51168.1000,223.382,66.892,-34.864,447.305,228.637,-205.210,-2508.040,-49.490,-736.020
364,51168.38000,228.324,-17.603,-74.708,443.004,275.990,-167.884,-2907.040,59.510,-602.020
365,51168.79000,284.664,-22.633,-80.685,444.169,291.101,-143.029,-2301.040,-117.490,-256.020
366,51168.119000,244.139,-115.175,-60.763,448.200,304.127,-126.060,-1195.040,57.510,-216.020
367,51168.160000,310.363,-170.499,-18.926,444.351,306.053,-125.045,1146.960,539.510,-197.020
368,51168.197000,328.154,90.028,54.786,454.000,305.025,-131.912,1074.960,558.510,-203.020
369,51168.221000,345.946,-2.515,13.946,449.198,307.071,-125.012,-1035.040,-149.490,-25.020
370,51168.258000,284.664,0.503,-46.817,452.107,308.048,-125.965,-299.040,-308.490,-35.020
371,51168.305000,204.602,98.075,-64.747,447.237,305.045,-128.003,169.960,-46.490,-163.020
372,51168.341000,225.359,114.169,-34.864,446.408,318.693,-124.760,-292.040,41.510,-76.020
373,51168.379000,290.595,22.633,-17.930,445.400,313.009,-118.024,-250.040,162.510,-22.020
374,51168.421000,258.965,43.756,-26.895,444.522,320.896,-111.967,-159.040,117.510,-208.020
375,51168.469000,288.618,55.827,-25.899,442.579,318.159,-103.206,-231.040,189.510,-96.020
376,51168.505000,219.429,70.916,-27.891,444.476,315.179,-107.190,122.960,68.510,4.980
377,51168.529000,251.058,79.969,-21.914,443.556,320.024,-107.085,-82.040,-16.490,35.980
378,51168.562000,218.440,62.868,-45.821,446.514,324.992,-103.046,-403.040,0.510,41.980
379,51168.599000,253.035,54.821,-19.922,444.553,321.198,-98.231,-33.040,117.510,-38.020
380,51168.641000,240.185,63.874,-15.938,451.353,324.177,-98.150,-124.040,51.510,17.980
381,51168.679000,256.000,61.862,9.961,450.423,327.166,-94.163,-21.040,-47.490,-54.020
382,51168.720000,228.324,69.910,-21.914,443.600,322.203,-96.249,-236.040,-274.490,-59.020
383,51168.761000,242.162,49.792,-25.899,443.675,330.854,-99.980,-199.040,-248.490,-5.020
384,51168.799000,244.139,81.980,-49.805,443.659,328.934,-99.042,53.960,-114.490,-20.020
385,51168.822000,237.220,67.898,-38.848,445.596,328.974,-98.056,40.960,97.510,25.980
386,51168.861000,258.965,43.756,-29.883,443.604,323.130,-98.190,-17.040,110.510,0.980
387,51168.904000,229.313,84.998,-24.903,443.609,323.173,-96.228,-34.040,34.510,-44.020
388,51168.941000,245.127,68.904,-14.942,443.639,326.108,-95.182,-107.040,-33.490,28.980
389,51168.984000,246.116,65.886,-29.883,443.668,329.020,-95.117,57.960,-27.490,19.980
390,51169.22000,239.197,76.951,-25.899,445.572,326.105,-96.158,-75.040,-68.490,12.980
391,51169.65000,239.197,67.898,-26.895,444.562,322.169,-98.209,-88.040,-96.490,15.980
392,51169.102000,238.208,73.933,-29.883,443.682,330.919,-97.036,-86.040,-124.490,31.980
393,51169.141000,253.035,60.857,-28.887,441.679,324.967,-102.076,80.960,-86.490,-30.020
394,51169.159000,239.197,93.045,-23.907,442.673,327.867,-102.990,-84.040,-176.490,41.980
395,51169.201000,242.162,37.721,-26.895,443.659,329.818,-102.945,-389.040,-282.490,146.980
396,51169.238000,246.116,56.833,-24.903,444.618,330.626,-110.770,87.960,-286.490,3.980
397,51169.281000,223.382,56.833,-44.825,440.683,324.677,-114.833,-71.040,-370.490,-25.020
398,51169.319000,253.035,67.898,-40.840,435.929,334.231,-119.534,-98.040,-290.490,-23.020
399,51169.362000,240.185,8.550,-62.755,437.819,330.301,-122.559,98.960,-194.490,-41.020
400,51169.406000,259.954,50.798,-51.798,433.009,334.914,-131.293,450.960,-39.490,-113.020
401,51169.443000,244.139,104.110,-85.665,431.067,334.831,-134.241,282.960,82.510,-158.020
402,51169.462000,235.243,84.998,-55.782,432.962,330.945,-135.304,152.960,256.510,-43.020
403,51169.500000,234.255,71.921,-49.805,437.758,325.318,-128.554,295.960,448.510,19.980
404,51169.542000,241.174,70.916,-43.829,432.952,328.205,-127.520,238.960,398.510,-35.020
405,51169.580000,238.208,53.815,-40.840,434.858,324.426,-123.677,176.960,394.510,-36.020
406,51169.627000,246.116,64.880,-18.926,436.846,328.480,-116.718,492.960,412.510,-23.020
407,51169.665000,233.266,78.963,-24.903,440.714,328.496,-117.690,146.960,209.510,63.980
408,51169.704000,251.058,60.857,-10.957,441.615,321.709,-117.839,258.960,172.510,52.980
409,51169.756000,237.220,58.845,-28.887,439.610,314.851,-119.957,306.960,137.510,6.980
410,51169.785000,247.104,76.951,-18.926,441.580,318.732,-120.847,252.960,80.510,5.980
411,51169.800000,226.347,58.845,-35.860,446.427,320.634,-124.717,165.960,5.510,39.980
412,51169.840000,248.093,76.951,-30.879,443.513,318.729,-121.824,130.960,18.510,97.980
413,51169.880000,245.127,55.827,-14.942,445.408,314.843,-122.887,-11.040,-71.490,85.980
414,51169.925000,257.977,76.951,-41.837,444.398,310.907,-124.937,18.960,-50.490,142.980
415,51169.962000,243.151,25.650,-34.864,447.312,312.812,-127.831,-23.040,-36.490,140.980
416,51170.0,238.208,74.939,2.988,449.198,308.840,-132.818,546.960,-21.490,84.980
417,51170.44000,235.243,100.086,-0.996,450.080,301.859,-141.797,108.960,-276.490,150.980
418,51170.82000,269.838,44.762,-1.992,447.162,301.680,-148.672,-263.040,-566.490,117.980
419,51170.101000,429.961,-43.756,10.957,444.145,292.633,-161.628,176.960,-843.490,191.980
420,51170.145000,299.490,98.075,2.988,440.057,276.415,-191.416,956.960,-950.490,626.980
421,51170.182000,210.533,137.305,-263.969,427.355,268.051,-213.203,-486.040,-1240.490,621.980
422,51170.220000,199.660,55.827,-113.556,411.853,270.316,-235.741,-1076.040,-1710.490,168.980
423,51170.262000,81.050,36.715,-88.654,402.223,278.572,-253.230,-189.040,-1167.490,72.980
424,51170.300000,45.467,19.615,-37.852,390.570,276.279,-264.093,-61.040,-631.490,-134.020
425,51170.342000,56.340,-67.898,-3.984,398.314,275.513,-258.209,12.960,772.510,94.980
426,51170.383000,148.263,3.521,-492.078,414.728,269.201,-243.605,720.960,1045.510,-70.020
427,51170.402000,261.931,88.016,68.732,415.602,262.156,-255.527,-223.040,192.510,-104.020
428,51170.440000,338.039,52.809,-54.786,417.666,273.976,-248.396,-645.040,-119.490,45.980
429,51170.485000,311.351,-12.574,-60.763,417.726,278.075,-238.498,-467.040,67.510,-99.020
430,51170.522000,325.189,1.509,-43.829,413.843,277.908,-244.394,808.960,313.510,-311.020
431,51170.560000,310.363,40.739,-125.510,406.036,272.784,-253.350,867.960,-236.490,-297.020
432,51170.601000,320.247,-41.745,-68.732,394.491,281.215,-262.014,219.960,-480.490,-474.020
433,51170.643000,260.942,-116.181,-56.778,389.506,270.941,-285.788,2118.960,298.510,-208.020
434,51170.680000,202.625,-92.039,-6.973,393.967,234.807,-298.349,2737.960,970.510,194.980
435,51170.754000,155.181,-15.591,-38.848,416.737,186.706,-289.562,2333.960,1555.510,422.980
436,51170.762000,177.915,30.680,-42.833,444.674,167.346,-255.609,1404.960,2302.510,523.980
437,51170.783000,202.625,48.786,-76.700,474.646,154.262,-201.900,803.960,2609.510,429.980
438,51170.820000,276.757,89.022,-98.615,488.201,147.447,-164.758,62.960,2337.510,346.980
439,51170.862000,249.081,77.957,-125.510,502.780,143.834,-114.793,-274.040,1927.510,306.980
440,51170.912000,264.896,28.668,-251.019,506.642,136.752,-85.523,-1305.040,444.510,87.980
441,51170.944000,318.270,-20.621,51.798,507.550,130.030,-82.728,-675.040,-195.490,396.980
442,51170.981000,304.432,-14.585,73.712,509.474,127.309,-74.939,779.960,670.510,28.980
443,51171.21000,289.606,49.792,117.541,513.384,130.367,-69.960,1024.960,389.510,-20.020
444,51171.43000,261.931,88.016,119.533,510.420,124.470,-72.058,-287.040,-480.490,-56.020
445,51171.84000,283.676,126.240,-45.821,511.463,136.648,-92.379,-1531.040,-1334.490,-39.020
446,51171.121000,317.282,59.851,-109.572,497.873,139.601,-128.627,-2902.040,-2319.490,90.980
447,51171.165000,241.174,-10.562,-50.802,478.808,174.709,-156.327,-3033.040,-2073.490,-496.020
448,51171.202000,204.602,18.609,-93.634,463.510,200.060,-188.158,-1382.040,-1798.490,-529.020
449,51171.257000,183.846,14.585,-29.883,448.090,211.042,-211.483,-712.040,-1221.490,-588.020
450,51171.281000,145.297,3.521,-33.868,434.638,222.366,-220.086,113.960,-483.490,-647.020
451,51171.326000,158.147,-4.527,-5.977,435.733,235.040,-217.841,-213.040,337.510,-838.020
452,51171.361000,210.533,12.574,-74.708,438.829,251.896,-202.750,69.960,824.510,-870.020
453,51171.385000,326.178,23.639,-52.794,441.002,270.922,-176.826,-1189.040,665.510,-514.020
454,51171.425000,258.965,-20.621,-95.626,444.153,290.950,-149.897,-1251.040,444.510,-198.020
455,51171.466000,277.745,-27.662,-31.875,452.945,294.487,-125.284,-828.040,527.510,-153.020
456,51171.509000,262.919,8.550,-17.930,453.016,298.694,-110.480,-275.040,477.510,-191.020
457,51171.550000,258.965,-4.527,-71.720,456.956,303.802,-100.552,-92.040,422.510,-162.020
458,51171.582000,283.676,-26.656,23.907,456.968,305.679,-103.452,425.960,23.510,-24.020
459,51171.625000,322.224,70.916,13.946,457.952,307.608,-104.388,-239.040,-259.490,-96.020
460,51171.662000,250.069,30.680,-76.700,457.928,304.739,-102.491,-600.040,-368.490,13.980
461,51171.681000,214.486,69.910,-66.739,452.170,309.537,-102.396,-324.040,-193.490,-85.020
462,51171.725000,232.278,72.927,-64.747,453.208,316.385,-100.281,-164.040,79.510,-25.020
463,51171.762000,256.988,66.892,-14.942,454.227,319.523,-90.402,-418.040,173.510,-92.020
464,51171.805000,261.931,64.880,-33.868,457.177,321.774,-77.597,-1180.040,-11.490,12.980
465,51171.844000,274.780,2.515,-33.868,457.225,323.996,-64.799,-840.040,114.510,-10.020
466,51171.882000,256.988,28.668,-27.891,456.261,322.260,-55.033,255.960,329.510,-201.020
467,51171.925000,224.371,83.992,-2.988,452.462,329.062,-52.929,-57.040,128.510,-143.020
468,51171.962000,254.023,67.898,-9.961,454.477,336.891,-50.790,-207.040,53.510,-86.020
469,51172.5000,223.382,72.927,-18.926,453.488,334.033,-47.913,-55.040,15.510,-12.020
470,51172.23000,233.266,68.904,-7.969,454.415,330.138,-48.978,97.960,5.510,4.980
471,51172.61000,251.058,61.862,-4.981,452.405,323.236,-53.059,-122.040,-199.490,13.980
472,51172.104000,246.116,67.898,-29.883,449.548,328.041,-53.939,-263.040,-215.490,13.980
473,51172.141000,245.127,63.874,-17.930,451.551,334.877,-52.802,-146.040,-192.490,66.980
474,51172.183000,237.220,54.821,-47.813,454.435,333.849,-56.741,53.960,-106.490,48.980
475,51172.226000,257.977,34.703,-34.864,449.565,329.961,-54.877,63.960,95.510,-98.020
476,51172.264000,225.359,59.851,-4.981,448.581,328.916,-57.844,333.960,83.510,-92.020
477,51172.307000,235.243,65.886,-27.891,450.563,334.674,-61.634,124.960,-37.490,-44.020
478,51172.326000,230.301,99.081,-23.907,445.717,333.656,-61.667,-170.040,-97.490,54.980
479,51172.366000,251.058,70.916,-22.911,450.497,327.878,-61.785,86.960,-72.490,139.980
480,51172.404000,237.220,48.786,-35.860,453.384,327.755,-68.647,-61.040,-217.490,154.980
481,51172.452000,262.919,49.792,-39.844,454.330,325.801,-69.669,2.960,-99.490,22.980
482,51172.485000,229.313,84.998,-21.914,448.528,326.651,-72.604,5.960,-77.490,9.980
483,51172.525000,234.255,62.868,-14.942,451.375,321.739,-76.630,-2.040,-201.490,68.980
484,51172.562000,245.127,56.833,-27.891,450.464,328.439,-80.406,139.960,-309.490,59.980
485,51172.605000,256.988,52.809,-71.720,453.344,327.367,-86.307,-69.040,-173.490,71.980
486,51172.623000,238.208,73.933,-35.860,454.238,320.516,-89.400,143.960,-36.490,54.980
487,51172.667000,247.104,27.662,-33.868,451.348,322.364,-92.307,-214.040,-226.490,99.980
488,51172.710000,239.197,50.798,-29.883,450.399,324.297,-92.266,-165.040,-345.490,-17.020
489,51172.742000,248.093,37.721,-76.700,450.368,323.110,-102.099,155.960,-263.490,-72.020
490,51172.785000,225.359,79.969,-85.665,448.424,323.005,-106.028,94.960,-2.490,-96.020
491,51172.822000,208.556,61.862,-87.658,449.452,327.998,-100.031,-51.040,174.510,-123.020
492,51172.866000,293.560,29.674,-32.872,447.472,322.262,-95.259,75.960,400.510,-69.020
493,51172.903000,233.266,70.916,-44.825,445.612,330.010,-95.091,688.960,452.510,-214.020
494,51172.945000,256.000,57.839,-41.837,444.663,331.942,-95.050,548.960,389.510,-177.020
495,51172.962000,243.151,70.916,-28.887,443.666,329.883,-100.001,637.960,361.510,-106.020
496,51173.4000,234.255,70.916,-39.844,445.567,325.177,-94.218,422.960,278.510,28.980
497,51173.46000,253.035,47.780,-27.891,448.456,324.191,-96.195,373.960,216.510,70.980
498,51173.85000,229.313,51.804,-32.872,448.362,316.252,-104.216,487.960,148.510,47.980
499,51173.126000,226.347,88.016,-27.891,448.400,320.135,-104.130,220.960,83.510,44.980
500,51173.165000,237.220,31.686,-44.825,448.379,318.172,-105.154,159.960,48.510,74.980
501,51173.206000,250.069,79.969,-10.957,450.330,320.111,-106.088,106.960,-69.490,68.980
502,51173.247000,243.151,42.750,-20.918,449.281,312.270,-109.206,-28.040,-269.490,138.980
503,51173.266000,258.965,66.892,-8.965,451.198,313.001,-120.954,142.960,-410.490,78.980
504,51173.303000,292.571,45.768,2.988,447.301,312.704,-132.737,253.960,-757.490,125.980
505,51173.342000,336.062,3.521,11.953,438.425,301.315,-161.447,678.960,-1031.490,-47.020
506,51173.386000,326.178,123.222,-35.860,432.565,301.603,-189.892,401.960,-844.490,108.980
507,51173.423000,224.371,81.980,-208.187,419.806,285.645,-204.003,-274.040,-964.490,484.980
508,51173.466000,194.718,99.081,-212.171,412.895,276.323,-227.760,-359.040,-1498.490,268.980
509,51173.506000,131.459,70.916,-122.521,393.616,290.008,-258.878,293.960,-1293.490,220.980
510,51173.543000,112.680,3.521,-76.700,380.916,281.665,-279.684,683.960,-838.490,-77.020
511,51173.588000,135.413,-6.538,-33.868,379.717,261.829,-298.759,1048.960,-292.490,10.980
512,51173.606000,113.668,-6.538,-20.918,383.531,256.926,-302.783,421.960,436.510,87.980
513,51173.643000,131.459,-7.544,-308.794,396.055,249.497,-293.115,372.960,602.510,-65.020
514,51173.686000,275.768,-18.609,-189.261,399.961,254.281,-297.904,-380.040,-33.490,-181.020
515,51173.726000,270.826,-20.621,-100.607,395.140,255.270,-294.950,-348.040,199.510,-230.020
516,51173.764000,379.552,40.739,-37.852,399.998,257.280,-293.914,452.960,274.510,-103.020
517,51173.805000,320.247,75.945,-54.786,400.961,257.246,-295.874,471.960,141.510,-154.020
518,51173.847000,307.398,-1.509,-114.553,392.204,252.286,-296.984,-0.040,-139.490,-388.020
519,51173.885000,283.676,-13.580,-126.506,377.642,249.901,-310.797,1287.960,-47.490,-631.020
520,51173.904000,255.012,-112.157,-73.712,374.677,244.867,-317.779,1445.960,275.510,-270.020
521,51173.943000,205.591,-88.016,-34.864,383.093,216.624,-326.234,2085.960,924.510,-6.020
522,51174.24000,178.903,-62.868,-30.879,406.882,174.314,-319.277,2184.960,1468.510,288.980
523,51174.50000,154.193,-44.762,-132.482,419.322,155.516,-297.113,1462.960,2106.510,369.980
524,51174.71000,197.683,4.527,-94.630,449.174,132.464,-255.393,1185.960,2441.510,413.980
525,51174.106000,253.035,-1.509,-46.817,476.263,122.178,-205.551,831.960,2442.510,330.980
526,51174.175000,226.347,56.833,-70.724,492.719,112.737,-156.693,-349.040,1937.510,545.980
527,51174.247000,218.440,189.611,-165.354,504.376,109.786,-119.468,-1577.040,1437.510,439.980
528,51174.271000,274.780,-105.116,-243.051,505.436,115.966,-103.638,-2776.040,-304.490,173.980
529,51174.280000,359.784,46.774,46.817,507.365,114.172,-97.790,-285.040,23.510,301.980
530,51174.292000,309.375,59.851,85.665,510.157,102.572,-97.061,1483.960,388.510,-209.020
531,51174.327000,323.212,57.839,79.689,508.304,111.269,-97.853,982.960,57.510,-339.020
532,51174.366000,258.965,92.039,-25.899,509.337,120.707,-110.390,359.960,-683.490,-385.020
533,51174.410000,261.931,43.756,-158.381,501.570,123.889,-138.775,-1106.040,-1642.490,-181.020
534,51174.450000,283.676,51.804,-63.751,482.320,142.255,-177.634,-1685.040,-1814.490,-509.020
535,51174.487000,231.290,52.809,-35.860,462.188,167.602,-207.514,-1513.040,-1896.490,-610.020
536,51174.527000,213.498,9.556,-53.790,442.070,192.194,-227.605,-2174.040,-1518.490,-713.020
537,51174.548000,189.776,-35.709,-17.930,434.752,235.786,-227.633,-1826.040,-921.490,-815.020
538,51174.586000,177.915,-40.739,-1.992,427.297,262.204,-214.314,-1442.040,-189.490,-531.020
539,51174.623000,201.637,-117.187,-51.798,434.292,279.379,-186.459,-1148.040,778.510,-252.020
540,51174.669000,281.699,-33.697,-57.774,442.189,289.767,-158.754,-171.040,1108.510,-310.020
541,51174.706000,297.514,3.521,-86.661,448.991,287.481,-133.293,-529.040,728.510,-67.020
542,51174.747000,308.386,-80.974,-113.556,455.877,295.680,-116.425,-989.040,315.510,33.980
543,51174.785000,280.710,81.980,33.868,457.858,298.784,-108.507,-451.040,269.510,-48.020
544,51174.831000,264.896,78.963,82.677,458.848,299.010,-98.693,-729.040,188.510,-117.020
545,51174.865000,281.699,8.550,-45.821,456.917,298.149,-92.832,-361.040,-221.490,56.980
546,51174.888000,261.931,-2.515,-66.739,458.939,307.812,-95.556,390.960,102.510,-122.020
547,51174.927000,221.405,100.086,-15.938,455.063,307.710,-98.508,-65.040,-80.490,-162.020
548,51174.970000,241.174,82.986,-18.926,455.032,304.775,-99.554,-128.040,-128.490,-88.020
549,51175.7000,243.151,47.780,-36.856,455.117,312.629,-95.457,-607.040,-324.490,-25.020
550,51175.46000,258.965,55.827,-50.802,453.167,309.827,-89.639,-290.040,-73.490,-113.020
551,51175.90000,246.116,62.868,-47.813,451.338,320.509,-88.425,-306.040,-12.490,-174.020
552,51175.128000,281.699,31.686,-20.918,448.466,323.415,-87.386,175.960,145.510,-154.020
553,51175.165000,244.139,59.851,-33.868,449.462,326.337,-87.319,206.960,168.510,-142.020
554,51175.187000,222.394,92.039,-36.856,447.525,325.412,-84.402,-99.040,-28.490,-42.020
555,51175.226000,234.255,71.921,-36.856,443.671,326.410,-81.446,-247.040,-77.490,-13.020
556,51175.266000,233.266,66.892,-9.961,443.678,327.359,-82.405,-347.040,-90.490,-62.020
557,51175.308000,252.046,47.780,-22.911,442.765,332.268,-79.356,-339.040,-222.490,-38.020
558,51175.346000,241.174,53.815,-33.868,441.795,333.122,-84.243,-122.040,-225.490,-70.020
559,51175.386000,257.977,54.821,-26.895,444.660,329.267,-84.322,10.960,-198.490,-94.020
560,51175.429000,239.197,90.028,-50.802,434.984,330.036,-89.229,-171.040,-198.490,-70.020
561,51175.481000,250.069,66.892,-51.798,438.846,329.124,-88.260,-135.040,-16.490,-8.020
562,51175.492000,245.127,57.839,-21.914,435.080,339.766,-88.032,367.960,140.510,-93.020
563,51175.525000,278.734,-9.556,-51.798,433.139,339.682,-90.980,269.960,253.510,-71.020
564,51175.577000,209.544,122.216,-38.848,435.074,340.586,-94.878,589.960,200.510,-204.020
565,51175.605000,222.394,95.057,-38.848,432.126,334.840,-90.109,-102.040,24.510,38.980
566,51175.645000,231.290,90.028,-28.887,435.968,331.965,-90.165,-177.040,-5.490,140.980
567,51175.687000,251.058,39.733,-35.860,435.972,332.008,-88.202,17.960,-0.490,137.980
568,51175.725000,224.371,73.933,-29.883,436.980,335.923,-87.133,-126.040,-74.490,63.980
569,51175.767000,240.185,78.963,-33.868,439.868,334.937,-89.110,-103.040,-117.490,68.980
570,51175.806000,244.139,67.898,-41.837,438.896,334.884,-91.074,-84.040,-85.490,71.980
571,51175.825000,242.162,76.951,-32.872,438.818,327.096,-92.228,-238.040,-130.490,75.980
572,51175.867000,223.382,24.644,-41.837,438.840,329.059,-91.204,-150.040,-228.490,80.980
573,51175.905000,278.734,62.868,-43.829,440.765,328.992,-95.124,53.960,-196.490,15.980
574,51175.947000,237.220,81.980,-37.852,437.840,327.863,-101.039,109.960,-219.490,47.980
575,51175.985000,234.255,31.686,-42.833,435.922,329.765,-101.981,-283.040,-302.490,72.980
576,51176.27000,222.394,38.727,-56.778,440.705,324.893,-105.021,-481.040,-409.490,-29.020
577,51176.70000,264.896,92.039,-57.774,434.927,328.612,-109.854,-162.040,-294.490,-44.020
578,51176.107000,249.081,76.951,-73.712,435.965,336.345,-111.642,-104.040,-157.490,54.980
579,51176.132000,256.000,27.662,-62.755,433.077,337.331,-109.665,129.960,68.510,-76.020
580,51176.166000,233.266,72.927,-56.778,433.978,330.544,-109.814,-20.040,102.510,-112.020
581,51176.209000,232.278,66.892,-60.763,432.093,334.517,-104.826,31.960,198.510,-58.020
582,51176.246000,247.104,58.845,-60.763,433.041,332.584,-104.867,293.960,330.510,-17.020
583,51176.291000,261.931,20.621,-52.794,434.046,335.593,-100.875,400.960,386.510,-35.020
584,51176.327000,212.510,99.081,-51.798,434.051,336.520,-102.816,313.960,258.510,-98.020
585,51176.368000,258.965,43.756,-39.844,434.050,335.636,-98.913,195.960,275.510,17.980
586,51176.406000,240.185,59.851,-35.860,436.891,328.911,-97.095,312.960,246.510,39.980
587,51176.450000,240.185,59.851,-29.883,439.836,333.750,-98.943,432.960,270.510,33.980
588,51176.467000,228.324,81.980,-32.872,442.682,327.954,-99.065,326.960,177.510,29.980
589,51176.510000,239.197,48.786,-32.872,441.663,323.047,-101.138,331.960,102.510,109.980
590,51176.547000,264.896,63.874,-42.833,442.609,321.093,-102.160,318.960,128.510,86.980
591,51176.590000,254.023,65.886,-41.837,445.419,311.434,-101.388,257.960,190.510,48.980
592,51176.627000,223.382,79.969,-27.891,444.466,313.323,-103.309,262.960,121.510,118.980
593,51176.668000,252.046,50.798,-13.946,449.313,315.226,-107.179,212.960,-49.490,203.980
594,51176.706000,269.838,27.662,9.961,450.220,310.251,-113.172,126.960,-220.490,58.980
595,51176.749000,327.166,11.568,42.833,446.227,301.109,-130.054,549.960,-664.490,1.980
596,51176.766000,355.830,71.921,-0.996,433.650,308.020,-163.270,1081.960,-1087.490,-289.020
597,51176.808000,263.907,130.263,-252.016,414.201,304.229,-194.776,525.960,-1154.490,-140.020
598,51176.846000,235.243,122.216,-262.973,398.677,305.416,-222.241,-488.040,-1832.490,368.980
599,51176.890000,160.124,46.774,-144.436,381.245,308.590,-246.724,-850.040,-1854.490,407.980
600,51176.930000,98.842,38.727,-84.669,369.488,299.135,-274.417,267.960,-1167.490,286.980
601,51176.966000,61.282,5.532,-86.661,364.366,275.227,-300.456,1148.960,-485.490,313.980
602,51177.8000,90.934,44.762,-48.809,370.988,261.528,-308.591,1106.960,261.510,242.980
603,51177.46000,182.857,-61.862,-356.607,380.493,244.147,-308.957,538.960,745.510,-64.020
604,51177.70000,285.652,-32.692,-58.770,390.134,240.401,-307.058,146.960,482.510,-9.020
605,51177.108000,310.363,-5.532,-66.739,399.768,236.590,-308.103,138.960,242.510,103.980
606,51177.147000,436.880,49.792,-8.965,398.845,239.644,-301.173,-755.040,-13.490,94.980
607,51177.186000,365.714,6.538,-55.782,392.092,241.520,-301.145,-13.040,-168.490,-39.020
608,51177.228000,263.907,22.633,-111.564,389.162,239.464,-305.120,796.960,18.510,-218.020
609,51177.271000,194.718,-80.974,-168.342,378.549,244.042,-312.886,751.960,-64.490,-665.020
610,51177.307000,135.413,-72.927,-111.564,369.817,242.835,-319.796,1138.960,249.510,-599.020
611,51177.350000,141.344,-115.175,-102.599,373.510,225.332,-323.118,1952.960,942.510,-479.020
612,51177.390000,149.251,-112.157,-34.864,386.695,186.802,-316.101,2500.960,1542.510,-96.020
613,51177.434000,191.753,-39.733,-49.805,417.483,164.343,-292.018,1584.960,2155.510,265.980
614,51177.461000,265.884,-0.503,-71.720,448.264,137.417,-250.382,1310.960,2435.510,243.980
615,51177.496000,262.919,37.721,-64.747,468.636,135.500,-214.097,706.960,2594.510,264.980
616,51177.538000,272.803,47.780,-63.751,488.979,126.270,-157.381,379.960,2467.510,238.980
617,51177.571000,280.710,113.163,-88.654,501.569,117.719,-110.472,-218.040,1749.510,374.980
618,51177.646000,246.116,125.234,-37.852,507.417,115.553,-79.127,-1197.040,899.510,205.980
619,51177.690000,291.583,49.792,-113.556,510.356,116.811,-67.325,-1676.040,125.510,314.980
620,51177.705000,283.676,-11.568,19.922,511.312,115.828,-68.325,481.960,18.510,-154.020
621,51177.727000,272.803,38.727,49.805,511.307,115.785,-70.288,562.960,54.510,-242.020
622,51177.750000,272.803,69.910,-50.802,511.332,119.539,-76.088,-497.040,-555.490,-141.020
623,51177.792000,270.826,76.951,14.942,508.488,129.759,-95.481,-646.040,-1084.490,-445.020
624,51177.847000,252.046,69.910,-63.751,495.095,150.447,-119.566,-1336.040,-1367.490,-659.020
625,51177.873000,278.734,32.692,-52.794,486.586,176.036,-143.533,-1522.040,-1570.490,-705.020
626,51177.908000,240.185,-43.756,-42.833,472.168,191.752,-172.634,-184.040,-1347.490,-656.020
627,51177.953000,239.197,62.868,-44.825,456.720,200.706,-199.926,-635.040,-1446.490,-435.020
628,51177.992000,198.672,-79.969,0.000,449.158,219.940,-204.419,-1460.040,-1051.490,-644.020
629,51178.28000,227.336,-61.862,-21.914,437.726,240.021,-212.823,-119.040,-312.490,-622.020
630,51178.50000,259.954,6.538,-18.926,439.753,248.842,-209.681,62.960,127.510,-455.020
631,51178.90000,263.907,23.639,-15.938,439.899,260.816,-194.705,-574.040,388.510,-100.020
632,51178.130000,267.861,25.650,-96.623,449.666,266.196,-174.952,-943.040,317.510,25.980
633,51178.172000,283.676,34.703,-1.992,450.853,284.156,-152.976,-2001.040,118.510,43.980
634,51178.211000,266.873,28.668,-45.821,456.723,285.722,-128.412,-1663.040,-42.490,178.980
635,51178.251000,283.676,-10.562,-23.907,456.844,295.690,-116.423,-1096.040,-130.490,-20.020
636,51178.288000,272.803,-15.591,-23.907,455.900,297.665,-114.420,-281.040,-129.490,-78.020
637,51178.327000,254.023,0.503,-49.805,458.805,297.715,-113.432,-199.040,-219.490,-3.020
638,51178.351000,236.232,1.509,-54.786,456.856,296.682,-115.420,-306.040,-191.490,119.980
639,51178.390000,223.382,51.804,-49.805,453.946,295.705,-114.467,-266.040,-145.490,17.980
640,51178.427000,249.081,78.963,-65.743,453.942,296.546,-120.333,52.960,-163.490,-113.020
641,51178.467000,248.093,36.715,-36.856,448.175,300.373,-120.260,64.960,-158.490,-74.020
642,51178.510000,268.849,69.910,-31.875,453.957,299.329,-126.155,-178.040,-182.490,-81.020
643,51178.549000,244.139,27.662,-41.837,448.121,295.454,-123.311,-396.040,-234.490,-2.020
644,51178.591000,236.232,90.028,-51.798,447.237,304.161,-124.100,-189.040,-49.490,-146.020
645,51178.628000,241.174,-14.585,-100.607,450.209,310.144,-118.077,-248.040,2.510,-33.020
646,51178.648000,255.012,38.727,-57.774,451.137,307.133,-123.046,950.960,397.510,-291.020
647,51178.695000,193.730,168.487,-47.813,447.326,312.057,-118.041,-404.040,143.510,-144.020
648,51178.730000,257.977,52.809,-57.774,451.283,318.222,-104.167,-1172.040,9.510,11.980
649,51178.768000,279.722,6.538,-45.821,449.340,314.600,-91.502,-620.040,143.510,-98.020
650,51178.812000,245.127,49.792,-47.813,445.592,325.414,-83.425,-78.040,290.510,-186.020
651,51178.852000,249.081,65.886,-20.918,444.695,331.360,-77.411,4.960,301.510,-152.020
652,51178.890000,230.301,77.957,-21.914,449.538,330.587,-70.553,-46.040,207.510,-101.020
653,51178.932000,226.347,78.963,-15.938,445.710,333.591,-64.611,-260.040,-0.490,-11.020
654,51178.970000,246.116,23.639,-22.911,444.695,328.727,-64.721,-161.040,-48.490,-35.020
655,51178.988000,247.104,82.986,-11.953,441.742,324.686,-70.701,-15.040,-160.490,-97.020
656,51179.32000,244.139,67.898,-37.852,440.916,339.240,-70.379,-84.040,-249.490,-45.020
657,51179.71000,247.104,55.827,-52.794,438.002,339.104,-75.292,-75.040,-197.490,-82.020
658,51179.108000,230.301,73.933,-68.732,437.995,338.154,-74.332,-14.040,7.510,-96.020
659,51179.148000,253.035,67.898,-40.840,435.093,338.126,-74.339,126.960,187.510,-53.020
660,51179.210000,226.347,91.033,-19.922,434.130,338.160,-72.379,56.960,106.510,4.980
661,51179.231000,255.012,43.756,-20.918,437.042,339.159,-72.351,-59.040,-18.490,-0.020
662,51179.268000,235.243,69.910,-31.875,437.129,347.918,-71.175,46.960,-90.490,-58.020
663,51179.288000,241.174,79.969,-35.860,439.034,345.888,-76.120,-116.040,-146.490,-44.020
664,51179.330000,230.301,88.016,-32.872,434.163,342.000,-74.255,-11.040,-153.490,43.980
665,51179.368000,237.220,87.010,-39.844,431.172,334.075,-80.321,-0.040,-162.490,69.980
666,51179.411000,243.151,55.827,-41.837,436.073,341.782,-85.043,8.960,-188.490,61.980
667,51179.448000,229.313,43.756,-47.813,430.297,345.522,-88.895,-123.040,-256.490,22.980
668,51179.491000,255.012,73.933,-47.813,435.090,341.621,-91.913,105.960,-163.490,-56.020
669,51179.528000,236.232,26.656,-67.735,436.010,336.776,-92.019,-181.040,-136.490,15.980
670,51179.572000,237.220,109.139,-39.844,430.227,339.568,-94.911,258.960,25.510,-118.020
671,51179.591000,238.208,61.862,-54.786,429.295,343.420,-95.808,-126.040,-110.490,20.980
672,51179.630000,244.139,53.815,-57.774,432.226,346.361,-95.737,40.960,2.510,-22.020
673,51179.668000,239.197,111.151,-53.790,430.187,335.663,-95.979,114.960,76.510,-54.020
674,51179.708000,235.243,66.892,-45.821,432.193,342.521,-93.861,-93.040,93.510,48.980
675,51179.748000,246.116,43.756,-57.774,433.105,335.842,-89.104,67.960,240.510,60.980
676,51179.788000,261.931,61.862,-29.883,436.053,340.703,-89.970,423.960,373.510,-4.020
677,51179.830000,219.429,80.974,-47.813,435.127,344.620,-87.924,532.960,381.510,-104.020
678,51179.872000,223.382,92.039,-29.883,435.059,337.803,-89.056,405.960,360.510,-70.020
679,51179.916000,258.965,41.745,-44.825,437.929,334.875,-91.076,375.960,315.510,35.980
680,51179.931000,212.510,98.075,-13.946,436.989,336.894,-87.111,454.960,255.510,-2.020
681,51179.976000,256.000,30.680,-28.887,438.776,323.169,-94.277,473.960,123.510,80.980
682,51180.13000,239.197,92.039,-16.934,434.017,331.795,-97.037,468.960,-0.490,19.980
683,51180.51000,226.347,78.963,-29.883,439.797,330.730,-103.913,199.960,-112.490,132.980
684,51180.93000,259.954,38.727,-20.918,438.780,326.729,-108.907,175.960,-164.490,150.980
685,51180.132000,259.954,50.798,-34.864,436.705,313.917,-117.041,271.960,-228.490,168.980
686,51180.170000,278.734,45.768,14.942,436.660,313.485,-136.664,332.960,-551.490,84.980
687,51180.212000,443.799,-10.562,32.872,429.782,307.120,-158.395,1476.960,-896.490,148.980
688,51180.231000,283.676,140.322,-84.669,420.902,296.571,-192.971,136.960,-1119.490,547.980
689,51180.273000,165.066,147.363,-353.619,411.142,291.256,-209.781,-1162.040,-1743.490,717.980
690,51180.312000,106.749,30.680,-160.374,391.763,294.304,-239.174,-1021.040,-1981.490,303.980
691,51180.350000,-18.780,-53.815,-72.716,378.002,279.760,-276.790,1412.960,-1006.490,-3.020
692,51180.392000,19.768,6.538,-42.833,381.439,241.308,-306.076,2311.960,271.510,23.980
693,51180.433000,110.703,28.668,13.946,390.063,233.562,-309.172,1361.960,806.510,-234.020
694,51180.471000,233.266,-17.603,-249.027,398.699,225.923,-307.362,736.960,641.510,-524.020
695,51180.513000,422.054,-74.939,-17.930,399.676,226.903,-307.338,-749.040,266.510,-68.020
696,51180.532000,475.429,74.939,46.817,398.737,228.922,-303.372,-137.040,211.510,-134.020
697,51180.573000,376.587,-40.739,-29.883,387.201,237.438,-308.111,271.960,-307.490,-543.020
698,51180.610000,280.710,-89.022,-162.366,377.533,240.926,-321.783,803.960,-343.490,-349.020
699,51180.653000,215.475,-81.980,-49.805,369.709,232.997,-325.898,813.960,287.510,54.980
700,51180.711000,194.718,-107.128,41.837,385.921,207.138,-317.612,1705.960,1323.510,441.980
701,51180.741000,154.193,-40.739,6.973,420.413,165.514,-284.140,2117.960,2820.510,466.980
702,51180.772000,209.544,43.756,-109.572,455.136,143.718,-231.595,1685.960,3233.510,192.980
703,51180.810000,308.386,110.145,-188.265,485.284,145.520,-162.845,-161.040,2805.510,116.980
704,51180.850000,253.035,77.957,-203.206,498.985,149.794,-106.824,-997.040,2015.510,235.980
705,51180.873000,244.139,109.139,-195.237,502.779,136.779,-82.588,-1673.040,756.510,455.980
706,51180.913000,308.386,20.621,-45.821,502.823,140.727,-79.559,-841.040,-256.490,26.980
707,51180.955000,311.351,6.538,61.759,500.900,142.585,-82.463,904.960,145.510,-402.020
708,51181.35000,279.722,110.145,-1.992,500.977,152.121,-90.097,1821.960,-1.490,-465.020
709,51181.70000,298.502,98.075,-67.735,491.281,155.350,-115.543,-202.040,-1143.490,-193.020
710,51181.87000,186.811,57.839,-85.665,484.607,171.184,-142.664,-1650.040,-1716.490,-664.020
711,51181.112000,230.301,63.874,-71.720,460.683,204.282,-171.399,-2213.040,-1935.490,-849.020
712,51181.152000,218.440,-6.538,-94.630,449.320,231.180,-178.672,-2294.040,-1765.490,-862.020
713,51181.170000,194.718,-25.650,-97.619,425.430,264.601,-192.690,-1854.040,-1515.490,-886.020
714,51181.213000,136.402,-93.045,-41.837,418.807,280.932,-197.245,-485.040,-462.490,-424.020
715,51181.262000,206.579,-29.674,15.938,421.852,293.776,-188.127,-374.040,344.510,-219.020
716,51181.301000,285.652,37.721,-57.774,433.558,298.333,-162.504,-819.040,816.510,-172.020
717,51181.337000,437.869,-37.721,53.790,438.513,306.557,-143.679,-318.040,215.510,138.980
718,51181.373000,366.703,-23.639,159.377,448.222,307.860,-132.842,-258.040,403.510,110.980
719,51181.411000,286.641,-8.550,-54.786,448.263,310.017,-122.988,-797.040,-147.490,68.980
720,51181.455000,207.568,49.792,-77.696,449.319,317.923,-116.926,-316.040,148.510,-158.020
721,51181.473000,231.290,120.204,-25.899,446.376,312.220,-110.194,-244.040,295.510,-150.020
722,51181.511000,271.815,26.656,-43.829,445.489,317.389,-95.371,-869.040,195.510,44.980
723,51181.562000,271.815,26.656,-32.872,448.456,320.675,-79.602,-663.040,187.510,-91.020
724,51181.593000,242.162,35.709,-20.918,448.538,328.506,-76.486,111.960,312.510,-163.020
725,51181.631000,243.151,79.969,-2.988,447.601,331.431,-75.442,252.960,211.510,-177.020
726,51181.676000,226.347,88.016,1.992,444.725,334.294,-76.365,-79.040,-108.490,-18.020
727,51181.713000,234.255,51.804,-20.918,445.631,328.435,-78.455,-117.040,-205.490,30.980
728,51181.755000,236.232,62.868,-31.875,440.835,334.062,-85.204,132.960,-250.490,18.980
729,51181.792000,243.151,63.874,-29.883,439.811,329.112,-89.239,111.960,-298.490,-36.020
730,51181.811000,241.174,68.904,-74.708,438.857,331.864,-96.045,-48.040,-257.490,-15.020
731,51181.853000,251.058,70.916,-62.755,435.898,326.011,-96.181,-76.040,-53.490,-18.020
732,51181.891000,241.174,70.916,-44.825,439.793,328.939,-97.088,-10.040,-7.490,11.980
733,51181.938000,239.197,65.886,-38.848,437.863,328.964,-95.130,-174.040,5.510,11.980
734,51181.971000,237.220,73.933,-30.879,440.805,332.897,-94.056,7.960,-12.490,25.980
735,51182.13000,234.255,69.910,-27.891,439.824,331.873,-96.042,-30.040,-110.490,60.980
736,51182.51000,248.093,56.833,-23.907,439.732,323.071,-99.180,-0.040,-219.490,20.980
737,51182.95000,228.324,71.921,-33.868,436.836,325.740,-108.933,43.960,-261.490,50.980
738,51182.117000,234.255,50.798,-26.895,438.755,324.723,-111.894,25.960,-381.490,55.980
739,51182.153000,249.081,72.927,-55.782,434.873,323.693,-112.906,-196.040,-471.490,119.980
740,51182.191000,215.475,52.809,-59.767,436.821,327.358,-123.608,-136.040,-388.490,52.980
741,51182.235000,261.931,72.927,-37.852,434.856,326.174,-132.464,270.960,-386.490,-12.020
742,51182.273000,241.174,23.639,-100.607,429.914,317.195,-141.500,-63.040,-290.490,-28.020
743,51182.311000,235.243,57.839,-107.580,428.998,322.083,-139.432,37.960,-50.490,-86.020
744,51182.351000,240.185,82.986,-80.685,433.892,327.955,-139.291,113.960,194.510,-40.020
745,51182.393000,237.220,75.945,-82.677,431.032,330.969,-133.346,-20.040,346.510,70.980
746,51182.417000,244.139,61.862,-60.763,436.812,327.272,-127.532,-6.040,393.510,56.980
747,51182.451000,240.185,53.815,-40.840,439.664,320.655,-120.808,142.960,397.510,68.980
748,51182.491000,239.197,71.921,-37.852,439.697,323.610,-118.781,140.960,256.510,80.980
749,51182.540000,240.185,67.898,-43.829,445.513,323.775,-113.862,38.960,126.510,125.980
750,51182.572000,230.301,55.827,-43.829,445.454,317.928,-114.973,29.960,152.510,122.980
751,51182.615000,243.151,67.898,-49.805,447.370,316.005,-115.011,232.960,212.510,91.980
752,51182.655000,240.185,55.827,-44.825,449.288,313.219,-110.166,102.960,171.510,106.980
753,51182.692000,246.116,43.756,-26.895,452.110,304.553,-108.391,204.960,160.510,56.980
754,51182.735000,256.988,59.851,-10.957,451.134,305.342,-116.221,436.960,-176.490,111.980
755,51182.752000,278.734,37.721,-7.969,453.009,302.146,-130.017,291.960,-489.490,75.980
756,51182.792000,372.633,21.627,-24.903,441.369,303.500,-151.586,550.960,-801.490,-252.020
757,51182.835000,256.988,135.293,-207.191,427.741,300.801,-180.114,672.960,-968.490,-244.020
758,51182.877000,255.012,108.134,-324.732,412.210,301.039,-206.619,-158.040,-2143.490,61.980
759,51182.915000,214.486,52.809,-162.366,385.063,302.846,-244.882,-241.040,-2127.490,23.980
760,51182.952000,139.367,27.662,-41.837,360.778,301.661,-288.109,882.960,-1553.490,-64.020
761,51182.995000,39.537,6.538,12.949,351.842,283.540,-314.027,1179.960,-281.490,4.980
762,51183.32000,57.328,0.503,-71.720,365.221,266.240,-312.421,823.960,880.510,10.980
763,51183.56000,322.224,42.750,-202.210,377.697,255.704,-311.648,491.960,106.510,200.980
764,51183.95000,232.278,9.556,-116.545,379.584,249.984,-307.849,-510.040,192.510,-22.020
765,51183.132000,336.062,10.562,-65.743,380.718,265.678,-300.633,-367.040,11.510,77.980
766,51183.175000,412.170,-42.750,-21.914,374.963,271.382,-303.461,-23.040,-81.490,-356.020
767,51183.217000,321.236,-75.945,-136.467,369.107,267.313,-309.447,715.960,-98.490,-287.020
768,51183.253000,231.290,-73.933,-122.521,358.403,262.204,-316.448,279.960,-190.490,-134.020
769,51183.306000,205.591,-134.287,-44.825,360.241,252.492,-317.640,1570.960,692.510,-17.020
770,51183.346000,141.344,-86.004,-46.817,380.171,212.885,-318.477,2573.960,1506.510,244.980
771,51183.353000,147.274,-40.739,-51.798,403.171,187.243,-303.307,2398.960,2314.510,388.980
772,51183.395000,185.822,28.668,-77.696,440.691,156.543,-259.780,1613.960,2906.510,425.980
773,51183.432000,284.664,29.674,-91.642,473.460,131.017,-199.477,1314.960,3062.510,406.980
774,51183.473000,274.780,109.139,-127.502,490.987,129.632,-137.689,-91.040,2504.510,248.980
775,51183.516000,284.664,80.974,-337.681,497.804,125.729,-97.554,-1675.040,1513.510,252.980
776,51183.553000,325.189,71.921,35.860,505.583,128.824,-92.565,-1599.040,-503.490,380.980
777,51183.596000,330.131,-44.762,53.790,507.543,130.850,-89.574,-648.040,117.510,-87.020
778,51183.638000,305.421,-8.550,41.837,501.714,129.671,-96.477,1323.960,-202.490,-320.020
779,51183.673000,260.942,86.004,-129.494,497.839,133.107,-115.042,527.960,-823.490,-385.020
780,51183.697000,311.351,112.157,-67.735,486.297,147.730,-151.026,-1262.040,-1793.490,-419.020
781,51183.735000,213.498,61.862,-122.521,468.019,166.148,-187.921,-1617.040,-2192.490,-500.020
782,51183.781000,228.324,26.656,-90.646,445.073,201.111,-220.536,-2154.040,-2164.490,-673.020
783,51183.818000,169.019,-25.650,-52.794,419.216,232.442,-240.489,-1472.040,-1650.490,-890.020
784,51183.866000,139.367,-19.615,11.953,412.574,246.831,-245.087,-1132.040,-865.490,-885.020
785,51183.897000,157.158,-95.057,-1.992,407.105,279.050,-233.596,-945.040,407.510,-812.020
786,51183.940000,247.104,-42.750,-13.946,414.114,297.239,-203.757,-265.040,1195.510,-578.020
787,51183.976000,281.699,44.762,-121.525,429.801,309.946,-162.255,-934.040,1366.510,-166.020
788,51183.999000,356.819,-95.057,-261.977,439.527,309.652,-135.763,-1170.040,364.510,164.980
789,51184.35000,344.958,-17.603,186.272,440.482,306.899,-128.957,629.960,928.510,-137.020
790,51184.77000,322.224,95.057,6.973,442.421,306.077,-123.087,-99.040,182.510,-102.020
791,51184.117000,250.069,-37.721,-63.751,440.539,310.092,-116.138,-383.040,-64.490,-12.020
792,51184.156000,216.463,113.163,-25.899,443.516,317.003,-112.055,-164.040,106.510,-222.020
793,51184.193000,260.942,54.821,-62.755,447.472,324.031,-103.065,-675.040,38.510,37.980
794,51184.236000,270.826,24.644,-12.949,442.660,324.221,-92.284,-222.040,168.510,-172.020
795,51184.275000,261.931,8.550,-25.899,441.770,331.116,-87.229,-439.040,98.510,-96.020
796,51184.317000,243.151,74.939,-45.821,439.835,331.981,-91.137,253.960,107.510,-135.020
797,51184.336000,229.313,105.116,-28.887,437.930,334.012,-86.192,-90.040,28.510,-29.020
798,51184.373000,229.313,80.974,-5.977,437.961,336.946,-85.146,96.960,45.510,-66.020
799,51184.416000,240.185,55.827,-12.949,435.017,333.876,-91.105,-52.040,-179.490,13.980
800,51184.453000,238.208,66.892,-37.852,435.930,328.966,-94.154,-14.040,-308.490,-23.020
801,51184.496000,240.185,88.016,-46.817,432.063,329.835,-97.085,-299.040,-311.490,-2.020
802,51184.533000,245.127,42.750,-46.817,435.006,333.768,-96.011,-242.040,-177.490,49.980
803,51184.576000,244.139,87.010,-48.809,434.008,330.824,-97.059,-234.040,-82.490,-25.020
804,51184.613000,243.151,53.815,-35.860,436.029,338.718,-91.976,-264.040,-14.490,33.980
805,51184.637000,236.232,64.880,-38.848,435.979,332.958,-89.162,-42.040,5.510,20.980
806,51184.677000,243.151,66.892,-18.926,434.083,337.707,-92.983,-14.040,-83.490,10.980
807,51184.715000,236.232,65.886,-38.848,435.055,338.644,-94.922,-68.040,-171.490,-23.020
808,51184.757000,238.208,80.974,-41.837,433.066,333.706,-97.977,-120.040,-179.490,41.980
809,51184.796000,248.093,55.827,-43.829,434.083,338.591,-96.886,37.960,-137.490,26.980
810,51184.837000,235.243,83.992,-50.802,434.060,337.491,-102.795,-37.040,-146.490,23.980
811,51184.873000,243.151,67.898,-42.833,431.078,328.768,-101.033,67.960,-60.490,-31.020
812,51184.917000,250.069,66.892,-50.802,433.095,338.388,-105.719,-3.040,-74.490,-7.020
813,51184.953000,245.127,78.963,-39.844,433.100,339.316,-107.659,-59.040,-51.490,-2.020
814,51184.977000,236.232,61.862,-62.755,433.082,337.374,-107.702,-93.040,-54.490,61.980
815,51185.15000,262.919,30.680,-56.778,432.069,331.647,-102.928,141.960,158.510,59.980
816,51185.57000,241.174,53.815,-36.856,435.965,335.460,-107.739,560.960,217.510,12.980
817,51185.98000,222.394,106.122,-51.798,434.913,327.598,-111.838,491.960,146.510,-21.020
818,51185.136000,247.104,48.786,-50.802,433.976,330.523,-110.795,321.960,220.510,48.980
819,51185.177000,231.290,83.992,-49.805,436.820,325.589,-115.801,298.960,97.510,43.980
820,51185.219000,241.174,69.910,-42.833,438.691,318.833,-114.967,24.960,42.510,145.980
821,51185.257000,250.069,28.668,-54.786,437.712,317.831,-115.972,122.960,91.510,132.980
822,51185.277000,216.463,77.957,-34.864,441.589,317.934,-113.019,227.960,90.510,26.980
823,51185.318000,253.035,52.809,-34.864,440.603,316.867,-116.968,23.960,-8.490,94.980
824,51185.357000,241.174,59.851,-37.852,445.405,313.937,-119.965,300.960,-119.490,84.980
825,51185.397000,254.023,82.986,-50.802,441.517,312.842,-123.920,13.960,-148.490,75.980
826,51185.438000,265.884,65.886,-48.809,447.251,306.059,-126.020,-140.040,-54.490,161.980
827,51185.478000,292.571,3.521,-27.891,441.470,307.988,-124.028,-230.040,-245.490,122.980
828,51185.521000,274.780,23.639,-18.926,438.536,308.542,-141.673,240.960,-520.490,-91.020
829,51185.560000,260.942,66.892,-334.693,425.949,313.598,-171.008,-411.040,-1655.490,-5.020
830,51185.595000,249.081,-3.521,-184.280,409.427,310.956,-195.618,-730.040,-2179.490,-2.020
831,51185.618000,181.869,21.627,-55.782,391.861,305.803,-245.783,1742.960,-1434.490,-8.020
832,51185.663000,152.216,54.821,12.949,375.939,270.593,-295.631,2077.960,-840.490,109.980
833,51185.697000,104.772,41.745,5.977,377.607,246.923,-313.805,1319.960,348.510,135.980
834,51185.737000,232.278,190.617,-20.918,390.106,238.373,-311.026,978.960,708.510,-19.020
835,51185.781000,286.641,59.851,-109.572,393.065,243.342,-306.987,-372.040,206.510,4.980
836,51185.818000,273.792,4.527,-73.712,396.025,248.332,-301.967,-443.040,133.510,-12.020
837,51185.860000,383.506,-56.833,-39.844,395.067,248.409,-298.044,-32.040,-14.490,-246.020
838,51185.897000,379.552,-69.910,-45.821,385.365,247.171,-305.938,1100.960,19.510,-358.020
839,51185.923000,246.116,-0.503,-150.412,378.490,239.080,-317.900,233.960,-393.490,139.980
840,51185.958000,199.660,-22.633,-44.825,374.682,244.910,-315.817,-665.040,-79.490,307.980
841,51186.5000,238.208,-123.222,13.946,394.717,214.235,-307.630,1288.960,1085.510,541.980
842,51186.38000,229.313,-7.544,-13.946,422.359,166.526,-283.133,2950.960,2436.510,528.980
843,51186.78000,230.301,96.063,-111.564,449.291,144.157,-253.172,2428.960,2773.510,320.980
844,51186.115000,283.676,94.051,-56.778,474.455,133.939,-199.410,827.960,2644.510,296.980
845,51186.158000,261.931,62.868,-79.689,495.811,129.550,-143.564,187.960,2367.510,214.980
846,51186.196000,208.556,121.210,-193.245,502.607,124.568,-108.357,-1041.040,1106.510,328.980
847,51186.218000,231.290,-27.662,-241.058,504.471,116.863,-106.563,-865.040,-339.490,403.980
848,51186.257000,289.606,86.004,48.809,498.761,128.284,-114.166,-79.040,-500.490,-380.020
849,51186.295000,291.583,67.898,-153.401,493.855,124.936,-131.903,537.960,-1033.490,-242.020
850,51186.376000,298.502,141.328,-101.603,483.218,132.793,-167.055,-1737.040,-2212.490,-387.020
851,51186.403000,219.429,35.709,-44.825,462.246,171.680,-198.598,-3017.040,-2278.490,-597.020
852,51186.418000,244.139,13.580,-60.763,441.271,207.891,-219.413,-2690.040,-1807.490,-737.020
853,51186.466000,198.672,-53.815,-67.735,422.189,235.792,-221.776,-1437.040,-996.490,-820.020
854,51186.496000,188.788,-18.609,-49.805,411.851,266.778,-220.129,-1246.040,-478.490,-612.020
855,51186.542000,178.903,-81.980,-39.844,417.916,290.459,-204.881,-352.040,406.510,-660.020
856,51186.556000,239.197,-18.609,-42.833,417.940,289.811,-190.185,-100.040,922.510,-421.020
857,51186.597000,304.432,-5.532,-58.770,431.702,305.240,-156.471,-965.040,1128.510,-87.020
858,51186.640000,289.606,28.668,-98.615,439.507,305.056,-124.097,-785.040,952.510,-28.020
859,51186.677000,280.710,-79.969,-182.288,444.298,298.501,-115.406,278.960,-46.490,88.980
860,51186.720000,278.734,39.733,114.553,447.327,311.194,-113.157,76.960,311.510,-143.020
861,51186.759000,333.097,18.609,-28.887,443.467,311.243,-109.241,-548.040,-250.490,43.980
862,51186.802000,232.278,69.910,-58.770,446.412,316.082,-111.089,146.960,-96.490,-85.020
863,51186.840000,233.266,92.039,-57.774,445.420,312.319,-105.291,-315.040,98.510,-168.020
864,51186.858000,268.849,46.774,-49.805,443.639,326.108,-95.182,-476.040,117.510,-77.020
865,51186.900000,225.359,64.880,-52.794,441.729,326.326,-84.394,-440.040,133.510,-64.020
866,51186.946000,275.768,25.650,-38.848,443.745,332.407,-73.467,-319.040,227.510,-112.020
867,51186.978000,239.197,55.827,-10.957,440.843,332.379,-73.474,42.960,160.510,-169.020
868,51187.21000,254.023,55.827,-32.872,437.882,326.504,-74.591,37.960,79.510,-173.020
869,51187.63000,214.486,95.057,-33.868,436.020,334.230,-75.404,12.960,34.510,-114.020
870,51187.100000,242.162,60.857,-27.891,435.097,338.169,-72.377,-124.040,-22.490,16.980
871,51187.137000,215.475,90.028,-17.930,434.196,344.956,-72.228,-39.040,-156.490,-49.020
872,51187.180000,236.232,68.904,-13.946,432.233,342.909,-76.200,-201.040,-344.490,-8.020
873,51187.198000,252.046,61.862,-52.794,433.144,337.978,-80.230,-113.040,-277.490,-48.020
874,51187.240000,245.127,64.880,-44.825,431.222,339.836,-83.135,34.960,-169.490,5.980
875,51187.277000,244.139,67.898,-33.868,428.306,339.678,-89.029,-32.040,-202.490,-3.020
876,51187.325000,228.324,79.969,-43.829,428.337,343.497,-91.886,-109.040,-353.490,63.980
877,51187.358000,251.058,74.939,-49.805,430.274,344.422,-94.803,-183.040,-267.490,1.980
878,51187.396000,220.417,18.609,-76.700,430.288,345.436,-92.820,-133.040,-220.490,4.980
879,51187.437000,249.081,51.804,-37.852,428.307,341.447,-96.835,155.960,-84.490,-133.020
880,51187.476000,222.394,106.122,-54.786,424.503,349.090,-100.596,-73.040,-229.490,-25.020
881,51187.498000,259.954,36.715,-90.646,422.507,343.203,-102.692,9.960,7.510,-38.020
882,51187.538000,231.290,70.916,-60.763,418.692,348.969,-103.553,174.960,187.510,-111.020
883,51187.576000,249.081,61.862,-48.809,421.613,350.055,-99.600,52.960,207.510,-94.020
884,51187.616000,259.954,33.697,-43.829,423.491,343.364,-95.822,356.960,321.510,-76.020
885,51187.662000,214.486,93.045,-51.798,415.771,346.999,-103.603,817.960,315.510,-259.020
886,51187.696000,223.382,117.187,-28.887,413.891,353.668,-108.362,371.960,111.510,-111.020
887,51187.737000,218.440,88.016,-56.778,416.781,351.820,-105.455,-124.040,65.510,40.980
888,51187.780000,246.116,83.992,-39.844,418.687,348.041,-101.612,-116.040,80.510,99.980
889,51187.817000,243.151,46.774,-43.829,421.597,349.019,-102.565,258.960,181.510,24.980
890,51187.841000,227.336,99.081,-47.813,419.638,346.131,-100.672,230.960,146.510,-11.020
891,51187.881000,244.139,62.868,-44.825,421.575,346.171,-99.686,43.960,90.510,59.980
892,51187.918000,230.301,77.957,-35.860,418.614,340.296,-100.803,121.960,119.510,19.980
893,51187.961000,248.093,68.904,-39.844,423.510,346.190,-99.682,35.960,74.510,77.980
894,51187.998000,243.151,66.892,-43.829,422.465,338.392,-100.838,268.960,115.510,17.980
895,51188.37000,245.127,49.792,-47.813,425.346,337.342,-105.758,350.960,156.510,11.980
896,51188.81000,238.208,92.039,-50.802,425.328,335.400,-105.801,286.960,165.510,47.980
897,51188.125000,206.579,78.963,-42.833,427.300,339.302,-105.711,37.960,104.510,68.980
898,51188.143000,250.069,63.874,-32.872,429.235,338.436,-101.803,-30.040,68.510,70.980
899,51188.181000,267.861,67.898,-41.837,431.075,328.747,-102.014,-112.040,101.510,125.980
900,51188.218000,238.208,59.851,-40.840,432.101,332.834,-93.095,-51.040,166.510,53.980
901,51188.257000,251.058,44.762,-40.840,433.023,328.010,-92.220,23.960,248.510,38.980
902,51188.301000,236.232,83.992,-12.949,435.935,328.125,-88.289,155.960,246.510,32.980
903,51188.347000,254.023,60.857,-30.879,438.870,331.109,-86.255,45.960,199.510,109.980
904,51188.381000,243.151,61.862,-17.930,442.723,329.226,-85.308,241.960,209.510,80.980
905,51188.425000,241.174,75.945,-23.907,444.570,319.601,-82.576,82.960,87.510,131.980
906,51188.438000,235.243,59.851,-14.942,440.689,319.456,-87.490,66.960,22.510,140.980
907,51188.478000,245.127,70.916,-11.953,449.406,320.512,-87.448,-15.040,-133.490,139.980
908,51188.521000,262.919,16.597,4.981,447.412,315.530,-92.467,106.960,-358.490,114.980
909,51188.558000,308.386,21.627,-3.984,445.413,312.254,-108.234,128.960,-640.490,-68.020
910,51188.602000,307.398,18.609,-45.821,433.782,313.694,-125.879,117.960,-818.490,-87.020
911,51188.641000,280.710,72.927,-58.770,425.977,311.224,-146.544,612.960,-579.490,-23.020
912,51188.678000,256.988,72.927,-58.770,424.959,308.971,-160.325,168.960,-438.490,353.980
913,51188.727000,226.347,119.198,-141.447,423.929,304.841,-171.206,-305.040,-628.490,329.980
914,51188.760000,236.232,53.815,-158.381,416.976,291.593,-197.012,409.960,-965.490,72.980
915,51188.778000,243.151,-78.963,-96.623,401.464,292.888,-219.571,1481.960,-944.490,-90.020
916,51188.820000,231.290,-57.839,-42.833,400.054,256.935,-265.483,2295.960,-464.490,432.980
917,51188.865000,184.834,-67.898,-9.961,399.714,226.385,-286.755,1744.960,217.510,497.980
918,51188.897000,211.521,-69.910,63.751,413.867,188.749,-283.638,1808.960,1267.510,457.980
919,51188.955000,236.232,-52.809,22.911,440.731,161.332,-262.616,2124.960,1941.510,453.980
920,51188.980000,262.919,48.786,-28.887,462.876,141.161,-218.887,984.960,2103.510,389.980
921,51189.17000,256.000,60.857,-77.696,473.626,145.817,-188.360,-203.040,2024.510,168.980
922,51189.60000,260.942,81.980,-90.646,488.264,149.820,-145.092,-562.040,1824.510,89.980
923,51189.80000,245.127,-9.556,-274.926,493.258,157.526,-105.684,-818.040,1158.510,53.980
924,51189.122000,254.023,8.550,-45.821,498.047,150.949,-97.974,-749.040,-129.490,362.980
925,51189.160000,262.919,51.804,50.802,502.914,152.162,-89.111,-224.040,407.510,-27.020
926,51189.217000,313.328,48.786,32.872,497.972,140.550,-85.457,327.960,249.510,58.980
927,51189.278000,274.780,6.538,97.619,497.036,144.360,-88.316,200.960,-47.490,-125.020
928,51189.293000,301.467,18.609,67.735,498.016,147.131,-95.117,469.960,-330.490,-151.020
929,51189.322000,243.151,66.892,-44.825,495.139,153.510,-112.633,242.960,-879.490,-203.020
930,51189.360000,271.815,58.845,-143.440,486.451,160.653,-137.010,-916.040,-1480.490,16.980
931,51189.426000,225.359,41.745,-90.646,473.866,165.730,-165.363,-1606.040,-1616.490,-294.020
932,51189.443000,206.579,54.821,-46.817,462.478,192.391,-183.428,-1547.040,-1377.490,-566.020
933,51189.458000,218.440,-16.597,-67.735,448.128,212.293,-198.707,-1111.040,-1149.490,-643.020
934,51189.501000,221.405,-27.662,-56.778,439.533,225.606,-207.255,74.960,-657.490,-667.020
935,51189.540000,191.753,-7.544,-69.728,430.908,236.870,-220.753,189.960,-494.490,-488.020
936,51189.583000,227.336,0.503,-56.778,429.100,250.400,-222.417,-1124.040,-331.490,-487.020
937,51189.621000,272.803,-53.815,-39.844,424.448,267.095,-211.269,-1176.040,-169.490,-285.020
938,51189.661000,262.919,-49.792,-52.794,426.530,279.087,-196.289,-770.040,224.510,-10.020
939,51189.698000,253.035,-13.580,-45.821,434.340,282.485,-177.564,-437.040,465.510,-19.020
940,51189.722000,267.861,34.703,-43.829,437.305,285.750,-162.776,-564.040,531.510,-51.020
941,51189.760000,256.000,32.692,-82.677,441.244,289.973,-148.945,-887.040,401.510,81.980
942,51189.800000,254.023,47.780,-43.829,447.102,290.547,-125.384,-1215.040,192.510,75.980
943,51189.843000,237.220,38.727,-57.774,447.147,290.978,-105.761,-815.040,229.510,58.980
944,51189.881000,258.965,38.727,-42.833,448.264,303.868,-93.704,-459.040,247.510,-125.020
945,51189.918000,237.220,14.585,-63.751,451.220,307.931,-86.743,-385.040,11.510,-49.020
946,51189.961000,247.104,25.650,-45.821,454.080,303.148,-84.882,-180.040,20.510,-91.020
947,51190.0,254.023,70.916,-11.953,449.271,306.013,-84.829,71.960,50.510,-170.020
948,51190.18000,288.618,25.650,-42.833,448.327,307.989,-82.825,-286.040,-80.490,-77.020
949,51190.62000,252.046,20.621,-41.837,447.296,301.205,-81.997,-64.040,-63.490,-104.020
950,51190.100000,238.208,98.075,-43.829,445.504,315.770,-80.697,88.960,70.510,-187.020
951,51190.142000,253.035,56.833,-35.860,446.552,323.590,-78.560,-254.040,-2.490,-56.020
952,51190.181000,238.208,67.898,-40.840,446.532,320.764,-74.700,-229.040,-2.490,-47.020
953,51190.228000,252.046,60.857,-27.891,444.644,324.715,-70.694,-164.040,25.510,-72.020
954,51190.261000,229.313,86.004,-42.833,442.691,322.754,-70.742,-343.040,-45.490,-52.020
955,51190.300000,235.243,82.986,-23.907,438.853,324.787,-64.821,-514.040,-127.490,-44.020
956,51190.342000,267.861,-2.515,-33.868,441.809,329.735,-61.763,-234.040,-89.490,-73.020
957,51190.361000,244.139,67.898,-33.868,438.938,333.525,-64.626,39.960,-108.490,-117.020
958,51190.403000,245.127,62.868,-45.821,437.916,327.712,-63.777,-165.040,-127.490,-14.020
959,51190.442000,245.127,61.862,-40.840,434.063,329.595,-64.724,-21.040,-96.490,-45.020
960,51190.480000,253.035,81.980,-35.860,435.035,330.532,-66.662,191.960,49.510,-139.020
961,51190.522000,257.977,38.727,-54.786,434.134,338.203,-70.417,160.960,107.510,-126.020
962,51190.565000,237.220,71.921,-26.895,432.204,338.227,-68.459,343.960,177.510,-129.020
963,51190.602000,237.220,83.992,-34.864,431.263,341.993,-73.281,238.960,12.510,-25.020
964,51190.642000,248.093,58.845,-49.805,432.195,338.141,-72.384,149.960,-1.490,24.980
965,51190.663000,230.301,82.986,-42.833,428.286,335.083,-77.363,266.960,41.510,8.980
966,51190.703000,237.220,72.927,-39.844,431.205,337.031,-78.294,32.960,27.510,50.980
967,51190.741000,229.313,72.927,-31.875,429.281,337.120,-73.393,-1.040,-32.490,-1.020
968,51190.783000,244.139,62.868,-31.875,431.219,338.930,-80.213,-78.040,-123.490,50.980
969,51190.820000,250.069,62.868,-52.794,432.174,337.062,-77.311,-76.040,-42.490,21.980
970,51190.863000,239.197,67.898,-36.856,432.130,333.114,-80.341,94.960,50.510,-15.020
971,51190.901000,244.139,55.827,-38.848,428.272,334.069,-79.347,-21.040,-32.490,12.980
972,51190.943000,248.093,70.916,-42.833,435.056,336.012,-82.231,-15.040,-31.490,15.980
973,51190.987000,240.185,58.845,-43.829,428.286,335.967,-81.266,156.960,42.510,1.980
974,51191.2000,240.185,60.857,-43.829,429.223,333.043,-82.310,258.960,64.510,-11.020
975,51191.42000,240.185,68.904,-45.821,432.093,330.115,-84.330,1.960,20.510,46.980
976,51191.80000,245.127,54.821,-42.833,434.030,330.156,-83.344,147.960,48.510,61.980
977,51191.122000,234.255,83.992,-46.817,435.005,331.999,-88.205,239.960,110.510,10.980
978,51191.160000,248.093,52.809,-35.860,436.005,334.964,-86.175,105.960,102.510,23.980
979,51191.201000,247.104,64.880,-38.848,435.941,328.190,-85.345,152.960,71.510,37.980
980,51191.256000,248.093,52.809,-44.825,435.967,331.081,-86.262,151.960,112.510,67.980
981,51191.280000,238.208,73.933,-35.860,436.881,326.171,-89.311,311.960,125.510,56.980
982,51191.303000,242.162,62.868,-38.848,437.777,318.457,-87.519,95.960,82.510,98.980
983,51191.341000,248.093,59.851,-50.802,440.739,324.332,-86.401,65.960,120.510,118.980
984,51191.383000,241.174,63.874,-37.852,443.608,320.520,-84.519,312.960,229.510,97.980
985,51191.421000,246.116,57.839,-29.883,446.477,316.708,-82.636,227.960,197.510,122.980
986,51191.462000,249.081,60.857,-26.895,449.367,315.743,-83.632,73.960,133.510,139.980
987,51191.506000,245.127,51.804,-31.875,450.224,304.124,-82.907,147.960,139.510,141.980
988,51191.543000,247.104,57.839,-27.891,455.033,301.259,-82.961,313.960,177.510,139.980
989,51191.582000,251.058,43.756,-19.922,455.035,301.280,-81.980,303.960,162.510,139.980
990,51191.602000,240.185,62.868,-28.887,460.821,300.280,-85.912,177.960,83.510,151.980
991,51191.643000,256.000,36.715,-21.914,462.678,291.625,-83.158,91.960,42.510,170.980
992,51191.686000,255.012,48.786,-24.903,462.619,284.894,-80.366,61.960,45.510,163.980
993,51191.723000,251.058,42.750,-42.833,465.500,282.959,-81.383,-135.040,102.510,198.980
994,51191.763000,254.023,41.745,-20.918,468.341,276.234,-79.565,19.960,193.510,201.980
995,51191.801000,248.093,39.733,-21.914,469.315,275.424,-72.717,-63.040,149.510,202.980
996,51191.846000,259.954,24.644,-14.942,474.144,273.637,-67.843,-73.040,107.510,197.980
997,51191.886000,252.046,17.603,-13.946,476.941,262.964,-69.055,193.960,106.510,148.980
998,51191.922000,253.035,33.697,-21.914,480.820,263.973,-69.024,250.960,139.510,121.980
999,51191.941000,260.942,26.656,-20.918,481.752,260.121,-68.127,254.960,149.510,136.980
1000,51191.983000,245.127,32.692,-15.938,482.710,259.159,-68.146,427.960,172.510,116.980
1001,51192.21000,242.162,23.639,-7.969,479.812,260.059,-70.094,288.960,53.510,69.980
1002,51192.63000,256.988,21.627,-8.965,480.726,255.149,-73.143,473.960,27.510,18.980
1003,51192.103000,249.081,43.756,-11.953,480.677,252.042,-82.038,746.960,68.510,-97.020
1004,51192.141000,250.069,34.703,-27.891,479.704,252.853,-88.886,951.960,112.510,-234.020
1005,51192.183000,256.988,22.633,-12.949,473.930,257.499,-95.660,931.960,196.510,-184.020
1006,51192.222000,252.046,21.627,-19.922,476.822,257.420,-100.559,918.960,300.510,-107.020
1007,51192.241000,250.069,20.621,-48.809,476.843,259.383,-99.535,469.960,277.510,-90.020
1008,51192.285000,242.162,-6.538,-17.930,476.798,254.550,-98.661,372.960,259.510,-26.020
1009,51192.328000,253.035,3.521,-30.879,478.707,251.678,-97.741,345.960,205.510,49.980
1010,51192.362000,254.023,13.580,-41.837,478.659,246.824,-97.848,-29.040,-11.490,70.980
1011,51192.405000,250.069,-9.556,-38.848,484.420,242.932,-100.865,-106.040,-184.490,132.980
1012,51192.442000,254.023,-1.509,-42.833,486.369,245.734,-106.682,1.960,-332.490,189.980
1013,51192.486000,256.000,8.550,-43.829,487.171,231.828,-121.699,64.960,-539.490,183.980
1014,51192.545000,258.965,6.538,-45.821,486.149,230.416,-141.346,181.960,-641.490,163.980
1015,51192.587000,246.116,16.597,-42.833,481.135,217.230,-165.185,257.960,-737.490,161.980
1016,51192.596000,252.046,17.603,-47.813,483.007,215.761,-188.750,169.960,-747.490,193.980
1017,51192.625000,246.116,23.639,-47.813,477.054,204.593,-208.623,196.960,-671.490,157.980
1018,51192.662000,242.162,27.662,-43.829,469.194,196.320,-228.437,220.960,-595.490,145.980
1019,51192.705000,240.185,35.709,-40.840,465.219,188.235,-241.373,237.960,-431.490,85.980
1020,51192.743000,231.290,39.733,-15.938,461.268,181.250,-248.401,231.960,-174.490,10.980
1021,51192.788000,233.266,41.745,16.934,465.098,177.382,-249.460,291.960,409.510,-124.020
1022,51192.821000,238.208,64.880,-46.817,470.026,184.463,-238.505,350.960,768.510,-514.020
1023,51192.865000,296.525,53.815,-18.926,472.964,185.721,-226.703,290.960,546.510,-263.020
1024,51192.888000,270.826,32.692,-30.879,477.860,190.730,-221.678,-95.040,355.510,-217.020
1025,51192.925000,253.035,8.550,-34.864,478.881,194.774,-214.721,-333.040,239.510,-202.020
1026,51192.962000,242.162,-7.544,-37.852,476.018,196.882,-205.855,-45.040,272.510,-347.020
1027,51193.3000,245.127,51.804,-28.887,478.049,206.631,-204.653,-103.040,223.510,-332.020
1028,51193.58000,251.058,28.668,-30.879,473.352,219.377,-196.535,-246.040,165.510,-310.020
1029,51193.86000,248.093,38.727,-24.903,474.439,230.217,-189.427,-230.040,116.510,-360.020
1030,51193.125000,255.012,44.762,-16.934,470.626,235.120,-185.404,-278.040,64.510,-270.020
1031,51193.166000,245.127,52.809,-27.891,464.877,240.889,-185.288,-284.040,3.510,-222.020
1032,51193.203000,252.046,54.821,-24.903,465.903,245.860,-180.272,-63.040,94.510,-206.020
1033,51193.222000,245.127,53.815,-30.879,463.992,247.826,-178.271,11.960,108.510,-198.020
1034,51193.263000,246.116,60.857,-20.918,464.079,256.586,-177.096,-139.040,78.510,-121.020
1035,51193.305000,246.116,59.851,-25.899,463.158,260.546,-173.087,-260.040,27.510,-36.020
1036,51193.343000,253.035,48.786,-17.930,464.092,256.715,-171.209,-128.040,55.510,-26.020
1037,51193.387000,240.185,65.886,-13.946,462.136,253.848,-168.335,53.960,14.510,-40.020
1038,51193.432000,244.139,55.827,-13.946,464.113,258.678,-170.185,-99.040,-73.490,24.980
1039,51193.466000,243.151,61.862,-15.938,461.202,258.564,-174.116,-51.040,-131.490,50.980
1040,51193.506000,255.012,48.786,-33.868,461.261,264.411,-173.006,-59.040,-68.490,56.980
1041,51193.525000,246.116,59.851,-33.868,465.117,263.434,-174.980,27.960,31.510,44.980
1042,51193.563000,256.000,55.827,-33.868,466.034,257.683,-172.164,12.960,107.510,90.980
1043,51193.606000,256.988,52.809,-26.895,467.917,251.920,-170.327,18.960,183.510,134.980
1044,51193.642000,259.954,43.756,-22.911,470.852,254.020,-164.390,39.960,232.510,130.980
1045,51193.686000,234.255,54.821,-14.942,469.896,254.118,-159.487,-56.040,288.510,30.980
1046,51193.732000,231.290,43.756,-13.946,474.683,247.520,-152.758,-230.040,277.510,-9.020
1047,51193.765000,244.139,49.792,-9.961,475.739,254.541,-142.794,-121.040,288.510,-38.020
1048,51193.810000,252.046,45.768,-3.984,476.684,250.818,-136.010,-62.040,264.510,-44.020
1049,51193.823000,245.127,54.821,15.938,473.887,260.606,-130.895,-44.040,206.510,-55.020
1050,51193.863000,232.278,65.886,16.934,477.766,261.615,-130.864,-119.040,7.510,37.980
1051,51193.907000,254.023,48.786,1.992,477.757,260.644,-130.886,-0.040,-63.490,99.980
1052,51193.945000,241.174,45.768,0.000,479.577,248.991,-132.121,206.960,-78.490,112.980
