Sample, Time, ACCX, ACCY, ACCZ, MAGX, MAGY, MAGZ, GYRX, GYRY, GYRZ
0,51047.667000,252.054,26.761,8.517,519.320,225.759,-47.252,47.800,-65.710,30.420
1,51047.704000,252.054,24.742,9.519,521.962,224.025,-47.300,46.800,-61.710,28.420
2,51047.742000,251.067,25.751,8.517,521.968,227.525,-46.194,40.800,-57.710,22.420
3,51047.784000,252.054,25.751,9.519,522.831,219.601,-50.420,37.800,-53.710,20.420
4,51047.826000,253.040,26.761,5.511,520.189,216.155,-49.547,43.800,-45.710,19.420
5,51047.867000,252.054,27.771,6.513,521.067,220.439,-51.391,34.800,-36.710,13.420
6,51047.884000,252.054,25.751,5.511,518.423,222.145,-52.337,12.800,-19.710,8.420
7,51047.924000,252.054,26.761,6.513,521.061,222.959,-54.289,17.800,-4.710,3.420
8,51047.962000,253.040,26.761,3.507,519.301,222.118,-53.329,10.800,21.290,-3.580
9,51048.7000,251.067,24.742,6.513,521.059,213.467,-52.611,8.800,35.290,-9.580
10,51048.48000,253.040,25.751,7.515,521.066,211.816,-49.685,2.800,40.290,-15.580
11,51048.87000,252.054,25.751,8.517,521.957,221.393,-48.379,-7.200,41.290,-11.580
12,51048.122000,251.067,25.751,9.519,521.951,223.912,-51.276,1.800,34.290,-8.580
13,51048.149000,251.067,26.761,9.519,522.843,224.025,-47.297,-3.200,30.290,-7.580
14,51048.188000,252.054,25.751,9.519,521.956,223.968,-49.288,-8.200,28.290,-6.580
15,51048.226000,252.054,26.761,10.521,522.844,225.761,-47.241,-14.200,27.290,-8.580
16,51048.266000,250.081,26.761,8.517,519.323,218.031,-44.524,-30.200,26.290,-11.580
17,51048.307000,252.054,26.761,10.521,519.331,224.135,-43.333,-32.200,25.290,-9.580
18,51048.346000,252.054,27.771,9.519,518.443,218.899,-44.499,-27.200,22.290,-9.580
19,51048.386000,252.054,27.771,9.519,521.094,218.985,-41.509,-33.200,20.290,-10.580
20,51048.408000,252.054,26.761,10.521,520.216,226.768,-42.252,-54.200,19.290,-15.580
21,51048.446000,251.067,26.761,10.521,519.334,220.720,-41.458,-39.200,21.290,-15.580
22,51048.492000,252.054,27.771,11.523,517.580,228.559,-40.216,-30.200,24.290,-13.580
23,51048.527000,251.067,26.761,13.526,519.350,226.908,-37.285,-21.200,20.290,-12.580
24,51048.566000,251.067,28.781,12.524,521.103,222.513,-39.408,-25.200,15.290,-10.580
25,51048.608000,251.067,27.771,11.523,521.102,221.645,-39.436,-20.200,9.290,-6.580
26,51048.629000,250.081,26.761,12.524,521.107,227.721,-39.239,-12.200,9.290,-5.580
27,51048.663000,250.081,28.781,11.523,516.700,225.982,-39.310,-15.200,8.290,-4.580
28,51048.708000,250.081,27.771,12.524,521.111,229.486,-38.189,-0.200,6.290,-2.580
29,51048.743000,250.081,29.791,12.524,519.352,229.512,-37.201,-15.200,0.290,-1.580
30,51048.787000,250.081,27.771,11.523,518.462,225.115,-39.332,-14.200,-2.710,-0.580
31,51048.827000,252.054,27.771,10.521,519.349,221.729,-36.460,-6.200,1.290,0.420
32,51048.867000,251.067,27.771,11.523,521.979,220.750,-40.455,0.800,3.290,2.420
33,51048.883000,251.067,28.781,11.523,521.997,228.675,-36.226,1.800,6.290,0.420
34,51048.927000,252.054,28.781,11.523,518.467,228.616,-38.225,-1.200,5.290,-1.580
35,51048.968000,253.040,26.761,12.524,519.343,222.540,-38.420,2.800,5.290,0.420
36,51049.5000,252.054,27.771,13.526,521.114,230.382,-37.167,4.800,5.290,0.420
37,51049.48000,250.081,27.771,10.521,517.593,222.652,-34.450,6.800,3.290,3.420
38,51049.88000,250.081,26.761,12.524,518.467,220.860,-36.491,3.800,-0.710,0.420
39,51049.103000,251.067,29.791,12.524,520.235,225.229,-35.351,-2.200,-2.710,1.420
40,51049.147000,250.081,27.771,12.524,520.224,221.673,-38.445,9.800,-2.710,3.420
41,51049.186000,253.040,29.791,12.524,521.100,222.485,-40.402,2.800,0.290,1.420
42,51049.228000,251.067,27.771,11.523,522.886,228.760,-33.242,3.800,3.290,2.420
43,51049.266000,252.054,26.761,13.526,521.095,219.853,-41.480,1.800,7.290,-0.580
44,51049.307000,251.067,27.771,12.524,521.111,229.486,-38.189,0.800,6.290,-1.580
45,51049.348000,252.054,27.771,12.524,518.471,229.512,-37.203,5.800,6.290,-1.580
46,51049.373000,252.054,27.771,12.524,517.593,226.095,-35.331,6.800,10.290,-1.580
47,51049.407000,251.067,27.771,12.524,517.595,229.567,-35.218,-1.200,13.290,-5.580
48,51049.444000,251.067,28.781,11.523,519.355,230.409,-36.178,-4.200,14.290,-8.580
49,51049.489000,251.067,27.771,12.524,521.113,229.514,-37.195,-8.200,17.290,-10.580
50,51049.527000,249.094,27.771,12.524,517.600,228.756,-33.259,-3.200,24.290,-14.580
51,51049.569000,250.081,27.771,12.524,520.242,227.022,-33.307,12.800,29.290,-16.580
52,51049.584000,251.067,27.771,13.526,518.472,223.492,-35.413,11.800,39.290,-15.580
53,51049.629000,250.081,28.781,12.524,520.238,225.258,-34.357,3.800,45.290,-16.580
54,51049.667000,251.067,29.791,14.528,518.485,229.653,-32.234,16.800,49.290,-17.580
55,51049.708000,248.108,30.801,16.532,520.254,231.446,-30.184,3.800,31.290,-17.580
56,51049.747000,252.054,29.791,16.532,521.128,230.523,-32.197,-1.200,19.290,-14.580
57,51049.789000,251.067,28.781,16.532,518.492,231.445,-30.190,3.800,22.290,-6.580
58,51049.828000,249.094,28.781,16.532,518.500,231.529,-27.208,22.800,25.290,-4.580
59,51049.847000,251.067,30.801,16.532,515.847,232.283,-31.164,4.800,10.290,-6.580
60,51049.887000,252.054,29.791,15.530,518.493,233.181,-30.133,-4.200,5.290,-8.580
61,51049.927000,251.067,31.811,16.532,517.608,227.104,-30.333,-10.200,4.290,-11.580
62,51049.971000,250.081,30.801,16.532,519.364,227.049,-32.316,-1.200,13.290,-6.580
63,51050.4000,250.081,30.801,15.530,519.377,225.454,-27.402,-5.200,9.290,-9.580
64,51050.48000,251.067,31.811,15.530,520.245,227.050,-32.313,-16.200,6.290,-11.580
65,51050.89000,250.081,29.791,18.536,517.618,234.105,-28.120,-11.200,1.290,-7.580
66,51050.104000,248.108,30.801,16.532,518.506,235.030,-26.101,6.800,12.290,-4.580
67,51050.148000,250.081,31.811,17.534,517.609,229.708,-30.249,-1.200,2.290,-3.580
68,51050.189000,249.094,29.791,17.534,515.860,231.556,-26.223,-7.200,-5.710,0.420
69,51050.229000,250.081,29.791,15.530,518.502,233.265,-27.152,-14.200,-15.710,1.420
70,51050.267000,251.067,31.811,16.532,520.257,228.899,-28.281,-15.200,-16.710,0.420
71,51050.305000,250.081,30.801,17.534,516.736,232.368,-28.179,-7.200,-16.710,2.420
72,51050.324000,250.081,29.791,17.534,515.848,230.575,-30.226,1.800,-7.710,3.420
73,51050.364000,252.054,30.801,17.534,517.617,235.812,-29.058,-0.200,-6.710,1.420
74,51050.408000,251.067,30.801,15.530,514.090,232.338,-29.182,14.800,12.290,6.420
75,51050.449000,251.067,29.791,14.528,519.384,227.246,-25.358,57.800,53.290,14.420
76,51050.484000,251.067,31.811,16.532,517.620,232.397,-27.183,36.800,31.290,9.420
77,51050.528000,250.081,29.791,17.534,515.856,233.235,-28.154,11.800,5.290,2.420
78,51050.564000,251.067,30.801,16.532,517.618,233.237,-28.148,-8.200,-8.710,-0.580
79,51050.589000,253.040,31.811,16.532,519.376,232.342,-29.165,-27.200,-16.710,-4.580
80,51050.627000,249.094,30.801,18.536,517.611,228.000,-29.311,-0.200,-3.710,-0.580
81,51050.668000,249.094,31.811,17.534,514.971,228.027,-28.326,-4.200,-11.710,1.420
82,51050.709000,251.067,30.801,16.532,518.486,223.633,-30.443,-19.200,-13.710,-2.580
83,51050.745000,252.054,29.791,17.534,518.495,224.585,-27.433,-31.200,-10.710,-9.580
84,51050.788000,251.067,30.801,16.532,517.618,229.793,-27.267,-20.200,-0.710,-8.580
85,51050.810000,250.081,30.801,17.534,518.502,233.265,-27.152,-14.200,-1.710,-5.580
86,51050.849000,251.067,30.801,17.534,518.501,232.397,-27.180,2.800,2.290,-0.580
87,51050.890000,252.054,28.781,17.534,516.739,232.396,-27.185,6.800,14.290,1.420
88,51050.928000,250.081,31.811,19.538,515.850,225.423,-28.408,19.800,21.290,4.420
89,51050.971000,250.081,32.821,15.530,518.499,234.105,-28.117,12.800,5.290,1.420
90,51051.6000,250.081,31.811,17.534,516.748,232.481,-24.204,-1.200,-1.710,-0.580
91,51051.50000,251.067,29.791,17.534,516.742,232.424,-26.192,27.800,33.290,4.420
92,51051.69000,249.094,32.821,15.530,520.265,228.115,-25.327,33.800,24.290,1.420
93,51051.108000,248.108,28.781,14.528,517.621,226.377,-25.392,57.800,34.290,6.420
94,51051.148000,249.094,28.781,17.534,514.976,227.215,-26.366,53.800,22.290,4.420
95,51051.186000,250.081,30.801,17.534,515.861,228.112,-25.341,33.800,11.290,-3.580
96,51051.244000,249.094,29.791,19.538,516.741,227.245,-25.367,17.800,0.290,-0.580
97,51051.288000,250.081,31.811,17.534,519.390,231.615,-24.223,0.800,3.290,-2.580
98,51051.295000,250.081,30.801,20.540,516.740,229.820,-26.276,8.800,12.290,2.420
99,51051.329000,250.081,30.801,18.536,516.745,233.320,-25.169,22.800,4.290,6.420
100,51051.368000,252.054,32.821,18.536,519.383,234.134,-27.121,7.800,1.290,1.420
101,51051.411000,250.081,30.801,20.540,514.101,230.715,-25.262,33.800,2.290,7.420
102,51051.451000,250.081,33.830,18.536,516.735,227.188,-27.354,18.800,-10.710,5.420
103,51051.488000,251.067,33.830,19.538,520.254,224.559,-28.422,-5.200,-10.710,4.420
104,51051.531000,251.067,29.791,17.534,518.499,226.350,-26.383,-2.200,-1.710,1.420
105,51051.554000,250.081,31.811,17.534,517.616,230.633,-28.233,4.800,0.290,1.420
106,51051.591000,250.081,31.811,17.534,518.510,233.350,-24.170,3.800,-9.710,2.420
107,51051.627000,250.081,29.791,17.534,517.616,227.189,-27.352,-6.200,-6.710,1.420
108,51051.668000,252.054,30.801,17.534,517.627,230.745,-24.257,-11.200,-9.710,0.420
109,51051.708000,251.067,30.801,17.534,516.742,228.113,-25.338,-2.200,-9.710,-1.580
110,51051.746000,250.081,30.801,16.532,517.618,229.793,-27.267,-5.200,-3.710,-3.580
111,51051.771000,250.081,31.811,17.534,520.262,230.663,-27.230,-0.200,-0.710,-4.580
112,51051.806000,251.067,31.811,18.536,519.378,234.946,-29.080,-4.200,-0.710,-3.580
113,51051.849000,249.094,31.811,18.536,518.502,233.265,-27.152,6.800,2.290,-6.580
114,51051.889000,251.067,31.811,18.536,520.264,234.135,-27.118,-3.200,-3.710,-3.580
115,51051.929000,251.067,28.781,16.532,517.620,228.953,-26.301,-0.200,4.290,-5.580
116,51051.980000,250.081,29.791,17.534,514.971,224.583,-27.445,-6.200,2.290,-6.580
117,51052.12000,251.067,29.791,17.534,516.735,227.188,-27.354,-5.200,8.290,-4.580
118,51052.39000,251.067,32.821,17.534,514.978,229.819,-26.282,-8.200,-3.710,-3.580
119,51052.73000,250.081,30.801,17.534,516.736,232.368,-28.179,-6.200,-6.710,-3.580
120,51052.111000,250.081,29.791,17.534,515.856,233.235,-28.154,-14.200,-8.710,-4.580
121,51052.147000,253.040,31.811,19.538,517.619,231.529,-27.211,-7.200,-5.710,-2.580
122,51052.187000,250.081,30.801,18.536,518.502,233.265,-27.152,-1.200,-6.710,-0.580
123,51052.229000,250.081,31.811,16.532,514.982,231.583,-25.231,-5.200,-9.710,-0.580
124,51052.269000,250.081,32.821,17.534,516.741,230.688,-26.248,-18.200,-16.710,-2.580
125,51052.291000,251.067,31.811,19.538,518.497,227.189,-27.349,-9.200,-15.710,-2.580
126,51052.330000,252.054,31.811,17.534,519.381,231.530,-27.205,0.800,-13.710,1.420
127,51052.367000,251.067,31.811,16.532,518.492,231.445,-30.190,-4.200,-14.710,0.420
128,51052.411000,252.054,30.801,15.530,516.738,234.972,-28.095,-1.200,-7.710,-0.580
129,51052.447000,250.081,31.811,17.534,519.388,236.766,-26.042,-9.200,-9.710,-2.580
130,51052.487000,251.067,30.801,16.532,516.741,235.000,-27.101,-5.200,-5.710,-2.580
131,51052.509000,250.081,29.791,17.534,518.486,227.077,-31.324,-4.200,-1.710,-3.580
132,51052.549000,250.081,31.811,17.534,519.377,233.210,-29.137,4.800,-2.710,-0.580
133,51052.591000,251.067,32.821,15.530,517.621,233.265,-27.154,1.800,-8.710,-0.580
134,51052.627000,250.081,32.821,17.534,515.847,236.595,-32.017,-7.200,-4.710,-3.580
135,51052.667000,251.067,30.801,18.536,518.494,234.049,-30.105,-4.200,-7.710,-2.580
136,51052.707000,251.067,29.791,16.532,515.854,230.631,-28.239,-11.200,-5.710,-4.580
137,51052.749000,251.067,32.821,16.532,514.970,229.735,-29.263,-14.200,0.290,-9.580
138,51052.771000,252.054,32.821,15.530,517.620,228.953,-26.301,-15.200,-6.710,-9.580
139,51052.809000,250.081,31.811,18.536,516.734,233.208,-29.145,-14.200,-8.710,-6.580
140,51052.850000,250.081,31.811,16.532,518.490,229.709,-30.246,-8.200,-10.710,-3.580
141,51052.892000,251.067,31.811,17.534,514.967,234.018,-31.110,-8.200,-11.710,0.420
142,51052.939000,251.067,32.821,16.532,518.497,234.077,-29.111,-10.200,-14.710,-2.580
143,51052.970000,251.067,32.821,16.532,516.742,232.424,-26.192,-26.200,-16.710,-5.580
144,51052.989000,251.067,32.821,15.530,518.503,235.869,-27.067,-16.200,-18.710,-3.580
145,51053.29000,252.054,30.801,15.530,517.607,229.680,-31.243,-21.200,-20.710,-6.580
146,51053.69000,252.054,32.821,16.532,519.380,229.794,-27.261,-47.200,-22.710,-14.580
147,51053.109000,250.081,32.821,16.532,514.966,228.838,-30.286,-59.200,-13.710,-21.580
148,51053.152000,251.067,33.830,15.530,514.975,236.679,-29.038,-53.200,-9.710,-23.580
149,51053.192000,250.081,31.811,16.532,517.617,236.680,-29.030,-23.200,-4.710,-12.580
150,51053.240000,250.081,32.821,16.532,512.327,237.488,-31.006,-19.200,-7.710,-8.580
151,51053.257000,252.054,31.811,15.530,513.209,239.225,-30.947,-9.200,-5.710,-6.580
152,51053.292000,252.054,32.821,15.530,514.965,235.726,-32.048,-21.200,-5.710,-7.580
153,51053.328000,250.081,32.821,14.528,513.212,235.809,-29.072,-17.200,-6.710,-3.580
154,51053.373000,250.081,32.821,15.530,512.326,236.620,-31.034,-12.200,-6.710,-0.580
155,51053.413000,251.067,32.821,15.530,514.975,236.679,-29.038,-2.200,-5.710,0.420
156,51053.452000,251.067,33.830,15.530,515.862,237.604,-27.019,-4.200,-7.710,1.420
157,51053.472000,250.081,32.821,15.530,513.214,230.658,-27.253,-11.200,-8.710,2.420
158,51053.508000,250.081,31.811,16.532,513.209,239.225,-30.947,-20.200,-12.710,4.420
159,51053.552000,251.067,33.830,16.532,514.971,232.339,-29.179,-17.200,-13.710,4.420
160,51053.588000,249.094,31.811,14.528,512.329,233.205,-29.159,-6.200,-13.710,2.420
161,51053.632000,253.040,31.811,15.530,516.729,234.020,-31.105,-3.200,-14.710,4.420
162,51053.672000,250.081,31.811,13.526,514.964,233.122,-32.133,1.800,-12.710,4.420
163,51053.708000,250.081,33.830,14.528,516.729,238.331,-31.958,2.800,-10.710,3.420
164,51053.733000,251.067,33.830,13.526,517.615,236.652,-30.024,-2.200,-9.710,4.420
165,51053.768000,251.067,32.821,15.530,515.846,235.727,-32.045,-5.200,-10.710,2.420
166,51053.808000,251.067,33.830,13.526,514.961,233.962,-33.098,-2.200,-11.710,4.420
167,51053.850000,251.067,31.811,14.528,516.725,233.123,-32.127,8.800,-8.710,5.420
168,51053.888000,250.081,31.811,13.526,516.721,231.359,-33.177,1.800,-10.710,6.420
169,51053.939000,250.081,31.811,13.526,514.078,233.933,-34.095,11.800,-9.710,6.420
170,51053.952000,252.054,32.821,12.524,515.838,235.642,-35.027,-4.200,-8.710,4.420
171,51053.993000,250.081,31.811,14.528,514.964,233.990,-32.104,2.800,-5.710,5.420
172,51054.31000,251.067,31.811,15.530,513.202,237.433,-32.991,-1.200,-2.710,3.420
173,51054.70000,252.054,31.811,14.528,514.084,234.857,-32.079,-6.200,-5.710,4.420
174,51054.112000,250.081,30.801,13.526,516.710,227.803,-36.272,21.800,-11.710,6.420
175,51054.158000,250.081,32.821,12.524,517.608,235.728,-32.040,-15.200,-10.710,3.420
176,51054.188000,251.067,30.801,12.524,518.480,234.776,-35.047,-9.200,-7.710,6.420
177,51054.213000,251.067,29.791,13.526,518.489,235.729,-32.037,-1.200,-6.710,4.420
178,51054.253000,251.067,32.821,11.523,516.731,236.623,-31.020,-7.200,-1.710,0.420
179,51054.291000,250.081,31.811,11.523,516.725,233.123,-32.127,0.800,1.290,3.420
180,51054.331000,251.067,28.781,13.526,517.598,226.152,-33.343,13.800,15.290,6.420
181,51054.370000,249.094,31.811,14.528,514.971,235.782,-30.060,49.800,44.290,14.420
182,51054.412000,255.013,27.771,22.544,513.200,231.385,-32.195,129.800,92.290,16.420
183,51054.430000,240.216,35.850,5.511,516.723,233.095,-33.121,308.800,101.290,35.420
184,51054.473000,253.040,40.899,3.507,518.478,231.304,-35.159,256.800,-53.710,65.420
185,51054.511000,251.067,49.988,3.507,520.228,231.193,-39.129,122.800,-265.710,79.420
186,51054.550000,238.243,9.594,47.593,519.312,221.362,-49.381,-168.200,-482.710,144.420
187,51054.589000,233.310,46.959,87.671,519.253,219.063,-69.316,10.800,-762.710,259.420
188,51054.628000,249.094,96.442,80.658,524.475,204.644,-88.634,193.800,-1439.710,637.420
189,51054.673000,416.802,103.511,20.540,525.218,174.846,-130.311,-302.200,-1782.710,1237.420
190,51054.699000,285.595,91.393,97.691,518.067,157.447,-162.674,225.800,-1479.710,845.420
191,51054.733000,233.310,160.063,149.793,516.339,157.784,-150.753,389.800,134.290,-66.580
192,51054.769000,255.013,65.136,46.591,512.894,179.233,-128.222,-287.200,992.290,-710.580
193,51054.813000,248.108,-30.801,-60.618,502.448,204.600,-89.699,154.800,1272.290,-1000.580
194,51054.853000,242.189,-12.623,-46.591,488.455,235.758,-60.929,817.800,1342.290,-1061.580
195,51054.892000,222.459,-5.554,-54.607,467.410,261.703,-32.350,287.800,1261.290,-956.580
196,51054.912000,224.432,-18.682,-66.630,450.778,282.556,0.049,86.800,1282.290,-893.580
197,51054.953000,235.283,0.505,-66.630,438.496,295.122,15.312,142.800,1073.290,-659.580
198,51054.989000,203.715,-72.205,-127.750,431.517,307.860,36.556,-393.200,398.290,-156.580
199,51055.33000,285.595,-234.793,-166.826,431.506,299.992,34.314,211.800,-147.710,272.420
200,51055.69000,291.514,138.856,212.916,437.603,289.829,12.158,1405.800,20.290,466.420
201,51055.113000,349.719,37.870,-60.618,441.088,279.105,0.899,693.800,-278.710,723.420
202,51055.149000,295.461,82.304,-17.534,454.254,267.437,-13.340,281.800,-378.710,688.420
203,51055.169000,253.040,-15.653,12.524,459.503,251.563,-22.775,395.800,-178.710,458.420
204,51055.209000,264.879,9.594,7.515,464.778,241.123,-24.090,-30.200,-125.710,264.420
205,51055.249000,255.013,3.535,-8.517,465.663,247.199,-23.890,73.800,-58.710,152.420
206,51055.293000,253.040,2.525,0.501,468.298,240.229,-25.101,214.800,97.290,-10.580
207,51055.334000,249.094,26.761,7.515,463.901,247.198,-23.895,121.800,138.290,-52.580
208,51055.372000,259.946,28.781,11.523,465.677,247.340,-18.920,25.800,179.290,-49.580
209,51055.414000,256.000,20.702,20.540,465.685,245.689,-15.995,-191.200,187.290,-109.580
210,51055.433000,255.013,22.722,18.536,463.060,247.592,-9.984,-150.200,197.290,-136.580
211,51055.469000,250.081,16.663,10.521,460.439,258.147,-4.684,-117.200,237.290,-184.580
212,51055.509000,250.081,28.781,14.528,459.589,265.344,4.483,-67.200,317.290,-247.580
213,51055.549000,241.202,35.850,11.523,455.205,259.518,13.217,-42.200,393.290,-283.580
214,51055.594000,251.067,21.712,8.517,450.826,274.411,18.651,-53.200,438.290,-354.580
215,51055.632000,248.108,33.830,24.548,443.820,280.849,31.747,-180.200,450.290,-464.580
216,51055.649000,242.189,55.037,16.532,436.815,289.890,44.926,-267.200,466.290,-560.580
217,51055.692000,245.148,60.087,52.603,427.177,303.325,60.226,-386.200,401.290,-590.580
218,51055.732000,243.175,36.860,44.587,424.565,314.832,68.535,-562.200,376.290,-583.580
219,51055.772000,250.081,43.929,62.622,416.689,324.825,84.722,-276.200,468.290,-618.580
220,51055.819000,258.960,38.880,60.618,398.250,334.027,103.829,-603.200,489.290,-809.580
221,51055.854000,289.541,26.761,50.599,385.983,347.601,124.090,-640.200,527.290,-805.580
222,51055.889000,309.272,103.511,23.546,373.685,345.355,136.886,-692.200,531.290,-738.580
223,51055.909000,287.568,140.876,27.554,372.893,347.963,167.751,-1796.200,243.290,-256.580
224,51055.953000,263.892,-37.870,-169.832,384.419,328.881,197.951,-2879.200,-779.710,258.420
225,51055.999000,244.162,-71.195,-283.053,420.466,297.180,180.157,-1065.200,-1822.710,402.420
226,51056.35000,288.555,-41.909,-195.883,471.350,277.886,110.185,548.800,-2642.710,1212.420
227,51056.74000,299.407,-15.653,-120.736,497.559,252.469,38.942,1787.800,-3014.710,1240.420
228,51056.112000,318.150,12.623,-99.695,520.988,205.007,-75.724,1003.800,-3072.710,1520.420
229,51056.130000,268.825,-1.515,-9.519,508.336,159.621,-177.530,-48.200,-2970.710,1310.420
230,51056.186000,304.339,-5.554,58.614,472.851,112.347,-253.652,292.800,-2368.710,1087.420
231,51056.217000,258.960,36.860,169.832,453.383,97.685,-281.000,316.800,-1518.710,806.420
232,51056.260000,245.148,139.866,261.010,437.477,85.127,-295.361,670.800,148.290,60.420
233,51056.293000,264.879,84.323,233.957,439.286,79.559,-277.662,319.800,1112.290,-383.580
234,51056.334000,376.355,-19.692,-82.661,451.717,97.773,-247.241,-701.200,1484.290,-763.580
235,51056.375000,330.975,20.702,34.568,458.809,99.937,-232.253,22.800,1002.290,-365.580
236,51056.394000,318.150,36.860,-5.511,465.914,105.685,-213.177,293.800,755.290,-85.580
237,51056.436000,269.811,-2.525,-69.636,472.996,101.716,-200.375,202.800,548.290,41.420
238,51056.473000,255.013,-31.811,-82.661,478.327,97.859,-183.602,142.800,749.290,-167.580
239,51056.515000,249.094,-78.264,-25.550,478.375,106.094,-168.440,303.800,684.290,-404.580
240,51056.554000,247.121,10.604,-2.505,477.516,116.650,-163.135,510.800,647.290,-439.580
241,51056.590000,234.297,10.604,59.616,481.076,123.906,-151.965,352.800,471.290,-247.580
242,51056.610000,255.013,5.554,-18.536,481.092,122.339,-146.058,273.800,372.290,-186.580
243,51056.655000,258.960,14.643,13.526,481.113,124.272,-139.044,54.800,260.290,-166.580
244,51056.696000,260.933,16.663,1.503,480.244,128.696,-135.924,-123.200,117.290,-186.580
245,51056.733000,241.202,-4.544,-23.546,483.783,130.576,-130.887,185.800,330.290,-157.580
246,51056.774000,258.960,18.682,6.513,481.157,134.186,-125.813,266.800,274.290,-85.580
247,51056.813000,255.013,-1.515,-16.532,480.299,137.855,-118.746,424.800,279.290,-91.580
248,51056.852000,266.852,5.554,1.503,482.065,132.733,-115.928,571.800,331.290,-101.580
249,51056.873000,258.960,-18.682,21.542,482.966,140.686,-110.702,645.800,468.290,-137.580
250,51056.914000,239.229,48.978,22.544,483.864,139.988,-104.764,573.800,521.290,-199.580
251,51056.954000,241.202,23.732,68.634,485.649,144.526,-97.660,-42.200,368.290,-159.580
252,51056.994000,235.283,44.939,46.591,483.899,142.062,-92.780,96.800,163.290,-156.580
253,51057.30000,253.040,45.949,38.575,483.016,150.657,-95.483,-218.200,11.290,-102.580
254,51057.74000,254.027,28.781,28.556,483.906,151.610,-92.471,-210.200,-135.710,-2.580
255,51057.135000,246.135,16.663,25.550,483.906,155.054,-93.352,-94.200,-124.710,-58.580
256,51057.143000,248.108,16.663,43.585,482.143,154.184,-93.386,-228.200,-144.710,-71.580
257,51057.170000,251.067,43.929,-0.501,479.484,151.438,-98.448,-188.200,-131.710,-116.580
258,51057.210000,248.108,6.564,44.587,477.720,155.720,-100.301,-371.200,-173.710,-43.580
259,51057.267000,249.094,13.633,19.538,475.089,160.143,-97.187,-356.200,58.290,-177.580
260,51057.294000,256.000,49.988,80.658,477.742,170.589,-95.846,-341.200,-147.710,-166.580
261,51057.335000,261.919,-36.860,-1.503,475.988,177.560,-94.633,-686.200,-195.710,-285.580
262,51057.362000,245.148,47.968,12.524,470.701,190.463,-98.203,-356.200,-192.710,-297.580
263,51057.395000,273.757,28.781,28.556,472.466,190.493,-97.203,124.800,-148.710,-45.580
264,51057.434000,268.825,81.294,40.579,467.147,188.443,-108.210,112.800,-447.710,158.420
265,51057.472000,287.568,67.156,5.511,467.109,175.141,-118.572,-400.200,-649.710,474.420
266,51057.523000,293.487,-31.811,-8.517,472.376,168.928,-123.721,-292.200,-629.710,441.420
267,51057.557000,240.216,66.146,101.699,473.222,166.855,-135.702,221.800,-350.710,43.420
268,51057.592000,213.580,92.402,132.759,471.460,171.165,-136.560,414.800,215.290,-226.580
269,51057.614000,235.283,78.264,83.663,476.804,184.668,-119.224,29.800,597.290,-519.580
270,51057.655000,239.229,64.126,56.611,474.214,198.977,-103.873,-415.200,712.290,-609.580
271,51057.695000,210.620,20.702,20.540,473.402,212.587,-82.582,-451.200,739.290,-596.580
272,51057.734000,208.647,1.515,11.523,475.255,232.445,-55.121,10.800,926.290,-602.580
273,51057.775000,235.283,-3.535,-21.542,473.555,239.951,-35.023,132.800,814.290,-415.580
274,51057.814000,209.634,8.584,-31.562,479.759,248.078,-23.816,-87.200,516.290,-161.580
275,51057.835000,229.364,-7.574,-23.546,482.427,251.777,-15.744,-71.200,85.290,126.420
276,51057.873000,224.432,-0.505,-5.511,487.699,244.752,-18.934,295.800,-134.710,281.420
277,51057.917000,288.555,116.639,31.562,490.324,235.962,-23.182,280.800,-209.710,353.420
278,51057.964000,329.988,67.156,7.515,495.584,227.956,-30.376,430.800,-333.710,271.420
279,51057.994000,258.960,46.959,-0.501,500.801,215.217,-51.626,743.800,-678.710,738.420
280,51058.34000,265.865,-26.761,6.513,509.552,193.101,-67.210,458.800,-564.710,766.420
281,51058.75000,258.960,45.949,25.550,514.790,182.294,-81.446,-444.200,-563.710,392.420
282,51058.97000,260.933,-10.604,2.505,517.403,172.523,-89.699,-309.200,-547.710,369.420
283,51058.134000,266.852,23.732,-17.534,515.630,175.853,-94.561,-1.200,-443.710,276.420
284,51058.172000,250.081,3.535,2.505,518.243,170.393,-103.667,-79.200,-334.710,187.420
285,51058.217000,252.054,2.525,-5.511,515.592,166.863,-105.776,-113.200,-218.710,145.420
286,51058.255000,253.040,21.712,-1.503,513.807,165.768,-113.761,-65.200,-236.710,133.420
287,51058.298000,267.838,17.673,4.509,519.083,157.064,-115.020,-84.200,-253.710,130.420
288,51058.313000,246.135,8.584,6.513,515.536,155.968,-123.010,-212.200,-330.710,118.420
289,51058.374000,246.135,-4.544,-10.521,516.400,152.356,-128.090,-43.200,-352.710,140.420
290,51058.394000,255.013,21.712,-12.524,516.369,152.046,-139.023,-37.200,-406.710,180.420
291,51058.433000,250.081,15.653,-14.528,517.216,144.821,-149.185,-143.200,-514.710,264.420
292,51058.472000,253.040,10.604,-5.511,513.663,142.801,-159.191,-29.200,-558.710,304.420
293,51058.513000,271.784,8.584,-43.585,512.738,137.198,-173.278,-116.200,-527.710,232.420
294,51058.558000,256.987,-13.633,-31.562,510.062,129.970,-183.451,-498.200,-496.710,188.420
295,51058.583000,258.960,-8.584,-32.564,507.403,131.535,-189.367,-519.200,-524.710,136.420
296,51058.617000,253.040,3.535,-43.585,506.506,136.545,-196.158,-334.200,-571.710,130.420
297,51058.658000,259.946,34.840,-40.579,502.072,138.836,-207.021,-505.200,-677.710,129.420
298,51058.693000,259.946,-2.525,-26.552,495.861,140.117,-222.887,-314.200,-862.710,183.420
299,51058.734000,281.649,43.929,-10.521,485.225,132.574,-244.019,-117.200,-1099.710,336.420
300,51058.777000,337.881,15.653,28.556,478.115,117.306,-262.411,-265.200,-1299.710,742.420
301,51058.798000,356.624,-35.850,-41.581,471.867,99.265,-286.848,-43.200,-1607.710,1036.420
302,51058.835000,273.757,-99.471,-141.777,450.615,80.932,-321.273,-31.200,-1893.710,884.420
303,51058.879000,242.189,44.939,51.601,438.239,77.057,-335.340,-207.200,-1261.710,519.420
304,51058.913000,184.971,28.781,77.652,437.381,99.680,-332.622,-1405.200,101.290,43.420
305,51058.959000,187.931,8.584,39.577,453.371,123.415,-291.089,-470.200,1271.290,-370.580
306,51058.995000,203.715,-23.732,-12.524,480.866,140.777,-229.865,-80.200,2202.290,-721.580
307,51059.35000,223.445,-12.623,-31.562,489.048,174.312,-148.318,242.800,2971.290,-973.580
308,51059.55000,297.434,9.594,-68.634,484.027,208.819,-62.810,408.800,3208.290,-1214.580
309,51059.97000,336.894,1.515,-118.732,468.319,233.539,-16.381,62.800,2870.290,-1416.580
310,51059.137000,316.177,-31.811,-127.750,443.845,269.035,43.279,732.800,2593.290,-1092.580
311,51059.179000,278.690,-4.544,-176.845,414.918,297.161,87.791,112.800,2074.290,-663.580
312,51059.213000,233.310,-78.264,-145.785,399.991,314.008,101.199,882.800,1038.290,-342.580
313,51059.253000,229.364,-27.771,-117.730,388.519,325.870,91.617,1598.800,248.290,-119.580
314,51059.294000,319.137,-114.619,-167.828,391.971,323.432,66.724,837.800,-457.710,455.420
315,51059.314000,391.152,108.560,204.900,407.715,311.986,29.662,867.800,-750.710,577.420
316,51059.357000,357.611,32.821,-1.503,413.807,298.322,6.400,679.800,-903.710,757.420
317,51059.398000,302.366,108.560,-40.579,418.164,298.715,-10.454,736.800,-663.710,400.420
318,51059.437000,286.582,1.515,16.532,422.524,288.804,-23.671,532.800,71.290,416.420
319,51059.478000,254.027,6.564,1.503,424.264,285.136,-30.735,459.800,-0.710,207.420
320,51059.518000,251.067,38.880,-1.503,429.555,285.196,-28.730,235.800,53.290,91.420
321,51059.538000,256.987,21.712,6.513,427.787,284.270,-30.752,30.800,85.290,81.420
322,51059.577000,240.216,18.682,10.521,428.668,276.515,-29.015,114.800,173.290,31.420
323,51059.617000,253.040,22.722,27.554,426.910,274.834,-27.089,-96.200,151.290,-29.580
324,51059.663000,255.013,16.663,19.538,430.452,279.318,-21.967,-148.200,64.290,-77.580
325,51059.698000,256.000,25.751,10.521,427.828,278.645,-15.047,-161.200,72.290,-127.580
326,51059.737000,250.081,20.702,15.530,425.202,290.012,-11.707,-287.200,124.290,-213.580
327,51059.778000,255.013,24.742,21.542,423.464,295.416,-4.587,-357.200,214.290,-309.580
328,51059.798000,251.067,22.722,12.524,419.091,300.902,5.507,-310.200,253.290,-359.580
329,51059.834000,249.094,40.899,26.552,408.555,310.724,15.722,-466.200,329.290,-489.580
330,51059.877000,273.757,26.761,28.556,403.313,315.454,29.761,-507.200,551.290,-566.580
331,51059.919000,260.933,108.560,27.554,393.695,325.643,52.899,-620.200,702.290,-618.580
332,51059.968000,271.784,79.274,27.554,381.436,330.678,77.848,-860.200,715.290,-611.580
333,51059.997000,296.447,39.890,-85.667,372.700,334.848,102.780,-774.200,453.290,-407.580
334,51060.17000,353.665,-152.994,-208.908,383.312,324.919,119.373,-2036.200,-402.710,317.420
335,51060.54000,300.393,-14.643,-135.765,394.732,319.437,109.302,53.800,-1115.710,471.420
336,51060.94000,232.324,41.909,-87.671,418.420,293.494,80.732,-219.200,-1536.710,636.420
337,51060.140000,241.202,-21.712,-112.720,439.463,270.125,51.244,-472.200,-1803.710,795.420
338,51060.175000,235.283,5.554,-43.585,467.508,248.018,4.939,132.800,-1960.710,765.420
339,51060.219000,252.054,4.544,-44.587,487.656,232.262,-31.255,144.800,-1903.710,777.420
340,51060.259000,256.000,13.633,10.521,500.702,207.343,-84.650,-1.200,-1644.710,675.420
341,51060.279000,308.285,0.505,40.579,511.128,181.779,-130.131,-193.200,-1435.710,640.420
342,51060.322000,238.243,33.830,93.683,510.128,162.508,-167.500,159.800,-927.710,414.420
343,51060.358000,267.838,48.978,127.750,511.839,158.559,-184.504,359.800,66.290,41.420
344,51060.398000,285.595,52.008,109.714,515.376,152.654,-178.726,279.800,597.290,-280.580
345,51060.435000,257.973,37.870,94.685,515.397,155.456,-171.684,22.800,677.290,-369.580
346,51060.478000,278.690,68.166,49.597,521.617,162.015,-154.570,-145.200,798.290,-349.580
347,51060.499000,281.649,-69.176,21.542,526.079,166.893,-135.531,120.800,796.290,-68.580
348,51060.539000,357.611,97.452,4.509,531.406,173.339,-122.396,584.800,901.290,-199.580
349,51060.574000,246.135,44.939,-37.573,529.665,167.516,-113.654,52.800,340.290,176.420
350,51060.614000,241.202,-54.028,12.524,535.864,164.386,-101.819,192.800,513.290,226.420
351,51060.658000,255.013,-7.574,7.515,539.401,163.662,-96.867,281.800,416.290,36.420
352,51060.697000,265.865,0.505,-33.566,539.426,158.735,-87.096,416.800,504.290,-85.580
353,51060.740000,260.933,8.584,-12.524,543.866,161.680,-75.071,186.800,588.290,-165.580
354,51060.758000,256.000,37.870,7.515,543.021,167.198,-63.972,26.800,460.290,-229.580
355,51060.794000,256.000,22.722,-0.501,539.533,171.005,-51.943,-378.200,341.290,-139.580
356,51060.839000,244.162,-6.564,12.524,540.447,180.807,-42.685,-273.200,398.290,-164.580
357,51060.879000,244.162,8.584,23.546,538.712,187.107,-34.543,-180.200,338.290,-207.580
358,51060.937000,250.081,14.643,30.560,535.221,193.462,-24.418,-493.200,300.290,-242.580
359,51060.959000,251.067,18.682,27.554,532.616,198.138,-12.358,-499.200,296.290,-257.580
360,51061.7000,249.094,19.692,27.554,531.769,198.476,-0.434,-510.200,341.290,-270.580
361,51061.20000,253.040,16.663,37.573,528.277,203.095,9.634,-270.200,332.290,-237.580
362,51061.59000,248.108,14.643,26.552,527.424,213.707,16.927,-159.200,378.290,-248.580
363,51061.98000,242.189,17.673,58.614,521.304,223.645,31.132,-359.200,394.290,-331.580
364,51061.138000,241.202,30.801,51.601,516.041,228.179,38.213,-128.200,315.290,-270.580
365,51061.178000,251.067,24.742,51.601,515.185,231.007,46.246,-282.200,309.290,-232.580
366,51061.215000,252.054,2.525,52.603,509.929,236.465,55.343,-62.200,350.290,-221.580
367,51061.245000,246.135,7.574,68.634,505.553,241.055,64.415,10.800,371.290,-305.580
368,51061.277000,249.094,63.116,66.630,501.178,247.382,73.543,-22.200,353.290,-297.580
369,51061.318000,284.609,44.939,35.569,500.317,255.334,78.763,-252.200,446.290,-168.580
370,51061.359000,289.541,62.107,19.538,495.948,257.405,90.732,-166.200,487.290,-205.580
371,51061.397000,293.487,82.304,33.566,485.422,258.716,106.629,-480.200,542.290,-256.580
372,51061.439000,262.906,56.047,72.642,474.905,263.555,124.626,-578.200,539.290,-273.580
373,51061.482000,208.647,-7.574,-18.536,474.029,261.875,126.555,155.800,-16.710,-212.580
374,51061.495000,182.012,29.791,87.671,471.351,271.866,111.976,496.800,-171.710,-20.580
375,51061.537000,184.971,50.998,129.753,468.659,269.649,95.014,601.800,-193.710,-11.580
376,51061.578000,196.809,78.264,148.791,473.045,267.748,89.009,-109.200,-89.710,-85.580
377,51061.615000,211.607,65.136,155.804,467.763,269.508,90.042,-564.200,-71.710,-183.580
378,51061.658000,227.391,38.880,171.836,468.661,276.565,94.246,-559.200,-76.710,-74.580
379,51061.695000,227.391,46.959,157.808,466.037,275.892,101.166,-384.200,80.290,16.420
380,51061.719000,206.674,36.860,111.718,466.923,270.770,103.982,60.800,88.290,79.420
381,51061.757000,215.553,56.047,85.667,467.792,273.233,99.100,486.800,58.290,112.420
382,51061.799000,212.593,52.008,90.677,467.776,267.045,94.927,665.800,59.290,113.420
383,51061.835000,213.580,55.037,76.650,472.159,265.115,87.927,712.800,-110.710,188.420
384,51061.878000,223.445,73.215,77.652,476.522,269.875,72.208,933.800,-88.710,103.420
385,51061.932000,219.499,76.245,107.710,472.097,272.251,64.327,672.800,-11.710,84.420
386,51061.958000,243.175,68.166,134.763,475.609,275.584,59.481,642.800,-47.710,62.420
387,51061.977000,224.432,81.294,98.693,475.605,277.264,57.550,575.800,81.290,18.420
388,51062.19000,214.566,82.304,92.681,478.260,279.115,61.590,178.800,110.290,54.420
389,51062.57000,213.580,42.919,66.630,479.133,279.031,58.612,272.800,-17.710,30.420
390,51062.99000,211.607,46.959,40.579,482.630,270.156,51.384,531.800,-177.710,158.420
391,51062.137000,211.607,25.751,-4.509,486.153,277.046,49.633,418.800,-296.710,318.420
392,51062.179000,211.607,9.594,-8.517,496.660,266.075,29.451,470.800,-572.710,421.420
393,51062.198000,233.310,100.481,113.722,504.563,258.071,22.265,-57.200,-455.710,325.420
394,51062.237000,247.121,84.323,58.614,515.079,248.052,5.093,511.800,-479.710,542.420
395,51062.275000,321.110,-4.544,6.513,517.688,233.073,-3.329,332.800,-648.710,812.420
396,51062.318000,265.865,-12.623,5.511,525.556,211.796,-19.882,666.800,-566.710,725.420
397,51062.357000,276.717,8.584,21.542,534.307,198.304,-37.172,312.800,-492.710,461.420
398,51062.399000,260.933,23.732,11.523,536.040,189.400,-45.400,-100.200,-301.710,287.420
399,51062.438000,257.973,9.594,8.517,536.912,191.891,-49.288,-112.200,-260.710,232.420
400,51062.457000,251.067,11.613,13.526,541.301,186.574,-53.418,-123.200,-232.710,196.420
401,51062.499000,241.202,1.515,40.579,538.645,180.412,-56.606,-64.200,-268.710,217.420
402,51062.537000,253.040,-0.505,1.503,540.386,175.036,-62.733,-32.200,-178.710,188.420
403,51062.579000,255.013,18.682,21.542,542.998,171.284,-72.776,115.800,-260.710,164.420
404,51062.620000,253.040,20.702,-1.503,541.218,162.490,-77.039,10.800,-403.710,182.420
405,51062.660000,256.000,5.554,-13.526,541.185,159.576,-88.057,-143.200,-502.710,184.420
406,51062.679000,252.054,15.653,6.513,542.917,161.004,-98.928,-153.200,-428.710,135.420
407,51062.717000,250.081,-1.515,9.519,539.361,158.955,-109.928,-56.200,-584.710,205.420
408,51062.758000,258.960,7.574,-15.530,538.448,154.333,-120.011,67.800,-617.710,231.420
409,51062.798000,255.013,6.564,-16.532,536.627,143.409,-138.245,-51.200,-666.710,241.420
410,51062.840000,256.987,1.515,-22.544,535.704,136.098,-151.394,-178.200,-734.710,308.420
411,51062.878000,260.933,6.564,-32.564,532.999,127.721,-171.535,-47.200,-809.710,351.420
412,51062.932000,255.013,-0.505,-55.609,531.195,128.165,-186.421,-48.200,-838.710,335.420
413,51062.938000,255.013,-12.623,-44.587,523.216,120.764,-202.574,-302.200,-881.710,337.420
414,51062.980000,253.040,0.505,-45.589,512.580,117.533,-224.559,-425.200,-1081.710,425.420
415,51063.19000,325.056,55.037,-35.569,502.819,110.802,-247.648,-260.200,-1196.710,502.420
416,51063.59000,391.152,88.363,75.648,493.946,97.240,-266.983,-846.200,-1538.710,809.420
417,51063.97000,237.256,-78.264,-149.793,472.725,94.729,-293.943,-293.200,-1490.710,622.420
418,51063.139000,167.214,-42.919,-172.838,458.582,87.352,-309.123,346.800,-997.710,211.420
419,51063.158000,167.214,-68.166,-175.843,441.799,86.889,-325.079,177.800,-940.710,164.420
420,51063.199000,171.160,-68.166,-94.685,431.196,90.015,-336.928,-75.200,-727.710,5.420
421,51063.237000,158.335,10.604,83.663,430.341,95.448,-328.810,-138.200,463.290,-33.580
422,51063.279000,225.418,1.515,-34.568,442.771,115.370,-299.327,-1107.200,1131.290,-94.580
423,51063.325000,242.189,-9.594,-38.575,458.776,140.113,-252.796,-769.200,1440.290,-229.580
424,51063.357000,233.310,-0.505,-53.605,465.974,155.386,-203.620,-351.200,1860.290,-449.580
425,51063.407000,263.892,9.594,-72.642,473.150,176.482,-163.193,-323.200,2004.290,-618.580
426,51063.419000,262.906,-5.554,-112.720,471.554,198.806,-109.845,-391.200,2005.290,-710.580
427,51063.457000,271.784,-2.525,-68.634,462.024,225.379,-59.364,-357.200,1953.290,-734.580
428,51063.497000,290.528,-20.702,-80.658,448.092,254.553,-8.813,-202.200,1874.290,-748.580
429,51063.539000,285.595,-14.643,-91.679,439.359,274.262,13.645,72.800,1692.290,-658.580
430,51063.580000,245.148,-19.692,-157.808,423.595,289.824,42.896,-11.200,1214.290,-424.580
431,51063.617000,246.135,-26.761,-129.753,413.944,303.986,53.254,327.800,676.290,-200.580
432,51063.640000,223.445,-195.408,-226.943,413.040,307.204,44.419,781.800,167.290,96.420
433,51063.678000,357.611,50.998,85.667,419.112,298.523,13.374,1914.800,-135.710,257.420
434,51063.722000,376.355,143.905,-2.505,418.190,295.524,-0.628,844.800,-221.710,170.420
435,51063.759000,271.784,64.126,-37.573,422.581,292.811,-4.674,-163.200,-123.710,227.420
436,51063.800000,254.027,8.584,16.532,420.819,292.810,-4.680,284.800,47.290,142.420
437,51063.839000,249.094,13.633,-7.515,423.470,287.716,-0.864,-90.200,87.290,42.420
438,51063.879000,232.324,-4.544,-1.503,423.469,291.160,-1.746,152.800,162.290,-63.580
439,51063.909000,247.121,23.732,8.517,419.959,290.430,3.184,0.800,236.290,-162.580
440,51063.940000,253.040,41.909,5.511,414.694,294.935,9.272,-186.200,254.290,-230.580
441,51063.983000,259.946,34.840,18.536,412.086,303.895,19.484,-249.200,285.290,-257.580
442,51064.20000,260.933,33.830,30.560,411.226,309.272,25.614,-328.200,314.290,-300.580
443,51064.58000,266.852,45.949,23.546,405.096,313.945,37.661,-546.200,303.290,-401.580
444,51064.99000,267.838,74.225,18.536,394.585,323.153,56.793,-520.200,567.290,-337.580
445,51064.142000,224.432,83.314,-33.566,392.876,326.262,74.763,-659.200,313.290,-289.580
446,51064.160000,251.067,7.574,-72.642,392.006,325.506,78.707,-215.200,32.290,-165.580
447,51064.200000,261.919,-112.600,-159.812,394.638,310.752,78.237,-571.200,-742.710,414.420
448,51064.242000,266.852,5.554,-113.722,412.223,299.228,68.982,-217.200,-904.710,491.420
449,51064.279000,242.189,4.544,-109.714,428.008,276.976,48.451,-556.200,-1277.710,449.420
450,51064.318000,256.987,-9.594,-85.667,447.301,262.341,21.227,-372.200,-1621.710,468.420
451,51064.358000,259.946,-8.584,-88.673,456.028,253.775,-5.833,107.800,-1687.710,486.420
452,51064.382000,265.865,-2.525,-52.603,471.755,236.980,-48.034,33.800,-1666.710,505.420
453,51064.420000,269.811,10.604,-22.544,479.550,216.707,-90.372,-50.200,-1541.710,482.420
454,51064.460000,258.960,15.653,-1.503,484.724,200.101,-125.649,-181.200,-1363.710,392.420
455,51064.499000,259.946,12.623,9.519,488.169,184.671,-149.971,-88.200,-1084.710,294.420
456,51064.542000,256.987,18.682,9.519,490.723,175.176,-179.067,126.800,-643.710,144.420
457,51064.579000,236.270,27.771,6.513,489.778,172.820,-200.992,321.800,-411.710,-32.580
458,51064.622000,231.337,33.830,19.538,491.502,170.719,-213.964,359.800,-43.710,-100.580
459,51064.640000,230.351,13.633,-0.501,493.257,165.484,-215.121,351.800,364.290,-129.580
460,51064.679000,232.324,25.751,3.507,499.441,165.658,-209.138,445.800,741.290,-262.580
461,51064.719000,224.432,18.682,-19.538,508.281,165.974,-198.176,172.800,760.290,-254.580
462,51064.762000,269.811,3.535,-58.614,514.501,169.089,-180.182,104.800,909.290,-438.580
463,51064.802000,300.393,-58.067,70.638,525.115,160.896,-163.533,243.800,979.290,-150.580
464,51064.839000,389.179,132.797,-24.548,529.572,174.342,-148.187,461.800,978.290,-172.580
465,51064.860000,244.162,-3.535,-25.550,533.111,168.465,-141.415,585.800,494.290,135.420
466,51064.899000,235.283,-61.097,-51.601,537.547,161.023,-128.734,672.800,675.290,84.420
467,51064.942000,267.838,4.544,-18.536,542.888,164.166,-109.748,364.800,717.290,-101.580
468,51064.983000,249.094,14.643,-8.517,541.126,159.853,-108.901,390.800,602.290,-158.580
469,51065.20000,257.973,0.505,-6.513,542.050,160.276,-93.989,316.800,488.290,-122.580
470,51065.62000,243.175,14.643,-18.536,544.723,166.607,-84.838,386.800,523.290,-189.580
471,51065.110000,244.162,6.564,15.530,546.511,167.730,-75.859,81.800,426.290,-163.580
472,51065.120000,253.040,18.682,-5.511,544.767,177.390,-71.579,72.800,312.290,-163.580
473,51065.162000,254.027,1.515,16.532,543.022,173.245,-64.768,201.800,312.290,-107.580
474,51065.200000,253.040,23.732,0.501,539.522,174.336,-56.800,150.800,355.290,-169.580
475,51065.243000,246.135,19.692,14.528,537.779,180.552,-51.639,58.800,248.290,-151.580
476,51065.280000,251.067,2.525,32.564,538.686,189.430,-44.397,19.800,242.290,-139.580
477,51065.328000,260.933,-10.604,10.521,537.813,185.202,-40.565,122.800,317.290,-159.580
478,51065.339000,253.040,23.732,-2.505,538.702,188.731,-38.462,346.800,244.290,-163.580
479,51065.380000,240.216,38.880,35.569,537.833,197.466,-36.195,-165.200,134.290,-152.580
480,51065.419000,249.094,-18.682,71.640,537.853,205.419,-30.972,-204.200,98.290,-185.580
481,51065.462000,250.081,45.949,25.550,532.585,209.896,-25.879,30.800,129.290,-253.580
482,51065.499000,254.027,17.673,19.538,529.947,212.526,-24.809,0.800,178.290,-241.580
483,51065.540000,258.960,13.633,22.544,525.552,217.787,-22.666,86.800,229.290,-279.580
484,51065.579000,245.148,30.801,34.568,522.921,223.078,-19.524,-35.200,280.290,-368.580
485,51065.599000,254.027,28.781,29.558,520.319,236.406,-8.177,-165.200,353.290,-452.580
486,51065.642000,244.162,31.811,48.595,515.940,247.856,-1.862,-81.200,296.290,-440.580
487,51065.679000,243.175,52.008,22.544,509.808,260.257,7.458,-156.200,328.290,-502.580
488,51065.723000,279.676,37.870,34.568,504.568,271.903,20.728,-334.200,342.290,-521.580
489,51065.763000,310.258,35.850,16.532,494.022,283.348,27.024,-223.200,414.290,-503.580
490,51065.799000,273.757,91.393,61.620,487.880,283.597,35.949,-318.200,456.290,-359.580
491,51065.823000,243.175,8.584,11.523,479.105,287.373,46.966,-254.200,331.290,-248.580
492,51065.860000,203.715,6.564,-4.509,478.215,287.288,43.982,-236.200,-124.710,9.420
493,51065.903000,196.809,38.880,13.526,479.932,279.083,29.819,-13.200,-439.710,208.420
494,51065.942000,198.782,65.136,50.599,482.548,277.963,20.854,-391.200,-482.710,210.420
495,51065.980000,234.297,40.899,54.607,485.144,267.155,6.610,-473.200,-557.710,274.420
496,51066.23000,244.162,58.067,80.658,490.375,258.000,-10.551,155.800,-602.710,312.420
497,51066.64000,235.283,85.333,101.699,489.426,242.680,-30.911,529.800,-450.710,280.420
498,51066.83000,238.243,93.412,111.718,490.272,233.719,-41.129,318.800,-400.710,296.420
499,51066.120000,231.337,126.738,136.767,491.121,232.541,-52.088,91.800,-98.710,65.420
500,51066.163000,238.243,124.718,132.759,486.738,238.783,-45.941,-442.200,73.290,-46.580
501,51066.200000,230.351,93.412,99.695,490.294,236.520,-34.087,-617.200,171.290,-127.580
502,51066.254000,253.040,69.176,81.659,489.459,249.037,-20.775,-478.200,240.290,-154.580
503,51066.279000,239.229,69.176,83.663,488.596,250.942,-14.758,-1.200,342.290,-192.580
504,51066.322000,222.459,65.136,68.634,484.219,253.796,-5.742,75.800,340.290,-194.580
505,51066.340000,229.364,60.087,72.642,485.148,265.475,8.541,180.800,314.290,-182.580
506,51066.383000,230.351,59.077,61.620,483.416,267.491,18.531,48.800,331.290,-129.580
507,51066.420000,222.459,49.988,61.620,484.316,270.265,24.582,19.800,295.290,-104.580
508,51066.462000,212.593,46.959,38.575,481.712,280.989,35.845,32.800,316.290,-104.580
509,51066.500000,216.540,29.791,17.534,483.501,279.536,45.733,-88.200,132.290,38.420
510,51066.540000,207.661,8.584,-8.517,487.894,271.671,43.506,148.800,-211.710,269.420
511,51066.564000,220.486,1.515,-23.546,490.530,269.880,41.470,307.800,-416.710,451.420
512,51066.602000,221.472,99.471,118.732,501.053,265.965,25.489,718.800,-124.710,255.420
513,51066.644000,316.177,79.274,36.571,505.423,252.695,16.136,459.800,-310.710,434.420
514,51066.682000,328.015,5.554,-8.517,516.829,240.185,2.857,368.800,-619.710,701.420
515,51066.728000,234.297,25.751,16.532,525.591,225.069,-10.514,395.800,-527.710,627.420
516,51066.760000,269.811,22.722,22.544,529.092,221.403,-17.573,-38.200,-334.710,383.420
517,51066.802000,253.040,3.535,30.560,528.189,214.289,-23.764,-104.200,-360.710,313.420
518,51066.820000,252.054,14.643,12.524,532.572,207.179,-29.939,29.800,-325.710,268.420
519,51066.863000,255.013,13.633,9.519,535.185,200.852,-39.073,74.800,-251.710,240.420
520,51066.904000,249.094,15.653,13.526,534.283,188.587,-43.446,160.800,-198.710,231.420
521,51066.942000,253.040,31.811,26.552,537.794,185.872,-47.494,158.800,-208.710,207.420
522,51066.984000,253.040,0.505,5.511,539.537,183.101,-53.537,-70.200,-302.710,213.420
523,51067.22000,260.933,8.584,-1.503,541.282,176.045,-57.732,-73.200,-257.710,119.420
524,51067.42000,248.108,-1.515,4.509,541.259,174.952,-65.712,-90.200,-192.710,95.420
525,51067.83000,248.108,3.535,10.521,541.257,173.216,-65.768,26.800,-180.710,78.420
526,51067.120000,249.094,18.682,8.517,541.236,170.415,-72.810,10.800,-229.710,105.420
527,51067.163000,264.879,6.564,-7.515,540.352,173.830,-74.688,-140.200,-274.710,112.420
528,51067.200000,259.946,15.653,-1.503,541.200,168.341,-84.793,-230.200,-287.710,61.420
529,51067.243000,240.216,6.564,5.511,541.192,169.124,-87.747,-406.200,-401.710,22.420
530,51067.283000,244.162,-8.584,5.511,538.532,172.397,-94.600,-260.200,-437.710,84.420
531,51067.302000,251.067,6.564,-15.530,538.496,172.899,-107.493,-198.200,-488.710,102.420
532,51067.344000,256.987,0.505,-25.550,534.058,163.094,-116.762,-276.200,-481.710,94.420
533,51067.383000,243.175,5.554,-21.542,530.520,170.707,-123.477,-285.200,-573.710,119.420
534,51067.420000,261.919,23.732,-42.583,532.240,166.842,-137.499,-284.200,-648.710,144.420
535,51067.463000,261.919,15.653,-42.583,528.688,159.670,-145.687,-338.200,-650.710,158.420
536,51067.504000,288.555,8.584,-34.568,520.716,161.817,-161.531,-514.200,-732.710,10.420
537,51067.523000,285.595,62.107,-39.577,517.177,172.005,-169.155,-824.200,-905.710,103.420
538,51067.562000,301.380,6.564,2.505,509.189,163.652,-188.319,-478.200,-956.710,324.420
539,51067.604000,284.609,-15.653,-29.558,501.208,161.403,-206.291,321.800,-930.710,485.420
540,51067.644000,253.040,-20.702,-79.656,495.849,142.580,-227.772,505.800,-930.710,545.420
541,51067.682000,231.337,-30.801,-122.740,486.984,128.235,-244.154,144.800,-1070.710,479.420
542,51067.724000,211.607,22.722,3.507,479.890,119.156,-258.373,231.800,-446.710,129.420
543,51067.762000,208.647,31.811,62.622,478.170,129.908,-246.114,-379.200,201.290,-114.580
544,51067.787000,231.337,27.771,52.603,486.216,151.760,-209.631,-692.200,959.290,-404.580
545,51067.822000,258.960,5.554,8.517,486.394,182.821,-154.008,-932.200,1756.290,-641.580
546,51067.864000,270.798,-3.535,-3.507,490.947,206.688,-107.542,-681.200,2080.290,-664.580
547,51067.903000,289.541,23.732,-32.564,478.799,232.645,-48.152,-525.200,2129.290,-771.580
548,51067.942000,326.042,12.623,-53.605,454.321,262.065,11.311,-444.200,2067.290,-949.580
549,51067.984000,290.528,3.535,-61.620,429.785,283.166,52.630,14.800,1899.290,-941.580
550,51068.3000,274.744,-2.525,-57.613,416.642,295.928,74.847,95.800,1617.290,-671.580
551,51068.43000,262.906,5.554,-55.609,397.342,309.638,100.055,106.800,1230.290,-291.580
552,51068.84000,245.148,-12.623,-92.681,385.045,323.770,109.411,208.800,814.290,-20.580
553,51068.123000,214.566,-2.525,-111.718,381.482,328.553,94.660,1389.800,315.290,284.420
554,51068.162000,227.391,5.554,-89.675,384.964,329.001,79.791,1444.800,-321.710,447.420
555,51068.205000,205.688,126.738,-140.775,397.184,316.684,42.690,1898.800,-832.710,665.420
556,51068.243000,310.258,49.988,52.603,406.795,315.903,14.892,806.800,-563.710,575.420
557,51068.268000,230.351,6.564,-20.540,412.910,303.333,-0.392,316.800,-636.710,508.420
558,51068.312000,298.420,27.771,-8.517,419.015,292.386,-19.594,562.800,-490.710,425.420
559,51068.345000,258.960,58.067,1.503,419.862,292.916,-31.490,471.800,-350.710,339.420
560,51068.383000,271.784,10.604,-16.532,425.999,287.459,-40.584,306.800,-228.710,275.420
561,51068.422000,258.960,12.623,-10.521,425.970,282.866,-49.670,314.800,-120.710,153.420
562,51068.462000,248.108,16.663,-3.507,427.726,277.631,-50.828,199.800,-14.710,81.420
563,51068.485000,256.000,20.702,-8.517,426.845,277.630,-50.830,137.800,61.290,65.420
564,51068.523000,252.054,10.604,6.513,429.482,270.688,-51.047,33.800,79.290,55.420
565,51068.564000,258.960,17.673,1.503,428.599,270.660,-52.044,59.800,117.290,-18.580
566,51068.602000,248.108,23.732,-6.513,427.731,276.819,-48.868,-56.200,115.290,-53.580
567,51068.645000,260.933,22.722,5.511,429.512,279.594,-42.814,-102.200,158.290,-82.580
568,51068.684000,249.094,21.712,3.507,430.400,274.499,-39.005,-150.200,144.290,-168.580
569,51068.723000,254.027,17.673,13.526,426.023,288.553,-32.605,-193.200,175.290,-171.580
570,51068.745000,251.067,9.594,11.523,422.510,285.219,-27.759,-190.200,171.290,-199.580
571,51068.783000,257.973,28.781,12.524,420.771,285.443,-19.814,-192.200,265.290,-295.580
572,51068.825000,259.946,27.771,11.523,415.515,297.788,-12.479,-354.200,320.290,-362.580
573,51068.863000,273.757,35.850,5.511,407.630,304.253,1.607,-306.200,431.290,-473.580
574,51068.904000,269.811,85.333,-13.526,400.655,314.444,24.754,-769.200,678.290,-512.580
575,51068.943000,270.798,41.909,23.546,386.661,329.223,56.965,-1006.200,886.290,-575.580
576,51068.967000,224.432,-26.761,-76.650,381.440,335.886,78.017,-551.200,879.290,-571.580
577,51069.4000,374.382,5.554,-197.886,377.089,332.975,97.769,-1095.200,208.290,-365.580
578,51069.43000,272.771,3.535,-75.648,377.969,332.107,97.743,-141.200,-279.710,-68.580
579,51069.85000,211.607,24.742,-74.646,389.396,327.550,89.688,-194.200,-795.710,222.420
580,51069.124000,224.432,22.722,-62.622,404.334,314.260,79.375,-159.200,-1155.710,375.420
581,51069.164000,258.960,21.712,-33.566,425.401,299.739,56.132,-177.200,-1487.710,538.420
582,51069.207000,280.663,21.712,-17.534,448.203,275.475,25.628,-264.200,-1656.710,660.420
583,51069.225000,296.447,29.791,-17.534,468.347,257.087,-11.644,-370.200,-1727.710,635.420
584,51069.265000,283.622,30.801,3.507,481.479,240.769,-36.957,-570.200,-1718.710,581.420
585,51069.303000,284.609,34.840,18.536,491.919,223.101,-79.202,49.800,-1513.710,371.420
586,51069.347000,259.946,32.821,45.589,498.833,210.583,-123.278,384.800,-1193.710,259.420
587,51069.384000,251.067,34.840,62.622,499.586,193.805,-164.532,480.800,-793.710,173.420
588,51069.427000,248.108,42.919,79.656,500.426,189.099,-177.591,375.800,-124.710,-21.580
589,51069.445000,255.013,18.682,63.624,501.288,189.771,-184.518,134.800,204.290,-14.580
590,51069.488000,217.526,40.899,51.601,507.464,186.416,-180.635,198.800,487.290,-27.580
591,51069.529000,225.418,-12.623,20.540,514.536,178.051,-169.961,530.800,759.290,-92.580
592,51069.563000,282.636,-39.890,-72.642,520.739,184.441,-158.811,-34.200,752.290,-244.580
593,51069.607000,275.730,-21.712,-8.517,525.180,181.367,-144.994,177.800,783.290,-1.580
594,51069.645000,323.083,48.978,0.501,531.410,181.991,-123.108,-73.200,725.290,-23.580
595,51069.683000,270.798,36.860,-32.564,534.954,178.747,-115.258,333.800,353.290,42.420
596,51069.705000,248.108,7.574,-18.536,534.977,176.397,-106.397,445.800,535.290,18.420
597,51069.744000,261.919,-2.525,-5.511,540.284,181.777,-100.248,282.800,436.290,-31.580
598,51069.783000,249.094,0.505,-6.513,538.534,179.313,-95.369,224.800,256.290,-54.580
599,51069.825000,254.027,-6.564,-17.534,537.668,180.321,-90.374,450.800,308.290,-70.580
600,51069.863000,257.973,26.761,-12.524,535.915,180.404,-87.398,395.800,333.290,-114.580
601,51069.912000,239.229,18.682,-12.524,538.594,179.905,-74.496,195.800,397.290,-130.580
602,51069.923000,256.987,15.653,8.517,539.492,186.962,-70.292,7.800,387.290,-153.580
603,51069.964000,248.108,15.653,10.521,543.043,189.822,-61.251,91.800,350.290,-147.580
604,51070.3000,255.013,16.663,10.521,539.541,196.064,-55.102,-39.200,249.290,-163.580
605,51070.45000,250.081,29.791,13.526,536.919,202.307,-48.950,-14.200,231.290,-110.580
606,51070.85000,256.000,6.564,5.511,538.687,198.921,-46.075,99.800,222.290,-67.580
607,51070.127000,253.040,25.751,21.542,535.173,200.739,-43.048,108.800,208.290,-117.580
608,51070.167000,249.094,3.535,12.524,532.543,199.142,-38.144,24.800,139.290,-169.580
609,51070.189000,259.946,5.554,8.517,529.909,211.292,-37.758,116.800,272.290,-257.580
610,51070.228000,248.108,39.890,15.530,530.815,214.122,-29.719,-2.200,322.290,-292.580
611,51070.265000,246.135,15.653,28.556,530.836,223.811,-24.440,8.800,343.290,-322.580
612,51070.312000,253.040,31.811,32.564,524.703,234.476,-15.177,109.800,330.290,-358.580
613,51070.344000,247.121,55.037,24.548,518.568,242.537,-5.998,58.800,377.290,-412.580
614,51070.387000,253.040,45.949,27.554,512.422,247.909,0.115,-200.200,392.290,-456.580
615,51070.429000,255.013,19.692,37.573,507.163,256.783,7.337,16.800,427.290,-457.580
616,51070.448000,256.987,72.205,37.573,499.272,266.635,18.554,-105.200,371.290,-521.580
617,51070.485000,287.568,31.811,27.554,494.016,279.848,25.917,-369.200,318.290,-468.580
618,51070.528000,292.501,39.890,41.581,487.889,287.994,38.078,-440.200,269.290,-415.580
619,51070.565000,238.243,57.057,66.630,481.739,294.178,42.231,-161.200,244.290,-241.580
620,51070.608000,239.229,72.205,64.626,476.474,296.107,49.227,-447.200,191.290,-154.580
621,51070.645000,204.701,67.156,50.599,473.835,290.114,52.003,-708.200,17.290,-14.580
622,51070.664000,204.701,68.166,55.609,474.731,294.567,56.123,-461.200,-146.710,21.420
623,51070.705000,200.755,68.166,78.654,474.727,289.359,55.954,-205.200,-156.710,54.420
624,51070.748000,219.499,69.176,86.669,476.456,286.446,44.942,375.800,-101.710,39.420
625,51070.785000,219.499,78.264,87.671,476.420,291.260,31.196,921.800,-42.710,1.420
626,51070.837000,218.513,93.412,86.669,473.734,287.392,17.160,590.800,-111.710,52.420
627,51070.868000,220.486,96.442,98.693,477.252,286.470,15.155,64.800,-146.710,63.420
628,51070.910000,224.432,93.412,106.708,474.613,287.364,16.169,-119.200,-43.710,2.420
629,51070.924000,219.499,81.294,96.689,475.500,288.289,18.188,-239.200,18.290,-10.580
630,51070.967000,224.432,82.304,95.687,473.757,291.061,24.230,-263.200,40.290,-38.580
631,51071.7000,215.553,76.245,83.663,472.892,289.493,30.134,-299.200,90.290,-63.580
632,51071.48000,221.472,63.116,92.681,473.787,286.191,35.988,-236.200,135.290,-58.580
633,51071.85000,221.472,62.107,82.661,471.176,294.255,45.178,-16.200,163.290,-29.580
634,51071.128000,212.593,63.116,61.620,472.943,293.444,47.144,193.800,171.290,48.420
635,51071.147000,216.540,57.057,55.609,473.833,295.265,50.184,189.800,113.290,87.420
636,51071.189000,212.593,58.067,50.599,474.718,296.162,51.209,225.800,48.290,110.420
637,51071.227000,213.580,45.949,32.564,475.605,293.643,54.109,73.800,-82.710,213.420
638,51071.264000,211.607,39.890,16.532,481.756,284.015,50.838,61.800,-230.710,301.420
639,51071.307000,226.405,18.682,-4.509,490.527,273.296,39.595,65.800,-500.710,499.420
640,51071.348000,215.553,96.442,70.638,493.148,273.941,31.681,359.800,-95.710,148.420
641,51071.385000,305.326,80.284,85.667,501.055,268.569,25.574,416.800,-371.710,521.420
642,51071.404000,312.231,3.535,4.509,514.218,251.693,11.166,515.800,-691.710,786.420
643,51071.445000,244.162,12.623,7.515,523.841,233.805,-8.250,601.800,-461.710,608.420
644,51071.488000,267.838,28.781,19.538,524.695,227.504,-16.396,-37.200,-311.710,350.420
645,51071.532000,258.960,17.673,13.526,528.208,216.194,-17.745,-226.200,-260.710,272.420
646,51071.569000,246.135,6.564,18.536,525.551,212.608,-21.841,113.800,-230.710,270.420
647,51071.607000,254.027,16.663,34.568,533.456,203.764,-28.061,91.800,-237.710,256.420
648,51071.625000,250.081,27.771,23.546,536.070,195.729,-36.257,19.800,-208.710,258.420
649,51071.669000,256.000,14.643,7.515,535.187,192.256,-36.373,-199.200,-205.710,227.420
650,51071.705000,254.027,3.535,13.526,538.699,195.590,-41.218,-174.200,-296.710,165.420
651,51071.748000,258.960,12.623,9.519,539.559,186.770,-46.467,-64.200,-340.710,129.420
652,51071.800000,255.013,12.623,-9.519,539.536,186.545,-54.418,-122.200,-355.710,119.420
653,51071.827000,252.054,1.515,11.523,540.396,180.300,-60.576,-181.200,-318.710,94.420
654,51071.865000,251.067,10.604,2.505,540.375,182.679,-68.443,-139.200,-312.710,30.420
655,51071.888000,262.906,16.663,-13.526,536.842,181.724,-71.464,-211.200,-320.710,28.420
656,51071.925000,248.108,5.554,-4.509,537.703,185.839,-79.272,-213.200,-272.710,-1.580
657,51071.979000,251.067,-1.515,2.505,535.926,187.405,-85.184,-81.200,-250.710,-28.580
658,51072.5000,251.067,6.564,-11.523,532.395,189.054,-88.121,-123.200,-286.710,-43.580
659,51072.48000,253.040,17.673,-18.536,530.628,189.864,-90.087,-298.200,-285.710,-61.580
660,51072.89000,245.148,4.544,-17.534,529.729,192.270,-96.962,-403.200,-342.710,-64.580
661,51072.108000,253.040,30.801,-27.554,527.077,192.184,-99.953,-327.200,-368.710,-67.580
662,51072.145000,255.013,40.899,-19.538,526.179,202.346,-108.563,-571.200,-498.710,-88.580
663,51072.189000,272.771,10.604,-16.532,520.867,201.220,-117.553,-171.200,-582.710,-48.580
664,51072.227000,268.825,57.057,12.524,516.421,203.399,-132.391,-183.200,-837.710,104.420
665,51072.269000,308.285,43.929,25.550,514.576,189.645,-158.661,-9.200,-1102.710,563.420
666,51072.305000,302.366,19.692,-38.575,512.758,175.305,-175.020,356.800,-1158.710,752.420
667,51072.348000,288.555,-5.554,-53.605,503.858,155.442,-202.504,17.800,-1224.710,710.420
668,51072.384000,245.148,3.535,37.573,494.986,144.484,-221.755,75.800,-713.710,313.420
669,51072.428000,220.486,7.574,48.595,490.613,149.103,-211.689,-275.200,26.290,26.420
670,51072.460000,209.634,15.653,27.554,495.103,164.594,-185.354,-357.200,613.290,-158.580
671,51072.487000,242.189,19.692,-11.523,493.439,182.798,-154.979,-383.200,1315.290,-443.580
672,51072.528000,262.906,8.584,-22.544,494.463,204.898,-109.574,-424.200,1580.290,-630.580
673,51072.565000,267.838,12.623,-29.558,486.701,227.217,-56.246,-397.200,1666.290,-731.580
674,51072.592000,265.865,20.702,-23.546,466.584,251.906,-10.825,-195.200,1746.290,-764.580
675,51072.629000,275.730,16.663,-40.579,456.099,264.811,16.371,-143.200,1685.290,-757.580
676,51072.674000,271.784,30.801,-21.542,433.315,283.225,54.629,96.800,1612.290,-676.580
677,51072.705000,268.825,23.732,-5.511,414.016,302.115,79.012,219.800,1345.290,-582.580
678,51072.748000,254.027,-0.505,-60.618,395.578,321.676,96.468,450.800,1095.290,-382.580
679,51072.790000,253.040,56.047,11.523,386.778,331.246,97.744,451.800,811.290,-282.580
680,51072.828000,225.418,19.692,-18.536,376.222,336.559,101.854,308.800,447.290,-2.580
681,51072.847000,221.472,24.742,-14.528,373.568,339.888,96.989,270.800,161.290,111.420
682,51072.887000,201.742,10.604,-59.616,375.323,338.965,94.978,348.800,-131.710,326.420
683,51072.929000,194.836,35.850,-43.585,382.338,329.168,85.746,148.800,-670.710,580.420
684,51072.967000,197.796,-42.919,5.511,392.854,322.593,67.693,1015.800,-486.710,667.420
685,51073.10000,374.382,265.089,-89.675,400.664,318.840,26.883,1055.800,-1133.710,554.420
686,51073.49000,232.324,22.722,-19.538,414.678,304.258,1.630,546.800,-760.710,786.420
687,51073.68000,257.973,-2.525,34.568,423.436,296.002,-14.498,296.800,-505.710,517.420
688,51073.107000,244.162,-13.633,-26.552,424.298,289.786,-19.661,148.800,-403.710,351.420
689,51073.148000,241.202,-1.515,-12.524,430.423,275.592,-31.025,425.800,-195.710,215.420
690,51073.190000,259.946,18.682,8.517,429.519,282.254,-40.742,384.800,-122.710,168.420
691,51073.228000,259.946,31.811,-3.507,429.506,272.650,-43.040,144.800,-156.710,166.420
692,51073.267000,257.973,4.544,0.501,432.132,272.483,-48.995,109.800,-136.710,125.420
693,51073.309000,254.027,1.515,-13.526,433.896,275.088,-48.904,54.800,-72.710,57.420
694,51073.328000,245.148,7.574,-14.528,431.253,274.218,-48.941,-78.200,32.290,-39.580
695,51073.372000,257.973,-5.554,-6.513,432.141,276.011,-46.894,-47.200,153.290,-100.580
696,51073.409000,258.960,14.643,-4.509,432.149,272.652,-43.031,-12.200,241.290,-197.580
697,51073.447000,251.067,7.574,-13.526,426.890,277.213,-34.956,-53.200,344.290,-287.580
698,51073.489000,251.067,14.643,5.511,425.172,291.438,-22.584,-231.200,429.290,-372.580
699,51073.527000,250.081,8.584,4.509,418.158,295.215,-11.561,-299.200,508.290,-457.580
700,51073.550000,252.054,37.870,11.523,408.523,304.366,5.586,-357.200,635.290,-575.580
701,51073.588000,265.865,37.870,28.556,403.293,318.701,21.922,-535.200,780.290,-591.580
702,51073.628000,273.757,73.215,34.568,388.409,329.083,52.001,-777.200,883.290,-675.580
703,51073.670000,259.946,54.028,20.540,372.659,333.586,88.837,-1096.200,1131.290,-767.580
704,51073.723000,196.809,-25.751,-9.519,366.579,343.050,116.929,-609.200,876.290,-396.580
705,51073.765000,263.892,-60.087,-141.777,364.825,335.378,121.639,50.800,306.290,-232.580
706,51073.790000,291.514,68.166,-34.568,369.246,330.370,128.442,-709.200,-226.710,-24.580
707,51073.809000,219.499,16.663,-44.587,376.301,325.280,132.271,-516.200,-497.710,200.420
708,51073.847000,192.863,23.732,-56.611,396.492,316.835,109.223,475.800,-1051.710,259.420
709,51073.889000,230.351,45.949,-53.605,408.761,306.732,89.075,397.800,-1375.710,480.420
710,51073.929000,249.094,26.761,-52.603,431.561,290.196,55.842,85.800,-1679.710,633.420
711,51073.978000,264.879,28.781,-35.569,461.392,267.475,18.460,-72.200,-1851.710,699.420
712,51074.8000,315.191,17.673,-2.505,484.146,243.600,-28.912,-277.200,-1915.710,714.420
713,51074.50000,317.164,14.643,35.569,501.606,229.968,-81.927,-356.200,-1930.710,641.420
714,51074.69000,275.730,18.682,94.685,509.421,210.760,-117.280,-51.200,-1626.710,433.420
715,51074.112000,260.933,32.821,130.755,504.886,191.374,-158.636,118.800,-733.710,216.420
716,51074.149000,225.418,42.919,164.822,509.255,187.567,-170.662,365.800,151.290,-26.580
717,51074.194000,253.040,13.633,103.703,517.209,184.383,-160.810,650.800,885.290,-174.580
718,51074.237000,245.148,8.584,71.640,519.876,179.458,-151.031,1100.800,1167.290,-266.580
719,51074.269000,347.746,58.067,68.634,525.231,184.450,-128.013,24.800,1130.290,-470.580
720,51074.289000,419.761,116.639,8.517,529.676,185.715,-114.056,200.800,436.290,-18.580
721,51074.337000,228.378,44.939,-19.538,534.983,180.765,-105.263,60.800,490.290,160.420
722,51074.374000,261.919,-43.929,-10.521,535.893,181.915,-95.293,93.800,545.290,-44.580
723,51074.412000,265.865,11.613,-29.558,534.184,195.356,-79.967,15.800,554.290,-280.580
724,51074.449000,251.067,-14.643,-2.505,535.981,200.875,-68.859,140.800,595.290,-273.580
725,51074.494000,243.175,54.028,12.524,534.249,203.760,-58.841,357.800,549.290,-285.580
726,51074.532000,248.108,42.919,19.538,530.743,203.926,-52.889,75.800,424.290,-215.580
727,51074.553000,240.216,32.821,33.566,530.773,211.124,-43.719,14.800,393.290,-190.580
728,51074.592000,251.067,16.663,22.544,528.150,211.319,-36.770,65.800,357.290,-167.580
729,51074.632000,252.054,22.722,20.540,529.935,215.857,-29.666,49.800,303.290,-218.580
730,51074.668000,241.202,48.978,33.566,523.793,225.570,-23.412,27.800,276.290,-257.580
731,51074.712000,256.000,18.682,42.583,522.037,233.381,-23.165,15.800,174.290,-213.580
732,51074.749000,253.040,17.673,43.585,522.047,232.625,-19.217,248.800,144.290,-222.580
733,51074.768000,210.620,114.619,9.519,514.118,246.395,-22.768,628.800,146.290,-189.580
734,51074.810000,257.973,41.909,42.583,513.268,251.016,-12.691,-256.200,299.290,-258.580
735,51074.849000,273.757,1.515,59.616,508.874,249.389,-8.785,-220.200,129.290,-284.580
736,51074.892000,270.798,15.653,-3.507,508.881,258.937,-8.476,136.800,80.290,-223.580
737,51074.928000,299.407,33.830,10.521,501.820,260.527,-13.412,161.800,85.290,-43.580
738,51074.968000,254.027,44.939,63.624,502.702,261.396,-13.381,599.800,234.290,2.420
739,51075.23000,210.620,63.116,31.562,501.829,264.056,-11.311,26.800,117.290,-67.580
740,51075.29000,206.674,77.254,29.558,498.321,263.354,-5.387,-632.200,46.290,21.420
741,51075.72000,201.742,80.284,37.573,498.330,256.551,-0.643,-579.200,47.290,-8.580
742,51075.109000,217.526,62.107,45.589,496.575,257.474,1.367,-228.200,-1.710,-68.580
743,51075.148000,237.256,60.087,66.630,493.926,260.860,-1.510,363.800,25.290,-70.580
744,51075.190000,218.513,77.254,62.622,495.682,265.116,-4.345,332.800,-3.710,-21.580
745,51075.228000,239.229,62.107,59.616,494.801,267.692,-5.258,106.800,-24.710,-3.580
746,51075.254000,233.310,64.126,78.654,495.675,266.768,-7.271,45.800,-60.710,18.420
747,51075.292000,228.378,53.018,52.603,494.802,265.984,-4.320,-161.200,-34.710,81.420
748,51075.329000,224.432,71.195,81.659,497.455,260.051,0.461,-319.200,35.290,94.420
749,51075.372000,225.418,68.166,69.636,495.714,258.539,8.350,-425.200,109.290,26.420
750,51075.413000,218.513,45.949,30.560,496.634,257.198,22.211,-440.200,50.290,84.420
751,51075.449000,218.513,6.564,-3.507,502.815,257.343,27.201,-279.200,-44.710,251.420
752,51075.492000,213.580,8.584,-18.536,506.312,251.912,19.092,449.800,-337.710,303.420
753,51075.510000,252.054,144.915,156.806,512.456,252.559,11.189,396.800,-152.710,136.420
754,51075.550000,362.543,33.830,-7.515,518.577,239.178,-2.135,466.800,-648.710,648.420
755,51075.592000,259.946,-24.742,-0.501,522.936,224.087,-14.526,-170.200,-665.710,645.420
756,51075.629000,265.865,13.633,28.556,527.313,216.921,-22.689,4.800,-391.710,373.420
757,51075.673000,264.879,-0.505,14.528,530.820,208.999,-26.907,-179.200,-261.710,159.420
758,51075.710000,256.987,21.712,-4.509,534.337,208.077,-28.911,89.800,-142.710,75.420
759,51075.733000,254.027,20.702,13.526,532.567,207.991,-31.899,-32.200,-117.710,94.420
760,51075.772000,253.040,17.673,15.530,535.206,206.229,-32.940,-100.200,-100.710,48.420
761,51075.819000,251.067,17.673,13.526,530.788,207.821,-37.868,-88.200,-125.710,21.420
762,51075.850000,252.054,16.663,15.530,529.890,200.764,-42.072,-92.200,-184.710,38.420
763,51075.893000,250.081,9.594,11.523,529.895,206.839,-41.874,-66.200,-247.710,24.420
764,51075.930000,248.108,21.712,6.513,532.516,204.040,-48.908,-156.200,-281.710,20.420
765,51075.972000,252.054,17.673,12.524,534.264,204.769,-53.844,-256.200,-355.710,31.420
766,51075.990000,248.108,27.771,17.534,532.472,205.326,-64.754,-249.200,-558.710,53.420
767,51076.33000,247.121,39.890,2.505,530.660,203.109,-81.713,-321.200,-798.710,152.420
768,51076.72000,250.081,35.850,-3.507,527.083,199.128,-99.727,-330.200,-996.710,247.420
769,51076.109000,257.973,33.830,15.530,526.123,191.451,-125.797,-360.200,-1296.710,414.420
770,51076.152000,318.150,53.018,26.552,520.753,173.383,-151.225,-5.200,-1611.710,730.420
771,51076.189000,444.424,92.402,67.632,512.695,147.106,-190.831,-196.200,-1885.710,1138.420
772,51076.232000,313.218,-85.333,-58.614,496.701,125.920,-234.268,100.800,-1878.710,966.420
773,51076.250000,281.649,-65.136,-88.673,473.702,110.330,-263.644,29.800,-1660.710,781.420
774,51076.299000,192.863,7.574,56.611,470.182,118.979,-264.368,-175.200,-238.710,210.420
775,51076.332000,129.726,24.742,88.673,473.779,125.734,-240.305,133.800,1062.290,-217.580
776,51076.369000,169.187,4.544,44.587,482.767,145.602,-182.038,241.800,2175.290,-650.580
777,51076.412000,251.067,15.653,-26.552,484.763,180.672,-107.413,183.800,3034.290,-1234.580
778,51076.453000,371.422,30.801,-38.575,474.353,208.113,-56.906,218.800,3165.290,-1509.580
779,51076.478000,356.624,1.515,-104.704,449.048,253.578,17.970,-660.200,2950.290,-1516.580
780,51076.510000,274.744,-0.505,-183.859,421.918,282.044,74.414,-922.200,1915.290,-1025.580
781,51076.553000,251.067,-109.570,-160.814,413.183,291.393,98.521,-109.200,996.290,-107.580
782,51076.589000,276.717,-201.467,-339.162,420.121,288.592,60.719,1347.800,-907.710,375.420
783,51076.632000,465.141,124.718,-41.581,424.449,286.967,33.869,1022.800,-1152.710,637.420
784,51076.670000,283.622,59.077,-63.624,430.545,275.936,11.685,388.800,-756.710,613.420
785,51076.713000,253.040,4.544,23.546,439.317,266.952,0.499,144.800,-298.710,366.420
786,51076.732000,261.919,9.594,-16.532,441.050,258.048,-7.729,134.800,-308.710,280.420
787,51076.773000,245.148,-20.702,-7.515,440.145,252.642,-14.858,284.800,-177.710,122.420
788,51076.810000,233.310,55.037,-55.609,441.902,256.899,-17.693,293.800,10.290,-38.580
789,51076.853000,256.987,76.245,-16.532,441.042,263.143,-11.535,-697.200,80.290,-149.580
790,51076.894000,256.000,-77.254,41.581,440.185,264.236,-3.559,-160.200,204.290,24.420
791,51076.932000,246.135,10.604,14.528,439.313,266.056,-0.524,55.800,158.290,-214.580
792,51076.954000,273.757,-6.564,36.571,437.567,267.932,4.497,-167.200,177.290,-253.580
793,51076.992000,264.879,22.722,10.521,428.773,273.246,8.613,-81.200,207.290,-383.580
794,51077.34000,284.609,28.781,22.544,421.761,283.938,18.867,-119.200,424.290,-542.580
795,51077.72000,281.649,44.939,24.548,415.643,295.612,33.128,-436.200,590.290,-523.580
796,51077.113000,251.067,67.156,3.507,409.525,304.710,48.299,-683.200,703.290,-456.580
797,51077.158000,170.173,-14.643,-121.738,404.300,302.722,70.063,-487.200,475.290,-302.580
798,51077.193000,302.366,-55.037,-117.730,402.551,312.325,72.355,268.800,9.290,-145.580
799,51077.212000,311.245,62.107,-25.550,406.941,303.564,69.106,-176.200,-392.710,155.420
800,51077.250000,272.771,3.535,-59.616,415.732,282.710,67.465,-836.200,-801.710,392.420
801,51077.292000,278.690,42.919,-80.658,431.562,276.420,59.367,-923.200,-1203.710,306.420
802,51077.330000,242.189,-0.505,-65.628,447.357,256.857,41.902,-1114.200,-1342.710,323.420
803,51077.379000,229.364,0.505,-47.593,461.378,249.247,17.869,-463.200,-1475.710,259.420
804,51077.412000,237.256,-8.584,-63.624,468.356,238.217,-4.313,166.800,-1457.710,275.420
805,51077.440000,242.189,4.544,-49.597,487.597,228.227,-51.246,433.800,-1457.710,288.420
806,51077.474000,229.364,-14.643,-31.562,493.629,213.972,-95.381,863.800,-1156.710,272.420
807,51077.513000,269.811,2.525,66.630,497.907,195.489,-135.686,900.800,-984.710,279.420
808,51077.553000,225.418,40.899,134.763,503.143,177.766,-149.154,475.800,-449.710,148.420
809,51077.592000,272.771,33.830,187.867,511.929,177.547,-157.077,62.800,458.290,-4.580
810,51077.632000,271.784,140.876,169.832,521.700,186.099,-130.950,-104.200,1323.290,-609.580
811,51077.680000,358.597,-50.998,122.740,526.176,191.118,-106.941,430.800,1002.290,-187.580
812,51077.692000,311.245,145.925,-32.564,526.219,192.409,-92.004,824.800,843.290,-237.580
813,51077.730000,274.744,43.929,-24.548,529.760,189.136,-85.148,106.800,594.290,53.420
814,51077.773000,257.973,-10.604,-31.562,532.439,192.080,-73.128,29.800,589.290,26.420
815,51077.815000,256.987,-0.505,-30.560,534.241,184.720,-57.473,-168.200,616.290,-214.580
816,51077.853000,244.162,4.544,-19.538,529.021,201.744,-38.071,-301.200,664.290,-313.580
817,51077.895000,251.067,-6.564,-6.513,532.586,211.632,-25.822,-112.200,663.290,-338.580
818,51077.914000,245.148,7.574,10.521,529.104,218.072,-12.716,191.800,611.290,-284.580
819,51077.955000,246.135,40.899,55.609,529.139,223.590,-1.614,105.800,566.290,-250.580
820,51077.993000,247.121,35.850,28.556,527.411,223.058,10.279,110.800,510.290,-203.580
821,51078.42000,255.013,28.781,22.544,519.510,225.910,19.284,-22.200,508.290,-265.580
822,51078.73000,255.013,24.742,34.568,519.556,234.984,33.480,-287.200,493.290,-316.580
823,51078.114000,237.256,38.880,39.577,514.314,244.027,46.665,-153.200,509.290,-368.580
824,51078.152000,251.067,5.554,55.609,507.297,251.219,55.813,-109.200,535.290,-342.580
825,51078.175000,236.270,79.274,51.601,500.298,263.760,70.100,93.800,543.290,-393.580
826,51078.215000,241.202,38.880,63.624,494.150,266.529,76.128,-250.200,521.290,-404.580
827,51078.255000,245.148,29.791,80.658,488.038,274.815,93.258,-150.200,498.290,-390.580
828,51078.298000,242.189,62.107,100.697,484.535,287.945,97.645,212.800,364.290,-205.580
829,51078.335000,275.730,63.116,80.658,486.289,284.418,95.550,-0.200,-191.710,-71.580
830,51078.372000,274.744,57.057,44.587,484.491,282.343,83.561,-133.200,-268.710,63.420
831,51078.393000,247.121,50.998,39.577,487.132,283.185,82.604,-125.200,-96.710,1.420
832,51078.432000,233.310,16.663,62.622,482.718,286.541,78.727,206.800,30.290,-39.580
833,51078.474000,204.701,56.047,41.581,482.720,288.277,78.783,73.800,41.290,-58.580
834,51078.512000,204.701,55.037,74.646,482.718,286.541,78.727,-66.200,-33.710,-10.580
835,51078.554000,217.526,47.968,74.646,482.692,281.975,70.634,45.800,-104.710,87.420
836,51078.592000,222.459,55.037,67.632,482.666,276.542,62.514,292.800,-73.710,91.420
837,51078.634000,215.553,58.067,55.609,484.411,276.374,56.556,624.800,-35.710,86.420
838,51078.653000,230.351,54.028,35.569,488.775,278.559,41.746,540.800,-210.710,178.420
839,51078.697000,234.297,61.097,60.618,493.143,274.752,29.721,434.800,-386.710,234.420
840,51078.734000,237.256,78.264,90.677,493.977,265.678,15.527,221.800,-398.710,294.420
841,51078.772000,234.297,92.402,106.708,500.102,254.929,3.282,220.800,-189.710,139.420
842,51078.814000,236.270,93.412,113.722,500.996,261.090,6.464,-97.200,-77.710,57.420
843,51078.865000,226.405,90.383,110.716,499.238,255.097,9.243,-426.200,74.290,-64.580
844,51078.895000,240.216,79.274,108.712,497.514,263.218,20.424,-418.200,226.290,-151.580
845,51078.914000,236.270,69.176,92.681,499.312,262.717,33.322,-382.200,240.290,-118.580
846,51078.952000,232.324,72.205,90.677,494.059,269.071,43.441,-7.200,295.290,-125.580
847,51079.0,227.391,62.107,80.658,493.216,278.060,54.653,35.800,302.290,-88.580
848,51079.40000,224.432,65.136,65.628,489.721,283.519,63.756,57.800,281.290,-99.580
849,51079.72000,228.378,41.909,50.599,480.951,286.483,76.733,-126.200,225.290,-28.580
850,51079.113000,215.553,20.702,12.524,478.334,287.603,85.698,-127.200,51.290,98.420
851,51079.139000,244.162,-6.564,-14.528,485.363,277.947,81.435,-57.200,-241.710,322.420
852,51079.174000,239.229,86.343,124.744,492.385,269.943,74.247,643.800,-299.710,350.420
853,51079.212000,250.081,83.314,73.644,495.006,270.588,66.332,364.800,-271.710,326.420
854,51079.254000,320.123,25.751,-2.505,501.121,262.330,50.196,230.800,-477.710,529.420
855,51079.297000,258.960,-14.643,14.528,505.489,246.455,40.758,307.800,-463.710,582.420
856,51079.334000,246.135,43.929,27.554,510.752,242.790,33.705,332.800,-379.710,377.420
857,51079.382000,255.013,18.682,32.564,512.493,233.102,28.431,-159.200,-285.710,277.420
858,51079.394000,251.067,8.584,23.546,521.276,224.232,21.221,86.800,-231.710,271.420
859,51079.435000,248.108,42.919,42.583,518.606,217.928,13.064,179.800,-194.710,221.420
860,51079.473000,258.960,11.613,40.579,524.768,215.301,12.005,-273.200,-308.710,234.420
861,51079.517000,247.121,12.623,29.558,522.990,213.423,6.974,-294.200,-350.710,219.420
862,51079.554000,255.013,-8.584,17.534,525.619,208.972,2.866,-85.200,-377.710,218.420
863,51079.597000,246.135,-7.574,5.511,525.572,203.341,-12.212,11.800,-432.710,133.420
864,51079.615000,254.027,14.643,18.536,527.319,198.022,-16.351,43.800,-341.710,99.420
865,51079.657000,256.000,-4.544,-11.523,526.411,191.720,-24.502,79.800,-291.710,91.420
866,51079.693000,252.054,5.554,6.513,528.162,195.920,-29.325,91.800,-160.710,29.420
867,51079.737000,251.067,0.505,-0.501,526.388,199.250,-34.188,166.800,-135.710,12.420
868,51079.774000,251.067,26.761,11.523,529.888,190.404,-40.422,175.800,-107.710,29.420
869,51079.833000,257.973,19.692,1.503,526.363,195.553,-42.252,1.800,-219.710,69.420
870,51079.853000,251.067,10.604,13.526,528.107,194.517,-48.238,-85.200,-301.710,77.420
871,51079.877000,255.013,6.564,-11.523,528.072,185.556,-58.459,-96.200,-339.710,106.420
872,51079.913000,251.067,-1.515,-16.532,526.300,191.489,-63.237,-103.200,-282.710,32.420
873,51079.955000,254.027,7.574,-12.524,528.052,188.802,-66.297,-148.200,-238.710,-22.580
874,51079.997000,255.013,4.544,-13.526,528.039,186.954,-70.329,-189.200,-264.710,-30.580
875,51080.34000,253.040,11.613,-12.524,524.502,191.990,-76.135,-213.200,-221.710,-35.580
876,51080.77000,253.040,-3.535,-3.507,523.616,196.245,-78.979,-178.200,-273.710,-31.580
877,51080.93000,258.960,13.633,-20.540,521.838,196.942,-84.920,-112.200,-352.710,-56.580
878,51080.135000,259.946,15.653,-36.571,518.291,193.271,-92.001,-295.200,-411.710,-15.580
879,51080.174000,263.892,5.554,-38.575,513.873,201.750,-98.691,-330.200,-388.710,-65.580
880,51080.217000,245.148,28.781,-44.587,511.207,200.655,-106.679,-443.200,-407.710,-114.580
881,51080.253000,248.108,-2.525,-26.552,506.798,210.087,-110.359,-382.200,-434.710,-8.580
882,51080.295000,257.973,41.909,-17.534,505.006,203.756,-119.508,-66.200,-539.710,107.420
883,51080.334000,279.676,46.959,-32.564,504.959,205.014,-136.348,-68.200,-752.710,320.420
884,51080.353000,287.568,4.544,-33.566,503.149,194.202,-150.606,77.800,-705.710,438.420
885,51080.394000,282.636,-4.544,-40.579,495.156,179.773,-169.967,229.800,-712.710,476.420
886,51080.437000,268.825,-15.653,-64.626,496.001,168.208,-180.269,89.800,-830.710,443.420
887,51080.477000,255.013,0.505,0.501,487.136,158.175,-197.504,9.800,-752.710,349.420
888,51080.518000,224.432,2.525,9.519,482.717,154.587,-201.607,-31.200,-307.710,169.420
889,51080.555000,224.432,2.525,-1.503,478.343,165.225,-193.332,-73.200,262.290,-87.580
890,51080.574000,213.580,8.584,-2.505,480.130,173.235,-186.115,-20.200,684.290,-256.580
891,51080.617000,220.486,4.544,-5.511,476.702,187.966,-155.858,16.800,1074.290,-405.580
892,51080.654000,247.121,0.505,-42.583,475.931,199.395,-119.742,190.800,1513.290,-614.580
893,51080.697000,266.852,16.663,-25.550,468.130,227.368,-81.126,138.800,1581.290,-738.580
894,51080.734000,273.757,23.732,-22.544,458.510,234.085,-58.100,120.800,1527.290,-750.580
895,51080.777000,270.798,35.850,-14.528,448.928,259.283,-25.537,-109.200,1430.290,-678.580
896,51080.818000,267.838,41.909,-27.554,432.291,276.636,5.755,-440.200,1319.290,-687.580
897,51080.843000,271.784,22.722,-32.564,417.405,292.170,34.015,-285.200,1208.290,-648.580
898,51080.878000,251.067,11.613,-46.591,404.256,307.451,53.336,-155.200,1061.290,-494.580
899,51080.914000,225.418,26.761,-50.599,395.485,313.859,65.432,95.800,802.290,-245.580
900,51080.957000,229.364,11.613,-57.613,388.463,318.419,73.501,-18.200,420.290,-91.580
901,51080.994000,221.472,-23.732,-151.796,389.285,326.452,50.925,1227.800,-474.710,185.420
902,51081.34000,311.245,31.811,99.695,398.035,318.979,31.844,588.800,-655.710,634.420
903,51081.58000,323.083,-0.505,37.573,405.922,311.675,18.724,382.800,-577.710,566.420
904,51081.97000,282.636,66.146,-23.546,417.310,300.704,-1.456,539.800,-651.710,409.420
905,51081.134000,262.906,13.633,3.507,419.014,294.962,-20.503,574.800,-324.710,371.420
906,51081.188000,255.013,23.732,-7.515,419.870,287.821,-27.683,404.800,-221.710,219.420
907,51081.218000,254.027,14.643,-5.511,424.266,288.608,-30.623,181.800,-74.710,146.420
908,51081.255000,251.067,22.722,4.509,424.260,284.240,-31.757,169.800,37.290,59.420
909,51081.298000,251.067,34.840,-7.515,424.251,283.287,-34.767,11.800,84.290,-29.580
910,51081.314000,257.973,46.959,9.519,422.500,282.531,-30.826,-93.200,132.290,-80.580
911,51081.357000,256.000,11.613,35.569,420.766,285.387,-21.802,-127.200,139.290,-37.580
912,51081.403000,251.067,12.623,11.523,423.403,289.644,-24.634,41.800,170.290,-147.580
913,51081.438000,249.094,33.830,16.532,419.021,293.310,-17.578,-60.200,204.290,-201.580
914,51081.474000,251.067,30.801,12.524,417.271,290.846,-12.699,-95.200,272.290,-250.580
915,51081.520000,250.081,37.870,29.558,412.035,304.256,1.622,-119.200,295.290,-292.580
916,51081.537000,254.027,43.929,29.558,412.911,298.181,1.427,-249.200,298.290,-327.580
917,51081.578000,259.946,61.097,26.552,402.390,312.456,15.759,-341.200,317.290,-352.580
918,51081.617000,263.892,61.097,25.550,396.258,317.101,26.813,-432.200,395.290,-371.580
919,51081.654000,254.027,61.097,-7.515,391.909,323.681,44.886,-410.200,559.290,-367.580
920,51081.695000,234.297,-29.791,-52.603,384.917,333.702,62.070,-505.200,522.290,-352.580
921,51081.734000,326.042,-23.732,-168.830,384.039,326.842,64.823,-442.200,-203.710,-138.580
922,51081.777000,265.865,-12.623,-117.730,394.613,326.878,65.851,-612.200,-712.710,156.420
923,51081.795000,240.216,4.544,-79.656,406.043,312.018,61.434,-871.200,-989.710,384.420
924,51081.838000,259.946,3.535,-61.620,418.347,298.810,54.094,-903.200,-1415.710,558.420
925,51081.885000,256.987,-6.564,-45.589,442.056,274.799,32.538,-588.200,-1579.710,590.420
926,51081.918000,273.757,11.613,9.519,459.561,253.862,-2.840,-124.200,-1673.710,635.420
927,51081.959000,269.811,22.722,7.515,477.052,233.653,-43.160,406.800,-1485.710,570.420
928,51081.998000,287.568,29.791,41.581,488.387,219.571,-81.314,321.800,-1213.710,491.420
929,51082.17000,255.013,35.850,59.616,495.357,202.436,-104.686,148.800,-938.710,380.420
930,51082.59000,259.946,48.978,71.640,501.467,199.301,-123.635,3.800,-344.710,143.420
931,51082.95000,259.946,47.968,65.628,508.485,189.533,-131.874,-122.200,-78.710,35.420
932,51082.138000,240.216,44.939,57.613,510.252,192.166,-130.790,-63.200,166.290,-84.580
933,51082.175000,231.337,43.929,60.618,512.902,190.517,-127.856,51.800,442.290,-192.580
934,51082.217000,288.555,30.801,46.591,518.237,200.491,-112.620,-175.200,708.290,-271.580
935,51082.259000,286.582,-58.067,33.566,517.393,200.857,-99.702,264.800,653.290,8.420
936,51082.279000,266.852,29.791,-34.568,525.373,205.681,-82.639,406.800,651.290,-82.580
937,51082.317000,276.717,72.205,-21.542,523.623,198.037,-76.935,257.800,512.290,-62.580
938,51082.358000,254.027,-1.515,-42.583,528.053,198.294,-67.975,468.800,581.290,-1.580
939,51082.398000,255.013,5.554,-5.511,528.959,193.368,-58.202,516.800,628.290,-46.580
940,51082.435000,262.906,26.761,5.511,530.753,194.547,-47.236,523.800,585.290,-85.580
941,51082.478000,258.960,0.505,2.505,530.770,195.584,-41.244,289.800,471.290,-87.580
942,51082.497000,256.000,2.525,7.515,532.559,204.463,-33.999,420.800,432.290,-122.580
943,51082.539000,256.987,19.692,-2.505,529.930,208.913,-29.891,366.800,410.290,-175.580
944,51082.578000,249.094,15.653,11.523,530.836,212.611,-21.824,201.800,377.290,-156.580
945,51082.615000,242.189,39.890,36.571,529.090,214.487,-16.804,217.800,390.290,-157.580
946,51082.658000,250.081,33.830,13.526,525.578,215.465,-12.812,157.800,315.290,-146.580
947,51082.700000,250.081,16.663,38.575,525.602,216.559,-4.832,-8.200,336.290,-127.580
948,51082.739000,247.121,13.633,38.575,524.750,221.151,4.251,99.800,319.290,-144.580
949,51082.758000,249.094,31.811,32.564,522.992,222.914,5.296,32.800,244.290,-139.580
950,51082.795000,244.162,28.781,46.591,523.008,229.103,9.468,73.800,186.290,-123.580
951,51082.838000,248.108,24.742,43.585,519.496,230.081,13.461,-6.200,162.290,-133.580
952,51082.879000,251.067,25.751,23.546,520.389,238.818,15.733,54.800,145.290,-150.580
953,51082.917000,250.081,48.978,33.566,512.472,235.481,20.565,-60.200,134.290,-188.580
954,51082.959000,249.094,11.613,50.599,513.377,240.887,27.694,-73.200,142.290,-203.580
955,51082.978000,250.081,36.860,41.581,515.142,245.228,27.840,-18.200,197.290,-256.580
956,51083.19000,245.148,37.870,42.583,509.872,254.857,31.115,67.800,148.290,-299.580
957,51083.57000,251.067,45.949,39.577,501.067,260.926,31.284,-10.200,199.290,-380.580
958,51083.99000,248.108,62.107,23.546,496.704,275.989,42.681,-228.200,322.290,-465.580
959,51083.137000,256.987,29.791,53.605,492.324,286.571,48.969,-286.200,345.290,-491.580
960,51083.178000,276.717,52.008,52.603,484.431,296.395,59.192,-204.200,257.290,-501.580
961,51083.224000,283.622,63.116,48.595,477.398,305.154,62.433,-381.200,179.290,-280.580
962,51083.238000,246.135,58.067,59.616,474.766,303.529,66.343,-238.200,153.290,-210.580
963,51083.279000,223.445,55.037,73.644,471.251,300.167,70.195,-166.200,221.290,-211.580
964,51083.317000,210.620,55.037,67.632,467.746,307.249,75.379,-80.200,124.290,-173.580
965,51083.359000,196.809,62.107,79.656,465.972,309.711,70.488,106.800,91.290,-89.580
966,51083.398000,200.755,96.442,94.685,464.223,311.558,74.514,-423.200,82.290,-119.580
967,51083.439000,218.513,68.166,89.675,463.366,310.075,83.400,-686.200,32.290,-85.580
968,51083.458000,230.351,65.136,93.683,462.511,310.328,92.343,-425.200,16.290,-25.580
969,51083.499000,222.459,71.195,98.693,457.223,304.276,93.122,-98.200,15.290,20.420
970,51083.537000,218.513,82.304,94.685,463.375,298.960,88.997,-23.200,-28.710,36.420
971,51083.580000,220.486,90.383,100.697,458.963,297.165,86.939,-144.200,-20.710,45.420
972,51083.618000,214.566,88.363,93.683,463.381,303.328,90.132,-36.200,14.290,19.420
973,51083.660000,215.553,82.304,91.679,460.748,306.015,93.190,189.800,69.290,-12.580
974,51083.698000,213.580,89.373,82.661,462.503,299.912,92.005,183.800,46.290,-26.580
975,51083.720000,218.513,88.363,74.646,460.747,311.167,91.371,-29.200,-27.710,-6.580
976,51083.774000,218.513,84.323,76.650,459.858,296.438,91.883,38.800,-42.710,-40.580
977,51083.799000,219.499,68.166,64.626,458.106,306.013,93.181,69.800,-84.710,2.420
978,51083.839000,223.445,66.146,76.650,455.439,308.362,84.312,222.800,-155.710,24.420
979,51083.877000,220.486,71.195,79.656,460.711,305.649,80.269,253.800,-162.710,56.420
980,51083.919000,217.526,64.126,69.636,462.465,309.877,76.440,85.800,-163.710,100.420
981,51083.938000,216.540,47.968,54.607,465.987,307.276,76.367,128.800,-197.710,191.420
982,51083.978000,224.432,58.067,57.613,470.365,305.290,67.379,255.800,-255.710,207.420
983,51084.19000,216.540,48.978,47.593,472.103,299.886,60.259,278.800,-249.710,262.420
984,51084.60000,222.459,102.501,71.640,476.503,297.257,59.195,-57.200,-188.710,97.420
985,51084.97000,246.135,58.067,81.659,481.783,289.449,58.958,-116.200,-273.710,350.420
986,51084.139000,263.892,30.801,73.644,491.439,281.362,48.797,197.800,-325.710,458.420
987,51084.183000,274.744,52.008,14.528,495.809,272.404,38.590,224.800,-470.710,507.420
988,51084.197000,267.838,41.909,7.515,504.602,264.485,34.389,53.800,-445.710,509.420
989,51084.238000,265.865,-2.525,12.524,507.216,256.450,26.193,-98.200,-397.710,483.420
990,51084.278000,253.040,37.870,26.552,507.187,239.789,19.694,-4.200,-269.710,316.420
991,51084.320000,249.094,5.554,26.552,516.865,238.815,15.722,15.800,-228.710,297.420
992,51084.357000,247.121,29.791,44.587,515.944,222.909,5.273,132.800,-180.710,255.420
993,51084.402000,248.108,14.643,30.560,519.466,228.063,3.465,237.800,-214.710,301.420
994,51084.430000,251.067,31.811,21.542,521.202,222.631,-4.649,236.800,-263.710,276.420
995,51084.459000,254.027,34.840,13.526,527.352,215.579,-8.830,62.800,-293.710,278.420
996,51084.507000,259.946,6.564,-3.507,526.458,210.286,-11.984,-97.200,-278.710,183.420
997,51084.552000,257.973,10.604,5.511,524.678,208.380,-18.009,-186.200,-214.710,92.420
998,51084.582000,252.054,4.544,5.511,526.424,202.192,-22.177,-209.200,-141.710,43.420
999,51084.624000,251.067,8.584,11.523,526.426,201.352,-21.211,-117.200,-138.710,36.420
1000,51084.662000,250.081,15.653,11.523,529.066,204.770,-23.077,-116.200,-155.710,23.420
1001,51084.680000,252.054,20.702,20.540,527.283,202.836,-30.097,-181.200,-209.710,16.420
1002,51084.718000,259.946,11.613,-3.507,529.042,206.253,-31.966,-175.200,-208.710,-0.580
1003,51084.760000,250.081,20.702,12.524,529.045,210.593,-31.825,-298.200,-248.710,-12.580
1004,51084.798000,258.960,25.751,9.519,525.507,210.449,-36.806,-538.200,-374.710,22.420
1005,51084.848000,225.418,19.692,31.562,528.103,200.509,-51.023,-501.200,-676.710,96.420
1006,51084.878000,251.067,12.623,27.554,525.424,201.877,-63.896,-327.200,-839.710,178.420
1007,51084.905000,266.852,26.761,0.501,523.599,192.632,-84.061,-113.200,-1111.710,236.420
1008,51084.940000,279.676,50.998,-10.521,519.990,184.029,-112.156,-315.200,-1317.710,401.420
1009,51084.978000,316.177,84.323,-3.507,514.610,175.340,-143.238,-257.200,-1428.710,679.420
1010,51085.18000,354.651,-6.564,10.521,510.131,162.537,-166.506,52.800,-1562.710,929.420
1011,51085.62000,307.299,-44.939,-44.587,497.697,140.851,-197.040,117.800,-1631.710,809.420
1012,51085.98000,256.987,-24.742,36.571,481.756,127.087,-223.355,48.800,-1225.710,556.420
1013,51085.143000,202.728,17.673,73.644,478.254,133.329,-217.206,-379.200,266.290,-18.580
1014,51085.162000,193.850,-2.525,35.569,480.997,142.073,-184.145,-209.200,1144.290,-316.580
1015,51085.199000,218.513,6.564,-26.552,485.508,168.121,-152.502,-24.200,1811.290,-609.580
1016,51085.238000,245.148,3.535,-38.575,478.645,195.790,-94.033,176.800,2215.290,-981.580
1017,51085.280000,271.784,8.584,-39.577,467.364,233.674,-42.197,346.800,2263.290,-1165.580
1018,51085.319000,297.434,-31.811,-120.736,442.842,257.491,3.182,338.800,2251.290,-1200.580
1019,51085.362000,284.609,-0.505,-78.654,430.590,287.586,24.972,746.800,1875.290,-937.580
1020,51085.380000,225.418,-57.057,-142.779,407.749,308.012,42.442,727.800,1203.290,-662.580
1021,51085.418000,249.094,-106.540,-161.816,398.939,319.205,39.798,1166.800,637.290,-297.580
1022,51085.460000,125.780,-145.925,-503.483,406.797,315.063,15.857,587.800,-1044.710,413.420
1023,51085.498000,262.906,65.136,119.734,413.805,311.230,2.847,1205.800,-56.710,299.420
1024,51085.543000,290.528,143.905,-46.591,419.015,296.698,-20.447,410.800,-548.710,399.420
1025,51085.580000,237.256,-10.604,13.526,425.152,291.241,-29.541,439.800,-199.710,443.420
1026,51085.618000,260.933,20.702,2.505,430.401,283.123,-40.711,348.800,-210.710,308.420
1027,51085.640000,256.000,15.653,-9.519,429.489,271.613,-49.031,301.800,-126.710,124.420
1028,51085.679000,245.148,-1.515,-5.511,429.479,274.104,-52.922,360.800,15.290,83.420
1029,51085.720000,252.054,30.801,2.505,429.483,275.868,-51.872,261.800,79.290,15.420
1030,51085.762000,256.000,25.751,1.503,432.125,277.578,-52.801,43.800,74.290,-8.580
1031,51085.803000,248.108,21.712,-7.515,430.373,275.953,-48.888,-5.200,97.290,-68.580
1032,51085.840000,256.000,10.604,19.538,429.505,282.113,-45.712,-60.200,145.290,-136.580
1033,51085.859000,249.094,20.702,10.521,426.878,284.856,-40.666,-43.200,170.290,-201.580
1034,51085.899000,252.054,25.751,2.505,425.129,290.147,-37.521,-67.200,199.290,-231.580
1035,51085.942000,251.067,12.623,28.556,418.993,297.340,-28.370,-192.200,247.290,-301.580
1036,51085.990000,251.067,29.791,14.528,419.884,295.718,-24.448,-97.200,344.290,-405.580
1037,51086.20000,251.067,35.850,10.521,411.099,306.296,-18.175,-158.200,413.290,-467.580
1038,51086.63000,255.013,44.939,20.540,404.996,319.847,1.112,-258.200,478.290,-546.580
1039,51086.100000,242.189,36.860,44.587,397.104,330.539,11.364,-352.200,413.290,-554.580
1040,51086.124000,263.892,91.393,39.577,388.334,338.682,23.516,-327.200,447.290,-559.580
1041,51086.160000,258.960,83.314,34.568,378.697,346.098,40.606,-556.200,457.290,-494.580
1042,51086.202000,261.919,56.047,25.550,369.049,345.646,55.455,-626.200,458.290,-491.580
1043,51086.239000,281.649,53.018,15.530,364.718,354.130,79.549,-808.200,306.290,-331.580
1044,51086.280000,261.919,-70.185,-95.687,364.745,348.364,90.285,-908.200,-127.710,-18.580
1045,51086.323000,220.486,45.949,-44.587,373.572,345.964,97.186,-713.200,-415.710,126.420
1046,51086.359000,212.593,40.899,-22.544,382.375,329.535,98.667,-854.200,-653.710,249.420
1047,51086.387000,217.526,9.594,-55.609,400.861,318.208,96.373,-708.200,-867.710,252.420
1048,51086.422000,234.297,6.564,-71.640,419.295,305.506,76.160,-178.200,-1359.710,406.420
1049,51086.463000,271.784,33.830,1.503,428.915,293.609,53.959,-180.200,-1568.710,400.420
1050,51086.503000,309.272,43.929,31.562,446.436,275.417,23.635,-207.200,-1571.710,570.420
1051,51086.540000,267.838,34.840,33.566,468.371,254.737,-2.784,-233.200,-1296.710,564.420
1052,51086.583000,280.663,5.554,11.523,482.373,240.042,-32.012,82.800,-1114.710,444.420
1053,51086.602000,265.865,7.574,-20.540,491.973,234.836,-62.933,313.800,-1199.710,524.420
1054,51086.639000,260.933,-18.682,-77.652,499.772,205.996,-101.578,356.800,-1199.710,583.420
1055,51086.682000,258.960,-10.604,-35.569,508.450,187.459,-143.857,536.800,-1179.710,638.420
1056,51086.722000,254.027,-14.643,-39.577,507.407,151.386,-192.695,770.800,-975.710,648.420
1057,51086.768000,220.486,11.613,-14.528,505.549,132.340,-222.115,492.800,-732.710,600.420
1058,51086.799000,204.701,48.978,19.538,501.972,113.715,-236.633,138.800,-368.710,402.420
1059,51086.842000,222.459,15.653,59.616,502.811,103.830,-248.867,269.800,190.290,19.420
1060,51086.860000,265.865,128.757,98.693,514.320,114.733,-231.595,-47.200,1116.290,-809.580
1061,51086.903000,414.829,-59.077,143.781,519.669,120.536,-210.537,704.800,1196.290,-264.580
1062,51086.939000,332.948,160.063,-71.640,525.869,126.899,-200.381,625.800,569.290,-398.580
1063,51086.982000,234.297,-9.594,-38.575,528.540,123.738,-189.552,736.800,611.290,-28.580
1064,51087.23000,240.216,-45.949,0.501,532.099,120.635,-176.732,383.800,672.290,-107.580
1065,51087.60000,260.933,-3.535,-50.599,533.029,127.163,-160.630,156.800,634.290,-199.580
1066,51087.92000,252.054,-12.623,-25.550,538.347,128.344,-149.652,38.800,550.290,-231.580
1067,51087.123000,247.121,-19.692,-21.542,538.388,133.918,-136.562,145.800,627.290,-227.580
