Sample, Time, ACCX, ACCY, ACCZ, MAGX, MAGY, MAGZ, GYRX, GYRY, GYRZ
0,51454.654000,255.013,50.998,-15.530,487.588,250.541,-59.459,-1085.200,-230.710,240.420
1,51454.694000,253.040,28.781,-20.540,491.125,249.817,-54.506,-1422.200,-246.710,262.420
2,51454.714000,241.202,16.663,-32.564,493.785,246.544,-47.653,-1180.200,-309.710,239.420
3,51454.754000,240.216,12.623,-31.562,494.651,241.224,-51.795,-994.200,-355.710,222.420
4,51454.796000,241.202,14.643,-27.554,496.401,244.556,-56.646,-452.200,-468.710,270.420
5,51454.834000,241.202,21.712,-34.568,498.121,233.804,-68.905,-21.200,-514.710,338.420
6,51454.877000,243.175,30.801,-5.511,500.710,217.759,-84.312,323.800,-538.710,350.420
7,51454.916000,235.283,34.840,11.523,500.649,207.676,-103.506,726.800,-463.710,228.420
8,51454.956000,240.216,64.126,40.579,503.245,197.735,-117.723,821.800,-181.710,87.420
9,51454.974000,256.000,89.373,77.652,503.236,196.783,-120.732,209.800,69.290,-133.580
10,51455.16000,267.838,-9.594,-24.548,505.022,199.614,-112.691,-499.200,120.290,-66.580
11,51455.56000,255.013,49.988,7.515,506.798,206.643,-109.478,-65.200,141.290,40.420
12,51455.94000,261.919,35.850,-5.511,506.811,205.048,-104.565,-52.200,79.290,78.420
13,51455.134000,256.000,42.919,-1.503,506.810,204.180,-104.593,218.800,79.290,113.420
14,51455.186000,248.108,7.574,-1.503,508.570,197.266,-103.819,168.800,25.290,145.420
15,51455.214000,255.013,26.761,-1.503,511.198,191.947,-107.955,-9.200,-26.710,122.420
16,51455.236000,251.067,21.712,-14.528,513.838,189.345,-108.031,-69.200,-30.710,134.420
17,51455.276000,252.054,8.584,-2.505,518.244,190.216,-107.989,47.800,-38.710,157.420
18,51455.314000,253.040,16.663,0.501,516.477,184.139,-108.191,152.800,-15.710,140.420
19,51455.354000,255.013,21.712,-11.523,515.592,181.506,-109.273,86.800,-28.710,145.420
20,51455.402000,254.027,9.594,-16.532,514.708,173.722,-108.535,54.800,-4.710,150.420
21,51455.439000,252.054,14.643,-12.524,520.875,171.150,-107.606,67.800,34.290,131.420
22,51455.461000,253.040,7.574,-8.517,520.873,164.234,-106.837,38.800,44.290,118.420
23,51455.494000,255.013,15.653,-8.517,521.756,166.839,-106.750,34.800,58.290,118.420
24,51455.534000,251.067,2.525,-9.519,526.162,164.266,-105.826,76.800,71.290,116.420
25,51455.574000,252.054,5.554,-5.511,520.884,163.479,-102.890,88.800,117.290,111.420
26,51455.614000,256.987,6.564,-5.511,527.067,158.473,-96.082,148.800,234.290,108.420
27,51455.659000,253.040,-1.515,0.501,533.244,157.722,-92.114,146.800,234.290,82.420
28,51455.701000,251.067,-3.535,-2.505,530.599,150.804,-91.354,156.800,160.290,44.420
29,51455.714000,252.054,3.535,8.517,529.732,150.076,-86.416,109.800,106.290,41.420
30,51455.757000,253.040,-0.505,4.509,532.372,150.918,-87.373,185.800,129.290,22.420
31,51455.797000,257.973,5.554,8.517,532.382,148.427,-83.482,138.800,185.290,5.420
32,51455.836000,250.081,5.554,10.521,532.383,145.851,-82.572,115.800,151.290,13.420
33,51455.877000,250.081,5.554,18.536,534.156,150.277,-79.444,66.800,87.290,34.420
34,51455.915000,252.054,2.525,9.519,536.813,149.551,-74.494,59.800,38.290,24.420
35,51455.941000,253.040,7.574,10.521,534.158,145.125,-77.625,-44.200,62.290,25.420
36,51455.981000,255.013,-1.515,12.524,534.167,149.521,-75.496,23.800,58.290,7.420
37,51456.18000,253.040,1.515,18.536,533.296,143.586,-70.727,-16.200,48.290,-6.580
38,51456.60000,253.040,5.554,10.521,533.291,144.397,-72.687,19.800,32.290,-12.580
39,51456.101000,254.027,6.564,10.521,534.176,142.718,-70.752,-15.200,48.290,3.420
40,51456.137000,249.094,-0.505,12.524,534.184,149.690,-69.533,22.800,27.290,-10.580
41,51456.178000,256.987,10.604,14.528,534.181,145.350,-69.674,-43.200,40.290,-40.580
42,51456.201000,249.094,0.505,14.528,534.191,151.483,-67.489,-85.200,-7.710,-33.580
43,51456.238000,255.013,8.584,14.528,532.427,152.321,-68.460,-163.200,-22.710,-34.580
44,51456.278000,253.040,0.505,14.528,533.312,154.086,-67.407,-218.200,-58.710,-32.580
45,51456.317000,252.054,-0.505,15.530,532.423,150.557,-69.510,-161.200,-61.710,-51.580
46,51456.362000,253.040,-3.535,15.530,530.669,157.528,-68.297,-40.200,-64.710,-85.580
47,51456.397000,257.973,5.554,0.501,529.777,154.839,-71.366,-36.200,-23.710,-128.580
48,51456.428000,256.987,5.554,10.521,531.549,160.972,-69.175,-150.200,28.290,-171.580
49,51456.464000,253.040,3.535,14.528,528.914,171.387,-68.846,-217.200,16.290,-204.580
50,51456.497000,245.148,8.584,24.548,527.159,172.310,-66.835,-253.200,-49.710,-208.580
51,51456.540000,249.094,12.623,20.540,522.752,177.458,-68.669,-253.200,-122.710,-182.580
52,51456.575000,250.081,2.525,28.556,522.740,176.477,-72.672,90.800,-204.710,-141.580
53,51456.616000,249.094,28.781,11.523,522.723,184.064,-80.370,93.800,-322.710,-128.580
54,51456.656000,257.973,35.850,5.511,517.423,191.675,-87.091,-180.200,-382.710,-115.580
55,51456.681000,259.946,12.623,6.513,512.996,191.446,-95.057,-126.200,-336.710,-97.580
56,51456.718000,261.919,21.712,0.501,511.214,195.560,-102.873,117.800,-309.710,-79.580
57,51456.763000,257.973,28.781,-35.569,511.210,197.239,-104.804,-13.200,-204.710,-41.580
58,51456.796000,262.906,16.663,-16.532,507.670,191.048,-108.988,-252.200,-149.710,-91.580
59,51456.840000,252.054,-24.742,-7.515,506.797,198.020,-107.772,-622.200,-120.710,-47.580
60,51456.880000,256.987,-23.732,-14.528,507.685,195.501,-104.872,-539.200,-49.710,84.420
61,51456.898000,234.297,23.732,4.509,507.724,199.339,-91.838,-858.200,202.290,57.420
62,51456.941000,219.499,65.136,5.511,503.372,205.023,-74.787,-1212.200,317.290,-26.580
63,51456.981000,244.162,53.018,-37.573,506.939,214.071,-61.573,-1046.200,197.290,-142.580
64,51457.21000,252.054,22.722,27.554,502.560,222.077,-54.376,-548.200,-57.710,-172.580
65,51457.61000,250.081,18.682,25.550,502.578,223.982,-48.357,-144.200,140.290,-70.580
66,51457.101000,256.000,1.515,19.538,506.101,223.117,-48.373,256.800,141.290,13.420
67,51457.141000,266.852,40.899,-19.538,503.467,223.200,-45.400,-147.200,44.290,-4.580
68,51457.161000,255.013,11.613,3.507,504.349,224.936,-45.341,-106.200,79.290,-15.580
69,51457.202000,251.067,20.702,-0.501,506.113,224.098,-44.370,361.800,218.290,11.420
70,51457.242000,255.013,37.870,3.507,505.243,219.030,-39.572,284.800,193.290,-10.580
71,51457.277000,251.067,37.870,15.530,505.253,217.407,-35.653,45.800,192.290,-16.580
72,51457.318000,252.054,30.801,24.548,505.260,219.199,-33.608,33.800,129.290,16.420
73,51457.357000,246.135,23.732,20.540,506.132,219.115,-36.587,282.800,68.290,77.420
74,51457.377000,251.067,32.821,14.528,505.242,213.850,-38.747,355.800,58.290,107.420
75,51457.418000,252.054,28.781,13.526,507.888,211.304,-36.835,110.800,14.290,79.420
76,51457.458000,258.960,21.712,9.519,508.773,215.645,-36.691,158.800,44.290,34.420
77,51457.498000,251.067,31.811,13.526,507.888,214.748,-37.716,29.800,98.290,17.420
78,51457.538000,254.027,16.663,15.530,508.788,216.654,-31.694,-84.200,127.290,-3.580
79,51457.579000,252.054,22.722,21.542,508.789,214.946,-30.756,-3.200,93.290,-0.580
80,51457.618000,252.054,29.791,12.524,507.914,211.558,-27.890,43.800,96.290,-0.580
81,51457.639000,254.027,30.801,14.528,507.917,211.586,-26.896,-19.200,85.290,-14.580
82,51457.678000,251.067,18.682,24.548,509.686,214.248,-24.818,-17.200,80.290,-11.580
83,51457.726000,250.081,25.751,26.552,510.570,213.408,-23.849,28.800,58.290,-9.580
84,51457.763000,253.040,26.761,25.550,507.932,209.151,-21.017,-20.200,51.290,-2.580
85,51457.799000,248.108,22.722,25.550,510.584,217.861,-19.733,-31.200,38.290,2.420
86,51457.843000,248.108,26.761,24.548,511.465,217.862,-19.730,-7.200,7.290,7.420
87,51457.862000,249.094,23.732,26.552,505.293,210.913,-19.975,-43.200,-24.710,10.420
88,51457.902000,252.054,26.761,22.544,508.815,215.199,-21.811,-33.200,-16.710,8.420
89,51457.941000,249.094,21.712,21.542,508.820,210.944,-18.970,-21.200,-14.710,12.420
90,51457.982000,252.054,25.751,19.538,510.578,210.049,-19.986,1.800,-23.710,8.420
91,51458.22000,253.040,22.722,21.542,512.341,210.918,-19.953,-18.200,-19.710,4.420
92,51458.62000,250.081,24.742,23.546,508.815,216.067,-21.783,-12.200,-19.710,7.420
93,51458.99000,252.054,24.742,19.538,508.811,213.435,-22.861,8.800,-28.710,15.420
94,51458.117000,251.067,24.742,20.540,510.565,211.644,-24.900,15.800,-15.710,13.420
95,51458.163000,254.027,22.722,22.544,510.573,209.993,-21.974,-12.200,-0.710,1.420
96,51458.199000,250.081,23.732,23.546,508.814,217.775,-22.720,9.800,6.290,6.420
97,51458.244000,250.081,23.732,22.544,508.805,205.623,-23.115,21.800,-6.710,13.420
98,51458.282000,252.054,23.732,20.540,507.925,211.670,-23.914,22.800,-18.710,13.420
99,51458.319000,252.054,22.722,22.544,511.448,209.937,-23.959,13.800,1.290,12.420
100,51458.362000,252.054,23.732,18.536,510.561,216.768,-27.712,47.800,17.290,14.420
101,51458.382000,250.081,24.742,23.546,511.444,212.485,-25.863,39.800,13.290,10.420
102,51458.419000,250.081,22.722,22.544,510.575,212.597,-21.890,29.800,5.290,7.420
103,51458.462000,251.067,22.722,23.546,509.689,209.964,-22.971,51.800,5.290,16.420
104,51458.499000,250.081,23.732,22.544,510.568,207.361,-23.053,57.800,-0.710,17.420
105,51458.539000,249.094,22.722,22.544,508.811,210.859,-21.952,23.800,-21.710,17.420
106,51458.580000,251.067,23.732,20.540,512.330,210.806,-23.928,21.800,-23.710,19.420
107,51458.601000,251.067,22.722,23.546,512.321,210.721,-26.910,24.800,-26.710,22.420
108,51458.641000,251.067,20.702,20.540,511.438,211.560,-27.879,38.800,-27.710,23.420
109,51458.683000,249.094,18.682,22.544,513.192,208.901,-29.945,83.800,-44.710,38.420
110,51458.718000,249.094,25.751,17.534,513.188,202.825,-30.142,128.800,-15.710,41.420
111,51458.757000,250.081,20.702,20.540,514.941,202.742,-33.118,85.800,-29.710,55.420
112,51458.798000,252.054,18.682,23.546,512.296,200.136,-33.211,139.800,-39.710,66.420
113,51458.838000,252.054,23.732,18.536,513.157,199.072,-40.194,81.800,-48.710,71.420
114,51458.858000,253.040,21.712,18.536,515.805,195.686,-37.317,52.800,-64.710,79.420
115,51458.900000,251.067,18.682,14.528,515.796,198.177,-41.208,48.800,-73.710,96.420
116,51458.940000,252.054,15.653,18.536,516.674,198.150,-42.199,66.800,-50.710,98.420
117,51458.979000,250.081,16.663,14.528,514.912,189.525,-40.498,53.800,-33.710,94.420
118,51459.27000,253.040,14.643,16.532,517.556,192.131,-40.405,65.800,-34.710,107.420
119,51459.59000,247.121,19.692,15.530,518.429,188.603,-42.503,60.800,-77.710,121.420
120,51459.79000,254.027,6.564,12.524,520.177,180.708,-45.733,120.800,-58.710,173.420
121,51459.120000,254.027,17.673,13.526,521.937,182.417,-46.664,110.800,-23.710,151.420
122,51459.159000,249.094,-1.515,17.534,523.690,178.022,-48.787,53.800,-46.710,172.420
123,51459.198000,247.121,11.613,13.526,521.922,169.341,-49.075,92.800,-88.710,140.420
124,51459.243000,259.946,3.535,10.521,526.318,170.127,-52.014,44.800,-97.710,134.420
125,51459.279000,256.000,2.525,2.505,524.554,170.098,-53.014,38.800,-51.710,100.420
126,51459.323000,256.000,-0.505,7.515,527.183,163.071,-56.212,10.800,23.290,47.420
127,51459.343000,256.000,5.554,13.526,524.550,161.446,-52.301,21.800,60.290,20.420
128,51459.378000,254.027,3.535,11.523,528.950,165.705,-55.128,17.800,50.290,27.420
129,51459.421000,253.040,9.594,11.523,529.843,167.554,-51.093,-35.200,48.290,16.420
130,51459.459000,250.081,-5.554,18.536,530.726,165.847,-50.153,-51.200,-19.710,55.420
131,51459.504000,254.027,4.544,12.524,526.288,159.486,-60.303,28.800,-25.710,34.420
132,51459.539000,254.027,-8.584,11.523,528.955,161.449,-52.287,-23.200,-34.710,22.420
133,51459.559000,254.027,-2.525,9.519,526.305,159.655,-54.340,25.800,22.290,-44.580
134,51459.599000,250.081,5.554,17.534,528.949,161.393,-54.275,-59.200,-26.710,-26.580
135,51459.638000,254.027,5.554,5.511,526.308,163.127,-54.227,-17.200,-12.710,-0.580
136,51459.679000,254.027,0.505,12.524,529.848,165.875,-49.162,-89.200,16.290,7.420
137,51459.718000,254.027,0.505,14.528,528.960,168.393,-52.062,-66.200,12.290,-27.580
138,51459.758000,256.000,5.554,11.523,528.967,165.874,-49.165,-99.200,-0.710,-33.580
139,51459.804000,250.081,-0.505,14.528,528.969,165.902,-48.171,-140.200,-33.710,-31.580
140,51459.824000,252.054,0.505,15.530,528.971,171.082,-48.996,-98.200,-64.710,-45.580
141,51459.864000,256.987,1.515,-1.503,526.329,168.504,-48.095,-32.200,-18.710,-92.580
142,51459.902000,256.000,-0.505,4.509,525.447,171.947,-48.979,-77.200,56.290,-152.580
143,51459.944000,256.000,0.505,-5.511,525.461,174.664,-44.919,-70.200,213.290,-228.580
144,51459.984000,262.906,14.643,5.511,525.498,187.098,-34.585,-160.200,312.290,-280.580
145,51460.21000,248.108,2.525,22.544,519.349,192.442,-29.467,-233.200,285.290,-286.580
146,51460.39000,256.000,20.702,22.544,515.860,201.401,-19.257,-177.200,315.290,-300.580
147,51460.84000,241.202,9.594,49.597,514.120,207.645,-13.102,-107.200,237.290,-231.580
148,51460.124000,253.040,20.702,42.583,512.368,212.908,-10.951,86.800,170.290,-177.580
149,51460.171000,246.135,25.751,42.583,512.364,207.700,-11.120,-52.200,45.290,-143.580
150,51460.199000,252.054,11.613,32.564,508.841,209.433,-11.075,-50.200,6.290,-128.580
151,51460.241000,249.094,25.751,25.550,509.730,212.094,-9.000,220.800,32.290,-37.580
152,51460.286000,247.121,30.801,28.556,508.853,220.745,-9.715,280.800,21.290,-19.580
153,51460.311000,251.067,33.830,23.546,505.315,220.602,-14.696,194.800,17.290,-41.580
154,51460.340000,254.027,32.821,25.550,505.305,215.338,-16.853,55.800,10.290,-56.580
155,51460.384000,248.108,28.781,27.554,507.968,223.292,-11.621,65.800,37.290,-89.580
156,51460.420000,248.108,39.890,27.554,504.446,221.582,-10.695,-63.200,45.290,-105.580
157,51460.461000,247.121,32.821,37.573,506.205,218.111,-10.802,-79.200,32.290,-83.580
158,51460.500000,246.135,32.821,37.573,504.452,230.262,-10.413,-50.200,13.290,-70.580
159,51460.522000,246.135,31.811,41.581,500.928,229.391,-10.453,-56.200,-31.710,-59.580
160,51460.563000,249.094,33.830,32.564,500.043,231.938,-12.359,-36.200,-76.710,-33.580
161,51460.602000,246.135,34.840,34.568,503.570,228.525,-10.472,7.800,-108.710,2.420
162,51460.642000,247.121,32.821,32.564,500.911,225.779,-15.535,41.800,-122.710,29.420
163,51460.682000,249.094,32.821,29.558,503.538,220.460,-19.671,48.800,-143.710,36.420
164,51460.724000,250.081,34.840,28.556,502.644,221.186,-24.615,11.800,-153.710,37.420
165,51460.766000,249.094,32.821,22.544,503.511,221.914,-29.554,2.800,-166.710,44.420
166,51460.786000,249.094,29.791,25.550,501.746,221.017,-30.582,-23.200,-169.710,36.420
167,51460.819000,255.013,35.850,12.524,501.745,223.593,-31.491,-62.200,-146.710,31.420
168,51460.859000,254.027,27.771,11.523,504.371,223.426,-37.446,-87.200,-109.710,25.420
169,51460.905000,252.054,27.771,12.524,505.258,227.794,-36.308,-86.200,-63.710,1.420
170,51460.945000,251.067,27.771,18.536,503.507,227.906,-32.339,-127.200,-41.710,-19.580
171,51460.986000,251.067,30.801,17.534,503.499,220.066,-33.586,-99.200,-20.710,-7.580
172,51461.5000,249.094,30.801,17.534,505.263,222.671,-33.496,-37.200,-15.710,-1.580
173,51461.39000,251.067,31.811,16.532,504.386,225.302,-32.420,-40.200,-13.710,7.420
174,51461.83000,248.108,28.781,19.538,504.384,222.698,-32.505,-24.200,-19.710,9.420
175,51461.123000,250.081,30.801,17.534,503.499,224.377,-34.439,-25.200,-18.710,9.420
176,51461.163000,250.081,30.801,16.532,503.500,226.113,-34.383,-26.200,-13.710,11.420
177,51461.203000,251.067,27.771,16.532,505.267,228.747,-33.299,-29.200,-12.710,5.420
178,51461.251000,253.040,31.811,16.532,504.366,220.793,-38.525,-27.200,-2.710,6.420
179,51461.265000,243.175,33.830,12.524,507.906,219.229,-32.606,110.800,200.290,64.420
180,51461.301000,247.121,46.959,14.528,506.158,223.680,-28.495,23.800,112.290,7.420
181,51461.340000,247.121,43.929,3.507,505.277,223.680,-28.498,84.800,129.290,22.420
182,51461.383000,260.933,47.968,3.507,504.406,225.500,-25.463,20.800,75.290,-6.580
183,51461.423000,239.229,36.860,30.560,506.170,228.105,-25.373,-282.200,-165.710,-82.580
184,51461.463000,243.175,30.801,57.613,504.397,227.991,-29.354,-414.200,-331.710,-66.580
185,51461.483000,247.121,2.525,44.587,504.373,226.898,-37.333,-390.200,-399.710,-23.580
186,51461.523000,253.040,29.791,12.524,500.833,224.150,-42.399,-354.200,-381.710,-8.580
187,51461.563000,256.000,13.633,17.534,501.712,231.878,-45.124,-193.200,-294.710,-46.580
188,51461.606000,271.784,7.574,-25.550,501.710,230.142,-45.181,-175.200,-139.710,-218.580
189,51461.646000,262.906,29.791,0.501,498.215,245.065,-38.750,-357.200,82.290,-337.580
190,51461.686000,269.811,45.949,-14.528,492.065,252.985,-34.540,-401.200,141.290,-395.580
191,51461.723000,262.906,41.909,-40.579,487.682,262.670,-29.275,-580.200,-10.710,-411.580
192,51461.766000,270.798,-57.057,-99.695,482.402,267.035,-28.157,-938.200,-225.710,-275.580
193,51461.781000,277.703,-136.836,-184.861,484.137,253.847,-34.538,-1633.200,-1000.710,670.420
194,51461.822000,280.663,-114.619,-149.793,484.966,229.206,-47.251,-3229.200,-1734.710,1195.420
195,51461.867000,287.568,-149.964,-94.685,486.662,212.180,-66.664,-4158.200,-2137.710,1318.420
196,51461.902000,276.717,-145.925,-61.620,481.320,202.149,-83.888,-3396.200,-2338.710,1394.420
197,51461.948000,295.461,-132.797,-22.544,473.290,179.598,-114.435,-1801.200,-2224.710,1264.420
198,51461.962000,274.744,-86.343,38.575,457.328,166.477,-148.674,-578.200,-1864.710,1212.420
199,51462.3000,264.879,-40.899,52.603,449.335,145.160,-166.272,74.800,-1242.710,1147.420
200,51462.43000,227.391,5.554,90.677,445.775,125.837,-174.854,-197.200,-403.710,938.420
201,51462.86000,207.661,44.939,88.673,446.672,120.826,-168.063,-890.200,306.290,623.420
202,51462.126000,236.270,60.087,69.636,454.683,125.961,-140.067,-1398.200,863.290,217.420
203,51462.166000,261.919,66.146,37.573,461.846,137.452,-101.938,-1337.200,1400.290,-141.580
204,51462.206000,263.892,50.998,22.544,463.711,146.223,-67.885,-285.200,1557.290,-316.580
205,51462.223000,277.703,56.047,-238.967,467.299,156.337,-47.686,177.800,1252.290,-303.580
206,51462.265000,237.256,-52.008,-283.053,466.433,161.657,-43.544,363.800,-13.710,-126.580
207,51462.306000,247.121,-17.673,-105.706,463.825,162.861,-31.597,372.800,706.290,82.420
208,51462.350000,315.191,-48.978,-2.505,462.084,157.038,-22.855,1137.800,761.290,-163.580
209,51462.384000,287.568,37.870,-48.595,461.216,158.886,-18.826,680.800,475.290,-100.580
210,51462.424000,256.987,-29.791,-42.583,464.758,157.349,-11.913,564.800,489.290,-9.580
211,51462.441000,250.081,33.830,-26.552,462.146,161.101,-1.870,37.800,306.290,20.420
212,51462.488000,246.135,-35.850,-24.548,462.151,163.733,-0.792,79.800,22.290,78.420
213,51462.522000,243.175,-28.781,-33.566,463.918,162.923,1.174,10.800,110.290,67.420
214,51462.562000,243.175,-29.791,-41.581,460.400,163.845,3.178,-89.200,50.290,4.420
215,51462.607000,254.027,-27.771,-33.566,463.054,166.535,6.253,-82.200,157.290,-97.580
216,51462.643000,254.027,-4.544,-26.552,457.791,167.625,14.215,-212.200,144.290,-90.580
217,51462.683000,259.946,-13.633,-23.546,459.541,162.333,11.070,-117.200,57.290,24.420
218,51462.703000,248.108,-16.663,-36.571,463.078,165.053,15.142,-125.200,-3.710,29.420
219,51462.742000,238.243,-28.781,-4.509,462.195,165.892,14.173,-341.200,-84.710,18.420
220,51462.783000,250.081,-30.801,-24.548,463.072,164.996,13.154,131.800,-97.710,54.420
221,51462.823000,251.067,-6.564,-37.573,464.831,164.101,12.138,77.800,-108.710,31.420
222,51462.867000,255.013,1.515,-36.571,462.174,164.827,7.188,-100.200,-174.710,35.420
223,51462.907000,248.108,1.515,-22.544,464.789,157.659,-0.980,-437.200,-426.710,116.420
224,51462.943000,261.919,-16.663,-28.556,464.763,148.782,-8.219,-397.200,-512.710,215.420
225,51462.967000,276.717,-6.564,-43.585,464.725,143.236,-20.315,-669.200,-822.710,291.420
226,51463.9000,295.461,13.633,-41.581,468.189,138.335,-40.323,-369.200,-1027.710,281.420
227,51463.42000,319.137,58.067,6.513,470.770,135.142,-61.271,-108.200,-1217.710,393.420
228,51463.87000,373.395,43.929,29.558,469.776,115.927,-96.653,411.800,-1636.710,824.420
229,51463.128000,351.692,-44.939,-66.630,466.985,83.438,-141.407,759.800,-1989.710,873.420
230,51463.168000,277.703,-55.037,-105.706,457.138,67.238,-192.607,1366.800,-2034.710,227.420
231,51463.182000,168.200,76.245,5.511,447.382,65.715,-215.527,-168.200,-1391.710,-612.580
232,51463.222000,138.605,38.880,-0.501,435.900,98.156,-233.378,-1614.200,-769.710,-1211.580
233,51463.274000,149.457,-111.590,0.501,436.803,131.980,-233.270,-921.200,265.290,-1529.580
234,51463.302000,180.039,-143.905,-32.564,446.563,149.911,-212.797,1085.800,1522.290,-1410.580
235,51463.343000,200.755,-131.787,-58.614,461.589,159.892,-197.530,2267.800,2082.290,-1271.580
236,51463.387000,234.297,-137.846,-70.638,485.474,163.471,-163.576,2752.800,2401.290,-1290.580
237,51463.428000,227.391,-125.728,-87.671,504.970,170.660,-124.554,3582.800,2540.290,-1314.580
238,51463.443000,271.784,-66.146,-90.677,513.024,187.416,-84.264,3556.800,2437.290,-1491.580
239,51463.483000,329.002,-91.393,-129.753,513.988,208.925,-59.732,2859.800,1810.290,-1386.580
240,51463.523000,259.946,-158.043,-143.781,508.709,221.045,-60.348,3268.800,803.290,-839.580
241,51463.562000,219.499,-96.442,-100.697,505.158,225.940,-71.124,3037.800,542.290,-326.580
242,51463.608000,271.784,-79.274,-139.773,511.259,217.541,-92.229,2244.800,66.290,212.420
243,51463.642000,272.771,-3.535,110.716,515.650,207.072,-94.541,657.800,528.290,369.420
244,51463.666000,370.435,67.156,-69.636,519.183,200.272,-89.785,-233.200,104.290,317.420
245,51463.704000,243.175,2.525,3.507,520.960,196.970,-83.929,-91.200,186.290,325.420
246,51463.744000,245.148,-11.613,22.544,526.243,186.614,-82.262,248.800,117.290,299.420
247,51463.784000,270.798,-1.515,-9.519,527.991,179.587,-85.464,517.800,76.290,241.420
248,51463.823000,252.054,39.890,-10.521,530.633,170.965,-83.749,469.800,207.290,209.420
249,51463.863000,259.946,14.643,-5.511,534.183,166.910,-73.939,82.800,356.290,242.420
250,51463.903000,260.933,11.613,-8.517,535.080,161.899,-67.148,70.800,338.290,224.420
251,51463.926000,253.040,12.623,31.562,535.094,158.596,-61.297,7.800,166.290,137.420
252,51463.968000,256.000,-2.525,4.509,538.626,157.815,-58.332,-79.200,35.290,219.420
253,51464.6000,245.148,-17.673,8.517,538.618,147.399,-58.670,197.800,77.290,240.420
254,51464.49000,259.946,0.505,15.530,539.490,138.692,-59.943,248.800,43.290,162.420
255,51464.84000,249.094,-3.535,8.517,542.140,137.042,-57.009,137.800,73.290,175.420
256,51464.126000,258.960,10.604,7.515,541.257,134.438,-57.096,106.800,71.290,126.420
257,51464.144000,250.081,-9.594,13.526,546.550,140.546,-55.888,-21.200,8.290,42.420
258,51464.188000,235.283,-42.919,1.503,545.669,137.101,-55.010,154.800,-52.710,48.420
259,51464.228000,236.270,-41.909,24.548,545.664,137.045,-56.998,221.800,56.290,31.420
260,51464.263000,256.000,-11.613,1.503,543.017,136.147,-58.028,69.800,-8.710,-52.580
261,51464.304000,250.081,-53.018,18.536,543.029,129.372,-52.290,226.800,120.290,-71.580
262,51464.348000,225.418,-43.929,26.552,543.029,132.816,-53.171,165.800,227.290,86.420
263,51464.384000,276.717,-14.643,45.589,550.088,125.178,-47.439,260.800,258.290,94.420
264,51464.408000,291.514,33.830,14.528,547.456,125.289,-43.471,117.800,171.290,-53.580
265,51464.445000,261.919,29.791,40.579,546.587,129.712,-40.352,84.800,29.290,101.420
266,51464.485000,263.892,-93.412,19.538,547.452,122.656,-44.550,581.800,-153.710,267.420
267,51464.524000,267.838,-5.554,7.515,546.538,116.298,-54.689,1077.800,-95.710,202.420
268,51464.565000,259.946,17.673,6.513,544.762,112.712,-58.783,-433.200,-144.710,90.420
269,51464.603000,277.703,-147.945,63.624,540.355,110.105,-58.882,-283.200,-106.710,145.420
270,51464.626000,229.364,-42.919,111.718,544.755,106.608,-59.974,936.800,273.290,167.420
271,51464.668000,216.540,-44.939,111.718,547.423,99.108,-49.286,-252.200,613.290,236.420
272,51464.708000,228.378,-44.939,67.632,544.841,101.433,-28.366,-196.200,754.290,118.420
273,51464.746000,229.364,-28.781,37.573,540.482,94.125,-10.743,117.800,807.290,198.420
274,51464.786000,223.445,3.535,30.560,538.746,90.934,-0.923,-72.200,735.290,248.420
275,51464.826000,208.647,-1.515,11.523,535.260,85.278,13.778,287.800,683.290,94.420
276,51464.866000,229.364,-10.604,10.521,534.412,83.879,25.645,699.800,355.290,18.420
277,51464.885000,221.472,42.919,10.521,529.992,78.555,21.486,381.800,29.290,57.420
278,51464.928000,240.216,20.702,-18.536,535.271,85.390,17.753,-201.200,-387.710,38.420
279,51464.967000,309.272,4.544,177.847,536.107,85.808,1.882,-336.200,-516.710,-148.580
280,51465.7000,280.663,-60.087,239.969,533.479,89.391,5.961,-237.200,-1.710,-69.580
281,51465.44000,263.892,-43.929,46.591,533.443,87.317,-6.022,79.800,-412.710,-106.580
282,51465.84000,327.029,66.146,-14.528,531.643,92.969,-20.739,651.800,-536.710,-46.580
283,51465.124000,224.432,-31.811,84.665,534.246,81.377,-32.030,-118.200,-545.710,38.420
284,51465.149000,248.108,-41.909,5.511,528.931,91.423,-44.630,67.800,-533.710,0.420
285,51465.184000,257.973,-26.761,10.521,528.893,89.321,-57.607,-36.200,-391.710,-171.580
286,51465.229000,255.013,-41.909,-0.501,528.005,95.284,-61.388,-130.200,-299.710,-185.580
287,51465.265000,264.879,-31.811,24.548,527.120,104.718,-65.057,271.800,-133.710,-223.580
288,51465.304000,249.094,-10.604,15.530,524.469,104.632,-68.047,-12.200,-146.710,-269.580
289,51465.352000,256.000,-8.584,23.546,520.065,117.564,-70.621,-228.200,-71.710,-287.580
290,51465.363000,253.040,1.515,42.583,520.060,122.688,-73.433,-183.200,-51.710,-223.580
291,51465.407000,246.135,-3.535,17.534,519.177,119.215,-73.549,-7.200,-104.710,-165.580
292,51465.449000,248.108,-3.535,25.550,517.412,122.629,-75.430,-141.200,-151.710,-115.580
293,51465.486000,253.040,2.525,13.526,514.763,133.771,-80.042,-196.200,-197.710,-80.580
294,51465.531000,255.013,-10.604,10.521,512.113,135.420,-82.976,-101.200,-152.710,-87.580
295,51465.565000,252.054,2.525,15.530,511.218,139.591,-88.801,-123.200,-189.710,-95.580
296,51465.605000,260.933,9.594,7.515,507.685,142.079,-92.704,-128.200,-168.710,-114.580
297,51465.626000,255.013,6.564,7.515,510.320,135.977,-93.886,-102.200,-184.710,-60.580
298,51465.666000,252.054,8.584,17.534,507.678,144.599,-95.601,-188.200,-154.710,-89.580
299,51465.706000,248.108,3.535,-4.509,505.899,143.560,-101.598,-287.200,-209.710,-95.580
300,51465.749000,254.027,4.544,23.546,507.663,150.478,-102.361,-300.200,-191.710,-104.580
301,51465.787000,255.013,-14.643,11.523,505.898,154.760,-104.214,-146.200,-241.710,-72.580
302,51465.827000,260.933,1.515,2.505,505.882,158.903,-111.030,-135.200,-273.710,-116.580
303,51465.845000,243.175,19.692,-17.534,497.947,162.285,-113.925,-86.200,-302.710,-131.580
304,51465.889000,261.919,39.890,-19.538,495.285,162.953,-120.863,-312.200,-339.710,-167.580
305,51465.927000,260.933,9.594,-8.517,490.857,165.301,-129.738,-645.200,-385.710,-79.580
306,51465.965000,255.013,-13.633,1.503,485.576,172.241,-129.529,-402.200,-331.710,-65.580
307,51466.4000,266.852,31.811,-22.544,487.320,174.649,-136.397,-296.200,-289.710,33.420
308,51466.46000,265.865,8.584,-53.605,489.954,173.698,-139.398,-614.200,-377.710,187.420
309,51466.85000,245.148,-61.097,-68.634,488.201,178.961,-137.247,-1221.200,-313.710,251.420
310,51466.107000,242.189,-199.448,-188.869,487.341,183.470,-131.145,-2939.200,-743.710,618.420
311,51466.147000,242.189,-166.122,-180.853,486.451,179.941,-133.249,-3776.200,-1190.710,984.420
312,51466.184000,247.121,-141.886,-149.793,480.257,180.523,-143.180,-4524.200,-1589.710,1204.420
313,51466.231000,245.148,-122.698,-111.718,474.935,174.133,-154.327,-3706.200,-1763.710,1299.420
314,51466.268000,243.175,-101.491,-102.701,463.414,169.137,-177.365,-2330.200,-1625.710,1189.420
315,51466.308000,237.256,-69.176,-84.665,449.258,166.799,-198.339,-1295.200,-1391.710,1083.420
316,51466.328000,236.270,-50.998,-75.648,434.227,156.761,-215.593,-806.200,-1062.710,943.420
317,51466.364000,228.378,-48.978,-64.626,428.033,154.767,-224.615,-979.200,-871.710,822.420
318,51466.407000,228.378,-47.968,-52.603,418.336,157.280,-227.543,-1164.200,-668.710,739.420
319,51466.444000,222.459,-28.781,-46.591,415.705,154.814,-222.667,-1011.200,-243.710,642.420
320,51466.492000,232.324,-20.702,-49.597,416.612,151.625,-212.838,-475.200,59.290,598.420
321,51466.528000,232.324,-9.594,-25.550,421.039,143.230,-203.166,-396.200,382.290,475.420
322,51466.566000,222.459,-0.505,-34.568,431.656,148.000,-188.082,-460.200,825.290,424.420
323,51466.595000,235.283,-5.554,-48.595,438.770,142.633,-163.409,26.800,1091.290,273.420
324,51466.628000,224.432,32.821,-18.536,450.299,142.534,-136.564,105.800,1328.290,125.420
325,51466.671000,241.202,82.304,-17.534,454.798,151.223,-105.485,239.800,1557.290,-413.580
326,51466.712000,278.690,-71.195,-440.360,454.863,156.182,-83.478,-7.200,1539.290,-395.580
327,51466.747000,305.326,-41.909,-203.898,454.869,152.795,-80.609,595.800,479.290,-129.580
328,51466.787000,292.501,-69.176,-41.581,456.688,161.115,-62.460,589.800,913.290,-97.580
329,51466.807000,278.690,20.702,-76.650,454.983,168.565,-44.349,918.800,954.290,-273.580
330,51466.848000,289.541,35.850,-16.532,452.368,172.288,-35.300,581.800,755.290,-51.580
331,51466.896000,278.690,15.653,-0.501,454.166,171.788,-22.402,127.800,658.290,94.420
332,51466.931000,255.013,-28.781,-21.542,455.955,166.023,-11.660,-154.200,414.290,116.420
333,51466.977000,248.108,-25.751,4.509,461.255,169.611,-7.555,-688.200,-10.710,52.420
334,51467.6000,258.960,-29.791,-58.614,456.862,162.833,-1.831,-544.200,55.290,-17.580
335,51467.49000,240.216,-17.673,-21.542,456.000,165.606,4.214,-295.200,181.290,-15.580
336,51467.69000,246.135,-7.574,-45.589,458.649,163.088,7.120,-76.200,96.290,0.420
337,51467.107000,256.987,-10.604,-39.577,458.657,170.060,8.339,-235.200,56.290,22.420
338,51467.148000,247.121,-37.870,-13.526,458.660,165.777,10.186,-189.200,-38.710,59.420
339,51467.188000,244.162,-39.890,-36.571,459.534,164.853,8.173,-227.200,-177.710,63.420
340,51467.228000,234.297,-31.811,-42.583,462.173,163.091,7.131,13.800,-118.710,58.420
341,51467.268000,250.081,-19.692,-30.560,459.517,164.684,2.210,32.800,-123.710,62.420
342,51467.308000,256.987,-21.712,-40.579,460.378,156.732,-3.011,207.800,-223.710,104.420
343,51467.328000,255.013,-10.604,-45.589,463.009,152.309,-6.125,236.800,-242.710,131.420
344,51467.368000,246.135,-34.840,-50.599,463.863,150.320,-15.123,49.800,-364.710,158.420
345,51467.416000,260.933,-15.653,-54.607,464.718,149.199,-24.094,14.800,-355.710,109.420
346,51467.450000,238.243,-29.791,-54.607,465.574,149.815,-33.008,-79.200,-388.710,153.420
347,51467.496000,251.067,-10.604,-37.573,464.663,140.041,-41.272,-151.200,-643.710,227.420
348,51467.530000,267.838,-22.722,-38.575,463.739,134.438,-55.359,-22.200,-710.710,287.420
349,51467.549000,304.339,-21.712,-55.609,465.440,124.356,-74.547,-16.200,-815.710,279.420
350,51467.587000,340.840,42.919,-31.562,465.377,115.980,-94.679,-497.200,-1002.710,410.420
351,51467.632000,348.732,43.929,24.548,464.405,96.123,-122.137,-684.200,-1243.710,721.420
352,51467.669000,289.541,-34.840,-91.679,466.984,86.014,-142.317,269.800,-1424.710,888.420
353,51467.709000,270.798,-54.028,-128.751,458.932,59.794,-179.934,1239.800,-1673.710,479.420
354,51467.749000,244.162,-32.821,-110.716,448.239,40.488,-218.329,968.800,-1615.710,114.420
355,51467.786000,180.039,7.574,20.540,443.772,45.045,-241.034,46.800,-1062.710,-396.580
356,51467.807000,142.551,-11.613,-12.524,434.071,56.992,-247.628,-943.200,-195.710,-1034.580
357,51467.852000,171.160,-71.195,-17.534,441.156,88.386,-241.622,-656.200,590.290,-1418.580
358,51467.892000,186.944,-79.274,-35.569,451.816,120.290,-217.714,-33.200,1377.290,-1507.580
359,51467.927000,203.715,-113.609,-72.642,474.842,138.737,-179.308,962.800,2001.290,-1449.580
360,51467.967000,232.324,-102.501,-85.667,487.252,155.018,-155.901,2180.800,2351.290,-1422.580
361,51468.8000,270.798,-77.254,-85.667,502.357,161.476,-111.951,3473.800,2498.290,-1575.580
362,51468.32000,295.461,-88.363,-132.759,506.899,186.098,-69.432,3377.800,2283.290,-1621.580
363,51468.67000,283.622,-115.629,-136.767,500.814,221.377,-48.447,3159.800,1637.290,-1542.580
364,51468.113000,272.771,-100.481,-104.704,492.029,246.599,-45.671,2891.800,959.290,-1017.580
365,51468.148000,219.499,-107.550,-103.703,490.259,247.381,-48.630,1930.800,589.290,-440.580
366,51468.187000,220.486,-167.132,-223.937,491.137,254.241,-51.383,1290.800,265.290,-128.580
367,51468.233000,291.514,89.373,176.845,499.041,235.906,-55.925,1000.800,608.290,431.420
368,51468.274000,295.461,64.126,-95.687,502.562,225.549,-54.264,61.800,-122.710,342.420
369,51468.288000,243.175,60.087,-62.622,506.081,218.608,-54.478,347.800,223.290,361.420
370,51468.332000,241.202,-19.692,17.534,508.731,209.203,-49.810,308.800,291.290,287.420
371,51468.382000,253.040,15.653,-1.503,514.908,211.896,-46.723,198.800,111.290,189.420
372,51468.408000,256.987,8.584,-18.536,516.683,205.990,-40.951,74.800,201.290,174.420
373,51468.449000,254.027,12.623,14.528,518.447,205.151,-39.980,46.800,194.290,121.420
374,51468.489000,240.216,-0.505,5.511,519.331,201.736,-38.102,54.800,124.290,109.420
375,51468.507000,261.919,35.850,31.562,519.348,197.594,-31.285,87.800,128.290,131.420
376,51468.553000,244.162,-5.554,-0.501,523.749,188.945,-30.559,-147.200,61.290,208.420
377,51468.588000,259.946,16.663,9.519,526.400,188.163,-27.597,7.800,149.290,141.420
378,51468.628000,242.189,-16.663,4.509,521.993,182.112,-26.814,-41.200,-6.710,133.420
379,51468.669000,255.013,2.525,4.509,523.758,182.142,-25.815,2.800,49.290,106.420
380,51468.709000,245.148,-8.584,4.509,527.279,175.229,-25.035,16.800,75.290,119.420
381,51468.749000,257.973,-6.564,32.564,525.525,173.576,-22.115,37.800,25.290,87.420
382,51468.772000,252.054,0.505,-4.509,530.810,180.467,-23.860,161.800,11.290,86.420
383,51468.808000,257.973,9.594,46.591,526.395,170.888,-25.178,56.800,26.290,92.420
384,51468.848000,260.933,2.525,-6.513,529.926,169.239,-22.242,67.800,3.290,146.420
385,51468.887000,251.067,25.751,8.517,529.039,171.758,-25.142,82.800,25.290,125.420
386,51468.928000,258.960,-28.781,3.507,530.806,164.060,-21.414,-211.200,-4.710,156.420
387,51468.969000,248.108,-3.535,9.519,531.690,159.777,-19.564,-27.200,90.290,72.420
388,51468.989000,254.027,-10.604,10.521,530.809,160.644,-19.539,100.800,110.290,76.420
389,51469.30000,250.081,2.525,13.526,533.466,159.919,-14.589,171.800,102.290,74.420
390,51469.68000,256.987,-8.584,-10.521,531.702,153.002,-13.826,112.800,137.290,67.420
391,51469.121000,250.081,-19.692,31.562,535.239,160.033,-10.607,205.800,212.290,32.420
392,51469.153000,246.135,-19.692,14.528,531.722,157.511,-7.722,281.800,216.290,24.420
393,51469.189000,260.933,-2.525,17.534,536.139,155.051,-2.822,329.800,274.290,12.420
394,51469.233000,246.135,-8.584,16.532,535.270,152.587,2.060,195.800,259.290,14.420
395,51469.264000,251.067,-10.604,28.556,536.172,157.965,8.195,185.800,334.290,-21.580
396,51469.291000,246.135,-13.633,32.564,537.951,157.267,14.136,222.800,294.290,-2.580
397,51469.334000,244.162,-25.751,52.603,536.212,158.359,22.110,241.800,344.290,54.420
398,51469.369000,254.027,4.544,40.579,534.460,156.735,26.024,349.800,333.290,-25.580
399,51469.413000,252.054,-7.574,44.587,536.232,155.112,29.949,253.800,338.290,15.420
400,51469.449000,245.148,-1.515,46.591,533.610,152.732,37.807,222.800,279.290,55.420
401,51469.473000,256.987,-9.594,50.599,535.379,150.214,40.710,284.800,125.290,119.420
402,51469.508000,255.013,2.525,70.638,536.248,146.658,37.618,100.800,-98.710,185.420
403,51469.548000,262.906,-70.185,51.601,538.862,144.642,27.631,175.800,-251.710,232.420
404,51469.588000,307.299,-110.580,28.556,538.836,140.077,19.539,1472.800,-134.710,273.420
405,51469.634000,259.946,-58.067,109.714,543.192,135.289,3.510,2170.800,-45.710,165.420
406,51469.669000,238.243,-6.564,113.722,542.281,125.515,-4.754,1545.800,130.290,177.420
407,51469.709000,228.378,-2.525,106.708,537.899,118.850,4.946,-262.200,445.290,270.420
408,51469.730000,212.593,-25.751,73.644,540.545,107.680,8.564,-398.200,366.290,336.420
409,51469.768000,203.715,-3.535,75.648,541.436,97.434,14.192,169.800,291.290,357.420
410,51469.810000,204.701,22.722,61.620,537.920,93.204,18.015,698.800,271.290,151.420
411,51469.850000,203.715,32.821,52.603,536.168,90.712,21.901,493.800,226.290,43.420
412,51469.889000,215.553,2.525,35.569,534.408,93.314,21.980,-118.200,-5.710,65.420
413,51469.929000,199.769,8.584,1.503,532.635,94.068,18.026,-351.200,-159.710,63.420
414,51469.949000,230.351,-5.554,-9.519,532.630,91.436,16.948,-559.200,-330.710,-27.580
415,51469.994000,266.852,-3.535,68.634,535.247,93.760,7.102,-265.200,-506.710,-104.580
416,51470.36000,296.447,-29.791,345.174,534.359,81.636,7.699,-291.200,174.290,-103.580
417,51470.69000,323.083,-42.919,24.548,536.115,95.356,2.191,-524.200,-365.710,-326.580
418,51470.109000,257.973,44.939,13.526,532.540,99.158,-16.563,322.800,-698.710,-18.580
419,51470.149000,238.243,1.515,35.569,532.506,102.264,-29.372,383.800,-364.710,-3.580
420,51470.192000,256.987,0.505,26.552,531.611,106.435,-35.197,190.800,-246.710,-105.580
421,51470.210000,246.135,-57.057,9.519,528.976,113.405,-33.986,-144.200,-90.710,-242.580
422,51470.250000,277.703,-6.564,29.558,526.326,115.054,-36.920,-145.200,7.290,-319.580
423,51470.291000,245.148,-3.535,33.566,526.334,122.895,-35.673,-95.200,-25.710,-278.580
424,51470.329000,255.013,-3.535,40.579,526.340,127.263,-34.538,-185.200,-67.710,-246.580
425,51470.371000,252.054,24.742,43.585,522.810,136.667,-39.209,-228.200,-133.710,-219.580
426,51470.409000,245.148,-3.535,35.569,523.698,143.640,-37.987,-537.200,-163.710,-172.580
427,51470.449000,245.148,-0.505,34.568,521.926,148.706,-42.793,-538.200,-245.710,-171.580
428,51470.470000,250.081,-0.505,32.564,519.277,152.092,-45.671,-386.200,-244.710,-140.580
429,51470.510000,250.081,8.584,22.544,515.742,147.664,-48.805,-276.200,-290.710,-129.580
430,51470.552000,247.121,13.633,14.528,513.083,153.541,-55.574,-87.200,-312.710,-64.580
431,51470.592000,256.987,-1.515,11.523,514.833,156.006,-60.453,-218.200,-299.710,-49.580
432,51470.629000,248.108,8.584,32.564,514.809,157.488,-69.342,-296.200,-358.710,-94.580
433,51470.669000,256.000,5.554,5.511,508.618,158.966,-78.251,-320.200,-440.710,-43.580
434,51470.691000,255.013,9.594,13.526,508.599,163.949,-86.033,-345.200,-446.710,-39.580
435,51470.731000,246.135,-10.604,6.513,505.949,169.910,-89.820,-341.200,-432.710,-37.580
436,51470.776000,265.865,11.613,-18.536,504.165,170.552,-97.749,-165.200,-320.710,-139.580
437,51470.812000,256.000,19.692,-13.526,499.768,177.521,-96.544,-460.200,-296.710,-193.580
438,51470.849000,247.121,-19.692,-12.524,497.992,177.378,-101.519,-225.200,-244.710,-239.580
439,51470.892000,256.987,20.702,13.526,493.576,181.574,-106.362,-35.200,-243.710,-231.580
440,51470.936000,263.892,32.821,2.505,488.258,182.969,-118.250,99.800,-378.710,-76.580
441,51470.950000,257.973,9.594,-49.597,485.590,190.469,-128.938,245.800,-362.710,-30.580
442,51470.994000,244.162,20.702,-36.571,485.570,190.272,-135.895,-170.200,-296.710,-96.580
443,51471.34000,241.202,4.544,-26.552,482.929,193.742,-135.791,-481.200,-288.710,-111.580
444,51471.70000,256.000,1.515,-35.569,476.762,200.625,-137.574,-22.200,-141.710,-232.580
445,51471.114000,263.892,39.890,-56.611,477.651,203.286,-135.498,-214.200,209.290,-180.580
446,51471.150000,257.973,-10.604,-15.530,475.916,213.030,-128.237,-999.200,-12.710,-20.580
447,51471.169000,243.175,-22.722,-53.605,476.826,218.492,-119.120,-1467.200,-55.710,40.420
448,51471.214000,250.081,-61.097,-123.742,477.739,223.982,-109.009,-2266.200,-369.710,295.420
449,51471.252000,252.054,-61.097,-138.771,478.645,222.500,-100.117,-2994.200,-811.710,481.420
450,51471.292000,249.094,-59.077,-119.734,478.660,223.509,-95.119,-3356.200,-1080.710,649.420
451,51471.329000,264.879,-66.146,-115.726,476.001,217.319,-99.301,-3051.200,-1318.710,774.420
452,51471.369000,242.189,-60.087,-101.699,471.547,208.213,-114.505,-1763.200,-1409.710,757.420
453,51471.414000,245.148,-61.097,-79.656,464.415,197.031,-141.702,-1061.200,-1370.710,830.420
454,51471.432000,263.892,-35.850,-61.620,457.286,186.746,-167.876,-657.200,-1189.710,857.420
455,51471.469000,245.148,-14.643,-66.630,453.727,184.669,-179.871,-792.200,-997.710,810.420
456,51471.515000,234.297,-22.722,-72.642,443.121,180.012,-190.979,-1082.200,-953.710,717.420
457,51471.553000,220.486,-31.811,-98.693,433.404,178.883,-199.983,-1272.200,-885.710,735.420
458,51471.591000,213.580,-21.712,-95.687,425.447,167.396,-207.333,-919.200,-744.710,675.420
459,51471.630000,224.432,-35.850,-113.722,419.276,164.759,-208.431,-528.200,-603.710,643.420
460,51471.653000,204.701,-20.702,-101.699,416.611,161.956,-215.481,-452.200,-535.710,678.420
461,51471.693000,207.661,-15.653,-90.677,416.599,153.220,-217.751,-160.200,-294.710,518.420
462,51471.732000,196.809,4.544,-42.583,417.490,155.041,-214.710,-141.200,46.290,367.420
463,51471.773000,209.634,12.623,-33.566,423.696,146.816,-199.069,57.800,653.290,151.420
464,51471.823000,232.324,29.791,-12.524,429.909,152.451,-183.971,496.800,1306.290,-52.580
465,51471.853000,241.202,63.116,-17.534,440.565,156.748,-155.001,148.800,1607.290,-274.580
466,51471.890000,221.472,48.978,-33.566,446.841,166.446,-118.919,-568.200,1533.290,-382.580
467,51471.915000,298.420,-163.093,-493.464,449.577,177.709,-88.755,-1106.200,1114.290,-332.580
468,51471.952000,151.430,-24.742,-80.658,447.814,175.972,-88.817,1040.800,558.290,29.420
469,51471.995000,362.543,-58.067,0.501,450.509,170.461,-69.127,1106.800,972.290,-141.580
470,51472.31000,289.541,76.245,-112.720,451.400,180.038,-67.820,751.800,470.290,-33.580
471,51472.71000,239.229,-29.791,-65.628,451.438,177.829,-53.990,540.800,749.290,0.420
472,51472.111000,257.973,-36.860,-46.591,452.354,179.903,-42.004,140.800,676.290,-90.580
473,51472.146000,236.270,-44.939,-28.556,447.977,182.757,-32.989,397.800,582.290,-165.580
474,51472.173000,246.135,-15.653,-32.564,451.535,183.098,-21.050,494.800,550.290,-175.580
475,51472.210000,240.216,-5.554,-12.524,447.138,183.179,-18.083,537.800,465.290,-124.580
476,51472.258000,252.054,-18.682,-24.548,446.279,185.980,-11.044,429.800,382.290,-130.580
477,51472.299000,250.081,18.682,-4.509,446.308,194.885,-2.811,289.800,313.290,-88.580
478,51472.346000,253.040,1.515,-5.511,444.544,194.856,-3.810,-194.200,206.290,-23.580
479,51472.372000,258.960,-8.584,-1.503,448.963,195.000,1.174,-100.200,132.290,11.420
480,51472.391000,241.202,-6.564,10.521,448.090,195.084,4.153,-302.200,-17.710,14.420
481,51472.431000,251.067,-4.544,-1.503,447.203,194.159,2.134,-187.200,-151.710,81.420
482,51472.471000,239.229,-24.742,-0.501,448.946,187.943,-3.027,-139.200,-244.710,125.420
483,51472.513000,253.040,-9.594,-6.513,449.807,176.547,-7.366,-82.200,-400.710,153.420
484,51472.552000,255.013,-0.505,-50.599,453.302,171.956,-16.441,-189.200,-387.710,189.420
485,51472.592000,250.081,-21.712,-10.521,455.060,177.949,-19.220,-93.200,-378.710,172.420
486,51472.618000,248.108,-24.742,-22.544,454.139,176.686,-33.166,-99.200,-522.710,180.420
487,51472.650000,239.229,-2.525,-34.568,454.113,172.121,-41.258,-228.200,-645.710,218.420
488,51472.690000,255.013,-24.742,-45.589,456.698,159.492,-58.540,-317.200,-762.710,301.420
489,51472.741000,284.609,-7.574,-44.587,455.763,154.644,-76.574,-204.200,-898.710,354.420
490,51472.771000,306.312,-3.535,-58.614,454.829,143.777,-92.818,-302.200,-1049.710,455.420
491,51472.811000,369.449,-15.653,-25.550,457.412,131.120,-111.094,-245.200,-1090.710,552.420
492,51472.854000,315.191,67.156,-39.577,459.968,113.897,-137.463,68.800,-1111.710,648.420
493,51472.873000,259.946,17.673,-135.765,459.007,92.417,-161.002,94.800,-1065.710,768.420
494,51472.922000,280.663,12.623,-55.609,454.543,85.802,-180.097,147.800,-1366.710,489.420
495,51472.953000,224.432,9.594,-55.609,447.398,79.660,-213.088,149.800,-1154.710,-80.580
496,51472.997000,186.944,13.633,-4.509,437.672,89.646,-227.690,-466.200,-738.710,-393.580
497,51473.34000,196.809,-13.633,-19.538,439.440,105.215,-229.165,-614.200,-147.710,-721.580
498,51473.72000,203.715,-43.929,-25.550,443.875,115.860,-220.862,-279.200,756.290,-1081.580
499,51473.97000,208.647,-63.116,-34.568,456.282,134.688,-199.358,505.800,1346.290,-1269.580
500,51473.134000,221.472,-65.136,-40.579,473.119,153.773,-168.895,1290.800,1824.290,-1489.580
501,51473.177000,256.987,-70.185,-74.646,488.218,178.262,-131.312,1576.800,2104.290,-1686.580
502,51473.221000,265.865,-107.550,-67.632,494.467,198.907,-106.790,1805.800,2162.290,-1675.580
503,51473.253000,284.609,-132.797,-80.658,495.505,227.168,-58.206,2210.800,2225.290,-1384.580
504,51473.297000,249.094,-168.142,-92.681,492.078,255.701,-30.480,2645.800,1925.290,-1148.580
505,51473.333000,285.595,-162.083,-101.699,480.676,273.419,-17.033,2625.800,1451.290,-772.580
506,51473.352000,227.391,-161.073,-117.730,481.507,271.205,-33.983,2494.800,388.290,227.420
507,51473.394000,438.505,239.842,86.669,486.740,256.898,-49.325,1793.800,368.290,349.420
508,51473.432000,204.701,-2.525,-44.587,492.005,251.525,-55.441,-476.200,-183.710,562.420
509,51473.474000,279.676,29.791,-13.526,495.528,236.017,-51.961,-67.200,-26.710,346.420
510,51473.512000,235.283,3.535,-3.507,499.929,230.812,-52.116,177.800,-34.710,326.420
511,51473.554000,244.162,-9.594,-11.523,500.803,225.576,-53.276,450.800,40.290,275.420
512,51473.574000,245.148,42.919,-1.503,506.963,219.477,-54.447,201.800,47.290,236.420
513,51473.612000,270.798,-6.564,-19.538,507.837,210.797,-54.726,221.800,95.290,206.420
514,51473.657000,250.081,9.594,3.507,510.474,202.119,-54.999,205.800,135.290,171.420
515,51473.693000,254.027,42.919,13.526,512.245,206.517,-52.864,140.800,141.290,239.420
516,51473.737000,257.973,-0.505,3.507,519.288,197.002,-52.158,54.800,-5.710,310.420
517,51473.775000,261.919,10.604,-20.540,521.058,192.776,-48.317,553.800,259.290,203.420
518,51473.813000,256.987,19.692,15.530,519.292,187.567,-48.492,229.800,199.290,123.420
519,51473.832000,253.040,-8.584,-8.517,521.939,185.889,-46.552,44.800,53.290,63.420
520,51473.874000,253.040,-14.643,12.524,520.182,180.764,-43.745,-5.200,64.290,82.420
521,51473.914000,251.067,-2.525,6.513,522.821,175.558,-43.905,-11.200,19.290,99.420
522,51473.954000,259.946,11.613,20.540,525.454,177.183,-47.816,-32.200,-75.710,150.420
523,51473.993000,250.081,-21.712,-14.528,526.337,168.589,-45.113,12.800,-44.710,121.420
524,51474.36000,259.946,5.554,1.503,522.817,173.794,-44.955,-21.200,52.290,99.420
525,51474.54000,249.094,-7.574,-7.515,528.111,173.014,-41.985,-43.200,80.290,63.420
526,51474.94000,252.054,0.505,1.503,527.224,165.202,-42.241,39.800,125.290,65.420
527,51474.135000,258.960,-3.535,-2.505,526.355,169.626,-39.121,47.800,126.290,108.420
528,51474.175000,251.067,9.594,1.503,529.004,162.796,-35.363,18.800,121.290,103.420
529,51474.215000,272.771,2.525,15.530,529.891,160.277,-32.462,-55.200,161.290,159.420
530,51474.254000,237.256,-21.712,10.521,531.670,156.136,-25.640,33.800,103.290,183.420
531,51474.305000,249.094,-9.594,17.534,532.545,148.325,-25.891,43.800,76.290,181.420
532,51474.313000,262.906,-20.702,10.521,536.072,151.799,-25.767,145.800,163.290,80.420
533,51474.353000,232.324,-49.988,-32.564,533.439,146.730,-20.975,160.800,272.290,-7.580
534,51474.393000,253.040,-18.682,4.509,529.069,151.377,-9.915,243.800,564.290,-172.580
535,51474.438000,247.121,-2.525,-0.501,530.891,156.281,10.110,228.800,847.290,-258.580
536,51474.473000,249.094,-43.929,1.503,533.599,164.687,31.244,239.800,934.290,-198.580
537,51474.513000,251.067,35.850,61.620,530.984,164.098,41.146,400.800,870.290,-207.580
538,51474.539000,275.730,4.544,18.536,526.653,168.271,66.093,12.800,934.290,-110.580
539,51474.574000,250.081,-7.574,40.579,522.317,177.568,88.226,241.800,1050.290,-132.580
540,51474.618000,248.108,4.544,77.652,517.102,181.712,112.176,144.800,1051.290,-126.580
541,51474.653000,203.715,56.047,133.761,514.494,182.916,124.122,92.800,768.290,-70.580
542,51474.693000,204.701,0.505,156.806,512.779,181.658,140.957,-147.200,524.290,74.420
543,51474.738000,236.270,-27.771,145.785,511.013,179.892,139.901,418.800,38.290,120.420
544,51474.775000,249.094,-3.535,119.734,515.373,169.113,126.656,357.800,-348.710,243.420
545,51474.794000,259.946,-66.146,90.677,519.750,172.279,115.850,874.800,-395.710,384.420
546,51474.833000,260.933,-0.505,62.622,522.333,168.245,95.868,1958.800,-66.710,377.420
547,51474.873000,248.108,36.860,80.658,520.521,168.605,78.000,1691.800,-48.710,259.420
548,51474.914000,225.418,44.939,106.708,521.385,158.105,74.683,479.800,30.290,217.420
549,51474.954000,217.526,26.761,125.746,523.148,159.842,74.745,-382.200,159.290,104.420
550,51474.994000,200.755,10.604,112.720,520.514,152.169,79.452,-275.200,215.290,131.420
551,51475.14000,213.580,-14.643,105.706,518.759,149.649,82.344,177.800,236.290,99.420
552,51475.59000,219.499,-1.515,111.718,516.999,153.119,82.451,595.800,240.290,75.420
553,51475.93000,208.647,17.673,111.718,515.241,149.702,84.320,219.800,161.290,92.420
554,51475.133000,211.607,-30.801,106.708,516.123,147.995,85.261,-11.200,106.290,182.420
555,51475.175000,205.688,-3.535,108.712,514.365,148.890,86.277,-106.200,117.290,162.420
556,51475.218000,208.647,-24.742,90.677,516.145,143.909,94.065,46.800,89.290,185.420
557,51475.254000,197.796,-11.613,83.663,515.240,136.767,86.880,287.800,52.290,242.420
558,51475.279000,199.769,-9.594,87.671,513.467,130.633,84.689,248.800,-110.710,292.420
559,51475.316000,205.688,28.781,81.659,514.317,122.568,75.493,280.800,-155.710,309.420
560,51475.353000,215.553,28.781,54.607,521.350,121.565,70.518,-28.200,-283.710,166.420
561,51475.397000,211.607,34.840,37.573,523.961,109.189,62.181,-39.200,-522.710,131.420
562,51475.442000,235.283,29.791,28.556,524.809,114.032,49.432,-167.200,-895.710,97.420
563,51475.479000,228.378,40.899,46.591,526.505,109.941,27.459,-231.200,-897.710,-28.580
564,51475.497000,240.216,70.185,288.063,526.487,112.348,20.586,-442.200,-79.710,-180.580
565,51475.537000,378.328,-27.771,8.517,527.326,111.926,5.680,-162.200,-800.710,97.420
566,51475.574000,247.121,2.525,35.569,524.619,106.125,-15.370,118.800,-727.710,224.420
567,51475.616000,249.094,-90.383,8.517,528.113,99.798,-24.501,29.800,-549.710,167.420
568,51475.671000,254.027,-13.633,31.562,527.203,106.403,-36.205,204.800,-428.710,-113.580
569,51475.710000,263.892,4.544,13.526,526.306,111.413,-42.996,-79.200,-266.710,-119.580
570,51475.734000,251.067,-2.525,40.579,525.407,109.508,-49.019,29.800,-217.710,-70.580
571,51475.755000,261.919,9.594,35.569,520.992,115.440,-53.806,-33.200,-266.710,-61.580
572,51475.794000,239.229,-27.771,16.532,523.609,110.008,-61.918,-235.200,-328.710,12.420
573,51475.834000,252.054,-20.702,18.536,518.313,112.496,-65.826,-360.200,-260.710,-31.580
574,51475.874000,233.310,-47.968,13.526,519.182,119.271,-71.561,-253.200,-299.710,-45.580
575,51475.914000,262.906,-2.525,48.595,519.166,116.527,-76.615,-19.200,-232.710,-122.580
576,51475.957000,251.067,-0.505,-7.515,515.633,123.327,-81.371,49.800,-229.710,-78.580
577,51475.976000,242.189,-18.682,2.505,513.872,127.638,-82.230,-140.200,-145.710,-85.580
578,51476.14000,246.135,-24.742,20.540,515.625,126.686,-85.234,-197.200,-134.710,-102.580
579,51476.54000,246.135,27.771,8.517,512.968,130.855,-91.065,-399.200,-160.710,-106.580
580,51476.94000,257.973,-19.692,12.524,507.673,126.455,-93.211,-333.200,-217.710,-50.580
581,51476.134000,262.906,14.643,10.521,511.188,129.817,-97.062,-283.200,-176.710,-104.580
582,51476.174000,256.987,3.535,-12.524,509.428,135.864,-97.865,-417.200,-138.710,-124.580
583,51476.214000,253.040,-26.761,-8.517,506.799,142.890,-94.666,-496.200,-42.710,-246.580
584,51476.235000,251.067,-9.594,-5.511,504.165,148.153,-92.518,-427.200,99.290,-314.580
585,51476.274000,248.108,2.525,6.513,505.073,164.786,-87.010,-471.200,23.290,-301.580
586,51476.317000,248.108,-0.505,-0.501,501.564,176.992,-84.639,-406.200,-55.710,-303.580
587,51476.354000,256.987,5.554,11.523,497.161,183.037,-85.450,-511.200,-140.710,-321.580
588,51476.394000,255.013,8.584,3.507,495.400,184.771,-85.400,-203.200,-82.710,-268.580
589,51476.434000,249.094,39.890,6.513,490.103,188.967,-90.245,-56.200,-191.710,-343.580
590,51476.477000,253.040,42.919,16.532,487.463,196.748,-90.994,-523.200,-317.710,-210.580
591,51476.496000,241.202,6.564,-5.511,487.451,206.099,-97.642,-236.200,-336.710,-57.580
592,51476.537000,256.987,15.653,-9.519,483.020,205.843,-106.601,226.800,-123.710,-125.580
593,51476.579000,251.067,33.830,-35.569,478.618,205.867,-105.622,136.800,-54.710,-271.580
594,51476.617000,267.838,35.850,-34.568,477.757,221.575,-102.136,-364.200,21.290,-318.580
595,51476.654000,252.054,55.037,-8.517,470.728,230.363,-97.901,-643.200,3.290,-284.580
596,51476.697000,268.825,2.525,-6.513,470.747,233.136,-91.853,-551.200,-56.710,-211.580
597,51476.715000,251.067,-7.574,-85.667,471.637,241.845,-90.575,-832.200,-178.710,-111.580
598,51476.755000,267.838,-125.728,-134.763,471.650,240.249,-85.662,-2523.200,-911.710,564.420
599,51476.798000,257.973,-79.274,-133.761,470.739,223.588,-92.163,-2433.200,-1213.710,674.420
600,51476.836000,270.798,-82.304,-90.677,472.461,218.015,-105.247,-2109.200,-1383.710,963.420
601,51476.876000,246.135,-74.225,-83.663,469.774,208.967,-118.458,-2322.200,-1415.710,957.420
602,51476.920000,257.973,-97.452,-64.626,465.302,197.956,-139.683,-2296.200,-1490.710,985.420
603,51476.960000,265.865,-86.343,-45.589,450.254,185.174,-161.992,-1848.200,-1461.710,1079.420
604,51476.982000,264.879,-64.126,-44.587,442.273,175.169,-178.230,-1441.200,-1374.710,1078.420
605,51477.20000,257.973,-52.008,-45.589,434.296,170.373,-194.299,-1321.200,-1237.710,1089.420
606,51477.63000,258.960,-41.909,-45.589,429.875,171.936,-200.220,-1094.200,-1001.710,961.420
607,51477.100000,247.121,-32.821,-58.614,421.927,167.422,-206.350,-929.200,-741.710,863.420
608,51477.140000,226.405,-12.623,-39.577,417.507,151.766,-207.865,-775.200,-534.710,749.420
609,51477.177000,215.553,12.623,-18.536,419.283,154.484,-203.799,-480.200,-17.710,505.420
610,51477.195000,218.513,10.604,-2.505,421.944,148.635,-196.037,-504.200,412.290,392.420
611,51477.238000,230.351,4.544,1.503,429.928,150.912,-177.070,-176.200,812.290,265.420
612,51477.282000,234.297,44.939,3.507,438.808,148.179,-151.313,-21.200,1345.290,37.420
613,51477.316000,259.946,59.077,-13.526,448.596,150.012,-117.460,-427.200,1431.290,-169.580
614,51477.355000,257.973,81.294,-29.558,448.683,164.661,-90.174,-860.200,1458.290,-381.580
615,51477.395000,261.919,52.008,-129.753,454.942,175.058,-60.027,-1043.200,931.290,-266.580
616,51477.440000,281.649,103.511,-87.671,451.427,178.584,-57.938,1039.800,190.290,32.420
617,51477.456000,279.676,-163.093,-13.526,450.588,182.450,-43.913,787.800,939.290,23.420
618,51477.497000,347.746,100.481,-31.562,450.615,183.571,-34.940,1166.800,765.290,-251.580
619,51477.537000,257.973,6.564,-67.632,450.624,177.636,-30.167,315.800,535.290,12.420
620,51477.575000,234.297,-20.702,-36.571,452.412,177.891,-21.216,455.800,604.290,37.420
621,51477.617000,239.229,4.544,-18.536,452.441,183.352,-12.102,247.800,436.290,-18.580
622,51477.657000,251.067,-36.860,-11.523,453.341,182.682,-5.170,297.800,289.290,9.420
623,51477.678000,256.000,-1.515,-29.558,449.810,183.463,-8.135,212.800,243.290,-2.580
624,51477.722000,251.067,-30.801,-19.538,450.715,186.293,-0.096,262.800,191.290,50.420
625,51477.758000,264.879,-21.712,-53.605,450.708,183.633,-2.169,225.800,163.290,4.420
626,51477.798000,239.229,-17.673,-17.534,450.723,184.641,2.829,-32.200,192.290,-33.580
627,51477.840000,256.000,-16.663,-8.517,452.489,179.519,5.648,-84.200,143.290,17.420
628,51477.875000,234.297,4.544,-8.517,451.622,183.103,9.733,160.800,75.290,70.420
629,51477.916000,242.189,6.564,9.519,453.390,184.029,11.755,-231.200,-95.710,67.420
630,51477.935000,256.987,-48.978,-41.581,455.138,179.578,7.644,-518.200,-217.710,101.420
631,51477.975000,256.000,-32.821,-20.540,454.240,175.964,2.559,-250.200,-313.710,116.420
632,51478.17000,252.054,-4.544,-14.528,455.101,168.012,-2.661,-96.200,-351.710,191.420
633,51478.57000,248.108,-29.791,-6.513,455.955,161.711,-10.807,-94.200,-465.710,250.420
634,51478.99000,246.135,-17.673,-42.583,460.317,153.536,-23.967,-323.200,-647.710,291.420
635,51478.138000,254.027,-35.850,-44.587,461.177,149.028,-30.069,-206.200,-593.710,284.420
636,51478.165000,247.121,-28.781,-44.587,463.783,148.664,-42.981,-217.200,-638.710,328.420
637,51478.204000,256.987,-28.781,-55.609,466.388,139.676,-54.187,-179.200,-679.710,365.420
638,51478.239000,254.027,-40.899,-70.638,467.208,128.725,-73.407,-129.200,-743.710,392.420
639,51478.278000,315.191,-15.653,-57.613,465.395,121.329,-89.540,-266.200,-787.710,352.420
640,51478.325000,336.894,-6.564,-5.511,466.231,109.680,-102.825,-791.200,-937.710,441.420
641,51478.359000,360.570,7.574,31.562,464.417,97.104,-118.133,-653.200,-1018.710,667.420
642,51478.398000,307.299,39.890,-45.589,467.866,79.127,-140.552,-900.200,-1017.710,901.420
643,51478.419000,215.553,-20.702,-195.883,463.372,61.871,-167.937,-75.200,-1371.710,578.420
644,51478.459000,233.310,0.505,-160.814,451.823,49.705,-199.151,589.800,-1621.710,310.420
645,51478.497000,169.187,5.554,-49.597,447.360,51.715,-219.953,398.800,-1063.710,-180.580
646,51478.538000,193.850,-34.840,-57.613,439.398,59.995,-233.612,-278.200,-452.710,-669.580
647,51478.578000,198.782,-39.890,-37.573,439.400,77.242,-237.024,-263.200,-126.710,-955.580
648,51478.619000,171.160,-53.018,-47.593,442.045,95.359,-240.400,163.800,265.290,-1268.580
649,51478.659000,185.958,-82.304,-35.569,445.601,104.295,-231.161,899.800,927.290,-1475.580
650,51478.678000,216.540,-84.323,-28.556,457.996,126.455,-214.515,1766.800,1333.290,-1664.580
651,51478.722000,240.216,-105.531,-96.689,475.686,139.239,-192.197,2260.800,1594.290,-1695.580
652,51478.759000,237.256,-110.580,-65.628,485.472,153.979,-161.898,2368.800,1865.290,-1594.580
653,51478.798000,260.933,-124.718,-70.638,496.990,165.835,-141.617,2706.800,1992.290,-1522.580
654,51478.837000,263.892,-86.343,-96.689,504.151,181.610,-105.334,2285.800,1879.290,-1439.580
655,51478.882000,293.487,-84.323,-94.685,499.861,206.869,-70.766,2106.800,1750.290,-1308.580
656,51478.899000,270.798,-101.491,-111.718,491.129,235.202,-50.015,1659.800,1231.290,-1121.580
657,51478.937000,220.486,-108.560,-129.753,488.523,251.945,-40.543,1721.800,745.290,-443.580
658,51478.983000,232.324,-41.909,-71.640,485.870,253.567,-44.471,1371.800,508.290,-123.580
659,51479.18000,232.324,-36.860,-110.716,487.644,253.681,-40.490,545.800,162.290,53.420
660,51479.59000,376.355,72.205,106.708,497.332,239.016,-37.956,-130.200,167.290,409.420
661,51479.97000,261.919,81.294,-17.534,500.855,233.839,-37.119,-33.200,-117.710,348.420
662,51479.139000,256.000,-9.594,9.519,504.379,223.510,-34.464,-109.200,-5.710,509.420
663,51479.164000,246.135,-16.663,9.519,507.900,214.861,-33.741,66.800,12.290,262.420
664,51479.203000,256.987,-3.535,11.523,514.055,206.997,-35.962,-49.200,-18.710,238.420
665,51479.239000,262.906,40.899,22.544,512.300,201.900,-32.161,82.800,34.290,209.420
666,51479.284000,260.933,2.525,-19.538,515.833,206.299,-30.021,-26.200,61.290,281.420
667,51479.323000,258.960,12.623,4.509,518.481,201.178,-27.200,-72.200,29.290,196.420
668,51479.358000,253.040,-22.722,12.524,519.359,194.262,-26.428,-98.200,22.290,224.420
669,51479.380000,254.027,6.564,2.505,521.124,190.848,-24.548,215.800,183.290,126.420
670,51479.423000,250.081,5.554,-9.519,521.120,184.772,-24.745,91.800,76.290,129.420
671,51479.459000,261.919,5.554,22.544,523.770,179.679,-20.930,-99.200,62.290,186.420
672,51479.499000,242.189,-17.673,16.532,521.127,179.677,-20.938,-13.200,31.290,187.420
673,51479.540000,253.040,-6.564,-6.513,526.412,178.813,-20.949,129.800,34.290,172.420
674,51479.578000,256.000,33.830,0.501,529.063,173.719,-17.134,-87.200,70.290,149.420
675,51479.618000,247.121,-42.919,9.519,527.298,170.246,-17.252,-49.200,-20.710,235.420
676,51479.639000,264.879,-24.742,9.519,529.065,165.124,-14.434,289.800,141.290,118.420
677,51479.678000,242.189,-14.643,-16.532,530.829,159.973,-12.610,215.800,194.290,38.420
678,51479.723000,257.973,-19.692,-2.505,530.843,156.670,-6.759,281.800,369.290,-20.580
679,51479.759000,247.121,-2.525,34.568,529.977,165.434,-3.498,333.800,319.290,-31.580
680,51479.799000,260.933,-8.584,3.507,531.755,164.737,2.443,287.800,339.290,83.420
681,51479.840000,232.324,-36.860,39.577,532.663,162.415,12.300,414.800,387.290,33.420
682,51479.863000,255.013,-4.544,32.564,534.448,163.510,20.286,254.800,477.290,-39.580
683,51479.903000,252.054,-16.663,41.581,530.939,160.204,26.125,248.800,429.290,-32.580
684,51479.938000,243.175,-1.515,10.521,530.088,158.777,36.999,356.800,340.290,60.420
685,51479.978000,257.973,10.604,56.611,530.092,156.230,38.902,264.800,346.290,-9.580
686,51480.19000,254.027,-17.673,51.601,533.641,159.929,46.978,88.800,352.290,63.420
687,51480.63000,249.094,-53.018,51.601,530.143,161.048,55.940,287.800,293.290,50.420
688,51480.99000,262.906,-22.722,57.613,529.256,160.123,53.921,533.800,139.290,12.420
689,51480.120000,261.919,-23.732,52.603,532.773,162.645,51.035,535.800,52.290,100.420
690,51480.158000,262.906,-65.136,54.607,533.627,148.589,44.623,1009.800,52.290,317.420
691,51480.201000,276.717,-49.988,43.585,537.980,140.330,28.482,1820.800,8.290,376.420
692,51480.238000,266.852,-7.574,103.703,537.934,135.567,13.432,2092.800,7.290,325.420
693,51480.280000,252.054,47.968,81.659,537.903,123.190,5.086,422.800,-57.710,404.420
694,51480.320000,235.283,7.574,67.632,537.889,108.406,3.614,-555.200,-41.710,339.420
695,51480.339000,198.782,2.525,91.679,537.897,108.490,6.595,75.800,71.290,193.420
696,51480.380000,203.715,-7.574,95.687,538.779,109.359,6.626,581.800,228.290,68.420
697,51480.420000,207.661,-17.673,94.685,533.502,105.128,10.444,597.800,336.290,-33.580
698,51480.458000,200.755,7.574,77.652,530.870,105.238,14.411,230.800,316.290,22.420
699,51480.500000,225.418,-0.505,78.654,533.545,106.418,25.381,-433.200,265.290,44.420
700,51480.539000,246.135,-17.673,83.663,530.905,103.001,27.248,-249.200,144.290,67.420
701,51480.582000,231.337,-17.673,76.650,531.785,101.265,27.194,-246.200,82.290,141.420
702,51480.605000,238.243,-27.771,72.642,530.031,101.348,30.170,18.800,21.290,126.420
703,51480.639000,222.459,10.604,58.614,528.268,96.167,30.989,-217.200,-140.710,178.420
704,51480.682000,237.256,1.515,59.616,530.884,86.424,23.731,-300.200,-161.710,110.420
705,51480.719000,226.405,22.722,37.573,531.763,94.152,21.005,-55.200,-272.710,63.420
706,51480.775000,240.216,26.761,126.748,526.451,89.583,12.896,337.800,-261.710,-111.580
707,51480.804000,270.798,10.604,78.654,527.320,96.359,7.161,-984.200,-526.710,-173.580
708,51480.822000,322.096,6.564,24.548,525.515,95.067,-7.782,-432.200,-675.710,-24.580
709,51480.859000,241.202,-92.402,-48.595,525.487,99.965,-18.546,-221.200,-717.710,156.420
710,51480.899000,254.027,-103.511,10.521,526.315,96.855,-36.518,301.800,-597.710,67.420
711,51480.942000,266.852,-39.890,-6.513,522.772,100.967,-44.340,-68.200,-448.710,-194.580
712,51480.980000,257.973,-19.692,-0.501,520.977,102.363,-56.216,-20.200,-174.710,-241.580
713,51481.20000,250.081,-14.643,32.564,516.584,106.785,-53.108,17.800,-72.710,-221.580
714,51481.60000,254.027,-14.643,28.556,513.052,111.009,-56.954,-56.200,-107.710,-166.580
715,51481.79000,246.135,-12.623,17.534,515.688,113.531,-59.843,-135.200,-141.710,-140.580
716,51481.119000,254.027,-12.623,37.573,513.920,116.917,-62.717,-181.200,-196.710,-119.580
717,51481.159000,258.960,-24.742,9.519,514.797,122.041,-65.527,-2.200,-84.710,-155.580
718,51481.202000,244.162,-8.584,12.524,511.266,132.314,-70.170,-66.200,-62.710,-176.580
719,51481.240000,256.987,0.505,26.552,513.035,133.239,-68.149,-274.200,-41.710,-170.580
720,51481.284000,249.094,-15.653,25.550,512.157,141.023,-68.892,-203.200,-134.710,-137.580
721,51481.300000,251.067,18.682,14.528,505.990,145.330,-69.765,-306.200,-80.710,-150.580
722,51481.344000,250.081,-0.505,14.528,507.734,144.294,-75.751,-161.200,-143.710,-130.580
723,51481.384000,255.013,-6.564,8.517,505.091,143.424,-75.787,-140.200,-55.710,-163.580
724,51481.427000,249.094,-3.535,14.528,503.347,152.216,-71.536,-215.200,-86.710,-157.580
725,51481.460000,251.067,0.505,8.517,503.336,157.283,-76.336,-245.200,-88.710,-160.580
726,51481.502000,252.054,7.574,10.521,500.700,161.649,-75.210,-213.200,-156.710,-203.580
727,51481.539000,261.919,8.584,4.509,499.818,168.536,-76.975,-436.200,-155.710,-227.580
728,51481.564000,242.189,29.791,-15.530,496.295,172.845,-77.840,-391.200,-166.710,-211.580
729,51481.602000,256.000,3.535,27.554,495.420,177.213,-76.708,-529.200,-179.710,-189.580
730,51481.640000,254.027,29.791,-12.524,496.297,183.205,-79.490,-312.200,-252.710,-206.580
731,51481.684000,260.933,28.781,-0.501,491.008,190.929,-82.235,-481.200,-252.710,-205.580
732,51481.719000,257.973,15.653,36.571,487.486,200.418,-83.924,-778.200,-370.710,-257.580
733,51481.762000,261.919,38.880,-40.579,483.956,208.114,-87.658,-408.200,-375.710,-226.580
734,51481.783000,267.838,17.673,-10.521,481.315,217.604,-89.344,-463.200,-228.710,-255.580
735,51481.822000,267.838,-15.653,-59.616,476.035,214.213,-86.492,-433.200,-20.710,-422.580
736,51481.862000,270.798,-46.959,-73.644,467.258,234.339,-79.909,-724.200,140.290,-645.580
737,51481.902000,235.283,-95.432,-78.654,461.130,249.372,-69.511,-1248.200,-68.710,-455.580
738,51481.943000,259.946,-167.132,-165.824,462.029,250.410,-63.517,-2532.200,-911.710,479.420
739,51481.983000,245.148,-138.856,-141.777,467.304,244.282,-65.685,-3694.200,-1461.710,869.420
740,51482.20000,295.461,-144.915,-63.624,471.657,227.399,-80.121,-3251.200,-1824.710,1197.420
741,51482.42000,294.474,-112.600,-34.568,467.169,210.199,-105.518,-1917.200,-1861.710,1165.420
742,51482.79000,283.622,-49.988,29.558,457.370,197.054,-140.730,-1273.200,-1727.710,1117.420
743,51482.127000,253.040,0.505,62.622,446.752,183.660,-154.108,-489.200,-853.710,754.420
744,51482.173000,265.865,5.554,53.605,441.443,178.251,-161.251,-825.200,-342.710,603.420
745,51482.202000,248.108,14.643,43.585,440.580,176.712,-154.353,-1063.200,-30.710,380.420
746,51482.242000,262.906,3.535,13.526,442.405,181.645,-133.335,-1413.200,323.290,325.420
747,51482.268000,248.108,-19.692,-11.523,445.099,185.597,-116.317,-1214.200,232.290,387.420
748,51482.305000,238.243,40.899,-23.546,445.117,187.502,-110.297,-1010.200,180.290,429.420
749,51482.340000,242.189,58.067,-15.530,446.918,179.274,-94.670,-1075.200,213.290,438.420
750,51482.385000,236.270,100.481,15.530,449.602,181.407,-80.691,-347.200,513.290,241.420
751,51482.422000,244.162,87.353,-82.661,451.414,180.179,-62.851,-447.200,622.290,-8.580
752,51482.460000,247.121,34.840,-128.751,454.084,186.482,-54.694,-109.200,308.290,-15.580
753,51482.505000,256.000,-29.791,-46.591,452.335,184.886,-49.786,646.800,633.290,68.420
754,51482.523000,329.988,-20.702,4.509,454.122,177.385,-39.101,682.800,771.290,-21.580
755,51482.567000,261.919,25.751,-71.640,452.400,185.534,-26.926,203.800,528.290,75.420
756,51482.613000,256.987,-34.840,-30.560,455.058,183.101,-21.039,337.800,615.290,92.420
757,51482.645000,263.892,-13.633,-12.524,454.188,178.033,-16.241,274.800,408.290,6.420
758,51482.682000,259.946,-0.505,-39.577,453.328,179.965,-9.230,209.800,382.290,-24.580
759,51482.727000,243.175,-15.653,-18.536,456.880,179.382,0.692,-185.200,259.290,6.420
760,51482.745000,252.054,-9.594,-24.548,454.251,183.832,4.800,-277.200,217.290,-52.580
761,51482.787000,249.094,-7.574,-28.556,455.148,185.710,9.829,-382.200,123.290,-83.580
762,51482.823000,256.000,5.554,-24.548,456.054,185.964,18.777,-391.200,116.290,-38.580
763,51482.860000,254.027,2.525,-11.523,453.426,186.971,23.766,-615.200,7.290,21.420
764,51482.903000,248.108,-18.682,-16.532,453.431,185.291,25.698,-660.200,-105.710,38.420
765,51482.940000,244.162,-54.028,-4.509,451.659,179.158,23.507,-459.200,-202.710,105.420
766,51482.987000,242.189,-7.574,-21.542,456.932,170.425,21.255,53.800,-246.710,141.420
767,51483.7000,255.013,-13.633,-25.550,460.433,169.334,13.286,36.800,-292.710,168.420
768,51483.40000,237.256,-6.564,-14.528,462.171,163.930,6.166,109.800,-387.710,225.420
769,51483.80000,261.919,-11.613,-44.587,465.666,162.783,-3.790,122.800,-451.710,268.420
770,51483.120000,241.202,-31.811,-41.581,465.633,152.982,-13.045,7.800,-531.710,284.420
771,51483.162000,255.013,-30.801,-73.644,468.233,148.249,-27.092,-157.200,-610.710,277.420
772,51483.200000,256.987,-25.751,-77.652,467.304,145.194,-43.082,-168.200,-763.710,213.420
773,51483.222000,266.852,8.584,-52.603,469.903,135.282,-56.305,-450.200,-826.710,208.420
774,51483.262000,319.137,39.890,-47.593,468.091,132.198,-73.291,-383.200,-940.710,288.420
775,51483.303000,339.854,27.771,-28.556,470.663,123.740,-96.396,-398.200,-1244.710,535.420
776,51483.344000,321.110,-39.890,-15.530,467.929,103.881,-123.860,120.800,-1227.710,708.420
777,51483.388000,282.636,-6.564,-77.652,466.060,84.723,-157.257,690.800,-1384.710,523.420
778,51483.428000,228.378,-30.801,-142.779,456.285,70.095,-183.580,390.800,-1659.710,109.420
779,51483.468000,214.566,27.771,26.552,448.268,64.904,-213.564,974.800,-1170.710,-343.580
780,51483.488000,167.214,21.712,17.534,443.845,82.819,-223.920,-1299.200,-278.710,-868.580
781,51483.528000,203.715,-76.245,-23.546,444.785,120.454,-211.773,-1524.200,487.290,-1153.580
782,51483.568000,229.364,-73.215,-40.579,454.528,141.659,-198.145,-14.200,1184.290,-1330.580
783,51483.607000,233.310,-77.254,-55.609,466.083,161.636,-166.677,1338.800,1899.290,-1313.580
784,51483.642000,247.121,-85.333,-79.656,481.162,171.285,-132.554,1840.800,2103.290,-1286.580
785,51483.684000,262.906,-57.057,-116.728,493.607,185.328,-96.310,1790.800,2023.290,-1252.580
786,51483.707000,238.243,-53.018,-113.722,493.686,196.448,-71.124,2130.800,1885.290,-1118.580
787,51483.742000,264.879,-80.284,-88.673,497.316,213.872,-37.779,2415.800,1889.290,-1031.580
788,51483.782000,276.717,-92.402,-100.697,492.981,236.104,-18.204,3189.800,1694.290,-966.580
789,51483.823000,268.825,-68.166,-98.693,481.532,255.079,-21.597,3835.800,1198.290,-868.580
790,51483.867000,256.000,-57.057,-84.665,473.567,266.775,-37.131,3728.800,844.290,-694.580
791,51483.904000,233.310,-44.939,-68.634,467.358,279.283,-54.619,2766.800,602.290,-394.580
792,51483.947000,242.189,-89.373,-169.832,465.549,275.359,-70.640,1138.800,0.290,153.420
793,51483.962000,310.258,-115.629,44.587,473.442,255.204,-78.220,463.800,-138.710,789.420
794,51484.4000,239.229,-2.525,42.583,481.379,247.539,-73.478,-415.200,13.290,587.420
795,51484.47000,307.299,113.609,-62.622,486.647,237.882,-77.746,-236.200,-236.710,472.420
796,51484.83000,255.013,-27.771,-0.501,491.032,223.044,-81.193,377.800,37.290,510.420
797,51484.122000,254.027,7.574,-45.589,496.318,219.605,-80.294,422.800,223.290,246.420
798,51484.164000,237.256,-11.613,-27.554,497.201,214.454,-78.473,190.800,330.290,78.420
799,51484.184000,246.135,-4.544,-9.519,499.881,214.822,-65.543,447.800,494.290,33.420
800,51484.224000,266.852,26.761,7.515,500.764,206.227,-62.841,792.800,577.290,69.420
801,51484.267000,255.013,55.037,16.532,500.779,199.480,-56.108,698.800,427.290,70.420
802,51484.307000,259.946,29.791,14.528,507.844,203.966,-50.975,-59.200,350.290,76.420
803,51484.342000,249.094,12.623,19.538,512.273,202.487,-42.072,27.800,386.290,82.420
804,51484.382000,256.987,12.623,3.507,509.652,202.710,-34.129,-68.200,369.290,56.420
805,51484.422000,245.148,19.692,16.532,513.196,198.598,-26.308,84.800,393.290,35.420
806,51484.443000,250.081,-5.554,24.548,511.456,202.266,-19.243,21.800,316.290,47.420
807,51484.483000,236.270,13.633,38.575,514.999,201.598,-12.303,249.800,289.290,46.420
808,51484.522000,254.027,-35.850,21.542,514.116,190.369,-10.684,435.800,200.290,139.420
809,51484.564000,240.216,7.574,27.554,515.874,188.606,-11.728,650.800,186.290,152.420
810,51484.605000,254.027,11.613,45.589,515.872,190.314,-12.666,622.800,173.290,121.420
811,51484.648000,257.973,32.821,27.554,520.287,184.382,-7.879,449.800,209.290,53.420
812,51484.668000,252.054,7.574,48.595,518.529,186.145,-6.835,208.800,148.290,74.420
813,51484.704000,256.987,-0.505,42.583,520.310,188.920,-0.781,116.800,267.290,-16.580
814,51484.745000,257.973,-4.544,36.571,520.319,186.428,3.110,95.800,311.290,-107.580
815,51484.788000,256.987,21.712,15.530,514.178,186.677,12.035,129.800,418.290,-153.580
816,51484.823000,252.054,16.663,62.622,518.601,187.717,18.041,-128.200,384.290,-104.580
817,51484.864000,242.189,9.594,65.628,515.982,193.989,25.187,-79.200,383.290,-102.580
818,51484.905000,266.852,-4.544,69.636,517.777,196.904,36.211,-13.200,321.290,-133.580
819,51484.924000,257.973,-10.604,60.618,515.147,195.307,41.115,-7.200,192.290,-133.580
820,51484.965000,277.703,-10.604,50.599,517.805,199.761,45.240,176.800,156.290,31.420
821,51485.8000,265.865,-56.047,95.687,516.910,197.044,41.177,774.800,122.290,169.420
822,51485.44000,245.148,-24.742,102.701,515.112,193.233,29.132,1777.800,213.290,146.420
823,51485.89000,245.148,44.939,103.703,518.628,187.131,27.952,302.800,196.290,265.420
824,51485.124000,219.499,11.613,98.693,519.519,173.441,34.462,-1201.200,190.290,288.420
825,51485.165000,219.499,-0.505,103.703,520.415,159.807,42.959,-1108.200,195.290,311.420
826,51485.187000,212.593,-1.515,93.683,523.076,160.846,48.959,-185.200,240.290,300.420
827,51485.225000,212.593,1.515,96.689,520.440,151.437,53.611,611.800,294.290,268.420
828,51485.268000,214.566,40.899,79.656,523.082,146.259,54.444,746.800,255.290,200.420
829,51485.308000,201.742,43.929,67.632,516.918,142.839,56.299,-332.200,173.290,156.420
830,51485.348000,207.661,24.742,66.630,519.562,136.821,58.098,-534.200,57.290,132.420
831,51485.388000,217.526,15.653,73.644,516.921,131.668,59.909,-51.200,-10.710,100.420
832,51485.408000,224.432,21.712,69.636,519.549,126.349,55.773,-1.200,-142.710,74.420
833,51485.449000,219.499,17.673,97.691,518.662,133.180,52.019,-8.200,-125.710,-29.580
834,51485.485000,223.445,-7.574,107.710,520.427,134.077,53.047,-76.200,-163.710,3.420
835,51485.525000,234.297,-11.613,92.681,518.642,132.982,45.062,51.800,-231.710,54.420
836,51485.563000,229.364,7.574,72.642,521.272,127.692,41.920,23.800,-245.710,63.420
837,51485.603000,252.054,20.702,129.753,522.132,133.515,33.175,-249.200,-373.710,-26.580
838,51485.643000,261.919,43.929,60.618,516.841,130.011,32.051,-1016.200,-385.710,-201.580
839,51485.663000,336.894,11.613,34.568,518.580,125.475,24.958,-121.200,-618.710,-24.580
840,51485.707000,251.067,-21.712,19.538,518.523,129.223,4.227,-62.200,-714.710,140.420
841,51485.743000,256.000,-39.890,45.589,518.469,128.688,-14.657,-207.200,-534.710,31.420
842,51485.784000,237.256,-34.840,26.552,518.465,134.680,-17.442,98.800,-424.710,-137.580
843,51485.824000,256.987,-6.564,40.579,514.046,141.423,-24.188,174.800,-317.710,-146.580
844,51485.869000,250.081,0.505,27.554,513.134,141.981,-35.096,299.800,-315.710,-78.580
845,51485.888000,257.973,13.633,43.585,512.218,136.462,-46.201,161.800,-287.710,-70.580
846,51485.927000,245.148,3.535,22.544,511.335,141.613,-48.022,-75.200,-295.710,-71.580
847,51485.965000,261.919,9.594,20.540,508.674,144.018,-54.904,-131.200,-258.710,-99.580
848,51486.5000,254.027,-7.574,26.552,510.422,140.435,-58.987,-240.200,-267.710,-76.580
849,51486.49000,253.040,7.574,24.548,506.001,148.886,-66.670,-174.200,-292.710,-119.580
850,51486.87000,244.162,-6.564,4.509,506.871,153.086,-71.496,-336.200,-371.710,-70.580
851,51486.145000,256.000,1.515,5.511,501.574,152.970,-75.489,-254.200,-213.710,-167.580
852,51486.153000,252.054,-1.515,8.517,501.564,154.593,-79.408,-183.200,-196.710,-180.580
853,51486.187000,253.040,25.751,19.538,498.041,167.526,-81.979,-275.200,-222.710,-157.580
854,51486.225000,255.013,-1.515,1.503,496.278,169.232,-82.922,-358.200,-290.710,-134.580
855,51486.272000,247.121,21.712,-0.501,493.624,176.873,-88.641,-266.200,-269.710,-149.580
856,51486.307000,256.000,3.535,7.515,492.725,179.280,-95.516,-394.200,-277.710,-150.580
857,51486.349000,250.081,5.554,5.511,489.203,185.325,-96.325,-310.200,-272.710,-233.580
858,51486.377000,254.027,34.840,-8.517,483.913,194.756,-100.007,-360.200,-275.710,-263.580
859,51486.409000,267.838,-11.613,7.515,483.033,200.804,-100.807,-226.200,-173.710,-253.580
860,51486.447000,268.825,39.890,8.517,480.388,205.085,-102.662,-80.200,-52.710,-396.580
861,51486.487000,256.000,36.860,-30.560,475.102,211.969,-104.442,-389.200,-129.710,-283.580
862,51486.524000,239.229,33.830,-23.546,468.063,219.804,-103.217,-415.200,-178.710,-240.580
863,51486.567000,283.622,4.544,-47.593,468.072,231.956,-102.823,-509.200,-118.710,-283.580
864,51486.607000,249.094,-90.383,-81.659,462.809,236.489,-95.742,-1618.200,-184.710,-269.580
865,51486.625000,250.081,-125.728,-157.808,463.743,247.357,-79.498,-2915.200,-656.710,196.420
866,51486.664000,241.202,-161.073,-164.822,467.279,244.896,-74.602,-3415.200,-1179.710,652.420
867,51486.705000,277.703,-169.152,-137.769,473.411,232.495,-83.922,-2879.200,-1493.710,896.420
868,51486.745000,295.461,-118.659,-85.667,468.060,216.332,-103.330,-2757.200,-1711.710,1169.420
869,51486.792000,288.555,-78.264,-48.595,461.804,202.519,-131.602,-2034.200,-1935.710,1186.420
870,51486.825000,292.501,-54.028,-2.505,450.234,187.552,-169.858,-1141.200,-1840.710,1090.420
871,51486.845000,275.730,-31.811,47.593,435.171,173.761,-197.165,-320.200,-1305.710,1012.420
872,51486.884000,253.040,-2.525,66.630,427.211,165.689,-206.389,-259.200,-601.710,856.420
873,51486.924000,231.337,12.623,80.658,426.357,163.367,-196.538,-764.200,104.290,658.420
874,51486.970000,222.459,18.682,58.614,433.471,162.312,-172.717,-899.200,827.290,470.420
875,51487.12000,264.879,15.653,14.528,443.230,162.995,-148.832,-854.200,1142.290,225.420
876,51487.45000,247.121,4.544,-52.603,450.362,162.977,-119.020,-1527.200,871.290,380.420
877,51487.85000,233.310,73.215,-69.636,452.190,167.938,-97.007,-1792.200,691.290,420.420
878,51487.112000,226.405,142.895,-189.871,458.432,170.411,-71.089,-1666.200,521.290,45.420
879,51487.145000,263.892,64.126,-132.759,456.716,176.040,-56.017,-352.200,727.290,-223.580
880,51487.184000,362.543,-109.570,25.550,453.239,177.356,-40.098,1857.800,1219.290,-130.580
881,51487.269000,296.447,127.748,-56.611,455.907,185.367,-32.878,716.800,734.290,-122.580
882,51487.290000,233.310,-80.284,-36.571,457.699,179.631,-21.143,214.800,674.290,157.420
883,51487.305000,245.148,-27.771,-32.564,455.102,184.391,-6.102,309.800,662.290,-74.580
884,51487.325000,264.879,1.515,-17.534,455.131,182.097,4.747,-31.200,510.290,-70.580
885,51487.364000,244.162,-10.604,-28.556,455.153,184.898,11.789,-154.200,456.290,-107.580
886,51487.405000,250.081,-31.811,12.524,451.659,191.225,20.920,-162.200,336.290,-91.580
887,51487.445000,255.013,-32.821,-10.521,450.805,193.214,29.918,-55.200,262.290,-78.580
888,51487.485000,253.040,-35.850,-1.503,451.682,195.762,28.018,481.800,298.290,-13.580
889,51487.525000,243.175,-1.515,-0.501,449.063,193.410,36.870,557.800,271.290,-11.580
890,51487.565000,238.243,17.673,7.515,449.063,197.722,36.017,285.800,189.290,35.420
891,51487.585000,250.081,-7.574,13.526,447.297,188.201,36.695,-11.200,-0.710,100.420
892,51487.625000,253.040,11.613,-1.503,450.806,187.194,31.709,-136.200,-83.710,124.420
893,51487.670000,258.960,6.564,12.524,449.039,183.693,30.597,-408.200,-144.710,149.420
894,51487.707000,258.960,-20.702,-13.526,456.975,182.915,33.576,-406.200,-108.710,91.420
895,51487.748000,241.202,7.574,22.544,457.855,176.868,34.375,-638.200,-246.710,123.420
896,51487.788000,248.108,-16.663,-8.517,459.607,175.917,31.371,-373.200,-266.710,237.420
897,51487.828000,270.798,14.643,-40.579,463.999,168.891,28.178,-431.200,-436.710,276.420
898,51487.848000,264.879,-13.633,-21.542,462.212,153.993,22.724,-743.200,-483.710,306.420
899,51487.888000,240.216,-54.028,-21.542,467.464,154.527,10.842,-415.200,-541.710,311.420
900,51487.930000,267.838,-30.801,-27.554,469.188,142.095,0.515,-314.200,-550.710,281.420
901,51487.965000,238.243,-55.037,-46.591,471.793,136.551,-11.573,-328.200,-628.710,256.420
902,51488.5000,281.649,12.623,-60.618,469.991,138.731,-26.403,-430.200,-749.710,151.420
903,51488.47000,266.852,9.594,-57.613,474.363,133.244,-36.497,-775.200,-916.710,157.420
904,51488.67000,295.461,13.633,-48.595,470.784,127.527,-54.567,-655.200,-883.710,258.420
905,51488.107000,355.638,92.402,47.593,472.486,122.625,-74.581,-946.200,-1306.710,491.420
906,51488.147000,364.516,-73.215,-37.573,475.014,93.921,-108.273,349.800,-1329.710,896.420
907,51488.187000,279.676,17.673,-117.730,472.277,80.054,-138.521,1764.800,-1520.710,649.420
908,51488.225000,238.243,-61.097,-62.622,463.345,59.881,-176.938,987.800,-1668.710,85.420
909,51488.265000,173.133,17.673,-13.526,457.086,53.796,-207.938,383.800,-1094.710,-546.580
910,51488.307000,145.511,25.751,71.640,455.338,83.222,-209.968,-1002.200,-182.710,-1181.580
911,51488.327000,215.553,-53.018,21.542,458.919,111.367,-196.135,-686.200,1237.290,-1675.580
912,51488.367000,274.744,-120.679,-8.517,466.082,145.257,-163.236,103.800,1782.290,-1625.580
913,51488.409000,260.933,-149.964,-37.573,481.177,167.982,-126.703,1431.800,2068.290,-1322.580
914,51488.454000,266.852,-138.856,-41.581,498.029,177.745,-88.598,3048.800,2386.290,-1190.580
915,51488.487000,283.622,-82.304,-41.581,504.282,182.906,-59.614,2894.800,2457.290,-1260.580
916,51488.533000,291.514,-73.215,-64.626,502.686,217.297,-8.854,2387.800,2299.290,-1351.580
917,51488.547000,302.366,-135.826,-108.712,487.824,249.436,23.917,2377.800,1716.290,-1182.580
918,51488.593000,251.067,-186.320,-188.869,467.601,271.346,32.507,2707.800,1348.290,-877.580
919,51488.627000,222.459,-126.738,-144.783,463.196,289.430,28.115,2629.800,873.290,-177.580
920,51488.667000,167.214,-96.442,-167.828,463.153,285.564,14.088,1845.800,190.290,346.420
921,51488.712000,297.434,130.777,216.924,470.176,274.984,7.809,972.800,219.290,537.420
922,51488.748000,345.773,174.201,-10.521,476.321,260.988,3.403,329.800,-525.710,640.420
923,51488.789000,232.324,-47.968,-62.622,486.863,247.778,-3.943,382.800,-62.710,801.420
924,51488.808000,286.582,24.742,-3.507,487.749,242.655,-1.128,409.800,239.290,313.420
925,51488.848000,246.135,-36.860,8.517,488.628,236.608,-0.328,-61.200,89.290,170.420
926,51488.889000,250.081,4.544,7.515,493.040,230.648,3.465,405.800,266.290,131.420
927,51488.929000,263.892,39.890,41.581,493.052,232.497,7.497,541.800,314.290,147.420
928,51488.969000,260.933,61.097,-4.509,497.452,225.556,7.285,98.800,243.290,87.420
929,51489.9000,240.216,-7.574,42.583,494.826,221.411,14.093,-71.200,257.290,174.420
930,51489.29000,242.189,15.653,41.581,496.603,223.289,19.125,41.800,188.290,166.420
931,51489.68000,253.040,-1.515,23.546,496.598,219.789,18.018,245.800,106.290,153.420
932,51489.108000,239.229,4.544,35.569,498.370,214.723,22.825,247.800,47.290,239.420
933,51489.149000,256.000,2.525,44.587,503.626,205.822,14.609,315.800,-64.710,263.420
934,51489.192000,254.027,-40.899,-10.521,503.612,201.369,10.492,675.800,55.290,217.420
935,51489.227000,245.148,12.623,-7.515,504.479,201.229,5.526,934.800,298.290,75.420
936,51489.269000,255.013,14.643,28.556,504.501,200.586,13.449,579.800,335.290,48.420
937,51489.289000,256.000,29.791,22.544,506.266,201.484,14.477,389.800,290.290,46.420
938,51489.327000,251.067,1.515,44.587,508.036,197.258,18.317,123.800,218.290,134.420
939,51489.372000,250.081,5.554,34.568,507.161,193.002,21.155,188.800,204.290,56.420
940,51489.414000,256.987,-16.663,33.566,509.810,190.484,24.061,209.800,210.290,81.420
941,51489.446000,246.135,5.554,34.568,509.822,188.021,28.946,180.800,249.290,23.420
942,51489.488000,251.067,5.554,55.609,511.597,190.739,33.012,140.800,302.290,63.420
943,51489.507000,246.135,9.594,41.581,511.611,190.012,37.953,297.800,384.290,-2.580
944,51489.548000,254.027,12.623,51.601,507.235,190.290,47.878,-69.200,399.290,-7.580
945,51489.588000,248.108,-3.535,72.642,509.909,194.914,57.967,-35.200,366.290,13.420
946,51489.630000,249.094,17.673,60.618,507.288,193.401,65.853,48.800,317.290,4.420
947,51489.668000,262.906,-6.564,60.618,507.310,192.758,73.776,-167.200,297.290,63.420
948,51489.708000,259.946,-15.653,55.609,506.444,189.455,79.624,60.800,304.290,27.420
949,51489.754000,255.013,12.623,63.624,507.347,188.813,87.550,-184.200,285.290,31.420
950,51489.770000,252.054,-27.771,86.669,508.232,179.378,91.219,-307.200,195.290,35.420
951,51489.813000,256.987,-14.643,90.677,509.130,179.548,97.185,144.800,159.290,73.420
952,51489.850000,253.040,-26.761,83.663,512.641,181.146,92.283,478.800,40.290,158.420
953,51489.889000,243.175,-37.870,108.712,516.133,172.215,83.068,898.800,-95.710,313.420
954,51489.930000,229.364,-29.791,135.765,516.104,164.177,74.863,1312.800,100.290,353.420
955,51489.969000,208.647,-0.505,145.785,514.325,167.451,68.012,929.800,47.290,323.420
956,51489.990000,210.620,-12.623,136.767,520.469,152.587,63.578,212.800,154.290,379.420
957,51490.29000,210.620,-28.781,106.708,519.589,137.943,67.072,112.800,248.290,411.420
958,51490.69000,221.472,-23.732,101.699,519.591,137.971,68.066,524.800,252.290,443.420
959,51490.109000,197.796,46.959,76.650,520.471,131.924,68.865,264.800,255.290,360.420
960,51490.149000,203.715,33.830,40.579,517.837,125.119,73.601,-107.200,116.290,206.420
961,51490.190000,199.769,33.830,29.558,520.468,120.696,70.487,29.800,-12.710,123.420
962,51490.230000,207.661,29.791,3.507,522.212,118.792,64.473,227.800,-293.710,0.420
963,51490.250000,207.661,30.801,32.564,521.312,116.887,58.450,120.800,-440.710,-56.580
964,51490.290000,223.445,9.594,55.609,523.051,123.550,48.742,107.800,-517.710,-87.580
965,51490.330000,287.568,37.870,182.857,522.137,124.948,36.869,-495.200,-561.710,-228.580
966,51490.370000,288.555,-37.870,65.628,523.929,126.967,46.870,-1214.200,-43.710,-222.580
967,51490.409000,334.921,-180.260,48.595,520.395,128.587,42.939,-305.200,-475.710,-22.580
968,51490.448000,254.027,33.830,10.521,520.348,133.288,25.218,148.800,-625.710,107.420
969,51490.470000,240.216,-66.146,24.548,522.060,131.943,8.299,409.800,-450.710,126.420
970,51490.508000,258.960,-4.544,32.564,516.738,135.016,-5.521,214.800,-447.710,-139.580
971,51490.549000,253.040,-5.554,40.579,519.371,133.198,-8.550,-129.200,-353.710,-135.580
972,51490.594000,250.081,-7.574,40.579,515.822,133.810,-17.479,31.800,-267.710,-93.580
973,51490.630000,248.108,18.682,39.577,515.807,136.245,-23.358,-35.200,-289.710,-49.580
974,51490.669000,252.054,-0.505,50.599,516.669,141.228,-31.137,-247.200,-352.710,-10.580
975,51490.708000,251.067,-26.761,14.528,513.137,142.009,-34.102,-250.200,-392.710,-5.580
976,51490.734000,259.946,-12.623,11.523,513.999,143.549,-41.000,-120.200,-288.710,-75.580
977,51490.773000,254.027,-10.604,17.534,511.339,146.821,-47.853,-54.200,-214.710,-106.580
978,51490.809000,256.000,-19.692,10.521,512.212,146.738,-50.832,-76.200,-162.710,-131.580
979,51490.854000,252.054,-1.515,13.526,510.437,149.199,-55.723,-97.200,-72.710,-167.580
980,51490.892000,245.148,-0.505,20.540,510.459,155.444,-49.562,-178.200,-77.710,-193.580
981,51490.932000,257.973,4.544,36.571,506.923,158.773,-54.431,-208.200,-112.710,-136.580
982,51490.952000,252.054,15.653,11.523,506.049,164.009,-53.271,-168.200,-107.710,-148.580
983,51490.989000,258.960,7.574,23.546,506.043,170.840,-57.021,-225.200,-135.710,-124.580
984,51491.44000,254.027,5.554,8.517,502.523,171.733,-56.010,-340.200,-140.710,-129.580
985,51491.92000,253.040,-1.515,8.517,500.748,169.883,-60.048,-457.200,-115.710,-143.580
986,51491.114000,257.973,1.515,9.519,498.124,179.542,-55.771,-345.200,-50.710,-197.580
987,51491.154000,253.040,4.544,-2.505,497.251,186.514,-54.555,-268.200,-41.710,-223.580
988,51491.194000,256.987,25.751,26.552,499.892,192.535,-56.337,-304.200,4.290,-223.580
989,51491.209000,256.000,6.564,5.511,496.383,196.985,-52.232,-129.200,9.290,-300.580
990,51491.250000,251.067,37.870,22.544,491.115,205.774,-47.991,-643.200,-89.710,-331.580
991,51491.289000,245.148,-3.535,50.599,489.362,209.301,-45.896,-451.200,-171.710,-240.580
992,51491.330000,250.081,45.949,17.534,485.832,212.686,-48.777,-294.200,-262.710,-238.580
993,51491.369000,260.933,6.564,4.509,483.189,223.884,-51.401,-640.200,-303.710,-195.580
994,51491.410000,262.906,-24.742,22.544,479.680,229.202,-47.268,-455.200,-187.710,-331.580
995,51491.430000,270.798,33.830,-39.577,476.157,237.823,-48.985,-230.200,-2.710,-439.580
996,51491.470000,289.541,8.584,-28.556,467.388,261.478,-40.302,-226.200,268.290,-693.580
997,51491.509000,252.054,-37.870,9.519,461.249,272.954,-32.998,-430.200,339.290,-765.580
998,51491.550000,261.919,-30.801,-14.528,452.474,284.486,-23.715,-600.200,-1.710,-442.580
999,51491.589000,261.919,-163.093,-147.789,460.382,273.095,-28.031,-1668.200,-885.710,555.420
1000,51491.630000,255.013,-126.738,-110.716,469.118,249.102,-48.642,-1816.200,-1493.710,862.420
1001,51491.670000,279.676,-102.501,-55.609,476.100,233.816,-67.982,-1917.200,-1698.710,1171.420
1002,51491.694000,295.461,-55.037,-33.566,480.402,208.670,-98.574,-2419.200,-1739.710,1343.420
1003,51491.734000,298.420,-68.166,-19.538,473.242,190.319,-133.947,-2467.200,-1919.710,1353.420
1004,51491.774000,295.461,-73.215,5.511,459.948,177.453,-159.232,-1818.200,-1746.710,1298.420
1005,51491.814000,271.784,-45.949,41.581,452.840,164.789,-177.540,-1122.200,-1288.710,1309.420
1006,51491.855000,228.378,-7.574,49.597,445.738,145.294,-192.097,-532.200,-747.710,1130.420
1007,51491.893000,224.432,57.057,75.648,439.556,128.769,-193.646,-368.200,-48.710,895.420
1008,51491.914000,221.472,91.393,80.658,447.534,130.122,-176.696,-533.200,716.290,299.420
1009,51491.954000,215.553,82.304,47.593,453.785,140.435,-149.530,-1012.200,1006.290,-187.580
1010,51491.992000,267.838,-52.008,-319.123,452.075,150.432,-133.323,-1276.200,577.290,-238.580
1011,51492.32000,257.973,39.890,-108.712,452.110,162.837,-123.984,483.800,936.290,-360.580
1012,51492.79000,296.447,-68.166,-1.503,454.805,165.082,-106.029,680.800,1068.290,-235.580
1013,51492.109000,255.013,3.535,-28.556,453.084,167.211,-92.063,862.800,822.290,-201.580
1014,51492.149000,288.555,33.830,-34.568,452.225,169.144,-85.052,217.800,624.290,-141.580
1015,51492.173000,275.730,2.525,-51.601,455.775,166.824,-75.186,368.800,505.290,-90.580
1016,51492.213000,253.040,-15.653,-28.556,454.915,168.757,-68.175,471.800,534.290,-71.580
1017,51492.253000,249.094,-3.535,-10.521,454.949,172.539,-57.130,209.800,455.290,-103.580
1018,51492.308000,246.135,-26.761,-4.509,451.440,180.433,-53.906,-94.200,257.290,-88.580
1019,51492.339000,248.108,-25.751,-18.536,453.209,179.650,-50.946,2.800,128.290,-66.580
1020,51492.380000,256.000,-14.643,-23.546,453.211,182.254,-50.862,210.800,85.290,-74.580
1021,51492.395000,251.067,-19.692,4.509,454.990,181.557,-44.921,114.800,132.290,-61.580
1022,51492.435000,247.121,3.535,-11.523,453.215,176.263,-48.077,-95.200,11.290,-27.580
1023,51492.482000,256.987,-4.544,-21.542,453.225,182.395,-45.892,-183.200,-43.710,37.420
1024,51492.512000,249.094,-32.821,-5.511,454.103,181.500,-46.912,12.800,-98.710,81.420
1025,51492.559000,257.973,-22.722,-22.544,454.976,182.284,-49.862,60.800,-121.710,74.420
1026,51492.595000,253.040,-12.623,-21.542,454.965,178.727,-52.957,-94.200,-150.710,78.420
1027,51492.635000,249.094,-29.791,-35.569,452.322,166.658,-50.378,-65.200,-137.710,94.420
1028,51492.660000,249.094,-20.702,-15.530,455.826,167.331,-57.296,-23.200,-132.710,96.420
1029,51492.695000,248.108,-19.692,-26.552,458.455,167.192,-62.257,-61.200,-224.710,109.420
1030,51492.739000,257.973,-25.751,-15.530,456.675,170.466,-69.107,-99.200,-306.710,181.420
1031,51492.772000,248.108,-26.761,-25.550,461.068,165.177,-72.244,26.800,-395.710,208.420
1032,51492.812000,256.000,-20.702,-52.603,461.051,161.564,-77.326,-59.200,-320.710,194.420
1033,51492.852000,243.175,-38.880,-37.573,460.142,157.838,-86.387,-199.200,-301.710,166.420
1034,51492.872000,250.081,-29.791,-41.581,459.244,146.468,-89.737,-132.200,-338.710,187.420
1035,51492.918000,243.175,-32.821,-44.587,460.092,136.668,-98.990,-57.200,-404.710,225.420
1036,51492.953000,256.000,-16.663,-52.603,460.067,137.282,-107.907,-85.200,-488.710,265.420
1037,51492.994000,279.676,-2.525,-55.609,459.155,132.660,-117.990,-235.200,-529.710,260.420
1038,51493.32000,303.353,1.515,-48.595,460.004,124.595,-127.185,-375.200,-583.710,327.420
1039,51493.72000,262.906,81.294,-70.638,461.722,121.570,-142.173,-892.200,-845.710,407.420
1040,51493.117000,281.649,85.333,-29.558,458.179,123.106,-149.085,-1814.200,-879.710,662.420
1041,51493.130000,294.474,-13.633,-109.714,459.011,113.136,-164.301,-941.200,-1147.710,706.420
1042,51493.170000,219.499,-8.584,-160.814,451.855,89.662,-196.861,487.800,-1242.710,262.420
1043,51493.212000,233.310,-116.639,-91.679,445.625,88.169,-218.776,678.800,-1143.710,75.420
1044,51493.252000,189.904,24.742,-1.503,442.933,78.197,-234.003,704.800,-665.710,-338.580
1045,51493.292000,188.917,1.515,12.524,440.289,96.282,-238.389,-844.200,-170.710,-1037.580
1046,51493.338000,180.039,-19.692,-12.524,439.450,137.190,-233.093,-1331.200,414.290,-1279.580
1047,51493.355000,211.607,-104.521,-12.524,448.342,165.592,-210.297,-365.200,1132.290,-1299.580
1048,51493.397000,238.243,-115.629,-16.532,457.227,171.511,-185.251,1258.800,1870.290,-1239.580
1049,51493.430000,278.690,-82.304,-13.526,472.301,181.971,-153.088,2230.800,2304.290,-1362.580
1050,51493.475000,304.339,-57.057,-4.509,492.714,203.302,-104.667,2620.800,2494.290,-1483.580
1051,51493.515000,342.813,-30.801,-0.501,490.217,232.315,-60.042,2292.800,2477.290,-1641.580
1052,51493.567000,366.489,-72.205,-73.644,471.858,274.196,-20.015,1540.800,2017.290,-1509.580
1053,51493.598000,256.000,-117.649,-154.802,461.357,288.668,1.274,1020.800,1387.290,-870.580
1054,51493.613000,254.027,-114.619,-225.941,450.815,294.990,10.382,1066.800,505.290,30.420
1055,51493.654000,242.189,-44.939,-248.986,457.814,289.336,-5.667,1463.800,-248.710,354.420
1056,51493.694000,300.393,77.254,18.536,462.140,278.219,-30.838,1312.800,-449.710,490.420
1057,51493.734000,243.175,30.801,-26.552,464.758,271.948,-37.984,11.800,-282.710,294.420
1058,51493.773000,273.757,43.929,4.509,466.484,261.252,-48.256,643.800,-292.710,291.420
1059,51493.817000,242.189,46.959,-9.519,471.721,252.153,-63.429,460.800,-345.710,259.420
1060,51493.855000,260.933,29.791,-11.523,473.442,246.580,-76.513,287.800,-377.710,325.420
1061,51493.877000,268.825,26.761,-24.548,473.422,247.251,-83.443,829.800,-343.710,232.420
1062,51493.916000,227.391,72.205,-59.616,474.244,239.773,-102.550,995.800,-218.710,122.420
1063,51493.951000,237.256,0.505,-53.605,476.854,233.417,-112.677,520.800,-114.710,107.420
1064,51493.992000,256.000,-59.077,-13.526,475.963,230.728,-115.746,253.800,5.290,115.420
1065,51494.32000,261.919,35.850,-46.591,475.972,224.793,-110.974,-119.200,79.290,-38.580
1066,51494.71000,269.811,53.018,-50.599,475.983,227.481,-107.908,-181.200,162.290,-52.580
1067,51494.93000,262.906,29.791,-43.585,476.877,225.887,-102.992,-35.200,239.290,-30.580
1068,51494.133000,244.162,14.643,-15.530,479.539,229.529,-96.907,39.800,251.290,13.420
1069,51494.174000,246.135,28.781,-15.530,476.888,225.999,-99.016,86.800,203.290,19.420
1070,51494.214000,250.081,22.722,-9.519,479.552,224.490,-91.113,114.800,132.290,61.420
1071,51494.254000,251.067,15.653,-6.513,480.425,227.850,-94.973,253.800,45.290,93.420
1072,51494.294000,255.013,35.850,-19.538,483.946,220.937,-94.193,120.800,3.290,94.420
1073,51494.334000,253.040,22.722,-22.544,481.299,218.303,-95.280,7.800,-4.710,127.420
1074,51494.354000,248.108,11.613,-26.552,483.951,219.258,-92.261,46.800,4.290,125.420
1075,51494.394000,254.027,17.673,-28.556,487.466,215.732,-94.350,-69.200,28.290,109.420
1076,51494.434000,251.067,8.584,-21.542,489.237,215.818,-91.363,-107.200,60.290,108.420
1077,51494.477000,251.067,16.663,-23.546,487.489,212.513,-85.518,-49.200,78.290,103.420
1078,51494.517000,254.027,7.574,-19.538,492.773,209.913,-85.585,-78.200,74.290,102.420
1079,51494.557000,259.946,13.633,-20.540,494.531,201.263,-84.867,-130.200,108.290,80.420
1080,51494.577000,252.054,7.574,-15.530,494.547,199.696,-78.960,-164.200,118.290,75.420
1081,51494.624000,252.054,6.564,-19.538,494.558,199.808,-74.985,-165.200,146.290,58.420
1082,51494.663000,251.067,13.633,-19.538,495.453,199.082,-70.040,-235.200,179.290,33.420
1083,51494.692000,252.054,2.525,-7.515,496.361,208.828,-62.770,-211.200,183.290,24.420
1084,51494.738000,253.040,9.594,-12.524,499.897,202.055,-57.021,-132.200,191.290,27.420
1085,51494.775000,252.054,3.535,-3.507,502.563,206.594,-49.914,-195.200,175.290,23.420
