Sample, Time, ACCX, ACCY, ACCZ, MAGX, MAGY, MAGZ, GYRX, GYRY, GYRZ
0,51591.872000,251.010,-15.530,36.713,468.940,-281.274,137.277,37.850,21.630,45.070
1,51591.911000,249.014,-15.530,38.698,462.252,-273.857,135.505,21.850,5.630,52.070
2,51591.951000,250.012,-15.530,37.705,460.173,-283.341,135.238,16.850,-64.370,41.070
3,51591.980000,247.018,-20.540,29.767,464.218,-271.965,134.577,48.850,-121.370,16.070
4,51592.11000,244.023,-21.542,26.791,462.175,-278.691,131.436,63.850,-123.370,-3.930
5,51592.55000,244.023,-21.542,30.760,468.062,-274.720,135.491,41.850,-93.370,-11.930
6,51592.92000,251.010,-17.534,32.744,467.052,-276.783,129.530,60.850,-77.370,-1.930
7,51592.142000,256.998,-7.515,24.806,467.016,-278.780,125.540,71.850,-190.370,23.070
8,51592.175000,258.994,-5.511,22.822,468.012,-276.901,124.610,-21.150,-192.370,24.070
9,51592.215000,256.998,-12.524,23.814,468.063,-273.171,122.747,-53.150,-116.370,9.070
10,51592.253000,248.016,-21.542,25.798,467.110,-271.426,117.876,-47.150,-73.370,35.070
11,51592.275000,244.023,-25.550,24.806,468.990,-275.260,114.822,-25.150,-95.370,35.070
12,51592.315000,253.006,-32.564,19.845,471.827,-280.026,111.743,-13.150,-176.370,15.070
13,51592.351000,256.998,-27.554,12.899,469.925,-277.242,110.834,57.850,-159.370,8.070
14,51592.392000,255.002,-18.536,14.884,469.935,-276.349,108.891,87.850,-77.370,26.070
15,51592.441000,256.998,-13.526,16.868,470.933,-274.444,108.946,83.850,-36.370,25.070
16,51592.475000,256.998,-19.538,14.884,468.898,-281.065,109.742,40.850,-67.370,13.070
17,51592.512000,252.008,-21.542,13.891,471.796,-281.208,102.858,10.850,-74.370,-12.930
18,51592.555000,250.012,-19.538,18.853,471.900,-274.483,106.979,41.850,11.630,-21.930
19,51592.575000,253.006,-15.530,12.899,472.884,-273.524,107.008,39.850,-14.370,-11.930
20,51592.615000,256.998,-15.530,7.938,470.955,-272.632,106.046,-44.150,-29.370,-15.930
21,51592.654000,259.992,-9.519,3.969,475.824,-271.591,107.066,-110.150,31.630,-26.930
22,51592.694000,256.000,-11.523,11.907,476.730,-276.253,108.905,-103.150,85.630,-9.930
23,51592.736000,255.002,-17.534,18.853,471.825,-279.290,103.895,-121.150,75.630,13.070
24,51592.774000,250.012,-23.546,13.891,471.890,-274.615,102.058,-153.150,52.630,-2.930
25,51592.817000,247.018,-20.540,18.853,474.707,-281.167,102.864,-149.150,91.630,13.070
26,51592.856000,248.016,-14.528,18.853,469.954,-274.564,105.007,-147.150,24.630,36.070
27,51592.872000,252.008,-19.538,6.946,468.952,-276.521,102.983,-98.150,-91.370,42.070
28,51592.917000,250.012,-25.550,7.938,470.846,-279.410,99.955,-140.150,-35.370,22.070
29,51592.952000,253.006,-27.554,12.899,465.887,-286.229,94.839,-168.150,-35.370,12.070
30,51592.994000,254.004,-23.546,17.860,470.820,-280.513,94.023,-124.150,-50.370,27.070
31,51593.34000,253.006,-24.548,16.868,471.740,-283.468,89.024,-128.150,-79.370,12.070
32,51593.74000,250.012,-23.546,18.853,471.736,-283.521,87.055,-106.150,-20.370,-23.930
33,51593.112000,256.000,-23.546,15.876,469.769,-285.413,87.983,-56.150,42.630,-37.930
34,51593.152000,261.988,-21.542,13.891,468.798,-285.427,87.981,-43.150,32.630,-28.930
35,51593.172000,258.994,-20.540,4.961,469.840,-280.659,89.099,-55.150,45.630,-19.930
36,51593.212000,252.008,-19.538,16.868,468.769,-287.344,86.944,-49.150,126.630,-21.930
37,51593.252000,249.014,-19.538,17.860,472.644,-288.156,89.879,-76.150,62.630,-27.930
38,51593.292000,253.006,-19.538,17.860,472.754,-280.591,90.089,-105.150,53.630,-40.930
39,51593.336000,256.998,-18.536,16.868,472.644,-288.156,89.879,-107.150,79.630,-35.930
40,51593.376000,253.006,-19.538,16.868,470.814,-280.592,91.070,-27.150,80.630,-15.930
41,51593.421000,248.016,-20.540,21.829,470.746,-285.320,90.938,-51.150,73.630,-15.930
42,51593.440000,246.020,-20.540,20.837,472.754,-280.591,90.089,-90.150,38.630,-26.930
43,51593.483000,249.014,-22.544,22.822,469.791,-284.362,91.947,-64.150,33.630,-29.930
44,51593.516000,255.002,-21.542,21.829,475.711,-277.660,92.143,-39.150,21.630,-4.930
45,51593.556000,258.994,-20.540,19.845,472.770,-279.619,91.100,19.850,64.630,5.070
46,51593.605000,258.994,-20.540,19.845,469.842,-281.394,96.948,-0.150,114.630,-9.930
47,51593.634000,251.010,-16.532,20.837,470.760,-285.136,97.829,-30.150,122.630,-21.930
48,51593.677000,247.018,-17.534,21.829,471.754,-283.284,95.915,-16.150,95.630,-16.930
49,51593.712000,247.018,-19.538,23.814,469.921,-276.534,102.001,-4.150,68.630,6.070
50,51593.732000,248.016,-22.544,20.837,465.954,-282.289,100.851,9.850,44.630,11.070
51,51593.772000,248.016,-21.542,23.814,464.956,-284.194,100.796,24.850,55.630,6.070
52,51593.816000,248.016,-20.540,25.798,466.909,-284.008,106.706,26.850,16.630,3.070
53,51593.856000,251.010,-19.538,23.814,468.919,-279.253,106.842,32.850,-12.370,6.070
54,51593.896000,251.010,-19.538,22.822,469.776,-286.857,104.664,50.850,-41.370,18.070
55,51593.936000,251.010,-18.536,22.822,469.847,-282.102,105.780,52.850,-33.370,18.070
56,51593.976000,251.010,-19.538,22.822,468.870,-282.195,102.825,50.850,-22.370,21.070
57,51594.20000,254.004,-18.536,23.814,467.956,-278.400,103.913,39.850,-33.370,21.070
58,51594.35000,256.000,-18.536,21.829,468.860,-283.088,104.768,37.850,-38.370,15.070
59,51594.75000,255.002,-16.532,22.822,470.882,-277.413,103.945,40.850,-0.370,7.070
60,51594.114000,249.014,-16.532,22.822,467.891,-283.075,105.750,20.850,1.630,2.070
61,51594.154000,250.012,-17.534,22.822,468.960,-276.416,106.921,17.850,-22.370,1.070
62,51594.198000,253.006,-17.534,22.822,468.827,-285.058,101.762,-3.150,-35.370,5.070
63,51594.235000,253.006,-20.540,20.837,468.895,-280.330,101.894,-16.150,-30.370,5.070
64,51594.277000,252.008,-19.538,20.837,465.932,-284.101,103.751,-11.150,-13.370,2.070
65,51594.316000,252.008,-22.544,22.822,465.062,-277.443,105.902,-5.150,2.630,4.070
66,51594.335000,254.004,-19.538,21.829,469.788,-285.937,103.706,-16.150,-17.370,-3.930
67,51594.377000,252.008,-18.536,21.829,467.938,-279.398,101.918,-25.150,-5.370,-2.930
68,51594.415000,253.006,-18.536,21.829,467.879,-283.233,99.844,-43.150,6.630,1.070
69,51594.455000,252.008,-19.538,21.829,468.909,-279.384,101.920,-30.150,5.630,3.070
70,51594.504000,253.006,-22.544,21.829,468.825,-285.085,100.778,-14.150,-5.370,4.070
71,51594.536000,251.010,-22.544,22.822,466.926,-282.249,101.837,-33.150,5.630,0.070
72,51594.575000,251.010,-21.542,23.814,469.809,-284.125,100.806,-39.150,4.630,-4.930
73,51594.611000,253.006,-19.538,21.829,470.764,-285.083,99.797,-32.150,-14.370,-1.930
74,51594.637000,253.006,-19.538,19.845,470.872,-277.545,99.024,-28.150,-1.370,-2.930
75,51594.686000,249.014,-22.544,20.837,463.955,-286.125,99.757,-23.150,-9.370,0.070
76,51594.716000,251.010,-21.542,20.837,469.821,-283.206,99.848,-17.150,8.630,5.070
77,51594.756000,252.008,-18.536,22.822,465.909,-285.178,98.803,-28.150,7.630,-4.930
78,51594.796000,253.006,-18.536,20.837,468.889,-280.409,98.941,-16.150,-19.370,-3.930
79,51594.850000,254.004,-20.540,20.837,466.948,-280.437,98.936,-4.150,-0.370,0.070
80,51594.882000,253.006,-20.540,19.845,466.950,-280.410,99.921,-1.150,15.630,-2.930
81,51594.896000,251.010,-20.540,23.814,471.844,-277.505,100.010,-4.150,13.630,-6.930
82,51594.936000,253.006,-19.538,21.829,469.801,-284.230,96.869,-6.150,9.630,-4.930
83,51594.976000,252.008,-19.538,21.829,468.842,-283.325,95.908,2.850,-13.370,3.070
84,51595.15000,250.012,-21.542,20.837,469.848,-281.315,99.901,15.850,7.630,5.070
85,51595.57000,250.012,-19.538,22.822,470.787,-283.245,97.881,-2.150,13.630,3.070
86,51595.96000,251.010,-17.534,25.798,469.893,-278.425,101.948,-4.150,3.630,2.070
87,51595.136000,251.010,-17.534,22.822,465.993,-279.478,99.945,-4.150,-16.370,7.070
88,51595.176000,252.008,-18.536,22.822,467.832,-286.149,96.812,-2.150,-17.370,7.070
89,51595.197000,251.010,-20.540,21.829,465.909,-285.178,98.803,-5.150,15.630,3.070
90,51595.244000,252.008,-18.536,21.829,467.848,-285.177,97.823,-9.150,23.630,3.070
91,51595.277000,255.002,-21.542,20.837,467.874,-284.074,103.755,-5.150,7.630,5.070
92,51595.315000,252.008,-19.538,20.837,467.887,-283.128,103.781,-5.150,2.630,6.070
93,51595.355000,249.014,-21.542,22.822,463.873,-291.799,99.599,-4.150,12.630,8.070
94,51595.397000,250.012,-19.538,24.806,468.887,-280.435,97.956,-8.150,1.630,7.070
95,51595.437000,254.004,-17.534,23.814,468.807,-286.083,98.783,-2.150,-16.370,6.070
96,51595.477000,254.004,-21.542,22.822,468.889,-280.409,98.941,-2.150,-12.370,7.070
97,51595.512000,252.008,-20.540,20.837,466.858,-286.977,101.705,-2.150,-22.370,5.070
98,51595.535000,253.006,-21.542,20.837,467.934,-279.451,99.949,17.850,4.630,-1.930
99,51595.575000,252.008,-19.538,21.829,466.893,-284.219,98.831,-0.150,-7.370,3.070
100,51595.615000,254.004,-22.544,19.845,467.862,-284.232,97.849,3.850,-11.370,2.070
101,51595.655000,252.008,-20.540,20.837,466.840,-287.975,99.710,-2.150,12.630,-0.930
102,51595.695000,250.012,-20.540,21.829,468.880,-281.302,100.883,-3.150,18.630,-3.930
103,51595.739000,250.012,-19.538,22.822,468.825,-285.085,100.778,12.850,-1.370,4.070
104,51595.779000,253.006,-19.538,22.822,471.842,-277.531,99.026,-1.150,-10.370,7.070
105,51595.797000,254.004,-19.538,22.822,467.895,-282.261,100.855,-17.150,-9.370,1.070
106,51595.837000,253.006,-19.538,22.822,469.779,-286.043,99.769,-22.150,6.630,-6.930
107,51595.877000,251.010,-20.540,22.822,466.918,-282.354,97.899,-14.150,-2.370,-5.930
108,51595.917000,253.006,-20.540,21.829,467.930,-279.503,97.980,-16.150,0.630,-3.930
109,51595.964000,253.006,-20.540,20.837,465.968,-281.343,100.877,-13.150,0.630,-0.930
110,51595.997000,251.010,-20.540,20.837,468.878,-281.328,99.899,-21.150,14.630,-1.930
111,51596.45000,252.008,-21.542,21.829,469.832,-282.287,98.890,-30.150,-1.370,-2.930
112,51596.77000,252.008,-20.540,23.814,467.891,-282.314,98.886,-14.150,12.630,-0.930
113,51596.97000,251.010,-21.542,22.822,468.893,-280.356,100.909,-5.150,-11.370,4.070
114,51596.135000,252.008,-21.542,21.829,468.713,-292.676,99.583,-11.150,-15.370,2.070
115,51596.175000,252.008,-21.542,23.814,464.979,-282.355,98.880,-10.150,-3.370,-4.930
116,51596.215000,253.006,-20.540,21.829,468.881,-280.514,95.003,-7.150,-9.370,-1.930
117,51596.255000,253.006,-20.540,20.837,468.919,-278.491,99.978,-6.150,-9.370,4.070
118,51596.295000,252.008,-22.544,21.829,466.903,-283.326,96.889,-6.150,-17.370,-1.930
119,51596.335000,251.010,-20.540,20.837,469.828,-282.339,96.921,-4.150,-9.370,-8.930
120,51596.356000,251.010,-19.538,20.837,468.801,-286.162,95.830,-14.150,-10.370,-5.930
121,51596.396000,252.008,-20.540,20.837,469.760,-287.067,96.790,-4.150,-17.370,0.070
122,51596.439000,253.006,-21.542,22.822,467.866,-284.179,99.818,-0.150,-2.370,-0.930
123,51596.478000,253.006,-21.542,21.829,466.863,-286.137,97.794,1.850,-10.370,-3.930
124,51596.518000,252.008,-21.542,20.837,467.873,-283.312,96.891,3.850,6.630,-3.930
125,51596.559000,250.012,-19.538,19.845,468.840,-283.351,94.924,-10.150,-6.370,-1.930
126,51596.596000,252.008,-20.540,20.837,469.846,-280.580,92.052,9.850,-3.370,-0.930
127,51596.637000,251.010,-20.540,20.837,468.911,-278.597,96.040,9.850,-4.370,0.070
128,51596.657000,251.010,-18.536,21.829,467.838,-285.309,92.901,-16.150,-3.370,-5.930
129,51596.699000,252.008,-19.538,22.822,467.879,-282.472,92.980,-14.150,1.630,-6.930
130,51596.736000,251.010,-18.536,20.837,469.830,-282.313,97.906,-7.150,-18.370,-0.930
131,51596.777000,253.006,-19.538,20.837,465.985,-279.584,96.008,-7.150,-12.370,-1.930
132,51596.817000,252.008,-19.538,21.829,467.783,-289.091,92.795,-10.150,11.630,-7.930
133,51596.857000,252.008,-20.540,20.837,466.928,-281.461,95.957,-18.150,-11.370,-10.930
134,51596.897000,252.008,-20.540,20.837,469.848,-280.553,93.036,-11.150,-11.370,-10.930
135,51596.941000,251.010,-17.534,19.845,469.866,-279.555,95.031,-0.150,18.630,-5.930
136,51596.956000,251.010,-19.538,20.837,469.887,-278.504,98.995,-7.150,10.630,-3.930
137,51596.996000,251.010,-17.534,20.837,465.997,-278.664,95.050,-25.150,-19.370,-6.930
138,51597.36000,253.006,-18.536,19.845,470.852,-278.569,96.044,-16.150,6.630,-6.930
139,51597.76000,253.006,-17.534,18.853,468.824,-284.323,93.913,-4.150,1.630,2.070
140,51597.116000,253.006,-20.540,19.845,471.752,-283.310,94.930,-15.150,11.630,-2.930
141,51597.156000,251.010,-17.534,20.837,471.734,-284.308,92.935,-24.150,2.630,-8.930
142,51597.200000,251.010,-18.536,19.845,471.791,-280.499,94.025,-9.150,-2.370,-2.930
143,51597.240000,252.008,-19.538,21.829,472.699,-285.135,96.848,-0.150,4.630,3.070
144,51597.267000,254.004,-20.540,19.845,467.922,-279.609,94.043,-11.150,-11.370,4.070
145,51597.296000,253.006,-20.540,20.837,470.793,-282.404,93.970,-2.150,5.630,2.070
146,51597.336000,252.008,-19.538,19.845,469.883,-278.557,97.026,2.850,5.630,3.070
147,51597.376000,251.010,-19.538,20.837,470.742,-286.134,95.834,1.850,-19.370,1.070
148,51597.420000,253.006,-20.540,19.845,470.820,-280.513,94.023,-5.150,-2.370,0.070
149,51597.456000,254.004,-19.538,21.829,469.756,-287.120,94.821,8.850,5.630,3.070
150,51597.497000,252.008,-18.536,22.822,470.766,-284.296,93.918,12.850,12.630,8.070
151,51597.536000,251.010,-18.536,21.829,469.795,-284.309,93.915,-0.150,1.630,6.070
152,51597.556000,252.008,-21.542,21.829,467.915,-280.475,96.970,-5.150,7.630,-3.930
153,51597.601000,252.008,-19.538,20.837,472.668,-287.079,94.827,14.850,1.630,-4.930
154,51597.636000,252.008,-17.534,20.837,469.848,-280.553,93.036,14.850,6.630,3.070
155,51597.677000,252.008,-19.538,20.837,472.723,-283.296,94.932,8.850,-0.370,3.070
156,51597.719000,254.004,-20.540,22.822,470.854,-278.543,97.029,-1.150,7.630,1.070
157,51597.757000,252.008,-19.538,22.822,470.844,-279.436,98.971,2.850,18.630,2.070
158,51597.797000,255.002,-20.540,20.837,466.928,-281.461,95.957,4.850,6.630,0.070
159,51597.816000,252.008,-19.538,21.829,470.760,-285.136,97.829,-0.150,6.630,-0.930
160,51597.857000,250.012,-18.536,21.829,470.785,-283.271,96.897,0.850,16.630,-0.930
161,51597.905000,249.014,-18.536,21.829,470.793,-282.404,93.970,-19.150,-3.370,-5.930
162,51597.938000,251.010,-17.534,20.837,470.825,-280.461,95.992,-17.150,-23.370,-4.930
163,51597.978000,253.006,-18.536,19.845,469.854,-280.474,95.989,-14.150,-10.370,0.070
164,51598.19000,254.004,-20.540,22.822,470.754,-285.215,94.876,-15.150,3.630,-0.930
165,51598.59000,254.004,-20.540,21.829,467.828,-286.202,94.843,-6.150,-5.370,1.070
166,51598.97000,253.006,-19.538,20.837,467.856,-284.311,94.896,-11.150,12.630,-4.930
167,51598.117000,252.008,-18.536,19.845,468.812,-285.242,94.871,-0.150,-4.370,-1.930
168,51598.160000,254.004,-18.536,20.837,468.860,-282.327,97.904,8.850,-7.370,4.070
169,51598.201000,253.006,-18.536,21.829,473.656,-286.067,96.824,-2.150,5.630,1.070
170,51598.241000,249.014,-19.538,21.829,470.734,-287.001,98.760,-2.150,16.630,-0.930
171,51598.280000,250.012,-19.538,23.814,472.666,-287.105,93.843,6.850,6.630,3.070
172,51598.320000,252.008,-19.538,18.853,466.850,-287.082,97.768,14.850,-17.370,8.070
173,51598.360000,252.008,-19.538,19.845,470.852,-278.569,96.044,6.850,-6.370,6.070
174,51598.407000,250.012,-19.538,22.822,471.770,-282.312,96.925,-2.150,11.630,0.070
175,51598.421000,251.010,-19.538,22.822,471.809,-279.501,96.020,-5.150,4.630,3.070
176,51598.461000,251.010,-20.540,20.837,470.838,-279.515,96.018,10.850,-9.370,5.070
177,51598.509000,251.010,-19.538,21.829,470.795,-282.378,94.955,1.850,6.630,8.070
178,51598.551000,255.002,-19.538,24.806,472.687,-286.054,97.806,-13.150,29.630,21.070
179,51598.578000,257.996,-19.538,28.775,469.872,-279.476,97.985,-60.150,9.630,30.070
180,51598.620000,260.990,-24.548,27.783,470.697,-289.024,93.786,-113.150,4.630,47.070
181,51598.660000,259.992,-23.546,33.736,467.840,-285.283,93.885,-255.150,86.630,42.070
182,51598.698000,256.998,-26.552,36.713,468.718,-291.836,95.672,-306.150,170.630,-43.930
183,51598.719000,236.039,-45.589,32.744,469.864,-279.581,94.047,-275.150,182.630,-236.930
184,51598.758000,221.068,-60.618,50.605,473.707,-282.337,94.961,-127.150,147.630,-280.930
185,51598.798000,240.031,-59.616,56.558,477.794,-268.124,94.379,83.850,89.630,-328.930
186,51598.838000,272.967,-57.613,70.450,481.779,-262.132,104.389,356.850,243.630,-306.930
187,51598.878000,270.971,-42.583,35.721,480.943,-254.264,116.409,597.850,331.630,-229.930
188,51598.921000,228.055,39.577,-7.938,485.857,-251.095,126.342,847.850,-5.370,106.070
189,51598.961000,282.947,67.632,-2.977,483.076,-244.070,143.254,634.850,342.630,-26.930
190,51598.989000,265.980,28.556,-23.814,487.870,-247.836,141.190,-122.150,-63.370,-265.930
191,51599.21000,246.020,13.526,40.682,492.911,-233.820,132.736,-635.150,126.630,-532.930
192,51599.59000,244.023,16.532,57.550,498.832,-227.118,132.932,-339.150,218.630,-445.930
193,51599.97000,230.051,15.530,38.698,495.965,-224.270,134.974,351.850,-170.370,-150.930
194,51599.140000,228.055,7.515,26.791,498.999,-216.505,141.097,264.850,-1.370,-58.930
195,51599.180000,242.027,37.573,36.713,498.897,-223.204,137.959,-169.150,156.630,-38.930
196,51599.221000,274.963,33.566,52.589,501.925,-215.519,141.129,-395.150,358.630,-155.930
197,51599.261000,272.967,15.530,76.403,499.011,-216.347,147.003,-252.150,367.630,-209.930
198,51599.281000,262.986,0.501,71.442,499.133,-208.624,153.119,241.850,265.630,-86.930
199,51599.320000,265.980,2.505,55.566,496.171,-213.157,161.841,214.850,291.630,-80.930
200,51599.360000,250.012,7.515,40.682,499.284,-200.533,173.017,155.850,445.630,-278.930
201,51599.400000,201.107,39.577,79.380,494.514,-197.212,193.757,177.850,715.630,-362.930
202,51599.440000,195.119,48.595,89.302,493.762,-183.644,206.920,150.850,436.630,-202.930
203,51599.480000,204.101,42.583,86.326,491.762,-188.268,211.706,296.850,161.630,-4.930
204,51599.518000,223.064,34.568,72.434,489.927,-181.545,216.808,245.850,81.630,9.070
205,51599.558000,237.037,32.564,65.488,487.962,-183.411,218.720,100.850,160.630,31.070
206,51599.578000,214.082,57.613,92.279,485.994,-186.091,225.527,104.850,137.630,123.070
207,51599.622000,216.078,53.605,107.163,482.023,-192.660,229.272,89.850,100.630,262.070
208,51599.662000,206.097,48.595,113.116,480.180,-186.042,230.437,250.850,-15.370,341.070
209,51599.702000,205.099,33.566,88.310,478.046,-199.308,230.064,179.850,-66.370,341.070
210,51599.742000,215.080,50.599,108.155,476.083,-201.148,232.961,255.850,50.630,385.070
211,51599.790000,209.092,59.616,97.240,466.214,-212.607,233.609,114.850,-111.370,479.070
212,51599.825000,208.094,15.530,104.186,464.270,-211.899,225.757,-141.150,-230.370,578.070
213,51599.860000,209.092,4.509,112.124,460.083,-232.785,224.185,170.850,-266.370,748.070
214,51599.880000,241.029,-12.524,101.209,453.188,-239.553,222.018,163.850,-217.370,710.070
215,51599.920000,281.949,-39.577,100.217,444.283,-251.838,226.579,370.850,225.630,409.070
216,51599.960000,265.980,37.573,72.434,439.428,-252.695,232.449,-39.150,276.630,163.070
217,51600.0,380.756,-1.503,40.682,441.403,-250.697,235.459,-373.150,282.630,-145.930
218,51600.40000,338.838,-78.654,-24.806,445.153,-256.974,210.700,-810.150,-920.370,108.070
219,51600.80000,234.043,-61.620,-2.977,441.977,-274.247,202.346,-439.150,153.630,329.070
220,51600.123000,185.138,-72.642,74.419,426.399,-279.693,218.889,-61.150,874.630,378.070
221,51600.163000,162.183,-68.634,43.659,419.585,-281.576,222.760,-69.150,69.630,373.070
222,51600.178000,192.125,-50.599,31.752,421.354,-291.452,205.767,-397.150,-534.370,252.070
223,51600.222000,258.994,-47.593,32.744,422.240,-296.377,197.762,-159.150,-223.370,133.070
224,51600.262000,246.020,-52.603,14.884,420.181,-304.836,200.474,209.850,-18.370,82.070
225,51600.302000,255.002,-71.640,58.543,420.293,-297.245,201.669,105.850,32.630,-59.930
226,51600.348000,250.012,-69.636,45.643,424.211,-294.432,198.803,27.850,-351.370,-199.930
227,51600.382000,247.018,-58.614,29.767,434.015,-286.887,193.128,120.850,-134.370,-248.930
228,51600.421000,277.957,-34.568,34.729,434.108,-281.082,198.208,250.850,-4.370,-142.930
229,51600.441000,261.988,-36.571,7.938,435.104,-279.203,197.278,118.850,-91.370,-32.930
230,51600.482000,233.045,-59.616,30.760,432.116,-284.839,200.067,197.850,138.630,-79.930
231,51600.521000,226.058,-69.636,37.705,436.175,-273.279,206.297,292.850,49.630,-101.930
232,51600.560000,218.074,-61.620,19.845,439.158,-268.483,207.419,313.850,-193.370,-164.930
233,51600.602000,242.027,-43.585,52.589,441.188,-262.703,210.534,235.850,-25.370,-158.930
234,51600.642000,319.875,5.511,99.225,446.002,-265.445,211.450,275.850,21.630,-45.930
235,51600.685000,359.797,62.622,51.597,444.206,-255.149,208.782,33.850,-326.370,102.070
236,51600.720000,247.018,-39.577,99.225,444.078,-264.474,213.441,-188.150,244.630,-216.930
237,51600.752000,234.043,-56.611,123.039,450.170,-247.107,223.770,239.850,468.630,-482.930
238,51600.781000,187.135,-30.560,106.171,449.245,-244.231,225.816,227.850,-168.370,-479.930
239,51600.821000,190.129,-3.507,56.558,458.145,-232.759,226.150,198.850,-224.370,-328.930
240,51600.870000,223.064,47.593,84.341,454.315,-230.607,238.006,435.850,545.630,-77.930
241,51600.903000,261.988,71.640,71.442,459.416,-214.278,245.354,423.850,-9.370,-47.930
242,51600.944000,254.004,20.540,55.566,458.315,-222.882,242.162,-127.150,-82.370,-207.930
243,51600.981000,233.045,15.530,50.605,456.435,-218.287,238.353,-374.150,16.630,-293.930
244,51601.22000,234.043,19.538,80.372,463.266,-215.406,236.477,-131.150,43.630,-266.930
245,51601.42000,222.066,38.575,68.465,468.261,-205.828,238.719,153.850,-41.370,-128.930
246,51601.86000,213.084,37.573,62.512,466.249,-210.610,237.599,-7.150,-112.370,18.070
247,51601.121000,214.082,37.573,61.519,464.333,-208.773,236.663,-156.150,-30.370,112.070
248,51601.200000,232.047,42.583,64.496,466.993,-225.044,227.363,-472.150,-99.370,193.070
249,51601.217000,237.037,40.579,63.504,462.061,-229.973,222.299,-575.150,-103.370,290.070
250,51601.240000,229.053,29.558,47.628,458.801,-252.185,205.938,-689.150,-193.370,381.070
251,51601.296000,228.055,37.573,94.264,453.896,-255.222,200.928,-652.150,31.630,443.070
252,51601.321000,266.979,-14.528,92.279,447.832,-270.698,190.651,-470.150,-351.370,374.070
253,51601.340000,299.914,-64.626,79.380,445.818,-274.745,181.682,-380.150,12.630,49.070
254,51601.381000,236.039,-13.526,91.287,444.727,-283.217,183.412,-571.150,303.630,-168.930
255,51601.424000,236.039,17.534,91.287,443.823,-277.767,175.693,-787.150,309.630,-211.930
256,51601.471000,222.066,-4.509,78.388,443.737,-283.494,173.567,-890.150,119.630,-92.930
257,51601.513000,258.994,-65.628,63.504,436.816,-291.366,165.467,-721.150,449.630,78.070
258,51601.541000,268.975,-108.712,81.364,433.798,-298.919,167.219,-313.150,418.630,105.070
259,51601.581000,221.068,-84.665,82.357,430.915,-297.043,168.250,14.850,-20.370,43.070
260,51601.609000,209.092,-62.622,69.457,428.858,-305.476,171.947,129.850,-65.370,4.070
261,51601.644000,192.125,-43.585,79.380,430.914,-297.831,174.130,152.850,30.630,-7.930
262,51601.682000,213.084,-37.573,98.233,431.973,-292.064,177.243,149.850,-86.370,-6.930
263,51601.723000,289.934,-8.517,94.264,428.943,-300.537,179.953,73.850,130.630,138.070
264,51601.762000,256.998,19.538,82.357,425.055,-301.432,183.856,-191.150,217.630,304.070
265,51601.812000,211.088,-14.528,110.140,414.173,-314.981,177.559,-350.150,227.630,268.070
266,51601.843000,243.025,-40.579,94.264,412.220,-315.927,178.513,-493.150,260.630,116.070
267,51601.882000,250.012,-62.622,69.457,412.043,-327.433,172.291,-567.150,237.630,87.070
268,51601.912000,224.062,-66.630,91.287,402.248,-334.085,176.024,-409.150,512.630,63.070
269,51601.948000,209.092,-71.640,119.070,399.413,-329.292,180.087,-73.150,387.630,19.070
270,51601.982000,196.117,-74.646,90.295,399.372,-332.129,180.008,-183.150,15.630,-21.930
271,51602.22000,201.107,-74.646,92.279,400.236,-338.866,174.904,-155.150,78.630,-39.930
272,51602.72000,200.109,-69.636,105.178,400.346,-332.063,181.979,-12.150,211.630,-16.930
273,51602.111000,209.092,-53.605,107.163,399.323,-335.833,182.856,95.850,66.630,64.070
274,51602.141000,217.076,-54.607,123.039,398.457,-329.122,186.975,197.850,93.630,44.070
275,51602.208000,223.064,-69.636,119.070,398.474,-328.123,188.970,72.850,-40.370,-63.930
276,51602.218000,213.084,-60.618,116.093,403.416,-321.541,185.227,92.850,-184.370,-170.930
277,51602.242000,188.133,-50.599,105.178,410.118,-328.011,187.026,83.850,-242.370,-177.930
278,51602.281000,192.125,-46.591,124.031,413.126,-321.350,187.216,174.850,-18.370,-162.930
279,51602.323000,182.144,-48.595,128.000,418.160,-308.962,188.553,351.850,-312.370,-229.930
280,51602.363000,205.099,-47.593,129.984,427.028,-299.461,185.881,310.850,-304.370,-327.930
281,51602.401000,207.096,-34.568,143.876,434.913,-290.893,184.166,303.850,-312.370,-287.930
282,51602.441000,249.014,-12.524,111.132,438.945,-280.462,183.479,469.850,-405.370,29.070
283,51602.491000,264.982,22.544,80.372,442.717,-287.211,176.412,529.850,-645.370,393.070
284,51602.503000,300.912,3.507,25.798,441.772,-285.360,175.479,860.850,-659.370,278.070
285,51602.544000,328.858,-52.603,11.907,448.623,-281.455,176.582,577.850,-145.370,2.070
286,51602.582000,360.795,-63.624,0.000,452.639,-271.996,174.885,78.850,-69.370,-405.930
287,51602.622000,245.021,-15.530,23.814,458.637,-261.222,186.014,80.850,492.630,-533.930
288,51602.662000,204.101,42.583,49.612,460.846,-243.910,196.336,726.850,96.630,-493.930
289,51602.701000,193.123,49.597,61.519,470.784,-228.484,202.683,697.850,-148.370,-424.930
290,51602.745000,219.072,37.573,23.814,474.771,-220.943,199.949,167.850,-410.370,-250.930
291,51602.786000,242.027,20.540,23.814,477.696,-219.195,193.117,-126.150,-119.370,-86.930
292,51602.801000,232.047,6.513,12.899,479.612,-220.271,187.189,-200.150,-226.370,56.070
293,51602.848000,240.031,14.528,37.705,479.586,-222.136,188.121,42.850,40.630,201.070
294,51602.883000,252.008,-3.507,39.690,475.515,-234.616,182.848,-118.150,-108.370,208.070
295,51602.921000,258.994,-4.509,39.690,475.552,-231.832,180.959,45.850,-175.370,102.070
296,51602.961000,276.959,-5.511,18.853,476.460,-235.706,176.918,28.850,-286.370,-60.930
297,51603.1000,255.002,9.519,17.860,484.293,-230.106,170.202,-56.150,-167.370,-117.930
298,51603.46000,253.006,30.560,29.767,481.391,-229.255,168.253,-180.150,-89.370,-20.930
299,51603.61000,279.953,20.540,3.969,483.356,-227.388,166.341,29.850,-154.370,25.070
300,51603.105000,259.992,24.548,21.829,478.483,-229.243,170.216,-68.150,252.630,41.070
301,51603.143000,241.029,15.530,12.899,474.502,-235.944,169.039,-364.150,32.630,76.070
302,51603.185000,227.057,6.513,8.930,473.426,-243.470,170.795,-174.150,91.630,99.070
303,51603.222000,246.020,-2.505,25.798,472.512,-239.675,171.883,-174.150,318.630,125.070
304,51603.265000,290.932,0.501,88.310,465.626,-247.099,180.517,37.850,436.630,47.070
305,51603.305000,352.811,-63.624,72.434,464.742,-242.148,189.506,-127.150,447.630,-185.930
306,51603.356000,308.897,-63.624,107.163,462.724,-248.532,199.161,-107.150,415.630,-273.930
307,51603.365000,216.078,42.583,121.054,459.942,-239.983,202.345,-287.150,469.630,-6.930
308,51603.403000,187.135,30.560,120.062,454.863,-256.022,205.825,-252.150,116.630,307.070
309,51603.445000,190.129,-2.505,97.240,445.005,-266.562,205.515,-184.150,16.630,387.070
310,51603.485000,233.045,-48.595,92.279,439.091,-273.185,208.272,-332.150,435.630,223.070
311,51603.525000,250.012,-82.661,100.217,430.346,-274.202,210.196,-332.150,406.630,45.070
312,51603.565000,223.064,-53.605,125.023,429.290,-279.915,209.052,-233.150,5.630,-7.930
313,51603.603000,210.090,-39.577,96.248,430.326,-275.226,207.217,74.850,-26.370,132.070
314,51603.658000,228.055,-43.585,103.194,426.373,-280.797,212.957,222.850,209.630,165.070
315,51603.663000,227.057,-48.595,94.264,420.579,-279.723,220.846,120.850,90.630,92.070
316,51603.711000,205.099,-50.599,97.240,424.450,-280.588,221.812,21.850,11.630,-44.930
317,51603.745000,191.127,-51.601,105.178,420.610,-277.779,222.867,166.850,-55.370,-177.930
318,51603.791000,180.148,-42.583,122.047,431.408,-269.931,228.022,472.850,-119.370,-169.930
319,51603.825000,190.129,-25.550,117.085,436.408,-260.275,233.217,641.850,-260.370,-157.930
320,51603.865000,236.039,-42.583,154.791,439.423,-253.535,236.360,867.850,10.630,-243.930
321,51603.905000,288.936,9.519,121.054,438.614,-243.777,248.433,1033.850,-138.370,-4.930
322,51603.952000,238.035,-9.519,102.202,439.879,-224.587,258.805,887.850,-190.370,90.070
323,51603.966000,225.060,-17.534,103.194,437.123,-215.696,274.786,1215.850,272.630,115.070
324,51604.6000,212.086,4.509,98.233,433.482,-201.880,298.771,1451.850,294.630,110.070
325,51604.46000,224.062,65.628,81.364,434.588,-193.198,304.916,1091.850,24.630,175.070
326,51604.82000,240.031,118.732,75.411,430.993,-174.944,318.204,954.850,-22.370,131.070
327,51604.122000,227.057,84.665,80.372,431.905,-178.765,316.132,227.850,-160.370,25.070
328,51604.165000,219.072,59.616,84.341,433.895,-175.034,313.288,-69.150,-133.370,-50.930
329,51604.205000,229.053,54.607,77.395,440.754,-170.262,311.466,-16.150,-184.370,-150.930
330,51604.245000,224.062,39.577,76.403,444.662,-168.343,310.542,-97.150,-34.370,-177.930
331,51604.262000,202.105,54.607,101.209,442.687,-170.340,307.532,-79.150,22.630,-106.930
332,51604.303000,212.086,59.616,109.147,443.699,-167.490,307.613,-190.150,-67.370,29.070
333,51604.343000,223.064,65.628,101.209,447.487,-173.266,301.557,-338.150,-158.370,96.070
334,51604.391000,230.051,39.577,111.132,445.497,-176.236,297.537,-457.150,-8.370,88.070
335,51604.432000,220.070,16.532,100.217,450.202,-184.994,285.498,-200.150,-309.370,82.070
336,51604.466000,224.062,14.528,101.209,449.180,-187.976,280.495,-189.150,-136.370,105.070
337,51604.510000,195.119,28.556,89.302,449.009,-199.403,277.226,-123.150,-113.370,149.070
338,51604.525000,178.152,50.599,101.209,451.986,-194.686,275.395,-35.150,-116.370,301.070
339,51604.565000,205.099,42.583,107.163,444.081,-204.279,274.131,-262.150,66.630,471.070
340,51604.608000,256.998,37.573,104.186,439.992,-217.757,266.864,-206.150,-222.370,442.070
341,51604.648000,280.951,20.540,90.295,440.768,-230.247,258.649,-271.150,-204.370,252.070
342,51604.687000,294.924,-50.599,45.643,444.662,-228.511,250.835,-316.150,-352.370,-98.930
343,51604.727000,248.016,-59.616,48.620,452.464,-224.856,242.098,68.850,-271.370,-36.930
344,51604.772000,238.035,-1.503,70.450,446.645,-224.098,238.175,-31.150,-48.370,92.070
345,51604.806000,294.924,-39.577,49.612,447.551,-228.760,240.014,216.850,10.630,-30.930
346,51604.825000,286.940,-17.534,12.899,451.467,-225.212,229.299,-50.150,-456.370,19.070
347,51604.865000,246.020,-8.517,44.651,455.334,-226.129,228.297,-284.150,-48.370,-58.930
348,51604.903000,254.004,-35.569,62.512,454.283,-231.790,229.121,141.850,69.630,34.070
349,51604.960000,229.053,-36.571,38.698,453.414,-225.105,232.256,201.850,-165.370,174.070
350,51605.1000,233.045,-35.569,37.705,452.408,-227.116,228.264,109.850,-207.370,94.070
351,51605.23000,272.967,-5.511,77.395,453.316,-231.751,231.088,56.850,181.630,-26.930
352,51605.65000,286.940,32.564,57.550,449.512,-226.185,229.269,-86.150,-234.370,1.070
353,51605.103000,277.957,38.575,0.992,455.233,-232.039,219.280,-514.150,-88.370,35.070
354,51605.127000,257.996,-27.554,23.814,451.254,-238.714,219.087,-440.150,148.630,181.070
355,51605.171000,252.008,-56.611,22.822,444.346,-246.428,216.894,-225.150,71.630,285.070
356,51605.206000,242.027,-80.658,33.736,440.143,-269.046,221.176,-179.150,198.630,344.070
357,51605.245000,225.060,-58.614,40.682,438.351,-258.698,220.477,-72.150,23.630,206.070
358,51605.286000,225.060,-38.575,35.721,433.443,-262.549,220.361,7.850,-58.370,41.070
359,51605.326000,236.039,-45.589,29.767,437.386,-258.633,223.428,138.850,8.630,-92.930
360,51605.370000,248.016,-36.571,31.752,435.451,-258.581,226.377,128.850,141.630,-82.930
361,51605.405000,257.996,-25.550,45.643,438.465,-251.842,229.520,112.850,144.630,-119.930
362,51605.433000,258.994,-36.571,39.690,433.555,-256.481,235.285,175.850,86.630,-135.930
363,51605.463000,246.020,-51.601,49.612,440.521,-244.958,238.568,79.850,94.630,-148.930
364,51605.506000,254.004,-48.595,45.643,439.497,-248.728,239.445,-27.150,134.630,-28.930
365,51605.545000,273.965,-32.564,79.380,436.497,-255.283,243.192,36.850,244.630,4.070
366,51605.586000,302.908,-12.524,91.287,432.704,-251.108,260.023,413.850,343.630,-17.930
367,51605.627000,276.959,-16.532,89.302,430.932,-239.735,262.303,185.850,189.630,-218.930
368,51605.668000,238.035,-20.540,98.233,434.995,-228.122,270.502,228.850,287.630,-463.930
369,51605.712000,209.092,-1.503,88.310,436.147,-216.550,278.695,210.850,14.630,-506.930
370,51605.725000,194.121,21.542,85.333,440.134,-209.771,282.825,423.850,57.630,-384.930
371,51605.766000,185.138,62.622,107.163,436.431,-199.055,296.887,638.850,454.630,-122.930
372,51605.806000,215.080,79.656,107.163,430.814,-186.476,310.998,480.850,261.630,5.070
373,51605.847000,239.033,56.611,79.380,433.786,-181.812,307.198,109.850,-150.370,-128.930
374,51605.888000,236.039,36.571,81.364,436.632,-186.472,308.057,-273.150,66.630,-261.930
375,51605.928000,236.039,31.562,82.357,438.612,-182.873,300.291,-264.150,-54.370,-262.930
376,51605.966000,226.058,38.575,86.326,441.507,-184.591,305.167,92.850,53.630,-97.930
377,51605.985000,213.084,53.605,88.310,435.769,-178.947,307.281,214.850,110.630,61.070
378,51606.26000,207.096,59.616,86.326,436.728,-179.853,308.241,-45.150,67.630,175.070
379,51606.75000,192.125,50.599,73.426,434.617,-190.519,299.088,-531.150,-215.370,299.070
380,51606.113000,203.103,67.632,101.209,431.418,-209.631,292.650,-690.150,76.630,376.070
381,51606.147000,217.076,30.560,86.326,427.250,-227.969,280.329,-957.150,-242.370,428.070
382,51606.187000,231.049,39.577,88.310,425.925,-250.994,267.883,-844.150,-274.370,500.070
383,51606.236000,272.967,35.569,141.891,413.984,-270.308,258.474,-1092.150,307.630,347.070
384,51606.268000,324.866,-46.591,101.209,410.944,-277.390,242.534,-1051.150,59.630,-125.930
385,51606.295000,223.064,-26.552,73.426,416.567,-289.129,224.512,-1347.150,26.630,-560.930
386,51606.326000,204.101,-25.550,128.000,421.427,-287.433,214.731,-1621.150,479.630,-593.930
387,51606.366000,225.060,-28.556,122.047,420.354,-292.622,197.864,-1315.150,135.630,-275.930
388,51606.405000,245.021,-84.665,76.403,421.131,-305.086,190.633,-448.150,64.630,238.070
389,51606.446000,222.066,-122.740,80.372,409.334,-315.626,191.304,-82.150,298.630,379.070
390,51606.486000,195.119,-93.683,105.178,407.454,-311.792,194.358,45.850,157.630,225.070
391,51606.527000,204.101,-73.644,97.240,404.449,-317.639,189.272,-217.150,-215.370,69.070
392,51606.567000,216.078,-47.593,93.271,407.322,-319.647,183.319,-148.150,-220.370,65.070
393,51606.586000,248.016,-26.552,119.070,405.271,-327.240,183.105,40.850,142.630,165.070
394,51606.626000,249.014,-9.519,133.953,397.543,-325.327,188.063,-91.150,175.630,248.070
395,51606.676000,218.074,-20.540,111.132,393.416,-341.589,182.686,-305.150,122.630,252.070
396,51606.707000,198.113,-32.564,90.295,386.543,-346.545,177.618,-586.150,9.630,135.070
397,51606.746000,211.088,-70.638,93.271,387.484,-347.688,169.719,-580.150,294.630,23.070
398,51606.786000,221.068,-88.673,93.271,386.515,-347.675,170.702,-358.150,211.630,-11.930
399,51606.831000,227.057,-108.712,105.178,383.564,-350.527,171.601,-49.150,192.630,36.070
400,51606.866000,193.123,-111.718,115.101,383.625,-346.665,174.659,93.850,17.630,79.070
401,51606.885000,197.115,-72.642,103.194,383.584,-349.502,174.580,311.850,-140.370,26.070
402,51606.927000,211.088,-63.624,103.194,387.537,-344.693,175.704,118.850,-122.370,-16.930
403,51606.966000,214.082,-49.597,93.271,390.396,-348.408,176.589,240.850,-95.370,8.070
404,51607.15000,210.090,-72.642,125.023,387.571,-343.484,185.574,328.850,121.630,6.070
405,51607.46000,194.121,-73.644,144.868,391.539,-338.490,193.588,333.850,-28.370,-81.930
406,51607.88000,194.121,-56.611,123.039,398.398,-333.718,191.766,361.850,-309.370,-143.930
407,51607.126000,175.158,-43.585,124.031,403.381,-325.060,194.966,445.850,-298.370,-283.930
408,51607.167000,217.076,-35.569,125.023,410.270,-318.371,194.180,448.850,-154.370,-369.930
409,51607.186000,176.156,-28.556,125.023,424.215,-294.379,200.772,559.850,-268.370,-503.930
410,51607.246000,180.148,-36.571,115.101,439.700,-296.287,191.893,248.850,-500.370,-355.930
411,51607.266000,244.023,-22.544,137.922,438.039,-277.323,195.368,483.850,-16.370,-235.930
412,51607.308000,256.000,16.532,95.256,443.822,-279.316,188.437,154.850,-676.370,268.070
413,51607.346000,264.982,13.526,41.674,444.715,-282.613,170.642,49.850,-709.370,255.070
414,51607.386000,269.973,-3.507,40.682,445.526,-292.346,159.553,-169.150,-433.370,211.070
415,51607.437000,269.973,-32.564,37.705,448.486,-287.839,149.847,-216.150,-421.370,58.070
416,51607.450000,289.934,-69.636,4.961,455.216,-291.657,144.834,73.850,-433.370,19.070
417,51607.486000,306.901,-53.605,33.736,456.291,-284.158,142.094,448.850,-179.370,12.070
418,51607.535000,277.957,-16.532,-46.636,463.085,-283.300,135.244,195.850,-717.370,-176.930
419,51607.571000,255.002,37.573,-15.876,471.948,-273.852,130.604,48.850,-153.370,-298.930
420,51607.606000,204.101,31.562,13.891,471.034,-269.295,124.827,-124.150,-156.370,-211.930
421,51607.646000,188.133,22.544,19.845,471.065,-266.590,119.984,-53.150,-229.370,-6.930
422,51607.686000,217.076,-5.511,27.783,473.867,-273.352,112.916,-72.150,-315.370,218.070
423,51607.732000,274.963,-62.622,21.829,470.949,-273.472,109.957,244.850,-262.370,164.070
424,51607.746000,285.942,-51.601,-1.984,472.815,-278.252,106.876,190.850,-302.370,130.070
425,51607.786000,285.942,-6.513,-10.915,475.753,-276.346,105.950,46.850,-137.370,2.070
426,51607.828000,267.977,39.577,-27.783,474.813,-273.654,101.106,-112.150,-77.370,-29.930
427,51607.866000,261.988,24.548,-4.961,470.949,-272.711,103.093,-156.150,323.630,-102.930
428,51607.910000,234.043,-9.519,16.868,472.841,-276.387,105.944,-228.150,211.630,-99.930
429,51607.946000,238.035,-18.536,3.969,469.908,-278.241,108.839,-204.150,12.630,-53.930
430,51607.986000,259.992,-25.550,-8.930,473.870,-271.777,101.156,-315.150,27.630,-66.930
431,51608.26000,264.982,-6.513,-11.907,474.796,-275.414,105.975,-123.150,286.630,-83.930
432,51608.47000,265.980,-2.505,-9.922,469.027,-272.475,112.932,-118.150,346.630,24.070
433,51608.90000,267.977,-3.507,6.946,465.037,-280.830,120.562,-25.150,451.630,28.070
434,51608.137000,291.930,-26.552,52.589,465.175,-272.897,134.553,-3.150,745.630,-196.930
435,51608.170000,285.942,-91.679,70.450,469.061,-274.338,149.274,144.850,515.630,-459.930
436,51608.207000,253.006,-17.534,121.054,467.399,-256.923,165.493,-212.150,778.630,-326.930
437,51608.250000,236.039,50.599,122.047,460.501,-264.505,168.221,-351.150,459.630,39.070
438,51608.290000,194.121,34.568,80.372,457.577,-265.466,169.173,-109.150,-21.370,247.070
439,51608.330000,202.105,-42.583,90.295,446.644,-283.505,171.604,-250.150,215.630,336.070
440,51608.348000,230.051,-86.669,83.349,439.913,-280.475,182.497,-60.150,698.630,211.070
441,51608.391000,223.064,-97.691,105.178,432.981,-290.028,182.219,-367.150,303.630,67.070
442,51608.428000,210.090,-55.609,114.109,432.948,-292.759,186.078,-183.150,95.630,-8.930
443,51608.471000,203.103,-32.564,99.225,432.950,-292.733,187.062,164.850,18.630,109.070
444,51608.511000,197.115,-36.571,88.310,428.057,-295.612,187.957,191.850,-112.370,215.070
445,51608.548000,218.074,-38.575,82.357,428.908,-304.056,189.691,80.850,-1.370,156.070
446,51608.591000,216.078,-47.593,78.388,429.983,-296.557,186.951,42.850,-201.370,19.070
447,51608.630000,215.080,-62.622,95.256,431.897,-298.420,186.902,148.850,-81.370,-170.930
448,51608.650000,205.099,-60.618,94.264,437.890,-286.938,189.199,531.850,-289.370,-192.930
449,51608.688000,218.074,-94.685,141.891,438.998,-278.229,196.328,922.850,-197.370,-110.930
450,51608.731000,269.973,-18.536,134.946,446.951,-266.482,207.488,1124.850,-283.370,-22.930
451,51608.781000,292.928,15.530,83.349,447.010,-262.647,209.562,912.850,-470.370,-8.930
452,51608.807000,275.961,36.571,103.194,449.234,-244.362,220.894,1100.850,173.630,-85.930
453,51608.850000,216.078,16.532,68.465,449.381,-236.323,238.823,1053.850,121.630,-63.930
454,51608.906000,226.058,15.530,80.372,448.631,-222.730,252.970,882.850,182.630,-61.930
455,51608.931000,210.090,33.566,53.581,447.772,-215.914,261.027,670.850,-4.370,-175.930
456,51608.947000,210.090,54.607,52.589,455.754,-200.726,259.496,325.850,-204.370,-285.930
457,51608.991000,216.078,84.665,77.395,458.744,-195.825,264.555,270.850,12.630,-207.930
458,51609.27000,218.074,78.654,85.333,464.511,-199.551,263.478,22.850,-238.370,-23.930
459,51609.82000,253.006,48.595,78.388,462.605,-196.821,260.600,61.850,-4.370,2.070
460,51609.108000,253.006,8.517,99.225,458.772,-193.934,264.608,-62.150,245.630,-64.930
461,51609.148000,245.021,-6.513,90.295,460.871,-183.425,267.854,92.850,194.630,-180.930
462,51609.187000,228.055,22.544,110.140,455.017,-186.187,273.669,142.850,192.630,-94.930
463,51609.232000,222.066,27.554,79.380,459.985,-178.500,275.859,184.850,27.630,-75.930
464,51609.247000,220.070,40.579,85.333,461.056,-171.814,278.014,237.850,71.630,-98.930
465,51609.287000,217.076,55.609,94.264,460.095,-171.697,282.934,142.850,87.630,-41.930
466,51609.327000,213.084,54.607,83.349,460.119,-169.858,281.018,92.850,-71.370,56.070
467,51609.372000,210.090,53.605,82.357,461.056,-171.814,278.014,-72.150,-119.370,86.070
468,51609.407000,210.090,59.616,89.302,462.940,-175.596,276.928,-178.150,-96.370,89.070
469,51609.451000,217.076,53.605,92.279,460.938,-179.485,273.866,-181.150,-83.370,148.070
470,51609.490000,217.076,53.605,94.264,458.858,-188.207,266.734,-274.150,-162.370,265.070
471,51609.510000,208.094,35.569,93.271,457.732,-197.914,257.610,-246.150,-160.370,318.070
472,51609.550000,205.099,51.601,102.202,457.630,-204.613,254.473,-351.150,-120.370,411.070
473,51609.590000,200.109,19.538,114.109,453.468,-222.872,245.105,-457.150,-77.370,509.070
474,51609.643000,204.101,32.564,98.233,448.314,-242.957,238.636,-400.150,-218.370,539.070
475,51609.672000,284.943,-32.564,133.953,438.490,-251.526,241.332,-497.150,496.630,371.070
476,51609.713000,284.943,-54.607,82.357,442.504,-242.855,245.515,220.850,-94.370,-166.930
477,51609.750000,265.980,-43.585,64.496,442.549,-238.443,233.834,-525.150,-396.370,-218.930
478,51609.788000,313.887,-16.532,63.504,449.363,-236.560,229.964,-36.150,247.630,-271.930
479,51609.811000,320.873,-1.503,51.597,448.445,-232.818,229.083,126.850,-234.370,-70.930
480,51609.850000,284.943,15.530,7.938,453.095,-245.358,216.938,-372.150,-322.370,116.070
481,51609.893000,256.998,-7.515,28.775,445.261,-250.197,216.791,-648.150,356.630,187.070
482,51609.928000,228.055,-41.581,56.558,438.345,-258.777,217.524,-552.150,352.630,264.070
483,51609.977000,237.037,-59.616,33.736,431.368,-271.219,215.199,-386.150,177.630,343.070
484,51610.11000,223.064,-65.628,49.612,426.396,-278.958,211.041,-489.150,151.630,227.070
485,51610.58000,222.066,-56.611,59.535,424.315,-288.469,209.789,-102.150,-68.370,161.070
486,51610.91000,225.060,-40.579,43.659,427.320,-281.861,208.011,166.850,-161.370,131.070
487,51610.120000,231.049,-38.575,38.698,425.365,-282.834,207.980,41.850,-71.370,40.070
488,51610.148000,237.037,-38.575,33.736,429.235,-282.937,202.082,-214.150,-104.370,-81.930
489,51610.190000,244.023,-43.585,53.581,424.362,-284.030,199.093,-133.150,28.630,-80.930
490,51610.230000,242.027,-56.611,44.651,431.208,-280.204,197.244,-3.150,-140.370,11.070
491,51610.273000,238.035,-67.632,36.713,427.234,-286.038,193.140,117.850,-207.370,-44.930
492,51610.313000,232.047,-93.683,48.620,437.022,-281.014,199.198,328.850,-34.370,-224.930
493,51610.351000,223.064,-68.634,26.791,444.007,-267.706,198.596,477.850,-263.370,-372.930
494,51610.391000,267.977,7.515,62.512,449.998,-256.249,199.909,350.850,29.630,-271.930
495,51610.411000,331.852,71.640,3.969,452.813,-262.066,192.866,-112.150,-594.370,20.070
496,51610.451000,293.926,-41.581,19.845,451.945,-255.381,196.002,-92.150,245.630,87.070
497,51610.490000,230.051,-82.661,41.674,444.009,-268.441,206.445,27.850,677.630,121.070
498,51610.528000,219.072,-50.599,74.419,441.209,-260.890,207.634,-197.150,167.630,32.070
499,51610.568000,233.045,-42.583,95.256,440.180,-265.501,212.422,81.850,102.630,-28.930
500,51610.608000,278.955,-1.503,79.380,440.259,-260.641,217.475,432.850,-147.370,103.070
501,51610.655000,289.934,-3.507,89.302,440.208,-264.371,219.339,333.850,-71.370,106.070
502,51610.692000,275.961,-38.575,106.171,436.520,-252.683,234.412,370.850,382.630,-159.930
503,51610.712000,233.045,-54.607,99.225,441.512,-243.920,241.549,853.850,124.630,-398.930
504,51610.748000,179.150,9.519,89.302,447.635,-225.370,260.764,842.850,198.630,-350.930
505,51610.792000,200.109,68.634,97.240,446.741,-221.311,271.695,556.850,194.630,-168.930
506,51610.832000,249.014,90.677,59.535,445.897,-212.788,272.914,475.850,-205.370,-147.930
507,51610.873000,239.033,60.618,79.380,447.036,-201.374,275.201,10.850,117.630,-174.930
508,51610.912000,226.058,24.548,77.395,445.107,-200.482,274.239,-188.150,-66.370,-210.930
509,51610.953000,219.072,34.568,81.364,450.968,-197.616,272.361,-136.150,26.630,-201.930
510,51610.993000,208.094,51.601,91.287,449.987,-198.522,274.302,-59.150,63.630,-74.930
511,51611.13000,202.105,54.607,69.457,451.901,-200.386,274.253,-153.150,-134.370,62.070
512,51611.70000,197.115,54.607,70.450,450.781,-210.014,268.082,-449.150,-18.370,224.070
513,51611.91000,208.094,40.579,59.535,448.655,-221.653,257.918,-814.150,-157.370,279.070
514,51611.130000,209.092,30.560,55.566,446.461,-236.470,234.879,-1013.150,-341.370,274.070
515,51611.177000,223.064,41.581,70.450,445.124,-259.653,216.527,-1154.150,-161.370,319.070
516,51611.211000,281.949,21.542,121.054,441.097,-268.482,206.439,-1118.150,31.630,213.070
517,51611.251000,328.858,-39.577,80.372,441.843,-282.128,190.323,-1081.150,-97.370,-204.930
518,51611.270000,274.963,-75.648,91.287,441.807,-283.363,179.469,-1097.150,569.630,-504.930
519,51611.311000,211.088,-20.540,119.070,447.650,-280.734,168.732,-1298.150,376.630,-473.930
520,51611.351000,216.078,-1.503,89.302,444.587,-290.415,161.572,-999.150,368.630,-41.930
521,51611.400000,251.010,-25.550,113.116,435.833,-292.299,166.423,-759.150,757.630,166.070
522,51611.433000,230.051,-76.650,78.388,426.856,-308.604,162.020,-700.150,356.630,210.070
523,51611.470000,210.090,-109.714,101.209,425.820,-312.531,156.991,-571.150,285.630,82.070
524,51611.518000,212.086,-69.636,110.140,424.781,-317.273,156.857,-483.150,252.630,33.070
525,51611.553000,211.088,-54.607,78.388,422.837,-316.566,149.005,-281.150,-25.370,138.070
526,51611.571000,210.090,-41.581,81.364,414.915,-327.918,152.610,-118.150,246.630,193.070
527,51611.611000,218.074,-42.583,110.140,411.009,-329.812,154.518,-164.150,207.630,162.070
528,51611.651000,231.049,-57.613,117.085,405.071,-337.512,152.327,-259.150,87.630,120.070
529,51611.692000,216.078,-71.640,102.202,404.153,-333.770,151.446,-134.150,101.630,85.070
530,51611.732000,208.094,-48.595,94.264,402.072,-343.280,150.194,-100.150,92.630,17.070
531,51611.772000,222.066,-50.599,128.000,399.252,-336.754,148.404,-182.150,166.630,-25.930
532,51611.812000,224.062,-44.587,86.326,402.989,-346.261,144.211,-137.150,-177.370,-65.930
533,51611.852000,234.043,-53.605,104.186,405.059,-337.670,146.421,-222.150,297.630,-138.930
534,51611.880000,208.094,-58.614,105.178,408.980,-334.804,145.523,-317.150,98.630,-255.930
535,51611.913000,202.105,-59.616,102.202,410.006,-330.247,138.767,-202.150,-9.370,-255.930
536,51611.953000,207.096,-72.642,97.240,418.787,-327.233,140.833,-78.150,-115.370,-240.930
537,51611.993000,221.068,-65.628,83.349,416.891,-323.610,136.012,271.850,-304.370,-140.930
538,51612.40000,215.080,-57.613,78.388,424.750,-316.907,135.228,478.850,-364.370,-230.930
539,51612.73000,201.107,-65.628,95.256,430.725,-306.423,135.530,545.850,-432.370,-321.930
540,51612.110000,259.992,-40.579,101.209,442.544,-294.831,138.823,689.850,-351.370,-254.930
541,51612.150000,293.926,-3.507,99.225,440.753,-286.006,151.852,915.850,-42.370,-36.930
542,51612.170000,251.010,21.542,63.504,442.645,-289.682,154.704,529.850,-354.370,193.070
543,51612.210000,231.049,18.536,90.295,441.517,-300.176,151.459,174.850,-208.370,199.070
544,51612.255000,237.037,14.528,104.186,437.656,-299.180,155.415,-178.150,295.630,271.070
545,51612.295000,238.035,27.554,106.171,422.916,-311.706,154.058,-464.150,273.630,388.070
546,51612.332000,219.072,-17.534,117.085,422.849,-316.408,154.911,-746.150,558.630,340.070
547,51612.372000,222.066,-72.642,106.171,410.969,-331.100,141.695,-868.150,156.630,162.070
548,51612.413000,218.074,-87.671,107.163,407.017,-335.121,134.692,-655.150,184.630,104.070
549,51612.452000,217.076,-93.683,95.256,403.009,-343.713,133.462,-360.150,419.630,79.070
550,51612.471000,205.099,-75.648,110.140,405.938,-342.674,135.463,-202.150,280.630,56.070
551,51612.512000,202.105,-64.626,109.147,402.075,-341.704,138.435,-121.150,208.630,96.070
552,51612.553000,217.076,-59.616,100.217,401.018,-347.445,136.306,-179.150,-62.370,191.070
553,51612.595000,209.092,-73.644,82.357,395.092,-354.225,133.157,-75.150,-71.370,233.070
554,51612.652000,200.109,-87.671,99.225,391.147,-358.930,135.970,203.850,233.630,206.070
555,51612.673000,211.088,-93.683,135.938,391.167,-358.666,145.813,179.850,273.630,143.070
556,51612.711000,210.090,-105.706,137.922,387.393,-351.944,151.896,239.850,-96.370,45.070
557,51612.732000,183.142,-74.646,112.124,391.281,-351.810,154.857,364.850,-218.370,44.070
558,51612.775000,196.117,-47.593,129.984,388.354,-353.585,160.704,443.850,-6.370,76.070
559,51612.816000,185.138,-58.614,122.047,388.342,-355.265,168.526,375.850,-92.370,-9.930
560,51612.865000,195.119,-55.609,109.147,393.322,-346.659,169.758,213.850,-207.370,-87.930
561,51612.892000,208.094,-59.616,132.961,398.159,-347.563,168.757,26.850,67.630,-300.930
562,51612.932000,180.148,-61.620,155.783,403.179,-336.120,170.067,68.850,-108.370,-357.930
563,51612.972000,168.172,-14.528,141.891,415.988,-322.729,169.478,136.850,-311.370,-489.930
564,51613.11000,167.173,-30.560,136.930,428.748,-311.518,158.008,-227.150,-498.370,-582.930
565,51613.35000,217.076,-29.558,115.101,440.572,-297.564,143.662,-47.150,-505.370,-609.930
566,51613.75000,286.940,-67.632,106.171,447.511,-287.145,141.012,247.850,-196.370,-103.930
567,51613.115000,333.848,12.524,10.915,451.087,-306.423,124.744,544.850,-1335.370,629.070
568,51613.155000,273.965,-19.538,-50.605,446.178,-308.752,110.901,391.850,-1400.370,599.070
569,51613.195000,260.990,-19.538,0.000,443.204,-311.893,100.972,-143.150,-128.370,270.070
570,51613.233000,261.988,-7.515,57.550,443.132,-316.674,98.872,-424.150,298.630,40.070
571,51613.280000,267.977,-13.526,25.798,446.061,-314.112,87.145,-265.150,-207.370,-72.930
572,51613.312000,238.035,4.509,46.636,445.065,-315.991,88.075,229.850,-347.370,53.070
573,51613.333000,262.986,-21.542,23.814,448.943,-315.227,79.250,-14.150,-605.370,35.070
574,51613.371000,265.980,-47.593,-0.992,448.826,-321.348,62.358,-306.150,-408.370,-160.930
575,51613.415000,277.957,-40.579,1.984,451.891,-310.117,56.774,-505.150,159.630,-293.930
576,51613.455000,260.990,-28.556,29.767,458.717,-308.077,58.809,-94.150,121.630,-239.930
577,51613.495000,243.025,-8.517,31.752,455.866,-304.257,61.862,183.850,-31.370,-140.930
578,51613.542000,254.004,-32.564,4.961,459.699,-307.144,57.853,170.850,-256.370,-125.930
579,51613.575000,260.990,-24.548,-21.829,459.878,-294.851,58.196,158.850,-83.370,-159.930
580,51613.613000,275.961,-22.544,6.946,461.814,-296.425,68.975,93.850,392.630,-199.930
581,51613.632000,294.924,-28.556,29.767,464.774,-294.229,78.877,323.850,503.630,-220.930
582,51613.676000,276.959,-43.585,51.597,466.832,-288.081,95.773,414.850,387.630,-254.930
583,51613.737000,247.018,-35.569,65.488,465.966,-282.892,113.621,280.850,528.630,-276.930
584,51613.753000,210.090,-28.556,102.202,468.944,-279.698,125.518,221.850,315.630,-135.930
585,51613.793000,226.058,-5.511,135.938,464.254,-269.968,138.567,239.850,706.630,113.070
586,51613.833000,201.107,19.538,103.194,459.220,-283.118,144.095,-87.150,197.630,252.070
587,51613.885000,211.088,-14.528,122.047,453.454,-280.153,152.037,92.850,247.630,161.070
588,51613.913000,219.072,-58.614,124.031,451.455,-283.989,150.943,67.850,36.630,101.070
589,51613.932000,231.049,-62.622,106.171,450.485,-284.003,150.941,-28.150,-33.370,122.070
590,51613.972000,200.109,-39.577,123.039,447.489,-290.506,156.657,-162.150,274.630,45.070
591,51614.12000,183.142,-21.542,140.899,444.592,-289.575,157.661,58.850,79.630,-1.930
592,51614.52000,194.121,-31.562,125.023,448.436,-292.331,158.575,199.850,-172.370,-29.930
593,51614.96000,209.092,-53.605,113.116,447.583,-283.913,155.856,83.850,-156.370,4.070
594,51614.141000,206.097,-59.616,116.093,451.497,-281.914,157.886,135.850,-117.370,-1.930
595,51614.172000,206.097,-48.595,123.039,450.532,-281.087,153.973,119.850,-207.370,82.070
596,51614.192000,213.084,-39.577,128.000,453.428,-282.018,152.968,261.850,-232.370,58.070
597,51614.232000,212.086,-14.528,104.186,452.517,-278.196,155.040,442.850,-372.370,66.070
598,51614.272000,216.078,-13.526,73.426,458.384,-274.489,149.252,411.850,-537.370,25.070
599,51614.321000,202.105,-28.556,50.605,462.234,-275.617,140.374,362.850,-557.370,40.070
600,51614.356000,232.047,-4.509,53.581,457.387,-274.845,136.453,452.850,-493.370,213.070
601,51614.396000,327.860,10.521,13.891,457.199,-286.483,125.309,296.850,-582.370,293.070
602,51614.436000,343.828,24.548,-50.605,467.967,-279.030,115.699,126.850,-768.370,134.070
603,51614.472000,263.984,0.501,7.938,466.919,-283.877,111.628,15.850,-21.370,-17.930
604,51614.492000,250.012,-18.536,8.930,470.855,-280.066,110.757,-35.150,-258.370,-89.930
605,51614.545000,265.980,-18.536,-0.992,471.825,-279.290,103.895,8.850,-252.370,-127.930
606,51614.575000,283.945,2.505,-19.845,475.847,-269.753,105.150,-223.150,172.630,-152.930
607,51614.615000,276.959,24.548,-16.868,474.884,-268.900,102.222,-219.150,167.630,-180.930
608,51614.662000,250.012,3.507,4.961,474.938,-265.905,108.207,55.850,323.630,-176.930
609,51614.693000,243.025,-22.544,23.814,476.838,-269.476,114.996,-116.150,327.630,-206.930
610,51614.738000,257.996,-11.523,18.853,477.892,-264.550,122.020,-194.150,330.630,-288.930
611,51614.780000,278.955,-1.503,26.791,480.914,-257.705,129.101,76.850,536.630,-364.930
612,51614.802000,278.955,13.526,28.775,479.160,-246.095,140.240,191.850,447.630,-207.930
613,51614.850000,262.986,1.503,83.349,476.278,-245.741,154.999,-131.150,609.630,-74.930
614,51614.875000,230.051,-0.501,95.256,473.380,-245.598,161.884,-377.150,538.630,30.070
615,51614.916000,214.082,-3.507,111.132,464.572,-251.264,166.629,-343.150,433.630,162.070
616,51614.966000,203.103,-9.519,112.124,456.732,-256.943,170.393,-255.150,462.630,196.070
617,51614.993000,198.113,-16.532,111.132,453.655,-269.093,176.935,-309.150,381.630,87.070
618,51615.72000,218.074,-46.591,106.171,446.849,-270.108,177.879,-226.150,248.630,7.070
619,51615.88000,241.029,-53.605,105.178,444.776,-279.513,180.564,-181.150,219.630,79.070
620,51615.95000,229.053,-52.603,100.217,438.043,-275.748,183.609,52.850,216.630,201.070
621,51615.135000,210.090,-46.591,104.186,439.902,-282.156,190.319,110.850,192.630,241.070
622,51615.181000,217.076,-42.583,117.085,432.131,-283.106,194.214,22.850,44.630,215.070
623,51615.215000,207.096,-44.587,107.163,429.999,-296.346,194.825,50.850,-32.370,163.070
624,51615.258000,200.109,-40.579,112.124,430.105,-288.834,193.067,212.850,-49.370,127.070
625,51615.301000,194.121,-43.585,127.008,430.163,-285.786,201.021,402.850,-5.370,-2.930
626,51615.342000,200.109,-55.609,128.992,431.237,-279.048,205.145,537.850,-254.370,-66.930
627,51615.375000,219.072,-36.571,146.853,436.221,-271.151,215.209,911.850,-31.370,-98.930
628,51615.393000,231.049,-41.581,135.938,438.129,-274.616,225.935,811.850,-90.370,32.070
629,51615.441000,239.033,-13.526,117.085,437.452,-255.480,235.319,1102.850,-117.370,150.070
630,51615.475000,259.992,17.534,121.054,432.735,-248.403,255.180,1196.850,395.630,110.070
631,51615.538000,221.068,14.528,83.349,432.017,-232.865,271.349,991.850,19.630,51.070
632,51615.555000,227.057,40.579,80.372,429.239,-225.026,283.365,685.850,158.630,4.070
633,51615.593000,220.070,34.568,98.233,431.194,-224.814,290.260,403.850,210.630,-48.930
634,51615.633000,220.070,29.558,71.442,428.365,-219.181,290.412,396.850,-196.370,99.070
635,51615.660000,202.105,38.575,64.496,435.261,-211.625,286.699,386.850,-369.370,174.070
636,51615.705000,217.076,48.595,57.550,435.132,-220.215,283.509,25.850,-295.370,283.070
637,51615.733000,237.037,53.605,87.318,436.986,-225.153,274.523,-422.150,-158.370,359.070
638,51615.773000,265.980,1.503,134.946,428.008,-241.457,270.119,-638.150,66.630,211.070
639,51615.820000,237.037,-88.673,119.070,433.685,-250.963,264.947,-244.150,-286.370,0.070
640,51615.855000,236.039,-73.644,131.969,434.606,-253.891,260.932,491.850,-240.370,88.070
641,51615.895000,237.037,-34.568,124.031,440.732,-233.005,261.523,730.850,-317.370,13.070
642,51615.940000,238.035,3.507,62.512,447.600,-228.128,263.638,472.850,-278.370,-145.930
643,51615.968000,259.992,68.634,46.636,446.777,-218.554,268.821,662.850,-13.370,-111.930
644,51615.995000,229.053,77.652,97.240,446.881,-211.829,272.943,155.850,-172.370,23.070
645,51616.35000,240.031,36.571,72.434,452.663,-213.822,266.012,-205.150,-179.370,37.070
646,51616.85000,228.055,14.528,60.527,446.765,-218.712,262.915,-146.150,-35.370,12.070
647,51616.113000,231.049,7.515,97.240,446.818,-214.955,262.036,-133.150,82.630,35.070
648,51616.158000,223.064,13.526,78.388,446.694,-223.466,261.799,-136.150,-28.370,2.070
649,51616.217000,217.076,39.577,84.341,448.551,-229.139,260.661,-235.150,-27.370,-6.930
650,51616.243000,226.058,40.579,86.326,448.623,-223.596,255.897,-378.150,-73.370,2.070
651,51616.257000,227.057,32.564,89.302,454.280,-234.127,247.745,-441.150,-154.370,51.070
652,51616.306000,219.072,28.556,88.310,452.326,-233.551,234.970,-514.150,-211.370,88.070
653,51616.340000,217.076,12.524,88.310,453.168,-241.339,225.903,-383.150,-153.370,136.070
654,51616.376000,207.096,20.540,105.178,450.166,-247.159,221.801,-340.150,-144.370,303.070
655,51616.426000,210.090,19.538,108.155,443.224,-256.843,216.602,-583.150,-215.370,343.070
656,51616.463000,232.047,-23.546,128.000,442.087,-266.682,202.556,-303.150,27.630,191.070
657,51616.498000,270.971,-31.562,121.054,439.124,-270.453,204.413,-176.150,315.630,75.070
658,51616.538000,301.910,-89.675,85.333,439.240,-262.809,207.577,116.850,256.630,-210.930
659,51616.558000,252.008,-33.566,4.961,447.982,-261.084,196.820,20.850,-769.370,-317.930
660,51616.595000,266.979,3.507,27.783,452.931,-253.634,190.150,-230.150,-215.370,-331.930
661,51616.636000,303.906,18.536,23.814,458.639,-261.196,186.999,-142.150,-88.370,-45.930
662,51616.685000,274.963,-58.614,1.984,453.793,-260.398,184.062,15.850,1.630,232.070
663,51616.726000,254.004,-81.659,28.775,448.901,-264.039,191.821,-131.150,424.630,301.070
664,51616.755000,228.055,-70.638,57.550,445.926,-267.968,187.773,-472.150,52.630,234.070
665,51616.822000,228.055,-30.560,35.721,440.892,-279.595,179.572,-265.150,-214.370,242.070
666,51616.838000,236.039,-18.536,30.760,438.980,-277.704,180.605,287.850,-96.370,251.070
667,51616.858000,235.041,-34.568,43.659,438.001,-278.585,183.530,338.850,94.630,173.070
668,51616.895000,243.025,-51.601,29.767,437.017,-279.544,183.501,-34.150,-111.370,-43.930
669,51616.937000,250.012,-34.568,40.682,439.889,-281.552,177.549,-325.150,-31.370,-126.930
670,51616.976000,244.023,-24.548,39.690,439.887,-281.579,176.564,-149.150,-13.370,-45.930
671,51617.18000,239.033,-48.595,31.752,436.852,-290.131,176.321,146.850,-79.370,96.070
672,51617.58000,238.035,-64.626,45.643,441.845,-280.579,177.579,246.850,-77.370,95.070
673,51617.98000,248.016,-64.626,31.752,437.873,-286.387,174.460,181.850,-303.370,-12.930
674,51617.137000,256.998,-50.599,30.760,444.770,-278.831,170.747,219.850,-171.370,-108.930
675,51617.157000,247.018,-32.564,26.791,444.804,-277.622,180.617,283.850,-45.370,-132.930
676,51617.212000,244.023,-26.552,46.636,441.959,-272.961,179.758,320.850,-63.370,-60.930
677,51617.235000,263.984,-39.577,42.667,444.993,-265.197,185.881,359.850,-53.370,-38.930
678,51617.278000,261.988,-41.581,31.752,449.877,-263.184,187.912,285.850,-0.370,-72.930
679,51617.315000,245.021,-44.587,24.806,449.888,-263.053,192.834,266.850,29.630,-92.930
680,51617.355000,227.057,-42.583,23.814,452.888,-257.259,195.951,344.850,-12.370,-130.930
681,51617.411000,224.062,-43.585,31.752,455.967,-246.605,204.122,504.850,44.630,-66.930
682,51617.432000,262.986,-29.558,132.961,450.175,-245.505,212.995,213.850,390.630,56.070
683,51617.458000,344.827,71.640,34.729,448.179,-250.076,219.750,446.850,-1.370,259.070
684,51617.497000,228.055,37.573,35.721,443.259,-254.086,213.728,-146.150,-290.370,229.070
685,51617.536000,230.051,-7.515,117.085,437.323,-262.521,219.385,-116.150,461.630,219.070
686,51617.576000,225.060,-9.519,116.093,433.400,-266.174,226.162,-321.150,8.630,67.070
687,51617.616000,270.971,-87.671,17.860,441.111,-268.298,213.329,-309.150,-174.370,-75.930
688,51617.656000,243.025,-25.550,90.295,435.373,-264.203,228.188,28.850,675.630,-210.930
689,51617.697000,225.060,14.528,110.140,432.504,-262.142,236.109,283.850,150.630,-207.930
690,51617.718000,224.062,8.517,74.419,443.107,-266.798,233.046,2.850,-280.370,-296.930
691,51617.758000,218.074,-4.509,44.651,445.256,-251.798,227.566,-333.150,59.630,-284.930
692,51617.796000,251.010,18.536,97.240,442.346,-252.574,235.408,-241.150,477.630,-251.930
693,51617.841000,256.998,-5.511,79.380,446.386,-242.039,238.659,157.850,-62.370,-306.930
694,51617.880000,233.045,10.521,95.256,448.265,-246.660,241.484,-40.150,151.630,-210.930
695,51617.921000,223.064,-5.511,89.302,447.481,-233.514,238.898,-281.150,125.630,-255.930
696,51617.963000,219.072,-1.503,94.264,449.330,-240.053,240.686,-56.150,97.630,-197.930
697,51617.997000,224.062,1.503,96.248,445.663,-225.792,245.995,213.850,185.630,-114.930
698,51618.17000,240.031,15.530,111.132,445.613,-230.283,254.722,400.850,260.630,-12.930
699,51618.62000,252.008,35.569,87.318,448.657,-221.626,258.902,177.850,-157.370,-43.930
700,51618.97000,250.012,24.548,59.535,450.564,-223.569,255.901,-66.150,34.630,-238.930
701,51618.140000,227.057,18.536,81.364,452.688,-211.196,258.216,-110.150,198.630,-290.930
702,51618.177000,222.066,17.534,79.380,454.636,-211.089,261.173,-23.150,67.630,-217.930
703,51618.218000,225.060,30.560,85.333,453.720,-207.320,261.276,150.850,40.630,-88.930
704,51618.268000,208.094,40.579,69.457,456.605,-209.170,261.230,62.850,-157.370,25.070
705,51618.316000,205.099,37.573,72.434,451.745,-209.318,258.266,-166.150,9.630,200.070
706,51618.326000,214.082,29.558,75.411,447.737,-217.910,257.037,-333.150,-152.370,356.070
707,51618.368000,220.070,26.552,74.419,446.561,-230.559,243.896,-320.150,-318.370,484.070
708,51618.397000,232.047,21.542,83.349,441.442,-247.886,234.553,-519.150,-226.370,506.070
709,51618.437000,252.008,19.538,88.310,437.355,-260.577,221.407,-455.150,-198.370,387.070
710,51618.483000,285.942,-7.515,110.140,438.131,-273.067,213.192,-625.150,35.630,11.070
711,51618.518000,277.957,-32.564,98.233,440.042,-274.196,205.295,-763.150,-157.370,-131.930
712,51618.558000,220.070,-2.505,83.349,440.993,-274.445,195.453,-718.150,196.630,-124.930
713,51618.598000,218.074,-32.564,107.163,433.141,-280.282,193.310,-777.150,403.630,-22.930
714,51618.618000,243.025,-32.564,91.287,434.041,-285.022,192.196,-470.150,337.630,54.070
715,51618.660000,261.988,-51.601,89.302,426.154,-293.617,192.928,-332.150,400.630,127.070
716,51618.698000,245.021,-60.618,91.287,422.261,-294.565,194.862,-312.150,196.630,163.070
717,51618.740000,216.078,-46.591,77.395,416.227,-308.884,192.486,-244.150,16.630,201.070
718,51618.778000,196.117,-62.622,63.504,414.335,-305.208,189.635,-209.150,69.630,162.070
719,51618.818000,202.105,-57.613,79.380,411.362,-309.872,193.434,-9.150,162.630,99.070
720,51618.875000,210.090,-47.593,81.364,412.366,-307.888,196.442,290.850,102.630,-4.930
721,51618.897000,212.086,-59.616,99.225,414.336,-306.731,203.363,455.850,-112.370,-100.930
722,51618.921000,242.027,-60.618,117.085,414.530,-294.227,211.580,515.850,-61.370,-113.930
723,51618.968000,276.959,1.503,128.992,416.434,-296.984,213.473,109.850,40.630,3.070
724,51619.3000,274.963,69.636,82.357,416.470,-294.226,210.599,-259.150,-25.370,36.070
725,51619.47000,222.066,9.519,98.233,417.379,-298.074,207.543,-416.150,151.630,22.070
726,51619.80000,226.058,-53.605,94.264,409.565,-301.126,203.511,-552.150,352.630,40.070
727,51619.120000,245.021,-81.659,76.403,403.505,-317.311,202.067,-692.150,298.630,157.070
728,51619.161000,216.078,-69.636,108.155,399.512,-324.931,201.848,-494.150,447.630,160.070
729,51619.181000,199.111,-47.593,118.078,399.442,-329.685,200.732,-53.150,77.630,125.070
730,51619.220000,192.125,-46.591,108.155,398.512,-326.862,200.809,-63.150,7.630,90.070
731,51619.265000,206.097,-58.614,91.287,393.513,-336.492,196.598,-162.150,-51.370,44.070
732,51619.300000,215.080,-54.607,85.333,398.431,-331.748,194.771,-141.150,88.630,0.070
733,51619.352000,216.078,-51.601,124.031,392.527,-337.478,195.585,-166.150,227.630,-36.930
734,51619.378000,223.064,-73.644,139.907,392.639,-329.887,196.780,-85.150,60.630,-83.930
735,51619.428000,199.111,-66.630,122.047,396.494,-331.723,196.736,101.850,-35.370,-34.930
736,51619.462000,186.136,-40.579,119.070,397.496,-329.765,198.759,93.850,-28.370,-52.930
737,51619.487000,205.099,-47.593,121.054,400.406,-329.750,197.781,-49.150,-126.370,-136.930
738,51619.517000,221.068,-47.593,115.101,407.238,-326.870,195.905,123.850,-127.370,-198.930
739,51619.563000,206.097,-48.595,118.078,412.250,-315.532,193.278,-135.150,-75.370,-226.930
740,51619.598000,188.133,-45.589,138.915,418.178,-307.964,190.548,-103.150,-51.370,-303.930
741,51619.656000,158.191,-41.581,127.008,427.961,-302.232,187.773,12.850,-303.370,-407.930
742,51619.682000,174.160,-68.634,136.930,432.948,-291.998,179.214,129.850,-471.370,-399.930
743,51619.718000,302.908,-16.532,156.775,439.807,-287.987,184.255,285.850,219.630,-165.930
744,51619.760000,367.782,33.566,118.078,435.846,-292.141,172.329,-25.150,-1082.370,576.070
745,51619.780000,300.912,3.507,-53.581,445.372,-301.251,144.551,194.850,-1559.370,424.070
746,51619.830000,215.080,-51.601,22.822,444.272,-310.616,148.223,230.850,217.630,108.070
747,51619.860000,292.928,-68.634,71.442,440.511,-302.948,154.332,93.850,151.630,-105.930
748,51619.901000,316.881,-67.632,9.922,448.280,-301.263,142.588,-229.150,-516.370,-351.930
749,51619.941000,248.016,38.575,12.899,456.320,-282.240,143.131,291.850,-26.370,-417.930
750,51619.980000,220.070,74.646,59.535,463.066,-285.847,145.993,454.850,-194.370,-336.930
751,51620.20000,228.055,23.546,17.860,469.137,-267.982,139.615,-88.150,-354.370,-263.930
752,51620.66000,246.020,-29.558,2.977,474.021,-265.208,134.782,-31.150,-61.370,-178.930
753,51620.80000,251.010,-25.550,30.760,477.863,-267.990,134.711,-204.150,34.630,-46.930
754,51620.120000,263.984,-21.542,41.674,473.003,-268.138,131.748,6.850,13.630,24.070
755,51620.160000,258.994,-5.511,35.721,476.984,-261.437,132.925,206.850,-91.370,-13.930
756,51620.200000,252.008,-0.501,13.891,471.043,-269.951,135.629,178.850,2.630,10.070
757,51620.247000,249.014,12.524,27.783,470.224,-260.324,142.780,4.850,172.630,72.070
758,51620.305000,260.990,16.532,18.853,469.064,-272.763,137.514,-110.150,119.630,79.070
759,51620.341000,257.996,-1.503,33.736,467.174,-269.822,142.511,-12.150,209.630,40.070
760,51620.371000,233.045,-2.505,31.752,466.115,-276.350,146.262,-48.150,112.630,11.070
761,51620.380000,236.039,-6.513,23.814,465.212,-272.423,152.271,-18.150,197.630,44.070
762,51620.428000,251.010,-4.509,13.891,461.251,-278.099,154.074,89.850,103.630,100.070
763,51620.462000,268.975,-1.503,68.465,456.476,-273.308,159.117,291.850,452.630,128.070
764,51620.502000,311.891,-17.534,106.171,449.665,-276.687,177.700,31.850,568.630,-28.930
765,51620.546000,283.945,-64.626,91.287,449.769,-269.201,174.958,-78.150,-35.370,-121.930
766,51620.590000,213.084,0.501,153.798,447.775,-274.507,189.561,-185.150,836.630,-100.930
767,51620.618000,180.148,-12.524,153.798,441.812,-284.072,188.301,-281.150,251.630,87.070
768,51620.682000,175.158,-29.558,98.233,437.982,-280.371,187.414,319.850,-262.370,286.070
769,51620.690000,216.078,-34.568,87.318,435.014,-285.744,200.047,227.850,251.630,336.070
770,51620.727000,238.035,-49.597,94.264,426.225,-290.385,207.772,139.850,498.630,269.070
771,51620.761000,249.014,-40.579,119.070,415.511,-293.320,209.639,-110.150,35.630,119.070
772,51620.801000,213.084,-36.571,108.155,421.307,-294.368,202.735,-174.150,-107.370,47.070
773,51620.840000,202.105,-45.589,106.171,415.320,-305.772,203.391,-6.150,94.630,150.070
774,51620.878000,208.094,-43.585,105.178,415.399,-300.912,208.444,142.850,38.630,150.070
775,51620.926000,212.086,-53.605,103.194,412.452,-303.711,211.312,166.850,16.630,45.070
776,51620.961000,205.099,-52.603,98.233,414.434,-300.847,211.395,120.850,-136.370,-48.930
777,51620.982000,210.090,-54.607,109.147,413.440,-302.699,213.309,216.850,-29.370,-140.930
778,51621.21000,206.097,-45.589,101.209,423.345,-289.244,216.651,535.850,-230.370,-226.930
779,51621.61000,212.086,-39.577,109.147,429.285,-281.517,219.827,631.850,-329.370,-238.930
780,51621.101000,230.051,-33.566,132.961,435.315,-267.250,220.234,468.850,-302.370,-213.930
781,51621.141000,260.990,-15.530,106.171,440.188,-266.157,223.223,551.850,-276.370,19.070
782,51621.178000,268.975,14.528,107.163,438.406,-255.677,227.446,728.850,-33.370,103.070
783,51621.218000,231.049,-1.503,96.248,437.442,-256.373,237.261,691.850,-138.370,5.070
784,51621.243000,229.053,9.519,76.403,441.586,-239.112,244.634,688.850,-63.370,-92.930
785,51621.278000,255.002,37.573,80.372,444.554,-236.050,251.609,263.850,155.630,-125.930
786,51621.332000,241.029,32.564,72.434,441.783,-226.582,253.835,128.850,-54.370,-179.930
787,51621.360000,214.082,33.566,68.465,447.530,-231.333,249.778,125.850,-148.370,-172.930
788,51621.400000,199.111,34.568,93.271,449.625,-220.877,251.056,-47.150,-98.370,-114.930
789,51621.440000,212.086,56.611,104.186,453.502,-220.901,248.111,-108.150,-72.370,11.070
790,51621.480000,252.008,53.605,97.240,449.572,-223.872,245.071,-262.150,106.630,-71.930
791,51621.520000,274.963,-3.507,130.977,453.460,-223.738,248.032,-216.150,358.630,-268.930
792,51621.540000,253.006,-47.593,108.155,450.731,-212.195,257.201,334.850,84.630,-229.930
793,51621.583000,221.068,-9.519,105.178,456.687,-203.497,261.387,454.850,-16.370,-139.930
794,51621.621000,212.086,32.564,71.442,450.828,-206.337,264.249,211.850,243.630,-61.930
795,51621.665000,221.068,62.622,75.411,452.927,-196.590,274.360,311.850,184.630,-156.930
796,51621.700000,203.103,41.581,114.109,452.063,-189.853,279.464,198.850,146.630,-116.930
797,51621.741000,214.082,34.568,100.217,454.012,-188.958,276.542,55.850,-162.370,59.070
798,51621.781000,227.057,35.569,81.364,451.033,-193.701,277.388,109.850,-169.370,103.070
799,51621.830000,235.041,44.587,82.357,455.882,-193.685,275.430,121.850,-9.370,106.070
800,51621.847000,223.064,49.597,100.217,451.051,-192.703,279.383,7.850,77.630,117.070
801,51621.882000,218.074,40.579,112.124,454.843,-198.427,275.296,-172.150,-49.370,139.070
802,51621.923000,211.088,39.577,113.116,450.836,-206.993,275.051,-207.150,-152.370,114.070
803,51621.963000,205.099,39.577,116.093,454.774,-202.394,268.300,-255.150,-109.370,151.070
804,51622.2000,214.082,25.550,113.116,446.843,-213.090,261.104,-151.150,-151.370,147.070
805,51622.48000,216.078,22.544,102.202,450.745,-211.249,257.227,-6.150,-235.370,174.070
806,51622.80000,212.086,24.548,93.271,452.584,-217.159,247.230,-44.150,-173.370,215.070
807,51622.120000,198.113,44.587,101.209,456.455,-218.023,248.196,-150.150,-221.370,341.070
808,51622.143000,205.099,48.595,99.225,449.436,-232.541,238.928,-458.150,-84.370,362.070
809,51622.180000,252.008,33.566,137.922,447.410,-238.269,237.782,-292.150,128.630,256.070
810,51622.220000,293.926,-0.501,95.256,442.415,-247.846,235.540,-505.150,215.630,-77.930
811,51622.262000,338.838,-115.726,67.473,445.439,-240.214,236.741,-348.150,244.630,-291.930
812,51622.302000,295.922,-80.658,17.860,453.237,-236.611,226.034,155.850,-584.370,-116.930
813,51622.341000,269.973,-52.603,37.705,453.296,-232.014,221.244,-91.150,-155.370,88.070
814,51622.383000,236.039,15.530,33.736,454.072,-244.504,213.029,-162.150,-239.370,155.070
815,51622.420000,218.074,36.571,22.822,453.042,-248.353,210.953,-127.150,-55.370,340.070
816,51622.447000,214.082,-50.599,41.674,447.110,-255.974,211.715,-78.150,32.630,468.070
817,51622.482000,235.041,-78.654,44.651,440.239,-260.904,207.632,-221.150,-153.370,305.070
818,51622.521000,264.982,-68.634,32.744,444.895,-273.366,198.441,-133.150,-259.370,111.070
819,51622.560000,255.002,-25.550,50.605,443.052,-266.747,199.605,291.850,-115.370,45.070
820,51622.608000,245.021,-17.534,35.721,445.980,-265.734,200.622,336.850,-288.370,104.070
821,51622.642000,241.029,-25.550,22.822,444.068,-263.083,194.791,204.850,-347.370,216.070
822,51622.683000,254.004,-21.542,19.845,441.065,-268.903,190.689,-139.150,-82.370,192.070
823,51622.712000,258.994,-41.581,31.752,440.988,-273.737,186.620,-276.150,-105.370,123.070
824,51622.742000,260.990,-53.605,49.612,437.968,-281.316,187.388,31.850,80.630,116.070
825,51622.788000,249.014,-56.611,50.605,437.035,-279.307,192.360,249.850,24.630,113.070
826,51622.821000,244.023,-41.581,28.775,437.096,-275.446,195.419,302.850,-148.370,46.070
827,51622.870000,247.018,-39.577,31.752,439.981,-277.296,195.372,52.850,-17.370,-106.930
828,51622.907000,253.006,-28.556,23.814,445.791,-278.159,195.358,143.850,-52.370,-134.930
829,51622.943000,258.994,-33.566,31.752,443.926,-273.353,199.423,170.850,205.630,-143.930
830,51622.985000,247.018,-43.585,30.760,446.043,-261.846,204.665,165.850,167.630,-139.930
831,51623.5000,240.031,-45.589,32.744,444.141,-259.825,210.619,135.850,32.630,-122.930
832,51623.41000,254.004,-37.573,31.752,444.222,-254.938,216.657,195.850,127.630,-91.930
833,51623.90000,245.021,-40.579,27.783,443.241,-255.845,218.597,253.850,65.630,-90.930
834,51623.125000,265.980,-35.569,82.357,446.230,-250.970,222.672,-14.150,201.630,60.070
835,51623.165000,313.887,17.534,65.488,436.262,-269.075,222.152,-68.150,131.630,334.070
836,51623.217000,289.934,19.538,83.349,433.404,-266.121,228.131,-57.150,150.630,179.070
837,51623.245000,255.002,-41.581,115.101,434.367,-267.736,237.924,500.850,510.630,-154.930
838,51623.285000,227.057,-45.589,115.101,432.708,-250.294,255.127,655.850,345.630,-304.930
839,51623.306000,205.099,-1.503,86.326,434.822,-239.575,266.249,412.850,180.630,-315.930
840,51623.342000,216.078,48.595,80.372,435.016,-227.859,280.346,284.850,478.630,-323.930
841,51623.390000,226.058,74.646,74.419,432.180,-223.067,284.409,252.850,71.630,-317.930
842,51623.426000,224.062,45.589,94.264,433.316,-211.705,284.726,23.850,163.630,-301.930
843,51623.461000,224.062,29.558,83.349,433.263,-215.462,285.605,-114.150,90.630,-227.930
844,51623.511000,246.020,19.538,85.333,435.314,-207.869,285.820,-70.150,25.630,-140.930
845,51623.546000,226.058,35.569,87.318,433.320,-211.653,286.695,-15.150,40.630,-124.930
846,51623.581000,211.088,44.587,84.341,434.310,-210.614,289.676,-224.150,39.630,-83.930
847,51623.605000,207.096,38.575,72.434,438.142,-213.528,284.684,-363.150,-13.370,-53.930
848,51623.643000,200.109,41.581,76.403,436.165,-214.791,273.826,-474.150,-34.370,27.070
849,51623.696000,198.113,34.568,78.388,436.805,-236.711,266.332,-780.150,-128.370,218.070
850,51623.725000,205.099,36.571,94.264,431.839,-243.609,258.263,-950.150,-150.370,380.070
851,51623.761000,256.998,48.595,126.016,425.655,-266.782,242.854,-1194.150,229.630,436.070
852,51623.802000,328.858,-23.546,115.101,416.700,-280.487,229.670,-1409.150,356.630,82.070
853,51623.842000,248.016,-64.626,97.240,415.521,-293.189,214.561,-1265.150,223.630,-233.930
854,51623.883000,188.133,-42.583,120.062,418.358,-297.193,204.618,-1203.150,187.630,-260.930
855,51623.903000,198.113,-59.616,108.155,419.225,-302.355,187.755,-1120.150,134.630,-166.930
856,51623.943000,238.035,-67.632,91.287,414.130,-318.605,183.360,-490.150,302.630,26.070
857,51623.983000,237.037,-92.681,101.209,412.264,-313.825,186.441,-212.150,345.630,64.070
858,51624.22000,217.076,-72.642,95.256,408.280,-319.791,177.415,-425.150,-15.370,84.070
859,51624.70000,218.074,-59.616,83.349,411.186,-319.829,174.468,-282.150,38.630,82.070
860,51624.103000,201.107,-40.579,89.302,403.250,-332.127,178.047,-112.150,179.630,122.070
861,51624.150000,209.092,-53.605,87.318,400.356,-331.170,180.036,94.850,205.630,58.070
862,51624.166000,225.060,-94.685,119.070,400.394,-329.147,185.011,65.850,105.630,-105.930
863,51624.202000,231.049,-89.675,129.984,404.290,-328.146,185.045,251.850,8.630,-105.930
864,51624.243000,240.031,-23.546,121.054,402.398,-325.232,189.057,292.850,-5.370,101.070
865,51624.293000,222.066,16.532,103.194,400.563,-318.508,194.159,191.850,-96.370,207.070
866,51624.322000,215.080,-3.507,89.302,396.482,-331.881,190.830,-88.150,-114.370,183.070
867,51624.362000,221.068,-53.605,92.279,399.441,-328.162,187.004,-397.150,284.630,138.070
868,51624.415000,234.043,-77.652,104.186,391.483,-341.511,186.619,-440.150,295.630,49.070
869,51624.445000,207.096,-72.642,122.047,391.548,-336.836,184.782,-341.150,197.630,11.070
870,51624.465000,205.099,-74.646,123.039,388.522,-344.495,182.597,-195.150,-43.370,-20.930
871,51624.505000,202.105,-70.638,117.085,389.552,-340.646,184.673,255.850,11.630,-61.930
872,51624.545000,197.115,-67.632,114.109,389.558,-340.567,187.626,133.850,31.630,-47.930
873,51624.585000,217.076,-41.581,99.225,393.513,-335.731,189.734,38.850,77.630,-36.930
874,51624.625000,210.090,-53.605,117.085,391.517,-339.541,189.625,64.850,95.630,-45.930
875,51624.665000,207.096,-59.616,124.031,389.709,-330.926,194.779,66.850,79.630,-19.930
876,51624.705000,207.096,-66.630,135.938,394.565,-330.831,195.774,49.850,-16.370,-14.930
877,51624.746000,195.119,-67.632,127.008,399.473,-326.980,195.889,89.850,-235.370,-94.930
878,51624.776000,198.113,-40.579,126.016,402.312,-331.719,193.795,205.850,-72.370,-220.930
879,51624.806000,181.146,-45.589,128.000,414.160,-317.449,191.261,225.850,-235.370,-375.930
880,51624.846000,202.105,-54.607,124.031,421.169,-302.301,188.743,306.850,-399.370,-470.930
881,51624.893000,240.031,-8.517,120.062,427.179,-289.820,193.035,404.850,-97.370,-400.930
882,51624.922000,237.037,-5.511,105.178,435.953,-286.912,191.163,-16.150,-311.370,-65.930
883,51624.962000,265.980,26.552,75.411,434.940,-289.002,184.218,277.850,-296.370,121.070
884,51625.6000,249.014,-15.530,62.512,441.788,-285.149,183.353,214.850,-298.370,52.070
885,51625.42000,229.053,-25.550,53.581,440.784,-287.133,180.346,-12.150,-269.370,-40.930
886,51625.73000,260.990,-39.577,80.372,443.774,-281.471,178.541,-8.150,-87.370,-193.930
887,51625.107000,286.940,-13.526,56.558,450.614,-277.724,173.739,84.850,-220.370,-89.930
888,51625.142000,292.928,-5.511,46.636,456.487,-273.938,170.903,511.850,-406.370,74.070
889,51625.188000,283.945,-13.526,30.760,450.653,-275.675,179.697,863.850,-124.370,11.070
890,51625.225000,257.996,9.519,20.837,461.574,-259.316,185.089,169.850,-118.370,-270.930
891,51625.265000,229.053,32.564,2.977,460.639,-256.572,182.213,-174.150,-118.370,-353.930
892,51625.305000,206.097,40.579,33.736,465.549,-251.933,176.448,-175.150,134.630,-220.930
893,51625.345000,209.092,41.581,46.636,463.510,-259.367,182.140,-91.150,205.630,68.070
894,51625.365000,235.041,2.505,57.550,462.594,-255.599,182.243,7.850,34.630,170.070
895,51625.425000,262.986,-16.532,54.574,453.695,-267.044,182.893,-127.150,52.630,169.070
896,51625.445000,291.930,-24.548,51.597,455.682,-264.127,184.945,-172.150,210.630,80.070
897,51625.485000,269.973,-7.515,43.659,450.705,-272.706,184.698,-137.150,197.630,31.070
898,51625.525000,234.043,20.540,81.364,449.785,-269.751,189.697,-101.150,185.630,-83.930
899,51625.567000,260.990,2.505,83.349,451.715,-270.643,190.659,-33.150,55.630,-77.930
900,51625.606000,243.025,-0.501,96.248,450.805,-266.795,193.715,-20.150,88.630,-42.930
901,51625.633000,228.055,-2.505,111.132,441.971,-273.565,192.528,-280.150,169.630,147.070
902,51625.672000,195.119,-17.534,117.085,436.998,-281.330,187.386,-348.150,75.630,141.070
903,51625.706000,191.127,-72.642,114.109,440.815,-285.189,182.367,-390.150,55.630,3.070
904,51625.745000,249.014,-72.642,128.992,434.072,-282.317,187.354,-369.150,437.630,-124.930
905,51625.785000,254.004,-68.634,121.054,436.888,-288.895,187.175,-46.150,-38.370,-0.930
906,51625.830000,241.029,-44.587,107.163,437.845,-289.827,187.151,267.850,-130.370,98.070
907,51625.865000,217.076,-42.583,80.372,434.982,-286.926,191.161,296.850,-92.370,250.070
908,51625.905000,202.105,-50.599,81.364,431.088,-287.901,192.111,192.850,-17.370,228.070
909,51625.925000,207.096,-45.589,101.209,428.028,-298.291,193.784,-65.150,80.630,152.070
910,51625.965000,217.076,-38.575,109.147,430.021,-294.534,191.925,19.850,-179.370,33.070
911,51626.6000,226.058,-52.603,121.054,429.107,-290.739,193.013,357.850,-93.370,-37.930
912,51626.46000,208.094,-47.593,103.194,433.133,-281.148,196.237,708.850,-423.370,-139.930
913,51626.86000,216.078,-43.585,132.961,441.993,-272.514,196.492,752.850,-339.370,-252.930
914,51626.133000,221.068,-20.540,127.008,448.049,-257.143,202.831,609.850,-169.370,-301.930
915,51626.167000,246.020,19.538,101.209,454.910,-252.345,201.993,663.850,-344.370,-76.930
916,51626.207000,260.990,20.540,105.178,451.091,-249.274,212.892,1002.850,60.630,80.070
917,51626.227000,262.986,-8.517,99.225,453.289,-233.642,231.035,1305.850,-58.370,19.070
918,51626.273000,257.996,3.507,34.729,459.285,-222.107,235.300,806.850,-450.370,-86.930
919,51626.307000,247.018,39.577,26.791,463.294,-213.515,236.530,406.850,83.630,-233.930
920,51626.353000,238.035,62.622,84.341,456.567,-210.432,249.391,355.850,228.630,-121.930
921,51626.392000,217.076,50.599,82.357,459.679,-197.046,253.703,566.850,-40.370,8.070
922,51626.427000,195.119,46.591,61.519,460.607,-199.896,252.642,358.850,-399.370,63.070
923,51626.467000,215.080,60.618,70.450,468.448,-194.191,249.863,125.850,-96.370,40.070
924,51626.503000,259.992,60.618,103.194,461.517,-204.505,256.450,-146.150,264.630,17.070
925,51626.530000,262.986,29.558,100.217,460.652,-197.006,254.689,-282.150,272.630,-73.930
926,51626.568000,237.037,-8.517,112.124,454.748,-203.498,262.368,114.850,320.630,-69.930
927,51626.605000,234.043,-11.523,109.147,456.870,-191.912,270.562,305.850,53.630,0.070
928,51626.645000,245.021,-0.501,74.419,457.800,-194.735,270.486,143.850,-6.370,-80.930
929,51626.701000,218.074,30.560,65.488,455.047,-184.269,274.706,189.850,234.630,-140.930
930,51626.725000,208.094,52.603,90.295,452.222,-179.345,283.691,243.850,230.630,-66.930
931,51626.768000,213.084,54.607,89.302,454.124,-182.128,284.601,183.850,-70.370,11.070
932,51626.800000,216.078,52.603,73.426,456.006,-185.936,282.531,-90.150,-193.370,103.070
933,51626.827000,214.082,59.616,78.388,455.110,-180.381,278.749,-161.150,-58.370,139.070
934,51626.867000,224.062,53.605,94.264,453.033,-189.077,272.602,-341.150,-65.370,213.070
935,51626.915000,210.090,44.587,98.233,451.885,-200.597,266.378,-388.150,-217.370,223.070
936,51626.947000,209.092,21.542,96.248,453.675,-210.210,259.228,-348.150,-259.370,328.070
937,51626.986000,225.060,36.571,132.961,447.674,-221.798,252.994,-369.150,-3.370,500.070
938,51627.25000,261.988,-7.515,114.109,445.473,-239.005,246.610,-403.150,-40.370,421.070
939,51627.78000,260.990,-43.585,121.054,440.633,-238.128,246.627,-158.150,200.630,144.070
940,51627.86000,222.066,-35.569,94.264,436.739,-239.102,247.577,105.850,240.630,-75.930
941,51627.128000,247.018,-38.575,84.341,435.849,-234.230,253.612,-33.150,145.630,-217.930
942,51627.166000,318.877,22.544,74.419,443.624,-232.465,244.822,-254.150,-457.370,-11.930
943,51627.205000,320.873,9.519,17.860,441.407,-249.883,230.563,-269.150,-456.370,282.070
944,51627.263000,238.035,-48.595,12.899,438.361,-259.328,232.263,-173.150,226.630,352.070
945,51627.287000,179.150,-64.626,57.550,437.377,-260.287,232.234,-379.150,294.630,216.070
946,51627.328000,176.156,-59.616,59.535,434.355,-267.132,225.154,-492.150,-109.370,70.070
947,51627.366000,226.058,-42.583,56.558,432.421,-266.293,222.223,-85.150,-127.370,-3.930
948,51627.387000,273.965,-28.556,41.674,436.370,-261.536,221.378,342.850,-242.370,-42.930
949,51627.427000,278.955,-33.566,47.628,436.337,-263.506,218.373,367.850,-351.370,-35.930
950,51627.475000,267.977,-24.548,42.667,444.122,-261.611,214.504,22.850,-439.370,-35.930
951,51627.508000,260.990,-9.519,41.674,443.156,-260.023,203.727,-91.150,-141.370,-4.930
952,51627.556000,256.000,-10.521,37.705,444.119,-260.876,206.655,-206.150,101.630,68.070
953,51627.588000,243.025,-40.579,58.543,436.335,-262.771,210.524,-90.150,158.630,124.070
954,51627.628000,231.049,-62.622,49.612,442.143,-263.661,209.525,212.850,-112.370,156.070
955,51627.650000,232.047,-53.605,48.620,439.137,-270.295,210.320,178.850,-113.370,87.070
956,51627.686000,243.025,-40.579,34.729,444.118,-261.663,212.535,241.850,-60.370,-31.930
957,51627.726000,248.016,-15.530,29.767,442.155,-263.503,215.432,230.850,-58.370,-39.930
958,51627.783000,258.994,-23.546,34.729,445.200,-254.058,213.732,138.850,-51.370,-57.930
959,51627.808000,256.000,-43.585,21.829,445.988,-266.390,211.423,6.850,-160.370,-60.930
960,51627.848000,257.996,-49.597,90.295,445.129,-258.813,212.616,-100.150,121.630,-21.930
961,51627.888000,283.945,-37.573,92.279,439.194,-266.486,211.409,2.850,72.630,281.070
962,51627.928000,279.953,13.526,79.380,438.156,-271.202,212.260,-47.150,-171.370,100.070
963,51627.950000,239.033,-16.532,91.287,443.025,-270.161,213.281,79.850,234.630,-173.930
964,51627.991000,237.037,-28.556,120.062,445.254,-251.825,226.581,230.850,282.630,-393.930
965,51628.30000,211.088,-19.538,65.488,448.166,-251.783,226.587,265.850,-138.370,-386.930
966,51628.70000,217.076,19.538,73.426,449.359,-237.374,234.859,406.850,501.630,-167.930
967,51628.110000,230.051,52.603,96.248,446.503,-235.917,255.551,475.850,454.630,-7.930
968,51628.148000,260.990,48.595,69.457,443.770,-223.665,255.887,264.850,-92.370,-56.930
969,51628.187000,248.016,19.538,65.488,446.590,-230.191,257.677,-170.150,163.630,-267.930
970,51628.230000,237.037,18.536,72.434,446.764,-217.950,256.051,-312.150,28.630,-310.930
971,51628.250000,234.043,15.530,83.349,451.565,-221.638,256.940,59.850,132.630,-238.930
972,51628.288000,216.078,28.556,84.341,447.753,-217.699,264.912,223.850,197.630,-138.930
973,51628.330000,209.092,35.569,80.372,446.767,-218.685,263.899,35.850,4.630,28.070
974,51628.390000,207.096,42.583,60.527,445.727,-223.427,263.766,-297.150,-34.370,90.070
975,51628.418000,204.101,44.587,79.380,440.811,-227.384,259.713,-494.150,113.630,177.070
976,51628.450000,218.074,35.569,80.372,441.642,-236.091,251.603,-707.150,-199.370,287.070
977,51628.487000,216.078,27.554,77.395,440.417,-251.683,234.446,-758.150,-325.370,373.070
978,51628.538000,260.990,11.523,125.023,430.506,-265.217,228.151,-706.150,277.630,316.070
979,51628.547000,309.895,-75.648,100.217,425.525,-273.849,225.936,-460.150,46.630,26.070
980,51628.586000,240.031,-41.581,116.093,427.424,-275.897,218.996,-524.150,151.630,-144.930
981,51628.627000,214.082,-13.526,113.116,423.406,-284.621,212.845,-775.150,206.630,-184.930
982,51628.671000,225.060,-20.540,94.264,424.298,-289.467,207.794,-624.150,-63.370,-31.930
983,51628.706000,239.033,-49.597,77.395,418.397,-294.383,203.713,-167.150,225.630,147.070
984,51628.746000,231.049,-72.642,76.403,418.373,-296.221,205.629,-137.150,153.630,152.070
985,51628.791000,221.068,-84.665,108.155,411.510,-301.046,205.483,-142.150,91.630,89.070
986,51628.835000,209.092,-46.591,103.194,416.367,-300.163,200.598,-230.150,-21.370,-19.930
987,51628.882000,223.064,-25.550,95.256,419.247,-302.066,198.583,-88.150,-114.370,37.070
988,51628.898000,232.047,-21.542,99.225,414.339,-305.917,198.467,66.850,-52.370,123.070
989,51628.926000,237.037,-41.581,92.279,412.313,-311.645,197.321,-76.150,-13.370,188.070
990,51628.968000,232.047,-55.609,101.209,407.494,-309.743,200.317,-57.150,184.630,87.070
991,51629.8000,199.111,-34.568,118.078,406.495,-311.648,200.262,-120.150,98.630,69.070
992,51629.48000,231.049,-29.558,115.101,405.417,-319.201,201.034,-110.150,136.630,94.070
993,51629.88000,225.060,-33.566,100.217,406.360,-321.078,200.983,-48.150,-95.370,70.070
994,51629.108000,207.096,-45.589,109.147,406.301,-324.913,198.909,-115.150,99.630,31.070
995,51629.150000,206.097,-54.607,108.155,404.342,-325.939,196.910,-380.150,152.630,-35.930
996,51629.197000,216.078,-62.622,100.217,406.271,-326.070,191.008,-246.150,-106.370,-57.930
997,51629.230000,211.088,-56.611,106.171,405.389,-319.569,187.253,-161.150,11.630,-57.930
998,51629.268000,219.072,-61.620,117.085,410.157,-325.201,186.121,-182.150,-79.370,-89.930
999,51629.310000,212.086,-62.622,103.194,413.205,-314.968,178.541,-2.150,-263.370,-101.930
1000,51629.350000,197.115,-58.614,100.217,416.077,-317.737,179.453,76.850,-62.370,-203.930
1001,51629.398000,180.148,-77.652,114.109,427.872,-307.223,177.798,9.850,-217.370,-295.930
1002,51629.407000,230.051,-58.614,114.109,434.759,-300.560,176.028,318.850,-17.370,-478.930
1003,51629.456000,238.035,-63.624,147.845,441.904,-278.267,193.381,425.850,308.630,-455.930
1004,51629.495000,326.862,43.585,104.186,439.869,-285.649,201.041,486.850,261.630,124.070
1005,51629.531000,274.963,42.583,-4.961,441.941,-275.482,191.491,559.850,-1259.370,485.070
1006,51629.571000,227.057,-2.505,-14.884,450.502,-286.077,179.408,281.850,-917.370,244.070
1007,51629.610000,220.070,-38.575,14.884,444.682,-286.106,181.364,-73.150,272.630,-61.930
1008,51629.662000,227.057,-48.595,67.473,453.431,-284.276,174.545,-495.150,-151.370,-198.930
1009,51629.688000,275.961,-26.552,38.698,457.445,-274.082,164.999,-34.150,-418.370,-211.930
1010,51629.715000,270.971,27.554,43.659,459.347,-276.865,165.908,524.850,-322.370,-36.930
1011,51629.747000,234.043,13.526,30.760,465.324,-265.593,160.330,425.850,-616.370,-75.930
1012,51629.788000,247.018,-1.503,0.992,475.940,-268.542,150.430,48.850,-342.370,-111.930
1013,51629.830000,259.992,-8.517,36.713,471.169,-262.937,150.578,-263.150,48.630,-87.930
1014,51629.872000,257.996,-14.528,44.651,476.016,-262.947,147.635,-206.150,-178.370,-34.930
1015,51629.907000,246.020,-16.532,43.659,474.116,-259.376,140.846,287.850,-275.370,22.070
1016,51629.953000,222.066,-7.515,33.736,480.922,-258.361,139.902,396.850,-247.370,27.070
1017,51629.988000,236.039,-2.505,19.845,478.971,-258.520,134.976,95.850,-338.370,-35.930
1018,51630.8000,265.980,11.523,20.837,478.878,-264.325,129.897,-98.150,-246.370,-31.930
1019,51630.53000,276.959,9.519,20.837,481.878,-257.770,126.149,-34.150,-222.370,36.070
1020,51630.88000,274.963,2.505,30.760,481.768,-264.574,119.075,102.850,-201.370,111.070
1021,51630.127000,262.986,-15.530,25.798,483.678,-266.490,117.058,86.850,-125.370,64.070
1022,51630.167000,253.006,-18.536,18.853,481.833,-259.898,117.238,0.850,-39.370,-55.930
1023,51630.212000,242.027,-4.509,23.814,481.774,-263.733,115.164,-82.150,90.630,-96.930
1024,51630.248000,246.020,5.511,29.767,485.721,-259.764,120.199,-34.150,72.630,-55.930
1025,51630.287000,256.000,7.515,28.775,486.553,-269.233,118.953,40.850,-65.370,35.070
1026,51630.313000,261.988,-15.530,11.907,485.688,-261.734,117.193,34.850,-131.370,61.070
1027,51630.348000,256.000,-18.536,21.829,482.748,-263.667,117.134,146.850,135.630,34.070
1028,51630.388000,250.012,-10.521,23.814,476.054,-257.852,126.137,42.850,118.630,3.070
1029,51630.431000,253.006,4.509,32.744,475.023,-262.489,129.941,120.850,135.630,-19.930
1030,51630.468000,254.004,10.521,27.783,478.028,-256.642,135.027,154.850,52.630,3.070
1031,51630.508000,258.994,5.511,19.845,480.859,-262.249,135.859,138.850,-1.370,24.070
1032,51630.553000,257.996,-1.503,21.829,477.008,-260.360,137.873,123.850,136.630,-5.930
1033,51630.570000,266.979,-3.507,28.775,474.083,-262.108,144.704,34.850,268.630,49.070
1034,51630.616000,268.975,-5.511,41.674,475.119,-258.941,156.597,88.850,291.630,3.070
1035,51630.657000,244.023,-6.513,49.612,468.262,-263.687,159.405,-126.150,285.630,105.070
1036,51630.690000,235.041,-3.507,68.465,461.487,-262.758,162.370,-155.150,280.630,160.070
1037,51630.731000,244.023,-12.524,80.372,459.355,-276.760,169.846,-127.150,292.630,195.070
1038,51630.807000,231.049,-22.544,71.442,452.555,-276.935,166.879,-236.150,171.630,191.070
1039,51630.823000,217.076,-39.577,75.411,447.552,-287.379,167.563,-288.150,222.630,96.070
1040,51630.851000,231.049,-46.591,90.295,443.746,-282.601,171.624,-213.150,396.630,39.070
1041,51630.872000,246.020,-47.593,78.388,440.817,-284.402,176.487,-45.150,125.630,53.070
1042,51630.910000,254.004,-45.589,71.442,439.679,-295.789,175.185,46.850,49.630,125.070
