Sample, Time, ACCX, ACCY, ACCZ, MAGX, MAGY, MAGZ, GYRX, GYRY, GYRZ
0,51986.877000,236.345,33.129,76.800,453.398,-166.601,239.574,-5.780,2.400,9.940
1,51986.908000,240.276,34.133,75.776,451.466,-169.394,238.517,-3.780,9.400,9.940
2,51986.954000,239.294,34.133,76.800,452.476,-164.782,239.611,-3.780,16.400,-0.060
3,51986.991000,237.328,34.133,79.872,456.113,-175.706,240.379,12.220,11.400,-7.060
4,51987.30000,237.328,34.133,75.776,452.456,-166.555,242.557,9.220,7.400,-7.060
5,51987.69000,236.345,36.141,78.848,452.396,-171.116,243.455,6.220,21.400,-7.060
6,51987.111000,237.328,34.133,77.824,454.326,-168.343,243.517,7.220,5.400,-4.060
7,51987.132000,238.311,34.133,77.824,451.449,-171.129,243.453,17.220,17.400,-7.060
8,51987.170000,238.311,35.137,76.800,453.454,-162.859,243.632,-4.780,26.400,-16.060
9,51987.210000,238.311,32.125,74.752,451.488,-168.361,244.507,-2.780,39.400,-13.060
10,51987.251000,238.311,33.129,77.824,449.687,-161.934,246.630,-13.780,53.400,-14.060
11,51987.291000,241.259,32.125,74.752,452.472,-165.600,244.567,-71.780,78.400,-29.060
12,51987.334000,240.276,28.110,74.752,445.841,-166.545,247.521,-54.780,117.400,-30.060
13,51987.347000,239.294,29.114,79.872,449.703,-160.979,248.640,-51.780,132.400,-64.060
14,51987.390000,237.328,27.106,79.872,449.650,-165.443,254.512,-73.780,109.400,-64.060
15,51987.434000,232.415,26.102,80.896,445.966,-158.144,255.657,-89.780,129.400,-63.060
16,51987.469000,233.397,25.098,84.992,446.827,-164.525,256.517,-104.780,132.400,-70.060
17,51987.509000,233.397,24.094,84.992,445.020,-158.156,255.655,-102.780,122.400,-83.060
18,51987.555000,235.363,23.090,83.968,444.018,-162.672,259.536,-116.780,140.400,-85.060
19,51987.592000,236.345,17.067,91.136,444.087,-158.013,263.614,-128.780,165.400,-99.060
20,51987.610000,236.345,19.075,88.064,442.148,-161.663,265.523,-99.780,176.400,-124.060
21,51987.677000,235.363,15.059,95.232,439.331,-160.668,271.508,-96.780,194.400,-134.060
22,51987.716000,230.449,17.067,96.256,441.327,-153.274,273.657,-14.780,203.400,-170.060
23,51987.734000,228.484,19.075,97.280,441.331,-153.235,275.647,36.220,236.400,-176.060
24,51987.770000,225.536,23.090,109.568,438.657,-142.104,284.832,121.220,278.400,-203.060
25,51987.809000,224.553,37.145,115.712,441.618,-133.704,290.983,274.220,241.400,-222.060
26,51987.832000,211.777,67.263,101.376,436.939,-130.842,299.989,240.220,179.400,-250.060
27,51987.872000,221.605,64.251,118.784,440.726,-130.773,300.990,174.220,183.400,-211.060
28,51987.912000,213.743,82.322,125.952,441.000,-111.397,308.366,205.220,136.400,-158.060
29,51987.954000,212.760,90.353,117.760,441.952,-111.326,311.352,206.220,29.400,-136.060
30,51987.991000,214.726,82.322,115.712,442.050,-104.017,310.514,151.220,-62.600,-110.060
31,51988.35000,210.795,85.333,112.640,444.900,-103.083,309.543,110.220,-126.600,-99.060
32,51988.74000,212.760,92.361,110.592,445.864,-101.316,305.603,88.220,-141.600,-80.060
33,51988.89000,211.777,85.333,106.496,451.666,-92.099,304.814,-25.780,-180.600,-35.060
34,51988.130000,210.795,82.322,102.400,452.539,-96.784,298.747,-120.780,-181.600,16.940
35,51988.171000,210.795,72.282,100.352,458.029,-109.691,290.524,-144.780,-227.600,37.940
36,51988.212000,207.846,72.282,99.328,460.007,-103.273,289.669,-223.780,-194.600,29.940
37,51988.249000,208.829,72.282,104.448,462.745,-109.805,281.576,-300.780,-181.600,-16.060
38,51988.289000,201.950,72.282,109.568,462.735,-109.922,275.606,-249.780,-322.600,-16.060
39,51988.311000,229.466,72.282,91.136,468.397,-110.042,265.666,-393.780,-319.600,-63.060
40,51988.352000,229.466,64.251,99.328,473.930,-119.362,253.540,-422.780,-251.600,-52.060
41,51988.401000,229.466,65.255,90.112,476.821,-114.861,247.672,-308.780,-315.600,-48.060
42,51988.430000,238.311,48.188,83.968,482.418,-119.582,236.639,-324.780,-247.600,-27.060
43,51988.472000,233.397,61.239,83.968,481.479,-118.737,233.671,-218.780,-212.600,-24.060
44,51988.512000,245.190,66.259,79.872,479.486,-125.331,225.571,-219.780,-242.600,-73.060
45,51988.532000,247.155,54.212,77.824,486.175,-119.863,219.730,-212.780,-136.600,-73.060
46,51988.574000,238.311,62.243,68.608,488.968,-122.672,214.701,-142.780,-137.600,-74.060
47,51988.610000,232.415,58.227,72.704,487.141,-118.077,216.785,-109.780,-52.600,-98.060
48,51988.652000,236.345,62.243,76.800,487.155,-117.142,217.800,-63.780,-15.600,-55.060
49,51988.694000,225.536,58.227,65.536,490.876,-120.932,208.773,-52.780,-8.600,-25.060
50,51988.734000,239.294,58.227,75.776,484.301,-118.134,215.785,-40.780,111.400,-10.060
51,51988.774000,238.311,58.227,81.920,488.077,-118.961,217.762,20.220,174.400,9.940
52,51988.794000,229.466,60.235,91.136,481.375,-125.345,223.584,34.220,208.400,2.940
53,51988.840000,225.536,69.271,93.184,481.385,-125.228,229.555,13.220,208.400,-25.060
54,51988.869000,225.536,64.251,91.136,485.224,-121.474,231.630,-21.780,166.400,-31.060
55,51988.911000,218.656,61.239,90.112,481.434,-122.342,236.579,-40.780,140.400,-19.060
56,51988.952000,216.691,62.243,96.256,473.858,-123.281,240.526,-75.780,167.400,4.940
57,51988.999000,222.587,57.224,105.472,478.607,-122.243,243.539,-44.780,111.400,5.940
58,51989.16000,224.553,63.247,102.400,477.684,-120.443,242.581,-100.780,88.400,-26.060
59,51989.61000,221.605,64.251,104.448,476.708,-123.106,247.496,-141.780,94.400,-77.060
60,51989.92000,216.691,63.247,102.400,477.730,-117.597,247.615,-157.780,45.400,-90.060
61,51989.136000,211.777,69.271,96.256,474.839,-121.319,246.537,-169.780,9.400,-116.060
62,51989.171000,221.605,66.259,102.400,479.644,-115.779,245.667,-238.780,24.400,-110.060
63,51989.215000,220.622,66.259,103.424,474.798,-124.106,244.488,-245.780,9.400,-79.060
64,51989.254000,227.501,71.278,103.424,480.446,-125.922,241.474,-258.780,9.400,-70.060
65,51989.274000,217.674,70.275,103.424,476.693,-123.282,238.541,-337.780,-0.600,-42.060
66,51989.312000,224.553,61.239,102.400,480.427,-126.916,237.474,-384.780,-6.600,-3.060
67,51989.354000,218.656,60.235,106.496,478.345,-140.703,236.183,-387.780,-13.600,34.940
68,51989.392000,221.605,54.212,109.568,478.337,-140.800,231.208,-421.780,-12.600,55.940
69,51989.432000,216.691,48.188,109.568,475.430,-145.477,228.120,-387.780,-37.600,73.940
70,51989.472000,224.553,40.157,107.520,477.166,-156.524,223.909,-399.780,-49.600,79.940
71,51989.492000,224.553,39.153,106.496,473.305,-161.310,215.844,-410.780,-83.600,66.940
72,51989.532000,227.501,31.122,102.400,478.928,-164.958,212.791,-391.780,-104.600,45.940
73,51989.580000,228.484,28.110,98.304,476.076,-165.152,204.826,-393.780,-94.600,7.940
74,51989.614000,231.432,25.098,97.280,474.155,-167.048,202.793,-413.780,-64.600,-11.060
75,51989.660000,226.518,23.090,97.280,478.866,-168.000,197.807,-360.780,-2.600,-55.060
76,51989.695000,230.449,20.078,104.448,475.900,-177.218,196.612,-349.780,1.400,-70.060
77,51989.715000,227.501,25.098,108.544,477.813,-175.419,193.669,-313.780,13.400,-108.060
78,51989.755000,221.605,27.106,108.544,479.693,-176.310,193.653,-233.780,49.400,-156.060
79,51989.790000,225.536,22.086,114.688,480.661,-174.505,191.703,-195.780,64.400,-145.060
80,51989.830000,229.466,36.141,110.592,477.848,-172.690,192.732,-87.780,59.400,-133.060
81,51989.879000,218.656,28.110,116.736,481.778,-162.485,196.934,-37.780,135.400,-162.060
82,51989.917000,215.708,33.129,112.640,479.926,-159.722,198.979,93.220,134.400,-158.060
83,51989.954000,215.708,44.173,115.712,481.009,-150.412,206.141,189.220,182.400,-133.060
84,51989.974000,213.743,53.208,118.784,482.937,-148.438,212.154,273.220,163.400,-100.060
85,51990.14000,213.743,48.188,128.000,480.122,-147.422,219.134,301.220,207.400,-21.060
86,51990.64000,216.691,58.227,123.904,477.382,-140.910,226.231,389.220,174.400,83.940
87,51990.100000,216.691,52.204,130.048,475.443,-144.561,228.140,400.220,171.400,135.940
88,51990.134000,210.795,54.212,123.904,470.826,-137.119,237.243,467.220,122.400,169.940
89,51990.172000,220.622,57.224,120.832,471.747,-139.718,244.152,484.220,103.400,207.940
90,51990.216000,219.639,54.212,120.832,467.957,-140.586,249.101,489.220,115.400,239.940
91,51990.231000,214.726,53.208,114.688,462.241,-144.189,255.978,496.220,117.400,285.940
92,51990.280000,212.760,55.216,109.568,460.396,-141.349,262.004,489.220,115.400,318.940
93,51990.315000,219.639,46.180,123.904,456.524,-148.572,269.801,450.220,164.400,321.940
94,51990.355000,217.674,46.180,123.904,449.034,-143.117,272.890,522.220,144.400,333.940
95,51990.395000,213.743,42.165,116.736,444.303,-143.939,280.823,485.220,206.400,333.940
96,51990.435000,217.674,41.161,129.024,438.597,-147.425,293.670,497.220,212.400,344.940
97,51990.455000,213.743,40.157,129.024,431.043,-147.330,303.608,518.220,170.400,307.940
98,51990.495000,220.622,41.161,125.952,432.033,-144.491,307.648,493.220,157.400,255.940
99,51990.535000,214.726,44.173,128.000,426.444,-138.913,315.716,447.220,127.400,207.940
100,51990.579000,212.760,43.169,128.000,424.494,-143.460,318.600,409.220,105.400,180.940
101,51990.614000,212.760,47.184,124.928,421.756,-136.928,326.692,348.220,62.400,131.940
102,51990.654000,215.708,52.204,122.880,417.920,-140.643,326.607,237.220,53.400,60.940
103,51990.676000,217.674,56.220,119.808,416.030,-140.648,327.599,151.220,65.400,9.940
104,51990.715000,207.846,49.192,129.024,418.016,-134.132,331.719,77.220,93.400,6.940
105,51990.755000,213.743,48.188,117.760,414.284,-130.479,333.781,45.220,57.400,-11.060
106,51990.801000,212.760,46.180,129.024,415.182,-134.111,334.699,11.220,140.400,-34.060
107,51990.841000,216.691,49.192,128.000,412.433,-127.716,335.826,92.220,127.400,-7.060
108,51990.876000,208.829,60.235,121.856,409.529,-133.134,341.674,78.220,177.400,-27.060
109,51990.916000,233.397,56.220,123.904,409.634,-125.746,344.815,48.220,138.400,-25.060
110,51990.940000,210.795,63.247,116.736,410.617,-123.765,351.822,33.220,194.400,-69.060
111,51990.975000,223.570,64.251,121.856,406.821,-124.711,352.790,73.220,199.400,-58.060
112,51991.15000,197.036,69.271,114.688,402.147,-121.012,357.835,5.220,167.400,-61.060
113,51991.61000,186.226,67.263,114.688,401.165,-123.753,358.770,-112.780,153.400,-91.060
114,51991.94000,191.140,69.271,122.880,395.507,-122.834,362.760,-154.780,184.400,-137.060
115,51991.134000,190.157,69.271,129.024,395.547,-120.046,364.809,-222.780,165.400,-99.060
116,51991.154000,195.071,71.278,135.168,394.542,-124.601,366.699,-316.780,266.400,-91.060
117,51991.195000,212.760,71.278,143.360,386.928,-128.287,370.588,-310.780,212.400,-37.060
118,51991.235000,197.036,68.267,136.192,385.841,-138.416,368.382,-433.780,135.400,24.940
119,51991.275000,231.432,59.231,123.904,380.986,-147.620,369.173,-443.780,69.400,75.940
120,51991.315000,213.743,51.200,134.144,379.038,-151.368,366.107,-388.780,132.400,245.940
121,51991.355000,201.950,33.129,143.360,374.087,-167.863,368.732,-371.780,95.400,301.940
122,51991.372000,207.846,21.082,137.216,367.233,-184.499,365.384,-334.780,134.400,359.940
123,51991.414000,203.916,5.020,149.504,359.603,-189.141,367.264,-198.780,119.400,375.940
124,51991.454000,202.933,12.047,141.312,351.859,-202.047,367.972,-44.780,85.400,354.940
125,51991.505000,210.795,16.063,152.576,343.208,-212.198,369.732,-67.780,128.400,368.940
126,51991.531000,204.898,8.031,148.480,339.387,-214.977,370.662,-62.780,122.400,392.940
127,51991.571000,225.536,33.129,151.552,331.806,-215.974,371.624,162.220,106.400,335.940
128,51991.611000,188.192,29.114,167.936,324.051,-229.777,373.309,-194.780,82.400,421.940
129,51991.631000,200.967,-3.012,182.272,320.232,-232.536,375.233,39.220,53.400,474.940
130,51991.677000,176.399,10.039,155.648,312.520,-242.753,373.015,126.220,-26.600,482.940
131,51991.715000,214.726,-41.161,178.176,307.667,-251.937,374.802,-42.780,-27.600,500.940
132,51991.754000,184.261,-3.012,193.536,299.245,-245.559,378.904,346.220,-21.600,305.940
133,51991.795000,183.278,-1.004,209.920,299.226,-247.313,382.845,117.220,61.400,163.940
134,51991.835000,162.641,27.106,211.968,294.445,-251.040,382.759,28.220,96.400,-0.060
135,51991.855000,153.797,32.125,209.920,293.506,-250.195,379.791,-242.780,15.400,-14.060
136,51991.895000,169.520,-11.043,197.632,293.392,-258.460,378.621,-211.780,-56.600,111.940
137,51991.935000,176.399,-25.098,179.200,290.414,-268.594,377.406,-97.780,-42.600,205.940
138,51991.975000,183.278,-17.067,187.392,289.530,-264.026,377.502,112.220,-67.600,209.940
139,51992.15000,199.985,-24.094,180.224,289.497,-266.716,380.428,242.220,-151.600,227.940
140,51992.61000,197.036,-35.137,165.888,288.631,-261.173,383.529,380.220,-104.600,244.940
141,51992.95000,181.313,-6.024,172.032,285.897,-253.823,386.665,419.220,-68.600,161.940
142,51992.115000,178.365,-7.027,165.888,289.691,-253.675,391.647,422.220,-144.600,82.940
143,51992.170000,184.261,-4.016,157.696,288.788,-250.861,395.684,409.220,-126.600,107.940
144,51992.197000,184.261,-11.043,157.696,286.996,-243.557,395.837,327.220,-95.600,139.940
145,51992.237000,187.209,-22.086,157.696,290.711,-248.946,398.712,184.220,-49.600,166.940
146,51992.277000,191.140,-16.063,171.008,284.179,-242.562,401.822,289.220,20.400,168.940
147,51992.317000,194.088,-18.071,165.888,289.097,-228.777,401.128,373.220,-41.600,66.940
148,51992.337000,190.157,-19.075,159.744,285.327,-228.651,410.077,376.220,-25.600,84.940
149,51992.375000,197.036,-11.043,162.816,286.414,-218.522,412.283,408.220,-31.600,91.940
150,51992.417000,185.244,-7.027,139.264,290.220,-217.458,417.285,453.220,-142.600,57.940
151,51992.457000,199.002,1.004,153.600,292.237,-208.272,417.483,424.220,-30.600,58.940
152,51992.497000,198.019,2.008,158.720,286.668,-200.920,422.605,338.220,-90.600,-9.060
153,51992.537000,189.175,-1.004,138.240,294.392,-189.788,424.842,385.220,-104.600,-36.060
154,51992.556000,208.829,13.051,142.336,292.529,-187.922,427.863,351.220,-30.600,-74.060
155,51992.597000,196.054,7.027,142.336,299.382,-171.305,430.216,296.220,-67.600,-88.060
156,51992.636000,208.829,27.106,122.880,299.423,-168.517,432.265,420.220,-26.600,-92.060
157,51992.676000,204.898,19.075,124.928,302.361,-161.151,432.426,345.220,-0.600,-132.060
158,51992.716000,206.864,14.055,128.000,301.586,-149.156,437.653,360.220,41.400,-71.060
159,51992.781000,213.743,60.235,138.240,299.861,-137.213,440.889,327.220,124.400,-114.060
160,51992.807000,215.708,50.196,147.456,297.065,-134.443,443.928,125.220,96.400,-151.060
161,51992.816000,216.691,75.294,161.792,297.143,-128.908,446.035,155.220,136.400,-158.060
162,51992.864000,201.950,93.365,154.624,299.115,-123.327,449.140,66.220,59.400,-188.060
163,51992.897000,208.829,85.333,152.576,297.146,-128.869,448.025,-124.780,66.400,-162.060
164,51992.932000,190.157,94.369,154.624,297.214,-124.229,451.108,-144.780,110.400,-167.060
165,51992.979000,203.916,74.290,161.792,293.302,-133.460,449.911,-261.780,112.400,-111.060
166,51993.19000,195.071,60.235,162.816,294.153,-140.718,452.741,-377.780,116.400,23.940
167,51993.39000,201.950,43.169,168.960,286.478,-148.206,449.587,-362.780,109.400,77.940
168,51993.79000,199.985,29.114,155.648,290.134,-157.356,447.408,-405.780,57.400,101.940
169,51993.119000,198.019,9.035,160.768,283.391,-165.767,443.241,-448.780,40.400,152.940
170,51993.155000,179.347,8.031,154.624,281.434,-170.392,442.145,-325.780,-5.600,124.940
171,51993.195000,184.261,14.055,146.432,283.120,-185.103,437.856,-340.780,-60.600,71.940
172,51993.241000,189.175,-2.008,158.720,283.933,-194.350,432.687,-382.780,-44.600,40.940
173,51993.277000,186.226,6.024,143.360,290.563,-193.424,428.738,-271.780,-123.600,-26.060
174,51993.304000,199.002,0.000,152.576,287.605,-201.785,424.577,-314.780,-30.600,8.940
175,51993.344000,185.244,-7.027,156.672,289.482,-202.715,422.571,-290.780,-53.600,-26.060
176,51993.377000,198.019,-2.008,143.360,291.252,-211.052,416.428,-149.780,-37.600,-27.060
177,51993.424000,187.209,-2.008,152.576,294.033,-215.537,419.321,-160.780,6.400,-27.060
178,51993.459000,192.123,4.016,169.984,291.149,-218.420,414.282,-158.780,2.400,-48.060
179,51993.497000,198.019,-3.012,162.816,288.394,-212.084,412.423,-19.780,29.400,-59.060
180,51993.519000,176.399,15.059,157.696,293.093,-214.711,415.358,-23.780,-51.600,-74.060
181,51993.554000,210.795,-1.004,180.224,291.236,-212.008,414.418,-105.780,-12.600,7.940
182,51993.610000,203.916,18.071,178.176,289.256,-218.445,414.278,49.220,24.400,-97.060
183,51993.636000,194.088,16.063,166.912,292.192,-211.118,412.449,-20.780,-24.600,-203.060
184,51993.676000,199.985,8.031,152.576,299.696,-215.638,410.375,56.220,-77.600,-144.060
185,51993.716000,202.933,26.102,158.720,300.771,-206.425,412.562,74.220,5.400,-145.060
186,51993.757000,187.209,15.059,158.720,302.785,-197.277,410.770,28.220,-31.600,-159.060
187,51993.786000,201.950,33.129,151.552,305.615,-198.117,412.746,34.220,-4.600,-130.060
188,51993.814000,214.726,20.078,150.528,307.533,-196.260,412.788,3.220,-7.600,-108.060
189,51993.854000,197.036,23.090,145.408,303.707,-199.097,410.733,43.220,-14.600,-67.060
190,51993.894000,203.916,27.106,146.432,302.815,-195.387,413.795,48.220,100.400,-24.060
191,51993.939000,203.916,13.051,155.648,297.182,-192.635,417.823,120.220,140.400,29.940
192,51993.979000,168.537,32.125,158.720,296.317,-187.073,421.919,171.220,181.400,85.940
193,51993.999000,193.106,19.075,159.744,296.311,-187.911,425.880,205.220,129.400,146.940
194,51994.34000,188.192,31.122,160.768,291.563,-189.708,430.808,231.220,117.400,153.940
195,51994.76000,194.088,27.106,162.816,286.874,-186.964,433.843,216.220,102.400,136.940
196,51994.116000,204.898,27.106,161.792,286.031,-179.608,435.988,259.220,67.400,162.940
197,51994.156000,194.088,29.114,159.744,280.436,-174.089,441.070,331.220,134.400,187.940
198,51994.200000,188.192,32.125,167.936,274.840,-168.589,445.157,409.220,114.400,175.940
199,51994.234000,182.296,28.110,153.600,270.167,-164.889,450.202,381.220,27.400,163.940
200,51994.261000,189.175,24.094,155.648,270.213,-162.043,455.236,308.220,75.400,185.940
201,51994.296000,196.054,21.082,146.432,268.398,-156.532,457.340,293.220,9.400,167.940
202,51994.340000,193.106,22.086,143.360,263.631,-159.324,458.268,233.220,50.400,150.940
203,51994.380000,199.002,23.090,151.552,257.119,-151.946,465.378,208.220,166.400,118.940
204,51994.419000,194.088,19.075,161.792,255.289,-147.390,465.472,181.220,138.400,48.940
205,51994.460000,187.209,35.137,155.648,251.557,-143.736,467.534,155.220,133.400,7.940
206,51994.480000,203.916,29.114,159.744,249.680,-142.806,469.540,166.220,130.400,-52.060
207,51994.526000,199.002,49.192,165.888,247.881,-136.340,473.654,166.220,147.400,-129.060
208,51994.555000,201.950,63.247,157.696,244.103,-136.312,477.627,88.220,137.400,-173.060
209,51994.595000,192.123,58.227,153.600,242.180,-138.228,474.600,-60.780,86.400,-256.060
210,51994.635000,186.226,60.235,162.816,242.255,-132.731,474.717,-58.780,123.400,-248.060
211,51994.675000,194.088,45.176,169.984,237.536,-131.878,474.728,-119.780,43.400,-208.060
212,51994.715000,180.330,55.216,187.392,238.548,-127.245,476.817,-155.780,91.400,-208.060
213,51994.735000,208.829,16.063,203.776,237.563,-130.026,475.762,-234.780,-53.600,-188.060
214,51994.775000,191.140,21.082,189.440,241.270,-135.512,473.661,-74.780,-146.600,-200.060
215,51994.831000,200.967,23.090,193.536,241.240,-137.402,470.637,-30.780,-174.600,-168.060
216,51994.860000,199.002,-1.004,187.392,247.046,-128.127,472.832,220.220,-243.600,-73.060
217,51994.900000,175.417,28.110,192.512,250.889,-123.555,469.952,372.220,-180.600,-37.060
218,51994.944000,165.589,25.098,182.272,257.697,-109.764,468.266,433.220,-278.600,-5.060
219,51994.962000,157.727,71.278,186.368,263.437,-105.109,468.373,430.220,-247.600,-72.060
220,51995.0,157.727,81.318,186.368,269.228,-96.789,468.559,337.220,-259.600,-129.060
221,51995.42000,168.537,86.337,174.080,273.126,-88.493,468.741,97.220,-211.600,-111.060
222,51995.83000,174.434,90.353,183.296,279.765,-86.691,462.822,-77.780,-240.600,-66.060
223,51995.116000,168.537,52.204,177.152,288.150,-95.818,458.661,-304.780,-342.600,-20.060
224,51995.159000,179.347,66.259,143.360,296.592,-100.422,451.613,-320.780,-443.600,-88.060
225,51995.199000,172.468,57.224,149.504,305.063,-103.156,446.595,-485.780,-338.600,-115.060
226,51995.220000,190.157,44.173,144.384,310.487,-120.683,436.283,-572.780,-349.600,-63.060
227,51995.259000,189.175,48.188,139.264,317.969,-126.235,428.219,-592.780,-277.600,-122.060
228,51995.300000,189.175,28.110,149.504,325.444,-132.646,423.120,-603.780,-246.600,-154.060
229,51995.342000,204.898,46.180,144.384,329.073,-142.888,411.967,-376.780,-181.600,-207.060
230,51995.379000,193.106,69.271,146.432,331.921,-141.973,410.001,-527.780,-145.600,-308.060
231,51995.415000,196.054,36.141,155.648,340.339,-148.410,402.914,-641.780,-225.600,-271.060
232,51995.435000,200.967,58.227,141.312,348.792,-152.119,394.891,-478.780,-188.600,-314.060
233,51995.475000,196.054,67.263,129.024,356.291,-155.937,381.890,-604.780,-242.600,-355.060
234,51995.515000,202.933,53.208,134.144,359.891,-168.830,375.653,-671.780,-184.600,-316.060
235,51995.560000,205.881,63.247,120.832,360.828,-168.934,369.685,-679.780,-162.600,-279.060
236,51995.601000,219.639,39.153,121.856,367.373,-173.623,359.648,-770.780,-67.600,-245.060
237,51995.641000,229.466,41.161,124.928,372.839,-188.342,352.380,-650.780,10.400,-236.060
238,51995.661000,205.881,43.169,144.384,372.851,-186.666,344.459,-575.780,78.400,-243.060
239,51995.701000,207.846,20.078,139.264,375.486,-201.326,342.162,-629.780,40.400,-140.060
240,51995.740000,190.157,32.125,139.264,375.473,-201.482,334.201,-496.780,76.400,-181.060
241,51995.779000,210.795,27.106,147.456,373.532,-205.152,335.115,-437.780,-18.600,-158.060
242,51995.820000,206.864,44.173,141.312,375.413,-205.264,328.153,-456.780,31.400,-172.060
243,51995.860000,208.829,27.106,149.504,378.081,-217.234,322.929,-468.780,27.400,-135.060
244,51995.909000,204.898,31.122,144.384,379.976,-216.410,316.981,-492.780,-49.600,-141.060
245,51995.926000,196.054,19.075,144.384,378.852,-228.507,307.771,-493.780,-51.600,-104.060
246,51995.960000,189.175,11.043,153.600,381.663,-230.341,305.746,-503.780,-61.600,-73.060
247,51996.0,186.226,5.020,150.528,382.582,-231.420,296.773,-439.780,-85.600,-47.060
248,51996.40000,193.106,6.024,145.408,381.524,-238.899,289.650,-417.780,-104.600,-15.060
249,51996.80000,209.812,7.027,149.504,386.156,-245.386,282.556,-301.780,-98.600,-7.060
250,51996.120000,243.225,-1.004,140.288,389.886,-249.059,279.500,-220.780,-123.600,-43.060
251,51996.140000,221.605,-37.145,152.576,387.021,-250.948,278.461,-135.780,51.400,32.940
252,51996.180000,217.674,-51.200,153.600,388.949,-248.194,277.527,73.220,60.400,117.940
253,51996.219000,227.501,-21.082,143.360,381.378,-249.074,284.460,447.220,170.400,70.940
254,51996.259000,210.795,-7.027,163.840,382.447,-241.459,298.548,572.220,276.400,0.940
255,51996.296000,209.812,7.027,167.936,377.029,-223.874,311.845,710.220,163.400,-27.060
256,51996.340000,190.157,31.122,144.384,379.058,-214.551,319.009,668.220,87.400,-93.060
257,51996.380000,193.106,22.086,141.312,379.198,-205.214,328.160,636.220,32.400,-44.060
258,51996.399000,202.933,49.192,152.576,376.462,-198.663,337.247,749.220,63.400,-18.060
259,51996.440000,190.157,51.200,144.384,377.629,-182.978,342.555,657.220,13.400,-20.060
260,51996.480000,186.226,56.220,142.336,377.630,-183.738,350.496,518.220,0.400,-3.060
261,51996.525000,186.226,59.231,152.576,377.781,-172.725,351.726,471.220,9.400,36.940
262,51996.559000,194.088,53.208,149.504,377.838,-168.983,355.784,328.220,-71.600,42.940
263,51996.597000,189.175,69.271,134.144,379.777,-165.332,353.875,260.220,-96.600,0.940
264,51996.625000,203.916,60.235,141.312,381.811,-155.191,356.083,90.220,-83.600,-30.060
265,51996.659000,191.140,53.208,140.288,379.926,-155.118,361.055,-22.780,-61.600,-6.060
266,51996.696000,183.278,55.216,144.384,378.943,-157.099,354.049,3.220,-10.600,1.940
267,51996.747000,199.985,51.200,137.216,381.729,-160.765,351.986,-9.780,-65.600,-15.060
268,51996.778000,193.106,50.196,148.480,383.659,-157.992,352.048,-14.780,27.400,-17.060
269,51996.827000,225.536,65.255,137.216,383.629,-159.883,349.024,13.220,-53.600,-56.060
270,51996.860000,212.760,60.235,143.360,385.600,-154.322,351.134,-87.780,87.400,-102.060
271,51996.881000,216.691,67.263,133.120,381.731,-160.746,352.981,-26.780,94.400,-20.060
272,51996.919000,198.019,59.231,147.456,379.821,-162.506,357.914,-113.780,173.400,-30.060
273,51996.959000,188.192,47.184,151.552,375.168,-157.032,360.013,-87.780,167.400,69.940
274,51997.0,202.933,63.247,139.264,371.263,-166.185,362.796,-75.780,208.400,128.940
275,51997.39000,190.157,40.157,152.576,366.461,-171.686,365.656,-151.780,193.400,156.940
276,51997.81000,202.933,46.180,145.408,359.842,-171.715,368.629,-86.780,176.400,175.940
277,51997.102000,178.365,40.157,159.744,358.848,-175.372,369.545,-117.780,232.400,130.940
278,51997.142000,194.088,44.173,155.648,353.982,-185.473,371.312,-128.780,156.400,95.940
279,51997.182000,182.296,41.161,160.768,348.223,-191.883,375.145,-255.780,119.400,69.940
280,51997.221000,187.209,20.078,169.984,350.059,-195.601,371.090,-208.780,110.400,105.940
281,51997.262000,192.123,26.102,163.840,342.492,-195.662,373.067,-193.780,55.400,59.940
282,51997.297000,194.088,26.102,156.672,343.378,-199.431,367.021,-253.780,-51.600,20.940
283,51997.337000,186.226,31.122,144.384,348.055,-203.091,363.966,-269.780,-95.600,-22.060
284,51997.357000,220.622,40.157,140.288,347.909,-213.266,358.776,-369.780,-112.600,-67.060
285,51997.405000,208.829,31.122,122.880,346.870,-219.750,355.652,-363.780,-94.600,-35.060
286,51997.437000,199.985,34.133,119.808,353.408,-225.296,348.581,-285.780,-38.600,-46.060
287,51997.481000,212.760,30.118,117.760,352.481,-223.535,345.634,-342.780,-2.600,32.940
288,51997.519000,197.036,15.059,82.944,349.595,-226.438,339.600,-267.780,-71.600,76.940
289,51997.561000,203.916,25.098,125.952,345.715,-232.979,335.476,-347.780,146.400,116.940
290,51997.584000,207.846,-28.110,148.480,336.031,-249.556,337.098,-261.780,239.400,276.940
291,51997.617000,186.226,3.012,166.912,327.436,-255.964,342.917,89.220,296.400,339.940
292,51997.661000,199.002,-4.016,216.064,314.096,-263.370,347.713,-70.780,331.400,393.940
293,51997.701000,190.157,-38.149,214.016,305.619,-260.715,348.751,175.220,211.400,337.940
294,51997.743000,179.347,10.039,219.136,301.831,-261.564,354.696,316.220,143.400,197.940
295,51997.777000,188.192,5.020,222.208,299.923,-263.304,360.624,134.220,-39.600,206.940
296,51997.822000,177.382,21.082,197.632,298.008,-264.362,354.630,80.220,-172.600,142.940
297,51997.842000,182.296,12.047,206.848,301.824,-262.422,357.661,-5.780,-197.600,144.940
298,51997.884000,184.261,4.016,190.464,298.937,-265.325,351.627,70.220,-289.600,155.940
299,51997.922000,175.417,9.035,190.464,300.771,-269.062,346.577,-34.780,-263.600,125.940
300,51997.964000,174.434,15.059,204.800,302.673,-268.160,344.610,-72.780,-298.600,101.940
301,51998.0,163.624,15.059,199.680,305.342,-279.350,332.440,-153.780,-385.600,156.940
302,51998.37000,184.261,-34.133,191.488,313.817,-281.265,322.466,-293.780,-365.600,189.940
303,51998.57000,184.261,-11.043,182.272,314.635,-290.453,320.282,4.220,-289.600,228.940
304,51998.97000,186.226,-24.094,178.176,313.700,-289.569,319.305,31.220,-318.600,188.940
305,51998.142000,207.846,-38.149,149.504,314.523,-297.918,313.161,174.220,-365.600,225.940
306,51998.200000,200.967,-25.098,123.904,315.603,-288.647,318.333,467.220,-237.600,249.940
307,51998.225000,205.881,-32.125,148.480,315.556,-292.272,320.245,512.220,-128.600,265.940
308,51998.261000,199.985,-32.125,123.904,315.731,-280.226,327.464,514.220,-258.600,178.940
309,51998.302000,191.140,-4.016,125.952,313.896,-276.489,332.514,657.220,-120.600,201.940
310,51998.322000,193.106,-13.051,143.360,315.816,-275.372,341.492,561.220,-112.600,183.940
311,51998.364000,192.123,-20.078,138.240,317.823,-267.082,342.666,398.220,-197.600,131.940
312,51998.405000,204.898,-7.027,135.168,316.835,-270.662,347.562,455.220,-111.600,123.940
313,51998.439000,214.726,-28.110,137.216,314.167,-258.692,352.786,436.220,-122.600,134.940
314,51998.484000,219.639,-19.075,137.216,314.326,-247.601,357.995,585.220,-25.600,171.940
315,51998.529000,210.795,-24.094,134.144,313.436,-243.871,362.052,443.220,-31.600,132.940
316,51998.546000,213.743,-3.012,109.568,314.446,-240.038,370.092,543.220,-77.600,113.940
317,51998.589000,202.933,-3.012,134.144,313.656,-228.979,374.305,424.220,35.400,111.940
318,51998.621000,206.864,-6.024,141.312,308.879,-232.647,377.204,333.220,-6.600,77.940
319,51998.661000,199.985,10.039,131.072,309.959,-223.376,382.376,423.220,83.400,-7.060
320,51998.702000,205.881,17.067,152.576,312.007,-212.298,385.598,365.220,44.400,0.940
321,51998.747000,238.311,-12.047,147.456,308.246,-211.296,392.577,415.220,-45.600,54.940
322,51998.782000,220.622,22.086,129.024,310.345,-196.535,396.872,576.220,-30.600,41.940
323,51998.802000,229.466,18.071,124.928,313.284,-189.168,397.034,387.220,-109.600,23.940
324,51998.852000,235.363,14.055,119.808,314.287,-185.413,401.093,287.220,-71.600,18.940
325,51998.884000,208.829,33.129,113.664,313.355,-184.490,402.106,204.220,-16.600,26.940
326,51998.922000,196.054,16.063,121.856,311.567,-177.127,405.244,188.220,-48.600,42.940
327,51998.962000,212.760,37.145,119.808,312.526,-176.198,405.266,132.220,20.400,15.940
328,51999.2000,208.829,31.122,136.192,315.377,-175.245,405.290,26.220,10.400,-7.060
329,51999.22000,222.587,39.153,131.072,316.249,-180.729,405.175,-41.780,11.400,-36.060
330,51999.65000,213.743,46.180,137.216,315.390,-174.329,405.310,-218.780,63.400,-88.060
331,51999.99000,217.674,29.114,143.360,317.222,-178.865,406.210,-284.780,38.400,-104.060
332,51999.144000,226.518,43.169,119.808,317.151,-183.543,401.137,-241.780,46.400,-158.060
333,51999.184000,230.449,45.176,128.000,314.285,-185.432,400.098,-382.780,93.400,-169.060
334,51999.225000,214.726,20.078,128.000,316.065,-193.653,399.926,-444.780,43.400,-63.060
335,51999.244000,203.916,5.020,121.856,316.889,-202.002,393.782,-347.780,87.400,-23.060
336,51999.281000,217.674,32.125,130.048,314.934,-206.608,393.681,-358.780,72.400,-112.060
337,51999.341000,217.674,4.016,143.360,314.884,-210.273,393.603,-464.780,118.400,-94.060
338,51999.365000,207.846,16.063,129.024,313.809,-219.485,391.416,-350.780,157.400,-52.060
339,51999.399000,204.898,17.067,132.096,311.787,-228.730,388.232,-395.780,119.400,-103.060
340,51999.441000,202.933,7.027,131.072,308.002,-228.001,381.280,-368.780,88.400,-33.060
341,51999.482000,194.088,12.047,137.216,307.968,-230.710,383.211,-331.780,115.400,-5.060
342,51999.502000,206.864,1.004,143.360,303.114,-239.135,377.057,-313.780,101.400,23.940
343,51999.542000,197.036,-4.016,144.384,300.239,-241.901,377.988,-257.780,100.400,61.940
344,51999.584000,206.864,-14.055,146.432,297.250,-252.932,377.749,-198.780,87.400,92.940
345,51999.624000,187.209,-4.016,150.528,295.349,-253.055,372.771,-161.780,35.400,50.940
346,51999.661000,185.244,-13.051,165.888,293.441,-254.035,370.758,-107.780,34.400,75.940
347,51999.701000,202.933,-19.075,153.600,295.234,-261.339,370.605,-70.780,-25.600,93.940
348,51999.729000,201.950,-15.059,165.888,290.532,-259.511,373.621,-6.780,55.400,63.940
349,51999.770000,203.916,-38.149,163.840,291.478,-259.498,373.622,2.220,24.400,94.940
350,51999.808000,198.019,-32.125,165.888,285.825,-257.741,373.651,65.220,28.400,128.940
351,51999.844000,213.743,-38.149,158.720,284.838,-260.541,371.601,196.220,-15.600,120.940
352,51999.884000,204.898,-29.114,156.672,283.964,-255.856,377.667,234.220,29.400,86.940
353,51999.924000,212.760,-22.086,153.600,282.975,-259.455,381.568,244.220,14.400,35.940
354,51999.970000,199.985,-17.067,141.312,282.196,-247.499,384.805,259.220,5.400,-52.060
355,51999.992000,207.846,0.000,145.408,285.969,-248.365,384.792,243.220,32.400,-77.060
356,52000.20000,210.795,-5.020,152.576,285.107,-242.764,390.878,226.220,49.400,-109.060
357,52000.61000,199.985,-3.012,149.504,282.391,-234.439,397.019,281.220,73.400,-124.060
358,52000.100000,197.036,11.043,153.600,286.294,-226.085,400.186,182.220,103.400,-132.060
359,52000.144000,200.967,9.035,160.768,283.527,-221.425,406.249,198.220,117.400,-148.060
360,52000.185000,196.054,19.075,157.696,282.700,-213.114,410.404,169.220,107.400,-160.060
361,52000.205000,199.002,14.055,155.648,284.546,-216.715,412.319,184.220,64.400,-121.060
362,52000.240000,193.106,9.035,154.624,288.338,-216.587,416.306,249.220,30.400,-71.060
363,52000.281000,187.209,24.094,147.456,285.713,-201.030,417.628,316.220,23.400,-39.060
364,52000.330000,181.313,18.071,146.432,286.702,-198.211,420.673,326.220,-86.600,-11.060
365,52000.365000,207.846,37.145,136.192,292.606,-182.406,428.975,378.220,-28.600,-45.060
366,52000.405000,215.708,39.153,150.528,289.829,-177.862,429.068,359.220,73.400,-22.060
367,52000.456000,202.933,36.141,133.120,289.933,-170.494,431.214,373.220,21.400,5.940
368,52000.466000,207.846,56.220,150.528,285.322,-162.214,436.357,240.220,98.400,-35.060
369,52000.504000,225.536,47.184,148.480,289.157,-158.499,436.441,202.220,25.400,-72.060
370,52000.542000,199.002,44.173,133.120,289.087,-163.938,439.309,158.220,38.400,-134.060
371,52000.584000,208.829,50.196,135.168,284.484,-154.800,441.486,158.220,63.400,-123.060
372,52000.626000,202.933,42.165,133.120,283.677,-144.715,442.694,80.220,36.400,-159.060
373,52000.663000,214.726,53.208,132.096,284.587,-147.432,443.633,47.220,115.400,-198.060
374,52000.690000,204.898,56.220,140.288,282.731,-144.728,442.693,-56.780,121.400,-252.060
375,52000.737000,203.916,39.153,133.120,282.806,-139.231,442.810,-193.780,83.400,-244.060
376,52000.764000,204.898,35.137,162.816,279.968,-139.249,443.800,-232.780,190.400,-250.060
377,52000.816000,202.933,37.145,163.840,275.132,-146.699,440.650,-285.780,-28.600,-320.060
378,52000.845000,199.985,18.071,159.744,286.561,-141.072,439.792,-164.780,-68.600,-362.060
379,52000.885000,218.656,-8.031,183.296,287.411,-147.570,434.682,-225.780,-180.600,-250.060
380,52000.924000,200.967,33.129,181.248,293.238,-136.521,433.931,178.220,-226.600,-283.060
381,52000.944000,198.019,61.239,185.344,297.057,-133.761,432.006,231.220,-217.600,-317.060
382,52000.985000,188.192,41.161,195.584,305.667,-126.398,428.197,151.220,-255.600,-228.060
383,52001.21000,181.313,89.349,182.272,309.581,-117.148,430.389,332.220,-237.600,-334.060
384,52001.63000,162.641,93.365,189.440,318.273,-104.209,430.677,60.220,-211.600,-271.060
385,52001.105000,158.710,95.373,159.744,322.118,-98.838,421.846,12.220,-257.600,-146.060
386,52001.141000,167.555,93.365,151.552,331.510,-103.391,416.790,-241.780,-267.600,-96.060
387,52001.162000,185.244,68.267,130.048,333.340,-107.947,416.695,-436.780,-356.600,-17.060
388,52001.206000,181.313,83.325,116.736,340.719,-120.868,406.485,-490.780,-285.600,-18.060
389,52001.245000,193.106,72.282,139.264,344.339,-131.987,397.302,-665.780,-191.600,35.940
390,52001.290000,194.088,25.098,138.240,351.687,-147.579,391.013,-672.780,-168.600,46.940
391,52001.326000,194.088,31.122,142.336,350.652,-153.244,382.934,-501.780,-154.600,20.940
392,52001.370000,207.846,1.004,136.192,354.337,-159.763,374.843,-507.780,-161.600,18.940
393,52001.406000,214.726,57.224,128.000,358.913,-170.753,371.632,-259.780,-120.600,-178.060
394,52001.426000,205.881,39.153,162.816,356.034,-173.578,369.579,-555.780,-28.600,-278.060
395,52001.466000,209.812,22.086,121.856,366.494,-168.996,362.729,-318.780,-143.600,-134.060
396,52001.501000,204.898,61.239,146.432,364.495,-176.428,358.590,-404.780,80.400,-427.060
397,52001.546000,212.760,62.243,162.816,370.247,-170.856,358.717,-403.780,10.400,-309.060
398,52001.582000,186.226,48.188,120.832,375.032,-166.330,352.852,-262.780,-36.600,-270.060
399,52001.625000,197.036,39.153,126.976,371.205,-169.168,350.797,-368.780,-37.600,-348.060
400,52001.652000,200.967,60.235,149.504,381.556,-172.792,345.762,-352.780,10.400,-366.060
401,52001.685000,209.812,83.325,150.528,383.472,-170.955,344.809,-374.780,29.400,-358.060
402,52001.727000,193.106,64.251,150.528,385.407,-167.363,339.915,-514.780,14.400,-348.060
403,52001.762000,195.071,74.290,144.384,387.334,-164.628,337.987,-444.780,-39.600,-298.060
404,52001.805000,195.071,66.259,141.312,391.066,-167.502,328.980,-498.780,-84.600,-281.060
405,52001.846000,201.950,58.227,149.504,393.814,-173.917,326.858,-441.780,-54.600,-242.060
406,52001.881000,197.036,61.239,134.144,397.597,-173.126,317.929,-420.780,-94.600,-165.060
407,52001.901000,196.054,66.259,130.048,399.344,-183.276,312.742,-448.780,-92.600,-173.060
408,52001.941000,205.881,61.239,143.360,400.221,-187.923,308.666,-525.780,-88.600,-107.060
409,52001.985000,205.881,60.235,132.096,401.193,-185.298,301.761,-408.780,-109.600,-54.060
410,52002.36000,189.175,43.169,132.096,401.992,-195.480,295.577,-407.780,-95.600,-18.060
411,52002.62000,204.898,22.086,160.768,400.991,-198.436,285.567,-442.780,-22.600,56.940
412,52002.107000,217.674,23.090,168.960,402.787,-205.701,287.404,-178.780,-14.600,125.940
413,52002.127000,224.553,14.055,150.528,401.786,-209.437,284.339,-158.780,-47.600,184.940
414,52002.167000,205.881,-18.071,162.816,395.997,-217.738,285.148,33.220,118.400,219.940
415,52002.215000,200.967,-4.016,178.176,390.276,-221.399,289.041,247.220,63.400,221.940
416,52002.247000,194.088,-3.012,145.408,386.487,-222.268,293.990,348.220,3.400,201.940
417,52002.286000,220.622,28.110,167.936,387.456,-221.222,299.981,504.220,128.400,116.940
418,52002.326000,207.846,39.153,157.696,383.784,-213.787,308.091,608.220,91.400,165.940
419,52002.351000,200.967,36.141,134.144,387.663,-207.246,312.215,653.220,-6.600,201.940
420,52002.401000,210.795,41.161,141.312,379.290,-197.982,323.340,688.220,43.400,180.940
421,52002.436000,205.881,57.224,140.288,378.466,-189.632,329.485,675.220,-7.600,216.940
422,52002.470000,198.019,56.220,140.288,371.941,-183.170,336.575,641.220,25.400,189.940
423,52002.504000,198.019,68.267,144.384,372.926,-181.170,344.576,651.220,43.400,191.940
424,52002.557000,201.950,43.169,149.504,370.176,-174.775,345.703,462.220,18.400,291.940
425,52002.586000,192.123,59.231,134.144,368.293,-174.682,351.670,553.220,-7.600,259.940
426,52002.611000,196.054,61.239,138.240,362.704,-169.105,359.737,397.220,-33.600,233.940
427,52002.643000,199.985,39.153,145.408,361.654,-176.485,357.590,316.220,-22.600,297.940
428,52002.695000,198.019,51.200,128.000,362.696,-169.962,362.703,419.220,-80.600,300.940
429,52002.725000,201.950,49.192,146.432,361.698,-173.659,361.628,166.220,31.400,236.940
430,52002.762000,199.002,37.145,125.952,355.974,-177.359,363.530,161.220,-118.600,222.940
431,52002.807000,193.106,32.125,146.432,354.103,-175.591,361.576,-38.780,-16.600,163.940
432,52002.831000,206.864,23.090,157.696,357.835,-179.245,359.514,-48.780,-25.600,207.940
433,52002.870000,227.501,36.141,122.880,354.010,-182.062,358.454,-33.780,-44.600,102.940
434,52002.902000,223.570,30.118,143.360,353.048,-183.030,356.443,-105.780,25.400,94.940
435,52002.958000,227.501,36.141,130.048,350.150,-187.609,358.330,-122.780,29.400,77.940
436,52003.14000,214.726,9.035,124.928,347.214,-194.937,360.159,-145.780,111.400,49.940
437,52003.31000,215.708,22.086,129.024,346.306,-192.201,360.216,-111.780,159.400,76.940
438,52003.67000,210.795,17.067,130.048,340.515,-200.521,360.031,-113.780,177.400,17.940
439,52003.96000,206.864,12.047,128.000,341.520,-196.747,365.086,35.220,228.400,9.940
440,52003.124000,205.881,43.169,139.264,335.858,-195.866,367.085,-76.780,277.400,-27.060
441,52003.165000,195.071,25.098,163.840,331.929,-206.832,370.825,-175.780,266.400,-72.060
442,52003.214000,196.054,35.137,152.576,326.316,-202.307,371.907,-111.780,185.400,-123.060
443,52003.246000,184.261,37.145,155.648,330.071,-204.148,368.890,-279.780,159.400,-134.060
444,52003.286000,189.175,36.141,159.744,325.293,-207.836,370.793,-278.780,95.400,-128.060
445,52003.309000,187.209,36.141,159.744,329.033,-211.392,373.707,-372.780,69.400,-167.060
446,52003.348000,194.088,30.118,155.648,329.917,-215.180,366.665,-412.780,-52.600,-82.060
447,52003.387000,200.967,37.145,146.432,327.877,-225.400,360.477,-438.780,17.400,-155.060
448,52003.428000,203.916,25.098,154.624,330.719,-224.563,354.531,-517.780,-34.600,-136.060
449,52003.472000,201.950,15.059,138.240,332.464,-234.733,348.350,-486.780,-63.600,-107.060
450,52003.506000,199.985,2.008,160.768,335.205,-241.225,342.248,-449.780,33.400,-84.060
451,52003.547000,200.967,-4.016,159.744,333.276,-243.219,335.240,-534.780,-51.600,-26.060
452,52003.567000,186.226,-10.039,148.480,335.043,-251.595,327.107,-326.780,-62.600,-62.060
453,52003.632000,209.812,-6.024,156.672,337.892,-250.661,326.137,-260.780,-51.600,-54.060
454,52003.659000,213.743,-3.012,143.360,341.643,-252.561,320.134,-133.780,-122.600,-0.060
455,52003.689000,225.536,17.067,118.784,340.693,-252.612,318.142,-84.780,-170.600,-33.060
456,52003.723000,231.432,3.012,123.904,337.735,-260.973,313.981,-188.780,-106.600,24.940
457,52003.768000,235.363,29.114,130.048,339.671,-257.362,310.082,-17.780,16.400,120.940
458,52003.787000,234.380,42.165,144.384,337.633,-268.322,312.830,81.220,-41.600,136.940
459,52003.837000,176.399,23.090,140.288,336.723,-265.605,311.892,-47.780,-94.600,212.940
460,52003.866000,187.209,15.059,181.248,333.838,-268.489,306.853,-24.780,-88.600,240.940
461,52003.908000,182.296,12.047,174.080,329.069,-271.300,306.786,-7.780,-122.600,219.940
462,52003.944000,215.708,7.027,202.752,323.318,-276.852,307.654,-23.780,62.400,227.940
463,52003.986000,185.244,25.098,194.560,322.359,-277.781,307.633,-19.780,51.400,120.940
464,52004.7000,188.192,22.086,192.512,318.497,-283.347,306.514,-159.780,-24.600,84.940
465,52004.45000,180.330,12.047,186.368,318.469,-285.218,304.485,63.220,-46.600,105.940
466,52004.87000,183.278,16.063,162.816,312.708,-291.648,307.324,8.220,-49.600,181.940
467,52004.128000,192.123,-2.008,152.576,313.534,-299.978,302.174,134.220,-95.600,266.940
468,52004.168000,171.486,12.047,154.624,312.712,-291.608,309.314,415.220,-200.600,285.940
469,52004.203000,200.967,-14.055,183.296,306.957,-297.200,308.192,324.220,-100.600,338.940
470,52004.243000,174.434,4.016,157.696,298.555,-289.808,317.288,508.220,-78.600,423.940
471,52004.270000,183.278,14.055,157.696,291.874,-294.417,320.164,380.220,66.400,550.940
472,52004.306000,172.468,-15.059,182.272,283.336,-297.083,330.041,391.220,47.400,548.940
473,52004.355000,191.140,-23.090,174.080,272.844,-303.575,332.871,432.220,0.400,651.940
474,52004.383000,184.261,-53.208,163.840,268.146,-301.708,337.877,442.220,-53.600,659.940
475,52004.423000,173.451,-37.145,164.864,254.845,-306.346,343.727,391.220,-107.600,626.940
476,52004.464000,192.123,-65.255,156.672,251.013,-310.022,345.632,464.220,-48.600,659.940
477,52004.484000,200.967,-72.282,145.408,241.638,-304.494,353.693,537.220,-39.600,669.940
478,52004.524000,202.933,-75.294,146.432,234.981,-308.051,363.554,691.220,-1.600,599.940
479,52004.564000,182.296,-65.255,147.456,221.933,-294.328,371.784,629.220,59.400,577.940
480,52004.608000,201.950,-78.306,162.816,215.337,-293.323,380.747,566.220,34.400,520.940
481,52004.650000,196.054,-91.357,135.168,211.665,-285.888,388.857,696.220,43.400,435.940
482,52004.690000,194.088,-69.271,158.720,201.315,-283.023,401.833,656.220,113.400,361.940
483,52004.735000,174.434,-71.278,149.504,200.457,-277.383,409.909,641.220,-9.600,137.940
484,52004.749000,218.656,-58.227,145.408,201.615,-262.576,417.188,533.220,-36.600,72.940
485,52004.786000,224.553,-30.118,152.576,201.800,-249.633,423.432,438.220,34.400,-19.060
486,52004.840000,218.656,-56.220,156.672,204.631,-250.453,426.402,197.220,-48.600,-15.060
487,52004.873000,214.726,-23.090,136.192,205.667,-244.008,427.536,252.220,-64.600,-68.060
488,52004.907000,200.967,-19.075,146.432,204.847,-234.840,428.724,69.220,-22.600,-154.060
489,52004.953000,200.967,-18.071,144.384,213.401,-231.979,428.798,193.220,-151.600,-206.060
490,52004.966000,196.054,1.004,141.312,220.070,-229.065,432.848,147.220,-103.600,-275.060
491,52005.20000,205.881,7.027,145.408,228.697,-220.727,432.044,-3.780,-103.600,-267.060
492,52005.46000,206.864,-4.016,143.360,230.499,-227.154,429.920,85.220,-26.600,-210.060
493,52005.93000,206.864,15.059,150.528,227.778,-218.887,433.076,107.220,17.400,-201.060
494,52005.126000,214.726,7.027,149.504,235.461,-210.542,433.265,29.220,-18.600,-191.060
495,52005.178000,205.881,21.082,152.576,236.384,-212.342,434.223,17.220,65.400,-187.060
496,52005.210000,209.812,18.071,142.336,237.389,-207.788,432.332,-153.780,-3.600,-218.060
497,52005.232000,208.829,14.055,138.240,239.216,-212.383,430.248,-256.780,50.400,-251.060
498,52005.266000,225.536,6.024,158.720,240.160,-212.390,429.254,-326.780,83.400,-268.060
499,52005.317000,192.123,-2.008,144.384,243.796,-223.333,429.027,-319.780,84.400,-265.060
500,52005.346000,187.209,40.157,149.504,245.733,-219.702,426.123,-309.780,102.400,-376.060
501,52005.391000,206.864,-3.012,165.888,241.852,-226.263,421.004,-422.780,119.400,-333.060
502,52005.431000,196.054,5.020,159.744,246.580,-226.240,419.023,-432.780,79.400,-237.060
503,52005.447000,188.192,0.000,156.672,249.311,-233.629,413.896,-499.780,66.400,-188.060
504,52005.496000,192.123,-2.008,156.672,249.154,-244.700,409.682,-388.780,-10.600,-213.060
505,52005.525000,194.088,0.000,153.600,252.010,-242.928,404.750,-381.780,-20.600,-218.060
506,52005.578000,191.140,-5.020,167.936,256.541,-256.764,396.506,-460.780,-21.600,-148.060
507,52005.605000,196.054,-14.055,157.696,258.428,-256.797,393.524,-342.780,-32.600,-127.060
508,52005.661000,182.296,-1.004,157.696,258.434,-255.959,389.563,-311.780,-55.600,-168.060
509,52005.691000,183.278,-3.012,157.696,264.004,-263.311,384.442,-315.780,-102.600,-148.060
510,52005.705000,199.002,-11.043,160.768,266.783,-267.055,378.398,-230.780,-69.600,-127.060
511,52005.746000,190.157,-5.020,158.720,267.701,-268.914,376.371,-230.780,-80.600,-117.060
512,52005.786000,203.916,-23.090,151.552,272.310,-277.214,370.233,-157.780,-93.600,-58.060
513,52005.826000,189.175,-9.035,148.480,270.476,-272.697,368.337,-47.780,-42.600,-54.060
514,52005.867000,204.898,0.000,172.032,273.279,-275.388,369.279,-66.780,19.400,-53.060
515,52005.911000,212.760,-11.043,162.816,277.088,-273.526,368.329,38.220,-56.600,-53.060
516,52005.931000,196.054,-12.047,144.384,274.376,-264.382,369.515,57.220,0.400,-12.060
517,52005.972000,218.656,-23.090,154.624,275.293,-267.021,374.433,83.220,11.400,45.940
518,52006.9000,201.950,-11.043,158.720,274.406,-262.491,372.539,129.220,51.400,-14.060
519,52006.55000,199.985,-3.012,153.600,272.529,-261.561,374.545,82.220,72.400,-64.060
520,52006.91000,192.123,-13.051,156.672,273.532,-257.806,378.605,60.220,65.400,-67.060
521,52006.126000,187.209,-10.039,158.720,273.562,-255.915,381.629,48.220,68.400,-61.060
522,52006.146000,188.192,-2.008,152.576,268.882,-252.294,382.694,121.220,93.400,-75.060
523,52006.191000,200.967,-3.012,164.864,272.710,-249.437,385.744,128.220,110.400,-93.060
524,52006.227000,198.019,-2.008,155.648,272.658,-253.121,384.671,140.220,72.400,-84.060
525,52006.283000,201.950,5.020,159.744,267.058,-248.440,393.714,191.220,129.400,-83.060
526,52006.307000,195.071,10.039,163.840,269.107,-237.343,397.932,173.220,125.400,-113.060
527,52006.348000,186.226,14.055,156.672,266.273,-237.322,400.912,221.220,119.400,-77.060
528,52006.390000,186.226,21.082,154.624,266.369,-230.811,406.024,199.220,122.400,-67.060
529,52006.406000,195.071,22.086,161.792,265.538,-222.540,408.188,168.220,116.400,-64.060
530,52006.446000,191.140,17.067,159.744,261.761,-222.492,413.157,164.220,67.400,-34.060
531,52006.491000,198.019,21.082,168.960,262.711,-222.441,415.149,190.220,112.400,-11.060
532,52006.531000,188.192,18.071,148.480,264.684,-216.860,418.254,170.220,40.400,1.940
533,52006.571000,197.036,20.078,165.888,258.168,-209.521,423.374,209.220,102.400,59.940
534,52006.606000,198.019,22.086,165.888,259.127,-208.592,423.395,208.220,62.400,43.940
535,52006.626000,188.192,13.051,149.504,256.359,-203.952,428.463,272.220,39.400,39.940
536,52006.678000,199.002,28.110,156.672,251.746,-195.691,432.611,274.220,120.400,49.940
537,52006.706000,186.226,30.118,158.720,251.789,-192.884,435.654,307.220,57.400,-4.060
538,52006.747000,196.054,41.161,148.480,246.168,-189.216,439.703,314.220,104.400,-8.060
539,52006.790000,182.296,51.200,172.032,239.598,-185.581,442.754,194.220,155.400,-38.060
540,52006.830000,180.330,53.208,164.864,243.510,-176.350,443.951,162.220,91.400,-84.060
541,52006.870000,192.123,46.180,172.032,237.862,-174.534,446.965,195.220,209.400,-67.060
542,52006.887000,184.261,56.220,197.632,234.161,-168.990,452.051,95.220,184.400,-89.060
543,52006.936000,185.244,44.173,183.296,230.304,-174.498,453.917,101.220,121.400,-123.060
544,52006.971000,178.365,45.176,179.200,226.654,-164.490,453.130,60.220,66.400,-132.060
545,52007.6000,181.313,33.129,181.248,227.640,-161.709,454.186,-26.780,-62.600,-158.060
546,52007.46000,196.054,24.094,181.248,231.482,-157.137,451.305,-2.780,-96.600,-180.060
547,52007.87000,192.123,10.039,192.512,234.241,-162.655,448.207,-73.780,-155.600,-137.060
548,52007.107000,192.123,-27.106,174.080,241.853,-159.767,450.269,151.220,-251.600,-201.060
549,52007.151000,194.088,23.090,178.176,244.815,-150.588,449.474,462.220,-297.600,-288.060
550,52007.201000,197.036,62.243,185.344,255.448,-133.980,448.849,524.220,-286.600,-338.060
551,52007.232000,180.330,117.459,172.032,261.393,-114.607,452.254,422.220,-198.600,-376.060
552,52007.282000,163.624,96.376,184.320,268.026,-113.643,450.295,102.220,-103.600,-229.060
553,52007.311000,160.676,110.431,178.176,268.151,-104.481,450.490,183.220,-131.600,-161.060
554,52007.363000,149.866,103.404,156.672,271.935,-104.451,449.502,27.220,-126.600,-90.060
555,52007.380000,170.503,115.451,134.144,273.838,-103.529,448.530,-243.780,-143.600,-49.060
556,52007.408000,161.658,113.443,113.664,277.470,-114.512,446.312,-305.780,-175.600,-69.060
557,52007.453000,169.520,74.290,156.672,277.360,-121.958,440.186,-469.780,30.400,57.940
558,52007.488000,183.278,73.286,155.648,275.225,-139.448,436.826,-480.780,30.400,160.940
559,52007.531000,166.572,86.337,128.000,269.327,-155.195,431.509,-541.780,2.400,275.940
560,52007.575000,165.589,12.047,176.128,270.107,-167.131,429.267,-871.780,28.400,487.940
561,52007.592000,167.555,3.012,174.080,266.992,-186.564,420.892,-548.780,-46.600,350.940
562,52007.632000,177.382,7.027,175.104,258.265,-201.452,414.594,-605.780,-34.600,315.940
563,52007.670000,192.123,-29.114,190.464,265.617,-216.224,403.350,-547.780,-134.600,251.940
564,52007.707000,200.967,-4.016,171.008,267.236,-235.575,395.978,-414.780,-175.600,40.940
565,52007.757000,205.881,1.004,155.648,264.371,-236.684,387.993,-547.780,-190.600,-17.060
566,52007.791000,200.967,7.027,157.696,269.950,-243.159,380.901,-672.780,-145.600,-111.060
567,52007.812000,205.881,-18.071,177.152,276.345,-258.841,370.630,-602.780,-126.600,-104.060
568,52007.861000,207.846,-16.063,163.840,279.198,-256.328,356.763,-377.780,-145.600,-130.060
569,52007.887000,210.795,-18.071,152.576,285.760,-260.821,356.677,-252.780,-57.600,-121.060
570,52007.927000,204.898,-19.075,167.936,284.767,-263.680,351.641,-273.780,-31.600,-68.060
571,52007.975000,200.967,-6.024,142.336,287.516,-270.094,349.520,-96.780,-139.600,-176.060
572,52008.7000,207.846,7.027,132.096,290.435,-263.722,345.681,-129.780,-157.600,-210.060
573,52008.61000,200.967,-4.016,153.600,294.116,-271.060,342.547,-263.780,-41.600,-164.060
574,52008.67000,207.846,14.055,128.000,300.865,-261.811,342.753,-9.780,-115.600,-245.060
575,52008.135000,187.209,12.047,142.336,303.615,-268.206,341.627,-241.780,-20.600,-180.060
576,52008.162000,198.019,4.016,144.384,308.320,-269.215,333.655,-252.780,-66.600,-155.060
577,52008.191000,206.864,10.039,141.312,306.524,-261.950,331.818,-133.780,26.400,-274.060
578,52008.231000,185.244,3.012,155.648,312.180,-262.909,325.838,-338.780,-15.600,-208.060
579,52008.277000,176.399,3.012,166.912,315.919,-265.705,320.811,-420.780,-91.600,-165.060
580,52008.291000,196.054,4.016,153.600,320.467,-278.566,315.571,-367.780,-102.600,-198.060
581,52008.331000,202.933,-26.102,181.248,318.680,-270.423,311.763,-384.780,4.400,-86.060
582,52008.372000,212.760,-24.094,192.512,322.395,-275.052,306.696,-77.780,91.400,-125.060
583,52008.412000,210.795,-12.047,184.320,322.444,-272.167,313.720,27.220,146.400,-128.060
584,52008.452000,203.916,-27.106,181.248,321.459,-274.947,312.665,58.220,177.400,-57.060
585,52008.492000,195.071,-19.075,167.936,316.833,-268.382,323.739,395.220,95.400,-84.060
586,52008.533000,194.088,4.016,151.552,321.740,-256.254,331.961,491.220,120.400,-120.060
587,52008.553000,186.226,20.078,162.816,321.900,-245.143,338.166,511.220,45.400,-91.060
588,52008.590000,202.933,27.106,143.360,324.868,-236.665,348.297,563.220,-17.600,-148.060
589,52008.634000,198.019,20.078,147.456,324.948,-231.110,351.399,505.220,11.400,-105.060
590,52008.673000,198.019,44.173,147.456,327.004,-219.935,359.597,629.220,9.400,-91.060
591,52008.715000,200.967,46.180,149.504,331.853,-211.569,362.767,516.220,19.400,-60.060
592,52008.752000,194.088,58.227,144.384,330.167,-196.857,367.056,393.220,-41.600,-64.060
593,52008.775000,195.071,50.196,141.312,332.142,-191.258,371.156,279.220,-7.600,-41.060
594,52008.812000,200.967,38.149,147.456,328.465,-183.881,376.281,286.220,8.400,-23.060
595,52008.855000,196.054,49.192,148.480,333.287,-177.367,378.416,405.220,18.400,-12.060
596,52008.891000,189.175,37.145,152.576,330.503,-173.681,381.474,324.220,14.400,18.940
597,52008.932000,196.054,51.200,149.504,328.642,-171.796,385.490,345.220,14.400,50.940
598,52008.970000,184.261,55.216,158.720,328.821,-158.931,387.754,341.220,16.400,11.940
599,52009.11000,168.537,41.161,156.672,330.693,-160.679,390.703,332.220,-43.600,72.940
600,52009.31000,185.244,72.282,140.288,332.755,-148.667,394.940,322.220,-128.600,-41.060
601,52009.77000,192.123,69.271,176.128,330.917,-144.209,390.059,219.220,-75.600,-83.060
602,52009.113000,194.088,92.361,132.096,339.505,-138.638,388.201,242.220,-289.600,-59.060
603,52009.155000,213.743,72.282,150.528,343.351,-134.027,387.311,17.220,-192.600,-109.060
604,52009.191000,227.501,72.282,151.552,347.103,-135.907,382.303,2.220,-159.600,-38.060
605,52009.230000,205.881,93.365,114.688,348.024,-137.727,382.266,4.220,-132.600,-58.060
606,52009.248000,215.708,70.275,135.168,350.817,-141.315,384.183,-121.780,21.400,-21.060
607,52009.292000,199.002,63.247,129.024,348.896,-143.211,382.150,-137.780,12.400,34.940
608,52009.332000,204.898,63.247,132.096,346.008,-146.894,383.062,-76.780,76.400,73.940
609,52009.372000,197.036,59.231,140.288,345.943,-151.513,380.974,-141.780,106.400,86.940
610,52009.417000,193.106,45.176,146.432,341.174,-154.324,380.908,-183.780,106.400,143.940
611,52009.453000,189.175,59.231,130.048,337.376,-155.290,380.881,-170.780,121.400,94.940
612,52009.473000,209.812,48.188,148.480,336.399,-157.973,384.801,-261.780,149.400,58.940
613,52009.513000,197.036,43.169,148.480,333.453,-165.418,380.660,-263.780,122.400,58.940
614,52009.558000,193.106,46.180,154.624,334.136,-185.424,387.198,-230.780,119.400,4.940
615,52009.592000,193.106,32.125,166.912,324.866,-170.969,383.513,-256.780,99.400,3.940
616,52009.628000,187.209,41.161,150.528,326.545,-186.537,382.190,-229.780,2.400,11.940
617,52009.668000,191.140,43.169,160.768,329.430,-182.874,380.283,-295.780,2.400,-40.060
618,52009.718000,197.036,43.169,160.768,330.313,-186.682,372.246,-287.780,-90.600,-36.060
619,52009.737000,196.054,51.200,137.216,333.044,-194.072,367.119,-316.780,-139.600,-86.060
620,52009.771000,215.708,35.137,150.528,332.028,-198.743,363.040,-388.780,-84.600,-54.060
621,52009.815000,200.967,30.118,114.688,338.589,-202.476,355.013,-390.780,-204.600,-7.060
622,52009.850000,212.760,36.141,143.360,337.595,-205.354,348.982,-426.780,-43.600,-23.060
623,52009.890000,217.674,19.075,149.504,336.457,-219.167,345.703,-371.780,-65.600,35.940
624,52009.943000,205.881,15.059,119.808,337.320,-224.749,340.612,-270.780,-76.600,49.940
625,52009.951000,215.708,20.078,146.432,339.180,-226.634,336.596,-355.780,32.400,89.940
626,52009.995000,208.829,-4.016,155.648,335.279,-234.968,334.424,-289.780,9.400,153.940
627,52010.35000,200.967,8.031,132.096,330.545,-235.070,332.425,-177.780,1.400,149.940
628,52010.75000,207.846,-8.031,148.480,329.438,-246.193,326.219,-216.780,76.400,143.940
629,52010.110000,212.760,-9.035,154.624,328.479,-247.122,326.198,-119.780,21.400,121.940
630,52010.150000,194.088,0.000,140.288,325.603,-249.908,326.134,-10.780,55.400,80.940
631,52010.195000,211.777,-2.008,149.504,320.816,-254.473,330.009,-8.780,59.400,99.940
632,52010.220000,208.829,12.047,142.336,319.907,-251.737,330.066,76.220,21.400,124.940
633,52010.255000,209.812,20.078,144.384,315.064,-260.025,330.877,120.220,31.400,94.940
634,52010.290000,225.536,30.118,152.576,315.059,-260.863,334.837,85.220,20.400,125.940
635,52010.333000,193.106,29.114,158.720,314.186,-255.398,333.958,8.220,12.400,141.940
636,52010.372000,197.036,51.200,157.696,309.329,-264.622,333.754,19.220,60.400,86.940
637,52010.411000,179.347,23.090,155.648,303.703,-261.013,334.817,-267.780,113.400,130.940
638,52010.438000,202.933,11.043,171.008,300.786,-266.587,332.705,-126.780,179.400,156.940
639,52010.473000,175.417,26.102,195.584,295.971,-273.003,335.545,-24.780,116.400,148.940
640,52010.513000,146.917,12.047,194.560,292.103,-278.648,330.446,-236.780,-13.600,113.940
641,52010.553000,166.572,3.012,192.512,293.880,-286.907,328.284,-185.780,-110.600,128.940
642,52010.593000,156.745,4.016,187.392,292.831,-293.508,319.190,-228.780,-154.600,143.940
643,52010.630000,179.347,0.000,190.464,288.981,-298.158,318.091,-162.780,-137.600,213.940
644,52010.655000,197.036,-29.114,186.368,292.785,-296.354,314.156,-98.780,-161.600,232.940
645,52010.718000,202.933,-23.090,155.648,288.807,-310.205,310.872,-50.780,-150.600,277.940
646,52010.756000,218.656,-73.286,183.296,280.301,-309.421,309.881,-0.780,-21.600,434.940
647,52010.772000,193.106,-46.180,155.648,275.542,-312.114,315.785,321.220,-26.600,380.940
648,52010.823000,186.226,-46.180,162.816,271.787,-310.274,318.802,379.220,-64.600,399.940
649,52010.850000,187.209,-55.216,154.624,264.186,-313.044,322.711,524.220,-48.600,312.940
650,52010.890000,183.278,-55.216,149.504,265.354,-298.120,335.960,752.220,20.400,183.940
651,52010.911000,164.607,-41.161,140.288,259.707,-297.064,346.915,714.220,-17.600,145.940
652,52010.961000,208.829,-24.094,153.600,261.869,-278.482,359.250,772.220,10.400,56.940
653,52011.1000,226.518,-19.075,171.008,259.142,-271.054,366.366,553.220,120.400,31.940
654,52011.38000,203.916,-20.078,149.504,258.287,-265.374,376.432,746.220,64.400,28.940
655,52011.72000,203.916,-10.039,142.336,257.503,-254.257,383.630,676.220,30.400,76.940
656,52011.113000,209.812,-5.020,163.840,258.692,-237.539,394.929,617.220,22.400,64.940
657,52011.133000,185.244,-4.016,140.288,257.910,-226.402,403.122,616.220,-57.600,-21.060
658,52011.173000,199.985,5.020,145.408,257.968,-222.640,408.175,570.220,-27.600,9.940
659,52011.215000,190.157,-2.008,147.456,257.255,-206.064,413.500,637.220,27.400,-16.060
660,52011.256000,175.417,44.173,150.528,259.258,-198.593,419.630,422.220,94.400,-105.060
661,52011.296000,182.296,38.149,156.672,263.251,-183.787,424.924,483.220,-37.600,-124.060
662,52011.336000,204.898,32.125,154.624,268.038,-180.002,427.995,463.220,-126.600,-106.060
663,52011.351000,228.484,54.212,149.504,270.105,-167.151,428.272,402.220,-148.600,-77.060
664,52011.400000,229.466,56.220,151.552,270.273,-155.183,431.511,316.220,-96.600,-58.060
665,52011.433000,229.466,60.235,134.144,277.892,-151.438,430.607,165.220,-126.600,-45.060
666,52011.475000,206.864,67.263,134.144,279.798,-150.477,431.625,92.220,-106.600,-65.060
667,52011.515000,202.933,66.259,149.504,281.754,-145.871,431.726,77.220,-51.600,-42.060
668,52011.555000,193.106,59.231,147.456,280.784,-147.696,432.680,10.220,-105.600,59.940
669,52011.591000,183.278,34.133,130.048,280.743,-150.484,430.632,18.220,-131.600,86.940
670,52011.611000,191.140,63.247,131.072,286.478,-145.887,427.754,37.220,-118.600,76.940
671,52011.651000,207.846,43.169,147.456,286.343,-155.945,428.535,-197.780,-87.600,142.940
672,52011.691000,204.898,51.200,131.072,289.036,-166.082,423.350,-293.780,-16.600,63.940
673,52011.733000,215.708,38.149,133.120,288.109,-164.321,420.402,-391.780,-8.600,20.940
674,52011.772000,225.536,26.102,137.216,287.983,-173.502,419.212,-422.780,-3.600,-32.060
675,52011.812000,219.639,36.141,131.072,282.218,-179.210,412.119,-380.780,72.400,-132.060
676,52011.833000,216.691,30.118,138.240,288.726,-187.407,409.965,-469.780,138.400,-207.060
677,52011.875000,210.795,13.051,138.240,284.772,-199.445,405.724,-565.780,133.400,-200.060
678,52011.923000,200.967,22.086,148.480,283.768,-203.979,408.610,-398.780,174.400,-238.060
679,52011.988000,197.036,20.078,146.432,281.896,-202.231,405.661,-479.780,115.400,-255.060
680,52012.10000,191.140,10.039,154.624,282.719,-210.581,399.517,-359.780,136.400,-218.060
681,52012.45000,195.071,40.157,146.432,282.719,-210.581,399.517,-347.780,97.400,-239.060
682,52012.71000,185.244,22.086,156.672,278.790,-220.786,395.315,-469.780,121.400,-198.060
683,52012.97000,183.278,21.082,155.648,279.747,-219.877,394.341,-291.780,88.400,-136.060
684,52012.135000,196.054,24.094,162.816,281.499,-229.968,392.140,-308.780,96.400,-126.060
685,52012.175000,189.175,9.035,172.032,278.669,-229.129,390.164,-335.780,112.400,-57.060
686,52012.213000,189.175,-1.004,160.768,276.634,-239.290,386.961,-205.780,88.400,19.940
687,52012.255000,193.106,19.075,168.960,273.767,-241.199,384.927,-172.780,105.400,-46.060
688,52012.293000,178.365,-2.008,168.960,275.659,-241.174,384.930,-180.780,40.400,23.940
689,52012.321000,195.071,3.012,181.248,270.844,-247.610,386.775,-17.780,96.400,62.940
690,52012.355000,173.451,18.071,176.128,267.998,-247.726,382.790,2.220,14.400,-18.060
691,52012.401000,182.296,-11.043,173.056,270.881,-244.862,386.834,9.220,24.400,85.940
692,52012.435000,193.106,5.020,177.152,268.056,-243.964,387.843,90.220,9.400,109.940
693,52012.476000,187.209,-3.012,174.080,268.094,-241.215,387.902,143.220,7.400,90.940
694,52012.513000,187.209,15.059,167.936,265.285,-239.362,390.921,191.220,52.400,44.940
695,52012.533000,184.261,6.024,173.056,264.304,-242.084,392.851,133.220,29.400,29.940
696,52012.578000,182.296,9.035,171.008,264.414,-234.638,398.977,177.220,39.400,46.940
697,52012.616000,189.175,12.047,166.912,262.549,-232.811,400.008,181.220,39.400,72.940
698,52012.662000,194.088,-1.004,166.912,259.783,-227.371,399.125,220.220,39.400,117.940
699,52012.702000,196.054,3.012,168.960,257.004,-223.627,405.169,333.220,52.400,111.940
700,52012.732000,188.192,16.063,166.912,258.004,-219.911,407.238,367.220,32.400,116.940
701,52012.778000,185.244,19.075,162.816,256.157,-217.090,412.269,319.220,-3.600,132.940
702,52012.792000,198.019,24.094,163.840,257.212,-209.651,417.402,284.220,-4.600,109.940
703,52012.837000,193.106,23.090,162.816,253.405,-211.494,419.346,315.220,4.400,139.940
704,52012.875000,190.157,31.122,164.864,253.486,-205.919,423.444,298.220,-13.600,125.940
705,52012.917000,190.157,28.110,161.792,253.576,-199.487,424.575,286.220,-16.600,123.940
706,52012.957000,184.261,23.090,158.720,252.689,-195.717,430.622,376.220,-47.600,145.940
707,52012.996000,194.088,30.118,161.792,250.917,-187.400,435.770,339.220,-81.600,121.940
708,52013.17000,196.054,20.078,147.456,250.886,-189.310,431.751,353.220,-101.600,123.940
709,52013.52000,203.916,36.141,147.456,253.012,-172.697,437.080,391.220,-14.600,104.940
710,52013.92000,218.656,31.122,128.000,249.221,-173.585,441.034,353.220,-97.600,39.940
711,52013.135000,202.933,34.133,115.712,250.317,-162.579,441.270,313.220,31.400,11.940
712,52013.178000,205.881,52.204,144.384,247.483,-162.558,444.250,288.220,55.400,-4.060
713,52013.215000,201.950,41.161,126.976,250.449,-153.340,445.446,211.220,5.400,-24.060
714,52013.268000,197.036,51.200,136.192,247.616,-153.299,449.421,207.220,94.400,-56.060
715,52013.286000,189.175,52.204,149.504,244.870,-146.865,452.538,123.220,101.400,-84.060
716,52013.316000,194.088,49.192,146.432,240.213,-141.431,452.646,83.220,141.400,-100.060
717,52013.357000,198.019,52.204,161.792,239.281,-140.508,453.659,-16.780,171.400,-163.060
718,52013.400000,193.106,40.157,160.768,234.511,-143.338,452.597,-74.780,132.400,-164.060
719,52013.436000,198.019,52.204,160.768,234.562,-139.654,453.671,-119.780,163.400,-201.060
720,52013.483000,199.002,36.141,179.200,232.634,-142.408,454.604,-244.780,99.400,-250.060
721,52013.497000,199.002,46.180,175.104,227.790,-150.716,454.420,-165.780,85.400,-325.060
722,52013.536000,203.916,16.063,184.320,230.650,-148.885,452.474,-323.780,43.400,-291.060
723,52013.581000,186.226,42.165,187.392,231.556,-151.660,450.427,-50.780,25.400,-255.060
724,52013.615000,191.140,51.200,203.776,231.520,-154.389,451.363,-24.780,-9.600,-200.060
725,52013.657000,171.486,13.051,194.560,237.245,-150.688,449.461,33.220,-122.600,-134.060
726,52013.702000,166.572,53.208,203.776,238.413,-134.224,447.824,215.220,-183.600,-177.060
727,52013.718000,143.969,23.090,210.944,243.102,-136.969,444.789,249.220,-392.600,-88.060
728,52013.757000,179.347,77.302,198.656,258.402,-124.898,443.079,369.220,-502.600,-130.060
729,52013.801000,178.365,70.275,193.536,269.746,-124.885,436.133,24.220,-550.600,-107.060
730,52013.838000,173.451,48.188,188.416,281.165,-119.374,429.305,-153.780,-527.600,-99.060
731,52013.876000,189.175,79.310,161.792,289.652,-121.153,426.296,-186.780,-451.600,-162.060
732,52013.916000,199.985,65.255,124.928,301.798,-131.282,415.157,-518.780,-500.600,-206.060
733,52013.961000,176.399,43.169,113.664,308.294,-139.616,406.038,-622.780,-399.600,-221.060
734,52013.976000,200.967,33.129,140.288,318.609,-145.209,393.998,-591.780,-268.600,-261.060
735,52014.16000,193.106,52.204,126.976,326.203,-142.517,386.110,-465.780,-309.600,-382.060
736,52014.61000,197.036,74.290,131.072,333.716,-146.179,381.070,-510.780,-218.600,-483.060
737,52014.95000,196.054,72.282,130.048,339.310,-151.698,375.987,-600.780,-169.600,-444.060
738,52014.133000,181.313,75.294,121.856,343.952,-157.308,366.923,-670.780,-111.600,-425.060
739,52014.173000,201.950,74.290,136.192,352.460,-157.293,361.963,-569.780,-0.600,-355.060
740,52014.193000,207.846,85.333,137.216,355.253,-160.102,356.934,-550.780,28.400,-334.060
741,52014.233000,190.157,71.278,139.264,354.307,-160.114,356.932,-482.780,68.400,-298.060
742,52014.281000,197.036,51.200,144.384,349.533,-162.984,353.880,-500.780,57.400,-171.060
743,52014.317000,204.898,55.216,143.360,355.145,-167.528,351.803,-397.780,71.400,-124.060
744,52014.353000,201.950,61.239,140.288,353.056,-181.393,346.531,-379.780,56.400,-119.060
745,52014.393000,189.175,46.180,161.792,353.153,-174.103,344.697,-391.780,87.400,-118.060
746,52014.433000,190.157,63.247,164.864,354.996,-177.743,344.623,-345.780,84.400,-158.060
747,52014.457000,195.071,51.200,162.816,360.445,-194.197,342.291,-508.780,-7.600,-169.060
748,52014.497000,188.192,39.153,149.504,359.573,-187.953,334.466,-462.780,-66.600,-139.060
749,52014.541000,190.157,52.204,152.576,363.262,-194.413,329.360,-305.780,-93.600,-173.060
750,52014.573000,194.088,62.243,140.288,366.989,-198.125,324.314,-456.780,-153.600,-195.060
751,52014.617000,187.209,60.235,132.096,365.065,-200.061,320.291,-363.780,-213.600,-169.060
752,52014.657000,209.812,75.294,134.144,372.658,-197.388,311.408,-509.780,-127.600,-164.060
753,52014.677000,201.950,71.278,144.384,378.228,-203.960,299.340,-564.780,-118.600,-101.060
754,52014.717000,206.864,58.227,143.360,380.039,-209.510,295.246,-532.780,-49.600,-39.060
755,52014.757000,208.829,25.098,161.792,375.057,-227.135,286.907,-672.780,25.400,31.940
756,52014.797000,193.106,9.035,160.768,375.082,-225.303,286.946,-441.780,75.400,43.940
757,52014.837000,187.209,-16.063,188.416,370.270,-230.921,283.835,-201.780,200.400,179.940
758,52014.876000,200.967,-22.086,181.248,363.510,-241.066,284.604,76.220,137.400,199.940
759,52014.922000,187.209,-8.031,180.224,355.084,-235.506,293.661,263.220,157.400,237.940
760,52014.936000,183.278,-13.051,167.936,354.160,-234.485,299.650,569.220,98.400,246.940
761,52014.980000,200.967,15.059,159.744,347.601,-230.733,308.672,768.220,106.400,217.940
762,52015.20000,205.881,18.071,151.552,348.649,-224.132,317.765,854.220,63.400,200.940
763,52015.60000,203.916,35.137,142.336,343.054,-219.392,329.794,903.220,63.400,137.940
764,52015.100000,205.881,73.286,156.672,343.271,-204.538,340.056,787.220,147.400,25.940
765,52015.142000,182.296,57.224,163.840,342.513,-191.569,348.288,558.220,98.400,192.940
766,52015.157000,181.313,60.235,172.032,335.930,-189.629,358.266,695.220,126.400,227.940
767,52015.196000,171.486,57.224,176.128,335.962,-187.719,362.286,642.220,94.400,235.940
768,52015.240000,187.209,32.125,175.104,326.648,-177.630,369.449,563.220,24.400,350.940
769,52015.278000,194.088,41.161,172.032,326.799,-167.396,377.624,604.220,-42.600,330.940
770,52015.318000,201.950,58.227,152.576,326.796,-167.435,375.634,490.220,-141.600,203.940
771,52015.358000,199.002,59.231,146.432,325.031,-158.260,377.816,455.220,-171.600,188.940
772,52015.398000,206.864,62.243,140.288,331.685,-156.281,380.852,381.220,-186.600,190.940
773,52015.418000,200.967,61.239,123.904,334.374,-167.238,380.623,232.220,-207.600,111.940
774,52015.455000,199.002,56.220,145.408,335.507,-153.503,379.922,103.220,-73.600,116.940
775,52015.498000,195.071,47.184,146.432,335.434,-158.200,373.854,96.220,-106.600,140.940
776,52015.538000,193.106,58.227,137.216,333.584,-155.418,376.894,19.220,-106.600,44.940
777,52015.580000,189.175,60.235,152.576,338.380,-150.756,377.995,-19.780,-92.600,19.940
778,52015.620000,198.019,59.231,141.312,340.178,-157.222,373.882,8.220,-165.600,50.940
779,52015.640000,196.054,59.231,141.312,342.985,-159.094,369.868,-86.780,-178.600,63.940
780,52015.675000,217.674,59.231,121.856,348.630,-160.949,364.863,-95.780,-195.600,52.940
781,52015.715000,218.656,62.243,119.808,345.775,-161.942,362.849,-87.780,-51.600,43.940
782,52015.755000,216.691,59.231,122.880,344.715,-170.219,361.676,-49.780,42.400,74.940
783,52015.801000,214.726,68.267,121.856,346.671,-165.594,362.772,-94.780,67.400,87.940
784,52015.837000,206.864,46.180,128.000,342.725,-177.534,363.507,-206.780,104.400,117.940
785,52015.860000,206.864,51.200,129.024,336.115,-176.686,364.510,-156.780,165.400,126.940
786,52015.895000,204.898,40.157,134.144,331.285,-184.058,365.341,-233.780,160.400,142.940
787,52015.935000,198.019,31.122,142.336,323.634,-190.493,369.171,-216.780,213.400,158.940
788,52015.981000,200.967,34.133,148.480,320.723,-195.228,363.098,-185.780,240.400,96.940
789,52016.15000,197.036,33.129,148.480,316.780,-207.129,365.823,-240.780,133.400,118.940
790,52016.61000,194.088,22.086,152.576,311.029,-212.682,366.691,-260.780,155.400,73.940
791,52016.97000,200.967,21.082,158.720,310.081,-212.714,365.694,-261.780,135.400,26.940
792,52016.118000,196.054,13.051,149.504,309.034,-220.055,365.536,-267.780,73.400,20.940
793,52016.158000,203.916,14.055,160.768,307.094,-222.946,359.504,-321.780,84.400,-47.060
794,52016.198000,199.985,13.051,152.576,308.000,-225.721,357.457,-351.780,-26.600,-69.060
795,52016.238000,190.157,17.067,146.432,310.755,-231.278,352.370,-384.780,-75.600,-118.060
796,52016.290000,210.795,25.098,135.168,309.772,-233.259,345.363,-310.780,-112.600,-149.060
797,52016.323000,198.019,22.086,132.096,318.207,-238.721,341.281,-361.780,-77.600,-154.060
798,52016.345000,218.656,26.102,133.120,321.002,-241.510,337.247,-331.780,-54.600,-95.060
799,52016.378000,199.985,28.110,125.952,317.160,-245.303,333.182,-208.780,-44.600,-102.060
800,52016.420000,203.916,13.051,140.288,316.131,-250.910,328.088,-320.780,66.400,53.940
801,52016.460000,211.777,4.016,150.528,317.063,-251.833,327.075,-243.780,108.400,120.940
802,52016.506000,203.916,4.016,149.504,310.403,-254.649,328.000,-83.780,69.400,140.940
803,52016.542000,208.829,5.020,163.840,307.386,-267.552,325.732,-216.780,57.400,222.940
804,52016.577000,213.743,5.020,155.648,301.751,-264.040,321.820,-84.780,21.400,284.940
805,52016.608000,210.795,12.047,165.888,299.785,-269.543,322.694,12.220,3.400,277.940
806,52016.641000,204.898,21.082,147.456,295.930,-275.031,325.556,166.220,-132.600,319.940
807,52016.681000,175.417,16.063,153.600,288.231,-284.331,323.357,-20.780,-66.600,355.940
808,52016.716000,189.175,-8.031,190.464,286.171,-296.325,320.115,-77.780,-134.600,338.940
809,52016.756000,190.157,-8.031,173.056,283.416,-289.988,318.257,57.220,-156.600,281.940
810,52016.801000,201.950,-10.039,185.344,282.293,-302.846,316.987,-212.780,-87.600,291.940
811,52016.816000,207.846,-59.231,181.248,276.635,-301.147,314.030,11.220,1.400,242.940
812,52016.865000,183.278,-35.137,176.128,270.853,-309.370,318.820,141.220,78.400,250.940
813,52016.901000,184.261,-33.129,178.176,265.227,-305.761,319.883,269.220,73.400,293.940
814,52016.940000,184.261,-14.055,177.152,257.732,-301.124,327.928,372.220,179.400,376.940
815,52016.980000,197.036,3.012,149.504,254.907,-301.005,335.883,377.220,-96.600,308.940
816,52017.20000,181.313,-23.090,146.432,252.098,-299.152,338.903,424.220,-65.600,196.940
817,52017.60000,200.967,15.059,167.936,253.120,-294.403,346.962,511.220,10.400,135.940
818,52017.80000,173.451,5.020,149.504,254.119,-291.466,355.978,450.220,9.400,78.940
819,52017.117000,169.520,5.020,157.696,245.657,-287.856,359.026,349.220,59.400,68.940
820,52017.156000,194.088,-6.024,174.080,246.653,-284.958,366.052,323.220,66.400,147.940
821,52017.196000,185.244,-17.067,160.768,242.997,-275.788,369.225,457.220,2.400,179.940
822,52017.236000,182.296,2.008,160.768,242.177,-267.400,377.360,489.220,-33.600,183.940
823,52017.276000,201.950,-6.024,159.744,243.217,-260.896,381.478,451.220,-17.600,203.940
824,52017.296000,193.106,-5.020,164.864,236.617,-259.931,388.452,368.220,6.400,173.940
825,52017.336000,185.244,-4.016,154.624,236.662,-257.104,392.490,462.220,-15.600,205.940
826,52017.376000,198.019,-10.039,146.432,238.727,-245.053,398.718,371.220,-43.600,278.940
827,52017.417000,202.933,-18.071,156.672,235.898,-244.973,404.683,432.220,-41.600,268.940
828,52017.461000,197.036,-13.051,144.384,233.142,-239.416,409.771,543.220,-55.600,239.940
829,52017.496000,209.812,-1.004,152.576,231.399,-229.227,416.947,455.220,-31.600,196.940
830,52017.540000,205.881,-5.020,150.528,233.363,-223.744,415.078,436.220,-42.600,149.940
831,52017.561000,188.192,3.012,132.096,230.650,-215.380,423.209,511.220,-81.600,123.940
832,52017.601000,185.244,6.024,139.264,232.565,-214.322,429.202,396.220,-97.600,109.940
833,52017.642000,211.777,2.008,151.552,229.815,-207.927,430.328,284.220,-38.600,109.940
834,52017.680000,191.140,1.004,143.360,233.705,-200.490,433.476,393.220,-68.600,43.940
835,52017.726000,206.864,12.047,146.432,235.720,-191.342,431.685,293.220,-49.600,-21.060
836,52017.761000,206.864,20.078,154.624,239.512,-191.214,435.672,251.220,-80.600,-42.060
837,52017.790000,210.795,26.102,150.528,242.440,-184.744,436.808,199.220,-74.600,-84.060
838,52017.845000,213.743,29.114,152.576,243.474,-178.319,436.947,97.220,-98.600,-124.060
839,52017.861000,222.587,26.102,150.528,245.393,-176.442,437.984,0.220,-76.600,-114.060
840,52017.901000,215.708,40.157,155.648,245.361,-178.352,433.965,-97.780,9.400,-156.060
841,52017.951000,210.795,35.137,159.744,251.062,-176.465,433.019,-194.780,-44.600,-146.060
842,52017.977000,213.743,49.192,145.408,253.757,-186.583,428.829,-300.780,-101.600,-209.060
843,52018.22000,213.743,39.153,146.432,258.452,-188.489,421.833,-475.780,-106.600,-230.060
844,52018.42000,216.691,31.122,128.000,264.036,-194.905,417.726,-464.780,-113.600,-159.060
845,52018.86000,205.881,34.133,123.904,263.929,-202.312,413.590,-480.780,-4.600,-127.060
846,52018.121000,208.829,30.118,134.144,266.758,-202.392,407.624,-483.780,23.400,-96.060
847,52018.162000,208.829,21.082,122.880,264.648,-218.050,404.304,-505.780,59.400,-68.060
848,52018.202000,212.760,21.082,135.168,258.901,-222.783,400.216,-543.780,116.400,-46.060
849,52018.237000,204.898,6.024,135.168,262.526,-233.844,394.018,-545.780,98.400,-26.060
850,52018.258000,201.950,0.000,142.336,255.720,-246.835,389.753,-583.780,152.400,-14.060
851,52018.301000,201.950,-6.024,150.528,252.726,-257.925,386.529,-620.780,166.400,-6.060
852,52018.342000,189.175,-21.082,151.552,250.686,-268.145,380.341,-503.780,114.400,-23.060
853,52018.387000,193.106,-14.055,152.576,249.667,-272.855,374.271,-561.780,79.400,-38.060
854,52018.418000,197.036,-33.129,157.696,249.518,-283.069,367.091,-532.780,46.400,-33.060
855,52018.463000,198.019,-31.122,150.528,246.593,-288.740,360.003,-406.780,45.400,-43.060
856,52018.477000,197.036,-32.125,155.648,251.307,-289.652,357.007,-355.780,68.400,-61.060
857,52018.522000,198.019,-39.153,152.576,246.536,-292.482,355.945,-250.780,61.400,-83.060
858,52018.577000,199.002,-39.153,148.480,248.350,-297.993,353.841,-171.780,45.400,-63.060
859,52018.601000,192.123,-26.102,154.624,246.381,-303.535,352.726,-196.780,79.400,-76.060
860,52018.641000,202.933,-29.114,162.816,250.224,-298.962,349.845,-139.780,57.400,-115.060
861,52018.681000,198.019,-24.094,153.600,251.143,-300.802,348.812,-18.780,81.400,-101.060
862,52018.722000,193.106,-9.035,159.744,249.266,-299.872,350.819,-29.780,87.400,-121.060
863,52018.742000,193.106,-14.055,166.912,250.277,-295.259,351.913,-16.780,89.400,-109.060
864,52018.777000,185.244,-3.012,163.840,251.211,-296.163,351.895,-1.780,96.400,-122.060
865,52018.817000,190.157,-15.059,176.128,249.340,-294.394,349.941,-78.780,74.400,-104.060
866,52018.860000,186.226,-17.067,167.936,249.321,-296.149,353.882,23.220,22.400,-53.060
867,52018.900000,210.795,-17.067,162.816,252.212,-292.427,354.960,84.220,-41.600,-50.060
868,52018.947000,197.036,0.000,160.768,252.212,-292.427,354.960,104.220,-15.600,-71.060
869,52018.961000,192.123,-8.031,148.480,256.069,-286.919,353.094,71.220,-71.600,-98.060
870,52019.1000,200.967,-13.051,153.600,258.875,-289.572,356.025,44.220,-14.600,-38.060
871,52019.47000,193.106,-8.031,154.624,257.053,-284.158,353.154,47.220,-6.600,-9.060
872,52019.81000,195.071,-8.031,138.240,256.959,-291.409,356.978,139.220,12.400,-24.060
873,52019.121000,196.054,0.000,148.480,254.236,-283.163,359.139,57.220,81.400,39.940
874,52019.167000,188.192,-13.051,160.768,250.417,-285.922,361.064,52.220,120.400,62.940
875,52019.201000,190.157,-11.043,162.816,248.587,-281.366,361.158,122.220,154.400,82.940
876,52019.221000,192.123,-9.035,160.768,241.893,-286.892,364.014,133.220,120.400,79.940
877,52019.262000,181.313,-10.039,164.864,238.137,-285.051,367.032,205.220,174.400,93.940
878,52019.308000,182.296,-2.008,176.128,237.340,-274.850,374.210,201.220,182.400,99.940
879,52019.342000,196.054,-7.027,181.248,229.742,-277.581,380.109,301.220,166.400,100.940
880,52019.381000,177.382,-4.016,182.272,224.185,-269.313,385.250,360.220,134.400,103.940
881,52019.436000,188.192,-3.012,178.176,225.123,-270.938,395.163,367.220,69.400,125.940
882,52019.443000,190.157,-10.039,163.840,223.417,-257.240,394.457,447.220,-17.600,122.940
883,52019.481000,197.036,-2.008,164.864,217.877,-247.998,402.603,447.220,12.400,136.940
884,52019.521000,194.088,-1.004,166.912,217.949,-243.300,408.671,405.220,-15.600,92.940
885,52019.562000,201.950,13.051,146.432,216.090,-241.395,413.682,506.220,-49.600,8.940
886,52019.608000,194.088,14.055,151.552,216.254,-229.466,414.930,368.220,-3.600,-16.060
887,52019.642000,186.226,23.090,171.008,219.141,-226.563,420.964,415.220,74.400,-55.060
888,52019.696000,199.985,21.082,142.336,221.156,-218.176,427.114,413.220,-78.600,-92.060
889,52019.706000,196.054,13.051,168.960,218.495,-205.348,429.372,198.220,38.400,-112.060
890,52019.742000,200.967,18.071,172.032,218.533,-202.600,429.431,303.220,0.400,-154.060
891,52019.787000,193.106,26.102,145.408,221.530,-191.471,434.645,308.220,-14.600,-270.060
892,52019.825000,202.933,18.071,160.768,224.394,-189.602,434.689,208.220,60.400,-307.060
893,52019.867000,197.036,60.235,159.744,225.533,-175.788,437.969,342.220,-4.600,-432.060
894,52019.901000,195.071,15.059,168.960,223.639,-175.833,436.970,-58.780,-56.600,-327.060
895,52019.921000,206.864,68.267,182.272,228.469,-168.461,436.140,141.220,-78.600,-255.060
896,52019.961000,194.088,64.251,185.344,230.372,-167.539,435.167,0.220,-69.600,-240.060
897,52020.10000,180.330,39.153,188.416,231.268,-171.191,435.091,37.220,-46.600,-150.060
898,52020.42000,156.745,62.243,195.584,230.399,-165.688,436.202,149.220,42.400,-96.060
899,52020.85000,160.676,59.231,191.488,230.466,-161.048,439.284,91.220,22.400,-91.060
900,52020.123000,157.727,62.243,180.224,228.649,-155.577,439.398,18.220,-40.600,-30.060
901,52020.170000,161.658,49.192,186.368,232.379,-159.250,436.341,-139.780,-19.600,-11.060
902,52020.192000,166.572,55.216,189.440,232.270,-167.456,438.156,-113.780,-73.600,5.940
903,52020.225000,175.417,59.231,166.912,232.260,-167.573,432.186,-194.780,-112.600,-22.060
904,52020.260000,189.175,40.157,169.984,236.007,-170.271,432.134,-342.780,-85.600,34.940
905,52020.305000,182.296,37.145,173.056,237.726,-182.293,424.918,-362.780,-30.600,27.940
906,52020.341000,187.209,21.082,171.008,237.726,-182.293,424.918,-269.780,-46.600,-5.060
907,52020.381000,174.434,20.078,171.008,241.359,-193.256,423.695,-315.780,-40.600,-27.060
908,52020.400000,176.399,18.071,173.056,241.315,-196.082,419.657,-218.780,-37.600,-61.060
909,52020.443000,177.382,20.078,172.032,243.253,-192.451,416.753,-117.780,-48.600,-123.060
910,52020.480000,181.313,32.125,164.864,246.067,-194.246,416.719,-108.780,-58.600,-168.060
911,52020.520000,186.226,37.145,167.936,248.913,-193.351,413.758,-147.780,-51.600,-315.060
912,52020.560000,190.157,41.161,176.128,257.464,-190.529,411.842,-267.780,-54.600,-330.060
913,52020.600000,179.347,52.204,172.032,261.223,-192.331,410.814,-300.780,-52.600,-363.060
914,52020.620000,174.434,63.247,165.888,267.787,-196.025,404.777,-383.780,-146.600,-510.060
915,52020.672000,176.399,59.231,169.984,279.186,-192.288,400.895,-491.780,-199.600,-507.060
916,52020.702000,190.157,58.227,153.600,289.486,-198.817,387.841,-500.780,-232.600,-461.060
917,52020.743000,181.313,60.235,151.552,298.964,-196.977,381.927,-572.780,-235.600,-479.060
918,52020.783000,191.140,51.200,151.552,308.364,-200.673,373.905,-630.780,-228.600,-431.060
919,52020.826000,197.036,54.212,152.576,313.977,-204.438,364.881,-622.780,-202.600,-416.060
920,52020.860000,177.382,49.192,149.504,324.270,-211.825,354.793,-650.780,-200.600,-410.060
921,52020.881000,181.313,48.188,153.600,330.877,-211.932,344.854,-628.780,-185.600,-371.060
922,52020.933000,183.278,46.180,155.648,335.439,-223.098,332.687,-603.780,-167.600,-327.060
923,52020.960000,191.140,65.255,141.312,343.958,-222.186,326.752,-600.780,-199.600,-292.060
924,52021.10000,208.829,36.141,142.336,346.793,-221.428,316.826,-760.780,-74.600,-267.060
925,52021.42000,201.950,49.192,153.600,348.498,-233.605,301.649,-635.780,-71.600,-258.060
926,52021.83000,192.123,10.039,152.576,349.331,-241.078,293.534,-650.780,-10.600,-185.060
927,52021.103000,179.347,2.008,183.296,351.229,-240.215,289.577,-558.780,94.400,-147.060
928,52021.143000,176.399,-4.016,192.512,350.173,-247.674,283.449,-511.780,62.400,-81.060
929,52021.183000,181.313,-5.020,187.392,351.096,-249.474,284.407,-157.780,-38.600,-91.060
930,52021.223000,217.674,-9.035,182.272,354.876,-249.482,281.428,-59.780,-59.600,-51.060
931,52021.263000,216.691,4.016,181.248,352.078,-246.732,283.472,190.220,-24.600,-13.060
932,52021.308000,201.950,14.055,165.888,357.888,-237.418,287.657,301.220,-10.600,-42.060
933,52021.342000,180.330,5.020,164.864,357.896,-237.320,292.632,371.220,-21.600,38.940
934,52021.362000,189.175,21.082,167.936,360.816,-231.708,296.735,601.220,-10.600,67.940
935,52021.402000,204.898,34.133,146.432,353.358,-224.342,303.843,647.220,-33.600,75.940
936,52021.442000,209.812,27.106,144.384,356.421,-208.594,311.145,726.220,-11.600,154.940
937,52021.495000,203.916,45.176,143.360,355.550,-203.870,319.201,836.220,-23.600,134.940
938,52021.522000,199.985,29.114,142.336,356.580,-198.263,324.295,735.220,-41.600,150.940
939,52021.562000,195.071,44.173,138.240,352.986,-185.292,334.513,887.220,-5.600,162.940
940,52021.591000,202.933,62.243,150.528,358.754,-179.544,343.595,856.220,-21.600,109.940
941,52021.623000,190.157,51.200,146.432,353.356,-160.185,353.946,739.220,18.400,129.940
942,52021.668000,202.933,59.231,147.456,355.328,-154.605,357.051,738.220,-21.600,43.940
943,52021.703000,197.036,86.337,139.264,354.515,-145.359,362.220,493.220,-67.600,-76.060
944,52021.743000,191.140,89.349,124.928,360.377,-131.581,360.533,437.220,-98.600,-110.060
945,52021.783000,187.209,108.424,128.000,364.250,-125.118,360.676,215.220,-86.600,-112.060
946,52021.823000,186.226,89.349,125.952,363.316,-124.214,360.694,79.220,-76.600,-58.060
947,52021.843000,186.226,83.325,131.072,361.488,-119.639,361.783,42.220,6.400,9.940
948,52021.883000,182.296,96.376,146.432,363.304,-125.130,360.674,109.220,30.400,8.940
949,52021.923000,190.157,93.365,147.456,365.285,-119.452,368.755,79.220,4.400,29.940
950,52021.963000,193.106,88.345,156.672,360.584,-116.844,364.825,91.220,78.400,66.940
951,52022.3000,186.226,92.361,140.288,362.387,-123.252,363.697,113.220,-75.600,127.940
952,52022.43000,216.691,92.361,132.096,361.494,-119.561,365.763,44.220,-69.600,82.940
953,52022.63000,211.777,92.361,145.408,360.505,-123.160,369.664,95.220,-4.600,209.940
954,52022.105000,214.726,84.329,114.688,356.680,-125.978,368.603,91.220,10.400,216.940
955,52022.146000,199.002,72.282,119.808,352.892,-126.067,366.607,41.220,72.400,220.940
956,52022.185000,202.933,70.275,129.024,349.947,-134.271,370.406,78.220,135.400,317.940
957,52022.222000,191.140,62.243,130.048,343.226,-141.649,372.229,66.220,220.400,268.940
958,52022.270000,194.088,65.255,142.336,335.692,-139.780,379.220,128.220,240.400,278.940
959,52022.301000,198.019,59.231,145.408,333.719,-146.140,383.060,116.220,218.400,244.940
960,52022.325000,203.916,55.216,154.624,326.218,-141.581,387.124,110.220,235.400,169.940
961,52022.362000,203.916,66.259,150.528,320.571,-139.746,391.134,102.220,208.400,154.940
962,52022.402000,192.123,61.239,151.552,313.926,-141.627,393.073,6.220,208.400,97.940
963,52022.442000,186.226,63.247,158.720,306.335,-143.500,396.006,-29.780,190.400,43.940
964,52022.481000,185.244,67.263,142.336,309.137,-146.211,395.952,-128.780,99.400,9.940
965,52022.521000,185.244,65.255,149.504,301.419,-157.266,397.695,-244.780,90.400,-29.060
966,52022.547000,183.278,67.263,150.528,303.262,-160.905,397.620,-358.780,50.400,-38.060
967,52022.586000,192.123,57.224,148.480,304.187,-161.907,392.627,-498.780,1.400,-21.060
968,52022.623000,200.967,65.255,149.504,303.967,-177.578,387.320,-550.780,24.400,-79.060
969,52022.666000,199.002,41.161,163.840,304.812,-184.135,379.225,-635.780,22.400,-29.060
970,52022.701000,180.330,43.169,145.408,307.379,-203.453,372.849,-544.780,-28.600,-36.060
971,52022.745000,199.985,25.098,155.648,305.453,-205.408,367.832,-640.780,6.400,-44.060
972,52022.786000,188.192,19.075,149.504,306.317,-210.971,363.736,-479.780,-61.600,-22.060
973,52022.805000,191.140,27.106,159.744,301.422,-222.183,355.533,-501.780,45.400,12.940
974,52022.843000,210.795,10.039,169.984,304.053,-236.901,350.251,-400.780,47.400,53.940
975,52022.891000,184.261,15.059,153.600,304.125,-231.443,348.378,-422.780,6.400,20.940
976,52022.927000,193.106,0.000,169.984,300.258,-237.068,344.274,-374.780,29.400,53.940
977,52022.970000,201.950,11.043,153.600,301.979,-249.050,339.048,-234.780,-81.600,76.940
978,52023.10000,200.967,1.004,139.264,299.952,-258.354,332.879,-255.780,-65.600,71.940
979,52023.26000,207.846,6.024,152.576,298.097,-255.630,332.934,-193.780,37.400,84.940
980,52023.63000,203.916,-1.004,165.888,292.306,-263.951,332.749,-101.780,34.400,110.940
981,52023.105000,206.864,3.012,160.768,291.437,-258.447,333.859,-55.780,123.400,112.940
982,52023.146000,196.054,7.027,154.624,291.313,-267.589,334.659,-53.780,104.400,125.940
983,52023.186000,184.261,15.059,178.176,284.686,-267.715,332.657,-50.780,127.400,77.940
984,52023.226000,177.382,31.122,182.272,285.690,-263.941,337.712,58.220,71.400,19.940
985,52023.266000,170.503,21.082,192.512,280.815,-274.159,333.509,-175.780,108.400,63.940
986,52023.287000,186.226,22.086,185.344,282.743,-271.405,332.576,-143.780,90.400,26.940
987,52023.322000,189.175,9.035,187.392,278.920,-274.203,332.511,-203.780,65.400,36.940
988,52023.365000,187.209,10.039,198.656,275.002,-283.512,327.334,-116.780,87.400,37.940
989,52023.405000,168.537,17.067,182.272,273.088,-285.330,329.281,-134.780,36.400,14.940
990,52023.448000,165.589,4.016,194.560,276.859,-286.216,328.273,-311.780,-6.600,68.940
991,52023.483000,179.347,1.004,193.536,270.137,-292.834,322.155,-249.780,-45.600,45.940
992,52023.507000,175.417,-1.004,188.416,272.960,-293.751,320.150,-234.780,-25.600,31.940
993,52023.545000,167.555,-4.016,179.200,275.769,-295.604,317.131,-178.780,-106.600,17.940
994,52023.585000,169.520,-7.027,167.936,274.713,-303.063,311.003,-65.780,-111.600,14.940
995,52023.622000,185.244,-6.024,181.248,279.551,-295.594,315.148,4.220,-24.600,19.940
996,52023.662000,173.451,-7.027,164.864,277.597,-300.180,316.042,146.220,-68.600,49.940
997,52023.707000,183.278,0.000,173.056,279.467,-301.967,317.001,168.220,-22.600,58.940
998,52023.732000,192.123,4.016,184.320,272.894,-298.371,318.063,204.220,26.400,14.940
999,52023.762000,187.209,8.031,185.344,279.602,-292.689,323.167,210.220,-40.600,27.940
1000,52023.808000,171.486,0.000,187.392,279.655,-288.985,325.235,222.220,-131.600,106.940
1001,52023.842000,184.261,2.008,177.152,280.708,-281.566,329.373,388.220,-247.600,188.940
1002,52023.893000,186.226,-17.067,190.464,284.481,-282.432,329.360,442.220,-260.600,190.940
1003,52023.927000,182.296,-5.020,185.344,283.604,-277.786,333.436,769.220,-424.600,177.940
1004,52023.967000,191.140,-10.039,174.080,292.334,-262.859,341.724,1038.220,-489.600,216.940
1005,52023.987000,195.071,-4.016,174.080,301.980,-249.810,346.989,940.220,-625.600,159.940
1006,52024.26000,201.950,15.059,153.600,308.849,-232.238,351.352,1277.220,-635.600,253.940
1007,52024.67000,195.071,13.051,160.768,317.581,-216.513,353.689,1030.220,-694.600,181.940
1008,52024.108000,205.881,18.071,145.408,324.275,-210.987,350.832,932.220,-727.600,260.940
1009,52024.153000,200.967,11.043,130.048,335.831,-196.179,351.164,868.220,-732.600,247.940
1010,52024.193000,211.777,14.055,128.000,350.147,-186.869,349.394,846.220,-688.600,287.940
1011,52024.207000,211.777,4.016,117.760,356.808,-183.273,341.524,912.220,-638.600,227.940
1012,52024.247000,220.622,7.027,105.472,370.302,-164.834,338.952,881.220,-566.600,213.940
1013,52024.288000,231.432,9.035,97.280,374.151,-160.184,340.051,1061.220,-513.600,150.940
1014,52024.341000,232.415,6.024,68.608,383.850,-142.672,339.444,1103.220,-528.600,7.940
1015,52024.365000,219.639,22.086,58.368,394.592,-117.857,337.004,1083.220,-509.600,-26.060
1016,52024.403000,224.553,22.086,34.816,409.025,-99.483,330.454,1206.220,-589.600,-150.060
1017,52024.451000,231.432,43.169,35.840,418.912,-67.450,323.193,1173.220,-657.600,-312.060
1018,52024.467000,243.225,71.278,23.552,425.681,-55.667,312.513,996.220,-687.600,-286.060
1019,52024.510000,253.052,75.294,17.408,440.129,-35.579,300.032,823.220,-665.600,-338.060
1020,52024.547000,264.845,115.451,14.336,451.689,-19.172,288.462,655.220,-673.600,-261.060
1021,52024.587000,250.104,103.404,-3.072,465.067,-7.478,268.838,492.220,-746.600,-174.060
1022,52024.627000,235.363,105.412,2.048,476.443,-4.015,251.025,423.220,-785.600,-58.060
1023,52024.676000,226.518,108.424,-15.360,482.136,-1.445,238.158,325.220,-764.600,59.940
1024,52024.688000,226.518,97.380,-14.336,489.768,4.756,222.387,250.220,-739.600,123.940
1025,52024.728000,225.536,99.388,-22.528,498.167,-1.896,204.354,87.220,-558.600,156.940
1026,52024.782000,241.259,108.424,-25.600,502.810,-7.486,196.285,-3.780,-355.600,157.940
1027,52024.806000,244.207,106.416,-24.576,500.890,-8.603,187.307,-189.780,-158.600,188.940
1028,52024.852000,238.311,109.427,-22.528,504.566,-16.759,189.128,-248.780,-17.600,189.940
1029,52024.886000,234.380,109.427,-19.456,504.413,-27.792,186.904,-351.780,36.400,257.940
1030,52024.927000,225.536,99.388,-28.672,506.218,-34.180,186.770,-396.780,-109.600,352.940
1031,52024.947000,226.518,88.345,-28.672,507.776,-58.091,180.296,-430.780,-180.600,446.940
1032,52024.988000,218.656,75.294,-32.768,507.687,-63.744,172.219,-322.780,-271.600,461.940
1033,52025.23000,213.743,66.259,-39.936,510.217,-85.032,158.839,-258.780,-339.600,439.940
1034,52025.68000,211.777,63.247,-43.008,510.098,-93.355,154.683,-199.780,-309.600,407.940
1035,52025.108000,213.743,64.251,-50.176,509.076,-98.104,146.623,-169.780,-207.600,304.940
1036,52025.143000,221.605,66.259,-51.200,509.865,-109.163,142.411,-191.780,-147.600,231.940
1037,52025.163000,245.190,73.286,-50.176,505.049,-114.840,136.315,-210.780,-52.600,176.940
1038,52025.210000,276.637,55.216,-79.872,505.923,-120.285,138.190,-282.780,4.400,176.940
1039,52025.243000,309.067,13.051,-51.200,502.025,-127.820,130.066,-279.780,-146.600,406.940
1040,52025.290000,299.240,-29.114,-28.672,495.134,-147.965,134.601,107.220,428.400,515.940
1041,52025.330000,265.827,-30.118,-17.408,493.196,-153.136,152.391,211.220,507.400,508.940
1042,52025.370000,247.155,-11.043,-30.720,483.537,-168.640,161.993,151.220,514.400,430.940
1043,52025.410000,240.276,-17.067,-27.648,474.093,-169.310,180.863,256.220,565.400,310.940
1044,52025.430000,212.760,-34.133,-22.528,470.264,-173.726,191.704,354.220,367.400,278.940
1045,52025.466000,227.501,-34.133,-21.504,466.394,-180.150,193.551,182.220,89.400,368.940
1046,52025.507000,239.294,-47.184,-22.528,460.592,-189.386,193.346,119.220,-157.600,461.940
1047,52025.546000,250.104,-45.176,-20.480,457.601,-200.437,192.112,110.220,-133.600,416.940
1048,52025.590000,255.017,-53.208,-19.456,451.741,-213.416,187.848,170.220,-57.600,345.940
1049,52025.637000,252.069,-56.220,-21.504,451.795,-209.712,189.917,198.220,-19.600,274.940
1050,52025.645000,241.259,-53.208,-18.432,450.819,-212.376,194.832,209.220,48.400,220.940
1051,52025.685000,246.173,-53.208,-24.576,445.041,-219.780,194.666,181.220,72.400,202.940
1052,52025.725000,243.225,-56.220,-17.408,444.124,-218.681,204.634,142.220,109.400,167.940
1053,52025.765000,245.190,-65.255,-12.288,442.194,-221.454,204.572,155.220,181.400,131.940
1054,52025.813000,243.225,-65.255,-2.048,432.796,-217.739,213.589,168.220,194.400,100.940
1055,52025.850000,241.259,-58.227,13.312,432.733,-223.099,220.437,9.220,360.400,24.940
1056,52025.887000,247.155,-63.247,8.192,429.918,-222.084,227.417,123.220,473.400,-123.060
1057,52025.912000,259.931,-48.188,14.336,427.149,-218.223,239.431,-57.780,459.400,-193.060
1058,52025.947000,245.190,-30.118,21.504,429.169,-209.777,248.565,-116.780,465.400,-286.060
1059,52025.987000,237.328,-21.082,19.456,428.264,-207.002,250.612,-237.780,271.400,-390.060
1060,52026.27000,230.449,-13.051,13.312,433.022,-205.088,251.655,-197.780,149.400,-416.060
1061,52026.66000,237.328,-4.016,6.144,436.945,-194.960,251.876,-245.780,52.400,-406.060
1062,52026.120000,255.017,-2.008,2.048,445.580,-185.765,248.106,-212.780,-101.600,-381.060
1063,52026.140000,266.810,9.035,-1.024,444.670,-182.269,240.222,-225.780,-135.600,-367.060
