Sample, Time, ACCX, ACCY, ACCZ, MAGX, MAGY, MAGZ, GYRX, GYRY, GYRZ
0,51676.576000,249.121,3.012,23.552,447.087,-207.962,188.952,22.220,117.400,-61.060
1,51676.628000,248.138,6.024,20.480,447.985,-211.595,189.871,10.220,96.400,-53.060
2,51676.656000,245.190,5.020,16.384,448.995,-206.982,190.965,16.220,93.400,-50.060
3,51676.691000,245.190,6.024,16.384,452.757,-208.745,191.928,52.220,75.400,-63.060
4,51676.712000,248.138,7.027,19.456,449.905,-209.698,191.903,46.220,60.400,-81.060
5,51676.768000,254.035,12.047,18.432,452.794,-205.996,191.986,88.220,-3.600,-94.060
6,51676.792000,256.000,15.059,13.312,453.882,-195.867,194.193,125.220,-1.600,-110.060
7,51676.832000,260.914,16.063,17.408,451.048,-195.846,197.173,103.220,35.400,-102.060
8,51676.884000,250.104,25.098,15.360,454.835,-195.777,198.175,37.220,8.400,-113.060
9,51676.917000,250.104,26.102,15.360,453.952,-191.189,199.266,84.220,28.400,-139.060
10,51676.929000,245.190,27.106,15.360,455.843,-191.184,198.274,106.220,47.400,-152.060
11,51676.969000,247.155,29.114,18.432,455.914,-186.505,203.347,85.220,20.400,-117.060
12,51677.15000,248.138,29.114,15.360,456.900,-183.725,204.402,54.220,7.400,-77.060
13,51677.53000,258.948,24.094,10.240,458.867,-178.203,204.523,54.220,19.400,-55.060
14,51677.101000,253.052,26.102,7.168,462.601,-181.837,203.456,61.220,-9.600,-60.060
15,51677.134000,251.086,23.090,11.264,456.093,-173.640,205.610,118.220,20.400,-36.060
16,51677.153000,250.104,24.094,11.264,458.974,-170.796,208.659,132.220,22.400,-36.060
17,51677.196000,244.207,30.118,16.384,459.944,-168.971,207.705,116.220,13.400,-44.060
18,51677.230000,246.173,33.129,15.360,460.857,-171.648,210.633,91.220,79.400,-53.060
19,51677.276000,249.121,35.137,22.528,460.916,-167.886,215.686,92.220,138.400,-74.060
20,51677.322000,247.155,39.153,23.552,459.971,-167.879,216.680,27.220,138.400,-92.060
21,51677.356000,247.155,41.161,23.552,459.110,-162.277,222.765,3.220,147.400,-90.060
22,51677.397000,248.138,39.153,25.600,459.079,-164.948,226.687,-8.780,154.400,-76.060
23,51677.426000,245.190,34.133,27.648,459.104,-163.116,226.726,-35.780,128.400,-45.060
24,51677.456000,247.155,34.133,25.600,454.440,-158.539,229.800,-44.780,110.400,-9.060
25,51677.493000,248.138,28.110,28.672,455.343,-162.113,233.704,-34.780,126.400,7.940
26,51677.537000,249.121,30.118,29.696,453.500,-158.473,233.779,-12.780,84.400,28.940
27,51677.573000,249.121,33.129,29.696,450.641,-160.284,236.720,-1.780,84.400,28.940
28,51677.618000,248.138,30.118,33.792,451.611,-158.459,235.766,-20.780,81.400,22.940
29,51677.631000,248.138,30.118,30.720,447.756,-163.947,238.627,-36.780,60.400,20.940
30,51677.681000,247.155,30.118,35.840,447.712,-167.534,242.529,-41.780,70.400,26.940
31,51677.718000,246.173,30.118,37.888,449.542,-172.090,242.435,-54.780,72.400,28.940
32,51677.754000,250.104,26.102,37.888,445.856,-164.830,241.590,-25.780,62.400,15.940
33,51677.803000,247.155,27.106,39.936,442.100,-162.989,244.607,-34.780,65.400,23.940
34,51677.832000,245.190,27.106,39.936,444.911,-164.823,242.583,-18.780,40.400,25.940
35,51677.851000,248.138,28.110,41.984,442.047,-166.693,242.539,2.220,38.400,19.940
36,51677.902000,245.190,26.102,40.960,443.008,-165.745,243.555,-7.780,8.400,8.940
37,51677.936000,247.155,28.110,38.912,441.029,-172.163,244.410,-6.780,-4.600,15.940
38,51677.978000,248.138,29.114,40.960,441.002,-174.015,243.376,-12.780,-4.600,17.940
39,51678.21000,248.138,26.102,38.912,444.863,-168.468,243.500,-12.780,-46.600,12.940
40,51678.56000,247.155,28.110,36.864,442.897,-173.970,244.375,-15.780,-42.600,22.940
41,51678.97000,247.155,26.102,37.888,443.943,-166.629,244.532,-5.780,-43.600,26.940
42,51678.117000,248.138,24.094,33.792,446.730,-170.275,243.464,18.220,-52.600,16.940
43,51678.157000,249.121,28.110,35.840,441.037,-171.306,241.445,0.220,-33.600,8.940
44,51678.197000,248.138,30.118,37.888,445.777,-170.366,239.482,-6.780,-28.600,-5.060
45,51678.238000,247.155,26.102,35.840,445.726,-174.050,238.409,-0.780,-22.600,-12.060
46,51678.271000,248.138,28.110,38.912,443.786,-177.700,240.318,-24.780,-4.600,-5.060
47,51678.310000,247.155,28.110,40.960,445.761,-171.321,237.473,-55.780,-13.600,5.940
48,51678.333000,248.138,25.098,36.864,444.743,-176.791,239.344,-30.780,-22.600,13.940
49,51678.377000,247.155,25.098,36.864,449.484,-175.852,237.382,-26.780,-16.600,10.940
50,51678.411000,247.155,25.098,37.888,446.675,-173.998,240.401,-24.780,-27.600,12.940
51,51678.452000,246.173,27.106,32.768,446.697,-172.205,238.450,-10.780,-32.600,-3.060
52,51678.509000,249.121,25.098,34.816,446.706,-171.328,236.479,-1.780,-19.600,0.940
53,51678.538000,248.138,27.106,35.840,444.733,-176.908,233.374,1.220,-20.600,-4.060
54,51678.578000,245.190,26.102,34.816,445.731,-173.212,234.449,2.220,-36.600,3.940
55,51678.593000,247.155,24.094,32.768,444.737,-176.869,235.364,6.220,-7.600,4.940
56,51678.636000,247.155,25.098,30.720,448.625,-169.451,237.517,11.220,-7.600,-1.060
57,51678.677000,248.138,27.106,32.768,451.348,-177.698,235.356,10.220,-11.600,-0.060
58,51678.720000,248.138,26.102,31.744,448.599,-171.303,236.483,22.220,3.400,-9.060
59,51678.757000,248.138,26.102,31.744,446.751,-167.722,233.572,26.220,-0.600,-8.060
60,51678.799000,250.104,26.102,33.792,448.586,-172.219,236.463,15.220,1.400,1.940
61,51678.818000,248.138,29.114,32.768,448.631,-168.613,233.556,26.220,2.400,-2.060
62,51678.852000,247.155,26.102,33.792,448.645,-167.678,234.571,25.220,5.400,-4.060
63,51678.901000,247.155,27.106,33.792,443.864,-171.405,234.484,15.220,-1.600,3.940
64,51678.937000,250.104,25.098,32.768,445.711,-174.986,237.395,14.220,-1.600,1.940
65,51678.979000,249.121,26.102,30.720,444.862,-167.708,235.559,19.220,-9.600,-2.060
66,51679.14000,250.104,24.094,30.720,445.797,-168.592,236.536,22.220,-5.600,11.940
67,51679.58000,248.138,27.106,36.864,444.821,-170.496,233.510,12.220,1.400,-0.060
68,51679.72000,248.138,28.110,30.720,447.679,-169.464,237.515,-3.780,-0.600,-1.060
69,51679.118000,247.155,23.090,32.768,444.817,-171.314,238.466,-22.780,18.400,4.940
70,51679.158000,247.155,26.102,32.768,446.644,-175.909,236.382,-18.780,15.400,-2.060
71,51679.203000,248.138,25.098,32.768,449.564,-170.296,240.484,-18.780,20.400,-5.060
72,51679.239000,248.138,28.110,37.888,445.716,-174.927,240.380,-17.780,25.400,-12.060
73,51679.277000,247.155,29.114,36.864,442.926,-171.320,239.458,-11.780,17.400,-16.060
74,51679.297000,248.138,27.106,32.768,444.868,-167.630,239.539,-18.780,22.400,-15.060
75,51679.337000,248.138,27.106,33.792,447.670,-170.341,239.486,-25.780,25.400,-9.060
76,51679.377000,249.121,27.106,38.912,446.731,-169.496,236.518,-26.780,13.400,-12.060
77,51679.414000,248.138,26.102,32.768,446.747,-168.541,238.528,-21.780,5.400,-15.060
78,51679.458000,248.138,26.102,35.840,446.711,-171.270,239.464,-23.780,15.400,-11.060
79,51679.503000,248.138,28.110,35.840,446.766,-167.546,242.528,-8.780,12.400,-14.060
80,51679.522000,248.138,27.106,33.792,445.752,-172.198,239.443,-1.780,3.400,-16.060
81,51679.552000,249.121,27.106,36.864,450.459,-173.968,239.413,-13.780,21.400,-8.060
82,51679.603000,247.155,28.110,38.912,443.003,-165.803,240.570,-11.780,14.400,-3.060
83,51679.639000,247.155,27.106,36.864,444.859,-168.507,241.510,-1.780,6.400,-8.060
84,51679.674000,247.155,29.114,35.840,444.820,-171.275,240.456,7.220,15.400,-8.060
85,51679.714000,247.155,31.122,37.888,441.024,-172.222,241.425,16.220,13.400,-6.060
86,51679.752000,248.138,27.106,37.888,446.764,-167.566,241.533,25.220,5.400,0.940
87,51679.778000,248.138,29.114,38.912,444.838,-170.300,243.461,10.220,9.400,3.940
88,51679.814000,247.155,30.118,38.912,444.859,-168.507,241.510,11.220,12.400,3.940
89,51679.858000,249.121,27.106,38.912,442.900,-173.931,246.365,20.220,5.400,-1.060
90,51679.897000,248.138,30.118,38.912,442.967,-168.532,241.506,17.220,6.400,7.940
91,51679.937000,246.173,29.114,37.888,442.033,-167.628,241.524,10.220,13.400,12.940
92,51679.982000,245.190,29.114,34.816,443.009,-165.725,244.550,17.220,12.400,9.940
93,51680.3000,247.155,26.102,39.936,440.099,-171.220,246.418,18.220,14.400,12.940
94,51680.38000,248.138,26.102,39.936,442.943,-170.345,242.463,17.220,10.400,1.940
95,51680.73000,247.155,27.106,36.864,441.954,-173.944,246.363,18.220,18.400,1.940
96,51680.113000,247.155,29.114,37.888,441.048,-171.169,248.410,12.220,17.400,2.940
97,51680.154000,246.173,29.114,40.960,442.057,-166.576,248.509,16.220,12.400,0.940
98,51680.198000,246.173,28.110,37.888,444.814,-172.113,244.417,20.220,11.400,-0.060
99,51680.238000,246.173,29.114,40.960,440.166,-166.581,249.501,11.220,9.400,5.940
100,51680.256000,247.155,30.118,40.960,441.109,-166.608,247.513,13.220,11.400,9.940
101,51680.296000,247.155,28.110,39.936,441.998,-171.117,250.402,9.220,-0.600,5.940
102,51680.338000,246.173,29.114,38.912,442.000,-171.098,251.397,8.220,4.400,-1.060
103,51680.377000,248.138,29.114,41.984,442.032,-168.408,248.470,2.220,4.400,0.940
104,51680.419000,248.138,28.110,36.864,444.835,-171.099,249.412,-1.780,-7.600,8.940
105,51680.472000,248.138,28.110,37.888,442.955,-170.208,249.428,-15.780,-5.600,13.940
106,51680.489000,247.155,27.106,39.936,440.079,-172.994,249.364,-24.780,-1.600,13.940
107,51680.518000,247.155,28.110,40.960,443.862,-172.964,248.376,-21.780,-4.600,10.940
108,51680.558000,245.190,26.102,38.912,438.258,-167.561,247.488,-21.780,-4.600,8.940
109,51680.600000,250.104,26.102,37.888,441.082,-168.460,246.478,-18.780,-8.600,13.940
110,51680.633000,248.138,26.102,40.960,439.098,-175.716,251.294,-25.780,-5.600,20.940
111,51680.682000,247.155,27.106,39.936,438.153,-174.949,244.347,-34.780,-4.600,9.940
112,51680.716000,245.190,25.098,39.936,441.037,-172.066,249.386,-35.780,2.400,5.940
113,51680.738000,247.155,27.106,43.008,442.900,-173.931,246.365,-31.780,-5.600,-3.060
114,51680.779000,248.138,26.102,38.912,440.075,-173.033,247.374,-31.780,-14.600,-4.060
115,51680.813000,248.138,26.102,40.960,442.841,-178.473,248.257,-44.780,-6.600,5.940
116,51680.862000,246.173,25.098,45.056,441.031,-172.144,245.405,-46.780,-19.600,13.940
117,51680.893000,247.155,23.090,43.008,438.158,-174.890,247.332,-41.780,-18.600,14.940
118,51680.939000,247.155,24.094,44.032,442.922,-172.138,244.414,-32.780,-17.600,17.940
119,51680.966000,246.173,22.086,41.984,438.115,-177.697,244.288,-18.780,-30.600,17.940
120,51680.994000,246.173,23.090,39.936,440.031,-175.860,243.335,-20.780,-33.600,12.940
121,51681.33000,246.173,24.094,38.912,442.892,-174.029,241.389,-10.780,-36.600,2.940
122,51681.75000,247.155,23.090,38.912,442.803,-180.461,240.258,-3.780,-36.600,-7.060
123,51681.120000,247.155,25.098,33.792,440.026,-175.918,240.350,0.220,-35.600,-17.060
124,51681.167000,247.155,26.102,34.816,444.706,-179.540,239.286,-1.780,-18.600,-25.060
125,51681.212000,250.104,26.102,38.912,441.942,-174.080,239.398,-12.780,2.400,-24.060
126,51681.220000,249.121,28.110,36.864,441.955,-173.164,239.417,-28.780,0.400,-22.060
127,51681.259000,247.155,26.102,36.864,444.695,-180.436,240.261,-32.780,4.400,-21.060
128,51681.295000,248.138,26.102,37.888,442.813,-179.565,239.282,-22.780,6.400,-21.060
129,51681.346000,247.155,26.102,37.888,445.656,-179.488,241.277,-23.780,-4.600,-10.060
130,51681.382000,248.138,25.098,39.936,442.823,-178.688,237.312,-21.780,-8.600,-2.060
131,51681.415000,247.155,27.106,36.864,443.872,-171.307,239.459,-16.780,-9.600,-2.060
132,51681.435000,247.155,27.106,37.888,445.636,-180.482,237.278,-19.780,2.400,-12.060
133,51681.482000,247.155,29.114,39.936,441.960,-173.106,242.402,-9.780,-2.600,-8.060
134,51681.517000,248.138,28.110,36.864,446.561,-182.263,239.230,-14.780,4.400,-1.060
135,51681.557000,248.138,26.102,37.888,441.939,-174.119,237.408,-31.780,8.400,7.940
136,51681.597000,246.173,26.102,41.984,441.865,-179.597,238.285,-22.780,5.400,14.940
137,51681.637000,248.138,26.102,37.888,442.817,-179.526,241.272,-2.780,8.400,10.940
138,51681.655000,247.155,27.106,40.960,444.754,-175.895,238.369,10.220,7.400,7.940
139,51681.694000,248.138,27.106,38.912,445.676,-177.714,238.331,25.220,-10.600,13.940
140,51681.742000,249.121,28.110,36.864,442.860,-175.939,237.370,15.220,1.400,8.940
141,51681.782000,248.138,27.106,36.864,443.813,-175.849,241.352,17.220,-2.600,10.940
142,51681.817000,246.173,25.098,35.840,440.021,-175.977,237.365,23.220,-2.600,6.940
143,51681.857000,247.155,28.110,38.912,442.874,-175.004,238.385,24.220,8.400,0.940
144,51681.903000,249.121,29.114,37.888,441.955,-173.164,239.417,21.220,2.400,-6.060
145,51681.914000,248.138,28.110,36.864,442.751,-184.145,239.185,23.220,8.400,-6.060
146,51681.955000,247.155,24.094,35.840,440.031,-175.860,243.335,23.220,17.400,-7.060
147,51681.997000,248.138,29.114,36.864,443.822,-174.972,239.381,31.220,14.400,-9.060
148,51682.39000,247.155,30.118,36.864,442.856,-176.758,242.326,18.220,10.400,-8.060
149,51682.90000,248.138,29.114,36.864,439.147,-171.291,243.431,2.220,23.400,4.940
150,51682.127000,247.155,26.102,41.984,440.034,-175.821,245.326,-3.780,23.400,17.940
151,51682.147000,246.173,28.110,39.936,438.126,-176.801,243.313,-10.780,15.400,10.940
152,51682.174000,246.173,27.106,37.888,442.831,-178.590,242.287,-19.780,22.400,10.940
153,51682.217000,247.155,27.106,40.960,441.004,-173.995,244.371,-20.780,17.400,22.940
154,51682.257000,249.121,24.094,39.936,438.028,-184.110,244.152,-21.780,17.400,17.940
155,51682.294000,250.104,23.090,39.936,438.156,-174.910,246.337,-12.780,25.400,23.940
156,51682.343000,247.155,24.094,44.032,439.922,-184.066,245.150,1.220,15.400,11.940
157,51682.377000,247.155,23.090,43.008,437.172,-177.671,246.277,-1.780,17.400,9.940
158,51682.399000,248.138,25.098,41.984,439.964,-181.259,248.194,-18.780,13.400,9.940
159,51682.439000,247.155,24.094,40.960,439.986,-179.466,246.243,-13.780,3.400,-0.060
160,51682.497000,247.155,24.094,43.008,432.312,-186.934,244.083,-27.780,-5.600,3.940
161,51682.520000,246.173,24.094,41.984,436.251,-175.851,246.314,-36.780,-0.600,6.940
162,51682.568000,248.138,21.082,41.984,435.194,-184.089,247.132,-32.780,-6.600,5.940
163,51682.603000,247.155,22.086,38.912,439.001,-182.246,245.187,-21.780,-0.600,5.940
164,51682.617000,245.190,21.082,43.008,439.063,-177.665,245.285,-7.780,10.400,13.940
165,51682.657000,248.138,23.090,44.032,438.072,-181.284,248.190,-21.780,6.400,10.940
166,51682.697000,247.155,21.082,43.008,435.165,-185.961,245.103,-0.780,13.400,13.940
167,51682.747000,245.190,20.078,45.056,439.968,-181.220,250.184,19.220,9.400,7.940
168,51682.780000,244.207,22.086,45.056,436.196,-179.574,243.251,19.220,0.400,-3.060
169,51682.820000,250.104,22.086,44.032,436.187,-180.451,245.221,22.220,-2.600,-1.060
170,51682.858000,245.190,20.078,45.056,434.326,-178.566,249.237,35.220,-4.600,-4.060
171,51682.877000,250.104,20.078,38.912,433.310,-183.237,245.158,51.220,-15.600,1.940
172,51682.920000,246.173,23.090,46.080,437.215,-174.864,249.320,48.220,-8.600,5.940
173,51682.967000,249.121,18.071,41.984,436.173,-181.387,244.207,62.220,-6.600,6.940
174,51683.17000,246.173,21.082,40.960,436.154,-183.141,248.148,56.220,1.400,-0.060
175,51683.42000,248.138,22.086,41.984,434.352,-176.714,250.271,60.220,13.400,-8.060
176,51683.79000,248.138,24.094,40.960,438.178,-173.877,252.327,71.220,12.400,-19.060
177,51683.103000,249.121,22.086,44.032,435.325,-174.850,251.307,52.220,22.400,-16.060
178,51683.136000,248.138,23.090,45.056,436.289,-173.863,254.313,49.220,24.400,-11.060
179,51683.183000,245.190,24.094,45.056,438.188,-173.000,250.356,64.220,17.400,-22.060
180,51683.215000,249.121,23.090,43.008,435.282,-178.436,255.209,56.220,18.400,-22.060
181,51683.256000,250.104,27.106,41.984,432.566,-169.332,254.404,46.220,7.400,-17.060
182,51683.298000,252.069,32.125,37.888,438.257,-168.341,254.434,21.220,-6.600,-51.060
183,51683.349000,245.190,43.169,29.696,435.468,-164.714,254.507,-33.780,-28.600,-101.060
184,51683.357000,238.311,51.200,29.696,438.266,-167.464,252.463,-113.780,-19.600,-131.060
185,51683.398000,242.242,58.227,22.528,441.128,-165.614,251.512,-261.780,2.400,-171.060
186,51683.438000,249.121,54.212,11.264,438.238,-169.335,250.434,-389.780,13.400,-200.060
187,51683.478000,253.052,56.220,7.168,440.156,-166.698,243.531,-496.780,-2.600,-165.060
188,51683.520000,247.155,49.192,4.096,447.597,-175.039,233.418,-756.780,-46.600,-179.060
189,51683.557000,245.190,38.149,14.336,445.639,-179.683,231.327,-1000.780,-77.600,-183.060
190,51683.577000,238.311,6.024,29.696,445.530,-186.350,218.254,-1317.780,-48.600,-132.060
191,51683.622000,243.225,3.012,53.248,447.271,-195.799,202.142,-1513.780,215.400,-202.060
192,51683.662000,240.276,-6.024,89.088,444.309,-204.198,195.991,-1618.780,348.400,-196.060
193,51683.703000,249.121,4.016,97.280,442.369,-207.089,189.959,-1338.780,556.400,-304.060
194,51683.750000,234.380,12.047,108.544,440.389,-213.527,189.819,-1275.780,586.400,-329.060
195,51683.779000,228.484,8.031,116.736,441.264,-218.972,191.693,-983.780,528.400,-264.060
196,51683.805000,232.415,14.055,128.000,437.468,-219.919,192.662,-711.780,478.400,-201.060
197,51683.842000,215.708,10.039,140.288,437.388,-225.474,189.560,-975.780,395.400,-216.060
198,51683.878000,225.536,20.078,130.048,437.322,-230.094,187.472,-709.780,289.400,-204.060
199,51683.918000,201.950,16.063,146.432,441.138,-227.373,183.557,-707.780,276.400,-186.060
200,51683.960000,210.795,14.055,133.120,438.338,-224.643,184.606,-495.780,117.400,-206.060
201,51684.3000,206.864,16.063,144.384,435.503,-223.862,179.645,-580.780,184.400,-182.060
202,51684.43000,206.864,0.000,136.192,442.121,-223.853,175.676,-526.780,120.400,-173.060
203,51684.57000,199.002,3.012,139.264,438.281,-227.626,172.607,-638.780,257.400,-241.060
204,51684.97000,181.313,14.055,142.336,444.069,-219.325,171.797,-550.780,223.400,-352.060
205,51684.147000,184.261,-5.020,111.616,446.024,-214.719,171.898,-494.780,119.400,-335.060
206,51684.182000,208.829,-2.008,106.496,448.842,-215.695,166.908,-500.780,231.400,-329.060
207,51684.223000,235.363,14.055,112.640,452.845,-200.013,170.232,-218.780,298.400,-429.060
208,51684.262000,267.793,39.153,94.208,455.760,-195.238,178.295,-35.780,254.400,-478.060
209,51684.283000,307.102,68.267,116.736,455.095,-175.797,189.649,-119.780,420.400,-520.060
210,51684.330000,274.672,113.443,105.472,460.917,-164.787,186.908,38.220,203.400,-517.060
211,51684.358000,258.948,89.349,95.232,468.559,-160.009,191.994,-197.780,218.400,-447.060
212,51684.399000,222.587,84.329,93.184,465.766,-157.201,197.023,-133.780,149.400,-284.060
213,51684.447000,213.743,63.247,90.112,468.594,-158.060,198.003,-66.780,76.400,-88.060
214,51684.479000,204.898,72.282,81.920,465.762,-157.240,195.033,45.220,-38.600,-48.060
215,51684.519000,200.967,73.286,79.872,469.613,-152.570,197.127,81.220,-34.600,40.940
216,51684.545000,210.795,63.247,59.392,465.827,-152.639,196.125,40.220,-76.600,161.940
217,51684.579000,230.449,84.329,80.896,467.587,-162.633,198.899,135.220,108.400,168.940
218,51684.623000,234.380,82.322,66.560,466.594,-166.271,200.809,171.220,-4.600,252.940
219,51684.658000,223.570,75.294,68.608,458.054,-168.197,201.750,47.220,78.400,290.940
220,51684.699000,211.777,80.314,100.352,455.939,-184.673,203.386,-44.780,-24.600,291.940
221,51684.737000,289.413,46.180,121.856,449.299,-185.716,201.365,-190.780,85.400,307.940
222,51684.757000,228.484,-9.035,165.888,448.322,-188.398,205.285,-25.780,260.400,331.940
223,51684.798000,201.950,0.000,180.224,437.717,-203.915,214.885,23.220,369.400,227.940
224,51684.839000,196.054,8.031,190.464,434.955,-199.196,223.933,139.220,293.400,152.940
225,51684.882000,194.088,21.082,173.056,428.246,-206.437,232.721,264.220,198.400,173.940
226,51684.922000,184.261,16.063,165.888,423.470,-210.106,235.620,237.220,207.400,215.940
227,51684.960000,179.347,16.063,171.008,415.938,-208.217,243.606,171.220,191.400,323.940
228,51685.2000,177.382,17.067,163.840,411.093,-217.305,250.368,190.220,165.400,345.940
229,51685.22000,189.175,-2.008,167.936,403.430,-224.636,255.174,207.220,145.400,455.940
230,51685.62000,193.106,0.000,165.888,396.805,-225.503,262.108,408.220,137.400,478.940
231,51685.102000,176.399,-7.027,164.864,391.127,-226.358,269.044,553.220,130.400,495.940
232,51685.142000,173.451,-5.020,175.104,380.587,-237.255,280.732,636.220,206.400,558.940
233,51685.180000,173.451,-13.051,162.816,372.181,-230.681,294.784,809.220,189.400,625.940
234,51685.220000,170.503,-29.114,176.128,361.691,-238.693,313.496,936.220,241.400,698.940
235,51685.240000,164.607,-28.110,144.384,350.537,-225.705,329.670,1183.220,147.400,669.940
236,51685.280000,243.225,-11.043,151.552,340.213,-220.988,343.680,1325.220,345.400,756.940
237,51685.329000,204.898,53.208,132.096,328.100,-209.708,366.779,1420.220,365.400,532.940
238,51685.360000,166.572,45.176,124.928,317.860,-199.398,385.882,1252.220,426.400,507.940
239,51685.402000,208.829,102.400,183.296,306.861,-175.357,405.275,1245.220,423.400,329.940
240,51685.443000,170.503,98.384,165.888,295.631,-167.866,421.332,982.220,269.400,256.940
241,51685.483000,169.520,77.302,211.968,287.360,-151.254,433.609,659.220,382.400,251.940
242,51685.500000,149.866,84.329,203.776,286.509,-144.756,438.719,606.220,222.400,304.940
243,51685.545000,168.537,80.314,191.488,279.945,-141.062,444.756,544.220,145.400,238.940
244,51685.584000,164.607,82.322,178.176,273.481,-130.039,450.949,522.220,-1.600,221.940
245,51685.618000,173.451,82.322,173.056,276.450,-120.781,454.134,449.220,-42.600,245.940
246,51685.663000,169.520,94.369,173.056,274.629,-115.349,452.258,442.220,-77.600,242.940
247,51685.702000,171.486,78.306,171.008,277.360,-123.498,455.072,424.220,-119.600,328.940
248,51685.724000,178.365,80.314,159.744,274.698,-110.690,456.336,466.220,-131.600,407.940
249,51685.764000,165.589,79.310,183.296,276.671,-105.109,459.441,550.220,-73.600,441.940
250,51685.803000,162.641,78.306,167.936,272.930,-102.333,463.473,618.220,-99.600,513.940
251,51685.847000,153.797,73.286,164.864,279.611,-98.503,467.543,592.220,-90.600,531.940
252,51685.883000,161.658,71.278,186.368,279.654,-94.916,463.641,594.220,-90.600,625.940
253,51685.920000,164.607,63.247,160.768,275.997,-85.766,465.820,522.220,-190.600,607.940
254,51685.963000,151.831,52.204,143.360,281.700,-83.859,465.869,452.220,-194.600,573.940
255,51685.983000,163.624,57.224,159.744,282.609,-86.595,465.812,340.220,-53.600,539.940
256,51686.25000,180.330,63.247,148.480,282.616,-85.737,462.846,227.220,-108.600,419.940
257,51686.60000,193.106,44.173,104.448,285.450,-85.758,459.866,96.220,-220.600,385.940
258,51686.103000,215.708,36.141,110.592,290.003,-98.561,457.611,-84.780,-40.600,417.940
259,51686.139000,232.415,23.090,124.928,287.100,-103.198,456.513,-143.780,-88.600,400.940
260,51686.178000,290.395,4.016,115.712,286.948,-114.211,455.284,-5.780,44.400,409.940
261,51686.198000,320.860,-51.200,156.672,278.319,-122.569,455.094,-236.780,260.400,550.940
262,51686.245000,258.948,-49.192,113.664,278.208,-130.795,455.913,89.220,-71.600,449.940
263,51686.287000,206.864,-5.020,116.736,276.287,-132.691,453.880,24.220,-18.600,279.940
264,51686.320000,200.967,-1.004,113.664,275.280,-137.265,454.776,106.220,-182.600,186.940
265,51686.364000,197.036,-9.035,92.160,281.069,-128.964,453.967,157.220,-271.600,106.940
266,51686.404000,217.674,2.008,81.920,289.531,-132.575,450.919,54.220,-202.600,64.940
267,51686.424000,231.432,-9.035,92.160,291.427,-131.731,445.966,-37.780,-145.600,29.940
268,51686.463000,248.138,-17.067,88.064,292.402,-129.847,447.997,24.220,-72.600,18.940
269,51686.502000,263.862,-19.075,84.992,294.241,-133.526,445.932,105.220,-42.600,27.940
270,51686.544000,251.086,-11.043,76.800,296.277,-123.365,449.135,147.220,-24.600,-38.060
271,51686.579000,235.363,-8.031,77.824,294.409,-121.557,449.171,101.220,-23.600,-48.060
272,51686.625000,229.466,-16.063,72.704,292.430,-127.976,450.026,14.220,-9.600,-102.060
273,51686.662000,230.449,-21.082,81.920,299.067,-126.972,450.057,31.220,-29.600,-153.060
274,51686.684000,237.328,-18.071,109.568,297.253,-121.461,452.161,-98.780,0.400,-174.060
275,51686.724000,274.672,-44.173,129.024,297.246,-121.539,448.181,178.220,-47.600,-168.060
276,51686.765000,246.173,19.075,155.648,296.533,-104.964,453.506,246.220,136.400,-280.060
277,51686.799000,242.242,56.220,159.744,299.526,-93.894,455.735,231.220,33.400,-352.060
278,51686.842000,225.536,31.122,136.192,296.765,-88.396,457.837,120.220,-51.600,-314.060
279,51686.881000,179.347,67.263,131.072,297.774,-83.802,457.937,131.220,45.400,-313.060
280,51686.900000,194.088,72.282,140.288,296.938,-75.589,457.116,-23.780,12.400,-344.060
281,51686.947000,186.226,61.239,137.216,297.810,-81.073,457.000,-104.780,6.400,-377.060
282,51686.982000,192.123,69.271,138.240,297.043,-68.202,460.257,-132.780,57.400,-360.060
283,51687.24000,191.140,69.271,137.216,296.106,-67.337,458.285,-249.780,15.400,-411.060
284,51687.60000,191.140,67.263,138.240,297.029,-69.137,459.242,-291.780,2.400,-402.060
285,51687.100000,195.071,91.357,138.240,296.115,-66.460,456.314,-314.780,7.400,-376.060
286,51687.142000,189.175,79.310,142.336,298.853,-73.771,455.168,-471.780,-28.600,-391.060
287,51687.164000,188.192,81.318,135.168,300.635,-81.192,449.045,-516.780,-59.600,-356.060
288,51687.202000,198.019,89.349,147.456,303.383,-87.607,446.923,-561.780,-68.600,-337.060
289,51687.245000,195.071,81.318,151.552,301.380,-95.857,447.739,-638.780,-87.600,-287.060
290,51687.285000,195.071,73.286,154.624,306.924,-105.041,442.579,-667.780,-94.600,-269.060
291,51687.325000,191.140,78.306,149.504,313.487,-108.755,435.547,-680.780,-160.600,-282.060
292,51687.362000,186.226,71.278,134.144,317.980,-125.339,427.243,-762.780,-211.600,-278.060
293,51687.389000,192.123,66.259,122.880,323.555,-131.852,418.161,-779.780,-229.600,-307.060
294,51687.422000,185.244,70.275,112.640,330.082,-138.295,412.066,-839.780,-215.600,-330.060
295,51687.462000,222.587,63.247,83.968,331.728,-155.014,398.782,-941.780,-310.600,-368.060
296,51687.502000,240.276,54.212,71.680,341.939,-167.976,384.597,-1134.780,-233.600,-507.060
297,51687.545000,243.225,50.196,96.256,350.293,-178.233,369.471,-1368.780,80.400,-562.060
298,51687.585000,221.605,20.078,110.592,351.971,-193.042,360.207,-1325.780,-30.600,-619.060
299,51687.625000,199.985,-6.024,139.264,355.634,-200.575,347.122,-1304.780,137.400,-591.060
300,51687.647000,193.106,-8.031,176.128,356.466,-208.067,338.012,-1143.780,118.400,-594.060
301,51687.687000,204.898,-6.024,188.416,361.106,-213.696,327.952,-999.780,130.400,-530.060
302,51687.727000,199.985,-2.008,196.608,361.985,-217.544,317.925,-885.780,131.400,-551.060
303,51687.767000,199.985,1.004,196.608,369.519,-219.413,310.934,-861.780,57.400,-448.060
304,51687.800000,193.106,-5.020,205.824,370.350,-226.905,301.824,-869.780,-63.600,-337.060
305,51687.840000,191.140,11.043,185.344,374.909,-238.109,287.668,-647.780,-171.600,-398.060
306,51687.868000,192.123,16.063,183.296,385.414,-229.922,277.911,-604.780,-228.600,-424.060
307,51687.909000,189.175,19.075,162.816,393.891,-231.817,268.931,-533.780,-334.600,-396.060
308,51687.945000,179.347,22.086,146.432,401.524,-225.597,254.156,-575.780,-340.600,-370.060
309,51687.987000,191.140,18.071,147.456,407.135,-229.381,244.137,-641.780,-265.600,-350.060
310,51688.27000,183.278,15.059,129.024,416.587,-228.613,230.242,-642.780,-270.600,-326.060
311,51688.67000,197.036,8.031,145.408,418.422,-231.571,218.247,-633.780,-128.600,-297.060
312,51688.100000,179.347,13.051,154.624,422.282,-225.264,210.429,-641.780,-64.600,-280.060
313,51688.137000,191.140,1.004,182.272,427.884,-229.926,202.381,-691.780,73.400,-276.060
314,51688.165000,174.434,-2.008,186.368,434.546,-226.311,195.506,-607.780,37.400,-338.060
315,51688.205000,168.537,-7.027,186.368,438.398,-220.861,190.654,-663.780,48.400,-395.060
316,51688.247000,170.503,-9.035,195.584,443.168,-217.271,183.775,-487.780,-12.600,-492.060
317,51688.280000,167.555,-6.024,190.464,444.285,-203.712,174.119,-502.780,-37.600,-515.060
318,51688.322000,189.175,7.027,172.032,454.766,-198.116,172.264,-347.780,-94.600,-531.060
319,51688.343000,226.518,19.075,136.192,462.448,-189.011,164.512,-286.780,-141.600,-548.060
320,51688.383000,281.551,49.192,148.480,464.424,-182.632,161.667,-65.780,30.400,-563.060
321,51688.423000,267.793,85.333,139.264,469.460,-160.523,165.129,104.220,-59.600,-541.060
322,51688.472000,262.879,96.376,133.120,475.244,-152.281,161.334,-72.780,-16.600,-482.060
323,51688.505000,237.328,70.275,130.048,480.074,-144.909,160.504,-282.780,-84.600,-300.060
324,51688.545000,208.829,73.286,110.592,481.049,-142.246,155.589,-209.780,-99.600,-236.060
325,51688.562000,194.088,46.180,94.208,488.618,-142.165,154.607,-84.780,-325.600,-130.060
326,51688.605000,204.898,57.224,76.800,481.971,-142.526,140.665,67.220,-360.600,-80.060
327,51688.645000,215.708,56.220,81.920,492.478,-135.079,139.844,122.220,-241.600,1.940
328,51688.684000,224.553,58.227,73.728,488.612,-139.925,128.794,103.220,-245.600,95.940
329,51688.720000,239.294,70.275,59.392,491.479,-138.016,130.828,62.220,-30.600,80.940
330,51688.760000,249.121,54.212,68.608,491.415,-142.616,129.736,72.220,-21.600,185.940
331,51688.802000,226.518,54.212,55.296,490.411,-147.150,132.622,34.220,131.400,221.940
332,51688.825000,238.311,49.192,71.680,483.735,-151.702,138.483,127.220,199.400,278.940
333,51688.865000,222.587,43.169,60.416,479.769,-165.416,142.164,212.220,178.400,343.940
334,51688.907000,223.570,33.129,66.560,474.027,-171.630,155.948,318.220,303.400,368.940
335,51688.947000,234.380,64.251,95.232,468.346,-172.504,161.889,404.220,292.400,401.940
336,51688.987000,187.209,68.267,96.256,464.509,-177.018,167.755,206.220,253.400,274.940
337,51689.27000,271.724,36.141,191.488,454.900,-188.857,177.435,91.220,369.400,305.940
338,51689.47000,213.743,-20.078,193.536,452.054,-190.513,188.336,359.220,281.400,406.940
339,51689.84000,193.106,-2.008,233.472,442.447,-202.333,199.012,108.220,397.400,337.940
340,51689.127000,172.468,-1.004,228.352,436.730,-205.936,205.889,221.220,285.400,173.940
341,51689.165000,169.520,20.078,204.800,433.930,-203.985,213.883,151.220,141.400,90.940
342,51689.202000,173.451,17.067,187.392,432.973,-204.894,214.857,110.220,43.400,111.940
343,51689.242000,173.451,4.016,175.104,425.357,-208.600,217.751,87.220,10.400,197.940
344,51689.282000,181.313,-2.008,165.888,428.132,-213.162,216.663,140.220,24.400,314.940
345,51689.302000,192.123,2.008,156.672,420.425,-224.100,224.376,385.220,17.400,292.940
346,51689.342000,187.209,-9.035,165.888,420.303,-233.222,226.171,364.220,45.400,328.940
347,51689.382000,187.209,-4.016,160.768,411.891,-226.727,236.243,553.220,61.400,355.940
348,51689.429000,179.347,11.043,168.960,409.054,-227.505,245.174,645.220,143.400,352.940
349,51689.469000,193.106,-10.039,164.864,405.334,-223.714,254.201,719.220,48.400,444.940
350,51689.502000,191.140,-2.008,160.768,395.910,-222.611,270.125,910.220,69.400,495.940
351,51689.523000,194.088,-10.039,152.576,394.082,-218.796,279.155,1020.220,55.400,524.940
352,51689.564000,221.605,-15.059,120.832,390.297,-220.385,294.035,1287.220,56.400,631.940
353,51689.603000,242.242,1.004,118.784,381.973,-208.237,312.185,1391.220,210.400,618.940
354,51689.647000,208.829,32.125,104.448,367.977,-196.085,334.305,1477.220,251.400,556.940
355,51689.688000,206.864,75.294,130.048,355.812,-188.489,356.331,1304.220,485.400,469.940
356,51689.722000,177.382,90.353,165.888,352.209,-176.396,368.518,1432.220,313.400,439.940
357,51689.764000,168.537,108.424,177.152,340.114,-163.361,387.676,1052.220,398.400,357.940
358,51689.787000,175.417,97.380,207.872,329.060,-143.044,404.006,928.220,368.400,390.940
359,51689.827000,163.624,99.388,195.584,322.601,-131.962,413.184,900.220,253.400,415.940
360,51689.873000,176.399,88.345,175.104,315.019,-133.739,421.092,778.220,171.400,434.940
361,51689.907000,174.434,85.333,169.984,308.554,-122.715,427.285,779.220,96.400,442.940
362,51689.954000,174.434,87.341,160.768,304.867,-116.235,433.386,746.220,74.400,480.940
363,51689.988000,176.399,78.306,161.792,303.043,-111.602,437.460,699.220,53.400,502.940
364,51690.13000,173.451,75.294,144.384,301.366,-96.793,446.724,667.220,17.400,523.940
365,51690.47000,181.313,67.263,148.480,295.663,-98.700,446.675,689.220,59.400,544.940
366,51690.88000,182.296,69.271,145.408,292.077,-84.872,453.927,718.220,36.400,526.940
367,51690.128000,174.434,76.298,150.528,287.445,-77.605,454.075,699.220,131.400,499.940
368,51690.168000,169.520,73.286,157.696,280.890,-73.034,458.141,693.220,128.400,499.940
369,51690.207000,169.520,75.294,158.720,279.034,-71.090,465.142,524.220,142.400,456.940
370,51690.244000,169.520,66.259,180.224,278.300,-56.308,472.418,552.220,181.400,461.940
371,51690.267000,172.468,86.337,177.152,273.559,-57.247,474.380,561.220,104.400,422.940
372,51690.307000,173.451,90.353,185.344,269.830,-53.555,478.432,452.220,165.400,391.940
373,51690.343000,154.779,57.224,178.176,268.987,-46.199,480.576,466.220,-60.600,487.940
374,51690.384000,181.313,88.345,163.840,270.936,-41.672,476.697,391.220,51.400,416.940
375,51690.425000,166.572,72.282,164.864,269.027,-42.652,474.684,378.220,-3.600,418.940
376,51690.465000,187.209,66.259,106.496,273.786,-40.737,475.727,171.220,-158.600,334.940
377,51690.494000,344.445,59.231,124.928,276.592,-43.390,478.658,-153.780,92.400,339.940
378,51690.529000,307.102,-5.020,135.168,269.732,-60.864,479.271,-135.780,225.400,439.940
379,51690.569000,277.620,-4.016,105.472,264.977,-62.740,480.218,52.220,189.400,471.940
380,51690.609000,244.207,-5.020,142.336,259.245,-67.298,485.086,74.220,236.400,419.940
381,51690.643000,214.726,14.055,124.928,259.209,-70.026,486.023,223.220,-19.600,258.940
382,51690.683000,214.726,14.055,106.496,260.204,-66.369,485.107,87.220,-142.600,178.940
383,51690.712000,216.691,4.016,97.280,266.816,-67.198,485.099,-0.780,-207.600,165.940
384,51690.745000,228.484,0.000,82.944,270.532,-71.806,481.028,-18.780,-261.600,131.940
385,51690.783000,229.466,-5.020,68.608,278.110,-70.849,478.076,30.220,-207.600,67.940
386,51690.830000,238.311,5.020,79.872,280.793,-81.863,474.862,-62.780,-91.600,-33.060
387,51690.864000,242.242,3.012,76.800,280.856,-77.283,474.959,-29.780,-82.600,-99.060
388,51690.910000,229.466,1.004,78.848,280.904,-73.638,474.042,-73.780,-66.600,-153.060
389,51690.949000,240.276,-2.008,77.824,283.788,-69.994,471.140,-26.780,-65.600,-179.060
390,51690.969000,230.449,1.004,75.776,283.815,-68.142,472.174,-18.780,-71.600,-211.060
391,51691.9000,243.225,2.008,80.896,286.685,-65.435,468.258,-66.780,-35.600,-293.060
392,51691.48000,248.138,24.094,96.256,279.185,-60.856,473.317,69.220,114.400,-254.060
393,51691.88000,246.173,67.263,149.504,276.391,-57.288,470.405,-90.780,124.400,-284.060
394,51691.123000,233.397,75.294,140.288,276.435,-54.461,474.444,-15.780,7.400,-269.060
395,51691.169000,216.691,80.314,164.864,274.519,-56.299,475.396,-11.780,131.400,-177.060
396,51691.188000,179.347,53.208,166.912,267.954,-51.845,473.492,-106.780,112.400,-41.060
397,51691.225000,177.382,37.145,173.056,263.206,-53.642,478.420,-4.780,141.400,58.940
398,51691.263000,200.967,35.137,177.152,262.283,-51.842,477.462,81.220,8.400,43.940
399,51691.308000,167.555,32.125,166.912,258.456,-55.459,482.353,90.220,-39.600,-96.060
400,51691.345000,185.244,56.220,156.672,264.265,-45.385,478.598,170.220,-135.600,-306.060
401,51691.383000,185.244,69.271,144.384,269.061,-40.722,479.698,88.220,-231.600,-360.060
402,51691.428000,191.140,86.337,131.072,275.786,-32.526,472.920,-91.780,-260.600,-421.060
403,51691.448000,194.088,90.353,121.856,278.564,-37.049,473.823,-193.780,-263.600,-432.060
404,51691.490000,197.036,88.345,121.856,287.149,-31.518,469.975,-345.780,-235.600,-413.060
405,51691.528000,199.002,85.333,110.592,287.092,-35.261,465.916,-469.780,-157.600,-415.060
406,51691.565000,190.157,75.294,121.856,287.959,-40.804,462.816,-613.780,-58.600,-461.060
407,51691.605000,187.209,74.290,130.048,293.533,-48.097,460.680,-580.780,-56.600,-526.060
408,51691.645000,200.967,91.357,138.240,296.330,-50.866,457.641,-836.780,-96.600,-634.060
409,51691.668000,191.140,97.380,130.048,303.740,-61.877,451.450,-849.780,-144.600,-648.060
410,51691.710000,181.313,101.396,122.880,308.322,-72.028,444.278,-1134.780,-229.600,-717.060
411,51691.747000,168.537,97.380,118.784,316.637,-85.833,435.045,-1279.780,-256.600,-768.060
412,51691.790000,187.209,114.447,128.000,324.888,-103.459,417.773,-1459.780,-334.600,-815.060
413,51691.835000,243.225,99.388,103.424,335.043,-120.923,407.470,-1887.780,-262.600,-858.060
414,51691.867000,256.000,67.263,129.024,339.501,-139.457,393.157,-1886.780,-144.600,-778.060
415,51691.904000,183.278,-6.024,147.456,348.631,-161.709,372.804,-1901.780,-43.600,-685.060
416,51691.930000,205.881,13.051,173.056,347.345,-184.937,356.394,-1476.780,19.400,-548.060
417,51691.967000,199.002,19.075,182.272,355.767,-190.556,344.351,-1278.780,16.400,-577.060
418,51692.9000,183.278,7.027,178.176,360.322,-201.799,328.204,-1125.780,-28.600,-496.060
419,51692.44000,175.417,14.055,184.320,362.065,-211.988,321.028,-973.780,-69.600,-389.060
420,51692.89000,177.382,11.043,184.320,366.718,-216.702,310.988,-832.780,-92.600,-313.060
421,51692.124000,178.365,16.063,181.248,370.447,-219.615,299.990,-506.780,-74.600,-260.060
422,51692.150000,169.520,18.071,181.248,369.549,-215.982,299.072,-159.780,-49.600,-204.060
423,51692.187000,171.486,7.027,189.440,372.317,-220.623,294.004,-206.780,6.400,-25.060
424,51692.234000,164.607,25.098,191.488,376.112,-219.696,292.040,-88.780,-72.600,-17.060
425,51692.267000,172.468,16.063,191.488,373.193,-225.289,288.933,-158.780,-87.600,17.940
426,51692.304000,175.417,15.059,190.464,375.973,-229.013,283.884,-283.780,-65.600,36.940
427,51692.355000,177.382,20.078,201.728,378.720,-235.447,280.767,-264.780,-97.600,12.940
428,51692.368000,178.365,-1.004,214.016,377.782,-233.823,270.854,-417.780,-130.600,-9.060
429,51692.409000,175.417,11.043,217.088,379.580,-240.289,266.741,-363.780,-174.600,-146.060
430,51692.444000,160.676,5.020,206.848,386.197,-239.519,254.831,-420.780,-312.600,-212.060
431,51692.489000,160.676,0.000,191.488,394.720,-237.789,243.940,-436.780,-367.600,-255.060
432,51692.529000,144.952,-2.008,180.224,407.047,-234.255,229.114,-437.780,-369.600,-336.060
433,51692.564000,191.140,0.000,161.792,414.535,-238.970,217.089,-486.780,-322.600,-373.060
434,51692.608000,190.157,5.020,144.384,419.282,-237.192,211.166,-304.780,-270.600,-427.060
435,51692.634000,257.965,20.078,123.904,428.944,-221.649,203.554,-231.780,-210.600,-460.060
436,51692.675000,272.706,50.196,121.856,437.608,-209.802,194.867,-172.780,-133.600,-525.060
437,51692.705000,259.931,55.216,121.856,445.369,-195.161,189.222,-314.780,-151.600,-482.060
438,51692.750000,256.983,55.216,98.304,453.058,-185.978,185.450,-309.780,-124.600,-476.060
439,51692.797000,245.190,34.133,123.904,456.881,-183.180,185.516,-273.780,30.400,-340.060
440,51692.829000,216.691,39.153,104.448,457.844,-181.432,180.581,-65.780,-90.600,-267.060
441,51692.853000,215.708,31.122,110.592,463.615,-174.106,176.767,-136.780,-136.600,-231.060
442,51692.887000,214.726,35.137,101.376,465.474,-176.011,171.756,-59.780,-276.600,-211.060
443,51692.930000,221.605,45.176,82.944,474.143,-164.106,166.054,-45.780,-285.600,-233.060
444,51692.968000,228.484,49.192,81.920,478.979,-155.896,161.263,19.220,-211.600,-238.060
445,51693.12000,235.363,56.220,63.488,477.957,-160.645,153.203,73.220,-192.600,-208.060
446,51693.48000,221.605,56.220,72.704,480.998,-145.930,154.516,68.220,-19.600,-169.060
447,51693.90000,228.484,58.227,70.656,475.285,-148.714,156.437,92.220,30.400,-104.060
448,51693.107000,219.639,56.220,63.488,479.099,-146.793,158.473,189.220,83.400,-58.060
449,51693.149000,219.639,57.224,72.704,479.187,-141.140,166.551,280.220,197.400,-26.060
450,51693.190000,218.656,80.314,71.680,475.443,-138.403,168.593,214.220,193.400,73.940
451,51693.243000,213.743,70.275,84.992,475.369,-144.660,176.416,171.220,283.400,180.940
452,51693.270000,248.138,100.392,84.992,467.801,-145.500,185.339,200.220,220.400,244.940
453,51693.310000,223.570,82.322,77.824,465.740,-158.273,189.043,42.220,122.400,288.940
454,51693.330000,261.896,78.306,143.360,457.190,-161.855,198.900,24.220,285.400,312.940
455,51693.365000,247.155,47.184,168.960,453.349,-166.407,202.776,-62.780,326.400,469.940
456,51693.405000,218.656,11.043,173.056,444.697,-177.338,211.483,-39.780,375.400,385.940
457,51693.449000,179.347,16.063,205.824,438.820,-192.831,219.101,-43.780,384.400,339.940
458,51693.490000,164.607,16.063,201.728,429.342,-194.671,225.016,30.220,246.400,224.940
459,51693.525000,157.727,28.110,195.584,425.420,-205.559,232.735,-10.780,196.400,167.940
460,51693.565000,175.417,20.078,186.368,426.314,-209.230,231.664,-5.780,142.400,157.940
461,51693.587000,169.520,27.106,185.344,419.686,-210.136,236.608,65.220,89.400,169.940
462,51693.628000,172.468,25.098,173.056,419.613,-215.613,237.486,56.220,107.400,202.940
463,51693.670000,173.451,15.059,183.296,415.836,-215.566,242.455,67.220,144.400,304.940
464,51693.710000,174.434,18.071,174.080,410.065,-222.892,246.269,140.220,86.400,356.940
465,51693.750000,169.520,11.043,173.056,405.263,-228.393,249.128,203.220,62.400,378.940
466,51693.788000,181.313,-1.004,185.344,396.694,-232.969,254.986,315.220,79.400,461.940
467,51693.808000,185.244,-1.004,176.128,390.028,-236.623,259.872,466.220,58.400,503.940
468,51693.848000,186.226,0.000,179.200,384.240,-245.684,268.622,538.220,75.400,475.940
469,51693.888000,186.226,-6.024,180.224,377.734,-238.228,279.712,744.220,45.400,521.940
470,51693.928000,182.296,-3.012,175.104,367.205,-249.008,297.371,854.220,68.400,582.940
471,51693.972000,170.503,0.000,181.248,364.442,-243.529,298.478,909.220,58.400,641.940
472,51694.7000,184.261,-24.094,162.816,356.037,-236.955,312.530,1094.220,-9.600,701.940
473,51694.28000,191.140,-15.059,147.456,346.639,-234.000,329.488,1221.220,19.400,724.940
474,51694.68000,194.088,-22.086,138.240,335.376,-229.218,347.477,1405.220,99.400,754.940
475,51694.117000,216.691,-23.090,96.256,324.316,-209.739,367.768,1648.220,198.400,764.940
476,51694.148000,213.743,31.122,114.688,311.362,-190.304,387.060,1715.220,405.400,593.940
477,51694.192000,201.950,64.251,128.000,300.290,-171.741,407.332,1562.220,338.400,567.940
478,51694.238000,181.313,89.349,145.408,289.298,-146.843,423.759,1348.220,394.400,337.940
479,51694.272000,190.157,114.447,162.816,279.130,-131.075,440.989,1172.220,409.400,231.940
480,51694.293000,199.985,110.431,165.888,269.099,-104.449,451.487,861.220,436.400,125.940
481,51694.333000,170.503,108.424,185.344,263.540,-96.981,462.579,832.220,374.400,159.940
482,51694.373000,184.261,120.471,169.984,257.063,-86.874,468.752,777.220,324.400,241.940
483,51694.413000,162.641,103.404,172.032,247.798,-73.140,474.999,551.220,253.400,364.940
484,51694.453000,172.468,97.380,175.104,239.288,-73.174,478.964,438.220,223.400,485.940
485,51694.493000,163.624,83.325,163.840,234.649,-66.765,482.077,476.220,115.400,513.940
486,51694.507000,166.572,72.282,160.768,231.916,-59.395,486.209,452.220,110.400,518.940
487,51694.552000,174.434,74.290,175.104,227.256,-54.780,491.273,501.220,169.400,525.940
488,51694.593000,163.624,70.275,177.152,222.563,-52.074,492.318,502.220,134.400,498.940
489,51694.629000,174.434,83.325,179.200,218.935,-41.053,496.526,477.220,171.400,490.940
490,51694.669000,161.658,80.314,196.608,213.235,-42.921,498.467,437.220,120.400,451.940
491,51694.709000,157.727,91.357,192.512,212.422,-33.674,503.636,410.220,73.400,403.940
492,51694.749000,156.745,76.298,188.416,214.390,-28.153,503.756,359.220,-1.600,432.940
493,51694.772000,155.762,70.275,181.248,216.234,-31.773,504.677,321.220,-135.600,455.940
494,51694.813000,148.883,66.259,175.104,218.275,-20.774,503.919,373.220,-83.600,460.940
495,51694.847000,144.952,55.216,179.200,224.924,-18.854,503.970,534.220,-86.600,507.940
496,51694.889000,162.641,91.357,165.888,224.015,-16.118,504.027,599.220,-92.600,435.940
497,51694.932000,160.676,79.310,158.720,226.989,-6.042,502.256,411.220,-149.600,364.940
498,51694.967000,186.226,90.353,150.528,233.697,0.419,500.414,255.220,-106.600,339.940
499,51694.993000,235.363,94.369,116.736,236.411,-8.704,500.224,63.220,-63.600,316.940
500,51695.32000,286.464,33.129,121.856,241.132,-9.539,501.208,-86.780,111.400,444.940
501,51695.74000,268.775,-14.055,123.904,237.120,-26.098,499.855,-98.780,123.400,606.940
502,51695.120000,255.017,0.000,136.192,233.252,-32.503,502.697,117.220,191.400,519.940
503,51695.152000,219.639,17.067,124.928,229.504,-29.804,502.749,247.220,-17.600,302.940
504,51695.192000,210.795,9.035,101.376,237.121,-26.079,500.850,131.220,-163.600,239.940
505,51695.229000,217.674,15.059,99.328,237.137,-25.124,502.860,70.220,-161.600,204.940
506,51695.259000,229.466,7.027,92.160,247.454,-31.458,499.756,-116.780,-246.600,185.940
507,51695.292000,215.708,1.004,80.896,247.410,-34.284,495.718,-153.780,-114.600,117.940
508,51695.332000,238.311,2.008,97.280,246.379,-40.671,497.569,-148.780,-56.600,51.940
509,51695.373000,234.380,-4.016,91.136,248.331,-36.104,495.680,-61.780,-60.600,-35.060
510,51695.409000,236.345,7.027,92.160,251.971,-46.989,498.438,-109.780,6.400,-103.060
511,51695.449000,222.587,2.008,93.184,252.961,-43.390,494.537,-162.780,-41.600,-156.060
512,51695.469000,219.639,5.020,96.256,249.071,-50.828,491.389,-258.780,-40.600,-194.060
513,51695.508000,232.415,-1.004,97.280,251.941,-48.880,495.414,-246.780,-70.600,-221.060
514,51695.549000,237.328,8.031,93.184,251.955,-47.184,488.487,-197.780,-51.600,-298.060
515,51695.594000,218.656,-8.031,109.568,254.759,-49.856,490.424,-179.780,-4.600,-305.060
516,51695.633000,274.672,17.067,120.832,252.803,-54.481,489.328,-103.780,47.400,-254.060
517,51695.670000,271.724,42.165,154.624,244.398,-46.349,489.489,-95.780,167.400,-383.060
518,51695.708000,232.415,40.157,156.672,241.564,-46.327,492.469,-185.780,154.400,-377.060
519,51695.728000,200.967,47.184,178.176,235.867,-48.176,495.405,-242.780,179.400,-201.060
520,51695.768000,142.987,52.204,175.104,235.872,-48.118,498.390,-171.780,69.400,-116.060
521,51695.824000,170.503,60.235,173.056,230.081,-56.438,498.204,-151.780,39.400,-126.060
522,51695.848000,179.347,61.239,156.672,228.274,-50.069,497.343,-78.780,-14.600,-171.060
523,51695.899000,182.296,56.220,153.600,225.409,-51.959,496.304,-121.780,3.400,-197.060
524,51695.930000,188.192,72.282,146.432,229.244,-48.244,496.388,-73.780,6.400,-269.060
525,51695.950000,198.019,70.275,144.384,228.210,-54.670,496.250,-206.780,15.400,-312.060
526,51695.990000,191.140,78.306,147.456,227.291,-52.830,497.282,-256.780,40.400,-316.060
527,51696.28000,181.313,84.329,138.240,224.261,-66.649,494.995,-416.780,-44.600,-313.060
528,51696.73000,177.382,74.290,150.528,224.156,-74.036,491.853,-581.780,12.400,-323.060
529,51696.108000,176.399,76.298,148.480,225.056,-76.870,486.821,-679.780,-23.600,-294.060
530,51696.153000,168.537,67.263,140.288,226.671,-97.039,484.405,-834.780,-59.600,-326.060
531,51696.188000,171.486,65.255,149.504,230.232,-112.700,477.115,-928.780,-68.600,-359.060
532,51696.219000,168.537,74.290,144.384,236.646,-127.387,470.844,-997.780,-154.600,-419.060
533,51696.253000,227.501,73.286,121.856,239.288,-140.430,457.640,-1197.780,-211.600,-417.060
534,51696.288000,218.656,33.129,144.384,238.012,-163.541,447.199,-1398.780,56.400,-423.060
535,51696.328000,251.086,-16.063,159.744,246.258,-182.004,433.888,-1210.780,23.400,-357.060
536,51696.372000,180.330,-66.259,172.032,240.190,-209.739,424.337,-979.780,76.400,-290.060
537,51696.413000,183.278,-17.067,205.824,241.930,-219.967,415.171,-831.780,165.400,-235.060
538,51696.434000,176.399,-18.071,216.064,241.828,-227.316,414.019,-633.780,144.400,-357.060
539,51696.475000,170.503,-23.090,210.944,239.822,-234.826,405.900,-544.780,97.400,-354.060
540,51696.513000,154.779,-7.027,197.632,241.717,-234.002,399.952,-516.780,19.400,-321.060
541,51696.548000,163.624,-18.071,191.488,247.271,-242.309,392.821,-507.780,-61.600,-305.060
542,51696.595000,157.727,-2.008,186.368,249.050,-249.769,384.708,-381.780,-93.600,-343.060
543,51696.633000,170.503,1.004,180.224,259.512,-245.168,378.853,-370.780,-118.600,-347.060
544,51696.654000,178.365,-4.016,186.368,267.999,-246.946,375.844,-481.780,-82.600,-328.060
545,51696.690000,168.537,-2.008,195.584,269.763,-256.121,373.662,-389.780,-70.600,-362.060
546,51696.735000,173.451,4.016,195.584,277.394,-250.700,364.837,-448.780,-83.600,-359.060
547,51696.770000,192.123,2.008,200.704,284.844,-258.164,352.754,-526.780,-98.600,-391.060
548,51696.822000,154.779,13.051,189.440,291.435,-260.006,347.751,-557.780,-174.600,-396.060
549,51696.850000,181.313,5.020,194.560,299.854,-266.423,341.659,-678.780,-225.600,-393.060
550,51696.890000,174.434,11.043,196.608,314.011,-267.445,326.739,-587.780,-260.600,-469.060
551,51696.917000,162.641,8.031,178.176,324.422,-265.748,312.865,-650.780,-267.600,-414.060
552,51696.955000,175.417,7.027,185.344,332.883,-268.599,301.876,-633.780,-226.600,-451.060
553,51696.992000,167.555,4.016,187.392,347.030,-270.517,287.931,-624.780,-198.600,-503.060
554,51697.35000,160.676,-20.078,169.984,351.759,-269.714,279.004,-556.780,-190.600,-476.060
555,51697.69000,187.209,-17.067,151.552,365.067,-264.218,270.189,-482.780,-142.600,-480.060
556,51697.115000,198.019,-29.114,138.240,373.661,-257.809,264.370,-229.780,20.400,-511.060
557,51697.134000,211.777,-9.035,146.432,381.437,-242.993,267.681,-16.780,194.400,-505.060
558,51697.172000,248.138,18.071,148.480,384.320,-240.129,271.724,91.220,156.400,-501.060
559,51697.219000,245.190,26.102,137.216,389.271,-224.414,276.045,185.220,116.400,-569.060
560,51697.252000,254.035,71.278,133.120,392.347,-206.970,276.421,184.220,32.400,-597.060
561,51697.289000,241.259,55.216,151.552,403.867,-194.890,277.689,-14.780,41.400,-544.060
562,51697.334000,216.691,49.192,124.928,408.699,-187.499,277.854,36.220,-65.600,-436.060
563,51697.369000,204.898,54.212,125.952,411.698,-175.571,277.117,57.220,-172.600,-403.060
564,51697.389000,204.898,54.212,125.952,423.060,-174.583,273.177,87.220,-184.600,-308.060
565,51697.434000,191.140,69.271,114.688,427.890,-167.211,272.346,187.220,-127.600,-296.060
566,51697.469000,193.106,51.200,122.880,428.990,-155.386,267.626,17.220,-64.600,-227.060
567,51697.515000,202.933,82.322,117.760,432.763,-156.252,267.613,19.220,-104.600,-247.060
568,51697.552000,203.916,73.286,115.712,434.842,-142.505,266.914,8.220,-106.600,-281.060
569,51697.589000,207.846,70.275,124.928,439.604,-139.772,263.001,-65.780,-115.600,-256.060
570,51697.615000,206.864,93.365,100.352,445.334,-136.013,264.084,-91.780,-139.600,-204.060
571,51697.649000,212.760,83.325,111.616,442.447,-138.916,258.050,-130.780,-101.600,-152.060
572,51697.693000,220.622,99.388,91.136,447.231,-134.390,252.186,-231.780,-121.600,-52.060
573,51697.732000,198.019,84.329,88.064,449.045,-139.901,250.082,-208.780,-53.600,31.940
574,51697.775000,231.432,101.396,95.232,445.209,-143.635,249.002,-258.780,-5.600,157.940
575,51697.812000,200.967,98.384,90.112,446.078,-149.139,247.892,-260.780,-36.600,221.940
576,51697.854000,224.553,96.376,101.376,442.085,-163.944,242.597,-424.780,-57.600,238.940
577,51697.882000,269.758,52.204,135.168,438.146,-175.027,240.366,-588.780,30.400,318.940
578,51697.913000,220.622,4.016,187.392,431.320,-189.792,239.048,-459.780,210.400,295.940
579,51697.957000,199.985,-10.039,204.800,424.519,-202.725,237.768,-470.780,207.400,273.940
580,51697.994000,165.589,-21.082,194.560,418.690,-213.813,236.528,-275.780,128.400,246.940
581,51698.37000,166.572,-2.008,205.824,414.844,-218.424,237.419,-245.780,138.400,196.940
582,51698.77000,168.537,-1.004,197.632,412.874,-223.966,236.304,-117.780,44.400,129.940
583,51698.97000,171.486,0.000,178.176,410.883,-231.300,237.139,-1.780,-24.600,145.940
584,51698.138000,180.330,3.012,172.032,409.875,-235.893,237.040,115.220,-22.600,157.940
585,51698.174000,191.140,4.016,172.032,406.146,-232.201,241.092,159.220,-8.600,227.940
586,51698.213000,191.140,-2.008,161.792,402.311,-235.915,241.007,176.220,-26.600,284.940
587,51698.255000,191.140,-4.016,154.624,397.498,-242.313,244.842,232.220,-43.600,338.940
588,51698.297000,189.175,-8.031,161.792,393.675,-245.891,251.723,443.220,8.400,371.940
589,51698.340000,186.226,-6.024,161.792,391.817,-243.966,257.729,600.220,34.400,403.940
590,51698.373000,194.088,-15.059,172.032,380.311,-255.889,264.421,664.220,45.400,492.940
591,51698.397000,184.261,-21.082,154.624,374.774,-246.608,274.556,902.220,44.400,539.940
592,51698.437000,191.140,-29.114,152.576,367.218,-247.312,290.444,1049.220,98.400,610.940
593,51698.485000,179.347,-18.071,120.832,359.806,-237.860,310.527,1440.220,70.400,660.940
594,51698.513000,234.380,-23.090,111.616,344.861,-225.760,330.655,1548.220,183.400,781.940
595,51698.550000,243.225,-6.024,99.328,336.666,-205.171,358.931,1823.220,381.400,595.940
596,51698.570000,203.916,84.329,124.928,326.486,-190.299,377.136,1664.220,469.400,565.940
597,51698.610000,191.140,78.306,142.336,312.432,-182.689,401.149,1566.220,475.400,484.940
598,51698.650000,174.434,112.439,157.696,299.660,-149.571,417.749,1420.220,523.400,356.940
599,51698.690000,171.486,115.451,194.560,283.826,-132.962,434.988,934.220,503.400,319.940
600,51698.740000,169.520,85.333,199.680,270.696,-125.593,446.066,811.220,442.400,296.940
601,51698.775000,163.624,92.361,198.656,263.380,-108.091,456.374,738.220,349.400,247.940
602,51698.795000,163.624,99.388,190.464,258.723,-103.437,463.429,678.220,260.400,259.940
603,51698.838000,165.589,93.365,189.440,253.255,-88.736,469.701,571.220,201.400,279.940
604,51698.873000,154.779,92.361,183.296,249.562,-82.315,472.817,373.220,88.400,328.940
605,51698.910000,153.797,89.349,180.224,243.842,-85.957,477.704,332.220,45.400,311.940
606,51698.962000,164.607,82.322,176.128,246.814,-75.900,474.938,352.220,-20.600,301.940
607,51698.995000,166.572,89.349,167.936,246.855,-73.113,476.987,378.220,-53.600,307.940
608,51699.35000,171.486,87.341,177.152,250.773,-63.804,482.164,299.220,-28.600,282.940
609,51699.58000,157.727,71.278,174.080,250.756,-64.779,479.159,252.220,-41.600,327.940
610,51699.95000,168.537,95.373,174.080,247.869,-68.461,480.071,426.220,-25.600,293.940
611,51699.135000,162.641,88.345,174.080,250.878,-56.417,485.305,438.220,-44.600,336.940
612,51699.172000,154.779,83.325,188.416,250.947,-50.998,481.442,395.220,-13.600,426.940
613,51699.215000,153.797,80.314,184.320,252.868,-49.101,483.475,443.220,-30.600,515.940
614,51699.258000,153.797,80.314,177.152,252.898,-47.211,486.499,412.220,-55.600,551.940
615,51699.275000,160.676,87.341,185.344,251.050,-43.630,483.588,376.220,-28.600,555.940
616,51699.315000,172.468,89.349,148.480,251.948,-47.262,484.507,262.220,-136.600,542.940
617,51699.357000,195.071,65.255,125.952,255.666,-51.851,481.431,-65.780,-76.600,499.940
618,51699.398000,262.879,35.137,120.832,258.353,-62.827,480.207,-273.780,-11.600,570.940
619,51699.438000,269.758,-12.047,137.216,253.411,-78.444,480.862,-214.780,86.400,547.940
620,51699.477000,282.534,-34.133,120.832,253.278,-88.463,483.632,49.220,20.400,586.940
621,51699.517000,251.086,-12.047,116.736,251.335,-92.153,483.551,63.220,64.400,364.940
622,51699.538000,226.518,1.004,116.736,250.391,-92.146,484.544,99.220,-36.600,248.940
623,51699.578000,211.777,8.031,97.280,252.330,-88.495,482.635,-36.780,-85.600,109.940
624,51699.612000,216.691,15.059,90.112,257.024,-91.181,482.585,-80.780,-97.600,53.940
625,51699.675000,222.587,10.039,86.016,257.851,-99.492,478.431,-208.780,-106.600,15.940
626,51699.698000,223.570,3.012,99.328,258.718,-105.035,475.330,-191.780,-27.600,12.940
627,51699.738000,237.328,4.016,99.328,260.635,-103.177,475.373,-134.780,13.400,16.940
628,51699.760000,229.466,3.012,104.448,259.569,-112.293,478.161,-40.780,12.400,-42.060
629,51699.797000,231.432,0.000,103.424,258.680,-107.783,475.272,-90.780,-14.600,-60.060
630,51699.843000,223.570,2.008,101.376,259.592,-110.480,477.205,-74.780,-52.600,-74.060
631,51699.877000,218.656,1.004,108.544,259.626,-107.771,475.274,-113.780,-48.600,-137.060
632,51699.917000,228.484,-24.094,89.088,260.578,-106.920,471.315,-43.780,-144.600,-108.060
633,51699.965000,216.691,-15.059,92.160,264.378,-105.934,472.336,-27.780,-24.600,-145.060
634,51699.992000,230.449,-18.071,140.288,262.573,-99.546,472.469,132.220,-21.600,-154.060
635,51700.12000,292.361,3.012,137.216,263.594,-94.037,472.588,309.220,35.400,-162.060
636,51700.53000,240.276,51.200,162.816,256.157,-84.878,477.745,201.220,139.400,-324.060
637,51700.99000,215.708,56.220,161.792,258.189,-74.756,478.958,219.220,183.400,-315.060
638,51700.137000,160.676,65.255,165.888,249.765,-68.397,482.065,203.220,191.400,-289.060
639,51700.178000,159.693,62.243,164.864,245.063,-66.569,485.081,162.220,94.400,-268.060
640,51700.219000,168.537,62.243,160.768,246.189,-53.672,488.341,101.220,46.400,-281.060
641,51700.240000,162.641,61.239,164.864,243.313,-56.458,488.277,52.220,57.400,-324.060
642,51700.274000,171.486,79.310,159.744,241.615,-41.883,485.601,97.220,-30.600,-342.060
643,51700.314000,176.399,92.361,149.504,239.704,-43.663,489.539,-69.780,-72.600,-406.060
644,51700.363000,175.417,91.357,157.696,247.336,-39.001,488.655,-243.780,-89.600,-488.060
645,51700.397000,175.417,105.412,149.504,247.274,-42.803,481.611,-321.780,-180.600,-498.060
646,51700.444000,184.261,100.392,152.576,253.873,-44.547,481.584,-519.780,-142.600,-488.060
647,51700.458000,180.330,106.416,149.504,257.467,-58.278,479.308,-624.780,-229.600,-418.060
648,51700.498000,175.417,117.459,148.480,260.209,-64.771,473.206,-766.780,-176.600,-437.060
649,51700.538000,187.209,100.392,151.552,268.573,-74.911,464.051,-984.780,-250.600,-382.060
650,51700.578000,172.468,116.455,119.808,276.742,-99.652,457.568,-1106.780,-324.600,-422.060
651,51700.617000,188.192,112.439,119.808,284.024,-119.103,441.251,-1366.780,-263.600,-527.060
652,51700.664000,219.639,98.384,118.784,297.852,-143.983,423.833,-1755.780,-356.600,-550.060
653,51700.698000,223.570,36.141,112.640,298.431,-169.057,405.397,-1690.780,-194.600,-534.060
654,51700.725000,229.466,-14.055,147.456,304.814,-185.655,395.107,-1522.780,-93.600,-409.060
655,51700.759000,192.123,-30.118,182.272,310.242,-202.363,379.839,-1237.780,-10.600,-404.060
656,51700.799000,194.088,-9.035,196.608,310.955,-218.159,367.569,-907.780,90.400,-408.060
657,51700.839000,172.468,-7.027,199.680,317.543,-220.040,360.576,-757.780,12.400,-335.060
658,51700.879000,157.727,12.047,187.392,319.230,-233.972,349.341,-530.780,28.400,-307.060
659,51700.935000,165.589,7.027,196.608,322.981,-236.631,351.279,-525.780,-25.600,-186.060
660,51700.945000,162.641,6.024,198.656,322.933,-239.497,345.250,-237.780,-103.600,-62.060
661,51700.983000,182.296,16.063,196.608,322.941,-238.639,342.285,-110.780,-141.600,-53.060
662,51701.15000,190.157,-1.004,191.488,329.546,-239.546,338.296,-66.780,-161.600,-17.060
663,51701.58000,178.365,19.075,169.984,335.281,-234.949,335.419,99.220,-172.600,13.940
664,51701.98000,175.417,15.059,176.128,336.140,-241.349,335.284,-73.780,-84.600,-9.060
665,51701.138000,174.434,21.082,186.368,335.187,-241.440,331.302,-83.780,-116.600,-41.060
666,51701.178000,146.917,31.122,174.080,339.912,-241.456,327.330,-217.780,-115.600,-29.060
667,51701.198000,188.192,7.027,201.728,341.700,-248.039,317.246,-319.780,-89.600,-3.060
668,51701.239000,150.848,13.051,181.248,346.477,-244.370,314.348,-205.780,-142.600,-71.060
669,51701.273000,166.572,-38.149,168.960,348.375,-243.507,310.390,-247.780,-169.600,-34.060
670,51701.318000,181.313,-30.118,156.672,355.903,-246.214,307.360,-118.780,-115.600,-98.060
671,51701.358000,210.795,-30.118,152.576,356.825,-247.254,300.377,63.220,-84.600,-166.060
672,51701.399000,277.620,9.035,124.928,367.472,-229.710,300.766,125.220,-246.600,-381.060
673,51701.419000,272.706,40.157,121.856,376.929,-229.663,296.802,-238.780,-65.600,-500.060
674,51701.453000,275.655,46.180,123.904,388.303,-227.759,292.881,-175.780,-147.600,-528.060
675,51701.502000,236.345,29.114,141.312,390.414,-211.322,289.255,-213.780,-95.600,-557.060
676,51701.533000,201.950,35.137,136.192,400.906,-204.830,286.425,-140.780,-180.600,-449.060
677,51701.578000,182.296,36.141,122.880,406.708,-194.833,278.689,-166.780,-278.600,-426.060
678,51701.619000,173.451,26.102,120.832,418.133,-188.485,267.900,-142.780,-365.600,-399.060
679,51701.653000,180.330,48.188,100.352,426.774,-178.451,260.170,-95.780,-459.600,-436.060
680,51701.673000,209.812,53.208,98.304,431.404,-184.958,252.081,-207.780,-438.600,-446.060
681,51701.713000,243.225,68.267,87.040,448.675,-165.787,237.595,-330.780,-437.600,-493.060
682,51701.755000,233.397,79.310,84.992,453.421,-163.249,223.731,-406.780,-288.600,-477.060
683,51701.794000,242.242,70.275,74.752,460.185,-152.285,218.006,-397.780,-286.600,-381.060
684,51701.835000,238.311,78.306,71.680,466.780,-153.309,208.048,-275.780,-207.600,-310.060
685,51701.878000,234.380,74.290,78.848,469.639,-151.498,205.107,-159.780,-141.600,-187.060
686,51701.898000,237.328,74.290,54.272,471.589,-146.951,202.223,-121.780,-143.600,-96.060
687,51701.935000,224.553,62.243,69.632,472.522,-147.874,201.210,-3.780,26.400,18.940
688,51701.978000,246.173,71.278,65.536,468.605,-157.923,204.969,79.220,49.400,144.940
689,51702.20000,222.587,67.263,63.488,462.943,-157.043,206.968,151.220,167.400,187.940
690,51702.60000,230.449,69.271,73.728,465.819,-155.037,213.978,103.220,236.400,226.940
691,51702.108000,228.484,101.396,70.656,453.347,-167.966,216.668,-21.780,159.400,317.940
692,51702.115000,223.570,100.392,72.704,452.359,-171.546,221.563,-181.780,203.400,265.940
693,51702.157000,273.689,89.349,103.424,446.442,-189.047,220.188,-263.780,80.400,368.940
694,51702.199000,247.155,59.231,111.616,438.778,-196.398,223.998,-213.780,149.400,315.940
695,51702.240000,190.157,23.090,155.648,434.866,-205.629,222.802,-353.780,211.400,287.940
696,51702.280000,186.226,-27.106,164.864,428.083,-217.587,224.526,-353.780,156.400,414.940
697,51702.319000,193.106,-21.082,178.176,413.738,-228.768,224.267,-62.780,302.400,496.940
698,51702.357000,194.088,-15.059,189.440,405.079,-240.556,235.939,96.220,286.400,483.940
699,51702.387000,190.157,-2.008,186.368,395.476,-251.558,241.659,101.220,259.400,463.940
700,51702.420000,188.192,-7.027,186.368,387.839,-257.057,246.503,161.220,139.400,405.940
701,51702.454000,187.209,-11.043,176.128,380.173,-264.427,249.319,195.220,95.400,414.940
702,51702.494000,189.175,-23.090,177.152,374.419,-270.779,256.138,273.220,72.400,406.940
703,51702.539000,190.157,-25.098,164.864,366.923,-266.161,263.188,412.220,36.400,394.940
704,51702.584000,189.175,-19.075,159.744,361.089,-278.068,266.904,387.220,50.400,394.940
705,51702.599000,198.019,-21.082,143.360,351.757,-269.733,278.009,540.220,94.400,389.940
706,51702.639000,194.088,-7.027,148.480,345.016,-278.885,282.777,529.220,132.400,448.940
707,51702.679000,201.950,-26.102,160.768,341.339,-272.287,294.848,521.220,173.400,459.940
708,51702.720000,185.244,-26.102,158.720,325.210,-276.827,307.657,692.220,200.400,447.940
709,51702.754000,186.226,-39.153,174.080,318.729,-268.318,325.732,747.220,233.400,501.940
710,51702.794000,184.261,-29.114,174.080,305.527,-266.407,338.684,1004.220,228.400,488.940
711,51702.839000,190.157,-27.106,162.816,303.774,-257.875,354.777,1144.220,258.400,508.940
712,51702.860000,179.347,-20.078,155.648,288.894,-241.155,376.993,1235.220,299.400,551.940
713,51702.900000,194.088,-19.075,148.480,274.858,-231.791,397.064,1413.220,354.400,647.940
714,51702.940000,199.002,7.027,112.640,263.825,-210.460,418.389,1591.220,267.400,673.940
715,51702.980000,189.175,44.173,152.576,251.007,-180.967,436.901,1502.220,391.400,686.940
716,51703.17000,184.261,67.263,154.624,243.619,-168.923,449.082,1386.220,199.400,691.940
717,51703.57000,174.434,57.224,148.480,233.472,-151.362,464.361,1228.220,274.400,489.940
718,51703.77000,185.244,94.369,200.704,226.282,-124.679,475.859,1236.220,232.400,324.940
719,51703.117000,196.054,116.455,196.608,216.129,-107.195,487.157,960.220,241.400,258.940
720,51703.159000,173.451,81.318,218.112,214.494,-88.800,492.519,629.220,200.400,188.940
721,51703.197000,178.365,86.337,196.608,208.957,-78.759,494.714,721.220,76.400,238.940
722,51703.239000,176.399,90.353,193.536,209.999,-72.236,499.828,616.220,1.400,303.940
723,51703.287000,167.555,81.318,198.656,208.359,-53.918,501.210,530.220,-123.600,328.940
724,51703.322000,162.641,87.341,169.984,216.018,-47.386,502.355,467.220,-229.600,334.940
725,51703.340000,169.520,72.282,178.176,224.577,-43.707,497.473,316.220,-268.600,353.940
726,51703.382000,173.451,75.294,146.432,233.186,-37.123,500.609,445.220,-399.600,330.940
727,51703.417000,177.382,73.286,148.480,240.779,-34.450,491.726,367.220,-332.600,269.940
728,51703.470000,169.520,75.294,144.384,243.630,-33.496,491.750,300.220,-318.600,285.940
729,51703.510000,163.624,76.298,136.192,258.891,-24.193,488.987,351.220,-291.600,308.940
730,51703.535000,153.797,67.263,130.048,266.380,-29.668,484.903,250.220,-264.600,302.940
731,51703.560000,187.209,78.306,153.600,271.235,-20.464,484.111,276.220,-196.600,329.940
732,51703.600000,204.898,87.341,105.472,273.116,-20.575,477.149,204.220,-214.600,265.940
733,51703.638000,248.138,51.200,120.832,280.633,-24.179,475.094,33.220,-66.600,237.940
734,51703.680000,335.601,47.184,100.352,275.858,-27.828,478.988,106.220,124.400,315.940
735,51703.717000,239.294,30.118,102.400,276.756,-31.460,479.907,-9.780,150.400,313.940
736,51703.760000,254.035,-14.055,91.136,269.968,-43.477,478.647,-35.780,71.400,370.940
737,51703.802000,239.294,16.063,124.928,269.008,-45.185,485.571,216.220,184.400,308.940
738,51703.818000,230.449,10.039,103.424,271.956,-36.942,483.762,222.220,-71.600,297.940
739,51703.858000,227.501,12.047,81.920,272.803,-44.258,483.607,75.220,-87.600,236.940
740,51703.902000,241.259,15.059,87.040,274.654,-47.021,481.562,31.220,-44.600,199.940
741,51703.942000,230.449,8.031,80.896,273.836,-37.833,483.746,66.220,-101.600,154.940
742,51703.983000,231.432,10.039,87.040,275.640,-44.240,482.617,-59.780,14.400,72.940
743,51704.23000,235.363,0.000,89.088,273.715,-46.955,485.540,-49.780,-6.600,59.940
744,51704.43000,225.536,-1.004,87.040,273.763,-43.310,484.624,-3.780,-18.600,16.940
745,51704.82000,233.397,-1.004,86.016,271.747,-52.477,485.420,-3.780,6.400,12.940
746,51704.120000,230.449,3.012,89.088,275.590,-47.905,482.539,-31.780,9.400,-12.060
747,51704.162000,230.449,-1.004,87.040,270.823,-50.696,483.467,-85.780,-5.600,-63.060
748,51704.202000,233.397,-6.024,88.064,273.621,-53.446,481.424,-125.780,43.400,-88.060
749,51704.235000,236.345,5.020,95.232,272.642,-56.148,484.349,-120.780,1.400,-170.060
750,51704.255000,254.035,-29.114,105.472,267.048,-49.850,482.485,-133.780,25.400,-77.060
751,51704.297000,279.585,17.067,122.880,259.461,-51.684,487.408,-42.780,268.400,-128.060
752,51704.342000,231.432,24.094,145.408,252.912,-46.275,487.513,31.220,244.400,-195.060
753,51704.382000,187.209,29.114,151.552,246.328,-43.575,489.550,-21.780,277.400,-188.060
754,51704.424000,165.589,44.173,157.696,237.758,-48.171,494.413,-11.780,267.400,-199.060
755,51704.458000,176.399,55.216,165.888,232.174,-41.755,498.520,-110.780,224.400,-243.060
756,51704.504000,177.382,59.231,167.936,226.428,-47.248,502.373,-155.780,250.400,-279.060
757,51704.520000,189.175,60.235,165.888,221.698,-47.291,503.360,-207.780,165.400,-319.060
758,51704.558000,188.192,63.247,151.552,219.855,-43.652,503.435,-306.780,74.400,-367.060
759,51704.598000,184.261,64.251,165.888,214.974,-54.708,503.192,-443.780,119.400,-375.060
760,51704.643000,176.399,63.247,161.792,212.081,-58.449,501.119,-478.780,32.400,-419.060
761,51704.678000,174.434,59.231,157.696,217.706,-62.078,499.061,-614.780,-36.600,-463.060
762,51704.723000,177.382,58.227,151.552,216.539,-77.762,493.752,-692.780,-60.600,-480.060
763,51704.742000,183.278,63.247,166.912,218.314,-86.041,490.595,-728.780,-75.600,-532.060
764,51704.784000,179.347,69.271,165.888,223.858,-95.225,485.434,-773.780,-96.600,-563.060
765,51704.823000,186.226,62.243,145.408,227.441,-109.092,476.193,-911.780,-171.600,-591.060
766,51704.859000,169.520,55.216,149.504,236.666,-125.614,467.897,-1120.780,-165.600,-612.060
767,51704.903000,172.468,69.271,158.720,247.701,-147.685,455.508,-1134.780,-263.600,-721.060
768,51704.940000,228.484,62.243,135.168,255.089,-159.729,443.327,-1362.780,-292.600,-764.060
769,51704.977000,224.553,16.063,124.928,263.409,-172.696,430.133,-1325.780,-251.600,-781.060
770,51705.3000,242.242,5.020,144.384,276.381,-191.156,413.845,-1270.780,-113.600,-687.060
771,51705.47000,182.296,-43.169,151.552,281.746,-212.445,398.481,-1270.780,-143.600,-583.060
772,51705.77000,172.468,-2.008,191.488,291.229,-209.786,387.610,-770.780,44.400,-595.060
773,51705.122000,178.365,-2.008,207.872,292.961,-220.872,381.409,-701.780,-30.600,-528.060
774,51705.157000,159.693,16.063,191.488,296.729,-221.796,378.411,-532.780,-13.600,-488.060
775,51705.202000,184.261,32.125,197.632,304.225,-226.414,371.361,-589.780,-56.600,-408.060
776,51705.222000,190.157,0.000,179.200,306.015,-232.977,362.273,-554.780,-82.600,-259.060
777,51705.262000,195.071,31.122,178.176,312.594,-235.736,357.251,-405.780,-103.600,-245.060
778,51705.297000,182.296,26.102,177.152,320.085,-240.412,347.216,-488.780,-149.600,-280.060
779,51705.342000,179.347,15.059,167.936,321.994,-238.652,342.283,-548.780,-199.600,-229.060
780,51705.382000,188.192,25.098,163.840,327.606,-242.437,332.264,-556.780,-215.600,-247.060
781,51705.420000,182.296,14.055,167.936,336.037,-247.178,318.251,-637.780,-191.600,-249.060
782,51705.457000,186.226,13.051,172.032,343.515,-252.770,308.197,-492.780,-167.600,-241.060
783,51705.483000,180.330,6.024,180.224,347.246,-255.663,298.194,-583.780,-142.600,-230.060
784,51705.522000,182.296,16.063,183.296,349.022,-263.163,288.091,-566.780,-158.600,-222.060
785,51705.557000,171.486,-2.008,188.416,352.794,-263.269,280.137,-595.780,-136.600,-260.060
786,51705.602000,181.313,-3.012,200.704,362.208,-266.029,273.130,-531.780,-129.600,-266.060
787,51705.643000,155.762,6.024,183.296,366.891,-268.072,259.168,-398.780,-189.600,-303.060
788,51705.678000,168.537,2.008,197.632,377.409,-258.968,249.431,-451.780,-200.600,-355.060
789,51705.710000,155.762,2.008,189.440,379.324,-256.370,240.538,-434.780,-281.600,-370.060
790,51705.743000,179.347,-4.016,167.936,388.808,-253.692,230.662,-411.780,-361.600,-337.060
791,51705.779000,207.846,-10.039,132.096,398.295,-250.215,214.836,-195.780,-393.600,-299.060
792,51705.824000,287.447,-10.039,108.544,407.799,-246.523,209.955,-80.780,-290.600,-249.060
793,51705.862000,271.724,39.153,116.736,411.667,-240.118,207.114,-66.780,-56.600,-466.060
794,51705.904000,278.603,56.220,78.848,423.204,-226.305,203.446,-106.780,-165.600,-418.060
795,51705.948000,256.983,24.094,102.400,425.121,-224.447,203.488,-112.780,44.400,-273.060
796,51705.959000,221.605,23.090,106.496,428.007,-220.784,201.581,-38.780,0.400,-180.060
797,51706.4000,218.656,15.059,87.040,430.919,-215.269,200.708,-0.780,-55.600,-117.060
798,51706.58000,214.726,14.055,96.256,433.692,-219.852,198.626,68.220,-103.600,-98.060
799,51706.84000,220.622,18.071,82.944,431.024,-207.882,203.850,215.220,-152.600,-108.060
800,51706.118000,216.691,37.145,82.944,433.883,-206.071,200.909,76.220,-68.600,-132.060
801,51706.158000,233.397,45.176,86.016,440.577,-200.545,198.052,-8.780,-68.600,-138.060
802,51706.184000,215.708,37.145,94.208,440.562,-201.500,196.043,-91.780,-2.600,-121.060
803,51706.223000,244.207,51.200,79.872,445.311,-199.683,192.110,-61.780,-109.600,-79.060
804,51706.258000,222.587,41.161,82.944,444.253,-207.941,191.932,-180.780,-6.600,-66.060
805,51706.304000,245.190,35.137,82.944,442.371,-207.069,190.954,-156.780,-9.600,56.940
806,51706.340000,245.190,41.161,55.296,444.315,-203.360,192.030,-67.780,91.400,78.940
807,51706.383000,247.155,39.153,79.872,437.568,-212.590,192.818,-35.780,163.400,142.940
808,51706.404000,230.449,27.106,59.392,433.805,-211.606,198.801,30.220,128.400,279.940
809,51706.440000,252.069,33.129,92.160,426.135,-219.796,206.573,173.220,255.400,285.940
810,51706.484000,232.415,42.165,137.216,423.294,-220.632,212.519,138.220,299.400,291.940
811,51706.520000,224.553,0.000,155.648,413.636,-235.357,215.175,35.220,285.400,305.940
812,51706.564000,204.898,2.008,172.032,409.790,-240.728,224.007,5.220,352.400,245.940
813,51706.600000,199.002,2.008,199.680,396.520,-243.476,232.880,0.220,321.400,225.940
814,51706.638000,178.365,11.043,206.848,393.691,-243.396,238.846,2.220,273.400,65.940
815,51706.663000,179.347,21.082,211.968,391.719,-249.736,243.681,-58.780,241.400,32.940
816,51706.703000,175.417,12.047,189.440,391.663,-254.239,247.564,-2.780,99.400,113.940
817,51706.755000,174.434,14.055,186.368,386.891,-257.089,245.507,21.220,56.400,180.940
818,51706.784000,174.434,7.027,179.200,381.214,-257.144,246.492,0.220,19.400,262.940
819,51706.829000,181.313,-12.047,169.984,375.454,-263.574,249.330,128.220,-11.600,341.940
820,51706.864000,179.347,-12.047,168.960,370.662,-268.197,250.219,236.220,-2.600,365.940
821,51706.883000,182.296,-19.075,157.696,368.797,-267.131,259.191,413.220,5.400,368.940
822,51706.918000,189.175,-18.071,161.792,361.982,-281.759,264.837,466.220,44.400,369.940
823,51706.968000,188.192,-10.039,166.912,354.552,-272.522,273.975,539.220,76.400,365.940
824,51707.5000,186.226,-5.020,160.768,350.719,-276.977,282.826,615.220,47.400,396.940
825,51707.49000,192.123,-11.043,167.936,344.217,-268.702,288.960,613.220,29.400,437.940
826,51707.80000,182.296,-28.110,166.912,340.445,-269.376,303.860,741.220,29.400,509.940
827,51707.125000,189.175,-29.114,161.792,332.905,-268.345,314.812,975.220,35.400,586.940
828,51707.145000,180.330,-35.137,148.480,322.662,-258.073,331.924,1135.220,30.400,600.940
829,51707.180000,211.777,-45.176,140.288,318.117,-245.933,347.095,1345.220,25.400,671.940
830,51707.220000,233.397,-3.012,136.192,302.144,-240.200,370.070,1615.220,236.400,639.940
831,51707.267000,222.587,35.137,133.120,297.715,-219.776,387.407,1691.220,199.400,461.940
832,51707.300000,217.674,40.157,121.856,288.666,-191.968,410.862,1392.220,294.400,402.940
833,51707.340000,193.106,69.271,141.312,281.345,-175.285,426.126,1333.220,238.400,361.940
834,51707.359000,180.330,83.325,147.456,276.050,-148.558,438.623,1142.220,233.400,259.940
835,51707.402000,190.157,84.329,173.056,268.609,-140.218,448.736,830.220,264.400,222.940
836,51707.439000,184.261,73.286,160.768,262.174,-127.304,457.953,813.220,183.400,171.940
837,51707.479000,186.226,80.314,159.744,254.855,-109.841,466.271,644.220,261.400,116.940
838,51707.519000,181.313,80.314,167.936,254.037,-100.653,468.454,636.220,106.400,169.940
839,51707.565000,185.244,86.337,163.840,252.260,-92.394,470.617,542.220,47.400,147.940
840,51707.599000,179.347,73.286,172.032,253.304,-85.851,476.725,329.220,-11.600,140.940
841,51707.619000,187.209,86.337,161.792,252.447,-79.431,477.855,424.220,-41.600,105.940
842,51707.668000,172.468,78.306,161.792,256.202,-81.272,474.838,323.220,-76.600,70.940
843,51707.702000,170.503,84.329,164.864,253.565,-66.632,476.140,350.220,-65.600,115.940
844,51707.744000,171.486,87.341,162.816,257.414,-61.982,477.239,295.220,-78.600,156.940
845,51707.785000,166.572,65.255,182.272,259.432,-52.796,477.438,260.220,-86.600,193.940
846,51707.830000,164.607,95.373,185.344,262.349,-47.222,479.550,421.220,-105.600,201.940
847,51707.851000,155.762,98.384,176.128,267.124,-43.573,475.656,294.220,-190.600,202.940
848,51707.879000,164.607,97.380,188.416,273.766,-41.732,471.727,321.220,-202.600,245.940
849,51707.919000,158.710,119.467,152.576,275.672,-40.790,471.750,227.220,-305.600,269.940
850,51707.967000,149.866,102.400,147.456,288.858,-44.417,464.730,55.220,-355.600,279.940
851,51707.999000,188.192,86.337,140.288,298.293,-46.163,462.717,-65.780,-224.600,327.940
852,51708.39000,203.916,79.310,92.160,302.954,-50.779,457.653,-97.780,-376.600,354.940
853,51708.79000,330.687,51.200,90.112,309.390,-63.673,449.431,-288.780,-96.600,357.940
854,51708.99000,274.672,13.051,106.496,305.513,-70.955,454.243,-170.780,-55.600,528.940
855,51708.147000,264.845,3.012,106.496,304.347,-86.619,449.929,-127.780,-3.600,557.940
856,51708.179000,259.931,3.012,105.472,304.216,-96.619,453.695,6.220,-62.600,452.940
857,51708.228000,225.536,11.043,93.184,309.825,-101.202,449.627,-78.780,-152.600,384.940
858,51708.260000,210.795,-10.039,75.776,311.609,-108.604,444.499,-165.780,-202.600,355.940
859,51708.318000,224.553,-9.035,74.752,311.445,-120.533,443.250,-113.780,-150.600,283.940
860,51708.333000,226.518,-10.039,65.536,315.211,-121.478,439.257,-82.780,-143.600,182.940
861,51708.365000,245.190,-21.082,72.704,313.228,-127.955,437.127,-121.780,-62.600,170.940
862,51708.405000,248.138,-12.047,72.704,313.088,-138.052,435.917,-123.780,8.400,85.940
863,51708.462000,248.138,-15.059,75.776,314.110,-132.542,436.036,-81.780,3.400,18.940
864,51708.484000,235.363,-19.075,71.680,313.068,-139.825,438.863,-31.780,83.400,-19.060
865,51708.525000,231.432,-16.063,70.656,310.380,-128.869,439.093,-6.780,76.400,-108.060
866,51708.550000,230.449,-21.082,66.560,310.360,-130.643,442.039,-61.780,78.400,-166.060
867,51708.580000,243.225,-4.016,71.680,309.443,-128.765,445.061,-130.780,162.400,-319.060
868,51708.628000,237.328,-9.035,78.848,303.682,-134.434,439.959,-167.780,146.400,-390.060
869,51708.665000,226.518,-10.039,84.992,304.798,-122.434,444.195,-188.780,143.400,-415.060
870,51708.707000,248.138,-13.051,118.784,298.198,-120.689,444.222,47.220,204.400,-383.060
871,51708.747000,261.896,53.208,163.840,296.512,-105.978,448.511,143.220,295.400,-506.060
872,51708.780000,221.605,63.247,154.624,292.751,-104.975,455.489,-71.780,203.400,-435.060
873,51708.800000,205.881,68.267,166.912,289.019,-101.321,457.551,88.220,243.400,-363.060
874,51708.845000,184.261,82.322,161.792,280.711,-86.678,462.823,154.220,233.400,-289.060
875,51708.890000,173.451,66.259,154.624,276.024,-83.914,466.854,98.220,244.400,-211.060
876,51708.923000,187.209,61.239,161.792,269.479,-78.446,469.944,185.220,207.400,-250.060
877,51708.963000,179.347,82.322,145.408,267.769,-65.567,474.195,153.220,197.400,-347.060
878,51709.3000,176.399,67.263,154.624,262.103,-64.726,474.204,11.220,174.400,-333.060
879,51709.25000,180.330,82.322,153.600,260.196,-66.467,480.132,-92.780,128.400,-331.060
880,51709.65000,186.226,63.247,157.696,259.360,-58.253,479.311,-246.780,67.400,-345.060
881,51709.107000,170.503,81.318,155.648,255.457,-66.607,476.144,-314.780,23.400,-350.060
882,51709.143000,172.468,85.333,168.960,256.289,-74.859,474.974,-402.780,-22.600,-363.060
883,51709.183000,165.589,78.306,154.624,260.031,-77.636,470.942,-421.780,-64.600,-394.060
884,51709.233000,174.434,106.416,156.672,263.812,-77.625,468.959,-604.780,-84.600,-465.060
885,51709.267000,167.555,100.392,150.528,267.443,-88.627,465.746,-832.780,-190.600,-511.060
886,51709.287000,176.399,101.396,141.312,274.809,-102.464,455.516,-1028.780,-205.600,-552.060
887,51709.329000,156.745,85.333,134.144,279.208,-125.539,443.096,-1189.780,-227.600,-577.060
888,51709.365000,164.607,93.365,150.528,292.265,-138.385,432.896,-1223.780,-256.600,-687.060
889,51709.405000,247.155,101.396,138.240,300.574,-152.249,420.677,-1401.780,-247.600,-745.060
890,51709.447000,219.639,27.106,128.000,311.701,-167.089,403.469,-1411.780,-327.600,-657.060
891,51709.487000,206.864,4.016,154.624,314.292,-183.815,389.192,-1291.780,-86.600,-434.060
892,51709.507000,175.417,-20.078,173.056,316.807,-206.038,374.798,-1213.780,-24.600,-331.060
893,51709.545000,175.417,4.016,186.368,317.667,-211.659,367.717,-704.780,33.400,-329.060
894,51709.587000,163.624,7.027,187.392,319.512,-214.499,361.691,-748.780,-21.600,-338.060
895,51709.627000,178.365,5.020,190.464,326.986,-220.150,348.652,-710.780,-66.600,-259.060
896,51709.667000,184.261,1.004,190.464,323.039,-231.330,341.446,-558.780,2.400,-217.060
897,51709.703000,176.399,-2.008,188.416,332.501,-230.445,333.521,-587.780,-12.600,-161.060
898,51709.748000,173.451,0.000,193.536,334.226,-242.388,330.286,-426.780,40.400,-167.060
899,51709.773000,175.417,11.043,181.248,330.449,-241.581,327.313,-297.780,-31.600,-205.060
900,51709.805000,165.589,9.035,165.888,335.219,-237.990,320.434,-360.780,-73.600,-249.060
901,51709.848000,170.503,26.102,186.368,344.575,-245.272,316.315,-303.780,-11.600,-198.060
902,51709.885000,168.537,21.082,199.680,342.710,-242.666,310.400,-388.780,-55.600,-123.060
903,51709.923000,181.313,1.004,216.064,346.478,-243.591,307.402,-292.780,-36.600,-63.060
904,51709.967000,163.624,25.098,206.848,348.326,-246.392,303.366,-172.780,-137.600,-145.060
905,51709.982000,153.797,21.082,212.992,349.252,-247.393,298.373,-230.780,-144.600,-161.060
906,51710.22000,146.917,23.090,206.848,355.900,-244.713,290.483,-251.780,-208.600,-160.060
907,51710.68000,149.866,11.043,201.728,361.514,-248.459,282.454,-367.780,-278.600,-147.060
908,51710.108000,160.676,11.043,190.464,375.753,-243.906,271.631,-360.780,-292.600,-193.060
909,51710.143000,149.866,-4.016,179.200,379.378,-254.206,257.493,-445.780,-363.600,-220.060
910,51710.187000,154.779,-26.102,155.648,386.026,-251.527,249.602,-360.780,-314.600,-221.060
911,51710.234000,291.378,-14.055,159.744,389.917,-243.309,245.804,-245.780,-135.600,-234.060
912,51710.242000,232.415,41.161,135.168,399.488,-234.998,243.012,-38.780,-56.600,-527.060
913,51710.282000,256.983,39.153,119.808,406.193,-228.575,239.180,-321.780,-155.600,-522.060
914,51710.323000,253.052,48.188,115.712,412.884,-223.089,234.333,-225.780,-121.600,-527.060
915,51710.363000,221.605,44.173,124.928,419.548,-219.454,228.452,-232.780,-91.600,-385.060
916,51710.407000,215.708,41.161,97.280,421.523,-213.074,225.607,-181.780,-84.600,-445.060
917,51710.447000,222.587,24.094,105.472,432.099,-200.208,220.923,-80.780,-128.600,-264.060
918,51710.467000,222.587,35.137,93.184,434.938,-200.171,220.928,47.220,-30.600,-202.060
919,51710.507000,224.553,36.141,99.328,434.090,-192.874,220.088,-12.780,-23.600,-154.060
920,51710.547000,229.466,34.133,108.544,436.891,-195.585,220.034,-29.780,-11.600,-69.060
921,51710.590000,219.639,41.161,100.352,440.716,-192.767,221.095,-67.780,10.400,-29.060
922,51710.624000,221.605,39.153,111.616,436.957,-190.965,222.122,27.220,40.400,14.940
923,51710.663000,216.691,47.184,99.328,437.911,-190.095,219.158,40.220,-5.600,58.940
924,51710.683000,220.622,43.169,107.520,434.954,-199.216,222.938,34.220,38.400,82.940
925,51710.727000,224.553,42.165,97.280,430.213,-200.155,224.900,135.220,56.400,133.940
926,51710.764000,216.691,43.169,98.304,429.345,-194.632,227.006,122.220,86.400,170.940
927,51710.802000,221.605,56.220,110.592,424.461,-206.487,232.714,147.220,141.400,206.940
928,51710.849000,209.812,60.235,102.400,422.593,-204.680,232.750,82.220,64.400,254.940
929,51710.893000,232.415,91.357,120.832,418.690,-213.813,236.528,4.220,22.400,209.940
930,51710.924000,219.639,71.278,156.672,417.703,-216.613,234.478,-172.780,-8.600,270.940
931,51710.947000,201.950,7.027,173.056,410.065,-221.352,231.382,-253.780,30.400,381.940
932,51710.987000,198.019,-34.133,209.920,405.071,-240.654,230.964,-229.780,135.400,472.940
933,51711.27000,198.019,-40.157,211.968,391.702,-249.932,233.730,-75.780,163.400,417.940
934,51711.67000,188.192,-32.125,206.848,387.853,-254.582,232.631,55.220,150.400,278.940
935,51711.107000,166.572,-3.012,194.560,381.128,-262.778,239.409,101.220,81.400,163.940
936,51711.147000,170.503,-7.027,181.248,378.289,-262.815,239.404,55.220,15.400,172.940
937,51711.164000,169.520,-5.020,172.032,378.281,-263.673,242.370,110.220,-15.600,200.940
938,51711.210000,174.434,-2.008,164.864,375.349,-270.961,246.189,174.220,-3.600,201.940
939,51711.248000,173.451,-3.012,168.960,369.710,-268.268,247.233,208.220,-4.600,240.940
940,51711.288000,177.382,-5.020,164.864,366.801,-273.744,250.096,233.220,36.400,282.940
941,51711.328000,177.382,-3.012,169.984,364.876,-276.459,253.019,243.220,91.400,329.940
942,51711.368000,181.313,-11.043,177.152,354.444,-279.169,261.898,337.220,113.400,375.940
943,51711.409000,187.209,-12.047,188.416,348.741,-281.856,268.794,376.220,91.400,407.940
944,51711.423000,178.365,-13.051,174.080,339.214,-287.341,275.626,442.220,38.400,398.940
945,51711.463000,176.399,-9.035,182.272,335.491,-283.590,282.663,441.220,25.400,426.940
946,51711.503000,176.399,-13.051,182.272,330.730,-286.304,287.571,259.220,-29.600,434.940
947,51711.543000,175.417,-27.106,179.200,324.891,-298.269,288.303,274.220,-70.600,441.940
948,51711.583000,183.278,-45.176,180.224,321.103,-299.118,294.247,415.220,-73.600,497.940
949,51711.628000,186.226,-57.224,164.864,310.707,-299.099,302.189,668.220,-66.600,561.940
950,51711.648000,176.399,-66.259,148.480,304.194,-292.501,316.245,876.220,-34.600,617.940
951,51711.688000,193.106,-83.325,130.048,296.793,-282.152,335.352,1203.220,0.400,738.940
952,51711.728000,258.948,-75.294,125.952,282.742,-273.724,354.409,1708.220,263.400,895.940
953,51711.768000,217.674,15.059,153.600,269.817,-253.178,383.671,1868.220,427.400,495.940
954,51711.809000,193.106,24.094,126.976,260.602,-237.319,404.883,1205.220,3.400,724.940
955,51711.849000,185.244,57.224,145.408,254.187,-223.411,418.099,1104.220,88.400,529.940
956,51711.888000,180.330,65.255,181.248,250.727,-201.181,433.487,1198.220,117.400,396.940
957,51711.908000,188.192,58.227,184.320,243.391,-184.673,439.795,980.220,93.400,282.940
958,51711.948000,180.330,66.259,181.248,239.768,-173.593,446.988,840.220,80.400,190.940
959,51711.988000,183.278,63.247,203.776,237.142,-158.816,455.256,590.220,58.400,178.940
960,51712.28000,178.365,56.220,191.488,240.089,-151.352,460.392,595.220,-22.600,152.940
961,51712.68000,175.417,67.263,190.464,238.432,-134.770,466.711,485.220,-74.600,111.940
962,51712.108000,179.347,52.204,188.416,242.194,-135.753,460.727,322.220,-248.600,107.940
963,51712.128000,171.486,68.267,177.152,251.814,-124.556,464.958,352.220,-278.600,37.940
964,51712.168000,168.537,63.247,180.224,255.671,-119.048,463.092,292.220,-323.600,30.940
965,51712.208000,166.572,69.271,171.008,266.095,-117.196,457.179,299.220,-400.600,7.940
966,51712.251000,172.468,82.322,162.816,279.442,-109.711,456.363,241.220,-344.600,17.940
967,51712.289000,171.486,70.275,160.768,287.033,-107.837,453.431,176.220,-384.600,80.940
968,51712.327000,171.486,77.302,156.672,293.698,-104.183,448.545,160.220,-369.600,142.940
969,51712.368000,156.745,71.278,138.240,304.062,-106.891,443.530,208.220,-353.600,205.940
970,51712.385000,171.486,79.310,121.856,313.579,-102.283,438.669,166.220,-297.600,228.940
971,51712.425000,187.209,75.294,117.760,316.372,-105.092,433.640,76.220,-219.600,204.940
972,51712.464000,327.739,70.275,99.328,310.580,-113.432,432.459,-69.780,-2.600,279.940
973,51712.514000,230.449,14.055,121.856,314.258,-121.568,435.275,-124.780,131.400,380.940
974,51712.557000,301.205,-25.098,112.640,307.614,-123.429,438.210,18.220,137.400,531.940
975,51712.590000,255.017,-10.039,99.328,307.503,-131.655,439.029,129.220,67.400,356.940
976,51712.610000,224.553,4.016,92.160,309.440,-128.804,443.071,158.220,-44.600,173.940
977,51712.650000,221.605,4.016,86.016,310.306,-134.346,439.971,88.220,-144.600,122.940
978,51712.690000,219.639,6.024,91.136,311.253,-134.334,439.972,8.220,-94.600,99.940
979,51712.730000,223.570,9.035,83.968,309.378,-132.605,436.028,-42.780,-107.600,47.940
980,51712.770000,225.536,7.027,87.040,314.121,-131.646,435.061,-72.780,-67.600,8.940
981,51712.810000,237.328,14.055,95.232,313.099,-137.155,434.942,7.220,1.400,-5.060
982,51712.850000,239.294,3.012,90.112,317.902,-131.635,433.077,-2.780,-31.600,18.940
983,51712.870000,226.518,10.039,83.968,315.076,-130.756,433.092,53.220,-39.600,8.940
984,51712.910000,233.397,5.020,88.064,315.031,-134.362,435.999,47.220,-23.600,16.940
985,51712.950000,229.466,5.020,87.040,317.965,-127.054,433.175,41.220,-54.600,11.940
986,51712.994000,236.345,1.004,77.824,317.826,-137.151,431.965,-19.780,-29.600,-6.060
987,51713.29000,234.380,3.012,84.992,316.010,-131.660,433.074,-30.780,27.400,-72.060
988,51713.69000,233.397,-4.016,79.872,311.208,-137.160,435.934,-5.780,-10.600,-112.060
989,51713.87000,219.639,-2.008,93.184,313.237,-127.077,435.156,-33.780,87.400,-156.060
990,51713.127000,216.691,-3.012,108.544,307.493,-131.772,433.059,-9.780,80.400,-177.060
991,51713.167000,252.069,-5.020,119.808,307.670,-118.927,434.327,213.220,34.400,-92.060
992,51713.207000,243.225,38.149,147.456,297.333,-114.367,440.377,200.220,290.400,-267.060
993,51713.249000,248.138,54.212,150.528,295.464,-113.339,447.358,147.220,178.400,-273.060
994,51713.293000,212.760,56.220,148.480,296.637,-96.816,448.706,254.220,175.400,-253.060
995,51713.312000,176.399,58.227,149.504,293.832,-94.924,453.716,272.220,166.400,-187.060
996,51713.352000,174.434,63.247,146.432,291.212,-79.309,458.023,272.220,106.400,-125.060
997,51713.389000,178.365,62.243,144.384,287.496,-74.700,462.094,286.220,124.400,-115.060
998,51713.429000,196.054,72.282,150.528,280.922,-71.123,462.160,224.220,109.400,-118.060
999,51713.469000,189.175,69.271,140.288,279.139,-63.702,468.283,121.220,73.400,-141.060
1000,51713.510000,194.088,84.329,151.552,276.368,-59.101,471.361,2.220,89.400,-220.060
1001,51713.552000,187.209,86.337,156.672,277.262,-62.772,470.290,-121.780,29.400,-236.060
1002,51713.572000,185.244,78.306,149.504,277.298,-60.043,469.353,-267.780,-65.600,-209.060
1003,51713.612000,185.244,85.333,145.408,280.949,-69.272,463.194,-333.780,-129.600,-227.060
1004,51713.652000,190.157,89.349,141.312,283.737,-72.899,463.121,-427.780,-168.600,-245.060
1005,51713.685000,195.071,79.310,143.360,289.357,-76.586,458.078,-534.780,-152.600,-223.060
1006,51713.737000,196.054,87.341,138.240,292.936,-91.272,453.792,-562.780,-146.600,-238.060
1007,51713.769000,199.002,85.333,142.336,293.834,-94.125,447.765,-647.780,-190.600,-264.060
1008,51713.789000,197.036,92.361,139.264,305.014,-106.041,439.571,-719.780,-214.600,-272.060
1009,51713.829000,199.002,96.376,135.168,304.929,-111.655,433.483,-771.780,-225.600,-267.060
1010,51713.868000,194.088,93.365,124.928,309.392,-130.130,422.156,-929.780,-305.600,-260.060
1011,51713.910000,184.261,85.333,112.640,324.326,-143.906,409.949,-1002.780,-343.600,-257.060
1012,51713.950000,171.486,80.314,102.400,326.890,-162.484,394.638,-1142.780,-334.600,-253.060
1013,51713.990000,278.603,69.271,111.616,335.139,-180.129,376.371,-1188.780,-341.600,-262.060
1014,51714.30000,224.553,19.075,134.144,343.484,-191.264,363.216,-1171.780,-240.600,-197.060
1015,51714.50000,239.294,-7.027,141.312,344.143,-210.783,347.882,-793.780,-280.600,-12.060
1016,51714.89000,232.415,-29.114,149.504,348.726,-220.155,333.764,-761.780,-330.600,33.940
1017,51714.128000,213.743,-15.059,150.528,352.405,-226.732,322.689,-294.780,-424.600,49.940
1018,51714.175000,209.812,-1.004,135.168,357.125,-226.807,315.732,-170.780,-391.600,11.940
1019,51714.208000,211.777,-2.008,126.976,365.556,-231.548,301.718,-195.780,-526.600,56.940
1020,51714.248000,215.708,-3.012,116.736,369.267,-236.215,294.662,-98.780,-483.600,102.940
1021,51714.268000,225.536,-9.035,113.664,370.074,-245.540,285.513,-53.780,-462.600,156.940
1022,51714.310000,220.622,-12.047,113.664,375.783,-242.015,274.655,0.220,-398.600,123.940
1023,51714.349000,237.328,-8.031,106.496,374.759,-247.563,272.547,151.220,-353.600,183.940
1024,51714.385000,224.553,-8.031,101.376,377.616,-245.771,268.610,186.220,-369.600,195.940
1025,51714.425000,234.380,-3.012,100.352,377.561,-249.495,265.547,258.220,-345.600,248.940
1026,51714.472000,230.449,-4.016,87.040,381.299,-252.310,259.525,409.220,-361.600,235.940
1027,51714.512000,231.432,-17.067,90.112,378.508,-248.702,258.603,346.220,-357.600,256.940
1028,51714.532000,240.276,-16.063,91.136,379.454,-248.690,258.605,420.220,-365.600,253.940
1029,51714.568000,237.328,-24.094,84.992,383.268,-246.769,260.640,609.220,-392.600,222.940
1030,51714.608000,240.276,1.004,86.016,382.315,-246.859,256.659,598.220,-384.600,210.940
1031,51714.648000,244.207,-21.082,76.800,388.085,-240.313,259.790,671.220,-362.600,150.940
1032,51714.688000,244.207,-7.027,70.656,389.017,-241.236,258.777,535.220,-352.600,155.940
1033,51714.728000,247.155,-13.051,63.488,395.745,-233.780,260.935,473.220,-355.600,174.940
1034,51714.748000,244.207,-18.071,59.392,395.713,-235.691,256.916,421.220,-314.600,179.940
1035,51714.790000,245.190,-17.067,56.320,398.524,-237.524,254.892,417.220,-327.600,172.940
1036,51714.832000,245.190,-20.078,54.272,401.461,-230.177,254.058,412.220,-358.600,87.940
1037,51714.882000,244.207,-25.098,48.128,405.254,-229.270,251.099,434.220,-346.600,80.940
1038,51714.910000,240.276,-22.086,44.032,407.234,-222.832,251.239,453.220,-345.600,82.940
1039,51714.950000,256.000,-23.090,39.936,411.088,-217.363,247.383,464.220,-333.600,70.940
1040,51714.990000,247.155,-19.075,28.672,415.853,-214.591,245.459,424.220,-382.600,15.940
1041,51715.20000,253.052,-19.075,24.576,421.523,-214.614,240.494,430.220,-340.600,-15.060
1042,51715.51000,255.017,-17.067,13.312,427.388,-200.797,240.797,427.220,-364.600,-17.060
1043,51715.92000,258.948,-4.016,9.216,432.051,-205.393,236.727,376.220,-366.600,-58.060
1044,51715.133000,256.983,6.024,12.288,439.784,-192.604,230.048,311.220,-323.600,-97.060
1045,51715.173000,248.138,0.000,5.120,445.418,-195.355,226.020,239.220,-339.600,-122.060
1046,51715.207000,244.207,12.047,-5.120,448.386,-185.338,221.264,166.220,-337.600,-130.060
1047,51715.227000,240.276,17.067,-6.144,453.108,-185.392,215.302,106.220,-316.600,-121.060
1048,51715.275000,235.363,18.071,-10.240,458.888,-177.189,209.517,84.220,-326.600,-134.060
1049,51715.309000,241.259,15.059,-17.408,463.658,-173.599,202.638,19.220,-318.600,-120.060
1050,51715.349000,230.449,21.082,-18.432,466.535,-170.033,195.756,36.220,-294.600,-130.060
1051,51715.389000,232.415,0.000,-37.888,467.482,-169.241,188.812,105.220,-306.600,-112.060
1052,51715.432000,265.827,28.110,-21.504,470.315,-169.282,184.837,78.220,-286.600,-127.060
1053,51715.452000,271.724,37.145,-16.384,478.936,-161.022,180.052,-3.780,-102.600,-133.060
1054,51715.490000,264.845,25.098,-21.504,476.106,-160.182,178.076,-8.780,-58.600,-165.060
