Sample, Time, ACCX, ACCY, ACCZ, MAGX, MAGY, MAGZ, GYRX, GYRY, GYRZ
0,33835.952000,254.023,8.550,13.946,520.321,231.091,6.821,-19.040,13.510,13.980
1,33835.992000,250.069,18.609,8.965,515.429,225.240,7.661,-39.040,18.510,7.980
2,33836.37000,256.988,7.544,13.946,516.406,226.220,7.685,-23.040,20.510,2.980
3,33836.78000,255.012,7.544,16.934,521.312,233.085,8.829,-5.040,43.510,0.980
4,33836.118000,252.046,13.580,19.922,517.388,227.244,9.671,24.960,-4.490,-10.020
5,33836.158000,256.000,6.538,15.938,518.433,235.926,6.924,28.960,-27.490,-26.020
6,33836.198000,253.035,9.556,17.930,517.447,233.975,6.879,22.960,-21.490,-50.020
7,33836.228000,254.023,12.574,17.930,516.505,236.857,5.960,38.960,-44.490,-59.020
8,33836.258000,255.012,9.556,15.938,515.493,232.899,2.928,99.960,-52.490,-72.020
9,33836.292000,254.023,13.580,14.942,514.510,231.854,-0.039,92.960,-71.490,-92.020
10,33836.332000,251.058,16.597,13.946,512.606,234.769,1.002,97.960,-93.490,-104.020
11,33836.372000,254.023,20.621,11.953,514.636,246.266,-6.583,99.960,-127.490,-116.020
12,33836.412000,251.058,20.621,9.961,514.598,243.267,-10.573,55.960,-144.490,-132.020
13,33836.452000,251.058,17.603,16.934,510.722,243.165,-13.525,56.960,-206.490,-154.020
14,33836.497000,252.046,21.627,17.930,505.921,248.749,-22.237,58.960,-297.490,-154.020
15,33836.517000,257.977,17.603,22.911,506.892,252.318,-36.866,-43.040,-482.490,-145.020
16,33836.557000,269.838,17.603,13.946,501.063,251.140,-43.769,-67.040,-639.490,-92.020
17,33836.597000,275.768,9.556,-23.907,501.119,260.482,-60.233,56.960,-702.490,12.980
18,33836.633000,262.919,14.585,-53.790,502.019,256.327,-73.072,-75.040,-629.490,188.980
19,33836.673000,249.081,-14.585,-49.805,499.022,249.223,-85.984,-280.040,-563.490,202.980
20,33836.713000,220.417,31.686,-42.833,500.919,246.242,-89.969,230.960,-231.490,294.980
21,33836.753000,215.475,59.851,-37.852,503.751,239.432,-92.076,273.960,62.510,273.980
22,33836.793000,217.452,54.821,-30.879,502.757,235.647,-87.258,-41.040,432.510,224.980
23,33836.837000,245.127,117.187,-57.774,506.604,231.067,-76.565,188.960,470.510,34.980
24,33836.857000,250.069,-21.627,-32.872,512.321,220.595,-69.920,570.960,518.510,155.980
25,33836.897000,286.641,28.668,-29.883,512.308,216.949,-59.214,723.960,527.510,108.980
26,33836.937000,260.942,43.756,-7.969,512.333,218.071,-52.325,-106.040,416.510,117.980
27,33836.977000,251.058,-17.603,0.996,516.221,217.397,-40.563,54.960,383.510,151.980
28,33837.17000,254.023,11.568,0.000,519.099,214.555,-38.659,-19.040,346.510,162.980
29,33837.57000,255.012,0.503,2.988,521.991,210.959,-26.965,-241.040,353.510,186.980
30,33837.97000,256.988,6.538,7.969,521.896,199.481,-19.375,-50.040,317.510,183.980
31,33837.143000,250.069,2.515,17.930,519.030,201.567,-11.489,-125.040,273.510,172.980
32,33837.158000,246.116,-12.574,27.891,523.848,197.903,-3.715,-156.040,197.510,167.980
33,33837.198000,254.023,-11.568,31.875,530.608,196.092,-0.799,-61.040,77.510,145.980
34,33837.238000,251.058,-18.609,17.930,525.655,184.373,-2.050,-37.040,2.510,104.980
35,33837.273000,251.058,-10.562,10.957,529.555,187.345,-0.995,116.960,-41.490,90.980
36,33837.313000,255.012,-2.515,3.984,528.527,182.352,-6.992,242.960,-33.490,74.980
37,33837.353000,253.035,-12.574,18.926,528.560,186.192,-8.868,242.960,-5.490,38.980
38,33837.393000,251.058,-3.521,18.926,527.600,187.132,-9.830,242.960,-24.490,70.980
39,33837.433000,256.988,-3.521,9.961,530.460,183.234,-11.872,162.960,-21.490,90.980
40,33837.453000,242.162,-13.580,18.926,530.366,173.525,-12.087,137.960,10.510,99.980
41,33837.493000,251.058,-12.574,17.930,531.301,170.579,-14.112,321.960,-31.490,130.980
42,33837.536000,258.965,-20.621,11.953,531.294,170.514,-17.056,314.960,45.510,149.980
43,33837.575000,253.035,-15.591,17.930,535.156,169.603,-16.087,346.960,64.510,105.980
44,33837.614000,257.977,-9.556,17.930,536.124,170.497,-19.988,103.960,35.510,24.980
45,33837.654000,256.000,-10.562,22.911,535.114,165.676,-18.136,-1.040,17.510,-16.020
46,33837.694000,252.046,-14.585,21.914,530.326,170.505,-17.058,-62.040,-44.490,-66.020
47,33837.734000,251.058,-13.580,15.938,532.311,175.400,-15.964,-144.040,-51.490,-86.020
48,33837.754000,256.000,-8.550,12.949,532.238,168.539,-19.059,-12.040,-5.490,-80.020
49,33837.794000,254.023,-19.615,16.934,529.456,180.226,-15.863,-44.040,35.510,-124.020
50,33837.834000,256.000,0.503,16.934,527.546,182.213,-12.881,-146.040,67.510,-141.020
51,33837.874000,254.023,-18.609,16.934,528.443,174.499,-11.089,-274.040,174.510,-145.020
52,33837.913000,253.035,-20.621,19.922,524.692,185.292,-3.993,-230.040,149.510,-211.020
53,33837.953000,256.988,0.503,18.926,519.982,197.909,-1.762,-13.040,98.510,-287.020
54,33837.993000,253.035,1.509,20.918,520.057,204.791,2.314,-142.040,86.510,-305.020
55,33838.33000,254.023,1.509,23.907,517.247,213.565,5.445,-52.040,70.510,-292.020
56,33838.73000,251.058,13.580,23.907,514.354,214.508,5.460,-194.040,44.510,-287.020
57,33838.93000,250.069,19.615,33.868,513.492,224.315,10.579,-430.040,-169.490,-283.020
58,33838.139000,261.931,25.650,28.887,508.738,234.753,1.975,-538.040,-402.490,-253.020
59,33838.179000,258.965,6.538,-41.837,503.930,238.503,-1.875,-662.040,-579.490,-116.020
60,33838.219000,263.907,0.503,-82.677,508.737,237.386,-10.716,-675.040,-792.490,-41.020
61,33838.259000,247.104,28.668,-82.677,506.768,237.043,-25.437,-366.040,-872.490,-122.020
62,33838.299000,229.313,21.627,-59.767,495.089,234.492,-48.074,80.960,-896.490,-116.020
63,33838.339000,230.301,33.697,-50.802,486.441,245.540,-71.383,187.960,-834.490,-111.020
64,33838.379000,226.347,19.615,-44.825,486.431,248.971,-91.900,67.960,-680.490,-73.020
65,33838.399000,227.336,20.621,-22.911,478.653,247.644,-104.695,-109.040,-490.490,-6.020
66,33838.440000,254.023,-8.550,45.821,474.708,240.724,-108.779,-233.040,-184.490,103.980
67,33838.479000,258.965,11.568,91.642,478.580,239.898,-103.886,18.960,526.510,112.980
68,33838.519000,264.896,-37.721,-79.689,478.540,232.477,-88.360,494.960,573.510,169.980
69,33838.554000,299.490,78.963,36.856,483.433,235.695,-76.511,20.960,649.510,34.980
70,33838.598000,276.757,53.815,2.988,486.332,233.048,-65.776,355.960,601.510,168.980
71,33838.638000,247.104,-3.521,-6.973,490.120,222.622,-56.193,235.960,538.510,181.980
72,33838.679000,261.931,18.609,-8.965,490.107,218.091,-41.584,-141.040,540.510,140.980
73,33838.699000,264.896,21.627,-1.992,491.135,222.200,-31.684,-240.040,606.510,210.980
74,33838.739000,231.290,-0.503,24.903,495.014,219.692,-15.060,-134.040,459.510,190.980
75,33838.796000,246.116,-28.668,62.755,495.955,215.925,-10.238,120.960,57.510,167.980
76,33838.817000,259.954,3.521,21.914,496.874,211.944,-15.228,189.960,-89.490,151.980
77,33838.857000,257.977,11.568,-5.977,498.724,204.109,-19.321,98.960,-49.490,112.980
78,33838.895000,259.954,-5.532,4.981,496.840,208.103,-13.352,60.960,3.510,108.980
79,33838.939000,249.081,-3.521,14.942,502.530,197.372,-18.481,56.960,51.510,136.980
80,33838.979000,252.046,-9.556,17.930,502.570,201.278,-17.414,103.960,-22.490,100.980
81,33838.999000,254.023,-8.550,19.922,502.563,201.213,-20.357,163.960,-81.490,54.980
82,33839.39000,255.012,-3.521,8.965,502.483,193.403,-22.492,96.960,-116.490,7.980
83,33839.79000,253.035,-3.521,8.965,500.533,193.233,-29.365,-18.040,-93.490,-0.020
84,33839.120000,252.046,-9.556,9.961,501.555,199.046,-30.214,103.960,-121.490,12.980
85,33839.155000,256.000,-2.515,3.984,503.490,199.949,-34.113,165.960,-138.490,16.980
86,33839.195000,255.012,-10.562,0.996,502.509,198.926,-36.099,96.960,-103.490,-6.020
87,33839.235000,255.012,-3.521,0.000,503.474,199.798,-40.981,17.960,-77.490,-28.020
88,33839.275000,253.035,-1.509,0.000,500.522,194.894,-42.077,-48.040,-30.490,-31.020
89,33839.296000,254.023,-2.515,1.992,501.554,201.678,-42.904,-32.040,-32.490,-29.020
90,33839.335000,255.012,-1.509,0.996,503.495,201.762,-39.957,-18.040,-26.490,-25.020
91,33839.375000,253.035,-2.515,1.992,503.486,200.791,-39.978,-58.040,-4.490,-21.020
92,33839.415000,254.023,-1.509,0.000,496.700,199.711,-41.978,-34.040,-22.490,-34.020
93,33839.455000,258.965,-5.532,8.965,500.541,196.836,-42.033,-137.040,22.510,-18.020
94,33839.495000,251.058,0.503,0.996,499.574,196.827,-42.036,-73.040,-21.490,-22.020
95,33839.540000,256.988,-0.503,-3.984,499.621,201.681,-41.928,11.960,-25.490,-15.020
96,33839.580000,254.023,-2.515,-2.988,501.601,206.532,-42.797,5.960,14.510,-18.020
97,33839.620000,256.000,-0.503,0.996,501.525,198.766,-42.969,27.960,34.510,-9.020
98,33839.639000,252.046,-1.509,4.981,498.644,199.816,-38.049,21.960,21.510,-18.020
99,33839.680000,252.046,-0.503,2.988,498.651,200.765,-39.008,-32.040,-10.490,-36.020
100,33839.720000,254.023,-0.503,1.992,500.616,203.718,-37.958,-82.040,3.510,-27.020
101,33839.762000,255.012,0.503,-1.992,500.647,207.537,-40.815,-33.040,15.510,-2.020
102,33839.802000,253.035,-0.503,0.000,498.695,204.713,-35.979,-48.040,53.510,15.980
103,33839.842000,255.012,-0.503,0.996,499.651,203.730,-36.979,12.960,19.510,-0.020
104,33839.882000,251.058,0.503,2.988,491.926,204.669,-35.013,-68.040,41.510,10.980
105,33839.915000,253.035,-0.503,1.992,496.737,201.825,-34.085,-42.040,3.510,-6.020
106,33839.934000,254.023,0.503,0.996,497.766,208.587,-35.894,-17.040,-3.490,-6.020
107,33839.976000,255.012,0.503,-1.992,497.758,207.638,-34.935,16.960,14.510,7.980
108,33840.15000,254.023,0.503,0.996,496.746,202.796,-34.064,36.960,41.510,26.980
109,33840.55000,254.023,1.509,4.981,499.641,201.875,-33.098,47.960,37.510,26.980
110,33840.98000,254.023,-0.503,9.961,498.632,198.824,-39.051,14.960,16.510,13.980
111,33840.138000,254.023,0.503,5.977,500.590,199.943,-33.138,16.960,-4.490,2.980
112,33840.178000,254.023,-1.509,4.981,499.707,208.671,-32.947,10.960,-11.490,-0.020
113,33840.217000,255.012,-1.509,4.981,504.540,207.790,-30.995,45.960,2.510,1.980
114,33840.237000,254.023,-1.509,5.977,502.541,201.882,-34.072,36.960,8.510,8.980
115,33840.277000,254.023,-0.503,6.973,499.669,204.788,-33.033,15.960,-5.490,-1.020
116,33840.315000,253.035,-0.503,5.977,500.682,209.630,-33.904,5.960,-11.490,-11.020
117,33840.355000,256.988,3.521,0.996,500.667,207.731,-31.985,3.960,-13.490,-17.020
118,33840.395000,253.035,-1.509,6.973,499.714,209.620,-33.906,-19.040,-7.490,-6.020
119,33840.435000,254.023,-1.509,7.969,499.705,208.649,-33.928,15.960,-21.490,0.980
120,33840.475000,253.035,-0.503,3.984,497.709,202.762,-36.024,-4.040,-22.490,-3.020
121,33840.515000,255.012,-0.503,5.977,497.770,208.631,-33.932,-35.040,-17.490,-1.020
122,33840.535000,253.035,-0.503,3.984,501.647,209.618,-34.883,-24.040,-26.490,-2.020
123,33840.582000,253.035,0.503,3.984,500.637,205.682,-36.934,-13.040,-29.490,-4.020
124,33840.622000,253.035,0.503,5.977,499.703,208.628,-34.909,-11.040,-24.490,-7.020
125,33840.662000,253.035,-0.503,1.992,497.669,198.857,-37.091,-3.040,-38.490,6.980
126,33840.702000,253.035,0.503,0.996,500.607,202.747,-37.979,24.960,-36.490,8.980
127,33840.743000,255.012,-1.509,0.996,496.791,208.513,-38.840,32.960,-22.490,6.980
128,33840.783000,254.023,-0.503,1.992,499.661,205.586,-40.860,22.960,-21.490,1.980
129,33840.822000,253.035,0.503,0.000,497.688,201.684,-40.951,14.960,-11.490,1.980
130,33840.860000,254.023,0.503,2.988,494.840,207.459,-41.810,-9.040,-14.490,2.980
131,33840.875000,255.012,-0.503,4.981,494.758,198.743,-41.023,3.960,-26.490,4.980
132,33840.917000,254.023,-0.503,-0.996,496.766,206.507,-41.827,23.960,-17.490,7.980
133,33840.957000,255.012,-0.503,0.996,498.729,209.438,-41.758,23.960,-11.490,12.980
134,33840.997000,255.012,-0.503,1.992,495.817,208.439,-41.786,3.960,-3.490,12.980
135,33841.40000,254.023,2.515,-3.984,497.674,200.670,-42.935,40.960,11.510,12.980
136,33841.80000,253.035,-1.509,0.000,496.764,206.485,-42.808,-15.040,21.510,14.980
137,33841.120000,255.012,0.503,0.996,498.691,205.555,-41.844,-1.040,16.510,21.980
138,33841.160000,252.046,-1.509,6.973,498.644,200.701,-41.952,-3.040,11.510,23.980
139,33841.180000,254.023,0.503,1.992,497.707,202.741,-37.005,-13.040,-6.490,21.980
140,33841.220000,255.012,1.509,2.988,502.535,202.702,-40.918,-30.040,-9.490,28.980
141,33841.259000,254.023,-0.503,-0.996,500.525,194.916,-41.095,16.960,4.510,26.980
142,33841.299000,256.000,-0.503,0.996,498.615,196.903,-38.113,-21.040,18.510,16.980
143,33841.350000,256.988,-1.509,2.988,501.568,202.692,-40.921,6.960,25.510,14.980
144,33841.378000,252.046,-2.515,2.988,498.693,204.692,-36.960,-10.040,26.510,4.980
145,33841.419000,252.046,-4.527,2.988,499.628,201.746,-38.984,-33.040,7.510,-5.020
146,33841.459000,254.023,-1.509,1.992,498.585,193.969,-39.159,-39.040,-4.490,-3.020
147,33841.479000,252.046,-3.521,4.981,499.670,205.672,-36.936,-7.040,-9.490,2.980
148,33841.518000,255.012,-1.509,1.992,503.537,205.688,-37.908,9.960,0.510,3.980
149,33841.558000,253.035,-1.509,3.984,500.590,200.827,-37.041,1.960,4.510,8.980
150,33841.598000,254.023,0.503,3.984,499.637,202.716,-38.963,5.960,-5.490,9.980
151,33841.638000,253.035,-0.503,1.992,498.627,197.896,-37.111,-10.040,-18.490,2.980
152,33841.678000,255.012,-0.503,3.984,498.646,199.838,-37.067,-44.040,-12.490,-4.020
153,33841.718000,254.023,-0.503,0.996,499.647,203.687,-38.941,-15.040,-4.490,-5.020
154,33841.758000,256.000,-5.532,11.953,498.695,204.713,-35.979,16.960,19.510,-4.020
155,33841.778000,255.012,0.503,-2.988,504.432,197.952,-37.097,50.960,59.510,4.980
156,33841.818000,251.058,3.521,0.996,501.558,200.837,-37.039,-29.040,70.510,2.980
157,33841.855000,252.046,-4.527,5.977,497.657,196.980,-34.191,-62.040,78.510,2.980
158,33841.897000,250.069,-1.509,6.973,496.758,203.788,-33.061,-81.040,74.510,12.980
159,33841.937000,254.023,-1.509,6.973,501.571,200.082,-27.249,-256.040,123.510,50.980
160,33841.977000,252.046,-0.503,7.969,499.633,199.157,-24.332,-143.040,43.510,19.980
161,33842.17000,253.035,-3.521,10.957,497.689,198.167,-24.358,-54.040,13.510,4.980
162,33842.64000,254.023,-1.509,7.969,499.694,205.025,-22.240,-4.040,18.510,-2.020
163,33842.104000,253.035,-2.515,9.961,499.649,200.192,-21.367,-12.040,32.510,-9.020
164,33842.124000,252.046,-1.509,9.961,503.564,205.063,-22.231,-77.040,42.510,-6.020
165,33842.164000,251.058,-4.527,12.949,500.654,204.085,-21.278,-41.040,10.510,-19.020
166,33842.203000,254.023,-0.503,8.965,500.631,201.216,-19.381,-28.040,4.510,-23.020
167,33842.244000,254.023,-0.503,7.969,498.684,200.204,-20.388,1.960,-3.490,-35.020
168,33842.282000,253.035,-2.515,8.965,500.708,209.004,-18.227,38.960,4.510,-40.020
169,33842.323000,253.035,-1.509,14.942,501.640,205.152,-17.330,10.960,0.510,-37.020
170,33842.364000,252.046,-2.515,13.946,499.680,203.126,-20.321,1.960,-5.490,-27.020
171,33842.403000,253.035,-1.509,10.957,497.806,208.976,-18.234,-19.040,-8.490,-25.020
172,33842.423000,253.035,-0.503,8.965,497.813,209.925,-19.193,-24.040,-12.490,-15.020
173,33842.463000,261.931,-1.509,12.949,497.763,204.165,-16.379,-51.040,5.510,-3.020
174,33842.498000,247.104,0.503,16.934,499.800,214.841,-17.119,-81.040,-35.490,-27.020
175,33842.540000,251.058,-8.550,19.922,497.842,212.838,-19.129,55.960,-161.490,-46.020
176,33842.583000,249.081,-4.527,20.918,499.709,206.923,-24.159,233.960,-350.490,-43.020
177,33842.623000,250.069,7.544,17.930,494.843,207.480,-40.829,122.960,-511.490,-39.020
178,33842.664000,247.104,1.509,24.903,494.807,207.135,-56.527,78.960,-699.490,4.980
179,33842.704000,238.208,-37.721,-30.879,492.759,199.867,-77.286,518.960,-614.490,66.980
180,33842.724000,261.931,43.756,-79.689,493.732,202.574,-87.031,446.960,-311.490,129.980
181,33842.764000,256.000,8.550,-12.949,495.632,199.615,-90.035,-55.040,-116.490,187.980
182,33842.798000,248.093,-15.591,-23.907,494.606,194.644,-95.050,171.960,-80.490,263.980
183,33842.838000,238.208,-11.568,-40.840,501.253,182.067,-96.296,421.960,55.510,353.980
184,33842.878000,271.815,-26.656,-22.911,501.159,172.358,-96.512,303.960,122.510,377.980
185,33842.917000,259.954,-5.532,-27.891,505.960,167.659,-91.703,240.960,136.510,275.980
186,33842.958000,257.977,-23.639,-22.911,511.699,160.920,-91.840,167.960,143.510,226.980
187,33842.998000,258.965,-7.544,-8.965,510.613,147.447,-86.258,-270.040,86.510,139.980
188,33843.19000,243.151,-25.650,2.988,512.640,157.153,-87.019,-360.040,-45.490,113.980
189,33843.59000,246.116,-22.633,-7.969,512.532,146.431,-89.218,-333.040,-148.490,108.980
190,33843.99000,250.069,-23.639,-12.949,513.504,148.252,-95.060,-263.040,-235.490,142.980
191,33843.139000,252.046,-12.574,-28.887,508.655,146.328,-92.170,-234.040,-219.490,181.980
192,33843.187000,244.139,-35.709,-0.996,513.463,145.210,-101.011,-233.040,-278.490,190.980
193,33843.219000,248.093,-34.703,-12.949,510.455,135.366,-106.139,-166.040,-358.490,197.980
194,33843.259000,251.058,-30.680,-36.856,515.269,134.312,-112.036,-228.040,-370.490,242.980
195,33843.299000,244.139,-62.868,-9.961,510.358,129.152,-123.929,-108.040,-468.490,201.980
196,33843.343000,254.023,-21.627,-60.763,511.289,127.932,-135.722,212.960,-673.490,99.980
197,33843.370000,249.081,-35.709,-63.751,508.332,126.501,-155.374,-56.040,-672.490,67.980
198,33843.410000,246.116,-51.804,-60.763,502.489,126.078,-172.067,-118.040,-579.490,22.980
199,33843.445000,261.931,-51.804,-56.778,499.571,126.783,-182.844,-217.040,-554.490,-23.020
200,33843.486000,266.873,-43.756,-49.805,491.850,131.282,-195.509,-431.040,-612.490,-26.020
201,33843.525000,318.270,-41.745,-32.872,484.095,131.940,-206.298,-777.040,-861.490,-69.020
202,33843.587000,291.583,-32.692,-50.802,482.289,148.124,-219.672,-1276.040,-827.490,-11.020
203,33843.603000,244.139,-51.804,-81.681,475.671,166.267,-230.071,-1984.040,-1147.490,27.980
204,33843.644000,237.220,-93.045,-93.634,467.001,171.813,-238.792,-1428.040,-1106.490,219.980
205,33843.664000,213.498,-41.745,8.965,469.793,161.982,-245.869,811.960,-105.490,194.980
206,33843.705000,197.683,10.562,-21.914,484.151,144.799,-239.355,1206.960,660.510,-5.020
207,33843.745000,214.486,-27.662,-86.661,499.527,131.638,-226.866,1167.960,1218.510,-20.020
208,33843.784000,224.371,3.521,-170.335,517.924,127.567,-199.460,948.960,1100.510,-53.020
209,33843.824000,195.707,-31.686,-168.342,529.545,124.271,-177.934,278.960,675.510,-130.020
210,33843.864000,198.672,-198.664,-402.428,540.161,117.967,-160.399,238.960,777.510,-69.020
211,33843.915000,244.139,-58.845,-394.459,537.238,115.091,-157.527,807.960,-79.490,50.980
212,33843.944000,186.811,-92.039,-110.568,544.121,123.269,-141.641,-677.040,578.510,89.980
213,33843.989000,188.788,-16.597,-88.654,547.976,120.523,-135.810,664.960,561.510,-1.020
214,33844.24000,266.873,-189.611,-11.953,553.786,117.991,-121.144,1131.960,1070.510,99.980
215,33844.55000,347.923,147.363,-9.961,553.746,109.684,-101.715,1294.960,915.510,-2.020
216,33844.86000,236.232,-33.697,-8.965,554.627,96.533,-82.392,175.960,518.510,250.980
217,33844.125000,231.290,-93.045,-12.949,555.561,92.702,-80.513,-39.040,94.510,111.980
218,33844.159000,253.035,2.515,-16.934,557.551,99.409,-85.264,-164.040,-217.490,-31.020
219,33844.205000,264.896,-27.662,-55.782,553.700,102.198,-89.132,-637.040,-140.490,-62.020
220,33844.245000,239.197,-78.963,-25.899,555.734,111.969,-86.950,-601.040,-58.490,-85.020
221,33844.267000,240.185,-36.715,-14.942,557.683,113.886,-88.865,-779.040,-80.490,-74.020
222,33844.299000,237.220,-51.804,-11.953,553.790,111.863,-90.879,-966.040,-173.490,-50.020
223,33844.348000,235.243,-76.951,-4.981,554.828,119.597,-92.667,-635.040,-321.490,-50.020
224,33844.379000,248.093,-63.874,-11.953,554.830,122.250,-104.376,15.960,-418.490,-17.020
225,33844.419000,251.058,-26.656,-57.774,550.926,121.005,-115.199,-36.040,-472.490,2.980
226,33844.460000,244.139,-40.739,-67.735,552.866,122.836,-121.038,-158.040,-476.490,-7.020
227,33844.500000,241.174,-17.603,-38.848,548.026,125.399,-134.721,-335.040,-606.490,-19.020
228,33844.540000,265.884,-42.750,-50.802,544.061,120.054,-155.441,-290.040,-837.490,12.980
229,33844.562000,270.826,-9.556,-56.778,533.441,126.315,-174.938,-703.040,-994.490,-30.020
230,33844.604000,280.710,1.509,-58.770,528.622,133.496,-199.305,-541.040,-1118.490,-222.020
231,33844.644000,256.988,-67.898,-109.572,520.848,134.844,-222.828,170.960,-973.490,-100.020
232,33844.683000,204.602,-61.862,-168.342,508.239,133.535,-232.690,331.960,-644.490,-98.020
233,33844.724000,175.938,-6.538,-60.763,511.145,135.354,-239.508,171.960,-206.490,-176.020
234,33844.764000,191.753,-8.550,-60.763,514.882,120.031,-231.995,1070.960,730.510,-87.020
235,33844.804000,153.205,-155.411,-356.607,527.532,123.497,-212.278,-31.040,651.510,-23.020
236,33844.845000,201.637,24.644,-165.354,532.276,112.973,-207.598,412.960,557.510,226.980
237,33844.880000,255.012,40.739,-146.428,539.062,109.651,-185.103,-558.040,735.510,155.980
238,33844.904000,257.977,-50.798,-91.642,546.770,103.254,-170.519,487.960,1044.510,194.980
239,33844.943000,280.710,1.509,-49.805,552.586,99.017,-145.103,-144.040,832.510,56.980
240,33844.985000,247.104,-72.927,-59.767,555.496,96.478,-129.463,-97.040,631.510,-56.020
241,33845.25000,257.977,-27.662,-68.732,554.684,108.529,-110.564,-166.040,615.510,-102.020
242,33845.65000,242.162,-16.597,-51.798,560.544,110.872,-94.809,12.960,611.510,-81.020
243,33845.105000,230.301,-26.656,-25.899,557.689,113.066,-82.018,-68.040,559.510,3.980
244,33845.145000,240.185,-45.768,-41.837,559.578,104.714,-65.528,231.960,515.510,24.980
245,33845.185000,238.208,-33.697,-36.856,565.445,109.776,-58.539,196.960,465.510,42.980
246,33845.204000,251.058,-22.633,-9.961,564.476,107.113,-46.832,273.960,418.510,94.980
247,33845.245000,242.162,-49.792,-10.957,564.518,110.155,-40.881,-39.040,279.510,88.980
248,33845.280000,256.000,-30.680,-25.899,567.410,107.443,-33.089,-95.040,181.510,79.980
249,33845.323000,248.093,-29.674,-21.914,570.286,103.695,-28.263,-2.040,207.510,88.980
250,33845.363000,232.278,-49.792,-7.969,569.249,95.099,-21.592,30.960,148.510,134.980
251,33845.402000,245.127,-53.815,-20.918,568.287,96.018,-23.535,243.960,122.510,139.980
252,33845.439000,240.185,-81.980,5.977,566.312,91.209,-20.703,509.960,124.510,38.980
253,33845.480000,256.000,-76.951,-5.977,570.243,98.000,-22.506,489.960,-47.490,-85.020
254,33845.500000,241.174,-100.086,-51.798,568.379,104.820,-20.397,1331.960,240.510,-188.020
255,33845.540000,327.166,44.762,-11.953,564.562,107.932,-9.549,452.960,470.510,-255.020
256,33845.587000,313.328,-20.621,15.938,561.729,112.974,0.364,110.960,468.510,-258.020
257,33845.625000,266.873,-26.656,60.763,557.904,116.884,3.385,501.960,200.510,-171.020
258,33845.664000,247.104,-78.963,23.907,556.009,120.771,4.448,320.960,152.510,123.980
259,33845.705000,229.313,-5.532,98.615,556.928,113.272,16.051,901.960,433.510,104.980
260,33845.742000,218.440,-8.550,123.518,557.110,128.223,34.035,1742.960,1092.510,-98.020
261,33845.781000,229.313,19.615,111.564,550.396,127.833,63.432,1066.960,1179.510,-26.020
262,33845.800000,229.313,-0.503,89.650,545.699,136.179,92.047,459.960,1088.510,-77.020
263,33845.848000,228.324,3.521,60.763,540.021,143.500,118.675,580.960,929.510,-239.020
264,33845.880000,206.579,-42.750,22.911,533.469,163.154,132.827,830.960,829.510,-267.020
265,33845.920000,219.429,9.556,24.903,524.895,173.144,149.702,672.960,765.510,-153.020
266,33845.965000,223.382,-6.538,2.988,519.142,173.584,172.255,-208.040,583.510,-141.020
267,33846.2000,220.417,-39.733,-14.942,517.219,171.925,185.943,-423.040,164.510,-105.020
268,33846.40000,274.780,-9.556,260.981,513.319,168.953,184.888,-493.040,-183.490,-56.020
269,33846.88000,209.544,-3.521,88.654,518.027,152.798,198.269,-1075.040,-68.490,-8.020
270,33846.107000,252.046,-60.857,144.436,521.866,149.017,201.135,-973.040,-300.490,24.980
271,33846.147000,239.197,-70.916,128.498,523.774,147.892,193.269,-361.040,-723.490,21.980
272,33846.188000,268.849,-31.686,54.786,532.410,144.654,174.582,75.960,-954.490,103.980
273,33846.227000,245.127,-5.532,47.813,540.075,143.134,146.126,287.960,-1048.490,99.980
274,33846.260000,234.255,-59.851,49.805,541.960,142.678,124.545,-477.040,-1059.490,29.980
275,33846.302000,277.745,-5.532,30.879,551.543,138.371,100.934,-136.040,-920.490,-0.020
276,33846.345000,256.988,-57.839,2.988,546.648,134.246,92.006,-32.040,-732.490,55.980
277,33846.385000,261.931,-26.656,-16.934,553.422,137.851,76.409,-55.040,-571.490,53.980
278,33846.404000,270.826,-11.568,37.852,556.225,131.644,57.645,240.960,-503.490,-7.020
279,33846.444000,252.046,-44.762,6.973,555.251,133.339,46.893,15.960,-465.490,-59.020
280,33846.487000,244.139,-37.721,-31.875,557.203,136.163,42.057,-84.040,-172.490,-23.020
281,33846.527000,256.000,-29.674,6.973,556.290,141.072,45.106,-207.040,-24.490,14.980
282,33846.561000,268.849,-14.585,14.942,552.399,139.071,44.073,-210.040,54.510,14.980
283,33846.606000,284.664,34.703,-14.942,555.328,139.358,55.853,-485.040,320.510,-3.020
284,33846.640000,350.888,111.151,45.821,549.492,133.714,66.503,-819.040,454.510,-57.020
285,33846.688000,333.097,111.151,59.767,547.637,137.104,89.129,-1131.040,461.510,-269.020
286,33846.728000,256.988,63.874,-58.770,543.045,158.782,106.272,-751.040,485.510,-768.020
287,33846.748000,255.012,-161.446,-413.385,537.503,188.542,94.172,1743.960,-160.490,-936.020
288,33846.788000,262.919,63.874,-295.844,537.603,214.152,23.153,1220.960,-2002.490,-1248.020
289,33846.828000,276.757,-23.639,-258.988,530.948,237.214,-28.325,-1715.040,-3279.490,-1120.020
290,33846.868000,245.127,-91.033,-230.101,501.970,262.023,-122.959,-1013.040,-3615.490,-1217.020
291,33846.908000,178.903,-86.004,-200.218,450.824,294.447,-214.529,-630.040,-3721.490,-830.020
292,33846.946000,132.448,-118.193,-177.307,387.919,308.592,-293.782,-159.040,-3441.490,-344.020
293,33846.994000,127.506,-142.334,-120.529,328.748,302.990,-346.006,194.960,-3026.490,218.980
294,33847.22000,168.031,-107.128,-95.626,288.627,263.899,-385.204,989.960,-2166.490,1000.980
295,33847.42000,160.124,-32.692,-135.471,276.892,253.775,-399.182,694.960,-1154.490,1164.980
296,33847.82000,208.556,-96.063,-115.549,274.646,221.717,-399.899,416.960,-19.490,1304.980
297,33847.127000,345.946,-7.544,-2.988,290.066,211.620,-380.477,314.960,948.510,1124.980
298,33847.168000,363.737,5.532,31.875,321.049,206.873,-345.213,-843.040,1642.510,871.980
299,33847.208000,353.853,-22.633,73.712,359.918,214.176,-294.956,-777.040,2178.510,735.980
300,33847.248000,350.888,38.727,-6.973,399.411,187.378,-251.337,1209.960,2715.510,581.980
301,33847.288000,288.618,51.804,-40.840,415.892,185.229,-223.892,653.960,2391.510,206.980
302,33847.328000,270.826,51.804,-195.237,434.255,175.549,-186.803,-33.040,1609.510,294.980
303,33847.348000,242.162,74.939,-155.393,434.221,170.824,-181.024,269.960,121.510,225.980
304,33847.387000,286.641,32.692,-166.350,443.951,173.205,-165.260,-427.040,483.510,216.980
305,33847.427000,283.676,-65.886,-79.689,446.823,166.782,-149.706,583.960,843.510,88.980
306,33847.466000,335.073,-16.597,8.965,448.749,163.198,-137.033,16.960,687.510,-86.020
307,33847.503000,265.884,-83.992,-24.903,451.686,165.319,-130.115,994.960,404.510,-22.020
308,33847.546000,256.000,-73.933,-71.720,450.629,156.529,-132.273,995.960,399.510,-9.020
309,33847.587000,236.232,-5.532,-86.661,454.473,152.791,-127.445,1032.960,341.510,41.980
310,33847.628000,240.185,-7.544,-33.868,454.432,148.001,-124.609,94.960,156.510,43.980
311,33847.648000,248.093,-32.692,-42.833,456.391,150.889,-126.503,-239.040,-35.490,33.980
312,33847.688000,242.162,-30.680,-34.864,457.345,149.885,-128.484,-165.040,-122.490,84.980
313,33847.728000,242.162,-57.839,-43.829,451.510,147.779,-133.447,-169.040,-240.490,49.980
314,33847.769000,243.151,-44.762,-36.856,452.397,139.978,-135.579,-27.040,-368.490,61.980
315,33847.809000,238.208,-52.809,-34.864,445.671,147.399,-148.177,-19.040,-523.490,74.980
316,33847.854000,237.220,-39.733,-55.782,445.582,143.019,-170.830,392.960,-867.490,45.980
317,33847.889000,249.081,-52.809,-81.681,435.839,139.624,-188.578,35.960,-994.490,22.980
318,33847.935000,243.151,-31.686,-90.646,424.100,131.226,-212.325,-140.040,-1075.490,68.980
319,33847.943000,265.884,-33.697,-132.482,412.538,140.369,-232.740,-45.040,-953.490,48.980
320,33847.983000,261.931,-29.674,-109.572,404.719,134.252,-242.699,-460.040,-761.490,37.980
321,33848.24000,266.873,-31.686,-105.588,403.751,136.875,-255.391,-731.040,-813.490,69.980
322,33848.64000,288.618,-82.986,-72.716,394.229,154.968,-266.778,-832.040,-1058.490,183.980
323,33848.103000,317.282,-33.697,-53.790,381.687,163.109,-288.198,-1485.040,-1172.490,301.980
324,33848.147000,289.606,-37.721,-79.689,369.290,182.318,-291.720,-2403.040,-1168.490,445.980
325,33848.189000,218.440,-36.715,-150.412,349.167,205.981,-309.870,-1321.040,-1497.490,5.980
326,33848.229000,178.903,-70.916,-183.284,343.382,210.520,-321.549,-989.040,-1325.490,-24.020
327,33848.268000,123.552,-69.910,45.821,339.610,221.982,-328.168,-109.040,124.510,41.980
328,33848.284000,88.958,-67.898,-27.891,363.694,209.791,-319.561,810.960,1293.510,166.980
329,33848.324000,147.274,-31.686,-60.763,400.209,179.599,-296.619,1356.960,2507.510,150.980
330,33848.364000,242.162,-36.715,-143.440,441.726,161.601,-250.840,1235.960,2959.510,60.980
331,33848.404000,278.734,2.515,-246.039,482.341,148.620,-197.106,662.960,2649.510,2.980
332,33848.448000,230.301,-29.674,-317.759,503.625,141.794,-163.870,1136.960,1694.510,76.980
333,33848.488000,180.880,56.833,-378.521,510.326,133.252,-158.162,1172.960,608.510,-63.020
334,33848.523000,201.637,-43.756,-256.996,511.249,129.313,-161.189,510.960,-206.490,-68.020
335,33848.577000,201.637,-86.004,-101.603,511.188,122.560,-159.378,1231.960,351.510,-258.020
336,33848.584000,259.954,-88.016,-30.879,518.005,123.942,-143.642,-195.040,841.510,134.980
337,33848.624000,216.463,-35.709,-36.856,516.113,124.333,-125.005,285.960,742.510,30.980
338,33848.664000,310.363,56.833,-0.996,522.915,125.564,-116.137,951.960,451.510,-97.020
339,33848.704000,269.838,-32.692,-33.868,517.060,119.747,-113.337,-287.040,276.510,-40.020
340,33848.743000,246.116,-64.880,-39.844,522.010,129.675,-105.261,-245.040,256.510,-40.020
341,33848.784000,231.290,-64.880,-45.821,523.875,121.107,-98.582,149.960,293.510,-62.020
342,33848.824000,229.313,-46.774,-44.825,523.962,128.097,-89.601,93.960,453.510,-77.020
343,33848.864000,247.104,-10.562,-33.868,521.122,132.190,-78.729,161.960,408.510,-19.020
344,33848.884000,241.174,-30.680,-7.969,523.063,131.389,-71.878,307.960,347.510,3.980
345,33848.924000,253.035,-66.892,-4.981,525.953,129.540,-68.971,770.960,186.510,-15.020
346,33848.964000,264.896,3.521,-12.949,524.976,128.560,-68.995,621.960,234.510,37.980
347,33849.9000,250.069,-38.727,0.000,527.805,119.958,-64.276,246.960,153.510,123.980
348,33849.45000,251.058,-64.880,3.984,524.917,121.828,-66.202,532.960,27.510,12.980
349,33849.84000,258.965,-48.786,-8.965,526.869,123.767,-67.136,693.960,103.510,-58.020
350,33849.124000,247.104,-49.792,-12.949,526.835,119.927,-65.260,609.960,172.510,-54.020
351,33849.167000,255.012,-45.768,4.981,528.777,120.011,-62.312,708.960,268.510,-68.020
352,33849.187000,233.266,-64.880,10.957,528.800,121.996,-60.306,1008.960,282.510,-59.020
353,33849.223000,258.965,-3.521,29.883,525.900,121.989,-59.332,796.960,226.510,-124.020
354,33849.270000,265.884,-24.644,54.786,524.994,127.848,-57.242,466.960,82.510,-204.020
355,33849.304000,265.884,17.603,0.996,525.067,134.708,-54.148,-92.040,107.510,-122.020
356,33849.343000,302.456,-39.733,28.887,527.003,133.864,-49.259,-718.040,211.510,53.980
357,33849.385000,284.664,13.580,8.965,526.964,126.443,-33.734,-891.040,191.510,139.980
358,33849.425000,266.873,-106.122,-23.907,526.958,123.746,-23.987,-2275.040,151.510,456.980
359,33849.465000,249.081,-89.022,-18.926,525.957,118.127,-14.307,-817.040,51.510,433.980
360,33849.485000,211.521,-27.662,3.984,528.797,110.517,-8.586,217.960,346.510,267.980
361,33849.533000,219.429,-45.768,73.712,528.822,110.755,2.207,1061.960,549.510,-27.020
362,33849.565000,228.324,-13.580,110.568,525.987,116.660,7.235,1658.960,431.510,-179.020
363,33849.605000,226.347,48.786,140.451,526.979,116.906,18.030,1324.960,473.510,-191.020
364,33849.645000,237.220,5.532,144.436,524.199,128.615,22.206,779.960,594.510,-297.020
365,33849.685000,233.266,4.527,106.584,521.399,135.727,38.049,785.960,813.510,-356.020
366,33849.725000,223.382,-16.597,78.693,521.561,147.852,59.893,399.960,810.510,-375.020
367,33849.764000,217.452,9.556,98.615,517.816,156.056,81.642,160.960,782.510,-322.020
368,33849.790000,206.579,1.509,81.681,512.179,168.168,105.435,-280.040,778.510,-327.020
369,33849.824000,218.440,-38.727,75.704,509.389,174.504,130.086,371.960,707.510,-260.020
370,33849.865000,207.568,-3.521,30.879,507.536,181.432,137.100,526.960,483.510,-299.020
371,33849.904000,197.683,20.621,-6.973,505.728,192.308,147.145,453.960,176.510,-298.020
372,33849.950000,204.602,-17.603,-48.809,505.829,203.851,142.498,46.960,-300.490,-221.020
373,33849.992000,311.351,-3.521,177.307,510.579,194.254,145.237,-1438.040,-101.490,-175.020
374,33850.25000,219.429,-37.721,59.767,513.290,169.557,168.230,-3444.040,-262.490,-33.020
375,33850.69000,249.081,-127.246,94.630,520.905,156.105,170.890,-1567.040,-498.490,-46.020
376,33850.110000,241.174,-28.668,95.626,523.839,162.606,156.330,432.960,-712.490,114.980
377,33850.129000,272.803,-39.733,53.790,534.303,146.917,144.236,-278.040,-946.490,155.980
378,33850.164000,273.792,-32.692,28.887,541.970,144.533,120.663,-249.040,-1109.490,301.980
379,33850.210000,255.012,-40.739,15.938,548.655,140.241,99.008,-485.040,-1012.490,243.980
380,33850.249000,262.919,-49.792,28.887,554.299,127.310,82.061,-327.040,-661.490,219.980
381,33850.284000,262.919,-29.674,-0.996,557.089,118.342,70.100,136.960,-511.490,159.980
382,33850.332000,263.907,-11.568,5.977,555.193,123.975,62.376,-162.040,-354.490,117.980
383,33850.372000,250.069,-52.809,11.953,556.137,122.885,56.470,-244.040,-296.490,83.980
384,33850.405000,261.931,-39.733,41.837,557.983,114.123,54.318,-323.040,-257.490,74.980
385,33850.425000,251.058,-48.786,8.965,559.920,115.048,51.400,-366.040,-189.490,112.980
386,33850.468000,249.081,-41.745,4.981,560.806,107.225,48.287,-9.040,-167.490,101.980
387,33850.505000,264.896,-26.656,23.907,561.802,111.032,44.451,-31.040,-114.490,110.980
388,33850.545000,288.618,-1.509,29.883,559.841,108.122,45.363,-117.040,-71.490,100.980
389,33850.585000,329.143,52.809,45.821,562.753,109.121,45.391,-433.040,3.510,8.980
390,33850.625000,365.714,90.028,92.638,560.838,109.296,54.217,-1168.040,36.510,-131.020
391,33850.665000,265.884,37.721,-62.755,557.074,119.960,55.426,452.960,-4.490,-727.020
392,33850.705000,235.243,-49.792,-332.700,551.559,153.495,38.507,2125.960,-248.490,-1059.020
393,33850.725000,242.162,34.703,-362.584,546.923,185.314,-12.772,941.960,-1813.490,-1212.020
394,33850.767000,232.278,13.580,-293.852,529.693,217.723,-75.832,-1532.040,-2631.490,-1218.020
395,33850.810000,229.313,-105.116,-262.973,497.034,259.258,-158.335,-1237.040,-3143.490,-1321.020
396,33850.850000,199.660,-109.139,-238.070,462.273,277.171,-210.966,-987.040,-3602.490,-1043.020
397,33850.890000,170.008,-155.411,-181.292,397.540,300.250,-280.217,-954.040,-3694.490,-506.020
398,33850.930000,146.286,-164.464,-128.498,332.661,305.207,-335.161,-377.040,-3318.490,324.980
399,33850.970000,139.367,-168.487,-99.611,287.054,299.047,-374.620,1.960,-2797.490,903.980
400,33851.16000,168.031,-154.405,-60.763,261.538,267.151,-401.860,913.960,-1626.490,1489.980
401,33851.32000,168.031,-67.898,-116.545,265.010,227.276,-407.641,718.960,-507.490,1767.980
402,33851.72000,214.486,-72.927,-95.626,278.551,224.732,-396.882,-808.040,533.510,1782.980
403,33851.111000,286.641,-33.697,-76.700,313.382,218.060,-362.633,-1285.040,1239.510,1659.980
404,33851.152000,382.517,-55.827,-25.899,348.374,224.375,-311.425,-2142.040,1653.510,1693.980
405,33851.190000,330.131,-48.786,11.953,390.113,225.233,-246.594,-1887.040,1981.510,1603.980
406,33851.230000,335.073,-12.574,9.961,424.843,203.502,-191.106,-377.040,2630.510,1266.980
407,33851.270000,361.761,33.697,-36.856,449.011,190.361,-137.410,291.960,2766.510,445.980
408,33851.313000,273.792,55.827,-260.981,457.774,190.985,-112.861,636.960,1758.510,259.980
409,33851.333000,262.919,68.904,3.984,457.728,183.498,-100.279,-106.040,405.510,195.980
410,33851.373000,270.826,36.715,-92.638,461.620,182.867,-86.555,110.960,439.510,189.980
411,33851.411000,264.896,3.521,-58.770,463.510,178.053,-85.677,743.960,284.510,-0.020
412,33851.453000,256.000,-61.862,-52.794,463.449,172.185,-87.769,1033.960,234.510,81.980
413,33851.494000,237.220,-53.815,-80.685,467.257,164.585,-82.046,375.960,255.510,107.980
414,33851.527000,260.942,-96.063,-35.860,461.415,161.530,-86.049,1057.960,205.510,24.980
415,33851.567000,277.745,94.051,-100.607,459.497,164.315,-90.894,1019.960,-12.490,-171.020
416,33851.606000,252.046,-42.750,-46.817,459.528,168.134,-93.751,-57.040,-94.490,-95.020
417,33851.652000,230.301,-58.845,-49.805,462.447,170.967,-98.586,-16.040,-330.490,-160.020
418,33851.672000,230.301,-44.762,-67.735,452.766,174.325,-118.145,460.960,-576.490,-219.020
419,33851.711000,234.255,-9.556,-99.611,443.969,168.976,-136.915,754.960,-666.490,-251.020
420,33851.752000,235.243,-13.580,-95.626,442.052,174.416,-153.469,607.960,-604.490,-198.020
421,33851.796000,240.185,-14.585,-94.630,434.257,171.169,-165.326,470.960,-561.490,-125.020
422,33851.836000,239.197,-31.686,-99.611,434.245,172.809,-179.018,173.960,-539.490,-48.020
423,33851.873000,253.035,-20.621,-100.607,427.411,169.506,-193.816,6.960,-537.490,-28.020
424,33851.911000,237.220,-12.574,-119.533,421.572,168.242,-204.644,-20.040,-552.490,-9.020
425,33851.953000,245.127,-55.827,-106.584,417.736,173.813,-214.335,-39.040,-577.490,-61.020
426,33851.973000,245.127,-53.815,-101.603,408.988,172.456,-228.113,-150.040,-654.490,-128.020
427,33852.18000,242.162,-26.656,-118.537,408.003,173.158,-239.867,-228.040,-752.490,-144.020
428,33852.53000,250.069,-19.615,-121.525,396.478,184.415,-252.390,-406.040,-799.490,-86.020
429,33852.93000,275.768,-45.768,-97.619,390.675,187.012,-264.113,-839.040,-891.490,-15.020
430,33852.132000,296.525,-59.851,-96.623,376.286,201.261,-271.672,-1184.040,-969.490,37.980
431,33852.178000,202.625,-22.633,-172.327,372.723,232.334,-269.028,-1970.040,-907.490,-55.020
432,33852.213000,170.996,-7.544,-207.191,364.219,254.450,-274.439,-1437.040,-1009.490,-222.020
433,33852.252000,183.846,-77.957,-34.864,359.366,253.367,-277.416,-474.040,-231.490,50.980
434,33852.277000,153.205,-93.045,13.946,372.842,247.566,-282.419,1815.960,896.510,335.980
435,33852.311000,189.776,43.756,-55.782,406.268,201.467,-275.527,1938.960,2059.510,526.980
436,33852.350000,243.151,-22.633,-115.549,441.979,185.160,-238.548,503.960,2474.510,275.980
437,33852.392000,256.988,-13.580,-205.198,478.664,167.158,-190.818,875.960,2446.510,355.980
438,33852.428000,225.359,-26.656,-269.946,501.764,149.520,-164.683,1623.960,1523.510,47.980
439,33852.469000,199.660,-8.550,-255.004,510.337,133.359,-153.256,1572.960,721.510,-54.020
440,33852.512000,173.961,-33.697,-288.872,513.199,128.598,-150.413,978.960,196.510,42.980
441,33852.552000,222.394,42.750,-86.661,511.105,114.728,-162.494,1789.960,-427.490,-84.020
442,33852.572000,245.127,19.615,-131.486,510.094,112.540,-173.332,959.960,-368.490,-134.020
443,33852.612000,267.861,-39.733,-85.665,508.159,115.153,-186.026,777.960,-283.490,-210.020
444,33852.648000,243.151,-56.833,-106.584,502.327,113.953,-193.911,406.960,-198.490,-86.020
445,33852.688000,244.139,-72.927,-101.603,500.286,104.118,-199.036,202.960,-65.490,-112.020
446,33852.728000,246.116,-20.621,-129.494,498.426,110.981,-194.965,121.960,325.510,-309.020
447,33852.768000,250.069,-29.674,-105.588,501.428,118.129,-180.090,213.960,586.510,-317.020
448,33852.808000,258.965,-9.556,-88.654,507.389,131.131,-165.079,230.960,780.510,-302.020
449,33852.848000,238.208,-13.580,-70.724,509.348,129.618,-146.476,101.960,803.510,-153.020
450,33852.868000,242.162,-21.627,-10.957,516.156,129.144,-126.859,71.960,755.510,20.980
451,33852.908000,251.058,-57.839,12.949,515.173,125.467,-117.136,46.960,492.510,110.980
452,33852.948000,252.046,-18.609,-16.934,518.084,124.697,-109.302,183.960,283.510,108.980
453,33852.988000,242.162,-34.703,-16.934,517.173,130.513,-109.175,38.960,51.510,71.980
454,33853.28000,249.081,-47.780,-10.957,521.008,127.573,-112.174,243.960,-161.490,2.980
455,33853.70000,247.104,-31.686,-42.833,520.973,124.596,-115.182,-40.040,-223.490,1.980
456,33853.115000,244.139,-39.733,-48.809,520.954,123.539,-119.128,118.960,-105.490,25.980
457,33853.158000,249.081,-42.750,-66.739,519.072,130.186,-124.869,347.960,-39.490,-23.020
458,33853.187000,254.023,-41.745,-54.786,520.971,125.459,-120.066,206.960,181.510,-8.020
459,33853.209000,249.081,-18.609,-25.899,522.877,121.680,-116.223,227.960,253.510,84.980
460,33853.248000,249.081,-49.792,-42.833,520.927,118.878,-110.406,403.960,309.510,-15.020
461,33853.289000,253.035,-43.756,-38.848,525.799,120.134,-99.580,134.960,425.510,-10.020
462,33853.329000,232.278,-43.756,-4.981,523.853,115.606,-83.994,-202.040,632.510,32.980
463,33853.368000,242.162,-43.756,-6.973,527.814,123.561,-76.945,-135.040,260.510,27.980
464,33853.408000,255.012,-51.804,11.953,531.632,118.701,-79.006,16.960,22.510,28.980
465,33853.446000,256.000,-38.727,42.833,527.781,120.605,-78.972,13.960,-297.490,-58.020
466,33853.489000,279.722,-39.733,59.767,521.980,124.109,-93.616,-725.040,-885.490,26.980
467,33853.508000,382.517,-64.880,27.891,524.781,117.880,-113.362,121.960,-805.490,48.980
468,33853.548000,317.282,-30.680,0.996,516.099,123.319,-126.989,-510.040,-887.490,-6.020
469,33853.593000,190.764,-37.721,18.926,518.159,136.865,-129.626,-549.040,-429.490,-76.020
470,33853.634000,164.077,-37.721,78.693,524.934,132.551,-108.133,552.960,855.510,-3.020
471,33853.674000,207.568,-35.709,61.759,534.654,126.928,-59.204,1876.960,2120.510,-1.020
472,33853.708000,258.965,-12.574,35.860,536.663,125.889,-19.016,2156.960,2497.510,-144.020
473,33853.749000,263.907,-38.727,-16.934,533.039,138.775,39.122,1674.960,2204.510,-358.020
474,33853.794000,237.220,-31.686,-39.844,523.632,156.221,86.561,938.960,1748.510,-340.020
475,33853.814000,202.625,-21.627,-48.809,519.888,161.792,121.000,-282.040,1036.510,-17.020
476,33853.856000,192.741,-28.668,-54.786,515.051,157.344,141.485,-597.040,384.510,-20.020
477,33853.893000,263.907,-66.892,206.195,517.781,138.105,147.928,-599.040,134.510,29.980
478,33853.929000,230.301,-70.916,74.708,516.794,134.385,155.689,-363.040,59.510,107.980
479,33853.969000,260.942,5.532,112.560,517.778,136.315,154.753,-253.040,-155.490,127.980
480,33854.9000,256.988,-17.603,81.681,517.742,132.453,155.648,-882.040,-349.490,88.980
481,33854.49000,282.687,-102.098,17.930,524.400,122.616,146.618,-151.040,-569.490,369.980
482,33854.93000,250.069,-32.692,48.809,532.006,111.732,133.644,-1053.040,-618.490,118.980
483,33854.109000,239.197,-35.709,63.751,530.998,109.565,123.787,-162.040,-598.490,88.980
484,33854.166000,236.232,-48.786,58.770,532.842,102.550,112.848,-476.040,-647.490,95.980
485,33854.194000,244.139,-61.862,63.751,537.664,103.331,102.088,-371.040,-702.490,12.980
486,33854.228000,257.977,-41.745,31.875,541.531,107.749,80.620,-259.040,-767.490,28.980
487,33854.275000,266.873,-32.692,-6.973,544.374,104.562,66.826,-209.040,-615.490,46.980
488,33854.310000,258.965,-58.845,-13.946,542.320,94.597,55.813,-220.040,-453.490,34.980
489,33854.354000,245.127,-54.821,-23.907,545.289,102.306,52.067,0.960,-173.490,18.980
490,33854.388000,238.208,-75.945,5.977,544.175,87.691,49.779,1.960,-66.490,37.980
491,33854.414000,243.151,-54.821,22.911,543.324,100.238,47.114,92.960,-46.490,32.980
492,33854.449000,259.954,-37.721,12.949,541.382,99.270,48.069,106.960,-39.490,29.980
493,33854.492000,284.664,-10.562,22.911,543.236,91.479,45.939,-196.040,-12.490,80.980
494,33854.530000,367.691,93.045,84.669,540.350,92.486,48.897,-637.040,-53.490,44.980
495,33854.575000,329.143,96.063,74.708,545.202,94.432,46.989,-1163.040,-311.490,-214.020
496,33854.609000,294.548,125.234,-54.786,545.433,118.660,45.566,589.960,-107.490,-780.020
497,33854.648000,242.162,-34.703,-139.455,538.834,137.860,39.114,1560.960,-147.490,-940.020
498,33854.688000,262.919,112.157,-294.848,537.148,170.161,8.446,328.960,-1284.490,-1453.020
499,33854.708000,241.174,-26.656,-236.078,524.906,213.749,-33.761,-1514.040,-1869.490,-1686.020
500,33854.749000,204.602,-54.821,-253.012,504.891,257.823,-94.607,-143.040,-2430.490,-1948.020
501,33854.789000,170.996,-68.904,-238.070,469.309,296.503,-173.257,-36.040,-2714.490,-1713.020
502,33854.834000,150.239,-140.322,-198.226,418.139,321.656,-242.433,-594.040,-2928.490,-1011.020
503,33854.870000,167.042,-160.440,-170.335,387.197,331.193,-280.533,-687.040,-2847.490,-262.020
504,33854.914000,177.915,-165.470,-161.370,340.672,329.899,-318.905,-849.040,-2473.490,565.980
505,33854.950000,193.730,-157.422,-134.475,305.776,327.143,-340.615,-800.040,-2029.490,990.980
506,33854.990000,187.799,-172.511,-92.638,290.202,320.801,-357.459,-97.040,-1362.490,1468.980
507,33855.34000,226.347,-126.240,-136.467,295.639,283.878,-362.190,423.960,-537.490,1785.980
508,33855.54000,288.618,-134.287,-125.510,310.854,255.960,-358.855,-166.040,192.510,1965.980
509,33855.94000,317.282,-61.862,-87.658,333.959,238.365,-330.758,-951.040,437.510,2216.980
510,33855.134000,327.166,-89.022,-66.739,359.105,232.375,-305.341,-1698.040,537.510,2338.980
511,33855.188000,314.317,-6.538,60.763,388.957,211.093,-271.427,-742.040,1196.510,1848.980
512,33855.209000,341.992,106.122,93.634,418.866,194.751,-233.481,-217.040,1886.510,1189.980
513,33855.249000,368.680,76.951,52.794,447.850,179.693,-180.798,511.960,2629.510,519.980
514,33855.289000,365.714,102.098,-44.825,468.131,165.458,-131.058,525.960,2575.510,233.980
515,33855.329000,229.313,45.768,-492.078,474.894,161.036,-114.470,711.960,614.510,73.980
516,33855.349000,199.660,-101.092,18.926,469.062,160.721,-126.258,899.960,-204.490,-326.020
517,33855.389000,224.371,-228.841,-212.171,470.891,150.038,-127.472,1425.960,231.510,211.980
518,33855.429000,215.475,-59.851,-48.809,471.853,148.235,-121.626,324.960,225.510,180.980
519,33855.469000,338.039,82.986,-72.716,468.942,149.005,-129.460,1740.960,6.510,-394.020
520,33855.509000,227.336,-73.933,-80.685,471.695,135.269,-137.604,925.960,-45.490,-159.020
521,33855.553000,244.139,-49.792,-131.486,465.933,140.908,-143.375,1004.960,48.510,-291.020
522,33855.593000,253.035,67.898,-78.693,464.982,141.934,-140.412,227.960,273.510,-242.020
523,33855.633000,243.151,26.656,-78.693,468.961,151.832,-133.320,219.960,188.510,-59.020
524,33855.653000,217.452,-52.809,-50.802,470.919,152.951,-127.407,-450.040,139.510,-11.020
525,33855.692000,230.301,-74.939,-32.872,469.910,149.015,-129.458,-100.040,-159.490,-62.020
526,33855.738000,234.255,-31.686,-59.767,466.083,155.558,-139.127,172.960,-384.490,-99.020
527,33855.769000,236.232,-17.603,-70.724,462.121,148.465,-151.061,241.960,-470.490,-65.020
528,33855.809000,247.104,-26.656,-75.704,456.367,156.823,-165.597,388.960,-516.490,-26.020
529,33855.849000,242.162,-39.733,-73.712,457.286,153.725,-174.490,168.960,-590.490,35.980
530,33855.889000,238.208,-45.768,-74.708,449.454,147.480,-190.336,66.960,-664.490,25.980
531,33855.929000,244.139,-27.662,-101.603,444.590,148.058,-206.024,-70.040,-748.490,34.980
532,33855.949000,253.035,-28.668,-108.576,432.985,151.505,-220.682,-69.040,-757.490,-35.020
533,33855.997000,257.977,-0.503,-98.615,429.115,154.984,-237.284,-629.040,-778.490,-53.020
534,33856.30000,304.432,-73.933,-77.696,414.636,162.200,-255.787,-741.040,-1139.490,-29.020
535,33856.70000,329.143,-35.709,-63.751,409.755,160.858,-270.537,-996.040,-1540.490,149.980
536,33856.109000,350.888,-16.597,-67.735,387.595,176.477,-300.637,-1313.040,-1777.490,165.980
537,33856.149000,272.803,-47.780,-109.572,376.231,202.491,-304.007,-2738.040,-1285.490,77.980
538,33856.189000,142.332,-73.933,-212.171,362.950,232.176,-316.124,-1104.040,-1303.490,-288.020
539,33856.229000,125.529,-24.644,-9.961,358.149,237.760,-324.836,-305.040,-446.490,-52.020
540,33856.256000,43.490,3.521,-42.833,372.536,225.258,-326.064,719.960,546.510,-90.020
541,33856.295000,53.375,41.745,-113.556,388.748,200.284,-321.681,1818.960,1521.510,258.980
542,33856.336000,157.158,56.833,-179.300,430.159,175.102,-293.714,1095.960,2340.510,180.980
543,33856.376000,196.695,0.503,-205.198,464.911,157.987,-248.910,704.960,2409.510,-152.020
544,33856.418000,243.151,-107.128,-396.451,495.840,147.436,-212.794,1448.960,1655.510,85.980
545,33856.450000,198.672,-19.615,-446.257,498.675,139.784,-209.036,213.960,23.510,42.980
546,33856.495000,164.077,-67.898,-40.840,498.673,138.878,-206.114,-429.040,271.510,-22.020
547,33856.540000,205.591,-14.585,-176.311,499.663,140.872,-204.106,1141.960,259.510,137.980
548,33856.575000,247.104,-94.051,-95.626,503.455,131.352,-197.445,293.960,421.510,-57.020
549,33856.595000,253.035,-7.544,-115.549,500.596,134.387,-190.519,1282.960,652.510,-272.020
550,33856.631000,279.722,8.550,-100.607,510.270,131.828,-178.787,780.960,826.510,-152.020
551,33856.671000,247.104,-27.662,-84.669,517.079,131.376,-158.189,351.960,698.510,-29.020
552,33856.719000,229.313,-86.004,-80.685,517.008,121.883,-148.593,413.960,681.510,-4.020
553,33856.756000,270.826,25.650,-50.802,521.977,131.121,-127.784,130.960,643.510,-79.020
554,33856.795000,244.139,12.574,-56.778,520.987,126.494,-117.101,-248.040,746.510,81.980
555,33856.830000,226.347,-28.668,-49.805,526.883,130.952,-93.454,-1154.040,799.510,192.980
556,33856.870000,236.232,-62.868,-28.887,531.744,129.467,-74.844,-609.040,539.510,116.980
557,33856.891000,231.290,-66.892,-35.860,534.699,131.761,-60.077,-282.040,434.510,72.980
558,33856.931000,249.081,-43.756,-21.914,535.649,127.196,-47.428,-14.040,438.510,78.980
559,33856.971000,244.139,-34.703,-21.914,531.778,125.389,-39.631,51.960,447.510,100.980
560,33857.10000,246.116,-55.827,-9.961,534.675,122.721,-29.877,149.960,448.510,89.980
561,33857.56000,259.954,-15.591,-8.965,535.681,124.866,-21.002,193.960,422.510,134.980
562,33857.96000,253.035,-34.703,4.981,539.519,119.316,-10.329,-12.040,308.510,151.980
563,33857.139000,242.162,-42.750,12.949,540.354,104.849,-6.726,23.960,191.510,150.980
564,33857.173000,247.104,-54.821,-9.961,537.506,109.739,-3.682,136.960,135.510,150.980
565,33857.193000,247.104,-44.762,14.942,541.354,106.929,-0.794,-14.040,79.510,153.980
566,33857.233000,234.255,-91.033,9.961,542.268,102.020,-3.843,45.960,-120.490,167.980
567,33857.273000,244.139,-90.028,9.961,543.202,99.073,-5.868,365.960,-76.490,76.980
568,33857.311000,254.023,-40.739,9.961,541.266,99.917,-10.756,916.960,-127.490,-73.020
569,33857.356000,257.977,-26.656,-1.992,543.180,99.742,-19.582,620.960,-247.490,-63.020
570,33857.393000,262.919,-18.609,19.922,536.421,103.322,-30.304,278.960,-434.490,-124.020
571,33857.433000,267.861,-48.786,19.922,541.300,110.813,-44.838,21.960,-576.490,-174.020
572,33857.478000,352.865,-62.868,52.794,537.439,115.263,-61.418,488.960,-672.490,-292.020
573,33857.491000,280.710,-66.892,-10.957,533.526,113.046,-72.263,782.960,-587.490,-290.020
574,33857.533000,235.243,-70.916,41.837,531.679,124.440,-82.801,742.960,-396.490,-227.020
575,33857.578000,189.776,-65.886,62.755,531.728,127.547,-73.906,1462.960,878.510,-154.020
576,33857.612000,221.405,-2.515,83.673,539.531,125.594,-33.726,1831.960,1687.510,-257.020
577,33857.658000,243.151,-19.615,73.712,534.915,137.348,17.520,1498.960,2217.510,-389.020
578,33857.696000,240.185,-52.809,-4.981,535.199,155.924,67.946,1374.960,2045.510,-298.020
579,33857.738000,227.336,12.574,-9.961,520.842,166.073,94.619,658.960,1587.510,-260.020
580,33857.776000,217.452,-3.521,-51.798,512.227,166.873,134.826,-188.040,1277.510,-113.020
581,33857.819000,199.660,-32.692,-46.817,509.330,162.486,157.278,-94.040,343.510,-61.020
582,33857.838000,188.788,-13.580,-63.751,503.608,171.146,156.477,127.960,-371.490,-115.020
583,33857.872000,249.081,1.509,267.953,507.422,162.726,169.047,-621.040,355.510,143.980
584,33857.918000,264.896,-56.833,145.432,510.286,157.987,172.870,-568.040,-46.490,70.980
585,33857.952000,235.243,-1.509,109.572,507.308,150.191,172.691,-552.040,-285.490,52.980
586,33858.7000,258.965,-67.898,81.681,513.028,142.395,168.607,-967.040,-580.490,32.980
587,33858.38000,251.058,-28.668,70.724,516.881,143.145,156.864,198.960,-693.490,260.980
588,33858.78000,236.232,-48.786,83.673,523.633,144.786,140.244,41.960,-728.490,172.980
589,33858.118000,218.440,-95.057,66.739,529.322,136.687,122.424,116.960,-770.490,135.980
590,33858.135000,253.035,-20.621,33.868,532.170,135.313,102.786,245.960,-771.490,62.980
591,33858.175000,254.023,-11.568,59.767,532.182,141.591,79.390,42.960,-922.490,-54.020
592,33858.216000,255.012,-34.703,17.930,533.116,141.277,64.675,157.960,-929.490,-67.020
593,33858.258000,262.919,-62.868,14.942,534.072,145.580,39.275,273.960,-769.490,-32.020
594,33858.299000,261.931,-0.503,-10.957,535.039,148.222,26.587,427.960,-481.490,-6.020
595,33858.331000,260.942,-11.568,-21.914,535.030,149.020,18.760,269.960,-193.490,28.980
596,33858.371000,260.942,-33.697,14.942,535.882,137.358,17.522,-61.040,-69.490,51.980
597,33858.413000,259.954,-23.639,7.969,533.074,147.038,17.731,-159.040,-11.490,54.980
598,33858.431000,266.873,0.503,-4.981,532.083,144.159,19.626,-264.040,76.510,55.980
599,33858.471000,314.317,-25.650,69.728,534.001,141.373,24.472,-435.040,89.510,20.980
600,33858.513000,370.656,73.933,95.626,531.070,137.548,28.303,-821.040,30.510,-53.020
601,33858.554000,331.120,97.069,30.879,529.263,148.446,39.329,-1519.040,139.510,-197.020
602,33858.594000,276.757,12.574,-25.899,526.398,152.301,39.408,-327.040,-316.490,-751.020
603,33858.633000,330.131,50.798,-281.899,517.045,195.788,-8.679,1613.960,-1607.490,-1130.020
604,33858.674000,372.633,39.733,-263.969,502.644,223.112,-83.614,627.960,-2702.490,-1223.020
605,33858.714000,310.363,-28.668,-234.086,481.540,252.807,-135.955,-920.040,-3121.490,-1559.020
606,33858.734000,163.089,-87.010,-223.128,431.495,293.568,-201.841,-1041.040,-3444.490,-1335.020
607,33858.773000,115.645,-84.998,-175.315,374.440,310.855,-273.166,-615.040,-3556.490,-949.020
608,33858.812000,89.946,-89.022,-130.490,306.724,324.326,-336.753,32.960,-3544.490,-395.020
609,33858.859000,47.444,-111.151,-57.774,247.532,316.761,-390.001,495.960,-3196.490,132.980
610,33858.908000,8.896,-110.145,-33.868,204.632,290.263,-428.925,697.960,-2501.490,906.980
611,33858.938000,32.618,-87.010,-50.802,182.175,273.110,-448.967,718.960,-1829.490,1310.980
612,33858.974000,59.305,-75.945,-91.642,171.250,247.397,-466.232,139.960,-839.490,1583.980
613,33859.18000,113.668,-112.157,-140.451,171.003,222.133,-467.773,236.960,-83.490,1769.980
614,33859.58000,171.985,-77.957,-203.206,197.913,202.203,-459.333,284.960,835.510,1980.980
615,33859.78000,245.127,-52.809,-187.268,238.349,178.694,-443.099,137.960,1531.510,1908.980
616,33859.118000,332.108,-76.951,-137.463,284.626,155.608,-410.171,-361.040,1895.510,1804.980
617,33859.158000,333.097,-16.597,-163.362,334.126,162.022,-360.891,-1153.040,2485.510,1420.980
618,33859.204000,401.297,-71.921,-100.607,367.147,167.973,-325.386,-1948.040,2474.510,1173.980
619,33859.239000,343.969,-102.098,-86.661,403.197,181.331,-263.232,-2156.040,2292.510,964.980
620,33859.299000,334.085,50.798,-87.658,436.227,182.968,-203.305,-1607.040,2174.510,1095.980
621,33859.316000,284.664,27.662,-123.518,455.660,180.438,-150.365,-1204.040,1644.510,545.980
622,33859.358000,236.232,77.957,-200.218,462.448,178.022,-130.791,275.960,893.510,-29.020
623,33859.378000,207.568,32.692,-137.463,459.568,180.842,-133.676,1813.960,411.510,-514.020
624,33859.413000,227.336,-67.898,-142.444,455.597,171.915,-140.747,2064.960,405.510,-325.020
625,33859.453000,234.255,-3.521,-97.619,457.499,168.094,-138.867,1035.960,447.510,-77.020
626,33859.493000,254.023,-1.509,-69.728,461.485,177.171,-124.928,-161.040,510.510,-0.020
627,33859.533000,296.525,-15.591,-34.864,462.381,167.688,-115.330,579.960,558.510,27.980
628,33859.573000,247.104,-79.969,-31.875,463.336,166.705,-116.330,718.960,199.510,-11.020
629,33859.614000,267.861,60.857,-57.774,464.323,168.656,-116.285,696.960,125.510,-130.020
630,33859.654000,274.780,31.686,-57.774,461.439,170.570,-116.248,177.960,-208.490,-103.020
631,33859.674000,244.139,-48.786,-64.747,458.545,174.144,-128.924,-12.040,-394.490,-143.020
632,33859.714000,233.266,-57.839,-77.696,456.607,175.851,-138.697,93.960,-421.490,-155.020
633,33859.754000,226.347,5.532,-95.626,447.891,176.565,-146.544,165.960,-361.490,-120.020
634,33859.794000,227.336,-18.609,-87.658,452.652,171.477,-159.396,216.960,-337.490,-67.020
635,33859.835000,225.359,-29.674,-91.642,448.795,174.201,-166.208,34.960,-319.490,-10.020
636,33859.879000,237.220,-25.650,-76.700,443.968,176.894,-174.004,-27.040,-393.490,-5.020
637,33859.919000,250.069,-15.591,-78.693,440.104,178.669,-179.857,-125.040,-572.490,-14.020
638,33859.960000,256.000,-65.886,-89.650,432.319,177.277,-195.595,61.960,-729.490,-79.020
639,33859.973000,267.861,-30.680,-99.611,426.471,176.811,-214.250,39.960,-864.490,-119.020
640,33860.14000,300.479,13.580,-89.650,416.783,179.219,-232.849,-262.040,-1023.490,-103.020
641,33860.54000,337.050,-3.521,-65.743,404.274,191.200,-256.146,-840.040,-1218.490,8.980
642,33860.94000,319.259,46.774,-43.829,392.732,200.537,-267.731,-1636.040,-1392.490,58.980
643,33860.134000,236.232,-69.910,-150.412,388.099,222.690,-273.133,-2177.040,-1276.490,42.980
644,33860.174000,124.541,-40.739,-209.183,372.781,241.698,-284.511,-958.040,-1159.490,-282.020
645,33860.216000,109.714,-35.709,-232.093,357.376,251.946,-297.065,-175.040,-931.490,-219.020
646,33860.260000,91.923,-22.633,-10.957,363.058,242.898,-313.925,1296.960,63.510,-292.020
647,33860.276000,91.923,-49.792,-65.743,378.271,216.728,-319.377,1883.960,970.510,-110.020
648,33860.320000,113.668,39.733,-115.549,405.112,186.442,-296.457,1089.960,1848.510,51.980
649,33860.368000,163.089,-0.503,-166.350,434.103,179.368,-277.920,625.960,2170.510,8.980
650,33860.394000,204.602,-19.615,-223.128,462.135,167.969,-234.965,1008.960,2211.510,59.980
651,33860.440000,208.556,-21.627,-476.140,487.287,162.044,-206.604,1077.960,1279.510,10.980
652,33860.480000,168.031,51.804,-21.914,486.212,152.196,-212.709,720.960,-75.490,15.980
653,33860.520000,282.687,7.544,-145.432,487.068,139.692,-208.081,768.960,343.510,154.980
654,33860.565000,256.988,10.562,-97.619,492.837,135.002,-203.270,1329.960,643.510,-111.020
655,33860.575000,234.255,8.550,-115.549,497.607,125.600,-191.701,994.960,767.510,32.980
656,33860.615000,226.347,-71.921,-108.576,499.552,123.957,-178.984,508.960,882.510,101.980
657,33860.655000,321.236,29.674,-41.837,509.227,119.650,-158.466,196.960,825.510,10.980
658,33860.695000,257.977,-30.680,-46.817,512.088,113.120,-147.817,287.960,565.510,-39.020
659,33860.735000,235.243,-26.656,-58.770,516.038,118.335,-132.983,-232.040,504.510,-31.020
660,33860.775000,240.185,0.503,-48.809,514.222,127.378,-118.077,-556.040,462.510,27.980
661,33860.815000,236.232,-58.845,-23.907,520.049,126.765,-104.349,-562.040,465.510,126.980
662,33860.855000,244.139,-50.798,-38.848,521.999,126.051,-93.573,-401.040,430.510,140.980
663,33860.896000,242.162,-46.774,-31.875,523.926,123.351,-84.803,-152.040,270.510,105.980
664,33860.918000,252.046,-48.786,-30.879,525.810,116.725,-78.082,-8.040,230.510,90.980
665,33860.960000,247.104,-45.768,-35.860,524.861,117.772,-74.138,29.960,260.510,116.980
666,33860.998000,247.104,-37.721,-22.911,524.790,109.164,-68.445,-49.040,230.510,138.980
667,33861.40000,245.127,-43.756,-7.969,525.766,109.260,-64.518,-133.040,125.510,165.980
668,33861.83000,249.081,-51.804,-17.930,532.559,110.404,-59.575,-51.040,67.510,183.980
669,33861.115000,238.208,-70.916,-12.949,530.528,100.655,-60.776,-12.040,7.510,147.980
670,33861.156000,246.116,-80.974,-6.973,529.520,96.741,-61.846,185.960,-113.490,98.980
671,33861.194000,243.151,-39.733,-33.868,527.593,98.556,-66.713,139.960,-172.490,92.980
672,33861.215000,253.035,-76.951,4.981,532.389,96.446,-76.556,232.960,-271.490,90.980
673,33861.256000,258.965,-83.992,-19.922,527.423,84.597,-83.695,594.960,-298.490,23.980
674,33861.301000,276.757,-12.574,7.969,527.507,96.852,-100.094,348.960,-637.490,-113.020
675,33861.341000,338.039,-17.603,25.899,524.541,93.566,-115.863,243.960,-1010.490,-349.020
676,33861.383000,363.737,-76.951,23.907,516.795,98.712,-143.224,1187.960,-937.490,-351.020
677,33861.421000,286.641,-26.656,-44.825,517.769,103.187,-160.775,545.960,-667.490,-370.020
678,33861.456000,215.475,-108.134,-102.599,515.955,117.537,-169.286,-89.040,-627.490,-534.020
679,33861.501000,135.413,-72.927,75.704,513.021,115.438,-175.223,1088.960,-97.490,-467.020
680,33861.521000,113.668,-55.827,97.619,520.863,120.022,-146.665,1547.960,1298.510,-373.020
681,33861.561000,187.799,15.591,70.724,528.725,123.916,-105.374,1326.960,2641.510,-832.020
682,33861.603000,306.409,-1.509,8.965,536.843,146.990,-30.315,1533.960,2840.510,-926.020
683,33861.640000,292.571,-64.880,-49.805,530.467,174.496,32.064,1906.960,2367.510,-798.020
684,33861.681000,236.232,-2.515,-87.658,521.090,196.623,71.762,1631.960,1796.510,-562.020
685,33861.723000,221.405,29.674,-100.607,510.555,200.187,106.142,86.960,1094.510,-86.020
686,33861.756000,220.417,-72.927,-82.677,510.683,209.335,124.978,-427.040,386.510,-277.020
687,33861.800000,332.108,-41.745,344.654,508.652,196.069,140.370,-1539.040,340.510,84.980
688,33861.851000,235.243,-101.092,123.518,511.533,188.848,163.751,-1657.040,-49.490,-16.020
689,33861.867000,238.208,-42.750,103.595,512.436,182.083,164.584,-166.040,-287.490,94.980
690,33861.900000,268.849,-66.892,51.798,517.162,173.133,152.627,-33.040,-655.490,230.980
691,33861.939000,248.093,34.703,47.813,521.966,174.626,130.115,677.960,-688.490,249.980
692,33861.979000,242.162,-69.910,69.728,522.832,167.495,114.268,-403.040,-727.490,210.980
693,33862.19000,235.243,-36.715,43.829,532.447,165.259,96.587,308.960,-639.490,231.980
694,33862.59000,257.977,-18.609,8.965,537.237,161.336,92.587,22.960,-566.490,167.980
695,33862.101000,261.931,0.503,32.872,535.219,156.118,76.777,-141.040,-515.490,60.980
696,33862.115000,256.988,-42.750,51.798,535.192,155.859,65.003,-88.040,-544.490,-2.020
697,33862.155000,241.174,-64.880,16.934,536.150,158.414,48.390,95.960,-574.490,-34.020
698,33862.196000,258.965,3.521,43.829,534.174,156.238,38.531,314.960,-496.490,-50.020
699,33862.239000,257.977,-23.639,21.914,538.021,156.945,24.826,254.960,-430.490,23.980
700,33862.283000,256.000,-31.686,-0.996,540.995,165.581,19.140,151.960,-288.490,26.980
701,33862.315000,257.977,-1.509,-9.961,538.955,155.746,14.014,-121.040,-141.490,61.980
702,33862.356000,289.606,24.644,18.926,536.996,152.858,15.907,-427.040,-85.490,59.980
703,33862.398000,333.097,77.957,55.782,538.027,158.757,18.982,-1097.040,-73.490,56.980
704,33862.438000,407.228,98.075,86.661,537.075,158.899,25.848,-1471.040,-125.490,-53.020
705,33862.456000,279.722,0.503,-46.817,532.305,163.900,34.775,-1611.040,-289.490,-471.020
706,33862.496000,301.467,-10.562,-110.568,528.613,184.941,22.485,856.960,-573.490,-887.020
707,33862.538000,315.305,-36.715,-346.646,522.854,198.520,-19.394,849.960,-1796.490,-968.020
708,33862.576000,232.278,80.974,-260.981,507.613,237.635,-87.204,-446.040,-2550.490,-1306.020
709,33862.616000,228.324,-45.768,-276.918,470.171,281.410,-153.977,-1194.040,-3004.490,-1660.020
710,33862.655000,254.023,-56.833,-336.685,414.212,314.024,-234.766,-563.040,-3665.490,-1414.020
711,33862.696000,206.579,-80.974,-244.047,335.844,330.823,-318.895,-328.040,-4450.490,-1060.020
712,33862.744000,179.892,-104.110,-174.319,235.186,339.983,-387.550,190.960,-4663.490,-397.020
713,33862.764000,90.934,-129.257,-59.767,175.992,327.995,-421.283,764.960,-4249.490,245.980
714,33862.804000,36.571,-125.234,-5.977,102.157,304.064,-462.177,1083.960,-3355.490,1154.980
715,33862.844000,48.432,-82.986,5.977,57.259,267.255,-483.683,1163.960,-2379.490,1572.980
716,33862.884000,85.004,-103.104,-7.969,48.279,239.900,-488.232,634.960,-682.490,1712.980
717,33862.923000,126.517,-79.969,-108.576,72.314,224.602,-488.521,431.960,642.510,1778.980
718,33862.964000,184.834,-64.880,-129.494,126.454,218.614,-475.791,-85.040,1893.510,1926.980
719,33863.4000,211.521,-66.892,-107.580,169.959,211.703,-456.239,-136.040,2718.510,1928.980
720,33863.48000,358.795,-36.715,-130.490,257.047,205.690,-415.001,-744.040,3489.510,2036.980
721,33863.63000,429.961,5.532,-90.646,340.254,192.477,-346.473,-1192.040,3963.510,1807.980
722,33863.104000,457.637,25.650,-123.518,405.155,183.335,-261.222,-1139.040,4097.510,1236.980
723,33863.138000,413.158,-3.521,-224.125,448.851,182.659,-178.769,-21.040,3843.510,617.980
724,33863.178000,192.741,52.809,-492.078,467.214,172.978,-141.680,125.960,1712.510,332.980
725,33863.220000,226.347,220.794,2.988,465.227,168.062,-143.755,470.960,379.510,-144.020
726,33863.260000,323.212,-22.633,-207.191,467.044,155.502,-142.068,2168.960,750.510,9.980
727,33863.300000,322.224,-60.857,-2.988,470.900,150.125,-123.547,-264.040,694.510,72.980
728,33863.340000,266.873,64.880,-83.673,472.829,148.331,-117.699,1750.960,546.510,-174.020
729,33863.363000,279.722,100.086,-99.611,474.814,153.226,-116.605,204.960,160.510,-167.020
730,33863.403000,233.266,-53.815,-46.817,474.858,157.174,-113.576,-252.040,-96.490,-97.020
731,33863.448000,231.290,-55.827,-57.774,470.005,156.091,-116.552,-269.040,-191.490,-117.020
732,33863.483000,244.139,-37.721,-78.693,470.081,164.743,-120.282,-47.040,-144.490,-103.020
733,33863.528000,234.255,-32.692,-74.708,469.073,160.828,-121.352,-47.040,-155.490,-66.020
734,33863.564000,244.139,-25.650,-51.798,465.270,168.471,-125.113,-80.040,-253.490,-27.020
735,33863.604000,232.278,-31.686,-73.712,467.164,166.333,-134.963,96.960,-352.490,-6.020
736,33863.643000,227.336,-36.715,-83.673,461.315,164.097,-145.812,383.960,-543.490,-63.020
737,33863.663000,247.104,-19.615,-79.689,455.449,161.689,-164.511,310.960,-669.490,-122.020
738,33863.703000,252.046,-3.521,-93.634,451.574,164.240,-179.172,77.960,-773.490,-164.020
739,33863.743000,255.012,-20.621,-93.634,438.003,164.734,-194.880,-251.040,-862.490,-218.020
740,33863.788000,247.104,-37.721,-105.588,429.388,177.853,-212.259,-304.040,-845.490,-214.020
741,33863.826000,273.792,-48.786,-101.603,422.667,186.201,-226.798,-460.040,-876.490,-163.020
742,33863.858000,338.039,-9.556,-73.712,413.976,191.554,-244.349,-686.040,-1082.490,-128.020
743,33863.898000,298.502,-13.580,-34.864,402.413,198.927,-256.959,-1636.040,-910.490,115.980
744,33863.938000,251.058,-44.762,-204.202,388.007,213.888,-276.270,-1106.040,-1345.490,-228.020
745,33863.985000,210.533,-24.644,-182.288,375.497,223.215,-287.857,-176.040,-1232.490,-661.020
746,33864.6000,121.575,-39.733,-189.261,363.067,242.100,-306.097,215.960,-856.490,-721.020
747,33864.51000,70.178,-59.851,-38.848,360.922,225.102,-328.053,2605.960,711.510,-753.020
748,33864.79000,95.876,91.033,-52.794,387.614,183.705,-324.993,2463.960,1755.510,-424.020
749,33864.119000,199.660,47.780,-142.444,427.325,181.006,-288.685,242.960,2472.510,-226.020
750,33864.159000,246.116,-18.609,-218.148,460.290,179.385,-244.522,342.960,2371.510,-69.020
751,33864.199000,224.371,-104.110,-317.759,482.546,174.359,-218.109,876.960,1760.510,-221.020
752,33864.244000,158.147,-141.328,-492.078,494.963,155.345,-205.756,1647.960,60.510,345.980
753,33864.285000,89.946,-48.786,-82.677,497.811,149.569,-204.897,-798.040,450.510,182.980
754,33864.305000,308.386,61.862,-73.712,503.471,132.388,-194.480,935.960,613.510,90.980
755,33864.345000,250.069,-20.621,-72.716,507.340,130.656,-186.665,310.960,376.510,86.980
756,33864.400000,256.000,-1.509,-87.658,513.139,128.016,-176.904,-97.040,495.510,167.980
757,33864.426000,245.127,-43.756,-84.669,515.075,126.287,-168.113,-600.040,485.510,105.980
758,33864.465000,252.046,-37.721,-60.763,517.086,130.556,-151.342,-540.040,581.510,100.980
759,33864.505000,222.394,-35.709,-48.809,527.746,126.431,-122.972,-1211.040,751.510,219.980
760,33864.545000,240.185,-37.721,-52.794,528.714,122.924,-106.377,-485.040,528.510,148.980
761,33864.585000,248.093,-19.615,-38.848,527.898,134.931,-89.441,-659.040,426.510,162.980
762,33864.599000,231.290,-33.697,-36.856,534.647,130.380,-78.740,-572.040,364.510,157.980
763,33864.639000,234.255,-36.715,-35.860,537.504,123.806,-70.054,-220.040,311.510,174.980
764,33864.679000,243.151,-30.680,-32.872,534.627,124.900,-63.172,-90.040,282.510,199.980
765,33864.725000,247.104,-45.768,-32.872,541.252,109.475,-61.539,-45.040,175.510,215.980
766,33864.765000,258.965,-40.739,-16.934,535.464,110.454,-58.587,83.960,141.510,216.980
767,33864.799000,252.046,-34.703,-34.864,543.175,106.733,-54.731,38.960,124.510,219.980
768,33864.839000,245.127,-87.010,-31.875,543.163,104.856,-51.831,110.960,192.510,203.980
769,33864.878000,252.046,-75.945,-14.942,544.002,90.431,-46.265,405.960,296.510,114.980
770,33864.899000,247.104,-48.786,21.914,545.026,95.381,-42.230,584.960,186.510,91.980
771,33864.939000,233.266,-27.662,66.739,545.940,91.356,-49.182,-36.040,-365.490,72.980
772,33864.980000,264.896,-107.128,16.934,542.969,88.912,-70.817,1090.960,-749.490,-54.020
773,33865.20000,313.328,-24.644,-44.825,539.026,84.646,-86.611,1163.960,-501.490,-194.020
774,33865.60000,289.606,-26.656,-49.805,535.292,101.760,-100.949,494.960,-494.490,-470.020
775,33865.100000,265.884,-87.010,-36.856,532.452,110.254,-110.573,690.960,-457.490,-640.020
776,33865.140000,225.359,-104.110,3.984,534.423,115.904,-119.269,1854.960,-211.490,-285.020
777,33865.184000,234.255,-47.780,33.868,534.305,104.210,-121.490,2276.960,293.510,-37.020
778,33865.204000,235.243,11.568,33.868,538.188,102.608,-107.789,1330.960,1019.510,-35.020
779,33865.243000,245.127,4.527,56.778,548.936,105.495,-69.456,236.960,1423.510,-121.020
780,33865.284000,234.255,-13.580,38.848,549.105,112.398,-20.269,338.960,1623.510,-212.020
781,33865.324000,256.000,-59.851,5.977,553.966,106.512,18.837,711.960,1355.510,-196.020
782,33865.360000,229.313,12.574,22.911,545.459,120.667,48.553,1066.960,1161.510,-292.020
783,33865.406000,231.290,-31.686,5.977,541.796,137.587,69.514,757.960,977.510,-435.020
784,33865.440000,238.208,-20.621,10.957,537.157,153.526,90.452,753.960,870.510,-445.020
785,33865.484000,224.371,-5.532,12.949,528.667,170.485,115.327,130.960,837.510,-237.020
786,33865.525000,217.452,-13.580,16.934,526.749,167.985,134.881,-502.040,609.510,-176.020
787,33865.544000,202.625,-41.745,-28.887,526.809,172.084,144.779,-641.040,-83.490,-237.020
788,33865.584000,230.301,-109.139,165.354,525.805,166.444,153.478,-789.040,15.510,-11.020
789,33865.624000,244.139,-68.904,109.572,524.759,157.761,156.225,-1277.040,-294.490,-67.020
790,33865.660000,229.313,-13.580,118.537,526.647,152.926,156.121,-898.040,-441.490,-42.020
791,33865.705000,249.081,-13.580,88.654,532.428,153.630,141.439,510.960,-573.490,79.980
792,33865.748000,240.185,18.609,80.685,535.296,153.335,126.729,277.960,-722.490,89.980
793,33865.780000,257.977,-80.974,26.895,538.134,150.105,110.972,-347.040,-843.490,123.980
794,33865.826000,261.931,9.556,34.864,543.871,148.630,85.455,537.960,-959.490,130.980
795,33865.840000,258.965,-37.721,49.805,543.819,147.249,66.791,133.960,-899.490,226.980
796,33865.879000,274.780,12.574,-49.805,544.659,138.996,44.055,538.960,-826.490,197.980
797,33865.920000,285.652,4.527,-35.860,545.478,127.894,24.197,-13.040,-649.490,167.980
798,33865.959000,265.884,-59.851,-14.942,547.398,128.647,13.430,-6.040,-432.490,81.980
799,33865.999000,252.046,-64.880,-17.930,545.426,126.514,5.533,-184.040,-258.490,13.980
800,33866.40000,270.826,-42.750,19.922,548.406,134.330,6.694,-99.040,-8.490,-2.020
801,33866.89000,255.012,-13.580,5.977,546.428,129.500,8.544,-78.040,74.510,39.980
802,33866.125000,232.278,-46.774,-3.984,546.504,137.267,8.716,-11.040,98.510,63.980
803,33866.143000,247.104,-23.639,8.965,548.348,126.736,14.370,-194.040,90.510,107.980
804,33866.180000,260.942,-16.597,4.981,545.464,127.765,18.310,-190.040,95.510,98.980
805,33866.226000,294.548,-26.656,33.868,546.493,132.758,24.307,-70.040,185.510,20.980
806,33866.261000,350.888,30.680,73.712,545.520,130.936,30.148,-162.040,226.510,-100.020
807,33866.299000,355.830,113.163,77.696,542.675,134.101,42.961,-1307.040,395.510,-195.020
808,33866.339000,335.073,21.627,-32.872,539.858,140.178,55.839,-564.040,163.510,-600.020
809,33866.379000,456.649,-36.715,-316.763,532.351,171.386,22.192,1136.960,-1504.490,-846.020
810,33866.419000,427.985,47.780,-228.109,525.759,205.625,-50.611,374.960,-2738.490,-1254.020
811,33866.439000,339.027,0.503,-258.988,491.134,243.322,-130.262,-647.040,-3288.490,-2077.020
812,33866.479000,95.876,-34.703,-204.202,437.247,290.475,-212.685,-68.040,-3277.490,-1708.020
813,33866.519000,33.606,-82.986,-162.366,377.304,309.632,-285.936,20.960,-3349.490,-1316.020
814,33866.560000,7.907,-135.293,-100.607,338.567,315.037,-331.988,40.960,-3301.490,-478.020
815,33866.601000,22.734,-162.452,-79.689,279.439,315.131,-389.970,-12.040,-3072.490,139.980
816,33866.641000,59.305,-178.546,-74.708,231.861,304.205,-424.636,-172.040,-2507.490,789.980
817,33866.681000,70.178,-193.635,-73.712,200.743,292.685,-449.474,137.960,-1851.490,1259.980
818,33866.721000,119.598,-169.493,-93.634,195.596,262.368,-458.003,26.960,-573.490,1970.980
819,33866.760000,197.683,-118.193,-158.381,217.643,240.385,-452.560,-20.040,232.510,2313.980
820,33866.781000,248.093,-143.340,-134.475,253.166,209.946,-440.412,300.960,1096.510,2469.980
821,33866.821000,435.892,-125.234,-20.918,286.740,176.706,-422.447,1196.960,2185.510,2549.980
822,33866.861000,512.988,138.310,-45.821,349.237,127.826,-378.290,-813.040,2958.510,2211.980
823,33866.901000,512.988,227.835,18.926,406.621,144.520,-306.210,-4489.040,2832.510,2365.980
824,33866.948000,406.239,109.139,-1.992,450.357,147.748,-222.690,-3944.040,2895.510,1924.980
825,33866.986000,232.278,77.957,-492.078,460.182,158.090,-197.923,-146.040,214.510,137.980
826,33867.28000,33.606,-37.721,43.829,462.134,158.282,-190.069,1782.960,909.510,-1026.020
827,33867.60000,257.977,-276.118,-171.331,466.020,159.355,-187.095,2688.960,889.510,-354.020
828,33867.81000,267.861,-17.603,-98.615,466.958,153.798,-175.449,835.960,796.510,-99.020
829,33867.121000,294.548,-9.556,-34.864,467.003,153.345,-151.923,-839.040,782.510,151.980
830,33867.161000,253.035,73.933,-37.852,471.812,146.963,-135.383,942.960,857.510,46.980
831,33867.204000,295.537,38.727,-9.961,475.686,145.274,-125.606,985.960,486.510,-134.020
832,33867.244000,288.618,-47.780,-18.926,468.895,144.151,-129.568,472.960,70.510,-149.020
833,33867.284000,243.151,-94.051,-49.805,472.803,148.957,-133.375,725.960,34.510,-280.020
834,33867.324000,230.301,-130.263,-62.755,476.673,149.879,-137.269,1457.960,116.510,-242.020
835,33867.364000,218.440,72.927,-99.611,469.765,137.063,-143.452,2015.960,213.510,-160.020
836,33867.384000,262.919,95.057,-63.751,471.707,138.031,-144.408,296.960,-33.490,-96.020
837,33867.424000,237.220,-31.686,-48.809,471.727,141.742,-152.170,410.960,-222.490,-64.020
838,33867.464000,241.174,-63.874,-61.759,468.797,140.570,-160.048,313.960,-296.490,-77.020
839,33867.504000,250.069,-17.603,-62.755,466.755,131.598,-170.058,290.960,-281.490,-18.020
840,33867.543000,242.162,-44.762,-61.759,461.946,135.348,-173.908,18.960,-263.490,24.980
841,33867.590000,238.208,-43.756,-56.778,458.962,128.372,-180.933,60.960,-314.490,17.980
842,33867.636000,233.266,-38.727,-61.759,456.117,135.938,-188.617,-62.040,-472.490,19.980
843,33867.663000,238.208,-40.739,-69.728,452.212,135.556,-204.324,-206.040,-602.490,-10.020
844,33867.683000,246.116,-47.780,-81.681,438.659,137.106,-216.086,-229.040,-690.490,-69.020
845,33867.726000,249.081,-42.750,-93.634,437.609,131.898,-231.894,-243.040,-762.490,-113.020
846,33867.766000,260.942,-16.597,-96.623,427.980,138.405,-240.596,-436.040,-829.490,-78.020
847,33867.809000,253.035,-23.639,-101.603,420.301,147.715,-255.116,-583.040,-907.490,6.980
848,33867.843000,272.803,-41.745,-101.603,411.657,157.921,-272.559,-700.040,-1042.490,63.980
849,33867.883000,299.490,-24.644,-95.626,397.207,168.050,-290.997,-1126.040,-1219.490,144.980
850,33867.923000,292.571,-12.574,-93.634,387.606,177.470,-299.635,-1328.040,-1236.490,177.980
851,33867.963000,177.915,28.668,-177.307,381.103,205.516,-300.987,-1569.040,-968.490,-195.020
852,33867.983000,127.506,-43.756,-248.031,375.337,211.112,-308.720,-742.040,-858.490,-260.020
853,33868.30000,129.483,-59.851,12.949,368.561,211.887,-314.601,461.960,-130.490,-137.020
854,33868.63000,165.066,-46.774,-31.875,386.681,185.788,-318.084,2299.960,1260.510,187.980
855,33868.103000,221.405,-16.597,-89.650,427.202,168.385,-288.966,826.960,1916.510,179.980
856,33868.143000,229.313,-81.980,-117.541,461.046,157.992,-246.956,-239.040,2128.510,326.980
857,33868.186000,256.988,-74.939,-169.339,492.920,143.718,-204.057,595.960,1829.510,572.980
858,33868.248000,216.463,0.503,-308.794,505.360,125.804,-185.796,74.960,775.510,579.980
859,33868.266000,124.541,38.727,-413.385,514.988,118.412,-173.191,-576.040,-59.490,521.980
860,33868.281000,167.042,-50.798,-178.303,512.049,115.385,-177.187,1168.960,239.510,-66.020
861,33868.321000,268.849,-28.668,-65.743,514.863,105.769,-174.453,1201.960,442.510,-343.020
862,33868.361000,274.780,-105.116,-28.887,515.823,103.945,-169.588,1197.960,494.510,-172.020
863,33868.401000,242.162,62.868,-97.619,522.700,112.058,-156.645,263.960,583.510,-66.020
864,33868.443000,289.606,-3.521,-52.794,523.671,109.457,-142.971,58.960,519.510,-66.020
865,33868.483000,228.324,-95.057,-53.790,520.796,110.572,-135.107,20.960,389.510,-104.020
866,33868.525000,231.290,-56.833,-71.720,523.788,116.749,-120.254,156.960,439.510,-158.020
867,33868.565000,254.023,4.527,-33.868,527.632,113.011,-115.425,52.960,415.510,-149.020
868,33868.585000,260.942,1.509,-55.782,528.685,119.126,-102.539,-35.040,405.510,-40.020
869,33868.625000,259.954,-38.727,-44.825,530.728,126.351,-83.741,-836.040,717.510,189.980
870,33868.668000,244.139,-56.833,-39.844,534.594,122.829,-69.102,-280.040,492.510,34.980
871,33868.708000,249.081,-54.821,-25.899,533.619,120.101,-60.338,96.960,494.510,57.980
872,33868.741000,241.174,-21.627,-21.914,532.641,116.467,-48.653,126.960,505.510,93.980
873,33868.783000,255.012,-35.709,0.996,534.546,111.804,-40.907,144.960,388.510,154.980
874,33868.830000,247.104,-58.845,11.953,537.457,111.034,-33.073,178.960,222.510,160.980
875,33868.868000,236.232,-51.804,-3.984,536.428,104.272,-31.264,361.960,117.510,159.980
876,33868.884000,251.058,-36.715,1.992,536.426,104.250,-32.245,376.960,-49.490,117.980
877,33868.930000,239.197,-78.963,24.903,537.300,96.320,-40.264,399.960,-150.490,91.980
878,33868.968000,252.046,-47.780,-23.907,536.281,92.298,-46.240,520.960,-162.490,41.980
879,33869.4000,240.185,-51.804,0.000,534.324,91.179,-52.153,261.960,-209.490,30.980
880,33869.44000,255.012,-62.868,42.833,532.361,90.016,-60.028,-51.040,-533.490,-46.020
881,33869.88000,257.977,-84.998,9.961,536.285,100.259,-81.367,324.960,-777.490,-182.020
882,33869.128000,286.641,-24.644,10.957,530.500,107.430,-105.736,-169.040,-1134.490,-473.020
883,33869.168000,369.668,-107.128,40.840,520.924,121.489,-124.077,552.960,-1153.490,-487.020
884,33869.208000,326.178,-48.786,-29.883,516.980,119.855,-152.561,606.960,-1062.490,-265.020
885,33869.226000,232.278,-59.851,-76.700,512.156,124.339,-167.181,-43.040,-650.490,-284.020
886,33869.268000,151.228,-28.668,37.852,508.398,137.699,-175.719,572.960,-295.490,-195.020
887,33869.306000,155.181,-61.862,72.716,518.995,127.684,-150.422,1039.960,1349.510,294.980
888,33869.348000,192.741,-19.615,81.681,535.391,108.880,-86.081,1217.960,2496.510,251.980
889,33869.389000,278.734,19.615,-1.992,539.539,118.625,2.404,451.960,3110.510,-115.020
890,33869.429000,314.317,-35.709,-51.798,537.769,122.835,62.314,-495.040,2958.510,-305.020
891,33869.469000,248.093,-83.992,-77.696,524.394,125.205,131.965,-277.040,2184.510,218.980
892,33869.508000,159.135,-56.833,-108.576,515.759,124.926,167.245,489.960,1026.510,199.980
893,33869.528000,294.548,-148.369,213.167,516.795,133.522,160.573,1497.960,-258.490,221.980
894,33869.568000,251.058,-36.715,233.089,515.805,131.528,158.565,990.960,122.510,248.980
895,33869.608000,260.942,42.750,158.381,514.849,132.511,159.566,-657.040,-323.490,5.980
896,33869.644000,260.942,-76.951,87.658,510.858,122.506,147.567,-389.040,-589.490,16.980
897,33869.684000,267.861,-50.798,36.856,515.720,128.076,133.972,24.960,-769.490,60.980
898,33869.724000,266.873,-59.851,20.918,524.290,118.042,115.135,-362.040,-801.490,84.980
899,33869.766000,229.313,-70.916,52.794,526.210,119.679,100.465,-434.040,-767.490,84.980
900,33869.804000,249.081,-45.768,38.848,528.053,113.528,84.642,-100.040,-790.490,11.980
901,33869.826000,246.116,-56.833,30.879,530.011,120.818,62.253,-195.040,-868.490,-27.020
902,33869.869000,256.000,-55.827,33.868,527.056,118.524,47.486,184.960,-894.490,-97.020
903,33869.904000,265.884,-29.674,-5.977,530.902,120.094,28.896,309.960,-617.490,-35.020
904,33869.944000,298.502,-38.727,60.763,528.929,119.708,12.212,148.960,-492.490,-4.020
905,33869.986000,270.826,-28.668,-32.872,527.941,118.620,7.283,177.960,-215.490,9.980
906,33870.26000,261.931,-16.597,-18.926,525.051,120.469,4.376,-28.040,-17.490,68.980
907,33870.64000,258.965,5.532,-33.868,527.994,122.655,14.237,-521.040,162.510,137.980
908,33870.104000,285.652,31.686,-17.930,527.024,121.739,17.157,-692.040,308.510,64.980
909,33870.126000,335.073,46.774,63.751,531.897,121.247,36.769,-1679.040,366.510,-17.020
910,33870.163000,306.409,88.016,56.778,526.140,123.412,49.554,-1802.040,212.510,-296.020
911,33870.210000,263.907,31.686,-19.922,527.205,134.036,46.850,223.960,-387.490,-883.020
912,33870.243000,301.467,155.411,-252.016,525.591,172.313,23.179,765.960,-874.490,-1162.020
913,33870.283000,302.456,105.116,-162.366,513.414,220.928,-11.071,-247.040,-1439.490,-2066.020
914,33870.323000,288.618,-40.739,-171.331,485.813,276.080,-50.112,-744.040,-1798.490,-2378.020
915,33870.363000,257.977,-52.809,-241.058,460.909,310.808,-92.543,523.960,-2097.490,-2388.020
916,33870.403000,233.266,-32.692,-270.942,417.613,348.766,-156.515,-16.040,-2774.490,-1998.020
917,33870.430000,194.718,-156.417,-222.132,360.673,377.724,-226.600,-163.040,-3128.490,-1352.020
918,33870.463000,168.031,-124.228,-178.303,307.497,394.250,-290.088,66.960,-3303.490,-363.020
919,33870.503000,126.517,-127.246,-137.463,255.065,384.874,-340.421,146.960,-3191.490,271.980
920,33870.550000,115.645,-117.187,-141.447,214.100,359.279,-383.244,416.960,-2729.490,1003.980
921,33870.590000,108.726,-94.051,-109.572,194.616,348.993,-401.165,395.960,-2279.490,1424.980
922,33870.630000,92.911,-70.916,-74.708,175.907,319.257,-421.478,592.960,-1723.490,1804.980
923,33870.664000,80.062,34.703,-90.646,175.649,294.770,-431.828,85.960,-521.490,2124.980
924,33870.704000,110.703,-24.644,-173.323,204.729,296.476,-411.135,-1250.040,96.510,2365.980
925,33870.724000,229.313,-73.933,-197.230,245.300,285.718,-388.733,-834.040,806.510,2549.980
926,33870.764000,348.911,-86.004,-144.436,292.452,254.702,-363.825,201.960,1322.510,2409.980
927,33870.805000,340.015,-45.768,-170.335,325.131,229.198,-346.671,232.960,1847.510,1938.980
928,33870.849000,354.842,-11.568,-58.770,362.742,209.048,-308.793,-425.040,1849.510,1358.980
929,33870.889000,365.714,-20.621,-64.747,395.763,211.482,-256.694,-1339.040,2034.510,843.980
930,33870.929000,312.340,28.668,-8.965,430.586,201.207,-209.777,-193.040,2183.510,976.980
931,33870.969000,271.815,148.369,-294.848,450.883,189.775,-164.877,108.960,2075.510,186.980
932,33871.8000,237.220,0.503,-154.397,454.640,178.163,-165.127,1165.960,177.510,-89.020
933,33871.28000,143.320,59.851,-40.840,453.618,173.234,-168.181,2014.960,441.510,-409.020
934,33871.68000,297.514,-16.597,-143.440,454.529,167.419,-168.308,583.960,433.510,-41.020
935,33871.108000,252.046,0.503,-72.716,456.592,176.585,-149.468,-498.040,494.510,73.980
936,33871.148000,252.046,-4.527,-70.724,464.267,169.886,-148.620,1089.960,394.510,-40.020
937,33871.188000,246.116,-37.721,-88.654,464.168,159.250,-146.894,782.960,243.510,-24.020
938,33871.228000,270.826,12.574,-76.700,462.271,162.230,-142.910,277.960,155.510,-97.020
939,33871.270000,256.000,-4.527,-87.658,460.376,167.000,-145.750,471.960,103.510,-143.020
940,33871.310000,259.954,14.585,-84.669,460.367,166.030,-145.771,-133.040,29.510,-82.020
941,33871.344000,229.313,-8.550,-77.696,463.309,169.963,-144.697,-29.040,-37.490,-57.020
942,33871.364000,230.301,-37.721,-80.685,461.382,171.778,-149.564,82.960,-163.490,-49.020
943,33871.405000,211.521,-47.780,-85.665,460.333,164.821,-156.586,134.960,-287.490,-23.020
944,33871.445000,226.347,-76.951,-55.782,455.473,164.559,-166.408,107.960,-399.490,2.980
945,33871.485000,238.208,6.538,-126.506,452.570,167.162,-179.105,446.960,-384.490,-29.020
946,33871.525000,237.220,-14.585,-117.541,447.707,165.109,-182.103,176.960,-290.490,-33.020
947,33871.565000,261.931,-39.733,-108.576,450.563,162.052,-190.010,-6.040,-205.490,-97.020
948,33871.605000,260.942,-5.532,-91.642,443.848,168.696,-193.799,-271.040,-241.490,-129.020
949,33871.644000,254.023,-24.644,-78.693,440.939,169.487,-200.653,-348.040,-481.490,-166.020
950,33871.664000,242.162,-19.615,-75.704,432.323,180.837,-210.225,-527.040,-746.490,-158.020
951,33871.704000,277.745,-30.680,-63.751,426.565,189.152,-226.724,-701.040,-1135.490,-113.020
952,33871.744000,341.992,5.532,-60.763,411.145,200.134,-250.049,-769.040,-1328.490,-19.020
953,33871.784000,322.224,-10.562,-57.774,407.297,202.944,-252.937,-1934.040,-990.490,71.980
954,33871.831000,201.637,1.509,-192.249,390.083,227.585,-272.039,-593.040,-1345.490,-406.020
955,33871.871000,127.506,-17.603,-229.105,375.573,231.867,-291.588,-169.040,-1035.490,-454.020
956,33871.911000,119.598,-34.703,-107.580,367.828,234.380,-306.258,343.960,-453.490,-324.020
957,33871.951000,108.726,4.527,-80.685,373.612,232.474,-307.269,755.960,387.510,-331.020
958,33871.971000,109.714,-22.633,-117.541,397.580,207.726,-296.000,1455.960,1443.510,-134.020
959,33872.18000,133.436,-8.550,-114.553,420.649,190.670,-287.504,1913.960,2020.510,82.980
960,33872.45000,195.707,22.633,-169.339,454.366,167.613,-247.738,904.960,2296.510,67.980
961,33872.85000,221.405,-59.851,-254.008,485.345,161.075,-205.649,655.960,2089.510,83.980
962,33872.125000,207.568,-157.422,-492.078,493.981,151.667,-196.033,764.960,-226.490,374.980
963,33872.166000,150.239,-81.980,-92.638,494.910,147.793,-196.117,-169.040,331.510,7.980
964,33872.206000,253.035,59.851,-114.553,496.720,134.285,-193.471,1162.960,334.510,-18.020
965,33872.247000,276.757,-12.574,-78.693,500.655,139.349,-185.505,293.960,662.510,43.980
966,33872.266000,235.243,-33.697,-93.634,508.343,131.011,-170.964,467.960,701.510,45.980
967,33872.306000,217.452,-105.116,-73.712,510.305,130.404,-155.283,380.960,692.510,37.980
968,33872.349000,298.502,20.621,-60.763,514.222,131.779,-138.573,23.960,684.510,-61.020
969,33872.389000,241.174,-56.833,-60.763,518.159,135.981,-125.723,357.960,627.510,-122.020
970,33872.429000,263.907,28.668,-45.821,522.047,132.674,-101.271,-693.040,947.510,27.980
971,33872.469000,234.255,-36.715,-21.914,519.252,140.715,-87.369,-451.040,559.510,30.980
972,33872.509000,231.290,-37.721,1.992,524.061,135.217,-74.733,-470.040,344.510,51.980
973,33872.549000,243.151,-43.756,-18.926,525.106,142.130,-69.674,-55.040,142.510,67.980
974,33872.589000,236.232,-31.686,-33.868,524.103,138.259,-68.781,60.960,48.510,86.980
975,33872.609000,254.023,-37.721,-22.911,525.972,131.482,-68.928,204.960,-36.490,120.980
976,33872.653000,256.988,-40.739,-37.852,524.965,128.452,-73.900,233.960,-80.490,122.980
977,33872.688000,245.127,-43.756,-52.794,524.007,129.413,-73.881,147.960,33.510,85.980
978,33872.725000,250.069,-48.786,-41.837,524.890,120.685,-74.073,470.960,89.510,50.980
979,33872.768000,254.023,-39.733,-45.821,527.792,119.829,-70.163,329.960,186.510,46.980
980,33872.811000,245.127,-48.786,-9.961,529.698,116.050,-66.320,323.960,210.510,80.980
981,33872.846000,253.035,-36.715,-22.911,530.644,113.212,-63.439,418.960,185.510,90.980
982,33872.888000,248.093,-53.815,-17.930,527.708,109.343,-61.570,247.960,137.510,71.980
983,33872.913000,250.069,-36.715,-25.899,528.755,116.278,-55.530,305.960,147.510,82.980
984,33872.945000,253.035,-49.792,-0.996,528.680,108.511,-55.703,127.960,124.510,95.980
985,33872.985000,243.151,-53.815,-0.996,527.719,108.567,-52.761,195.960,4.510,61.980
986,33873.26000,248.093,-58.845,-21.914,532.529,107.470,-60.621,282.960,-39.490,70.980
987,33873.66000,266.873,-34.703,-23.907,530.525,99.749,-57.854,188.960,107.510,20.980
988,33873.105000,273.792,-27.662,18.926,533.432,99.821,-55.885,-92.040,45.510,13.980
989,33873.146000,293.560,7.544,36.856,531.575,108.475,-58.639,196.960,-102.490,-96.020
990,33873.186000,300.479,3.521,-6.973,532.505,104.601,-58.723,1067.960,-62.490,-277.020
991,33873.213000,256.988,30.680,-20.918,537.455,116.298,-58.453,1222.960,56.510,-374.020
992,33873.248000,253.035,46.774,-22.911,536.557,123.991,-61.226,1024.960,92.510,-538.020
993,33873.293000,245.127,-21.627,-12.949,534.721,134.609,-62.956,1213.960,137.510,-672.020
994,33873.333000,204.602,-73.933,-62.755,526.179,151.072,-60.647,1317.960,234.510,-592.020
995,33873.368000,244.139,83.992,-48.809,529.168,160.744,-63.368,519.960,200.510,-845.020
996,33873.420000,206.579,-41.745,-9.961,529.406,184.152,-57.945,-1167.040,92.510,-698.020
997,33873.455000,255.012,-50.798,-15.938,528.555,194.067,-47.920,-869.040,29.510,-554.020
998,33873.488000,239.197,-49.792,-79.689,525.794,207.717,-43.700,-1089.040,31.510,-528.020
999,33873.508000,262.919,-51.804,0.996,521.076,217.616,-32.703,-841.040,311.510,-248.020
1000,33873.548000,258.965,-97.069,24.903,523.027,215.154,-13.140,-763.040,501.510,153.980
1001,33873.590000,270.826,-31.686,143.440,525.974,214.729,10.392,-697.040,772.510,21.980
1002,33873.630000,262.919,-39.733,100.607,528.865,208.479,33.796,-808.040,645.510,220.980
1003,33873.670000,214.486,-54.821,59.767,525.921,201.892,44.430,-486.040,447.510,184.980
1004,33873.710000,217.452,-3.521,120.529,528.740,191.435,53.030,54.960,194.510,139.980
1005,33873.753000,216.463,-116.181,21.914,530.606,183.751,55.806,-46.040,-123.490,377.980
1006,33873.793000,295.537,77.957,-10.957,537.378,187.334,39.228,1578.960,-250.490,190.980
1007,33873.826000,277.745,32.692,14.942,538.296,183.352,34.238,-382.040,-277.490,156.980
1008,33873.846000,235.243,-30.680,37.852,540.104,171.591,28.097,237.960,-184.490,221.980
1009,33873.886000,248.093,-10.562,21.914,538.094,164.690,24.017,-33.040,-175.490,232.980
1010,33873.928000,248.093,-1.509,14.942,543.845,159.828,20.979,125.960,-77.490,308.980
1011,33873.968000,253.035,-35.709,27.891,544.749,153.947,17.909,310.960,45.510,377.980
1012,33874.14000,255.012,-46.774,35.860,550.486,147.186,16.790,300.960,11.510,263.980
1013,33874.54000,257.977,-31.686,35.860,548.541,146.196,16.764,123.960,-76.490,104.980
1014,33874.88000,254.023,-34.703,40.840,550.435,143.173,10.817,-60.040,-145.490,-22.020
1015,33874.128000,247.104,-28.668,28.887,544.647,146.806,2.059,1.960,-250.490,-144.020
1016,33874.148000,255.012,-14.585,8.965,551.427,147.821,1.116,-40.040,-201.490,-121.020
1017,33874.188000,250.069,-21.627,15.938,544.655,147.755,1.100,-190.040,-53.490,-58.020
1018,33874.228000,253.035,-18.609,18.926,547.595,151.667,1.193,-53.040,-12.490,-35.020
1019,33874.268000,253.035,-21.627,25.899,547.585,150.696,1.171,-65.040,-38.490,-52.020
1020,33874.308000,250.069,-19.615,27.891,544.679,151.509,-4.701,-65.040,-120.490,-75.020
1021,33874.348000,257.977,-30.680,24.903,544.750,159.233,-6.490,-38.040,-148.490,-104.020
1022,33874.388000,253.035,-26.656,22.911,547.657,160.189,-8.424,47.960,-185.490,-195.020
1023,33874.428000,250.069,-7.544,11.953,543.887,171.672,-14.061,-14.040,-197.490,-244.020
1024,33874.448000,255.012,-8.550,7.969,543.958,179.396,-15.851,-120.040,-154.490,-237.020
1025,33874.488000,253.035,-4.527,9.961,539.097,177.364,-17.868,-110.040,-122.490,-230.020
1026,33874.528000,254.023,-7.544,13.946,537.213,183.990,-24.589,-158.040,-123.490,-234.020
1027,33874.569000,254.023,-1.509,15.938,535.376,193.723,-22.416,-74.040,-141.490,-223.020
1028,33874.609000,253.035,1.509,6.973,535.403,198.384,-31.138,17.960,-156.490,-201.020
