Sample, Time, ACCX, ACCY, ACCZ, MAGX, MAGY, MAGZ, GYRX, GYRY, GYRZ
0,33472.841000,248.108,54.028,15.530,415.556,292.163,3.226,34.800,118.290,38.420
1,33472.881000,247.121,55.037,16.532,414.672,288.690,3.111,26.800,124.290,40.420
2,33472.921000,247.121,55.037,16.532,416.440,293.060,4.251,25.800,126.290,38.420
3,33472.961000,247.121,55.037,15.530,413.806,289.699,8.106,14.800,127.290,40.420
4,33473.1000,246.135,54.028,19.538,413.800,288.774,6.090,27.800,134.290,40.420
5,33473.41000,248.108,53.018,21.542,416.448,292.276,7.205,38.800,131.290,40.420
6,33473.81000,245.148,52.008,24.548,412.931,290.622,10.119,34.800,113.290,29.420
7,33473.102000,243.175,55.037,24.548,413.810,288.019,10.037,29.800,78.290,17.420
8,33473.142000,245.148,54.028,27.554,414.699,287.236,12.994,7.800,42.290,5.420
9,33473.182000,246.135,52.008,25.550,419.110,291.608,14.143,-13.200,8.290,-7.580
10,33473.222000,246.135,52.008,21.542,415.586,291.605,14.131,1.800,-0.710,-6.580
11,33473.258000,247.121,53.018,21.542,416.464,290.709,13.112,-1.200,1.290,-11.580
12,33473.298000,246.135,53.018,21.542,417.352,293.370,15.187,-11.200,-5.710,-10.580
13,33473.318000,246.135,52.008,19.538,412.938,283.791,13.869,-3.200,-2.710,-5.580
14,33473.358000,246.135,53.018,24.548,415.573,281.133,11.805,7.800,-2.710,-7.580
15,33473.398000,247.121,53.018,22.544,414.689,288.859,9.074,-0.200,-10.710,-11.580
16,33473.438000,246.135,54.028,22.544,412.944,289.027,15.032,-5.200,-8.710,-9.580
17,33473.478000,247.121,54.028,22.544,415.576,288.916,11.065,-0.200,-4.710,-6.580
18,33473.518000,247.121,54.028,21.542,415.585,294.181,13.222,-2.200,-5.710,-7.580
19,33473.558000,248.108,53.018,21.542,415.585,293.313,13.194,-9.200,-1.710,-12.580
20,33473.583000,245.148,54.028,23.546,416.468,293.342,14.191,-13.200,-2.710,-14.580
21,33473.622000,246.135,56.047,21.542,412.066,295.942,14.261,-19.200,-2.710,-19.580
22,33473.662000,246.135,53.018,22.544,414.705,291.604,14.128,-9.200,7.290,-26.580
23,33473.702000,246.135,55.037,22.544,412.062,290.734,14.092,-24.200,6.290,-39.580
24,33473.742000,246.135,53.018,21.542,411.185,292.498,15.139,-27.200,12.290,-46.580
25,33473.782000,245.148,55.037,24.548,410.304,292.497,15.136,-21.200,24.290,-57.580
26,33473.822000,244.162,57.057,24.548,407.660,291.627,15.100,-41.200,22.290,-74.580
27,33473.842000,245.148,57.057,24.548,408.555,295.213,19.191,-62.200,20.290,-90.580
28,33473.882000,245.148,57.057,24.548,407.681,296.136,21.204,-64.200,23.290,-97.580
29,33473.922000,245.148,59.077,22.544,405.921,298.739,21.283,-69.200,23.290,-108.580
30,33473.962000,244.162,60.087,25.550,405.931,304.871,23.468,-88.200,25.290,-118.580
31,33474.3000,243.175,60.087,21.542,405.055,307.503,24.543,-119.200,34.290,-127.580
32,33474.42000,244.162,61.097,24.548,400.660,309.320,27.567,-134.200,52.290,-136.580
33,33474.63000,240.216,68.166,25.550,398.031,313.771,31.675,-191.200,117.290,-145.580
34,33474.103000,248.108,67.156,28.556,392.762,316.512,36.712,-253.200,204.290,-135.580
35,33474.143000,242.189,67.156,31.562,391.903,315.869,44.632,-379.200,213.290,-109.580
36,33474.183000,237.256,71.195,46.591,389.287,314.412,54.507,-294.200,153.290,-76.580
37,33474.219000,237.256,66.146,51.601,390.183,311.978,60.389,-179.200,103.290,-25.580
38,33474.260000,239.229,67.156,49.597,392.827,308.536,61.278,-37.200,64.290,19.420
39,33474.301000,243.175,66.146,43.585,389.303,311.977,60.386,28.800,28.290,28.420
40,33474.320000,239.229,67.156,44.587,390.189,312.034,62.376,28.800,50.290,57.420
41,33474.361000,240.216,68.166,41.581,392.826,315.424,59.516,86.800,39.290,87.420
42,33474.401000,242.189,68.166,38.575,393.709,313.717,60.456,12.800,15.290,93.420
43,33474.441000,243.175,69.176,43.585,394.593,311.170,62.362,-35.200,7.290,114.420
44,33474.480000,241.202,67.156,43.585,394.591,307.698,62.250,-56.200,-17.710,154.420
45,33474.520000,239.229,58.067,44.587,399.874,299.918,63.007,11.800,-40.710,227.420
46,33474.541000,245.148,52.008,34.568,403.391,295.552,61.884,55.800,-10.710,212.420
47,33474.581000,247.121,61.097,33.566,408.679,290.404,63.720,-28.200,41.290,184.420
48,33474.621000,250.081,52.008,36.571,408.681,293.876,63.832,0.800,118.290,229.420
49,33474.660000,243.175,57.057,49.597,410.451,292.226,66.764,115.800,133.290,256.420
50,33474.699000,248.108,30.801,55.609,412.199,285.199,63.562,139.800,0.290,247.420
51,33474.742000,255.013,33.830,42.583,414.810,280.579,53.491,397.800,-248.710,172.420
52,33474.783000,261.919,44.939,28.556,418.311,276.912,46.432,497.800,-361.710,46.420
53,33474.803000,259.946,47.968,30.560,420.925,280.077,35.620,224.800,-471.710,-50.580
54,33474.843000,247.121,36.860,-33.566,421.758,283.910,17.873,119.800,-668.710,-20.580
55,33474.882000,243.175,34.840,-44.587,417.311,283.484,2.950,-4.200,-740.710,-38.580
56,33474.922000,233.310,47.968,-33.566,415.516,284.881,-8.926,-132.200,-727.710,-12.580
57,33474.962000,227.391,48.978,-19.538,413.725,282.862,-18.927,-329.200,-652.710,-22.580
58,33475.2000,224.432,35.850,-3.507,410.173,280.002,-27.968,-354.200,-505.710,-17.580
59,33475.22000,244.162,34.840,79.656,406.656,277.480,-25.082,-586.200,-87.710,-23.580
60,33475.63000,244.162,88.363,80.658,406.693,282.158,-13.014,-410.200,500.290,-21.580
61,33475.103000,254.027,70.185,19.538,405.837,288.431,-5.863,-330.200,403.290,-109.580
62,33475.144000,280.663,20.702,-27.554,405.864,286.976,4.020,291.800,678.290,71.420
63,33475.184000,291.514,-0.505,12.524,401.494,288.179,15.961,54.800,535.290,-64.580
64,33475.223000,225.418,63.116,46.591,397.991,290.110,22.963,-243.200,328.290,-190.580
65,33475.269000,238.243,49.988,51.601,398.005,292.826,27.024,-35.200,163.290,-214.580
66,33475.288000,244.162,53.018,38.575,394.487,293.748,29.028,-118.200,-12.710,-279.580
67,33475.322000,249.094,57.057,17.534,389.216,301.641,32.246,-172.200,-68.710,-299.580
68,33475.364000,247.121,63.116,16.532,384.825,308.666,35.439,-109.200,11.290,-290.580
69,33475.400000,241.202,65.136,14.528,380.424,313.871,35.594,-221.200,61.290,-291.580
70,33475.440000,247.121,76.245,20.540,377.796,314.878,40.583,-245.200,140.290,-262.580
71,33475.481000,236.270,73.215,42.583,370.768,321.957,45.755,-133.200,157.290,-205.580
72,33475.502000,242.189,68.166,39.577,367.258,326.407,49.860,-218.200,47.290,-208.580
73,33475.542000,238.243,81.294,36.571,363.742,324.753,52.774,-61.200,19.290,-164.580
74,33475.582000,238.243,76.245,35.569,363.741,327.329,51.865,-22.200,-2.710,-123.580
75,33475.622000,237.256,80.284,30.560,360.219,333.375,51.057,22.800,-4.710,-81.580
76,33475.663000,237.256,79.274,34.568,361.978,334.216,50.097,29.800,-29.710,-48.580
77,33475.704000,237.256,80.284,35.569,361.095,334.187,49.100,-20.200,-87.710,-47.580
78,33475.744000,235.283,80.284,34.568,360.213,333.318,49.069,-32.200,-122.710,-35.580
79,33475.764000,238.243,78.264,32.564,361.074,329.678,42.996,3.800,-147.710,-7.580
80,33475.801000,238.243,76.245,28.556,358.434,329.704,43.981,-6.200,-156.710,-9.580
81,33475.841000,240.216,82.304,27.554,364.597,327.944,42.951,-60.200,-145.710,7.420
82,33475.881000,241.202,75.235,22.544,363.720,333.152,43.117,-7.200,-88.710,81.420
83,33475.921000,237.256,75.235,24.548,364.589,332.172,39.116,10.800,-79.710,104.420
84,33475.961000,240.216,72.205,24.548,368.117,330.495,41.059,44.800,-71.710,112.420
85,33475.981000,240.216,74.225,19.538,366.340,329.484,36.055,49.800,-52.710,133.420
86,33476.20000,244.162,70.185,20.540,369.849,324.166,31.922,117.800,-20.710,154.420
87,33476.64000,243.175,68.166,22.544,375.997,310.198,28.510,153.800,-2.710,160.420
88,33476.104000,243.175,68.166,20.540,376.897,320.728,32.826,117.800,1.290,150.420
89,33476.144000,242.189,66.146,20.540,378.650,316.333,30.703,124.800,2.290,155.420
90,33476.184000,242.189,67.156,21.542,381.270,309.222,24.523,142.800,0.290,155.420
91,33476.224000,244.162,64.126,19.538,380.397,315.325,25.711,105.800,3.290,133.420
92,33476.244000,244.162,62.107,18.536,383.043,312.779,27.623,82.800,-6.710,118.420
93,33476.284000,244.162,62.107,18.536,385.671,307.461,23.487,112.800,3.290,120.420
94,33476.324000,243.175,62.107,19.538,385.675,309.225,24.537,122.800,-4.710,119.420
95,33476.364000,246.135,59.077,20.540,390.940,300.408,19.303,98.800,-17.710,103.420
96,33476.404000,246.135,59.077,16.532,388.294,299.510,18.272,52.800,-18.710,86.420
97,33476.444000,246.135,57.057,16.532,388.297,300.406,19.294,77.800,1.290,84.420
98,33476.483000,245.148,57.057,17.534,392.696,296.041,18.174,73.800,5.290,78.420
99,33476.503000,247.121,56.047,18.536,394.448,301.109,13.379,43.800,-2.710,59.420
100,33476.544000,247.121,56.047,18.536,392.686,297.664,14.255,23.800,-6.710,47.420
101,33476.586000,246.135,55.037,16.532,397.973,295.092,15.181,34.800,-6.710,39.420
102,33476.626000,246.135,57.057,20.540,394.447,293.354,15.113,32.800,-8.710,30.420
103,33476.665000,247.121,54.028,16.532,392.679,288.116,13.945,7.800,4.290,26.420
104,33476.705000,246.135,55.037,15.530,395.326,297.638,13.269,-1.200,-3.710,16.420
105,33476.726000,245.148,54.028,17.534,395.327,298.506,13.297,12.800,-12.710,11.420
106,33476.762000,246.135,54.028,19.538,397.976,295.988,16.203,12.800,-14.710,10.420
107,33476.802000,247.121,55.037,18.536,398.852,296.801,14.246,5.800,-13.710,5.420
108,33476.843000,247.121,55.037,14.528,395.328,293.354,15.116,-18.200,-9.710,-1.580
109,33476.883000,245.148,53.018,15.530,394.442,294.165,13.154,-20.200,2.290,0.420
110,33476.924000,246.135,56.047,16.532,393.564,294.193,14.145,-29.200,7.290,-2.580
111,33476.963000,247.121,56.047,16.532,400.614,289.914,16.014,-37.200,7.290,-4.580
112,33476.983000,246.135,55.037,16.532,396.214,295.987,16.197,-37.200,-0.710,-8.580
113,33477.26000,243.175,54.028,19.538,393.576,295.174,18.149,-13.200,-7.710,-8.580
114,33477.66000,245.148,55.037,15.530,397.094,297.696,15.263,-15.200,-17.710,-15.580
115,33477.106000,246.135,55.037,14.528,393.564,289.881,14.998,-25.200,-11.710,-15.580
116,33477.146000,244.162,57.057,18.536,394.460,298.646,18.264,-16.200,-9.710,-14.580
117,33477.186000,246.135,55.037,17.534,394.447,293.354,15.113,-4.200,-14.710,-16.580
118,33477.205000,245.148,56.047,19.538,395.320,294.138,12.163,-4.200,-27.710,-20.580
119,33477.246000,247.121,57.057,15.530,394.449,295.090,15.170,-13.200,-33.710,-21.580
120,33477.286000,247.121,58.067,15.530,395.327,299.374,13.326,-19.200,-20.710,-14.580
121,33477.326000,246.135,57.057,15.530,393.570,298.561,15.279,-16.200,-16.710,-13.580
122,33477.362000,246.135,56.047,16.532,390.924,301.975,13.396,-32.200,-29.710,-20.580
123,33477.402000,244.162,57.057,16.532,390.043,301.974,13.393,-21.200,-40.710,-20.580
124,33477.442000,245.148,57.057,15.530,394.448,297.666,14.260,-32.200,-33.710,-20.580
125,33477.462000,244.162,56.047,21.542,394.449,299.402,14.317,-10.200,-98.710,-30.580
126,33477.507000,248.108,62.107,16.532,395.326,301.082,12.388,-131.200,-106.710,-45.580
127,33477.542000,250.081,57.057,2.505,396.204,301.054,11.397,-90.200,-16.710,-7.580
128,33477.582000,245.148,60.087,12.524,393.579,302.957,17.408,-33.200,90.290,31.420
129,33477.622000,237.256,54.028,26.552,392.713,299.654,23.256,-133.200,207.290,54.420
130,33477.662000,242.189,50.998,17.534,391.827,297.021,22.175,-106.200,1.290,8.420
131,33477.682000,244.162,61.097,24.548,390.939,295.228,20.128,38.800,-121.710,-27.580
132,33477.725000,251.067,60.087,10.521,394.456,301.194,16.361,-28.200,-130.710,-27.580
133,33477.764000,249.094,62.107,4.509,394.450,296.826,15.226,24.800,-50.710,-1.580
134,33477.804000,247.121,60.087,19.538,394.450,296.826,15.226,-19.200,136.290,64.420
135,33477.849000,242.189,54.028,21.542,397.993,299.601,21.285,-70.200,132.290,66.420
136,33477.885000,243.175,54.028,19.538,396.232,300.468,21.308,43.800,0.290,10.420
137,33477.925000,244.162,56.047,22.544,396.217,300.327,16.338,75.800,-87.710,-8.580
138,33477.945000,247.121,57.057,9.519,394.448,298.534,14.288,86.800,-110.710,-11.580
139,33477.987000,247.121,58.067,10.521,395.327,295.930,14.207,86.800,-58.710,16.420
140,33478.27000,249.094,59.077,10.521,393.560,295.873,12.213,13.800,-2.710,35.420
141,33478.67000,247.121,55.037,13.526,396.198,293.242,11.143,24.800,64.290,52.420
142,33478.107000,241.202,56.047,20.540,396.216,295.147,17.163,24.800,39.290,42.420
143,33478.147000,245.148,53.018,23.546,397.970,295.064,14.187,55.800,-17.710,27.420
144,33478.167000,248.108,55.037,14.528,393.563,295.901,13.207,-10.200,-55.710,5.420
145,33478.212000,246.135,56.047,9.519,395.333,295.987,16.195,29.800,-7.710,22.420
146,33478.245000,246.135,55.037,11.523,397.955,294.055,9.189,27.800,11.290,33.420
147,33478.287000,246.135,50.998,14.528,399.716,288.877,10.020,14.800,3.290,26.420
148,33478.325000,246.135,53.018,16.532,396.203,295.874,12.222,30.800,-16.710,14.420
149,33478.365000,247.121,54.028,12.524,398.842,294.980,11.208,-12.200,-29.710,5.420
150,33478.405000,249.094,55.037,9.519,397.958,294.951,10.211,1.800,5.290,13.420
151,33478.425000,247.121,55.037,13.526,397.082,294.139,12.168,2.800,34.290,26.420
152,33478.465000,245.148,49.988,17.534,398.833,286.272,9.933,-5.200,44.290,26.420
153,33478.505000,244.162,48.978,15.530,397.954,281.988,11.777,34.800,-10.710,7.420
154,33478.545000,246.135,55.037,18.536,398.842,279.469,14.677,-21.200,-63.710,-17.580
155,33478.585000,248.108,53.018,7.515,399.722,294.113,11.183,-3.200,-24.710,-3.580
156,33478.626000,246.135,54.028,11.523,400.613,295.934,14.224,-7.200,32.290,17.420
157,33478.665000,247.121,52.008,14.528,396.199,294.978,11.200,2.800,40.290,17.420
158,33478.687000,246.135,50.998,14.528,400.612,294.198,14.167,16.800,24.290,7.420
159,33478.724000,248.108,52.008,18.536,398.848,288.149,14.959,15.800,-7.710,-6.580
160,33478.767000,249.094,54.028,13.526,400.600,288.906,11.017,12.800,-10.710,-8.580
161,33478.807000,248.108,55.037,12.524,402.366,291.539,12.101,3.800,-5.710,-7.580
162,33478.847000,248.108,53.018,15.530,397.953,287.139,9.958,-14.200,-1.710,-9.580
163,33478.887000,248.108,53.018,15.530,398.840,288.064,11.977,-18.200,2.290,-11.580
164,33478.907000,247.121,53.018,14.528,396.202,290.695,13.047,-10.200,2.290,-10.580
165,33478.943000,245.148,55.037,13.526,399.721,288.933,12.008,-12.200,-5.710,-18.580
166,33478.987000,247.121,54.028,16.532,397.954,289.743,10.042,-10.200,-8.710,-16.580
167,33479.27000,246.135,52.008,12.524,396.191,288.006,9.980,-24.200,-6.710,-15.580
168,33479.67000,245.148,55.037,17.534,397.967,295.036,13.193,-10.200,-2.710,-17.580
169,33479.108000,246.135,54.028,17.534,397.955,290.611,10.071,-6.200,-12.710,-18.580
170,33479.144000,246.135,55.037,12.524,398.845,291.565,13.083,-27.200,-8.710,-19.580
171,33479.168000,245.148,56.047,13.526,395.332,298.562,15.285,-11.200,0.290,-18.580
172,33479.204000,247.121,57.057,16.532,396.211,295.959,15.204,-6.200,-4.710,-17.580
173,33479.245000,247.121,54.028,12.524,395.327,299.374,13.326,-36.200,-9.710,-20.580
174,33479.285000,245.148,53.018,13.526,397.092,295.092,15.178,-24.200,-9.710,-23.580
175,33479.327000,245.148,55.037,15.530,396.204,294.167,13.159,-28.200,-22.710,-28.580
176,33479.367000,246.135,57.057,13.526,395.330,295.090,15.173,-41.200,-21.710,-23.580
177,33479.388000,245.148,56.047,13.526,396.208,298.507,13.300,-21.200,-11.710,-20.580
178,33479.428000,247.121,56.047,12.524,397.092,299.403,14.325,-18.200,-11.710,-22.580
179,33479.473000,246.135,56.047,13.526,390.918,296.739,12.233,-4.200,-3.710,-17.580
180,33479.507000,245.148,57.057,15.530,392.694,300.325,16.327,8.800,-8.710,-13.580
181,33479.548000,247.121,56.047,15.530,390.930,297.719,16.237,-4.200,89.290,11.420
182,33479.587000,244.162,54.028,19.538,392.691,296.853,16.214,7.800,-10.710,-20.580
183,33479.627000,245.148,59.077,17.534,391.806,295.956,15.189,-92.200,-25.710,-44.580
184,33479.647000,246.135,46.959,10.521,392.693,299.457,16.299,-242.200,-107.710,-68.580
185,33479.687000,246.135,47.968,7.515,393.580,296.938,19.199,-318.200,-144.710,-89.580
186,33479.727000,242.189,65.136,12.524,391.827,304.777,20.441,-127.200,1.290,-56.580
187,33479.767000,253.040,73.215,3.507,391.842,302.342,26.320,-198.200,168.290,-45.580
188,33479.807000,239.229,65.136,25.550,389.221,296.517,35.059,-172.200,251.290,162.420
189,33479.851000,239.229,66.146,42.583,395.392,295.710,37.039,326.800,198.290,246.420
190,33479.867000,242.189,56.047,39.577,397.141,292.995,32.984,184.800,-32.710,258.420
191,33479.907000,231.337,62.107,39.577,401.526,285.045,27.775,320.800,-220.710,318.420
192,33479.947000,240.216,43.929,24.548,407.654,279.504,15.699,61.800,-411.710,228.420
193,33479.988000,247.121,46.959,29.558,412.024,277.433,3.730,-19.200,-562.710,197.420
194,33480.28000,258.960,36.860,12.524,416.392,274.494,-8.267,159.800,-766.710,262.420
195,33480.64000,274.744,46.959,-9.519,416.341,266.231,-24.423,165.800,-797.710,295.420
196,33480.104000,278.690,82.304,-30.560,423.344,259.766,-38.512,282.800,-513.710,599.420
197,33480.124000,310.258,64.126,-44.587,433.897,242.357,-41.030,584.800,253.290,813.420
198,33480.168000,237.256,60.087,-19.538,447.133,221.033,-28.770,704.800,879.290,980.420
199,33480.208000,131.699,231.763,-218.928,450.640,206.224,-31.226,2012.800,374.290,341.420
200,33480.248000,159.322,298.414,-388.258,451.411,210.305,-70.810,3230.800,-955.710,-600.580
201,33480.288000,261.919,312.552,-233.957,421.244,218.502,-148.094,1759.800,-2807.710,-1224.580
202,33480.328000,361.557,145.925,-183.859,369.936,243.931,-228.859,-356.200,-3983.710,-1707.580
203,33480.365000,274.744,-11.613,-91.679,324.928,266.377,-262.036,-1217.200,-3767.710,-2028.580
204,33480.393000,229.364,-130.777,-68.634,255.263,313.024,-297.487,-656.200,-2624.710,-1936.580
205,33480.428000,203.715,-164.103,17.534,208.537,329.003,-313.999,-139.200,-1220.710,-1007.580
206,33480.469000,151.430,27.771,-74.646,188.276,326.412,-313.155,-513.200,-290.710,-693.580
207,33480.509000,215.553,-69.176,48.595,199.802,342.664,-290.744,-290.200,1219.290,-296.580
208,33480.549000,498.682,11.613,-152.798,213.084,353.682,-269.492,-631.200,2017.290,82.420
209,33480.585000,339.854,120.679,14.528,238.696,352.612,-246.605,-343.200,2121.290,186.420
210,33480.607000,261.919,73.215,-46.591,253.772,358.789,-212.595,-886.200,1213.290,95.420
211,33480.647000,238.243,187.329,-6.513,258.241,365.459,-191.511,-736.200,733.290,17.420
212,33480.687000,213.580,168.142,-47.593,263.565,366.697,-178.545,-343.200,628.290,123.420
213,33480.728000,259.946,66.146,-103.703,278.575,363.603,-165.689,-482.200,733.290,468.420
214,33480.769000,227.391,89.373,-44.587,292.730,363.336,-144.799,-606.200,541.290,343.420
215,33480.808000,232.324,73.215,-9.519,294.544,365.581,-126.847,-1227.200,-105.710,247.420
216,33480.848000,233.310,58.067,-23.546,294.575,372.778,-117.676,-988.200,-341.710,-13.580
217,33480.868000,206.674,95.432,-39.577,287.570,381.819,-104.496,-1004.200,-445.710,-142.580
218,33480.909000,218.513,140.876,-36.571,282.324,389.097,-92.361,-772.200,-231.710,-134.580
219,33480.949000,220.486,113.609,-55.609,282.340,388.398,-86.426,19.800,373.290,-135.580
220,33480.989000,212.593,121.688,10.521,277.046,392.622,-90.278,229.800,389.290,-158.580
221,33481.29000,205.688,129.767,-5.511,278.807,386.575,-89.475,328.800,237.290,-255.580
222,33481.69000,244.162,120.679,-41.581,274.404,393.488,-90.258,500.800,322.290,-256.580
223,33481.89000,205.688,96.442,-61.620,270.855,396.676,-100.096,566.800,294.290,-265.580
224,33481.129000,208.647,169.152,4.509,263.801,396.614,-102.106,301.800,54.290,-320.580
225,33481.169000,221.472,132.797,-49.597,260.260,396.443,-108.081,599.800,199.290,-244.580
226,33481.209000,204.701,125.728,-18.536,255.833,396.214,-116.047,805.800,255.290,-254.580
227,33481.245000,196.809,122.698,-10.521,249.618,395.731,-132.963,638.800,-38.710,-342.580
228,33481.285000,238.243,130.777,-39.577,240.784,392.895,-141.028,491.800,-243.710,-419.580
229,33481.327000,231.337,127.748,-48.595,234.580,400.280,-155.703,525.800,-269.710,-413.580
230,33481.347000,256.000,131.787,3.507,222.201,398.952,-171.673,746.800,-356.710,-450.580
231,33481.388000,311.245,78.264,-20.540,208.040,398.294,-194.579,954.800,-591.710,-623.580
232,33481.428000,356.624,20.702,-32.564,189.451,392.228,-224.625,1483.800,-641.710,-674.580
233,33481.469000,426.667,-112.600,-30.560,171.664,367.286,-278.120,3071.800,-498.710,-561.580
234,33481.509000,357.611,154.004,30.560,146.909,340.552,-302.898,1141.800,-1564.710,-435.580
235,33481.549000,277.703,195.408,-34.568,125.729,343.614,-316.769,92.800,-1602.710,-5.580
236,33481.570000,169.187,26.761,-54.607,117.812,347.165,-313.700,-36.200,-807.710,606.420
237,33481.605000,119.861,-42.919,14.528,153.900,324.482,-319.285,1047.800,809.290,1571.420
238,33481.650000,64.617,19.692,-67.632,192.642,301.914,-320.886,964.800,1866.290,2302.420
239,33481.692000,141.565,46.959,-87.671,264.956,281.169,-289.552,-339.200,2755.290,2657.420
240,33481.727000,196.809,175.211,-155.804,331.202,262.272,-223.423,-1653.200,3067.290,2434.420
241,33481.768000,300.393,263.069,-257.002,381.651,255.155,-139.088,-3095.200,2693.290,2017.420
242,33481.808000,259.946,288.316,-236.963,399.415,256.604,-88.341,-3359.200,1380.290,1110.420
243,33481.828000,226.405,214.596,-161.816,413.650,251.107,-37.832,-2247.200,779.290,463.420
244,33481.868000,154.389,181.270,-345.174,410.173,253.291,-21.884,-882.200,1.290,-77.580
245,33481.908000,269.811,166.122,171.836,401.389,272.494,-17.317,494.800,554.290,-665.580
246,33481.948000,315.191,-2.525,-8.517,392.600,280.440,-12.122,-627.200,724.290,-515.580
247,33481.987000,263.892,83.314,-31.562,384.758,287.327,16.873,-470.200,1110.290,-309.580
248,33482.27000,275.730,38.880,-13.526,380.450,291.725,49.770,-631.200,1044.290,-131.580
249,33482.47000,215.553,26.761,137.769,376.077,292.900,60.717,511.800,876.290,-128.580
250,33482.87000,243.175,62.107,63.624,369.921,296.452,63.792,-251.200,-2.710,-349.580
251,33482.127000,243.175,61.097,34.568,369.048,302.556,64.980,49.800,60.290,-273.580
252,33482.167000,229.364,61.097,68.634,367.295,306.951,67.103,-233.200,-87.710,-242.580
253,33482.207000,235.283,55.037,46.591,359.372,307.869,69.093,-547.200,-309.710,-301.580
254,33482.247000,255.013,56.047,9.519,357.619,311.396,71.188,-217.200,-94.710,-194.580
255,33482.287000,244.162,70.185,43.585,358.501,313.133,71.247,-239.200,3.290,-109.580
256,33482.307000,237.256,66.146,41.581,356.750,308.932,76.070,-280.200,-12.710,-34.580
257,33482.352000,240.216,63.116,46.591,355.874,307.252,77.999,-237.200,-103.710,29.420
258,33482.387000,237.256,79.274,55.609,358.524,309.914,80.080,-116.200,-186.710,85.420
259,33482.427000,252.054,71.195,47.593,362.916,311.513,75.181,-189.200,-374.710,109.420
260,33482.467000,247.121,67.156,52.603,364.653,305.241,68.032,-139.200,-559.710,196.420
261,33482.512000,258.960,92.402,65.628,374.307,301.438,56.024,-1.200,-795.710,200.420
262,33482.527000,303.353,67.156,50.599,376.904,300.121,40.101,-62.200,-770.710,-24.580
263,33482.567000,278.690,102.501,27.554,378.609,296.115,21.110,787.800,-499.710,103.420
264,33482.608000,196.809,90.383,44.587,382.140,302.222,22.313,21.800,74.290,-58.580
265,33482.647000,228.378,109.570,81.659,377.816,303.875,50.156,-1238.200,822.290,-424.580
266,33482.689000,254.027,71.195,76.650,370.898,306.874,94.916,-1718.200,1164.290,-457.580
267,33482.732000,233.310,47.968,51.601,363.094,300.352,140.357,-1673.200,1218.290,-351.580
268,33482.767000,207.661,29.791,41.581,360.527,299.374,167.128,-1062.200,1062.290,-125.580
269,33482.790000,204.701,8.584,18.536,352.669,288.873,194.565,-638.200,940.290,-81.580
270,33482.828000,210.620,-38.880,-23.546,345.667,292.763,209.564,46.800,773.290,-101.580
271,33482.869000,223.445,-16.663,-57.613,346.562,292.904,214.536,455.800,441.290,61.420
272,33482.909000,239.229,25.751,-26.552,345.678,292.007,213.512,275.800,19.290,94.420
273,33482.963000,236.270,61.097,123.742,350.070,298.786,207.788,477.800,83.290,-4.580
274,33482.988000,243.175,126.738,93.683,354.458,306.375,200.104,224.800,-263.710,-6.580
275,33483.32000,301.380,-5.554,47.593,362.361,298.372,192.919,-147.200,-572.710,-103.580
276,33483.50000,228.378,123.708,67.632,364.113,303.440,188.124,-460.200,-722.710,-386.580
277,33483.89000,241.202,88.363,57.613,367.623,296.415,184.928,-205.200,-528.710,-165.580
278,33483.132000,262.906,57.057,31.562,368.481,299.634,176.098,4.800,-485.710,6.420
279,33483.172000,252.054,64.126,35.569,372.860,299.383,167.167,193.800,-382.710,99.420
280,33483.208000,223.445,71.195,65.628,379.880,299.975,157.279,425.800,-305.710,219.420
281,33483.248000,233.310,65.136,46.591,386.907,302.359,149.435,495.800,-351.710,250.420
282,33483.268000,245.148,62.107,26.552,392.153,299.392,136.447,388.800,-376.710,246.420
283,33483.308000,239.229,61.097,34.568,399.166,297.323,124.486,356.800,-307.710,275.420
284,33483.348000,235.283,71.195,42.583,407.057,292.651,112.444,226.800,-401.710,297.420
285,33483.388000,241.202,33.830,21.542,408.792,283.775,105.211,153.800,-482.710,312.420
286,33483.428000,240.216,56.047,32.564,418.441,279.916,91.214,335.800,-530.710,347.420
287,33483.468000,256.987,54.028,26.552,427.204,270.848,77.046,372.800,-584.710,409.420
288,33483.508000,250.081,53.018,26.552,432.430,262.505,57.926,506.800,-604.710,464.420
289,33483.528000,269.811,43.929,3.507,442.944,257.637,38.935,292.800,-667.710,470.420
290,33483.568000,283.622,40.899,-1.503,449.956,247.813,28.708,355.800,-586.710,459.420
291,33483.608000,329.988,47.968,9.519,459.599,233.566,15.368,647.800,-199.710,714.420
292,33483.649000,238.243,128.757,-54.607,463.985,219.596,11.950,1272.800,256.290,582.420
293,33483.689000,158.335,165.112,-197.886,467.483,221.921,2.107,2146.800,477.290,142.420
294,33483.729000,182.998,184.300,-203.898,465.658,228.188,-21.528,2281.800,-316.710,-340.580
295,33483.749000,200.755,210.556,-199.890,452.303,233.686,-72.035,1303.800,-1452.710,-867.580
296,33483.789000,277.703,174.201,-152.798,425.701,250.903,-137.099,450.800,-2324.710,-1475.580
297,33483.829000,296.447,130.777,-119.734,384.134,275.978,-199.970,492.800,-2593.710,-1664.580
298,33483.872000,253.040,68.166,-104.704,347.053,300.138,-234.059,720.800,-2248.710,-1870.580
299,33483.912000,243.175,13.633,-91.679,293.179,306.502,-283.675,1041.800,-1721.710,-1732.580
300,33483.952000,241.202,1.515,-76.650,248.149,307.191,-319.544,948.800,-1309.710,-1381.580
301,33483.992000,213.580,-49.988,-8.517,218.137,306.578,-340.513,582.800,-671.710,-1106.580
302,33484.12000,174.119,2.525,-48.595,211.080,309.064,-344.427,423.800,366.290,-703.580
303,33484.52000,238.243,-52.008,59.616,219.928,319.796,-333.128,-480.200,1345.290,-376.580
304,33484.92000,349.719,132.797,-282.051,237.601,323.788,-315.068,35.800,1501.290,-285.580
305,33484.132000,291.514,139.866,-53.605,246.457,329.425,-299.961,38.800,1126.290,-241.580
306,33484.172000,308.285,116.639,-40.579,250.071,344.104,-271.670,-1184.200,662.290,-212.580
307,33484.210000,252.054,39.890,-96.689,252.765,348.057,-254.652,-913.200,623.290,-136.580
308,33484.250000,204.701,121.688,-87.671,254.588,362.453,-236.305,-921.200,521.290,-112.580
309,33484.270000,226.405,182.280,-31.562,259.066,369.209,-212.240,-837.200,632.290,-5.580
310,33484.310000,235.283,130.777,-35.569,265.279,371.400,-196.261,-119.200,854.290,5.420
311,33484.352000,247.121,116.639,-28.556,268.827,373.364,-188.242,154.800,708.290,15.420
312,33484.389000,231.337,109.570,-24.548,272.350,375.942,-189.140,338.800,547.290,-63.580
313,33484.429000,182.998,139.866,-39.577,274.997,369.952,-186.347,436.800,372.290,-128.580
314,33484.469000,206.674,132.797,-49.597,274.087,365.358,-195.436,710.800,378.290,-187.580
315,33484.489000,190.890,122.698,-73.644,274.073,369.529,-201.259,821.800,420.290,-257.580
316,33484.530000,192.863,117.649,-70.638,275.815,361.578,-206.476,548.800,391.290,-300.580
317,33484.570000,185.958,122.698,-49.597,267.870,362.271,-212.437,430.800,88.290,-415.580
318,33484.610000,235.283,124.718,-43.585,261.682,368.089,-221.205,466.800,58.290,-480.580
319,33484.650000,211.607,140.876,-32.564,246.684,364.409,-228.323,571.800,-109.710,-554.580
320,33484.692000,304.339,106.540,-15.530,239.620,369.415,-235.134,353.800,-294.710,-556.580
321,33484.732000,322.096,80.284,-15.530,227.245,370.719,-250.027,661.800,-323.710,-570.580
322,33484.752000,346.759,11.613,-28.556,206.907,355.300,-273.431,1539.800,-391.710,-518.580
323,33484.792000,347.746,-26.761,-64.626,191.796,328.963,-315.047,2506.800,-508.710,-412.580
324,33484.833000,327.029,111.590,-31.562,178.521,316.294,-333.374,1277.800,-899.710,-366.580
325,33484.869000,246.135,256.000,-66.630,140.596,309.796,-347.608,127.800,-1666.710,-272.580
326,33484.914000,209.634,-108.560,109.714,120.317,313.924,-354.490,113.800,-869.710,191.420
327,33484.949000,149.457,28.781,30.560,142.244,269.892,-378.688,2308.800,465.290,1361.420
328,33484.969000,104.077,94.422,-10.521,192.460,238.934,-370.594,571.800,1589.290,2091.420
329,33485.9000,157.349,162.083,-46.591,229.524,237.005,-347.699,-1233.200,2035.290,2294.420
330,33485.53000,214.566,179.250,-85.667,286.975,251.842,-284.475,-3032.200,2336.290,2265.420
331,33485.93000,298.420,299.424,-77.652,338.334,272.586,-196.254,-4493.200,2133.290,2203.420
332,33485.133000,316.177,313.562,-78.654,380.000,275.207,-104.681,-4919.200,1619.290,1848.420
333,33485.173000,256.000,250.951,-82.661,395.122,277.523,-53.915,-3535.200,1198.290,1054.420
334,33485.213000,225.418,228.734,-108.712,407.590,268.524,-4.517,-1599.200,1024.290,646.420
335,33485.229000,168.200,225.704,-128.751,412.084,266.825,27.218,-1094.200,641.290,71.420
336,33485.274000,164.254,110.580,-83.663,409.494,269.934,45.184,-762.200,-63.710,-382.580
337,33485.309000,206.674,74.225,-245.980,407.700,276.510,32.483,314.800,-554.710,-828.580
338,33485.349000,298.420,140.876,11.523,393.602,295.427,27.094,259.800,-1.710,-800.580
339,33485.389000,328.015,-23.732,-50.599,386.566,307.602,28.459,-289.200,58.290,-484.580
340,33485.429000,256.000,114.619,29.558,382.202,316.617,40.654,-253.200,697.290,-228.580
341,33485.453000,264.879,40.899,-8.517,377.843,317.064,56.542,105.800,878.290,-8.580
342,33485.489000,230.351,43.929,6.513,372.593,315.691,69.390,163.800,780.290,45.420
343,33485.533000,229.364,55.037,36.571,372.612,315.020,76.319,304.800,686.290,68.420
344,33485.574000,240.216,53.018,68.634,370.857,309.923,80.120,79.800,421.290,-1.580
345,33485.614000,242.189,68.166,55.609,365.595,311.013,88.082,15.800,173.290,0.420
346,33485.654000,243.175,71.195,25.550,370.886,314.517,89.206,121.800,252.290,105.420
347,33485.694000,230.351,66.146,78.654,370.014,315.469,92.213,113.800,298.290,196.420
348,33485.714000,220.486,70.185,76.650,374.421,310.320,94.046,-92.200,71.290,202.420
349,33485.750000,201.742,116.639,89.675,374.421,302.565,95.780,-529.200,-167.710,213.420
350,33485.794000,242.189,60.087,76.650,381.474,291.427,100.406,-883.200,-526.710,316.420
351,33485.830000,229.364,109.570,96.689,394.664,277.407,95.029,-1149.200,-1115.710,361.420
352,33485.870000,289.541,113.609,25.550,402.548,263.187,82.677,-1271.200,-1787.710,230.420
353,33485.914000,355.638,155.014,90.677,413.933,251.320,61.475,-1222.200,-2011.710,145.420
354,33485.934000,240.216,217.625,78.654,421.869,249.674,64.426,-3662.200,-1432.710,-303.580
355,33485.974000,188.917,183.290,100.697,418.412,249.480,88.241,-2893.200,-254.710,-805.580
356,33486.14000,236.270,89.373,79.656,407.945,248.778,124.925,-1479.200,1287.290,-714.580
357,33486.53000,281.649,38.880,39.577,391.343,253.562,171.698,-668.200,2112.290,-530.580
358,33486.90000,287.568,-2.525,39.577,369.454,260.918,217.544,246.800,2529.290,-382.580
359,33486.132000,256.987,48.978,-48.595,358.076,269.397,241.614,-94.200,2070.290,-523.580
360,33486.173000,245.148,3.535,-31.562,334.384,273.753,273.455,-263.200,1736.290,-476.580
361,33486.193000,239.229,-34.840,-73.644,313.319,275.366,300.251,-255.200,1286.290,-454.580
362,33486.232000,220.486,-4.544,-110.716,305.409,285.889,304.539,-86.200,140.290,-321.580
363,33486.275000,323.083,-146.935,314.113,311.575,288.470,303.650,83.800,-260.710,-78.580
364,33486.313000,259.946,-75.235,105.706,312.429,298.548,292.064,948.800,128.290,279.420
365,33486.353000,275.730,29.791,141.777,325.610,302.532,279.326,687.800,-532.710,116.420
366,33486.392000,241.202,151.984,81.659,338.792,300.495,268.379,-369.200,-1007.710,-187.580
367,33486.434000,211.607,109.570,58.614,348.461,294.258,262.250,-611.200,-878.710,-208.580
368,33486.454000,272.771,67.156,22.544,359.896,294.965,256.352,-599.200,-807.710,-207.580
369,33486.493000,269.811,90.383,21.542,365.168,294.828,251.399,-308.200,-620.710,-156.580
370,33486.533000,232.324,82.304,59.616,372.194,292.900,244.408,-31.200,-403.710,-3.580
371,33486.570000,220.486,82.304,78.654,377.442,287.358,232.329,274.800,-339.710,161.420
372,33486.615000,236.270,72.205,63.624,381.838,290.720,228.480,481.800,-348.710,227.420
373,33486.655000,236.270,73.215,49.597,388.841,287.699,213.510,430.800,-294.710,257.420
374,33486.670000,239.229,69.176,48.595,392.337,283.976,204.464,435.800,-150.710,275.420
375,33486.710000,226.405,86.343,64.626,402.010,287.258,197.650,354.800,-203.710,291.420
376,33486.750000,240.216,63.116,47.593,408.162,287.121,192.700,299.800,-307.710,272.420
377,33486.791000,250.081,53.018,46.591,414.291,285.892,179.771,363.800,-349.710,240.420
378,33486.833000,237.256,73.215,44.587,418.658,283.793,166.808,451.800,-381.710,209.420
379,33486.873000,256.000,66.146,40.579,427.427,282.537,152.894,400.800,-427.710,241.420
380,33486.913000,256.987,63.116,41.581,430.036,275.313,142.738,536.800,-461.710,296.420
381,33486.933000,261.919,70.185,28.556,441.437,273.946,124.856,552.800,-484.710,300.420
382,33486.973000,292.501,86.343,14.528,449.320,262.302,111.595,571.800,-207.710,589.420
383,33487.13000,217.526,152.994,-92.681,454.591,261.297,106.614,803.800,152.290,469.420
384,33487.52000,182.998,220.655,-325.135,452.756,273.499,78.207,2229.800,222.290,63.420
385,33487.97000,195.823,213.586,-271.029,443.812,289.388,27.059,4000.800,-823.710,-585.580
386,33487.132000,250.081,225.704,-209.910,423.314,306.858,-59.823,2437.800,-2182.710,-961.580
387,33487.152000,271.784,144.915,-149.793,381.687,322.718,-141.860,1324.800,-2912.710,-1218.580
388,33487.192000,237.256,87.353,-82.661,326.871,327.622,-212.379,1631.800,-2552.710,-1466.580
389,33487.232000,232.324,94.422,-34.568,294.171,327.424,-249.231,1741.800,-1913.710,-1392.580
390,33487.272000,242.189,86.343,-0.501,246.485,325.395,-289.169,1433.800,-1304.710,-1164.580
391,33487.312000,197.796,72.205,23.546,219.125,325.736,-307.120,692.800,-487.710,-1047.580
392,33487.352000,199.769,18.682,116.728,207.671,327.435,-308.094,225.800,430.290,-873.580
393,33487.392000,202.728,13.633,14.528,211.216,328.503,-301.097,279.800,1712.290,-475.580
394,33487.412000,353.665,-103.511,-84.665,219.206,331.704,-280.115,-631.200,1423.290,-663.580
395,33487.452000,323.083,94.422,-100.697,229.857,343.700,-254.867,-1228.200,932.290,-219.580
396,33487.492000,239.229,150.974,-40.579,229.094,362.102,-217.532,-1102.200,795.290,-128.580
397,33487.537000,196.809,202.477,-30.560,238.824,370.259,-205.320,-142.200,1040.290,-175.580
398,33487.572000,267.838,140.876,-56.611,245.037,375.026,-190.250,-121.200,1199.290,109.420
399,33487.617000,255.013,104.521,-59.616,259.170,372.827,-176.375,451.800,1499.290,154.420
400,33487.632000,215.553,80.284,-56.611,274.166,365.279,-167.634,602.800,1245.290,179.420
401,33487.674000,205.688,112.600,-18.536,277.685,358.338,-167.848,795.800,901.290,114.420
402,33487.713000,193.850,130.777,-21.542,282.955,353.021,-171.976,780.800,488.290,-89.580
403,33487.754000,196.809,131.787,-42.583,280.283,343.246,-180.246,770.800,368.290,-151.580
404,33487.794000,199.769,158.043,-20.540,279.398,345.793,-182.152,272.800,219.290,-243.580
405,33487.834000,236.270,126.738,-37.573,275.862,349.121,-187.020,445.800,174.290,-257.580
406,33487.874000,257.973,98.462,-34.568,273.209,350.743,-190.948,609.800,158.290,-238.580
407,33487.894000,267.838,86.343,1.503,271.417,347.856,-200.977,453.800,-128.710,-307.580
408,33487.934000,281.649,80.284,5.511,253.764,350.949,-213.842,369.800,-729.710,-464.580
409,33487.974000,316.177,-9.594,-20.540,241.354,346.735,-239.837,694.800,-1114.710,-401.580
410,33488.14000,353.665,9.594,55.609,218.315,322.128,-281.422,1975.800,-1109.710,-196.580
411,33488.54000,346.759,123.708,74.646,198.003,323.342,-299.321,232.800,-1830.710,-691.580
412,33488.95000,378.328,109.570,-18.536,156.579,331.738,-308.118,-355.200,-1897.710,-578.580
413,33488.135000,254.027,142.895,-54.607,125.717,334.010,-319.066,122.800,-1727.710,-14.580
414,33488.159000,195.823,-62.107,40.579,130.937,314.411,-337.560,1179.800,-113.710,831.420
415,33488.194000,104.077,7.574,-1.503,157.312,284.608,-349.365,2160.800,1402.290,1706.420
416,33488.234000,96.185,17.673,5.511,222.513,248.566,-337.417,109.800,2650.290,2291.420
417,33488.274000,201.742,99.471,-38.575,296.660,237.149,-282.935,-1477.200,3305.290,2385.420
418,33488.314000,315.191,179.250,-107.710,363.002,237.297,-187.391,-2756.200,3828.290,2233.420
419,33488.354000,401.017,337.799,-195.883,397.551,240.946,-120.631,-3533.200,3328.290,1664.420
420,33488.374000,248.108,279.227,-339.162,418.087,237.645,-23.359,-3497.200,2435.290,565.420
421,33488.414000,157.349,287.306,-295.076,423.521,234.802,29.194,-1670.200,1269.290,264.420
422,33488.454000,120.848,141.886,-228.947,417.367,245.270,31.500,76.800,-274.710,-557.580
423,33488.494000,250.081,-76.245,27.554,414.744,252.352,36.687,800.800,601.290,-352.580
424,33488.533000,366.489,203.487,0.501,402.426,269.732,38.204,-889.200,-318.710,-1248.580
425,33488.573000,270.798,-2.525,40.579,397.171,276.925,47.358,-417.200,59.290,-700.580
426,33488.613000,272.771,18.682,-1.503,383.977,289.180,51.685,-61.200,136.290,-500.580
427,33488.637000,244.162,26.761,36.571,380.468,293.630,55.790,160.800,262.290,-357.580
428,33488.674000,241.202,55.037,41.581,375.175,298.722,51.966,36.800,197.290,-357.580
429,33488.717000,243.175,58.067,51.601,370.779,303.115,54.081,262.800,240.290,-245.580
430,33488.753000,244.162,59.077,61.620,365.510,313.612,57.384,170.800,150.290,-183.580
431,33488.798000,248.108,50.998,42.583,364.635,318.847,58.544,43.800,121.290,-141.580
432,33488.833000,246.135,55.037,39.577,365.506,312.715,56.361,109.800,197.290,-93.580
433,33488.853000,232.324,64.126,67.632,358.473,317.163,60.455,27.800,179.290,-32.580
434,33488.893000,231.337,72.205,72.642,360.237,316.324,61.427,-57.200,19.290,48.420
435,33488.933000,214.566,93.412,81.659,361.988,309.325,59.219,-86.200,-107.710,104.420
436,33488.973000,181.025,160.063,130.755,369.040,314.538,59.411,-358.200,-358.710,98.420
437,33489.18000,156.362,161.073,132.759,367.278,311.093,60.286,-1027.200,-880.710,122.420
438,33489.53000,273.757,16.663,63.624,377.807,296.035,48.909,-701.200,-1463.710,303.420
439,33489.94000,330.975,127.748,70.638,384.784,291.892,24.965,-870.200,-1736.710,54.420
440,33489.114000,264.879,228.734,18.536,388.300,289.235,22.904,-1788.200,-1292.710,-12.580
441,33489.154000,150.443,296.394,122.740,389.210,298.141,31.140,-1617.200,-362.710,-528.580
442,33489.193000,234.297,97.452,70.638,377.885,301.976,74.919,-1944.200,914.290,-815.580
443,33489.233000,250.081,97.452,54.607,361.280,305.863,120.670,-1115.200,1544.290,-707.580
444,33489.275000,258.960,77.254,17.534,347.316,303.705,167.226,-1166.200,1716.290,-670.580
445,33489.318000,242.189,31.811,2.505,335.058,307.032,193.112,-824.200,1530.290,-555.580
446,33489.333000,222.459,1.515,-26.552,318.413,307.081,225.829,-398.200,1249.290,-527.580
447,33489.375000,206.674,12.623,-29.558,307.026,306.853,248.624,-650.200,792.290,-538.580
448,33489.417000,214.566,-23.732,-45.589,303.556,296.186,270.113,-1391.200,84.290,-424.580
449,33489.457000,284.609,-9.594,-25.550,304.463,300.752,278.208,-1051.200,-276.710,-343.580
450,33489.498000,264.879,25.751,141.777,307.127,288.044,288.727,-623.200,69.290,-226.580
451,33489.534000,244.162,-9.594,194.881,308.019,287.289,292.677,-581.200,-310.710,-214.580
452,33489.575000,277.703,-26.761,103.703,321.202,286.989,281.787,150.800,-741.710,-23.580
453,33489.597000,237.256,118.659,99.695,332.617,285.763,268.875,155.800,-997.710,-220.580
454,33489.635000,229.364,115.629,37.573,342.294,275.298,266.580,-1395.200,-1117.710,-484.580
455,33489.675000,270.798,78.264,28.556,348.450,279.502,261.771,-207.200,-630.710,-188.580
456,33489.715000,250.081,72.205,55.609,353.713,276.704,254.746,-208.200,-394.710,-77.580
457,33489.755000,214.566,87.353,86.669,355.460,278.272,248.845,142.800,-344.710,3.420
458,33489.794000,210.620,83.314,91.679,362.487,281.524,241.029,391.800,-476.710,156.420
459,33489.814000,225.418,76.245,60.618,369.494,280.267,227.109,302.800,-426.710,134.420
460,33489.854000,263.892,56.047,28.556,377.395,276.547,218.076,200.800,-360.710,169.420
461,33489.895000,237.256,71.195,52.603,383.527,271.902,207.022,297.800,-219.710,201.420
462,33489.935000,235.283,63.116,60.618,386.155,271.763,202.061,410.800,-177.710,242.420
463,33489.975000,239.229,64.126,60.618,393.180,274.987,193.252,499.800,-212.710,274.420
464,33490.15000,238.243,57.057,55.609,401.076,272.947,182.288,464.800,-333.710,257.420
465,33490.55000,239.229,74.225,55.609,403.678,271.686,168.353,304.800,-479.710,301.420
466,33490.75000,250.081,58.067,43.585,417.727,269.510,152.440,575.800,-524.710,347.420
467,33490.115000,256.987,49.988,26.552,426.489,258.706,138.216,543.800,-607.710,324.420
468,33490.162000,256.987,86.343,15.530,435.241,252.969,119.191,600.800,-734.710,369.420
469,33490.197000,263.892,124.718,16.532,442.237,255.911,100.442,583.800,-311.710,532.420
470,33490.237000,228.378,175.211,-96.689,444.839,262.406,84.773,1711.800,361.290,220.420
471,33490.278000,174.119,252.970,-306.098,438.594,270.237,55.217,4191.800,76.290,-437.580
472,33490.298000,211.607,273.168,-262.012,426.065,299.307,-20.340,3148.800,-1421.710,-947.580
473,33490.338000,282.636,131.787,-165.824,389.717,318.558,-105.229,1601.800,-2614.710,-1406.580
474,33490.378000,279.676,106.540,-126.748,336.665,333.823,-177.392,1608.800,-2657.710,-1629.580
475,33490.418000,234.297,69.176,-56.611,299.535,333.368,-223.203,2123.800,-2053.710,-1583.580
476,33490.458000,255.013,37.870,-18.536,255.328,324.003,-277.270,1886.800,-1393.710,-1288.580
477,33490.498000,231.337,62.107,-17.534,225.273,310.900,-310.560,1664.800,-527.710,-1086.580
478,33490.537000,214.566,3.535,76.650,211.132,303.551,-324.746,1163.800,275.290,-902.580
479,33490.557000,221.472,-19.692,98.693,218.186,296.725,-320.973,821.800,1458.290,-475.580
480,33490.597000,209.634,227.724,-201.894,226.151,303.117,-309.817,-456.200,1304.290,-668.580
481,33490.645000,259.946,21.712,-62.622,232.397,315.109,-284.583,-346.200,1400.290,-262.580
482,33490.675000,295.461,146.935,-27.554,238.658,328.111,-254.352,-1214.200,803.290,-95.580
483,33490.715000,205.688,100.481,-66.630,247.539,337.445,-231.181,-771.200,888.290,-203.580
484,33490.755000,233.310,147.945,-50.599,249.358,353.521,-214.766,-702.200,749.290,-198.580
485,33490.795000,243.175,150.974,-33.566,251.176,360.105,-196.673,-242.200,812.290,-90.580
486,33490.815000,247.121,95.432,-31.562,261.760,361.962,-192.607,630.800,904.290,-118.580
487,33490.855000,221.472,105.531,-19.538,265.268,355.776,-196.768,789.800,721.290,-141.580
488,33490.895000,194.836,123.708,-43.585,259.092,351.375,-198.917,674.800,326.290,-240.580
489,33490.935000,180.039,133.807,-54.607,253.790,347.758,-204.016,689.800,168.290,-322.580
490,33490.975000,193.850,128.757,-79.656,251.991,343.947,-216.061,519.800,42.290,-361.580
491,33491.15000,205.688,90.383,-82.661,246.682,343.718,-224.030,542.800,24.290,-399.580
492,33491.35000,213.580,122.698,-57.613,235.207,342.616,-232.046,304.800,-159.710,-486.580
493,33491.77000,252.054,118.659,-29.558,228.150,352.858,-237.694,454.800,-276.710,-527.580
494,33491.115000,289.541,107.550,5.511,212.254,350.744,-250.723,440.800,-587.710,-588.580
495,33491.155000,333.935,104.521,12.524,192.819,350.195,-269.670,608.800,-848.710,-594.580
496,33491.197000,397.071,-57.057,-50.599,169.780,317.832,-309.520,2575.800,-716.710,-535.580
497,33491.237000,346.759,130.777,-15.530,150.316,299.753,-334.994,1691.800,-1265.710,-604.580
498,33491.277000,278.690,130.777,-105.706,123.805,287.718,-361.287,1020.800,-1204.710,-187.580
499,33491.297000,149.457,157.034,-93.683,103.512,280.505,-370.523,-177.200,-1327.710,301.420
500,33491.335000,160.308,109.570,-89.675,99.999,284.059,-367.440,-305.200,-395.710,716.420
501,33491.377000,104.077,-4.544,-35.569,114.977,282.362,-366.454,335.800,537.290,1427.420
502,33491.417000,102.104,30.801,-85.667,163.441,267.867,-358.826,123.800,1538.290,2028.420
503,33491.457000,133.672,121.688,-65.628,220.758,257.245,-337.141,-556.200,2093.290,2084.420
504,33491.497000,182.012,183.290,-103.703,279.057,263.148,-283.141,-2091.200,2324.290,2077.420
505,33491.517000,286.582,235.803,-154.802,332.144,268.912,-203.344,-3537.200,2294.290,2054.420
506,33491.555000,279.676,292.355,-143.781,356.094,276.583,-147.411,-3722.200,1908.290,1591.420
507,33491.600000,256.000,275.187,-133.761,380.971,278.685,-73.782,-3394.200,1495.290,758.420
508,33491.635000,228.378,179.250,-179.851,390.800,286.960,-26.811,-1029.200,1322.290,273.420
509,33491.675000,152.416,258.020,-277.041,389.084,290.853,-11.796,265.800,778.290,-70.580
510,33491.715000,231.337,23.732,138.771,382.924,296.085,-10.653,-76.200,22.290,-471.580
511,33491.755000,265.865,54.028,-61.620,373.243,305.654,-9.380,146.800,135.290,-567.580
512,33491.779000,276.717,11.613,-29.558,372.381,315.314,-5.098,-687.200,-47.710,-485.580
513,33491.817000,244.162,83.314,-2.505,366.258,314.024,10.729,-715.200,271.290,-253.580
514,33491.857000,254.027,74.225,12.524,368.047,319.459,18.855,-208.200,575.290,-20.580
515,33491.897000,256.000,42.919,18.536,364.569,320.775,34.774,-242.200,567.290,63.420
516,33491.937000,250.081,43.929,24.548,362.832,320.159,43.686,23.800,565.290,-11.580
517,33491.979000,237.256,60.087,68.634,360.215,324.723,51.769,-37.200,335.290,-99.580
518,33491.999000,242.189,54.028,45.589,360.215,316.967,53.504,-291.200,146.290,-137.580
519,33492.39000,234.297,68.166,51.601,353.190,316.319,61.404,-307.200,38.290,-112.580
520,33492.79000,243.175,71.195,49.597,353.210,325.140,66.655,-142.200,42.290,-42.580
521,33492.118000,246.135,75.235,38.575,354.105,324.414,71.599,-195.200,87.290,36.420
522,33492.157000,230.351,70.185,63.624,357.629,317.528,73.373,-165.200,-36.710,227.420
523,33492.197000,226.405,72.205,72.642,361.153,314.087,74.266,-320.200,-243.710,175.420
524,33492.239000,233.310,66.146,80.658,366.426,311.374,70.223,-287.200,-453.710,238.420
525,33492.263000,232.324,94.422,88.673,371.675,304.124,59.081,-491.200,-1064.710,268.420
526,33492.298000,266.852,120.679,50.599,379.545,297.519,40.026,-488.200,-1522.710,236.420
527,33492.340000,301.380,177.231,93.683,386.545,286.714,25.795,-812.200,-1591.710,78.420
528,33492.380000,251.067,161.073,0.501,392.688,281.313,18.689,-1231.200,-1145.710,192.420
529,33492.419000,146.497,250.951,109.714,390.074,286.773,27.795,-2631.200,-710.710,-469.580
530,33492.459000,200.755,120.679,105.706,385.784,292.208,66.684,-2178.200,446.290,-502.580
531,33492.479000,263.892,88.363,71.640,381.464,284.426,98.193,-1289.200,1507.290,-397.580
532,33492.520000,280.663,102.501,52.603,368.360,293.271,135.179,-67.200,1865.290,-523.580
533,33492.559000,281.649,74.225,26.552,351.745,309.981,174.395,81.800,1949.290,-818.580
534,33492.598000,251.067,74.225,-38.575,331.575,320.359,204.456,-376.200,1597.290,-727.580
535,33492.637000,256.000,-21.712,-28.556,314.912,307.304,233.769,-727.200,1260.290,-563.580
536,33492.677000,228.378,-35.850,-48.595,307.034,322.449,248.137,-398.200,869.290,-432.580
537,33492.719000,232.324,-1.515,-40.579,300.023,317.630,261.860,-815.200,230.290,-303.580
538,33492.737000,310.258,-17.673,97.691,305.330,309.236,271.535,-1339.200,-471.710,-299.580
539,33492.778000,294.474,-55.037,100.697,310.629,296.445,279.081,-698.200,-312.710,94.420
540,33492.818000,272.771,59.077,91.679,316.762,296.111,267.174,806.800,-368.710,92.420
541,33492.857000,200.755,187.329,104.704,326.422,297.544,256.328,-204.200,-685.710,-112.580
542,33492.898000,207.661,81.294,85.667,331.711,294.133,258.220,-479.200,-690.710,-148.580
543,33492.942000,225.418,76.245,92.681,343.130,283.471,248.974,-356.200,-690.710,-200.580
544,33492.958000,264.879,70.185,30.560,347.543,293.891,249.326,-466.200,-668.710,-198.580
545,33493.0,237.256,85.333,63.624,353.674,291.821,237.363,7.800,-479.710,-45.580
546,33493.42000,220.486,93.412,74.646,360.700,297.649,228.638,170.800,-538.710,49.420
547,33493.83000,229.364,86.343,59.616,368.577,296.280,210.745,339.800,-568.710,162.420
548,33493.118000,232.324,72.205,54.607,373.842,290.906,204.629,304.800,-525.710,211.420
549,33493.158000,235.283,73.215,45.589,382.617,290.575,192.731,301.800,-378.710,225.420
550,33493.204000,247.121,71.195,45.589,390.504,286.714,178.729,308.800,-361.710,219.420
551,33493.219000,235.283,64.126,42.583,398.416,288.287,172.847,300.800,-353.710,216.420
552,33493.259000,238.243,65.136,40.579,403.660,288.736,157.984,361.800,-425.710,199.420
553,33493.299000,240.216,57.057,43.585,408.031,289.270,146.099,455.800,-528.710,172.420
554,33493.339000,242.189,80.284,31.562,415.025,288.739,127.238,273.800,-732.710,170.420
555,33493.379000,257.973,58.067,22.544,423.774,282.975,107.219,519.800,-751.710,197.420
556,33493.419000,273.757,82.304,1.503,431.629,275.360,83.165,581.800,-716.710,255.420
557,33493.439000,232.324,120.679,-38.575,439.538,272.593,77.143,521.800,-181.710,595.420
558,33493.480000,225.418,152.994,-65.628,443.902,274.778,62.333,1856.800,303.290,202.420
559,33493.519000,186.944,252.970,-240.971,434.979,291.732,18.170,4010.800,457.290,-371.580
560,33493.559000,181.025,302.454,-273.033,420.673,305.148,-58.894,3433.800,-1226.710,-861.580
561,33493.599000,252.054,154.004,-208.908,395.875,310.722,-106.456,1070.800,-2480.710,-1235.580
562,33493.639000,222.459,87.353,-111.718,348.129,327.057,-171.617,1208.800,-2362.710,-1504.580
563,33493.678000,209.634,102.501,-62.622,297.761,332.387,-227.213,1708.800,-1703.710,-1591.580
564,33493.698000,239.229,69.176,-27.554,257.095,327.505,-276.158,2303.800,-913.710,-1598.580
565,33493.738000,246.135,61.097,7.515,226.139,309.892,-315.555,2443.800,-21.710,-1425.580
566,33493.778000,222.459,7.574,90.677,216.396,300.754,-331.771,1871.800,615.290,-1156.580
567,33493.819000,216.540,48.978,95.687,219.899,287.624,-336.158,1170.800,1322.290,-772.580
568,33493.858000,388.193,35.850,-92.681,224.386,303.087,-310.817,-849.200,976.290,-672.580
569,33493.898000,258.960,105.531,-56.611,231.523,321.213,-283.395,-903.200,754.290,-302.580
570,33493.918000,256.000,165.112,-51.601,236.861,331.215,-267.165,-1052.200,787.290,-114.580
571,33493.958000,212.593,95.432,-83.663,243.974,335.312,-245.164,-81.200,1089.290,-201.580
572,33493.998000,223.445,157.034,-46.591,253.721,342.770,-227.017,-451.200,892.290,-110.580
573,33494.38000,260.933,108.560,-53.605,259.055,351.009,-211.838,-236.200,910.290,-4.580
574,33494.79000,235.283,104.521,-50.599,266.114,351.127,-207.839,222.800,890.290,10.420
575,33494.122000,200.755,112.600,-25.550,270.545,347.939,-197.998,381.800,716.290,-61.580
576,33494.162000,163.268,127.748,-9.519,274.942,346.150,-200.028,481.800,515.290,-199.580
577,33494.180000,216.540,126.738,-46.591,269.641,344.270,-205.071,313.800,14.290,-394.580
578,33494.220000,214.566,109.570,-65.628,261.712,350.284,-206.888,243.800,-69.710,-379.580
579,33494.258000,206.674,119.669,-59.616,259.053,351.849,-212.803,218.800,-84.710,-377.580
580,33494.298000,231.337,132.797,-69.636,251.996,354.335,-216.717,190.800,-88.710,-407.580
581,33494.338000,218.513,125.728,-47.593,239.622,348.752,-229.847,381.800,-92.710,-424.580
582,33494.378000,228.378,136.836,-20.540,228.159,353.810,-234.684,428.800,-287.710,-554.580
583,33494.398000,267.838,130.777,-26.552,214.917,354.387,-244.638,483.800,-551.710,-665.580
584,33494.438000,271.784,122.698,-49.597,192.842,353.864,-262.600,508.800,-701.710,-673.580
585,33494.489000,330.975,87.353,-23.546,173.410,345.587,-278.818,845.800,-814.710,-529.580
586,33494.528000,422.721,-35.850,-64.626,157.445,326.418,-312.260,2114.800,-551.710,-499.580
587,33494.562000,338.867,141.886,13.526,148.535,304.735,-342.782,2844.800,-748.710,-408.580
588,33494.602000,273.757,177.231,-55.609,117.591,273.459,-374.679,1213.800,-1505.710,-15.580
589,33494.640000,201.742,140.876,-57.613,94.658,270.585,-383.782,194.800,-1013.710,143.420
590,33494.659000,156.362,-2.525,69.636,101.714,273.250,-381.687,-87.200,-62.710,857.420
591,33494.699000,109.996,62.107,-22.544,128.151,265.598,-376.886,-532.200,1192.290,1864.420
592,33494.742000,109.010,56.047,-37.573,181.099,269.982,-345.791,-1244.200,1974.290,2489.420
593,33494.787000,164.254,166.122,-64.626,258.745,260.050,-300.187,-1449.200,2800.290,2854.420
594,33494.822000,274.744,306.493,-163.820,331.222,262.469,-216.465,-2836.200,3405.290,2584.420
595,33494.862000,334.921,380.213,-239.969,378.214,268.933,-111.841,-4594.200,2773.290,1869.420
596,33494.902000,249.094,303.464,-237.965,393.381,276.011,-46.025,-4970.200,1634.290,787.420
597,33494.922000,201.742,145.925,-188.869,399.699,274.064,7.553,-825.200,1252.290,421.420
598,33494.960000,154.389,444.844,-225.941,397.962,276.892,15.583,802.800,573.290,-336.580
599,33495.0,180.039,108.560,97.691,388.296,286.602,21.825,-79.200,357.290,-635.580
600,33495.40000,357.611,-73.215,-112.720,383.915,296.316,28.085,-228.200,144.290,-490.580
601,33495.79000,265.865,55.037,0.501,378.665,302.698,39.198,-816.200,303.290,-476.580
602,33495.119000,234.297,74.225,55.609,372.545,308.324,54.256,-159.200,556.290,-208.580
603,33495.144000,253.040,26.761,67.632,368.167,313.754,62.362,-59.200,278.290,-260.580
604,33495.179000,244.162,48.978,55.609,363.764,308.599,64.166,-35.200,91.290,-363.580
605,33495.219000,245.148,65.136,53.605,359.360,313.776,63.327,-325.200,-10.710,-368.580
606,33495.259000,236.270,62.107,43.585,351.449,326.007,66.678,-143.200,-3.710,-298.580
607,33495.299000,236.270,76.245,52.603,349.706,332.222,71.839,-154.200,-48.710,-234.580
608,33495.339000,232.324,84.323,38.575,343.551,336.642,74.941,-227.200,21.290,-124.580
609,33495.379000,227.391,91.393,55.609,345.315,332.360,76.794,-224.200,122.290,-35.580
610,33495.399000,224.432,92.402,70.638,346.208,333.341,80.801,-262.200,105.290,55.420
611,33495.439000,229.364,62.107,67.632,346.215,335.134,82.845,-63.200,-32.710,130.420
612,33495.480000,229.364,107.550,73.644,348.871,326.653,89.529,-728.200,-320.710,112.420
613,33495.524000,240.216,88.363,75.648,353.271,316.268,90.199,-571.200,-505.710,240.420
614,33495.559000,241.202,82.304,93.683,361.166,308.180,80.032,-546.200,-1172.710,185.420
615,33495.603000,284.609,221.665,157.808,370.802,306.784,61.151,-410.200,-1529.710,162.420
616,33495.623000,261.919,254.990,100.697,372.552,303.229,58.062,-1515.200,-1148.710,-172.580
617,33495.663000,169.187,256.000,170.834,370.852,302.111,79.866,-2422.200,114.290,-822.580
618,33495.702000,211.607,133.807,88.673,355.127,305.999,125.620,-2010.200,975.290,-759.580
619,33495.750000,236.270,55.037,52.603,343.803,303.815,171.190,-1350.200,1504.290,-539.580
620,33495.780000,219.499,88.363,46.591,324.525,301.371,207.790,-340.200,1846.290,-387.580
621,33495.824000,211.607,72.205,13.526,314.006,314.806,223.087,91.800,1549.290,-540.580
622,33495.860000,221.472,36.860,17.534,292.930,322.354,245.110,5.800,1157.290,-600.580
623,33495.880000,237.256,-14.643,-11.523,281.516,320.136,258.903,-289.200,567.290,-480.580
624,33495.924000,226.405,-19.692,-62.622,279.785,323.888,268.949,-740.200,-80.710,-451.580
625,33495.964000,315.191,-65.136,169.832,286.843,318.826,273.773,-860.200,-490.710,-255.580
626,33496.4000,283.622,-29.791,114.724,287.714,309.251,272.472,-428.200,-367.710,-30.580
627,33496.40000,249.094,38.880,119.734,299.157,311.751,268.618,28.800,-609.710,-86.580
628,33496.84000,231.337,93.412,106.708,311.472,302.099,264.372,-902.200,-1079.710,-201.580
629,33496.107000,240.216,140.876,82.661,323.769,302.610,251.519,12.800,-840.710,-158.580
630,33496.148000,246.135,76.245,41.581,333.464,304.381,252.601,-698.200,-897.710,-97.580
631,33496.182000,249.094,87.353,23.546,341.367,305.001,243.709,214.800,-494.710,62.420
632,33496.220000,276.717,46.959,39.577,349.270,304.753,234.789,286.800,-487.710,122.420
633,33496.264000,207.661,103.511,77.652,355.383,300.779,216.806,453.800,-483.710,179.420
634,33496.304000,231.337,75.235,45.589,363.288,303.135,207.971,371.800,-590.710,200.420
635,33496.342000,231.337,86.343,37.573,370.288,299.218,191.979,344.800,-503.710,242.420
636,33496.362000,236.270,71.195,40.579,382.585,296.285,180.007,312.800,-422.710,276.420
637,33496.404000,242.189,76.245,38.575,389.598,299.396,167.221,353.800,-403.710,302.420
638,33496.445000,241.202,67.156,27.554,398.371,295.592,155.210,278.800,-331.710,353.420
639,33496.483000,249.094,57.057,24.548,403.629,289.294,147.079,283.800,-328.710,303.420
640,33496.524000,240.216,74.225,34.568,412.415,290.783,138.218,417.800,-381.710,278.420
641,33496.562000,244.162,61.097,40.579,417.645,280.760,121.029,412.800,-514.710,291.420
642,33496.582000,254.027,62.107,23.546,426.400,275.920,103.026,390.800,-631.710,284.420
643,33496.623000,253.040,69.176,-18.536,433.422,275.671,94.104,303.800,-438.710,451.420
644,33496.662000,264.879,78.264,-5.511,439.555,265.006,84.840,350.800,-179.710,590.420
645,33496.702000,263.892,92.402,13.526,448.346,250.172,81.408,604.800,51.290,698.420
646,33496.742000,218.513,178.241,-105.706,454.506,241.497,81.146,1333.800,676.290,549.420
647,33496.782000,178.066,220.655,-179.851,451.821,245.384,65.376,2562.800,262.290,-41.580
648,33496.822000,209.634,238.832,-251.992,441.988,262.924,11.299,2784.800,-1210.710,-797.580
649,33496.840000,236.270,188.339,-160.814,420.648,283.364,-62.580,2144.800,-2014.710,-1218.580
650,33496.880000,277.703,143.905,-103.703,380.801,308.018,-140.354,1255.800,-2561.710,-1524.580
651,33496.920000,268.825,82.304,-67.632,327.786,320.205,-198.715,949.800,-2344.710,-1840.580
652,33496.960000,255.013,56.047,-37.573,290.714,337.561,-228.060,1453.800,-1689.710,-1710.580
653,33497.0,263.892,35.850,-22.544,250.944,337.133,-272.886,1771.800,-977.710,-1462.580
654,33497.54000,244.162,30.801,8.517,220.897,324.114,-303.195,1865.800,-135.710,-1255.580
655,33497.63000,215.553,-3.535,-4.509,211.998,302.543,-329.741,1951.800,667.290,-1047.580
656,33497.103000,225.418,24.742,76.650,219.025,289.416,-334.116,1632.800,1483.290,-750.580
657,33497.143000,322.096,152.994,-300.086,232.273,285.451,-321.294,-56.200,1286.290,-769.580
658,33497.183000,305.326,-15.653,-87.671,236.732,301.501,-305.864,-396.200,1074.290,-346.580
659,33497.230000,283.622,123.708,-49.597,239.474,324.888,-276.299,-1577.200,459.290,-139.580
660,33497.264000,244.162,75.235,-66.630,241.278,324.444,-261.413,-405.200,705.290,-241.580
661,33497.304000,231.337,123.708,-56.611,240.437,336.037,-250.117,-370.200,530.290,-275.580
662,33497.324000,239.229,181.270,-14.528,241.360,347.660,-237.821,-448.200,371.290,-244.580
663,33497.364000,246.135,141.886,-36.571,244.901,347.831,-231.846,370.800,460.290,-217.580
664,33497.404000,213.580,123.708,-69.636,243.130,346.877,-234.861,303.800,269.290,-213.580
665,33497.444000,171.160,127.748,-72.642,240.468,348.414,-241.771,433.800,210.290,-291.580
666,33497.484000,170.173,134.817,-96.689,237.807,346.507,-247.799,498.800,134.290,-341.580
667,33497.525000,186.944,144.915,-77.652,229.875,344.737,-248.875,357.800,115.290,-362.580
668,33497.545000,183.985,170.162,-59.616,225.455,347.169,-254.768,255.800,71.290,-494.580
669,33497.584000,202.728,129.767,-55.609,221.029,345.233,-261.796,619.800,46.290,-573.580
670,33497.623000,253.040,92.402,-88.673,205.145,339.788,-269.968,574.800,-40.710,-547.580
671,33497.663000,260.933,94.422,-61.620,198.932,334.153,-285.066,723.800,-124.710,-556.580
672,33497.703000,290.528,95.432,-61.620,187.449,335.571,-295.979,796.800,-259.710,-526.580
673,33497.743000,311.245,87.353,-41.581,179.479,328.255,-309.151,974.800,-350.710,-353.580
674,33497.782000,326.042,67.156,-32.564,168.832,313.711,-332.496,1417.800,-549.710,-284.580
675,33497.803000,329.002,119.669,6.513,150.247,290.454,-357.142,1543.800,-861.710,-371.580
676,33497.842000,300.393,116.639,-84.665,125.510,272.512,-377.663,1187.800,-1040.710,-222.580
677,33497.882000,207.661,115.629,-133.761,106.088,258.300,-389.109,710.800,-1360.710,260.420
678,33497.922000,168.200,65.136,2.505,95.478,244.123,-399.533,192.800,-586.710,279.420
679,33497.963000,111.969,-8.584,28.556,105.174,244.186,-397.514,81.800,347.290,865.420
680,33498.3000,116.902,6.564,-57.613,145.725,239.318,-386.619,-329.200,1337.290,1669.420
681,33498.23000,149.457,58.067,-41.581,203.084,248.073,-354.376,-976.200,2153.290,1940.420
682,33498.63000,240.216,107.550,-45.589,249.874,253.405,-320.291,-1745.200,2870.290,2300.420
683,33498.102000,338.867,260.039,-105.706,324.974,252.184,-242.637,-2466.200,3459.290,2501.420
684,33498.143000,360.570,356.986,-143.781,375.461,258.369,-147.940,-3467.200,3097.290,1809.420
685,33498.183000,305.326,271.148,-208.908,398.607,259.912,-63.412,-3738.200,2095.290,991.420
686,33498.223000,206.674,274.178,-158.810,410.185,257.716,-18.761,-2684.200,1178.290,421.420
687,33498.267000,179.052,181.270,-156.806,414.707,263.186,21.150,-2061.200,536.290,-116.580
688,33498.282000,175.106,92.402,-133.761,406.830,267.999,38.162,-105.200,146.290,-467.580
689,33498.337000,256.987,107.550,102.701,403.298,283.423,31.700,531.800,294.290,-736.580
690,33498.364000,265.865,107.550,-16.532,391.862,290.471,35.864,-510.200,-43.710,-647.580
691,33498.404000,301.380,-79.274,-58.614,387.476,296.685,41.017,-991.200,-592.710,-582.580
692,33498.444000,233.310,89.373,46.591,378.690,302.084,48.115,-983.200,-466.710,-527.580
693,33498.484000,269.811,22.722,1.503,374.297,310.817,50.370,-621.200,-266.710,-376.580
694,33498.524000,265.865,55.037,11.523,371.682,313.672,59.391,-660.200,49.290,-360.580
695,33498.544000,261.919,40.899,10.521,369.953,320.029,69.522,-306.200,416.290,-240.580
696,33498.584000,234.297,66.146,40.579,362.057,326.381,79.633,-225.200,440.290,-235.580
697,33498.624000,242.189,59.077,57.613,361.202,326.634,88.575,-62.200,368.290,-140.580
698,33498.664000,242.189,74.225,38.575,352.414,328.560,95.560,-83.200,267.290,-135.580
699,33498.704000,235.283,74.225,47.593,350.654,319.964,98.255,-60.200,222.290,-29.580
700,33498.744000,235.283,68.166,46.591,352.433,321.002,104.252,-78.200,207.290,65.420
701,33498.764000,235.283,68.166,52.603,354.204,321.088,107.239,-91.200,144.290,67.420
702,33498.803000,232.324,81.294,58.614,354.215,317.756,112.096,-82.200,66.290,168.420
703,33498.847000,234.297,79.274,71.640,357.738,320.335,111.198,-147.200,-128.710,282.420
704,33498.885000,220.486,96.442,91.679,362.145,315.186,113.031,-357.200,-255.710,286.420
705,33498.924000,217.526,92.402,91.679,371.826,303.041,112.668,-817.200,-540.710,294.420
706,33498.964000,240.216,69.176,67.632,379.732,294.198,106.449,-811.200,-1015.710,281.420
707,33499.3000,272.771,87.353,57.613,385.860,287.789,94.344,-732.200,-1631.710,160.420
708,33499.27000,309.272,193.389,134.763,396.371,279.449,75.241,-1148.200,-1637.710,2.420
709,33499.64000,192.863,152.994,111.718,401.680,268.479,85.825,-2698.200,-947.710,-302.580
710,33499.109000,192.863,184.300,118.732,398.245,266.774,117.534,-2208.200,278.290,-545.580
711,33499.147000,232.324,86.343,70.638,383.378,260.946,157.017,-842.200,1653.290,-449.580
712,33499.183000,270.798,34.840,43.585,368.484,265.195,184.911,-41.200,2267.290,-274.580
713,33499.224000,216.540,68.166,-8.517,350.092,274.008,220.886,419.800,2176.290,-336.580
714,33499.243000,227.391,12.623,3.507,329.025,281.641,245.890,-112.200,1472.290,-542.580
715,33499.284000,223.445,-17.673,-13.526,315.880,290.931,267.996,173.800,1139.290,-457.580
716,33499.323000,215.553,-27.771,-35.569,307.076,303.048,267.368,423.800,762.290,-345.580
717,33499.368000,275.730,4.544,24.548,303.551,308.197,265.537,-181.200,-21.710,-326.580
718,33499.404000,283.622,-36.860,152.798,301.804,302.317,272.292,-813.200,-151.710,-187.580
719,33499.444000,265.865,-22.722,67.632,309.745,296.416,278.084,-789.200,-347.710,-74.580
720,33499.483000,251.067,81.294,114.724,313.256,297.146,273.154,464.800,-324.710,19.420
721,33499.504000,232.324,132.797,121.738,324.675,295.108,262.201,-154.200,-812.710,-140.580
722,33499.547000,201.742,62.107,115.726,335.226,289.739,256.103,-524.200,-994.710,-120.580
723,33499.587000,234.297,104.521,56.611,347.538,283.503,249.982,-824.200,-1108.710,-221.580
724,33499.623000,274.744,63.116,15.530,360.711,284.826,235.172,-298.200,-872.710,-123.580
725,33499.663000,242.189,80.284,52.603,364.229,289.084,232.343,43.800,-632.710,-30.580
726,33499.703000,236.270,86.343,50.599,370.349,282.590,217.257,358.800,-426.710,120.420
727,33499.728000,239.229,65.136,45.589,378.243,289.145,203.593,436.800,-396.710,172.420
728,33499.768000,232.324,78.264,53.605,381.723,291.301,187.786,435.800,-395.710,157.420
729,33499.808000,240.216,75.235,37.573,386.988,285.928,181.671,430.800,-395.710,190.420
730,33499.857000,239.229,68.166,31.562,393.994,290.691,165.960,390.800,-417.710,194.420
731,33499.885000,240.216,71.195,31.562,403.655,289.548,156.024,388.800,-452.710,206.420
732,33499.925000,239.229,68.166,32.564,407.128,289.044,138.145,306.800,-506.710,216.420
733,33499.965000,251.067,65.136,15.530,414.150,285.351,130.104,414.800,-488.710,255.420
734,33499.985000,244.162,66.146,19.538,422.012,268.330,110.710,335.800,-583.710,364.420
735,33500.25000,251.067,73.215,16.532,430.782,271.386,95.942,316.800,-632.710,369.420
736,33500.65000,277.703,67.156,-0.501,438.646,260.412,75.751,277.800,-622.710,450.420
737,33500.104000,283.622,97.452,17.534,452.732,259.470,72.787,223.800,26.290,740.420
738,33500.144000,201.742,178.241,-125.746,454.462,247.094,64.447,1255.800,-177.710,185.420
739,33500.184000,219.499,199.448,-212.916,451.702,264.892,19.338,3679.800,-12.710,-349.580
740,33500.204000,198.782,287.306,-237.965,431.238,284.409,-56.554,3141.800,-1369.710,-1106.580
741,33500.249000,271.784,179.250,-158.810,395.793,303.018,-133.517,1382.800,-2466.710,-1487.580
742,33500.284000,286.582,107.550,-119.734,363.070,313.794,-180.936,1176.800,-2545.710,-1848.580
743,33500.324000,246.135,61.097,-75.648,303.880,325.025,-242.327,1961.800,-1804.710,-1933.580
744,33500.373000,215.553,5.554,-44.587,256.178,324.562,-288.172,1855.800,-1244.710,-1697.580
745,33500.404000,210.620,-12.623,-16.532,220.829,319.126,-326.196,1695.800,-602.710,-1501.580
746,33500.444000,206.674,-5.554,-5.511,208.434,301.278,-343.695,1902.800,430.290,-1185.580
747,33500.469000,202.728,4.544,-46.591,211.013,279.101,-361.288,1811.800,1112.290,-840.580
748,33500.504000,206.674,32.821,71.640,224.240,269.760,-354.597,868.800,1743.290,-596.580
749,33500.545000,373.395,87.353,-235.961,227.827,282.450,-335.307,-930.200,774.290,-625.580
750,33500.585000,265.865,117.649,-124.744,237.564,292.399,-321.051,-566.200,743.290,-266.580
751,33500.625000,275.730,154.004,-22.544,242.046,308.674,-297.670,-823.200,777.290,-196.580
752,33500.665000,240.216,156.024,-36.571,245.622,322.119,-282.327,-325.200,713.290,-301.580
753,33500.685000,205.688,119.669,-87.671,248.304,332.847,-271.048,-475.200,527.290,-263.580
754,33500.725000,191.877,114.619,-91.679,250.124,342.903,-252.842,-553.200,434.290,-170.580
755,33500.767000,223.445,140.876,-67.632,250.138,338.732,-247.019,-330.200,539.290,-96.580
756,33500.805000,239.229,104.521,-70.638,258.116,348.709,-231.775,-123.200,553.290,-37.580
757,33500.847000,225.418,117.649,-54.607,259.880,343.558,-229.951,286.800,545.290,-90.580
758,33500.890000,207.661,114.619,-57.613,261.630,340.003,-233.039,544.800,466.290,-154.580
759,33500.928000,184.971,115.629,-60.618,264.269,341.685,-234.962,704.800,342.290,-241.580
760,33500.945000,206.674,128.757,-65.628,260.719,340.561,-243.947,292.800,71.290,-275.580
761,33500.987000,199.769,114.619,-68.634,252.777,333.526,-247.180,346.800,4.290,-294.580
762,33501.27000,213.580,111.590,-76.650,244.834,341.135,-253.909,289.800,-76.710,-348.580
763,33501.65000,221.472,128.757,-66.630,242.185,341.077,-255.905,262.800,-127.710,-401.580
764,33501.105000,247.121,128.757,-47.593,233.338,335.525,-268.030,601.800,-112.710,-445.580
765,33501.145000,238.243,106.540,-66.630,221.856,333.499,-278.062,601.800,-289.710,-509.580
766,33501.165000,262.906,119.669,-50.599,206.850,335.782,-288.959,412.800,-515.710,-529.580
767,33501.205000,329.002,40.899,-52.603,190.065,333.583,-304.972,644.800,-602.710,-493.580
768,33501.245000,382.274,-46.959,-79.656,177.655,312.990,-327.526,1777.800,-499.710,-351.580
769,33501.285000,333.935,71.195,-69.636,159.047,281.752,-358.389,1530.800,-997.710,-154.580
770,33501.325000,290.528,151.984,-47.593,137.855,269.190,-372.766,588.800,-1116.710,95.420
771,33501.365000,186.944,171.172,-75.648,115.826,269.986,-374.797,-248.200,-1372.710,333.420
772,33501.409000,163.268,-13.633,38.575,107.923,289.189,-370.227,-379.200,-482.710,681.420
773,33501.425000,135.645,-39.890,32.564,135.200,268.208,-376.779,841.800,656.290,1467.420
774,33501.470000,119.861,79.274,-47.593,179.271,252.954,-365.217,-403.200,1355.290,2047.420
775,33501.507000,180.039,91.393,-60.618,237.531,255.887,-324.222,-1418.200,2025.290,2322.420
776,33501.547000,239.229,158.043,-90.677,281.684,256.093,-287.333,-1869.200,2653.290,2344.420
777,33501.588000,297.434,260.039,-109.714,340.896,251.108,-219.782,-1923.200,2953.290,1903.420
778,33501.628000,306.312,297.404,-160.814,379.875,251.569,-143.182,-2517.200,2596.290,1221.420
779,33501.668000,265.865,206.517,-167.828,403.872,258.851,-70.380,-2348.200,2149.290,682.420
780,33501.689000,230.351,196.418,-146.787,412.799,260.012,-29.601,-1723.200,1469.290,317.420
781,33501.729000,207.661,166.122,-142.779,418.202,262.039,11.194,-1152.200,870.290,-136.580
782,33501.769000,182.012,102.501,-164.822,412.084,271.137,26.365,-669.200,-97.710,-460.580
783,33501.809000,263.892,54.028,36.571,405.048,286.755,26.849,-721.200,129.290,-768.580
784,33501.849000,327.029,4.544,-81.659,394.513,298.313,37.120,-1037.200,-331.710,-647.580
785,33501.885000,266.852,55.037,7.515,389.225,299.149,36.137,-286.200,-202.710,-723.580
786,33501.905000,245.148,63.116,37.573,380.432,306.200,40.310,-97.200,58.290,-344.580
787,33501.947000,247.121,46.959,30.560,377.799,315.774,41.605,-188.200,61.290,-321.580
788,33501.985000,246.135,58.067,41.581,372.529,324.534,44.852,-293.200,-10.710,-340.580
789,33502.28000,246.135,65.136,41.581,368.143,328.172,50.914,-323.200,-25.710,-344.580
790,33502.68000,246.135,63.116,30.560,361.992,336.932,54.157,-367.200,-22.710,-309.580
791,33502.108000,252.054,68.166,24.548,357.604,332.786,60.959,-254.200,3.290,-234.580
792,33502.147000,243.175,74.225,23.546,355.849,334.577,62.998,-53.200,197.290,-120.580
793,33502.173000,230.351,84.323,45.589,358.503,339.004,66.129,-71.200,246.290,-47.580
794,33502.208000,233.310,70.185,44.587,354.123,337.518,75.004,-84.200,200.290,-21.580
795,33502.248000,235.283,77.254,42.583,349.714,332.307,74.820,-103.200,186.290,10.420
796,33502.287000,232.324,78.264,49.597,354.134,337.631,78.979,-118.200,171.290,81.420
797,33502.332000,236.270,81.294,57.613,353.271,330.911,86.702,-137.200,119.290,254.420
798,33502.367000,231.337,73.215,67.632,359.431,322.236,86.441,-161.200,-121.710,320.420
799,33502.387000,227.391,80.284,59.616,366.463,312.609,83.172,-321.200,-446.710,289.420
800,33502.427000,244.162,98.462,62.622,375.263,310.794,80.162,-586.200,-812.710,335.420
801,33502.467000,242.189,113.609,60.618,383.155,299.235,69.882,-574.200,-1028.710,327.420
802,33502.507000,307.299,139.866,84.665,388.422,301.645,63.027,-928.200,-1058.710,148.420
803,33502.548000,230.351,199.448,43.585,395.466,292.999,63.762,-1538.200,-748.710,142.420
804,33502.588000,167.214,241.862,93.683,393.748,287.400,80.455,-1751.200,-369.710,-429.580
805,33502.632000,188.917,144.915,75.648,379.754,290.112,115.253,-1779.200,517.290,-790.580
806,33502.650000,227.391,129.767,31.562,376.292,293.305,136.198,-1058.200,1118.290,-730.580
807,33502.688000,234.297,74.225,40.579,359.647,297.666,168.062,-488.200,1468.290,-727.580
808,33502.728000,237.256,61.097,42.583,339.467,308.799,194.177,-151.200,1551.290,-733.580
809,33502.769000,239.229,56.047,19.538,321.935,319.991,222.287,-185.200,1343.290,-678.580
810,33502.810000,241.202,52.008,-8.517,299.986,317.264,248.939,-636.200,944.290,-653.580
811,33502.852000,248.108,-67.156,-15.530,292.068,320.815,252.008,-229.200,613.290,-453.580
812,33502.867000,248.108,-30.801,-22.544,287.667,321.707,253.016,-637.200,-257.710,-375.580
813,33502.907000,280.663,-37.870,128.751,291.232,316.085,268.733,-1494.200,-434.710,-317.580
814,33502.948000,270.798,-50.998,123.742,302.679,302.261,270.307,-990.200,-463.710,-118.580
815,33502.988000,240.216,127.748,120.736,308.834,309.041,264.589,552.800,-468.710,64.420
816,33503.28000,203.715,188.339,75.648,319.386,308.851,257.665,-701.200,-972.710,-244.580
817,33503.67000,255.013,75.235,26.552,329.942,303.539,253.555,-156.200,-812.710,-123.580
818,33503.109000,257.973,77.254,32.564,340.471,295.368,240.415,-226.200,-698.710,-29.580
819,33503.129000,235.283,84.323,57.613,343.986,295.286,237.444,31.800,-466.710,39.420
820,33503.169000,225.418,81.294,67.632,351.000,300.133,224.715,306.800,-347.710,118.420
821,33503.209000,226.405,85.333,67.632,354.502,304.222,215.922,526.800,-294.710,178.420
822,33503.249000,219.499,92.402,64.626,361.517,305.625,204.074,421.800,-319.710,204.420
823,33503.289000,229.364,84.323,55.609,367.661,306.272,196.171,320.800,-321.710,213.420
824,33503.329000,234.297,82.304,48.595,373.797,302.523,186.139,261.800,-321.710,253.420
825,33503.348000,242.189,66.146,40.579,380.814,299.643,176.138,278.800,-392.710,280.420
826,33503.389000,243.175,67.156,39.577,390.460,293.179,162.058,362.800,-431.710,286.420
827,33503.444000,243.175,69.176,38.575,397.458,286.658,145.980,334.800,-501.710,296.420
828,33503.468000,241.202,64.126,32.564,402.724,290.776,138.187,397.800,-557.710,282.420
829,33503.508000,240.216,66.146,43.585,413.241,285.937,120.190,377.800,-750.710,259.420
830,33503.548000,258.960,61.097,17.534,421.986,286.164,97.386,301.800,-857.710,268.420
831,33503.592000,262.906,65.136,-2.505,432.487,278.579,74.335,390.800,-785.710,302.420
832,33503.612000,272.771,90.383,-5.511,437.729,268.669,61.122,302.800,-504.710,396.420
833,33503.652000,268.825,84.323,-27.554,443.875,259.853,55.890,446.800,-164.710,478.420
834,33503.692000,213.580,157.034,-82.661,448.266,249.384,53.579,889.800,628.290,704.420
835,33503.732000,160.308,215.606,-189.871,449.998,254.255,41.826,2746.800,727.290,-37.580
836,33503.772000,189.904,216.615,-182.857,445.527,271.691,14.574,3772.800,109.290,-465.580
837,33503.808000,211.607,219.645,-214.920,427.712,285.246,-57.532,3155.800,-1162.710,-1141.580
838,33503.828000,316.177,118.659,-151.796,389.596,296.684,-142.680,2891.800,-2369.710,-1404.580
839,33503.868000,317.164,76.245,-87.671,340.888,294.113,-232.288,3070.800,-2537.710,-1443.580
840,33503.912000,264.879,42.919,-38.575,289.575,274.688,-304.578,2658.800,-2096.710,-1269.580
841,33503.950000,228.378,13.633,17.534,261.276,257.218,-338.998,1891.800,-1547.710,-1130.580
842,33503.990000,207.661,6.564,38.575,228.609,247.866,-362.245,981.800,-889.710,-1010.580
843,33504.30000,185.958,40.899,-20.540,214.501,253.763,-368.056,236.800,210.290,-695.580
844,33504.70000,204.701,-0.505,74.646,229.524,260.272,-352.902,-15.200,1420.290,-407.580
845,33504.90000,312.231,151.984,-232.955,232.192,259.660,-343.977,-287.200,791.290,-486.580
846,33504.130000,209.634,114.619,-97.691,241.069,274.118,-323.619,-209.200,901.290,-449.580
847,33504.172000,271.784,80.284,-117.730,244.664,298.091,-303.963,-744.200,942.290,-409.580
848,33504.212000,259.946,132.797,-52.603,249.133,309.074,-283.732,-583.200,781.290,-365.580
849,33504.252000,237.256,125.728,-61.620,251.807,312.829,-273.672,-609.200,703.290,-215.580
850,33504.288000,219.499,77.254,-104.704,253.628,324.622,-255.410,-540.200,612.290,-242.580
851,33504.308000,194.836,113.609,-75.648,259.849,336.361,-239.121,-593.200,540.290,-272.580
852,33504.348000,217.526,151.984,-41.581,259.007,342.774,-227.000,-185.200,562.290,-218.580
853,33504.393000,236.270,135.826,-42.583,258.134,339.414,-223.140,-3.200,505.290,-139.580
854,33504.432000,240.216,93.412,-64.626,259.909,336.952,-218.249,275.800,478.290,-115.580
855,33504.472000,184.971,97.452,-55.609,263.416,337.654,-224.173,498.800,183.290,-178.580
856,33504.512000,216.540,146.935,-57.613,260.762,334.096,-227.276,87.800,-39.710,-276.580
857,33504.552000,196.809,127.748,-77.652,256.349,334.008,-230.272,269.800,77.290,-240.580
858,33504.570000,207.661,106.540,-86.669,255.466,339.159,-232.093,349.800,126.290,-216.580
859,33504.609000,221.472,108.560,-71.640,253.686,333.809,-237.238,320.800,88.290,-267.580
860,33504.649000,212.593,128.757,-58.614,248.390,335.428,-241.174,304.800,33.290,-339.580
861,33504.689000,209.634,144.915,-25.550,236.912,338.610,-251.037,653.800,-46.710,-420.580
862,33504.732000,264.879,105.531,-66.630,230.712,331.380,-261.222,463.800,-279.710,-500.580
863,33504.772000,278.690,97.452,-63.624,217.469,334.532,-272.085,528.800,-450.710,-440.580
864,33504.790000,311.245,60.087,-40.579,203.329,331.496,-287.124,874.800,-610.710,-377.580
865,33504.832000,396.085,-97.452,-76.650,190.003,306.253,-320.754,1922.800,-589.710,-176.580
866,33504.872000,272.771,210.556,-32.564,175.829,280.479,-342.489,1438.800,-1121.710,-278.580
867,33504.912000,290.528,169.152,-35.569,149.348,274.773,-359.640,143.800,-1555.710,-259.580
868,33504.953000,275.730,198.438,-34.568,115.837,273.542,-371.703,135.800,-1707.710,-127.580
869,33505.2000,149.457,133.807,-89.675,91.180,278.789,-369.626,-407.200,-1078.710,352.420
870,33505.29000,123.807,12.623,4.509,111.437,283.059,-372.401,285.800,97.290,1225.420
871,33505.53000,93.225,75.235,-49.597,135.227,273.641,-368.658,93.800,984.290,1719.420
872,33505.92000,161.295,84.323,-38.575,187.269,267.439,-343.868,-1169.200,1670.290,2204.420
873,33505.129000,193.850,126.738,-51.601,246.447,284.514,-293.475,-2209.200,2135.290,2357.420
874,33505.169000,255.013,199.448,-102.701,310.082,285.749,-220.743,-2786.200,2444.290,2394.420
875,33505.212000,297.434,324.671,-127.750,342.840,288.246,-163.956,-3642.200,2028.290,1798.420
876,33505.253000,246.135,264.079,-150.795,370.374,293.067,-86.258,-3516.200,1498.290,936.420
877,33505.273000,209.634,191.369,-139.773,386.384,294.600,-32.536,-1835.200,1250.290,564.420
878,33505.313000,197.796,178.241,-122.740,392.643,293.798,0.227,-513.200,1028.290,192.420
879,33505.353000,187.931,162.083,-127.750,390.046,289.935,16.974,-186.200,717.290,-137.580
880,33505.389000,205.688,119.669,-158.810,383.000,296.846,16.183,427.800,323.290,-293.580
881,33505.433000,268.825,7.574,73.644,376.848,308.181,18.517,99.800,299.290,-397.580
882,33505.473000,289.541,17.673,-104.704,370.708,314.478,26.646,-761.200,6.290,-531.580
883,33505.513000,235.283,86.343,35.569,368.100,322.570,36.830,-408.200,377.290,-392.580
884,33505.533000,239.229,111.590,49.597,361.964,333.207,45.099,-258.200,372.290,-289.580
885,33505.573000,257.973,60.087,15.530,355.837,333.597,58.994,62.800,630.290,-158.580
886,33505.613000,238.243,66.146,50.599,352.336,338.131,66.081,134.800,622.290,-54.580
887,33505.653000,239.229,59.077,62.622,350.590,340.875,71.129,144.800,390.290,-137.580
888,33505.693000,246.135,65.136,39.577,343.544,334.850,72.897,21.800,177.290,-135.580
889,33505.730000,246.135,76.245,22.544,343.553,339.246,75.026,99.800,245.290,-34.580
890,33505.750000,240.216,76.245,49.597,340.918,338.461,77.971,108.800,292.290,38.420
891,33505.792000,235.283,68.166,48.595,342.694,335.159,83.827,100.800,267.290,98.420
892,33505.832000,224.432,89.373,63.624,341.817,340.367,83.994,116.800,280.290,198.420
893,33505.872000,203.715,106.540,85.667,345.335,336.001,82.870,222.800,326.290,224.420
894,33505.910000,207.661,99.471,77.652,342.704,336.980,86.866,181.800,308.290,197.420
895,33505.953000,220.486,94.422,75.648,344.485,328.555,95.535,-49.200,272.290,164.420
896,33506.5000,235.283,71.195,76.650,347.997,324.133,92.424,-81.200,294.290,208.420
897,33506.15000,243.175,64.126,87.671,350.667,326.124,101.434,-296.200,209.290,192.420
898,33506.50000,250.081,30.801,80.658,353.335,318.624,112.122,-574.200,-77.710,246.420
899,33506.90000,229.364,89.373,95.687,358.637,305.861,120.661,-446.200,-238.710,264.420
900,33506.132000,204.701,149.964,121.738,361.273,304.071,118.626,-1175.200,-618.710,244.420
901,33506.172000,179.052,257.010,102.701,368.342,283.610,130.893,-2394.200,-1165.710,-20.580
902,33506.214000,295.461,40.899,33.566,383.313,262.034,134.213,-2231.200,-1379.710,182.420
903,33506.254000,249.094,165.112,143.781,397.409,246.533,137.727,-2635.200,-1491.710,-8.580
904,33506.274000,231.337,79.274,75.648,405.369,221.006,154.798,-4181.200,-1320.710,-524.580
905,33506.313000,209.634,117.649,147.789,402.760,217.030,167.570,-2499.200,-376.710,-740.580
906,33506.354000,228.378,66.146,20.540,394.888,221.031,186.541,-1216.200,687.290,-675.580
907,33506.393000,241.202,42.919,69.636,379.105,232.952,209.716,770.800,1717.290,-390.580
908,33506.435000,240.216,32.821,55.609,352.765,254.497,236.149,964.800,1926.290,-627.580
909,33506.472000,241.202,4.544,8.517,340.459,267.677,242.495,1033.800,1667.290,-705.580
910,33506.494000,248.108,-27.771,-4.509,314.958,293.112,253.169,968.800,1342.290,-515.580
911,33506.532000,222.459,-16.663,-44.587,306.154,308.673,251.659,604.800,719.290,-461.580
912,33506.572000,265.865,-49.988,-27.554,299.125,314.017,256.775,-469.200,-117.710,-290.580
913,33506.615000,256.987,-12.623,101.699,299.141,309.006,263.564,-1175.200,-134.710,-125.580
914,33506.653000,315.191,-101.491,115.726,307.972,288.546,275.837,-1570.200,-553.710,-142.580
915,33506.693000,275.730,35.850,110.716,317.633,286.536,265.873,198.800,-733.710,-241.580
916,33506.733000,199.769,154.004,104.704,327.308,276.910,262.612,-1395.200,-1187.710,-330.580
917,33506.750000,244.162,29.791,80.658,339.629,275.939,258.648,-322.200,-885.710,-220.580
918,33506.792000,236.270,85.333,57.613,344.884,273.057,248.642,-697.200,-890.710,-225.580
919,33506.834000,237.256,86.343,61.620,359.838,277.154,239.886,-146.200,-731.710,-123.580
920,33506.874000,236.270,68.166,59.616,365.959,268.952,225.737,123.800,-708.710,-14.580
921,33506.914000,229.364,70.185,56.611,377.375,276.350,211.119,436.800,-698.710,90.420
922,33506.954000,236.270,81.294,36.571,379.977,281.977,195.422,493.800,-667.710,144.420
923,33506.974000,238.243,67.156,24.548,392.262,278.932,179.475,477.800,-632.710,204.420
924,33507.13000,236.270,72.205,44.587,399.255,280.109,159.676,482.800,-619.710,194.420
925,33507.53000,229.364,72.205,42.583,409.771,277.846,140.769,458.800,-678.710,186.420
926,33507.93000,233.310,81.294,28.556,415.902,283.532,127.071,207.800,-860.710,149.420
927,33507.133000,261.919,39.890,-30.560,424.653,280.371,107.137,172.800,-759.710,89.420
928,33507.172000,251.067,74.225,-27.554,427.241,278.970,88.233,428.800,-500.710,113.420
929,33507.213000,262.906,54.028,-19.538,431.598,275.050,72.232,640.800,-440.710,193.420
930,33507.233000,293.487,108.560,-12.524,439.485,276.370,57.405,746.800,-363.710,301.420
931,33507.284000,261.919,102.501,-18.536,443.876,265.033,55.065,674.800,189.290,544.420
932,33507.314000,191.877,171.172,-93.683,445.603,264.696,43.144,2340.800,544.290,174.420
933,33507.354000,213.580,177.231,-166.826,439.328,274.820,2.740,4529.800,684.290,-329.580
934,33507.394000,193.850,303.464,-242.975,420.635,291.847,-69.256,4205.800,-684.710,-1001.580
935,33507.433000,275.730,183.290,-163.820,397.587,297.309,-120.788,1769.800,-2521.710,-1534.580
936,33507.454000,277.703,133.807,-119.734,347.171,314.228,-195.868,1328.800,-2665.710,-1713.580
937,33507.494000,245.148,44.939,-45.589,293.265,323.726,-257.298,1700.800,-2159.710,-1710.580
938,33507.534000,199.769,16.663,-49.597,246.446,313.801,-300.469,1843.800,-1229.710,-1399.580
939,33507.574000,202.728,5.554,-18.536,226.123,311.459,-321.462,1581.800,-412.710,-1148.580
940,33507.614000,218.513,-16.663,19.538,212.845,297.894,-340.812,1456.800,353.290,-956.580
941,33507.654000,228.378,-15.653,36.571,223.407,285.750,-341.172,995.800,1764.290,-514.580
942,33507.694000,178.066,163.093,-241.973,236.671,287.106,-324.205,475.800,1640.290,-808.580
943,33507.714000,285.595,-49.988,-121.738,241.114,293.523,-312.067,-453.200,1351.290,-642.580
944,33507.769000,247.121,119.669,-79.656,244.721,307.278,-285.791,-1220.200,645.290,-340.580
945,33507.795000,232.324,188.339,-16.532,246.552,327.779,-266.253,-684.200,689.290,-319.580
946,33507.832000,209.634,103.511,-95.687,250.990,335.008,-256.074,9.800,834.290,-275.580
947,33507.875000,210.620,102.501,-101.699,254.561,341.509,-240.957,-545.200,634.290,-123.580
948,33507.923000,226.405,139.866,-50.599,252.827,340.921,-231.052,-450.200,627.290,-92.580
949,33507.954000,232.324,127.748,-48.595,260.795,344.765,-217.993,-211.200,601.290,-35.580
950,33507.973000,232.324,99.471,-51.601,266.983,345.835,-210.987,159.800,583.290,-91.580
951,33508.15000,202.728,104.521,-50.599,266.099,349.250,-212.865,417.800,505.290,-159.580
952,33508.54000,192.863,127.748,-39.577,269.617,350.064,-214.813,444.800,286.290,-276.580
953,33508.94000,196.809,136.836,-45.589,266.076,349.024,-220.816,500.800,206.290,-305.580
954,33508.134000,205.688,110.580,-59.616,264.297,341.098,-225.051,597.800,131.290,-343.580
955,33508.174000,227.391,96.442,-76.650,256.341,338.235,-234.107,464.800,-8.710,-401.580
956,33508.195000,222.459,133.807,-46.591,249.277,335.485,-239.183,342.800,-115.710,-434.580
957,33508.235000,219.499,133.807,-41.581,241.329,340.462,-246.991,438.800,-192.710,-496.580
958,33508.272000,237.256,121.688,-47.593,227.203,344.454,-258.823,606.800,-344.710,-619.580
959,33508.312000,255.013,117.649,-42.583,209.539,336.235,-273.048,569.800,-521.710,-633.580
960,33508.355000,295.461,80.284,-60.618,190.111,337.478,-289.951,634.800,-586.710,-602.580
961,33508.395000,390.166,-81.294,-98.693,179.466,326.406,-313.183,2163.800,-317.710,-350.580
962,33508.432000,296.447,205.507,-5.511,166.980,280.946,-356.404,3124.800,-558.710,-178.580
963,33508.454000,301.380,172.181,-47.593,142.232,258.580,-380.048,1088.800,-1237.710,-102.580
964,33508.494000,231.337,193.389,-81.659,114.023,256.655,-386.158,-226.200,-1565.710,247.420
965,33508.534000,173.133,73.215,-44.587,101.700,262.778,-384.013,-713.200,-1027.710,437.420
966,33508.575000,109.996,21.712,-10.521,114.923,266.316,-381.870,304.800,176.290,1418.420
967,33508.615000,112.956,63.116,-28.556,157.227,252.740,-372.245,-569.200,1265.290,1957.420
968,33508.652000,152.416,65.136,-46.591,213.707,253.767,-337.276,-1243.200,1866.290,2351.420
969,33508.672000,225.418,137.846,-51.601,259.634,262.711,-298.112,-2411.200,2426.290,2552.420
970,33508.712000,311.245,235.803,-62.622,324.139,256.946,-227.590,-2740.200,2827.290,2413.420
971,33508.757000,324.069,349.917,-145.785,366.677,262.060,-139.905,-3410.200,2536.290,1655.420
972,33508.797000,242.189,181.270,-253.996,388.042,268.584,-63.164,-2325.200,1894.290,373.420
973,33508.837000,204.701,179.250,-212.916,398.684,264.116,-37.457,16.800,1416.290,423.420
974,33508.875000,166.227,215.606,-149.793,398.726,271.426,-24.311,-477.200,418.290,-142.580
975,33508.914000,180.039,172.181,-191.875,394.343,281.980,-19.018,-385.200,-316.710,-684.580
976,33508.934000,191.877,143.905,60.618,382.892,295.775,-21.586,81.800,136.290,-695.580
977,33508.973000,356.624,-71.195,-104.704,374.992,307.251,-14.288,-964.200,-312.710,-474.580
978,33509.18000,248.108,109.570,36.571,371.463,308.060,-16.259,-204.200,-149.710,-581.580
979,33509.58000,232.324,99.471,32.564,362.684,314.383,-7.145,-495.200,-129.710,-306.580
980,33509.94000,251.067,55.037,-10.521,363.565,318.695,-7.995,-127.200,-17.710,-173.580
981,33509.134000,240.216,69.176,11.523,359.173,323.984,-4.859,-246.200,83.290,-207.580
982,33509.154000,248.108,62.107,19.538,357.428,328.464,0.246,-295.200,155.290,-151.580
983,33509.194000,251.067,62.107,15.530,352.173,331.346,10.253,-239.200,169.290,-191.580
984,33509.235000,252.054,62.107,20.540,350.427,330.646,16.182,-248.200,144.290,-201.580
985,33509.275000,243.175,70.185,26.552,344.275,334.226,20.251,-84.200,146.290,-156.580
986,33509.315000,236.270,72.205,20.540,341.650,335.261,26.234,-115.200,95.290,-123.580
987,33509.355000,247.121,69.176,11.523,344.288,341.254,23.458,-111.200,119.290,-71.580
988,33509.395000,234.297,87.353,18.536,343.428,338.007,31.294,-58.200,225.290,-13.580
989,33509.415000,223.445,124.718,39.577,342.565,339.911,37.311,-372.200,240.290,114.420
990,33509.455000,236.270,76.245,29.558,344.348,330.646,46.946,-267.200,286.290,234.420
991,33509.494000,217.526,82.304,50.599,345.243,326.476,52.771,-245.200,170.290,291.420
992,33509.535000,224.432,86.343,75.648,356.710,318.869,59.512,-466.200,-75.710,389.420
993,33509.574000,240.216,97.452,68.634,362.894,312.155,67.258,-1021.200,-409.710,386.420
994,33509.617000,239.229,131.787,90.677,370.810,302.557,64.986,-807.200,-831.710,369.420
995,33509.657000,288.555,113.609,53.605,377.826,298.808,54.957,-944.200,-1558.710,170.420
996,33509.677000,229.364,330.730,43.585,383.130,292.093,62.700,-3370.200,-1478.710,-8.580
997,33509.714000,198.782,164.103,158.810,384.089,284.259,92.238,-3469.200,-585.710,-482.580
998,33509.754000,222.459,72.205,93.683,376.267,279.276,130.778,-770.200,1380.290,-523.580
999,33509.793000,237.256,70.185,51.601,358.758,290.693,166.840,1.800,2061.290,-413.580
1000,33509.849000,240.216,110.580,37.573,347.382,298.333,191.876,-71.200,1953.290,-541.580
1001,33509.873000,248.108,-11.613,2.505,328.977,300.985,224.672,-609.200,1448.290,-568.580
1002,33509.898000,220.486,-37.870,-17.534,314.078,306.046,250.606,-75.200,1157.290,-446.580
1003,33509.933000,200.755,16.663,-44.587,298.245,307.996,258.563,38.800,644.290,-435.580
1004,33509.974000,317.164,-75.235,110.716,303.536,303.745,261.421,-946.200,-515.710,-263.580
1005,33510.15000,284.609,-48.978,202.896,308.837,290.114,269.933,-892.200,-321.710,-161.580
1006,33510.55000,307.299,-8.584,123.742,315.000,289.222,268.930,-637.200,-559.710,-166.580
1007,33510.98000,238.243,88.363,113.722,327.308,284.666,260.878,-650.200,-956.710,-318.580
1008,33510.135000,244.162,67.156,64.626,336.108,288.032,257.043,-299.200,-967.710,-262.580
1009,33510.154000,240.216,73.215,60.618,345.765,287.701,245.148,-334.200,-903.710,-177.580
1010,33510.197000,228.378,58.067,79.656,355.429,290.898,235.353,-40.200,-718.710,-137.580
1011,33510.238000,248.108,88.363,31.562,362.444,287.989,224.358,-177.200,-664.710,-135.580
1012,33510.278000,236.270,81.294,47.593,366.815,284.211,213.326,371.800,-505.710,-48.580
1013,33510.317000,237.256,80.284,45.589,371.198,289.168,204.564,202.800,-465.710,8.420
1014,33510.357000,239.229,77.254,18.536,377.333,292.307,192.770,333.800,-394.710,25.420
1015,33510.377000,232.324,85.333,36.571,384.338,291.890,177.884,339.800,-427.710,121.420
1016,33510.417000,235.283,84.323,37.573,389.591,297.603,165.177,415.800,-347.710,202.420
1017,33510.458000,247.121,73.215,12.524,393.098,297.437,159.225,395.800,-212.710,215.420
1018,33510.497000,242.189,69.176,12.524,397.478,294.611,151.204,468.800,-53.710,308.420
1019,33510.537000,243.175,69.176,17.534,398.343,291.866,146.152,542.800,44.290,341.420
1020,33510.577000,254.027,58.067,45.589,405.361,286.410,137.061,606.800,9.290,346.420
1021,33510.617000,249.094,53.018,41.581,410.622,283.585,129.042,820.800,-171.710,312.420
1022,33510.637000,250.081,60.087,37.573,416.746,290.922,112.419,834.800,-320.710,263.420
1023,33510.678000,265.865,50.998,21.542,421.975,286.919,93.439,892.800,-369.710,209.420
1024,33510.718000,256.987,10.604,-16.532,424.587,290.055,81.633,989.800,-198.710,127.420
1025,33510.758000,283.622,29.791,10.521,425.381,287.474,51.762,1559.800,-451.710,44.420
1026,33510.794000,263.892,32.821,15.530,426.197,291.139,28.052,2019.800,-229.710,152.420
1027,33510.834000,217.526,105.531,-30.560,429.638,286.881,0.121,1974.800,1.290,133.420
1028,33510.854000,225.418,17.673,-27.554,427.826,282.929,-16.894,1581.800,128.290,169.420
1029,33510.894000,214.566,29.791,-49.597,433.949,277.331,-30.958,1430.800,231.290,251.420
1030,33510.938000,251.067,37.870,-47.593,436.584,275.540,-32.993,971.800,250.290,226.420
1031,33510.978000,259.946,50.998,-9.519,438.330,268.485,-37.189,646.800,248.290,271.420
1032,33511.18000,249.094,28.781,8.517,443.612,259.837,-36.459,237.800,179.290,210.420
1033,33511.57000,253.040,104.521,64.626,443.625,261.686,-32.427,290.800,301.290,7.420
1034,33511.108000,247.121,36.860,-62.622,443.646,264.487,-25.385,-704.200,109.290,37.420
1035,33511.135000,237.256,28.781,-16.532,443.656,258.552,-20.613,-76.200,321.290,6.420
1036,33511.154000,228.378,60.087,-7.515,445.435,258.722,-14.644,320.800,527.290,42.420
1037,33511.195000,271.784,20.702,30.560,442.826,261.634,-3.635,376.800,586.290,113.420
1038,33511.237000,283.622,26.761,-5.511,446.359,255.701,1.149,126.800,599.290,115.420
1039,33511.277000,249.094,31.811,11.523,445.521,260.435,15.202,224.800,700.290,150.420
1040,33511.315000,218.513,33.830,73.644,444.652,257.103,20.056,413.800,543.290,90.420
1041,33511.355000,246.135,34.840,58.614,444.651,256.235,20.028,18.800,-34.710,-121.580
1042,33511.375000,258.960,35.850,37.573,441.127,259.677,19.135,-210.200,-179.710,-211.580
1043,33511.418000,254.027,33.830,8.517,441.132,266.621,19.360,-110.200,-91.710,-166.580
1044,33511.458000,247.121,40.899,18.536,438.492,270.091,19.465,-36.200,-13.710,-126.580
1045,33511.498000,247.121,39.890,17.534,434.978,271.909,22.491,-88.200,-15.710,-118.580
1046,33511.538000,249.094,43.929,26.552,433.216,276.219,21.632,-27.200,-21.710,-112.580
1047,33511.578000,250.081,41.909,27.554,433.203,269.191,18.425,-16.200,-63.710,-115.580
1048,33511.598000,245.148,43.929,24.548,435.842,272.608,16.559,17.800,-104.710,-120.580
1049,33511.638000,250.081,49.988,23.546,428.795,280.359,14.802,-16.200,-124.710,-128.580
1050,33511.677000,256.000,45.949,2.505,428.792,276.887,14.689,-112.200,-60.710,-106.580
