Sample, Time, ACCX, ACCY, ACCZ, MAGX, MAGY, MAGZ, GYRX, GYRY, GYRZ
0,33136.414000,249.094,58.067,12.524,369.737,295.489,-0.784,-12.200,-0.710,-5.580
1,33136.454000,246.135,58.067,13.526,370.625,301.594,0.410,-38.200,0.290,-4.580
2,33136.474000,246.135,57.057,15.530,369.744,300.725,0.379,-12.200,16.290,7.420
3,33136.514000,245.148,58.067,16.532,370.633,300.810,3.363,1.800,23.290,11.420
4,33136.557000,247.121,56.047,13.526,371.509,300.755,1.378,-22.200,8.290,12.420
5,33136.597000,248.108,58.067,18.536,371.513,302.519,2.428,-19.200,10.290,9.420
6,33136.634000,244.162,59.077,19.538,371.512,298.207,3.281,11.800,5.290,20.420
7,33136.674000,246.135,56.047,16.532,372.396,301.680,3.397,25.800,-0.710,29.420
8,33136.697000,248.108,54.028,12.524,374.161,301.709,4.397,44.800,9.290,27.420
9,33136.737000,246.135,57.057,17.534,374.140,296.332,-1.736,59.800,8.290,21.420
10,33136.777000,249.094,55.037,19.538,371.496,295.462,-1.773,9.800,-0.710,11.420
11,33136.817000,245.148,53.018,13.526,373.261,299.803,-1.626,3.800,4.290,14.420
12,33136.861000,249.094,55.037,14.528,375.912,299.022,1.336,22.800,8.290,8.420
13,33136.901000,246.135,55.037,17.534,372.392,299.915,2.347,22.800,-2.710,-0.580
14,33136.941000,244.162,52.008,15.530,374.147,298.124,0.308,-1.200,-14.710,-11.580
15,33136.961000,244.162,57.057,15.530,373.268,297.284,1.271,-46.200,-44.710,-33.580
16,33137.0,248.108,62.107,13.526,372.385,294.679,1.184,-131.200,-65.710,-52.580
17,33137.35000,248.108,56.047,12.524,373.264,296.388,0.249,-135.200,-55.710,-37.580
18,33137.80000,248.108,57.057,12.524,375.911,297.286,1.280,-2.200,-15.710,0.420
19,33137.120000,245.148,55.037,15.530,373.266,294.680,1.187,30.800,-13.710,2.420
20,33137.161000,245.148,58.067,13.526,371.503,300.698,-0.610,21.800,-15.710,-5.580
21,33137.181000,244.162,56.047,13.526,375.910,303.306,-0.511,-1.200,-16.710,-0.580
22,33137.221000,244.162,57.057,12.524,374.141,301.512,-2.561,-23.200,-20.710,-4.580
23,33137.262000,247.121,57.057,17.534,370.624,303.302,-0.528,-25.200,-24.710,-7.580
24,33137.296000,247.121,54.028,11.523,373.260,298.067,-1.682,0.800,-12.710,-1.580
25,33137.338000,246.135,57.057,12.524,371.503,296.387,0.243,3.800,-21.710,-5.580
26,33137.383000,248.108,59.077,12.524,370.612,295.433,-2.769,-10.200,-28.710,-8.580
27,33137.418000,246.135,57.057,13.526,375.016,297.144,-3.693,-19.200,-17.710,-2.580
28,33137.438000,247.121,55.037,12.524,373.259,300.643,-2.592,-11.200,-26.710,-3.580
29,33137.478000,248.108,58.067,12.524,372.384,300.699,-0.607,-19.200,-29.710,-4.580
30,33137.518000,247.121,58.067,11.523,370.625,304.170,-0.500,0.800,-15.710,0.420
31,33137.558000,246.135,56.047,13.526,369.734,303.217,-3.513,-2.200,-22.710,-3.580
32,33137.598000,246.135,57.057,10.521,371.493,298.878,-3.648,-11.200,-20.710,-3.580
33,33137.638000,246.135,56.047,11.523,373.258,302.351,-3.529,-12.200,-12.710,-3.580
34,33137.658000,246.135,56.047,11.523,372.375,299.746,-3.617,4.800,-16.710,-6.580
35,33137.696000,247.121,58.067,11.523,371.498,301.510,-2.569,-16.200,-17.710,-9.580
36,33137.736000,243.175,56.047,9.519,371.493,303.190,-4.501,-11.200,-10.710,-6.580
37,33137.776000,247.121,56.047,13.526,368.850,302.320,-4.538,-9.200,-15.710,-10.580
38,33137.816000,247.121,57.057,11.523,371.500,300.670,-1.604,-12.200,-15.710,-11.580
39,33137.856000,246.135,56.047,11.523,369.733,297.169,-2.716,-10.200,-10.710,-9.580
40,33137.896000,246.135,56.047,11.523,371.490,297.982,-4.670,-15.200,-13.710,-11.580
41,33137.916000,247.121,59.077,11.523,369.734,298.905,-2.660,-15.200,-10.710,-10.580
42,33137.956000,245.148,57.057,10.521,371.498,305.822,-3.422,1.800,-5.710,-6.580
43,33137.996000,247.121,58.067,11.523,370.614,304.925,-4.447,-16.200,-13.710,-11.580
44,33138.38000,247.121,58.067,11.523,371.496,303.218,-3.507,-23.200,-13.710,-14.580
45,33138.79000,246.135,59.077,11.523,373.262,304.115,-2.479,-4.200,-2.710,-8.580
46,33138.119000,247.121,58.067,11.523,369.735,299.773,-2.631,-3.200,-1.710,-6.580
47,33138.139000,246.135,58.067,9.519,369.736,298.065,-1.694,-4.200,8.290,-3.580
48,33138.178000,245.148,59.077,11.523,369.730,300.584,-4.591,-7.200,8.290,-4.580
49,33138.219000,247.121,58.067,11.523,371.504,301.566,-0.582,-3.200,3.290,-6.580
50,33138.260000,246.135,58.067,13.526,371.495,305.794,-4.416,5.800,0.290,-7.580
51,33138.300000,245.148,59.077,11.523,368.859,306.716,-2.409,-5.200,-5.710,-10.580
52,33138.341000,246.135,58.067,9.519,370.617,305.821,-3.425,3.800,-3.710,-6.580
53,33138.381000,246.135,59.077,11.523,368.860,305.008,-1.471,-3.200,-4.710,-6.580
54,33138.400000,247.121,59.077,11.523,370.611,300.585,-4.588,-0.200,0.290,-3.580
55,33138.439000,246.135,59.077,9.519,369.740,299.829,-0.644,-5.200,2.290,-2.580
56,33138.478000,245.148,58.067,10.521,367.979,304.140,-1.502,-1.200,9.290,-0.580
57,33138.519000,246.135,57.057,10.521,374.143,304.984,-2.448,-0.200,14.290,3.420
58,33138.559000,246.135,58.067,10.521,370.627,303.330,0.466,-2.200,11.290,2.420
59,33138.599000,246.135,59.077,12.524,366.212,304.950,-3.468,6.800,7.290,1.420
60,33138.623000,246.135,60.087,12.524,370.623,305.878,-1.437,-1.200,7.290,4.420
61,33138.657000,244.162,60.087,11.523,368.858,301.536,-1.584,10.800,21.290,8.420
62,33138.699000,244.162,60.087,12.524,368.854,299.772,-2.634,6.800,11.290,6.420
63,33138.737000,246.135,58.067,11.523,371.500,304.982,-2.457,1.800,7.290,4.420
64,33138.777000,246.135,58.067,12.524,371.507,306.774,-0.413,3.800,7.290,7.420
65,33138.817000,245.148,59.077,11.523,371.505,304.170,-0.497,6.800,4.290,5.420
66,33138.857000,247.121,60.087,13.526,369.746,299.885,1.344,-7.200,1.290,6.420
67,33138.877000,245.148,58.067,11.523,367.099,302.431,-0.568,-7.200,6.290,8.420
68,33138.917000,245.148,58.067,10.521,369.738,296.357,-0.756,-3.200,4.290,5.420
69,33138.957000,245.148,58.067,12.524,369.743,299.857,0.350,-0.200,0.290,7.420
70,33138.999000,247.121,58.067,12.524,368.865,299.885,1.341,-9.200,-8.710,2.420
71,33139.40000,245.148,58.067,10.521,371.499,299.802,-1.632,-7.200,-10.710,1.420
72,33139.81000,246.135,59.077,11.523,368.865,303.329,0.460,-0.200,-5.710,3.420
73,33139.121000,246.135,57.057,10.521,370.623,301.566,-0.584,-9.200,-6.710,2.420
74,33139.141000,246.135,58.067,12.524,369.750,305.093,1.513,-2.200,-1.710,3.420
75,33139.184000,246.135,59.077,12.524,369.741,304.141,-1.497,-7.200,-8.710,-0.580
76,33139.221000,246.135,59.077,11.523,367.096,297.223,-0.737,-12.200,-7.710,-1.580
77,33139.257000,247.121,56.047,11.523,373.265,300.700,-0.604,-7.200,5.290,2.420
78,33139.297000,247.121,57.057,11.523,368.860,297.253,0.263,-6.200,8.290,3.420
79,33139.337000,245.148,59.077,12.524,372.381,300.671,-1.601,-4.200,4.290,2.420
80,33139.357000,246.135,58.067,10.521,369.744,304.169,-0.503,-8.200,-3.710,-1.580
81,33139.399000,245.148,59.077,13.526,373.270,303.332,0.474,-0.200,-3.710,-1.580
82,33139.442000,247.121,60.087,13.526,372.386,304.171,-0.494,-9.200,0.290,-0.580
83,33139.482000,247.121,58.067,12.524,369.752,304.254,2.479,-11.200,4.290,1.420
84,33139.521000,245.148,58.067,11.523,371.511,299.915,2.344,-9.200,-3.710,-0.580
85,33139.562000,246.135,58.067,11.523,371.513,299.075,3.310,-6.200,-4.710,-0.580
86,33139.603000,246.135,58.067,12.524,374.143,297.228,-0.714,-5.200,1.290,2.420
87,33139.623000,246.135,58.067,12.524,370.623,305.878,-1.437,-5.200,6.290,3.420
88,33139.663000,246.135,58.067,13.526,368.864,302.461,0.432,-1.200,10.290,3.420
89,33139.703000,247.121,59.077,13.526,368.872,305.989,2.532,7.800,17.290,7.420
90,33139.743000,246.135,56.047,12.524,367.991,305.988,2.530,6.800,11.290,4.420
91,33139.778000,247.121,57.057,11.523,367.982,300.724,0.373,-7.200,2.290,1.420
92,33139.818000,246.135,58.067,10.521,368.859,299.828,-0.646,1.800,11.290,6.420
93,33139.838000,245.148,58.067,13.526,370.629,302.490,1.432,-1.200,9.290,4.420
94,33139.878000,245.148,59.077,14.528,372.398,304.284,3.481,-5.200,2.290,1.420
95,33139.929000,245.148,57.057,12.524,370.634,305.122,2.510,-3.200,2.290,2.420
96,33139.958000,245.148,57.057,13.526,372.386,303.303,-0.522,1.800,-3.710,2.420
97,33140.0,245.148,58.067,13.526,370.631,298.206,3.279,-4.200,-8.710,-2.580
98,33140.41000,248.108,59.077,11.523,367.104,297.308,2.245,-14.200,-3.710,0.420
99,33140.81000,247.121,58.067,12.524,370.633,300.810,3.363,-8.200,6.290,4.420
100,33140.101000,246.135,57.057,12.524,371.507,299.019,1.322,-9.200,-0.710,2.420
101,33140.143000,246.135,57.057,13.526,367.996,300.865,5.342,-2.200,3.290,2.420
102,33140.181000,246.135,58.067,13.526,370.633,299.942,3.335,1.800,6.290,2.420
103,33140.221000,246.135,58.067,14.528,369.758,305.178,4.495,-0.200,6.290,2.420
104,33140.261000,245.148,58.067,13.526,369.750,305.093,1.513,-0.200,-2.710,-0.580
105,33140.298000,246.135,57.057,12.524,369.754,306.858,2.564,-4.200,-11.710,-4.580
106,33140.318000,245.148,58.067,12.524,370.624,298.990,0.325,-0.200,-13.710,-6.580
107,33140.358000,245.148,57.057,12.524,368.867,299.045,2.307,-1.200,-16.710,-7.580
108,33140.401000,246.135,58.067,12.524,371.513,302.519,2.428,-12.200,-18.710,-11.580
109,33140.438000,246.135,58.067,12.524,369.754,302.546,3.417,-23.200,-15.710,-15.580
110,33140.478000,246.135,57.057,11.523,367.989,305.960,1.536,-13.200,-9.710,-10.580
111,33140.518000,247.121,59.077,10.521,368.865,304.197,0.488,-18.200,-1.710,-8.580
112,33140.562000,245.148,59.077,11.523,367.993,304.280,3.467,0.800,9.290,-2.580
113,33140.582000,246.135,58.067,13.526,368.871,303.385,2.448,-4.200,6.290,-2.580
114,33140.622000,247.121,58.067,12.524,367.990,303.384,2.445,0.800,7.290,0.420
115,33140.663000,245.148,59.077,13.526,371.518,305.151,3.507,9.800,12.290,5.420
116,33140.703000,245.148,57.057,12.524,366.228,303.383,2.439,5.800,8.290,3.420
117,33140.744000,246.135,58.067,13.526,369.750,300.782,2.366,-3.200,10.290,9.420
118,33140.784000,243.175,57.057,10.521,369.757,303.442,4.439,11.800,28.290,11.420
119,33140.799000,245.148,58.067,14.528,369.752,296.498,4.213,-0.200,14.290,4.420
120,33140.839000,246.135,57.057,13.526,367.985,300.752,1.367,-1.200,8.290,4.420
121,33140.884000,244.162,56.047,13.526,366.227,298.203,3.264,2.800,7.290,5.420
122,33140.924000,246.135,58.067,15.530,366.231,300.835,4.343,3.800,5.290,2.420
123,33140.961000,245.148,57.057,12.524,370.645,305.235,6.486,15.800,12.290,6.420
124,33141.1000,246.135,58.067,13.526,369.754,303.414,3.445,11.800,9.290,4.420
125,33141.43000,245.148,59.077,14.528,368.878,302.601,5.402,15.800,1.290,6.420
126,33141.62000,248.108,58.067,10.521,371.515,305.991,2.541,18.800,3.290,8.420
127,33141.104000,245.148,58.067,14.528,370.640,306.047,4.526,26.800,7.290,10.420
128,33141.144000,246.135,58.067,14.528,367.988,301.648,2.389,18.800,0.290,8.420
129,33141.184000,245.148,58.067,13.526,370.624,296.414,1.234,4.800,5.290,10.420
130,33141.224000,245.148,57.057,13.526,371.516,299.103,4.304,18.800,8.290,9.420
131,33141.264000,245.148,58.067,14.528,371.515,301.679,3.394,10.800,-1.710,7.420
132,33141.283000,247.121,57.057,13.526,367.994,298.261,5.258,-2.200,-5.710,5.420
133,33141.322000,244.162,57.057,12.524,367.994,305.148,3.495,1.800,-2.710,7.420
134,33141.362000,245.148,57.057,14.528,370.636,296.527,5.210,-15.200,-11.710,1.420
135,33141.402000,247.121,58.067,14.528,371.507,302.462,0.441,1.800,5.290,12.420
136,33141.442000,247.121,56.047,14.528,371.507,294.707,2.175,7.800,14.290,18.420
137,33141.482000,246.135,58.067,14.528,370.625,301.594,0.410,2.800,10.290,13.420
138,33141.522000,246.135,59.077,15.530,370.638,303.443,4.442,-8.200,3.290,18.420
139,33141.542000,245.148,55.037,12.524,372.395,296.500,4.222,24.800,15.290,34.420
140,33141.581000,246.135,56.047,14.528,371.522,303.471,5.438,27.800,16.290,34.420
141,33141.622000,245.148,55.037,15.530,371.513,299.075,3.310,35.800,9.290,37.420
142,33141.663000,245.148,55.037,14.528,372.391,294.736,3.172,34.800,0.290,36.420
143,33141.704000,247.121,55.037,14.528,375.034,294.738,3.180,30.800,-8.710,35.420
144,33141.743000,246.135,56.047,12.524,373.271,293.868,3.146,24.800,-7.710,37.420
145,33141.764000,247.121,55.037,13.526,378.560,298.212,3.304,36.800,0.290,37.420
146,33141.804000,247.121,53.018,16.532,375.910,296.418,1.251,53.800,-1.710,34.420
147,33141.843000,248.108,54.028,14.528,375.016,290.257,-1.930,54.800,-11.710,29.420
148,33141.884000,248.108,52.008,12.524,378.539,289.391,-1.947,25.800,-11.710,26.420
149,33141.924000,246.135,53.018,14.528,376.786,292.918,0.148,42.800,-4.710,23.420
150,33141.964000,245.148,54.028,14.528,376.770,290.174,-4.906,15.800,-5.710,21.420
151,33142.4000,246.135,49.988,12.524,375.896,289.389,-1.956,16.800,-4.710,19.420
152,33142.24000,248.108,52.008,13.526,377.663,291.155,-0.900,-1.200,-14.710,8.420
153,33142.64000,248.108,55.037,13.526,377.654,294.514,-4.763,-5.200,-17.710,6.420
154,33142.104000,247.121,52.008,12.524,379.421,298.016,-3.650,0.800,-10.710,9.420
155,33142.144000,247.121,49.988,15.530,375.021,297.201,-1.705,2.800,-12.710,4.420
156,33142.184000,248.108,50.998,11.523,375.895,294.541,-3.774,-3.200,-14.710,-0.580
157,33142.224000,246.135,52.008,12.524,375.897,293.701,-2.809,-5.200,-15.710,0.420
158,33142.244000,243.175,50.998,11.523,377.655,291.938,-3.853,-1.200,-17.710,-6.580
159,33142.284000,247.121,50.998,11.523,378.542,296.307,-2.716,-0.200,-14.710,-7.580
160,33142.325000,246.135,52.008,11.523,377.660,295.438,-2.747,0.800,-10.710,-9.580
161,33142.367000,248.108,53.018,12.524,378.532,295.355,-5.726,-4.200,-9.710,-14.580
162,33142.403000,249.094,53.018,13.526,375.897,298.013,-3.662,-4.200,-5.710,-13.580
163,33142.443000,246.135,53.018,11.523,377.658,292.834,-2.831,-10.200,-4.710,-10.580
164,33142.493000,247.121,53.018,11.523,375.895,291.097,-2.893,-12.200,-2.710,-13.580
165,33142.503000,247.121,53.018,11.523,375.895,291.097,-2.893,-11.200,0.290,-13.580
166,33142.546000,246.135,53.018,12.524,376.780,297.174,-2.693,-12.200,-1.710,-14.580
167,33142.586000,245.148,53.018,13.526,376.787,298.098,-0.677,-13.200,-14.710,-20.580
168,33142.626000,247.121,53.018,11.523,376.773,295.382,-4.737,-15.200,-15.710,-24.580
169,33142.666000,250.081,58.067,13.526,377.656,297.986,-4.650,-17.200,-14.710,-25.580
170,33142.701000,246.135,54.028,12.524,375.899,296.305,-2.724,-4.200,-1.710,-14.580
171,33142.720000,248.108,55.037,12.524,372.371,298.850,-4.639,-14.200,-4.710,-16.580
172,33142.760000,247.121,57.057,13.526,374.136,294.568,-2.786,-23.200,-8.710,-19.580
173,33142.801000,248.108,55.037,11.523,375.899,296.305,-2.724,-24.200,-9.710,-17.580
174,33142.841000,246.135,56.047,10.521,373.263,298.096,-0.689,-15.200,-9.710,-17.580
175,33142.881000,247.121,56.047,11.523,375.021,300.645,-2.586,-13.200,-7.710,-18.580
176,33142.920000,246.135,56.047,13.526,374.146,300.700,-0.601,-15.200,-1.710,-16.580
177,33142.961000,245.148,55.037,12.524,371.494,300.614,-3.591,-21.200,-5.710,-15.580
178,33142.986000,247.121,58.067,14.528,369.731,298.877,-3.653,-20.200,-3.710,-16.580
179,33143.21000,245.148,58.067,12.524,373.260,301.511,-2.564,-12.200,2.290,-10.580
180,33143.61000,246.135,55.037,11.523,370.623,301.566,-0.584,-16.200,-4.710,-8.580
181,33143.102000,252.054,65.136,30.560,374.152,301.625,1.415,-42.200,58.290,-1.580
182,33143.140000,231.337,54.028,14.528,371.535,294.121,12.086,-360.200,157.290,6.420
183,33143.187000,238.243,49.988,15.530,370.657,301.904,11.343,-271.200,-118.710,-46.580
184,33143.200000,246.135,59.077,11.523,370.655,300.168,11.286,-290.200,-285.710,-61.580
185,33143.241000,237.256,50.998,36.571,369.747,293.866,3.135,63.800,-570.710,32.420
186,33143.281000,240.216,47.968,-22.544,370.593,295.236,-9.727,-196.200,-669.710,-27.580
187,33143.327000,265.865,21.712,-40.579,373.230,302.937,-13.440,136.800,-344.710,-6.580
188,33143.367000,255.013,49.988,16.532,372.317,301.759,-24.404,557.800,-219.710,78.420
189,33143.407000,233.310,63.116,124.744,373.139,298.592,-44.364,689.800,-717.710,-38.580
190,33143.447000,346.759,59.077,34.568,367.757,294.187,-77.293,612.800,-1415.710,-283.580
191,33143.467000,372.408,99.471,73.644,357.918,288.403,-128.155,1314.800,-1852.710,-71.580
192,33143.507000,279.676,202.477,42.583,354.306,283.216,-158.125,804.800,-1658.710,-109.580
193,33143.547000,158.335,55.037,82.661,356.061,290.048,-161.869,-263.200,491.290,-285.580
194,33143.586000,148.470,34.840,46.591,367.645,302.552,-118.728,-1673.200,1559.290,-57.580
195,33143.627000,232.324,-4.544,-11.523,388.120,305.547,-44.091,-2367.200,2262.290,429.420
196,33143.667000,335.908,39.890,-72.642,405.026,302.909,15.457,-1730.200,2623.290,793.420
197,33143.687000,281.649,100.481,-109.714,412.257,287.498,83.497,-721.200,2241.290,593.420
198,33143.727000,248.108,107.550,-133.761,412.380,278.378,128.879,-422.200,1620.290,293.420
199,33143.776000,227.391,55.037,-153.800,408.042,277.315,152.662,-223.200,592.290,-73.580
200,33143.802000,270.798,30.801,9.519,408.018,274.485,144.626,407.800,-288.710,-199.580
201,33143.842000,221.472,97.452,36.571,405.361,286.410,137.061,791.800,-8.710,-132.580
202,33143.887000,277.703,48.978,26.552,404.460,293.100,128.338,-537.200,-684.710,-488.580
203,33143.927000,279.676,1.515,18.536,403.563,302.422,120.694,-74.200,-588.710,-426.580
204,33143.946000,211.607,82.304,59.616,399.132,312.497,109.091,303.800,-430.710,-391.580
205,33143.983000,256.000,63.116,15.530,400.876,314.905,102.223,240.800,-355.710,-336.580
206,33144.27000,246.135,82.304,35.569,394.682,319.798,91.439,304.800,-307.710,-235.580
207,33144.67000,246.135,87.353,39.577,397.306,321.339,84.547,306.800,-309.710,-139.580
208,33144.102000,247.121,69.176,38.575,397.270,327.021,70.829,463.800,-333.710,-58.580
209,33144.142000,240.216,67.156,30.560,395.479,329.314,59.975,456.800,-438.710,-86.580
210,33144.162000,225.418,88.363,34.568,396.324,334.128,46.232,430.800,-529.710,-121.580
211,33144.202000,233.310,76.245,11.523,396.273,337.065,27.460,405.800,-627.710,-139.580
212,33144.246000,242.189,67.156,-4.509,395.335,339.945,6.698,447.800,-698.710,-165.580
213,33144.283000,235.283,85.333,13.526,392.655,336.133,-5.350,390.800,-855.710,-202.580
214,33144.327000,248.108,85.333,13.526,389.945,340.635,-30.037,-38.200,-1242.710,-227.580
215,33144.365000,261.919,39.890,-24.548,386.352,342.532,-54.812,-43.200,-1466.710,-253.580
216,33144.405000,318.150,108.560,12.524,375.690,345.935,-87.505,606.800,-1522.710,-337.580
217,33144.426000,411.869,25.751,-83.663,367.695,347.857,-111.300,1053.800,-1145.710,-316.580
218,33144.464000,164.254,96.442,-119.734,360.569,345.355,-138.214,1295.800,-320.710,169.420
219,33144.504000,148.470,149.964,-175.843,354.349,345.683,-157.091,180.800,-1111.710,-3.580
220,33144.544000,111.969,120.679,-214.920,346.352,337.246,-179.236,750.800,-722.710,-79.580
221,33144.584000,102.104,111.590,-236.963,337.454,319.987,-206.635,1186.800,-654.710,-140.580
222,33144.624000,93.225,76.245,-213.918,328.585,315.945,-226.654,549.800,-877.710,-27.580
223,33144.644000,96.185,41.909,-185.863,313.553,324.863,-248.259,-170.200,-985.710,-65.580
224,33144.684000,102.104,40.899,-169.832,298.539,319.306,-260.403,-71.200,-771.710,-76.580
225,33144.724000,120.848,55.037,-135.765,289.698,318.989,-271.365,32.800,-417.710,-192.580
226,33144.769000,144.524,71.195,-142.779,284.409,325.845,-274.138,-102.200,-105.710,-266.580
227,33144.804000,154.389,54.028,-109.714,278.230,324.860,-278.162,-24.200,178.290,-299.580
228,33144.844000,175.106,110.580,-115.726,274.722,326.734,-273.147,-269.200,410.290,-261.580
229,33144.888000,181.025,53.018,-37.573,280.957,335.170,-251.008,-725.200,890.290,-30.580
230,33144.908000,148.470,164.103,-264.016,285.400,341.587,-238.870,-1009.200,744.290,55.420
231,33144.948000,254.027,117.649,-16.532,290.787,356.381,-206.597,-1236.200,1150.290,-129.580
232,33144.988000,332.948,34.840,-58.614,300.570,366.781,-176.438,-546.200,1348.290,123.420
233,33145.47000,322.096,127.748,-30.560,308.589,374.576,-146.370,-817.200,985.290,142.420
234,33145.68000,268.825,133.807,-65.628,320.114,365.825,-118.813,-361.200,1344.290,453.420
235,33145.108000,233.310,114.619,-77.652,332.487,358.472,-103.124,-323.200,1356.290,602.420
236,33145.128000,199.769,96.442,-66.630,349.297,347.989,-75.607,-241.200,1427.290,793.420
237,33145.167000,236.270,98.462,-9.519,363.476,343.665,-44.919,-409.200,1185.290,705.420
238,33145.208000,233.310,56.047,3.507,373.234,331.412,-18.474,-482.200,929.290,515.420
239,33145.243000,240.216,66.146,54.607,375.915,333.516,-5.489,-667.200,635.290,269.420
240,33145.283000,244.162,56.047,77.652,374.183,327.777,6.235,-393.200,323.290,161.420
241,33145.323000,247.121,73.215,14.528,377.732,323.721,16.045,-246.200,224.290,161.420
242,33145.363000,243.175,85.333,5.511,380.402,318.825,26.818,-250.200,245.290,217.420
243,33145.383000,259.946,59.077,24.548,384.819,312.922,32.598,-230.200,240.290,316.420
244,33145.423000,284.609,54.028,-27.554,389.242,309.650,39.457,197.800,493.290,421.420
245,33145.463000,286.582,34.840,-48.595,398.973,299.720,56.047,144.800,958.290,647.420
246,33145.503000,229.364,155.014,-198.888,395.469,292.159,64.727,-674.200,-168.710,311.420
247,33145.546000,200.755,183.290,-342.168,393.661,298.594,47.057,85.800,-1447.710,-463.580
248,33145.584000,281.649,151.984,-254.998,376.728,306.130,-23.256,2700.800,-2150.710,-785.580
249,33145.604000,300.393,141.886,-162.818,343.855,308.526,-121.589,2631.800,-3308.710,-935.580
250,33145.644000,241.202,83.314,-73.644,296.080,312.511,-194.101,1377.800,-3404.710,-949.580
251,33145.685000,221.472,33.830,-33.566,255.443,319.110,-235.723,540.800,-2931.710,-923.580
252,33145.727000,186.944,1.515,45.589,235.109,317.523,-260.664,968.800,-1569.710,-558.580
253,33145.763000,185.958,108.560,-7.515,224.485,318.716,-279.527,817.800,-591.710,-243.580
254,33145.808000,163.268,3.535,69.636,240.377,323.378,-268.401,-519.200,554.290,187.420
255,33145.843000,376.355,288.316,-155.804,263.417,339.390,-224.117,-2147.200,996.290,319.420
256,33145.863000,385.233,-35.850,-9.519,286.405,347.979,-196.953,-588.200,2001.290,679.420
257,33145.904000,308.285,173.191,35.569,316.389,337.111,-183.308,723.800,1670.290,262.420
258,33145.946000,293.487,59.077,-20.540,326.127,344.485,-168.143,-342.200,723.290,167.420
259,33145.989000,254.027,78.264,-61.620,333.202,343.904,-158.209,-324.200,488.290,67.420
260,33146.26000,278.690,133.807,29.558,337.632,351.048,-151.012,230.800,436.290,11.420
261,33146.68000,260.933,108.560,14.528,341.159,347.635,-149.126,97.800,245.290,-77.580
262,33146.85000,291.514,62.107,-42.583,338.525,348.586,-146.124,-164.200,-79.710,-81.580
263,33146.124000,270.798,111.590,-27.554,334.997,350.263,-148.067,-165.200,-271.710,-112.580
264,33146.164000,242.189,100.481,-41.581,332.353,348.525,-148.132,-144.200,-503.710,-154.580
265,33146.207000,267.838,53.018,-11.523,319.110,355.989,-159.848,-214.200,-963.710,-129.580
266,33146.244000,279.676,74.225,-7.515,299.682,356.364,-176.779,-162.200,-1477.710,-267.580
267,33146.284000,337.881,99.471,47.593,274.071,358.302,-199.637,88.800,-1728.710,-433.580
268,33146.328000,432.586,76.245,122.740,239.623,353.931,-230.672,612.800,-1878.710,-514.580
269,33146.347000,394.112,159.053,-19.538,219.273,334.088,-257.199,928.800,-1886.710,-155.580
270,33146.384000,112.956,135.826,-130.755,192.753,321.968,-286.474,262.800,-1655.710,-191.580
271,33146.424000,71.522,-52.008,265.018,190.139,326.560,-277.396,-705.200,305.290,0.420
272,33146.464000,41.927,23.732,163.820,232.578,350.511,-228.819,-2115.200,2603.290,926.420
273,33146.505000,179.052,-29.791,-7.515,276.762,351.027,-180.998,-1577.200,3966.290,1623.420
274,33146.548000,409.896,73.215,-138.771,343.055,326.561,-97.175,-680.200,5040.290,2013.420
275,33146.567000,446.397,248.931,-264.016,388.264,304.380,6.514,-832.200,4559.290,1488.420
276,33146.607000,246.135,170.162,-350.184,399.931,289.282,85.501,-1142.200,2844.290,639.420
277,33146.644000,177.079,120.679,-368.219,403.511,278.648,108.006,-846.200,919.290,268.420
278,33146.687000,174.119,112.600,-243.977,404.384,278.564,105.027,203.800,-1003.710,-401.580
279,33146.727000,222.459,117.649,61.620,407.848,290.043,81.579,1302.800,-592.710,-300.580
280,33146.764000,295.461,20.702,-35.569,407.804,298.216,63.970,-764.200,-1406.710,-609.580
281,33146.812000,258.960,97.452,24.548,396.314,309.041,48.397,311.800,-1013.710,-778.580
282,33146.826000,224.432,140.876,-22.544,394.502,329.223,26.207,83.800,-1116.710,-610.580
283,33146.872000,272.771,77.254,-31.562,387.409,336.523,8.548,234.800,-872.710,-424.580
284,33146.904000,271.784,86.343,-1.503,382.081,339.541,-7.259,268.800,-522.710,-211.580
285,33146.945000,266.852,73.215,-9.519,381.158,339.986,-22.143,326.800,-466.710,-139.580
286,33146.988000,229.364,82.304,-2.505,382.898,344.941,-30.913,406.800,-478.710,-131.580
287,33147.25000,215.553,84.323,-2.505,381.087,347.037,-48.725,394.800,-641.710,-168.580
288,33147.44000,210.620,77.254,-30.560,374.875,347.450,-64.619,326.800,-783.710,-200.580
289,33147.88000,209.634,77.254,-30.560,371.284,344.195,-87.575,198.800,-1033.710,-256.580
290,33147.124000,235.283,82.304,-54.607,360.681,351.633,-100.277,74.800,-1339.710,-347.580
291,33147.164000,260.933,57.057,-63.624,348.267,352.544,-129.084,436.800,-1338.710,-406.580
292,33147.207000,360.570,152.994,-9.519,334.039,349.502,-174.906,1619.800,-1268.710,-396.580
293,33147.249000,314.204,112.600,-90.677,322.494,342.544,-205.951,1181.800,-1191.710,-134.580
294,33147.287000,188.917,196.418,-279.045,313.630,344.578,-225.773,710.800,-1242.710,-226.580
295,33147.305000,159.322,69.176,-165.824,301.233,338.770,-246.854,965.800,-698.710,-314.580
296,33147.348000,84.347,60.087,-242.975,287.080,333.884,-265.925,633.800,-762.710,-353.580
297,33147.390000,60.671,1.515,-210.912,268.532,333.392,-282.881,334.800,-747.710,-292.580
298,33147.425000,61.657,35.850,-190.873,259.677,321.735,-296.197,566.800,-534.710,-188.580
299,33147.468000,61.657,28.781,-153.800,252.589,319.600,-310.191,422.800,-188.710,-28.580
300,33147.508000,76.455,-3.535,-126.748,251.700,312.627,-311.413,38.800,41.290,159.420
301,33147.528000,89.279,56.047,-103.703,261.413,313.727,-303.402,-658.200,442.290,352.420
302,33147.567000,122.821,75.235,-155.804,274.698,329.085,-282.008,-1180.200,782.290,403.420
303,33147.622000,142.551,251.961,-434.348,272.981,332.110,-267.021,-1064.200,278.290,26.420
304,33147.646000,165.241,6.564,30.560,275.658,344.517,-257.673,-434.200,621.290,42.420
305,33147.692000,121.834,299.424,-326.137,275.733,357.317,-234.418,-1083.200,404.290,-33.580
306,33147.733000,237.256,79.274,-115.726,286.408,367.831,-200.281,-876.200,1360.290,-60.580
307,33147.770000,336.894,100.481,0.501,294.397,369.296,-179.355,-710.200,1552.290,330.420
308,33147.787000,366.489,102.501,-14.528,308.580,373.623,-149.380,-623.200,1288.290,245.420
309,33147.829000,327.029,120.679,-20.540,318.336,370.834,-125.607,-364.200,902.290,303.420
310,33147.867000,248.108,110.580,-65.628,328.948,367.792,-110.777,-153.200,893.290,415.420
311,33147.909000,210.620,112.600,-58.614,333.394,363.038,-95.029,-67.200,980.290,546.420
312,33147.948000,197.796,79.274,-44.587,349.301,354.065,-75.409,-110.200,971.290,565.420
313,33147.985000,194.836,71.195,-39.577,357.280,345.086,-55.815,-472.200,728.290,434.420
314,33148.7000,207.661,83.314,-27.554,363.506,337.927,-33.189,-690.200,562.290,377.420
315,33148.50000,259.946,83.314,23.546,370.613,334.212,-11.441,-763.200,705.290,358.420
316,33148.88000,257.973,70.185,36.571,376.808,334.498,-1.482,-611.200,513.290,353.420
317,33148.127000,249.094,65.136,8.517,379.488,327.978,13.210,-390.200,291.290,274.420
318,33148.173000,263.892,87.353,-13.526,383.918,323.923,23.022,-205.200,239.290,315.420
319,33148.205000,281.649,74.225,-33.566,388.354,312.169,36.557,8.800,614.290,527.420
320,33148.248000,307.299,46.959,-41.581,391.908,302.989,49.180,51.800,1275.290,715.420
321,33148.267000,222.459,78.264,-133.761,398.130,286.310,72.490,49.800,936.290,758.420
322,33148.309000,198.782,319.621,-397.276,399.863,282.586,63.438,-302.200,-873.710,-72.580
323,33148.353000,272.771,164.103,-360.204,385.579,301.379,-7.493,2153.800,-2040.710,-768.580
324,33148.385000,294.474,229.744,-263.014,364.237,307.148,-78.870,3886.800,-3096.710,-1112.580
325,33148.428000,301.380,146.935,-133.761,312.894,315.859,-168.121,1254.800,-4011.710,-1139.580
326,33148.470000,233.310,42.919,-37.573,263.417,327.322,-221.529,444.800,-3411.710,-1172.580
327,33148.487000,188.917,-1.515,46.591,226.307,323.621,-259.502,865.800,-2344.710,-774.580
328,33148.527000,187.931,-22.722,87.671,215.690,319.719,-274.557,967.800,-715.710,-282.580
329,33148.567000,234.297,24.742,147.789,216.531,319.325,-288.469,518.800,546.290,-51.580
330,33148.609000,232.324,74.225,118.732,245.669,328.618,-267.221,-1068.200,1568.290,246.420
331,33148.647000,432.586,135.826,-73.644,262.575,357.871,-214.583,-2432.200,1170.290,128.420
332,33148.689000,347.746,164.103,21.542,284.653,357.554,-195.655,-163.200,1451.290,166.420
333,33148.727000,261.919,45.949,-36.571,297.024,358.797,-182.666,-232.200,1411.290,96.420
334,33148.750000,267.838,57.057,-49.597,304.146,363.847,-157.655,-476.200,923.290,-14.580
335,33148.790000,266.852,107.550,-37.573,311.243,366.935,-140.651,-333.200,812.290,-19.580
336,33148.828000,226.405,139.866,-25.550,320.095,369.939,-126.623,-103.200,880.290,104.420
337,33148.870000,237.256,80.284,-41.581,326.287,374.509,-118.511,19.800,693.290,259.420
338,33148.909000,221.472,73.215,-75.648,332.465,370.315,-113.663,79.800,325.290,287.420
339,33148.947000,219.499,81.294,-72.642,340.397,366.905,-111.762,132.800,349.290,247.420
340,33148.970000,222.459,81.294,-51.601,346.559,356.521,-111.086,495.800,506.290,183.420
341,33149.8000,232.324,118.659,23.546,349.197,353.891,-112.156,236.800,349.290,85.420
342,33149.48000,260.933,87.353,4.509,354.475,352.103,-114.183,190.800,-15.710,55.420
343,33149.98000,275.730,42.919,-6.513,353.575,349.329,-120.234,229.800,-340.710,54.420
344,33149.131000,264.879,78.264,0.501,349.129,350.639,-135.101,162.800,-722.710,-10.580
345,33149.170000,299.407,98.462,-11.523,336.743,347.519,-153.115,13.800,-1119.710,-170.580
346,33149.208000,300.393,75.235,6.513,327.010,354.845,-169.790,153.800,-1586.710,-280.580
347,33149.227000,347.746,74.225,50.599,298.725,353.027,-202.708,208.800,-2066.710,-454.580
348,33149.269000,489.803,102.501,142.779,260.749,350.334,-235.686,777.800,-2259.710,-487.580
349,33149.307000,329.988,199.448,-40.579,227.168,331.180,-268.191,702.800,-2160.710,-19.580
350,33149.349000,171.160,222.675,-66.630,204.213,324.637,-284.364,-128.200,-2435.710,-87.580
351,33149.387000,86.320,12.623,144.783,189.279,343.136,-273.882,-1141.200,377.290,139.420
352,33149.427000,64.617,-38.880,140.775,222.841,341.429,-243.047,-814.200,2232.290,1027.420
353,33149.450000,151.430,84.323,-21.542,283.813,340.729,-177.337,-1591.200,3517.290,1482.420
354,33149.488000,361.557,105.531,-86.669,319.215,329.453,-117.017,-1602.200,4496.290,1780.420
355,33149.530000,447.383,155.014,-219.930,375.853,307.054,-21.242,-692.200,4637.290,1483.420
356,33149.568000,385.233,156.024,-284.055,391.920,292.771,55.799,158.800,3835.290,952.420
357,33149.613000,208.647,184.300,-350.184,400.855,283.685,102.203,-209.200,1774.290,312.420
358,33149.647000,201.742,101.491,-254.998,400.902,289.316,117.281,-1111.200,71.290,-102.580
359,33149.689000,289.541,100.481,50.599,405.290,290.018,111.360,-399.200,-1011.710,-412.580
360,33149.708000,294.474,60.087,-2.505,405.257,298.303,97.727,355.800,-810.710,-343.580
361,33149.748000,248.108,57.057,-18.536,401.687,308.182,79.169,-148.200,-1053.710,-700.580
362,33149.790000,259.946,100.481,-6.513,391.075,322.423,61.723,-108.200,-1181.710,-800.580
363,33149.830000,257.973,88.363,42.583,388.372,332.161,38.199,594.800,-1204.710,-606.580
364,33149.870000,274.744,75.235,-6.513,383.009,334.840,10.465,157.800,-1225.710,-510.580
365,33149.908000,269.811,101.491,-7.515,382.075,343.796,-10.100,388.800,-927.710,-348.580
366,33149.932000,261.919,66.146,-38.575,374.984,353.700,-27.675,487.800,-564.710,-273.580
367,33149.969000,239.229,70.185,-34.568,372.313,356.860,-38.504,417.800,-561.710,-275.580
368,33150.9000,222.459,95.432,-31.562,365.221,354.697,-53.492,399.800,-586.710,-230.580
369,33150.49000,216.540,86.343,-31.562,359.891,363.734,-71.090,426.800,-668.710,-253.580
370,33150.95000,198.782,85.333,-43.585,355.432,358.883,-89.135,343.800,-823.710,-291.580
371,33150.130000,217.526,94.422,-52.603,350.987,368.817,-105.708,395.800,-1060.710,-392.580
372,33150.173000,255.013,69.176,-40.579,338.583,368.972,-130.568,669.800,-1172.710,-443.580
373,33150.188000,368.462,57.057,-15.530,321.740,368.786,-167.368,1232.800,-1045.710,-422.580
374,33150.228000,296.447,126.738,-82.661,311.943,353.933,-201.643,1288.800,-897.710,-160.580
375,33150.270000,184.971,177.231,-171.836,305.726,359.469,-220.350,462.800,-827.710,-81.580
376,33150.308000,133.672,99.471,-201.894,301.301,354.089,-226.497,460.800,-557.710,1.420
377,33150.350000,113.942,80.284,-177.847,290.672,338.007,-242.941,1115.800,-263.710,-23.580
378,33150.388000,84.347,54.028,-208.908,285.319,331.307,-265.021,948.800,-432.710,-95.580
379,33150.412000,98.158,34.840,-230.951,279.102,323.040,-281.197,700.800,-548.710,-60.580
380,33150.449000,113.942,60.087,-217.926,271.140,320.120,-292.240,418.800,-617.710,-37.580
381,33150.492000,118.875,53.018,-178.849,256.998,311.036,-306.482,157.800,-647.710,-73.580
382,33150.529000,121.834,54.028,-154.802,252.570,314.251,-315.329,91.800,-484.710,43.420
383,33150.572000,121.834,44.939,-125.746,245.511,306.378,-317.593,-235.200,-146.710,128.420
384,33150.610000,113.942,48.978,-85.667,250.807,312.514,-315.391,-456.200,232.290,236.420
385,33150.648000,119.861,62.107,-139.773,262.304,314.681,-300.389,-715.200,694.290,314.420
386,33150.672000,165.241,139.866,-251.992,262.342,324.538,-289.146,-869.200,153.290,7.420
387,33150.709000,51.792,87.353,-64.626,262.405,340.669,-270.749,-1154.200,387.290,-112.580
388,33150.752000,78.428,234.793,-266.020,258.051,348.061,-254.635,-1454.200,276.290,-146.580
389,33150.788000,293.487,95.432,-19.538,263.432,366.242,-225.231,-672.200,1050.290,-124.580
390,33150.828000,312.231,59.077,-62.622,274.094,371.462,-194.245,-1170.200,1051.290,327.420
391,33150.869000,321.110,102.501,-74.646,287.380,373.044,-169.326,-708.200,1099.290,328.420
392,33150.890000,307.299,129.767,-42.583,297.126,367.567,-148.620,-399.200,1006.290,373.420
393,33150.930000,287.568,103.511,-67.632,309.500,368.838,-134.637,-277.200,921.290,453.420
394,33150.972000,229.364,109.570,-80.658,324.526,364.176,-115.873,-205.200,982.290,527.420
395,33151.12000,202.728,100.481,-47.593,333.386,351.754,-95.395,-93.200,1023.290,575.420
396,33151.57000,200.755,77.254,-37.573,348.414,341.941,-74.813,-361.200,831.290,523.420
397,33151.92000,200.755,90.383,-17.534,351.099,341.497,-59.924,-497.200,646.290,398.420
398,33151.132000,247.121,71.195,-8.517,359.077,339.406,-42.092,-589.200,460.290,365.420
399,33151.155000,265.865,67.156,-16.532,368.815,331.268,-23.458,-547.200,402.290,361.420
400,33151.190000,247.121,70.185,-4.509,371.480,326.316,-14.673,-345.200,380.290,358.420
401,33151.229000,248.108,101.491,12.524,378.552,325.706,-5.734,-268.200,335.290,395.420
402,33151.270000,277.703,63.116,-5.511,385.630,316.530,6.900,-149.200,426.290,509.420
403,33151.309000,284.609,54.028,-59.616,387.430,303.990,23.380,7.800,926.290,588.420
404,33151.349000,263.892,35.850,-47.593,396.291,293.304,43.914,123.800,1333.290,779.420
405,33151.369000,240.216,119.669,-149.793,397.190,283.142,52.524,1.800,388.290,485.420
406,33151.409000,212.593,239.842,-358.200,399.783,288.685,33.846,703.800,-1651.710,-551.580
407,33151.455000,294.474,192.379,-274.035,376.657,298.538,-46.341,2849.800,-2565.710,-1000.580
408,33151.493000,299.407,147.945,-155.804,337.639,310.618,-139.415,2276.800,-3502.710,-1055.580
409,33151.529000,252.054,83.314,-110.716,290.768,318.273,-204.854,902.800,-3493.710,-1035.580
410,33151.569000,208.647,-21.712,-28.556,263.384,324.409,-232.547,715.800,-2726.710,-897.580
411,33151.613000,141.565,-3.535,32.564,231.566,321.635,-268.486,959.800,-1774.710,-656.580
412,33151.633000,163.268,6.564,41.581,217.411,309.834,-286.788,886.800,-341.710,-278.580
413,33151.669000,165.241,127.748,15.530,225.311,305.246,-295.849,626.800,561.290,-167.580
414,33151.709000,168.200,149.964,211.914,237.726,328.471,-272.217,-1564.200,1518.290,-231.580
415,33151.749000,435.545,152.994,-72.642,254.596,357.358,-232.499,-1972.200,1496.290,99.420
416,33151.789000,351.692,142.895,22.544,283.734,364.075,-210.342,-454.200,1650.290,336.420
417,33151.829000,276.717,65.136,-21.542,304.092,367.623,-177.392,-423.200,1990.290,258.420
418,33151.849000,252.054,112.600,-48.595,312.946,367.212,-161.490,-630.200,996.290,190.420
419,33151.889000,325.056,74.225,-60.618,324.468,373.077,-138.424,-541.200,889.290,195.420
420,33151.929000,343.800,44.939,-49.597,334.204,373.534,-122.490,-206.200,634.290,173.420
421,33151.969000,245.148,92.402,31.562,334.206,371.826,-121.552,-207.200,-33.710,-1.580
422,33152.9000,221.472,94.422,-24.548,334.199,382.102,-126.184,-20.200,-377.710,-17.580
423,33152.49000,222.459,89.373,-78.654,332.429,382.016,-129.171,-48.200,-401.710,-47.580
424,33152.89000,235.283,78.264,-60.618,325.363,380.974,-135.185,122.800,-154.710,-64.580
425,33152.109000,240.216,91.393,-48.595,326.236,380.890,-138.164,101.800,-215.710,-150.580
426,33152.149000,245.148,105.531,-52.603,320.039,382.311,-149.061,153.800,-494.710,-193.580
427,33152.194000,294.474,89.373,-64.626,308.554,380.257,-160.087,38.800,-1077.710,-261.580
428,33152.230000,299.407,95.432,-98.693,296.181,384.166,-174.895,190.800,-841.710,-201.580
429,33152.273000,273.757,105.531,-26.552,287.331,378.585,-188.013,211.800,-675.710,-17.580
430,33152.313000,268.825,86.343,-9.519,274.072,372.105,-202.168,341.800,-968.710,-129.580
431,33152.333000,303.353,85.333,38.575,259.921,365.512,-220.301,754.800,-1228.710,-344.580
432,33152.373000,336.894,81.294,35.569,233.378,344.543,-255.821,1451.800,-1477.710,-405.580
433,33152.413000,301.380,177.231,-55.609,205.953,325.281,-292.282,1503.800,-1472.710,21.420
434,33152.453000,188.917,212.576,-138.771,182.080,306.303,-318.792,766.800,-1424.710,46.420
435,33152.493000,134.659,98.462,-105.706,172.379,307.051,-322.771,-392.200,-752.710,-78.580
436,33152.533000,92.239,-16.663,61.620,181.210,309.859,-315.700,-585.200,1084.290,273.420
437,33152.573000,77.441,53.018,-39.577,217.435,323.863,-281.368,-1480.200,1935.290,570.420
438,33152.594000,155.376,-2.525,-43.585,267.836,339.534,-219.133,-2226.200,2737.290,1061.420
439,33152.638000,267.838,10.604,-102.701,326.193,331.358,-141.758,-1541.200,3836.290,1413.420
440,33152.673000,390.166,155.014,-145.785,362.467,319.130,-84.445,-587.200,4497.290,1467.420
441,33152.712000,407.923,194.398,-199.890,397.958,301.839,8.449,-1110.200,4033.290,985.420
442,33152.752000,290.528,140.876,-280.047,410.511,286.798,89.426,-1098.200,2506.290,523.420
443,33152.790000,187.931,142.895,-270.027,410.626,277.593,131.827,-1477.200,892.290,187.420
444,33152.810000,166.227,76.245,-175.843,411.513,285.406,132.083,635.800,-483.710,-253.580
445,33152.852000,217.526,183.290,88.673,411.477,294.531,117.484,1151.800,-77.710,-208.580
446,33152.890000,302.366,136.836,-85.667,407.926,303.739,105.856,-852.200,-1093.710,-653.580
447,33152.930000,274.744,52.008,-25.550,397.326,318.093,92.386,126.800,-705.710,-696.580
448,33152.972000,244.162,99.471,41.581,400.821,316.945,82.430,74.800,-685.710,-383.580
449,33153.12000,259.946,69.176,0.501,397.250,329.399,62.963,273.800,-559.710,-291.580
450,33153.50000,239.229,87.353,50.599,397.217,335.109,50.239,435.800,-601.710,-208.580
451,33153.70000,237.256,84.323,50.599,392.748,339.638,26.540,453.800,-721.710,-205.580
452,33153.110000,256.000,71.195,4.509,389.195,342.798,15.708,434.800,-715.710,-209.580
453,33153.150000,225.418,89.373,14.528,385.619,347.440,-4.013,369.800,-816.710,-222.580
454,33153.190000,231.337,78.264,-1.503,386.439,345.113,-24.938,301.800,-940.710,-275.580
455,33153.230000,250.081,73.215,-17.534,378.449,350.535,-47.627,263.800,-1058.710,-361.580
456,33153.270000,219.499,68.166,-52.603,371.336,354.194,-71.363,79.800,-1285.710,-407.580
457,33153.290000,218.513,87.353,-51.601,362.489,367.597,-87.837,304.800,-1269.710,-447.580
458,33153.332000,308.285,111.590,-20.540,350.952,371.055,-118.544,578.800,-1228.710,-470.580
459,33153.372000,407.923,37.870,-32.564,335.879,370.955,-152.358,1378.800,-895.710,-387.580
460,33153.410000,261.919,112.600,-112.720,327.852,355.320,-183.673,1633.800,-698.710,-116.580
461,33153.450000,119.861,150.974,-188.869,324.285,347.139,-196.859,880.800,-638.710,76.420
462,33153.490000,107.037,138.856,-229.949,316.305,346.626,-214.775,576.800,-655.710,-181.580
463,33153.530000,77.441,84.323,-257.002,304.785,339.054,-236.904,962.800,-695.710,-199.580
464,33153.554000,56.724,58.067,-226.943,293.254,327.925,-262.127,706.800,-941.710,52.420
465,33153.594000,69.549,50.998,-188.869,282.663,327.721,-269.118,-137.200,-978.710,216.420
466,33153.634000,78.428,41.909,-157.808,272.943,326.564,-279.117,-400.200,-869.710,207.420
467,33153.674000,81.387,28.781,-144.783,266.764,332.466,-284.903,-237.200,-493.710,173.420
468,33153.715000,97.171,29.791,-94.685,274.683,327.208,-287.034,-2.200,311.290,260.420
469,33153.752000,120.848,183.290,-330.145,272.949,330.932,-277.982,-558.200,414.290,-37.580
470,33153.775000,156.362,55.037,-29.558,272.076,333.592,-275.912,-503.200,181.290,-355.580
471,33153.815000,86.320,187.329,-147.789,272.991,341.686,-265.717,-533.200,721.290,-139.580
472,33153.856000,237.256,24.742,-64.626,269.562,366.748,-238.104,-1667.200,682.290,-387.580
473,33153.895000,234.297,166.122,-65.628,274.949,377.229,-204.978,-1862.200,779.290,134.420
474,33153.935000,329.988,95.432,-51.601,283.823,381.327,-182.971,-967.200,1291.290,491.420
475,33153.975000,328.015,90.383,-43.585,301.519,382.101,-156.078,-297.200,1371.290,391.420
476,33154.17000,324.069,120.679,-24.548,310.383,371.443,-134.550,-437.200,889.290,381.420
477,33154.32000,247.121,112.600,-67.632,322.770,367.675,-114.772,-96.200,831.290,368.420
478,33154.73000,226.405,111.590,-74.646,328.078,367.904,-106.804,-91.200,875.290,443.420
479,33154.112000,207.661,97.452,-70.638,342.219,360.610,-89.122,114.800,1210.290,528.420
480,33154.153000,183.985,70.185,-54.607,357.276,355.390,-59.453,-96.200,1526.290,538.420
481,33154.192000,193.850,103.511,-14.528,363.502,348.230,-36.827,-387.200,981.290,415.420
482,33154.232000,270.798,97.452,44.587,367.945,341.712,-22.129,-567.200,792.290,371.420
483,33154.252000,289.541,62.107,12.524,372.405,333.655,-0.530,-469.200,689.290,379.420
484,33154.295000,257.973,86.343,20.540,377.734,326.325,16.130,-405.200,652.290,343.420
485,33154.335000,223.445,66.146,34.568,381.305,321.627,33.862,-283.200,518.290,330.420
486,33154.374000,246.135,53.018,39.577,383.087,314.070,42.560,-230.200,224.290,300.420
487,33154.415000,262.906,65.136,41.581,388.373,310.630,43.458,66.800,99.290,300.420
488,33154.455000,277.703,46.959,26.552,394.532,308.842,41.434,356.800,2.290,418.420
489,33154.492000,279.676,69.176,-37.573,398.914,304.308,34.350,209.800,-133.710,288.420
490,33154.512000,277.703,166.122,-249.988,397.111,302.176,20.373,524.800,-373.710,140.420
491,33154.552000,232.324,184.300,-325.135,391.719,303.706,-17.328,1810.800,-1600.710,-569.580
492,33154.592000,266.852,161.073,-234.959,370.379,308.635,-87.739,1825.800,-2653.710,-734.580
493,33154.633000,221.472,62.107,-146.787,332.312,320.552,-155.991,811.800,-3322.710,-749.580
494,33154.673000,197.796,32.821,-111.718,288.110,321.574,-210.714,548.800,-3068.710,-689.580
495,33154.713000,159.322,4.544,-58.614,262.489,325.135,-237.491,1030.800,-2304.710,-530.580
496,33154.733000,154.389,32.821,-31.562,235.067,314.525,-274.664,1165.800,-1500.710,-310.580
497,33154.772000,188.917,99.471,-43.585,220.047,304.600,-287.943,474.800,-578.710,-253.580
498,33154.812000,178.066,62.107,52.603,221.825,307.346,-282.883,-254.200,357.290,-203.580
499,33154.852000,189.904,83.314,91.679,235.112,325.307,-261.405,-902.200,1282.290,36.420
500,33154.894000,355.638,262.059,-169.832,253.729,346.299,-224.916,-1250.200,1455.290,-266.580
501,33154.933000,324.069,110.580,10.521,270.544,350.515,-198.908,572.800,1863.290,54.420
502,33154.973000,271.784,129.767,3.507,295.298,353.982,-168.926,-454.200,1502.290,317.420
503,33154.998000,292.501,63.116,-64.626,312.986,356.407,-144.959,-359.200,1039.290,208.420
504,33155.37000,278.690,72.205,-61.620,318.302,342.917,-131.478,-372.200,874.290,117.420
505,33155.77000,258.960,87.353,-53.605,325.415,359.950,-112.036,-463.200,657.290,179.420
506,33155.117000,255.013,82.304,-27.554,333.369,355.897,-102.212,-229.200,376.290,152.420
507,33155.160000,233.310,88.363,-17.534,336.026,355.172,-97.262,-235.200,70.290,123.420
508,33155.195000,239.229,79.274,-20.540,337.796,363.013,-96.009,-92.200,-140.710,62.420
509,33155.215000,245.148,81.294,-34.568,333.384,360.350,-98.095,-45.200,-225.710,12.420
510,33155.255000,241.202,92.402,-44.587,333.377,362.869,-100.993,99.800,-134.710,7.420
511,33155.297000,254.027,89.373,-31.562,329.834,360.094,-107.052,129.800,-250.710,-46.580
512,33155.335000,263.892,106.540,-35.569,328.035,354.546,-119.154,-1.200,-897.710,-191.580
513,33155.377000,297.434,83.314,-50.599,316.544,356.748,-133.021,256.800,-990.710,-229.580
514,33155.417000,280.663,90.383,-10.521,300.615,354.296,-157.976,360.800,-996.710,-168.580
515,33155.453000,293.487,83.314,7.515,287.326,353.554,-183.861,552.800,-1351.710,-338.580
516,33155.477000,374.382,73.215,61.620,265.227,351.070,-209.830,889.800,-1562.710,-505.580
517,33155.515000,345.773,129.767,37.573,232.509,336.899,-250.114,1547.800,-1844.710,-290.580
518,33155.557000,222.459,177.231,-95.687,209.471,309.716,-290.790,970.800,-1424.710,62.420
519,33155.597000,90.266,111.590,-119.734,187.381,300.428,-312.015,263.800,-1260.710,-106.580
520,33155.637000,131.699,61.097,16.532,192.698,315.385,-304.561,-714.200,349.290,96.420
521,33155.677000,61.657,48.978,15.530,206.847,327.130,-288.247,-1649.200,1249.290,501.420
522,33155.695000,106.050,-6.564,-37.573,249.307,346.126,-230.894,-2372.200,2223.290,846.420
523,33155.737000,233.310,-16.663,-46.591,311.158,346.266,-166.147,-1534.200,3370.290,1613.420
524,33155.777000,352.678,112.600,-109.714,369.515,326.890,-86.156,-1035.200,4014.290,1695.420
525,33155.817000,381.287,223.684,-157.808,394.349,309.615,-23.086,-992.200,3777.290,1333.420
526,33155.853000,321.110,140.876,-296.078,416.584,297.072,54.032,-317.200,2649.290,557.420
527,33155.893000,220.486,171.172,-250.990,417.586,292.236,97.569,606.800,1644.290,237.420
528,33155.938000,203.715,117.649,-236.963,416.684,298.926,88.847,558.800,-101.710,-198.580
529,33155.953000,266.852,84.323,70.638,420.187,304.751,80.110,149.800,-611.710,-584.580
530,33155.994000,271.784,135.826,2.505,414.874,317.401,67.595,-837.200,-1161.710,-586.580
531,33156.34000,236.270,25.751,-27.554,407.776,326.381,48.003,133.800,-909.710,-654.580
532,33156.73000,237.256,136.836,21.542,398.034,340.510,26.585,-164.200,-1390.710,-665.580
533,33156.113000,267.838,80.284,-9.519,397.977,342.522,5.797,223.800,-1155.710,-616.580
534,33156.153000,265.865,101.491,-35.569,389.122,358.445,-13.574,193.800,-940.710,-459.580
535,33156.177000,277.703,86.343,-40.579,382.905,362.245,-32.338,375.800,-594.710,-344.580
536,33156.215000,259.946,97.452,-37.573,376.702,366.186,-46.132,392.800,-510.710,-285.580
537,33156.255000,220.486,102.501,-38.575,371.368,370.015,-63.898,456.800,-486.710,-249.580
538,33156.295000,202.728,96.442,-53.605,364.306,369.869,-68.891,385.800,-554.710,-252.580
539,33156.335000,187.931,107.550,-56.611,358.977,372.019,-84.726,286.800,-633.710,-264.580
540,33156.378000,198.782,103.511,-47.593,351.875,374.922,-104.514,283.800,-739.710,-321.580
541,33156.398000,221.472,93.412,-48.595,338.600,381.209,-127.191,339.800,-1020.710,-406.580
542,33156.434000,302.366,77.254,-41.581,325.349,380.833,-140.155,781.800,-1131.710,-536.580
543,33156.474000,343.800,96.442,-28.556,312.019,380.536,-180.920,1465.800,-1121.710,-438.580
544,33156.515000,276.717,100.481,-134.763,300.485,373.691,-207.990,954.800,-715.710,-84.580
545,33156.555000,129.726,123.708,-201.894,293.385,367.131,-225.106,693.800,-631.710,-4.580
546,33156.597000,113.942,98.462,-221.933,287.186,358.193,-234.353,670.800,-421.710,-78.580
547,33156.637000,84.347,66.146,-182.857,282.730,349.928,-250.523,917.800,-108.710,-14.580
548,33156.657000,118.875,70.185,-228.947,281.809,337.465,-261.854,877.800,-272.710,24.420
549,33156.697000,116.902,61.097,-226.943,277.335,331.606,-284.897,885.800,-434.710,27.420
550,33156.737000,106.050,62.107,-203.898,265.845,320.032,-295.239,649.800,-606.710,58.420
551,33156.777000,102.104,50.998,-164.822,260.506,316.049,-313.259,401.800,-585.710,108.420
552,33156.817000,99.145,50.998,-151.796,249.022,307.975,-322.495,123.800,-475.710,178.420
553,33156.858000,106.050,58.067,-138.771,244.607,309.595,-326.429,-323.200,-202.710,198.420
554,33156.878000,121.834,59.077,-107.710,252.568,310.779,-315.442,-582.200,214.290,279.420
555,33156.914000,136.632,71.195,-98.693,264.042,313.589,-308.363,-773.200,723.290,361.420
556,33156.955000,175.106,157.034,-326.137,268.507,326.251,-290.064,-980.200,212.290,39.420
557,33156.995000,158.335,25.751,-58.614,268.544,337.816,-279.759,-771.200,139.290,95.420
558,33157.35000,48.832,98.462,-146.787,275.652,347.037,-260.570,-1096.200,540.290,109.420
559,33157.75000,267.838,112.600,-144.783,274.827,353.619,-242.485,-1432.200,924.290,10.420
560,33157.115000,333.935,105.531,-20.540,286.379,362.369,-209.395,-827.200,1434.290,140.420
561,33157.137000,328.015,75.235,-36.571,304.071,362.246,-183.525,-396.200,1328.290,154.420
562,33157.177000,327.029,91.393,-40.579,311.178,362.843,-162.630,-442.200,1032.290,237.420
563,33157.217000,300.393,112.600,-32.564,319.152,366.743,-147.583,-278.200,864.290,259.420
564,33157.255000,285.595,96.442,-58.614,331.530,362.023,-130.816,-13.200,1043.290,335.420
565,33157.295000,213.580,85.333,-75.648,338.629,355.647,-111.140,-60.200,1002.290,333.420
566,33157.335000,195.823,91.393,-63.624,350.119,348.266,-96.448,104.800,851.290,338.420
567,33157.375000,198.782,87.353,-48.595,356.332,347.014,-79.588,-76.200,866.290,335.420
568,33157.395000,201.742,81.294,-32.564,361.630,340.243,-73.832,-240.200,654.290,252.420
569,33157.435000,219.499,96.442,-8.517,364.305,337.979,-61.981,-214.200,498.290,165.420
570,33157.474000,225.418,77.254,-0.501,369.627,341.792,-49.925,-160.200,339.290,111.420
571,33157.519000,258.960,97.452,9.519,368.781,342.130,-38.001,-421.200,182.290,88.420
572,33157.559000,245.148,90.383,-11.523,371.430,339.612,-35.095,-308.200,206.290,155.420
573,33157.599000,248.108,95.432,-8.517,373.221,337.319,-24.241,-389.200,146.290,292.420
574,33157.622000,311.245,73.215,-43.585,382.053,324.616,-13.702,-253.200,494.290,472.420
575,33157.658000,297.434,58.067,-79.656,392.687,310.600,11.695,-182.200,1287.290,770.420
576,33157.697000,183.985,129.767,-195.883,401.545,304.197,30.383,-527.200,807.290,830.420
577,33157.737000,169.187,244.892,-341.166,404.214,293.253,41.952,-632.200,-396.710,244.420
578,33157.778000,202.728,165.112,-342.168,389.090,295.221,-10.661,1206.800,-1788.710,-577.580
579,33157.819000,313.218,192.379,-209.910,359.757,308.120,-105.664,3123.800,-2975.710,-1075.580
580,33157.862000,326.042,134.817,-110.716,328.753,306.408,-165.398,1877.800,-3479.710,-923.580
581,33157.878000,228.378,68.166,-26.552,281.023,316.863,-223.798,725.800,-3233.710,-941.580
582,33157.918000,183.985,10.604,10.521,234.241,320.239,-256.607,510.800,-2100.710,-737.580
583,33157.958000,177.079,11.613,12.524,220.080,315.269,-278.660,692.800,-1060.710,-430.580
584,33157.998000,175.106,59.077,18.536,215.661,310.814,-282.790,510.800,-153.710,-163.580
585,33158.38000,208.647,39.890,123.742,228.020,323.144,-276.393,-495.200,946.290,58.420
586,33158.78000,200.755,192.379,-115.726,251.014,336.101,-248.095,-790.200,1631.290,251.420
587,33158.98000,339.854,11.613,-10.521,265.208,351.740,-216.759,-1371.200,1229.290,57.420
588,33158.138000,309.272,138.856,33.566,282.866,354.723,-203.697,206.800,1424.290,42.420
589,33158.178000,285.595,103.511,-23.546,289.061,351.566,-192.857,-549.200,948.290,22.420
590,33158.218000,271.784,109.570,-48.595,299.704,360.033,-169.709,-519.200,768.290,16.420
591,33158.258000,261.919,97.452,-78.654,310.330,369.200,-152.497,-286.200,832.290,197.420
592,33158.298000,189.904,110.580,-85.667,322.700,364.395,-138.711,-315.200,538.290,371.420
593,33158.320000,318.150,23.732,-47.593,330.650,367.202,-131.643,-71.200,592.290,244.420
594,33158.359000,268.825,73.215,-11.523,333.305,364.741,-126.750,-233.200,104.290,46.420
595,33158.395000,224.432,102.501,10.521,333.298,362.949,-128.794,-27.200,-264.710,-25.580
596,33158.435000,266.852,92.402,-18.536,323.574,354.848,-139.018,-30.200,-919.710,-303.580
597,33158.475000,293.487,65.136,-80.658,305.043,366.592,-152.598,216.800,-1128.710,-392.580
598,33158.515000,285.595,105.531,-51.601,294.417,372.937,-173.279,51.800,-1247.710,-426.580
599,33158.557000,278.690,99.471,-58.614,276.751,371.605,-189.267,119.800,-1073.710,-245.580
600,33158.575000,266.852,85.333,-13.526,259.084,367.670,-205.339,337.800,-1080.710,-271.580
601,33158.618000,371.422,88.363,96.689,236.965,356.364,-236.559,778.800,-1415.710,-331.580
602,33158.658000,331.961,150.974,-58.614,215.718,333.776,-268.143,1762.800,-1605.710,-32.580
603,33158.698000,216.540,124.718,-116.728,198.863,310.210,-303.716,1229.800,-1266.710,149.420
604,33158.735000,153.403,140.876,-172.838,189.105,291.440,-323.224,679.800,-778.710,318.420
605,33158.778000,82.374,138.856,-153.800,189.126,296.817,-317.091,-1168.200,-6.710,190.420
606,33158.818000,49.819,-22.722,45.589,203.280,315.506,-300.552,-1656.200,1109.290,460.420
607,33158.839000,104.077,15.653,-4.509,240.415,333.236,-257.159,-1825.200,1931.290,859.420
608,33158.879000,217.526,-34.840,-35.569,291.704,339.500,-190.261,-1848.200,3135.290,1266.420
609,33158.923000,327.029,56.047,-96.689,350.046,326.871,-117.002,-938.200,3948.290,1516.420
610,33158.958000,362.543,138.856,-121.738,383.662,309.321,-63.842,-265.200,4322.290,1308.420
611,33158.997000,377.341,178.241,-295.076,408.575,294.542,26.120,-656.200,3247.290,666.420
612,33159.40000,195.823,176.221,-325.135,410.476,288.168,76.562,-332.200,1688.290,223.420
613,33159.60000,247.121,64.126,-139.773,414.878,295.898,73.848,-359.200,-615.710,-280.580
614,33159.102000,207.661,198.438,30.560,413.942,302.250,53.198,578.800,-811.710,-416.580
615,33159.137000,251.067,104.521,-38.575,407.764,309.021,47.440,-1009.200,-1190.710,-595.580
616,33159.177000,276.717,37.870,-29.558,403.311,317.162,28.823,249.800,-820.710,-597.580
617,33159.217000,251.067,93.412,8.517,396.207,327.793,6.307,176.800,-950.710,-573.580
618,33159.258000,257.973,83.314,-11.523,387.352,335.960,-11.331,172.800,-1067.710,-568.580
619,33159.297000,261.919,98.462,-13.526,383.794,350.263,-26.766,554.800,-804.710,-511.580
620,33159.317000,262.906,115.629,-1.503,375.807,354.845,-48.488,452.800,-626.710,-388.580
621,33159.360000,261.919,81.294,-32.564,370.472,361.250,-67.165,467.800,-618.710,-316.580
622,33159.402000,231.337,92.402,-43.585,360.736,365.104,-83.952,362.800,-641.710,-286.580
623,33159.437000,208.647,101.491,-49.597,359.824,361.350,-94.006,252.800,-773.710,-243.580
624,33159.477000,218.513,88.363,-45.589,349.210,364.363,-109.830,224.800,-814.710,-249.580
625,33159.517000,204.701,92.402,-41.581,341.228,369.002,-129.565,285.800,-999.710,-281.580
626,33159.537000,231.337,94.422,-59.616,331.450,368.122,-160.408,501.800,-1251.710,-419.580
627,33159.577000,363.530,67.156,-6.513,314.651,373.538,-183.125,1338.800,-1298.710,-585.580
628,33159.617000,397.071,83.314,-66.630,298.669,361.087,-224.292,1531.800,-1299.710,-294.580
629,33159.657000,166.227,198.438,-197.886,286.269,350.939,-245.514,927.800,-761.710,-59.580
630,33159.700000,80.401,121.688,-203.898,279.189,345.444,-255.645,393.800,-650.710,52.420
631,33159.740000,47.846,53.018,-171.836,274.749,339.923,-266.761,709.800,-93.710,49.420
632,33159.780000,50.805,33.830,-184.861,277.380,332.057,-268.994,598.800,13.290,85.420
633,33159.800000,57.711,47.968,-237.965,280.890,328.475,-273.071,35.800,-149.710,154.420
634,33159.840000,73.495,66.146,-235.961,279.126,332.757,-274.924,-25.200,-292.710,98.420
635,33159.880000,115.915,42.919,-220.932,272.053,325.611,-282.129,74.800,-405.710,30.420
636,33159.920000,119.861,55.037,-222.935,268.505,320.203,-289.267,329.800,-410.710,54.420
637,33159.957000,114.929,68.166,-201.894,264.933,315.410,-305.322,250.800,-379.710,116.420
638,33159.997000,119.861,56.047,-160.814,258.757,317.896,-309.233,-54.200,-291.710,90.420
639,33160.17000,112.956,69.176,-113.722,258.757,318.764,-309.205,-394.200,2.290,92.420
640,33160.60000,130.713,113.609,-251.992,263.178,321.513,-304.137,-517.200,466.290,-66.580
641,33160.100000,126.767,122.698,-260.008,258.809,335.651,-294.755,-591.200,132.290,-291.580
642,33160.140000,121.834,30.801,-96.689,257.966,341.196,-282.662,-606.200,483.290,-227.580
643,33160.180000,95.198,125.728,-148.791,259.781,358.952,-268.178,-1364.200,603.290,-202.580
644,33160.219000,250.081,115.629,-43.585,261.608,363.045,-246.193,-860.200,1100.290,-262.580
645,33160.259000,342.813,123.708,-9.519,266.083,369.772,-223.122,-1212.200,1230.290,124.420
646,33160.278000,348.732,62.107,-47.593,288.199,372.425,-191.189,-924.200,1087.290,603.420
647,33160.319000,339.854,45.949,-63.624,299.712,370.449,-169.371,-476.200,923.290,245.420
648,33160.363000,295.461,113.609,-63.624,305.922,371.744,-154.414,-347.200,691.290,104.420
649,33160.407000,219.499,134.817,-82.661,310.365,377.294,-142.304,5.800,806.290,219.420
650,33160.438000,183.985,121.688,-98.693,320.978,372.544,-126.536,-33.200,934.290,391.420
651,33160.478000,205.688,103.511,-55.609,335.112,360.881,-109.988,-68.200,1056.290,501.420
652,33160.502000,217.526,78.264,-49.597,346.619,357.981,-90.186,-140.200,1014.290,459.420
653,33160.540000,221.472,82.304,-33.566,351.936,350.539,-77.501,-272.200,847.290,356.420
654,33160.580000,235.283,76.245,-18.536,359.923,352.844,-57.541,-292.200,785.290,321.420
655,33160.619000,259.946,93.412,-4.509,366.124,341.987,-42.979,-287.200,800.290,315.420
656,33160.663000,232.324,100.481,19.538,370.571,334.657,-26.322,-200.200,717.290,326.420
657,33160.699000,229.364,96.442,37.573,375.891,335.867,-14.349,-376.200,481.290,342.420
658,33160.719000,247.121,87.353,2.505,377.686,331.026,-1.592,-406.200,415.290,389.420
659,33160.758000,253.040,69.176,10.521,385.651,322.775,13.061,-210.200,476.290,479.420
660,33160.805000,288.555,54.028,-8.517,389.211,310.208,28.552,-90.200,561.290,478.420
661,33160.842000,225.418,66.146,-86.669,398.957,293.531,51.874,-247.200,909.290,743.420
662,33160.882000,248.108,104.521,-122.740,403.376,294.543,56.886,-307.200,76.290,363.420
663,33160.922000,183.985,191.369,-291.068,398.023,294.731,33.043,370.800,-892.710,-151.580
664,33160.962000,290.528,168.142,-277.041,381.973,308.316,-38.063,2567.800,-2050.710,-708.580
665,33160.982000,290.528,157.034,-159.812,354.426,308.534,-121.555,2093.800,-2894.710,-812.580
666,33161.22000,244.162,65.136,-85.667,324.357,315.113,-164.137,1009.800,-3198.710,-840.580
667,33161.62000,197.796,24.742,-29.558,281.929,317.117,-214.850,726.800,-2601.710,-754.580
668,33161.102000,197.796,11.613,-18.536,250.116,312.664,-248.858,969.800,-1857.710,-581.580
669,33161.142000,197.796,35.850,-1.503,233.313,309.428,-270.863,851.800,-1058.710,-349.580
670,33161.182000,199.769,47.968,90.677,230.651,314.409,-278.654,270.800,-66.710,-184.580
671,33161.203000,177.079,63.116,148.791,242.149,322.624,-264.448,-496.200,721.290,74.420
672,33161.242000,381.287,46.959,-44.587,262.546,344.654,-221.963,-1841.200,1331.290,22.420
673,33161.283000,365.503,130.777,37.573,283.764,347.137,-195.996,217.800,2033.290,99.420
674,33161.318000,281.649,140.876,-6.513,297.040,346.031,-174.144,-433.200,1495.290,120.420
675,33161.358000,268.825,102.501,-27.554,310.330,353.689,-149.028,-671.200,912.290,71.420
676,33161.400000,278.690,113.609,-4.509,317.451,357.870,-124.045,-316.200,962.290,60.420
677,33161.442000,278.690,64.126,-46.591,325.416,360.818,-112.008,-163.200,777.290,181.420
678,33161.462000,243.175,94.422,-17.534,328.982,360.375,-97.116,-231.200,518.290,176.420
679,33161.503000,234.297,71.195,-4.509,331.632,363.037,-95.035,79.800,306.290,145.420
680,33161.542000,218.513,77.254,2.505,328.106,356.119,-94.278,-23.200,-31.710,-4.580
681,33161.582000,240.216,80.284,-22.544,328.982,360.375,-97.116,-33.200,-359.710,-115.580
682,33161.623000,241.202,82.304,-47.593,327.192,360.960,-107.032,59.800,-471.710,-121.580
683,33161.663000,252.054,80.284,-54.607,322.769,363.363,-113.919,88.800,-650.710,-119.580
684,33161.690000,250.081,78.264,-36.571,318.321,362.070,-128.870,261.800,-833.710,-82.580
685,33161.719000,277.703,76.245,-0.501,306.803,363.989,-152.677,319.800,-1145.710,-173.580
686,33161.759000,293.487,85.333,-27.554,290.874,358.962,-176.723,273.800,-1442.710,-273.580
687,33161.799000,358.597,90.383,4.509,271.444,357.601,-193.710,242.800,-1736.710,-427.580
688,33161.842000,403.977,109.570,107.710,242.268,349.650,-228.816,792.800,-1889.710,-485.580
689,33161.883000,385.233,132.797,20.540,209.534,326.715,-272.364,1452.800,-1912.710,-300.580
690,33161.923000,216.540,134.817,-121.738,195.339,309.339,-303.756,997.800,-1229.710,102.420
691,33161.943000,82.374,123.708,-137.769,182.965,304.624,-316.858,300.800,-773.710,72.420
692,33161.983000,72.509,35.850,7.515,188.252,305.496,-316.812,-389.200,245.290,86.420
693,33162.23000,88.293,16.663,4.509,212.976,314.701,-298.561,-965.200,1518.290,523.420
694,33162.64000,122.821,27.771,-11.523,254.522,326.471,-251.375,-1650.200,2209.290,802.420
695,33162.99000,192.863,-7.574,-55.609,307.575,331.897,-183.506,-1975.200,2894.290,1119.420
696,33162.139000,297.434,49.988,-108.712,347.348,321.154,-135.070,-1370.200,3601.290,1498.420
697,33162.159000,352.678,191.369,-165.824,391.625,302.777,-50.127,-1022.200,3665.290,1352.420
698,33162.208000,290.528,163.093,-275.037,411.211,285.864,25.847,-961.200,2952.290,867.420
699,33162.243000,234.297,134.817,-259.006,418.360,289.459,60.741,278.800,1278.290,173.420
700,33162.283000,160.308,162.083,-275.037,415.707,294.524,55.932,127.800,-568.710,-300.580
701,33162.323000,262.906,34.840,158.810,412.147,302.779,41.294,-161.200,-706.710,-387.580
702,33162.363000,281.649,19.692,-70.638,409.489,308.656,34.525,-1060.200,-1087.710,-606.580
703,33162.403000,251.067,78.264,-14.528,404.167,317.777,19.909,105.800,-636.710,-562.580
704,33162.423000,258.960,74.225,-9.519,397.983,327.935,11.282,-0.200,-623.710,-529.580
705,33162.463000,263.892,76.245,-11.523,391.784,337.953,-2.315,172.800,-683.710,-511.580
706,33162.503000,237.256,107.550,4.509,383.804,345.195,-21.965,412.800,-650.710,-383.580
707,33162.543000,254.027,87.353,-23.546,377.604,349.165,-34.765,353.800,-638.710,-234.580
708,33162.582000,256.987,92.402,-12.524,374.915,348.712,-50.676,337.800,-521.710,-221.580
709,33162.620000,242.189,79.274,-30.560,373.124,351.005,-61.531,301.800,-641.710,-246.580
710,33162.642000,231.337,83.314,-39.577,366.921,358.390,-76.206,129.800,-791.710,-270.580
711,33162.682000,227.391,100.481,-26.552,358.934,360.397,-97.019,254.800,-887.710,-331.580
712,33162.722000,237.256,81.294,-49.597,350.058,362.318,-120.817,317.800,-986.710,-380.580
713,33162.764000,249.094,110.580,-48.595,338.580,368.944,-131.561,302.800,-1255.710,-373.580
714,33162.804000,288.555,93.412,-76.650,328.813,369.044,-158.400,458.800,-1193.710,-383.580
715,33162.844000,356.624,66.146,-8.517,312.873,371.660,-188.156,1265.800,-929.710,-407.580
716,33162.884000,329.002,12.623,-105.706,303.079,357.703,-221.409,1997.800,-503.710,-123.580
717,33162.904000,147.484,174.201,-165.824,301.248,340.647,-241.828,1030.800,-567.710,-14.580
718,33162.954000,131.699,126.738,-194.881,295.067,339.633,-246.846,7.800,-747.710,-8.580
719,33162.982000,98.158,77.254,-221.933,281.823,341.050,-257.765,602.800,-484.710,-96.580
720,33163.22000,84.347,90.383,-250.990,275.604,336.226,-274.823,754.800,-617.710,-74.580
721,33163.62000,63.630,63.116,-202.896,267.634,329.778,-287.966,566.800,-738.710,129.420
722,33163.100000,66.590,45.949,-185.863,260.550,325.963,-300.029,20.800,-735.710,160.420
723,33163.120000,73.495,44.939,-161.816,250.829,319.627,-309.202,-29.200,-591.710,117.420
724,33163.160000,76.455,44.939,-168.830,244.643,315.981,-315.298,-145.200,-331.710,97.420
725,33163.204000,87.306,40.899,-143.781,247.292,320.351,-314.155,-186.200,91.290,113.420
726,33163.240000,95.198,40.899,-128.751,254.355,322.233,-309.106,-210.200,545.290,204.420
727,33163.283000,111.969,185.310,-382.247,263.182,323.277,-303.086,-274.200,621.290,44.420
728,33163.323000,182.012,16.663,-99.695,254.396,331.251,-296.898,-447.200,219.290,-288.580
729,33163.363000,36.994,111.590,-80.658,262.363,333.359,-283.895,-41.200,904.290,-23.580
730,33163.383000,284.609,133.807,-109.714,257.133,347.694,-267.559,-1608.200,435.290,-230.580
731,33163.423000,274.744,164.103,14.528,260.749,358.958,-237.392,-1281.200,1080.290,-281.580
732,33163.464000,357.611,93.412,-19.538,272.304,367.736,-203.308,-773.200,1350.290,204.420
733,33163.504000,300.393,103.511,-68.634,287.354,364.167,-176.565,-625.200,1199.290,402.420
734,33163.544000,308.285,103.511,-68.634,297.976,371.570,-160.403,-459.200,1081.290,358.420
735,33163.580000,248.108,113.609,-67.632,309.484,370.405,-140.544,-336.200,979.290,436.420
736,33163.600000,228.378,101.491,-76.650,319.231,362.352,-118.929,-154.200,1045.290,446.420
737,33163.644000,210.620,90.383,-50.599,334.245,353.266,-103.287,-14.200,1081.290,443.420
738,33163.684000,209.634,79.274,-42.583,343.976,346.779,-87.579,-90.200,1003.290,400.420
739,33163.724000,252.054,73.215,-3.507,352.844,345.641,-66.735,-334.200,908.290,382.420
740,33163.764000,235.283,82.304,14.528,359.090,338.679,-37.151,-541.200,947.290,495.420
741,33163.804000,229.364,89.373,-1.503,367.058,337.343,-23.267,-350.200,559.290,353.420
742,33163.843000,234.297,87.353,0.501,373.250,329.845,-12.567,-406.200,300.290,299.420
743,33163.863000,256.987,73.215,34.568,375.911,327.440,-5.686,-225.200,251.290,259.420
744,33163.904000,250.081,78.264,10.521,377.695,319.911,4.006,-518.200,177.290,306.420
745,33163.944000,248.108,79.274,14.528,382.125,311.545,14.671,-362.200,213.290,404.420
746,33163.985000,280.663,70.185,-56.611,391.843,298.898,27.201,-351.200,373.290,477.420
747,33164.22000,277.703,52.008,-60.618,391.874,299.208,38.134,-173.200,728.290,518.420
748,33164.63000,273.757,65.136,-3.507,398.955,290.927,51.790,607.800,940.290,401.420
749,33164.83000,199.769,149.964,-181.855,397.206,289.331,56.697,346.800,265.290,121.420
750,33164.122000,190.890,125.728,-299.084,387.433,296.262,26.108,720.800,-1026.710,-353.580
751,33164.162000,264.879,160.063,-232.955,380.269,299.414,-15.518,1302.800,-2503.710,-754.580
752,33164.202000,289.541,150.974,-192.877,353.649,311.283,-85.721,1024.800,-3195.710,-859.580
753,33164.254000,259.946,74.225,-137.769,320.007,315.645,-145.266,916.800,-3196.710,-895.580
754,33164.287000,236.270,52.008,-74.646,283.753,328.070,-195.622,686.800,-2720.710,-776.580
755,33164.325000,227.391,25.751,-23.546,252.813,325.269,-232.553,723.800,-2080.710,-707.580
756,33164.345000,200.755,35.850,4.509,234.269,334.296,-250.193,803.800,-1273.710,-629.580
757,33164.387000,199.769,36.860,112.720,226.305,336.528,-263.055,387.800,-6.710,-422.580
758,33164.425000,188.917,66.146,61.620,235.137,347.960,-257.691,-297.200,921.290,-181.580
759,33164.465000,393.125,251.961,-164.822,241.425,369.838,-220.220,-1444.200,719.290,-263.580
760,33164.505000,360.570,165.112,20.540,252.920,378.025,-207.009,-612.200,833.290,-74.580
761,33164.545000,262.906,96.442,-72.642,253.848,384.524,-191.900,-391.200,508.290,45.420
762,33164.585000,249.094,93.412,-90.677,262.695,390.076,-179.775,-334.200,361.290,-6.580
763,33164.605000,246.135,120.679,-73.644,263.590,390.218,-174.803,-46.200,371.290,-27.580
764,33164.643000,228.378,115.629,-77.652,262.701,382.377,-176.053,80.800,327.290,-0.580
765,33164.682000,212.593,114.619,-93.683,265.351,380.728,-173.119,91.800,261.290,55.420
766,33164.724000,184.971,103.511,-89.675,273.274,380.677,-175.082,268.800,290.290,113.420
767,33164.764000,193.850,113.609,-91.679,276.802,374.688,-172.286,48.800,126.290,148.420
768,33164.808000,197.796,102.501,-85.667,279.445,379.002,-173.130,72.800,87.290,137.420
769,33164.823000,217.526,90.383,-72.642,280.326,375.559,-172.246,99.800,-79.710,114.420
770,33164.863000,245.148,107.550,-42.583,278.551,376.285,-177.193,45.800,-377.710,71.420
771,33164.902000,281.649,98.462,-24.548,271.470,373.366,-188.234,22.800,-683.710,46.420
772,33164.942000,329.002,78.264,49.597,257.320,367.640,-206.339,392.800,-1140.710,-166.580
773,33164.982000,389.179,70.185,82.661,244.910,355.671,-230.598,987.800,-1488.710,-493.580
774,33165.22000,413.842,96.442,19.538,207.783,341.469,-271.891,1553.800,-1758.710,-408.580
775,33165.62000,300.393,178.241,-100.697,186.507,313.419,-312.589,1572.800,-1459.710,68.420
776,33165.85000,155.376,152.994,-146.787,167.068,299.906,-329.970,547.800,-1078.710,-127.580
777,33165.125000,87.306,21.712,24.548,160.899,297.298,-330.075,-758.200,-135.710,-35.580
778,33165.165000,70.536,23.732,-13.526,182.974,305.577,-313.848,-984.200,1379.290,414.420
779,33165.207000,89.279,39.890,-28.556,224.527,326.027,-266.380,-1800.200,2222.290,713.420
780,33165.242000,158.335,-0.505,-86.669,282.869,340.108,-199.206,-2211.200,3155.290,1287.420
781,33165.285000,258.960,59.077,-123.742,326.186,339.897,-146.446,-1598.200,3796.290,1610.420
782,33165.305000,351.692,179.250,-183.859,380.171,322.563,-55.480,-818.200,4085.290,1588.420
783,33165.349000,309.272,149.964,-251.992,407.710,300.730,30.290,-777.200,3209.290,914.420
784,33165.383000,264.879,189.349,-224.939,412.282,290.328,91.533,-1261.200,1797.290,467.420
785,33165.423000,195.823,135.826,-270.027,414.112,279.805,118.008,-1555.200,420.290,14.420
786,33165.467000,388.193,-22.722,192.877,413.240,280.757,121.015,60.800,-18.710,-171.580
787,33165.514000,282.636,170.162,-46.591,410.587,289.266,115.324,51.800,-304.710,-469.580
788,33165.532000,246.135,26.761,15.530,410.580,299.541,110.693,-553.200,-525.710,-514.580
789,33165.567000,233.310,72.205,28.556,400.895,309.922,110.006,-201.200,-294.710,-496.580
790,33165.607000,259.946,83.314,25.550,399.132,313.365,109.119,-11.200,-171.710,-322.580
791,33165.649000,226.405,78.264,71.640,399.108,321.735,98.467,362.800,-259.710,-262.580
792,33165.685000,230.351,68.166,80.658,394.657,328.169,80.788,531.800,-785.710,-294.580
793,33165.727000,237.256,71.195,30.560,394.571,334.211,49.208,593.800,-1051.710,-350.580
794,33165.767000,236.270,89.373,17.534,394.524,335.468,32.368,343.800,-1199.710,-402.580
795,33165.787000,237.256,88.363,-2.505,388.285,348.535,3.975,415.800,-1110.710,-389.580
796,33165.827000,258.960,69.176,-4.509,382.930,358.187,-22.539,408.800,-1163.710,-451.580
797,33165.867000,249.094,92.402,-27.554,374.038,364.251,-53.154,350.800,-1305.710,-566.580
798,33165.908000,236.270,88.363,-74.646,359.903,371.602,-68.848,349.800,-1191.710,-524.580
799,33165.947000,255.013,124.718,-20.540,352.782,372.600,-94.657,442.800,-1130.710,-427.580
800,33165.987000,309.272,118.659,-19.538,340.365,373.482,-124.458,618.800,-1215.710,-450.580
801,33166.7000,425.680,49.988,-33.566,327.065,371.760,-154.346,1287.800,-829.710,-327.580
802,33166.47000,206.674,88.363,-154.802,328.759,360.754,-175.550,1438.800,-321.710,242.420
803,33166.87000,41.927,189.349,-216.924,323.444,363.044,-186.416,594.800,-764.710,-57.580
804,33166.127000,64.617,86.343,-310.106,311.061,360.820,-203.409,1121.800,-548.710,-362.580
805,33166.165000,78.428,66.146,-277.041,295.955,344.870,-245.680,1754.800,-787.710,-329.580
806,33166.207000,36.994,59.077,-224.939,274.726,336.254,-273.832,807.800,-1151.710,-86.580
807,33166.250000,54.751,30.801,-168.830,265.000,334.173,-285.846,-182.200,-1091.710,88.420
808,33166.264000,78.428,32.821,-124.744,249.995,337.324,-296.715,-207.200,-717.710,77.420
809,33166.303000,97.171,36.860,-91.679,249.107,331.219,-297.909,-22.200,-159.710,90.420
810,33166.343000,109.010,44.939,-67.632,254.391,324.307,-297.123,146.800,705.290,161.420
811,33166.388000,140.578,221.665,-307.100,254.409,333.968,-292.838,-561.200,343.290,-227.580
812,33166.423000,124.794,88.363,-7.515,250.036,342.898,-283.625,-404.200,538.290,-252.580
813,33166.463000,199.769,279.227,-290.067,248.324,352.867,-268.412,-550.200,717.290,-339.580
814,33166.483000,327.029,152.994,-70.638,252.804,358.783,-243.381,-644.200,1140.290,-239.580
815,33166.527000,299.407,95.432,-70.638,264.337,365.628,-216.311,-1124.200,1103.290,334.420
816,33166.565000,278.690,113.609,-71.640,280.285,373.428,-186.217,-689.200,1320.290,337.420
817,33166.605000,294.474,109.570,-66.630,295.340,376.804,-159.249,-357.200,1413.290,291.420
818,33166.650000,251.067,130.777,-63.624,307.751,371.554,-130.583,-397.200,1272.290,477.420
819,33166.684000,214.566,104.521,-66.630,327.225,363.874,-96.015,-286.200,1815.290,679.420
820,33166.728000,230.351,98.462,-23.546,339.603,354.842,-78.394,-137.200,1519.290,640.420
821,33166.752000,222.459,100.481,4.509,349.362,344.325,-51.894,-150.200,1130.290,552.420
822,33166.787000,206.674,66.146,34.568,358.213,336.131,-35.250,13.800,937.290,380.420
823,33166.828000,258.960,59.077,0.501,362.646,335.548,-25.325,-321.200,537.290,213.420
824,33166.864000,234.297,75.235,11.523,365.313,330.623,-15.546,-285.200,442.290,189.420
825,33166.904000,256.987,81.294,12.524,368.874,335.304,-3.467,-375.200,326.290,183.420
826,33166.944000,229.364,83.314,-0.501,374.191,331.306,8.336,-239.200,387.290,309.420
827,33166.964000,246.135,89.373,12.524,377.739,326.382,18.118,-174.200,440.290,291.420
828,33167.5000,242.189,80.284,43.585,375.999,317.114,27.741,-245.200,418.290,301.420
829,33167.45000,256.987,63.116,29.558,382.196,308.805,40.400,-251.200,348.290,331.420
830,33167.85000,256.000,54.028,20.540,385.726,301.976,44.162,101.800,283.290,365.420
831,33167.127000,281.649,68.166,-10.521,389.243,303.630,41.248,373.800,167.290,324.420
832,33167.168000,271.784,71.195,-72.642,390.109,302.622,36.253,844.800,-35.710,144.420
833,33167.204000,232.324,159.053,-288.063,383.848,309.444,1.700,2216.800,-997.710,-446.580
834,33167.228000,270.798,144.915,-268.023,368.668,312.584,-70.735,2798.800,-1971.710,-587.580
835,33167.269000,284.609,126.738,-174.841,338.491,306.026,-148.498,1638.800,-2954.710,-486.580
836,33167.305000,232.324,55.037,-109.714,299.575,307.920,-203.176,239.800,-3213.710,-502.580
837,33167.347000,211.607,37.870,-82.661,275.726,317.614,-227.763,137.800,-2820.710,-370.580
838,33167.387000,185.958,44.939,-56.611,243.927,317.614,-257.654,223.800,-2195.710,-248.580
839,33167.428000,194.836,61.097,-54.607,221.855,313.676,-273.741,107.800,-1449.710,-204.580
840,33167.448000,208.647,60.087,-16.532,212.153,324.755,-280.363,-113.200,-791.710,-189.580
841,33167.488000,189.904,38.880,103.703,206.866,323.015,-280.437,-524.200,-184.710,-166.580
842,33167.528000,165.241,22.722,73.644,220.139,333.948,-262.165,-423.200,1031.290,132.420
843,33167.568000,370.435,310.533,-193.879,225.522,362.488,-234.411,-1578.200,634.290,-337.580
844,33167.604000,349.719,137.846,11.523,239.681,376.054,-215.059,-310.200,772.290,-20.580
845,33167.644000,305.326,82.304,-77.652,247.642,384.993,-205.806,-716.200,398.290,80.420
846,33167.684000,254.027,103.511,-92.681,246.795,388.774,-194.764,-317.200,411.290,34.420
847,33167.704000,245.148,119.669,-87.671,253.861,390.685,-188.721,-59.200,532.290,3.420
848,33167.744000,232.324,129.767,-71.640,259.171,389.206,-179.815,-20.200,405.290,104.420
849,33167.784000,212.593,112.600,-99.695,260.941,388.424,-176.856,26.800,422.290,203.420
850,33167.824000,211.607,88.363,-102.701,271.516,378.128,-173.184,163.800,445.290,268.420
851,33167.865000,194.836,96.442,-73.644,277.680,374.661,-173.277,231.800,387.290,189.420
852,33167.910000,198.782,96.442,-70.638,281.198,374.607,-175.253,127.800,182.290,112.420
853,33167.949000,195.823,104.521,-60.618,282.078,372.871,-175.307,83.800,-79.710,17.420
854,33167.969000,232.324,101.491,-57.613,282.066,376.203,-180.164,104.800,-233.710,-14.580
855,33168.9000,261.919,93.412,-44.587,275.895,374.434,-181.234,47.800,-489.710,-36.580
856,33168.53000,282.636,87.353,-26.552,266.157,370.504,-197.280,163.800,-829.710,-113.580
857,33168.94000,337.881,80.284,34.568,250.243,366.485,-216.329,371.800,-1178.710,-244.580
858,33168.128000,382.274,74.225,77.652,236.088,362.440,-236.365,979.800,-1482.710,-452.580
859,33168.167000,394.112,135.826,5.511,208.650,345.641,-277.711,1462.800,-1892.710,-368.580
860,33168.187000,256.987,185.310,-135.765,177.711,316.130,-308.557,1052.800,-1461.710,13.420
861,33168.227000,138.605,115.629,-136.767,160.919,313.006,-326.586,286.800,-1056.710,-88.580
862,33168.267000,74.482,28.781,15.530,158.287,307.937,-321.794,-584.200,366.290,76.420
863,33168.307000,67.576,-27.771,31.562,181.236,314.424,-307.608,-667.200,1470.290,557.420
864,33168.347000,107.037,43.929,-18.536,224.507,321.518,-272.485,-1365.200,2193.290,885.420
865,33168.387000,194.836,-0.505,-26.552,284.608,331.261,-205.446,-1973.200,3208.290,1347.420
866,33168.427000,315.191,13.633,-38.575,348.263,321.493,-123.140,-1524.200,4021.290,1629.420
867,33168.447000,446.397,144.915,-64.626,384.573,315.651,-54.697,-912.200,4709.290,1542.420
868,33168.487000,393.125,191.369,-245.980,410.422,295.388,55.943,-980.200,4282.290,1050.420
869,33168.525000,289.541,231.763,-343.170,408.006,277.817,139.769,-1277.200,2639.290,626.420
870,33168.569000,142.551,130.777,-345.174,404.543,272.386,162.421,-1245.200,331.290,-77.580
871,33168.608000,345.773,-34.840,387.256,408.926,273.900,154.540,123.800,-337.710,-411.580
872,33168.648000,331.961,138.856,-19.538,412.415,280.452,140.862,54.800,-632.710,-316.580
873,33168.668000,293.487,17.673,-19.538,407.100,293.074,127.353,-468.200,-930.710,-698.580
874,33168.708000,234.297,62.107,37.573,404.448,307.631,120.866,109.800,-377.710,-483.580
875,33168.747000,208.647,95.432,78.654,400.902,304.827,113.812,203.800,-311.710,-380.580
876,33168.787000,262.906,55.037,39.577,396.487,313.335,108.116,72.800,-317.710,-258.580
877,33168.825000,230.351,72.205,72.642,392.931,323.354,94.528,301.800,-472.710,-219.580
878,33168.865000,235.283,67.156,57.613,395.529,323.773,78.662,378.800,-672.710,-212.580
879,33168.905000,233.310,72.205,48.595,393.729,329.425,63.945,325.800,-903.710,-263.580
880,33168.930000,231.337,75.235,37.573,396.310,338.299,40.410,398.800,-1111.710,-339.580
881,33168.965000,251.067,78.264,2.505,392.710,346.160,11.856,451.800,-1165.710,-375.580
882,33169.10000,238.243,79.274,4.509,387.339,352.198,-19.741,442.800,-1264.710,-414.580
883,33169.47000,252.054,93.412,-18.536,378.452,358.319,-48.367,143.800,-1453.710,-411.580
884,33169.87000,262.906,77.254,-38.575,372.225,353.411,-68.406,156.800,-1418.710,-368.580
885,33169.128000,285.595,99.471,-30.560,358.044,359.443,-100.032,412.800,-1440.710,-381.580
886,33169.147000,360.570,68.166,-43.585,348.279,362.148,-126.786,1043.800,-1185.710,-386.580
887,33169.187000,242.189,26.761,-86.669,345.571,353.742,-147.920,846.800,-235.710,149.420
888,33169.228000,94.212,208.536,-188.869,341.122,351.581,-162.899,684.800,-891.710,-73.580
889,33169.268000,129.726,108.560,-286.059,326.098,355.403,-180.697,715.800,-667.710,-432.580
890,33169.308000,124.794,101.491,-284.055,305.734,350.062,-215.691,1268.800,-950.710,-634.580
891,33169.348000,90.266,68.166,-218.928,275.671,349.810,-254.522,602.800,-1452.710,-548.580
892,33169.390000,72.509,5.554,-159.812,257.115,343.213,-272.669,524.800,-1311.710,-242.580
893,33169.409000,66.590,18.682,-101.699,243.825,335.555,-297.785,590.800,-818.710,44.420
894,33169.448000,77.441,19.692,-54.607,238.501,326.562,-309.017,-17.200,-76.710,198.420
895,33169.489000,84.347,22.722,-36.571,252.622,331.137,-300.879,-239.200,747.290,381.420
896,33169.529000,108.023,289.325,-389.260,252.688,347.296,-281.488,-999.200,500.290,-23.580
897,33169.569000,43.900,5.554,-26.552,251.004,360.991,-257.217,-1674.200,834.290,4.420
898,33169.609000,321.110,118.659,-159.812,258.139,376.513,-229.880,-1594.200,718.290,-310.580
899,33169.629000,382.274,76.245,-33.566,268.801,376.554,-198.069,-1083.200,1465.290,253.420
900,33169.669000,367.476,75.235,5.511,289.161,375.819,-163.272,-695.200,1589.290,349.420
901,33169.709000,319.137,122.698,-2.505,295.387,383.302,-144.143,-347.200,1374.290,264.420
902,33169.749000,253.040,138.856,-38.575,310.421,373.545,-121.573,-252.200,1197.290,382.420
903,33169.789000,211.607,121.688,-72.642,325.455,363.788,-99.002,-169.200,1302.290,728.420
904,33169.829000,252.054,46.959,-66.630,348.436,349.054,-68.624,-177.200,1762.290,963.420
905,33169.868000,234.297,85.333,-7.515,358.197,341.141,-42.039,-232.200,1816.290,1020.420
906,33169.888000,244.162,59.077,6.513,372.369,329.845,-12.570,-191.200,1299.290,534.420
907,33169.927000,241.202,64.126,56.611,373.302,324.333,7.114,208.800,1155.290,318.420
908,33169.967000,208.647,79.274,125.746,373.350,323.944,23.982,-354.200,604.290,69.420
909,33170.7000,226.405,87.353,49.597,376.892,329.295,29.132,-356.200,33.290,-23.580
910,33170.47000,236.270,79.274,30.560,375.146,324.283,35.915,-469.200,-144.710,48.420
911,33170.87000,242.189,61.097,16.532,374.274,325.235,38.922,-355.200,-143.710,97.420
912,33170.107000,237.256,95.432,26.552,381.316,320.872,37.810,-132.200,-69.710,202.420
913,33170.147000,249.094,64.126,55.609,383.062,315.552,33.671,42.800,-75.710,255.420
914,33170.188000,274.744,59.077,-9.519,385.699,307.742,33.426,199.800,-9.710,243.420
915,33170.228000,259.946,75.235,-45.589,391.869,300.019,36.174,107.800,289.290,446.420
916,33170.268000,241.202,101.491,-106.708,396.265,296.494,34.088,-117.200,8.290,260.420
917,33170.308000,227.391,184.300,-318.121,387.392,305.332,9.521,323.800,-1065.710,-237.580
918,33170.347000,272.771,162.083,-262.012,380.218,310.107,-36.024,1840.800,-2278.710,-630.580
919,33170.367000,290.528,135.826,-152.798,351.825,319.286,-109.299,1449.800,-2917.710,-741.580
920,33170.407000,240.216,60.087,-92.681,314.656,311.549,-167.262,885.800,-3065.710,-747.580
921,33170.452000,209.634,18.682,-46.591,278.392,318.710,-219.775,801.800,-2564.710,-678.580
922,33170.492000,190.890,23.732,-39.577,257.188,319.811,-241.653,1000.800,-1860.710,-619.580
923,33170.528000,183.985,38.880,-17.534,235.089,317.326,-267.622,881.800,-1149.710,-478.580
924,33170.572000,204.701,101.491,24.548,221.849,317.063,-276.610,125.800,-260.710,-381.580
925,33170.590000,194.836,46.959,73.644,231.594,328.805,-260.310,-518.200,638.290,-115.580
926,33170.632000,320.123,330.730,-300.086,240.516,348.025,-224.903,-1813.200,1192.290,-157.580
927,33170.673000,365.503,-3.535,-25.550,244.104,354.695,-203.822,-636.200,1201.290,16.420
928,33170.708000,347.746,77.254,-12.524,253.858,359.634,-182.778,-92.200,1074.290,118.420
929,33170.752000,292.501,56.047,-57.613,268.014,366.283,-162.657,-422.200,648.290,66.420
930,33170.792000,237.256,132.797,-40.579,273.316,364.720,-156.732,-39.200,572.290,31.420
931,33170.832000,231.337,113.609,-70.638,273.334,370.937,-151.566,88.800,451.290,97.420
932,33170.853000,225.418,102.501,-80.658,283.030,366.689,-148.694,147.800,405.290,122.420
933,33170.892000,204.701,102.501,-64.626,285.671,363.219,-148.798,227.800,334.290,108.420
934,33170.932000,198.782,97.452,-86.669,283.906,359.745,-148.916,111.800,206.290,93.420
935,33170.972000,199.769,108.560,-79.656,290.073,356.306,-148.015,-17.200,148.290,107.420
936,33171.13000,216.540,96.442,-65.628,295.367,352.083,-144.163,-24.200,135.290,119.420
937,33171.50000,233.310,82.304,-54.607,297.142,350.489,-139.244,41.800,57.290,106.420
938,33171.70000,246.135,81.294,-42.583,297.123,356.339,-146.998,-48.200,-234.710,67.420
939,33171.109000,253.040,88.363,-14.528,290.936,355.270,-154.004,66.800,-508.710,17.420
940,33171.148000,265.865,83.314,2.505,283.856,348.907,-164.163,145.800,-921.710,-75.580
941,33171.188000,344.786,72.205,15.530,272.339,349.987,-187.003,311.800,-1392.710,-243.580
942,33171.228000,386.220,95.432,69.636,248.464,343.048,-217.095,923.800,-1533.710,-431.580
943,33171.268000,373.395,122.698,42.583,222.771,318.326,-262.664,1323.800,-1713.710,-377.580
944,33171.308000,283.622,147.945,-118.732,205.081,314.165,-286.687,1396.800,-1186.710,128.420
945,33171.328000,168.200,167.132,-160.814,196.156,292.341,-322.179,1060.800,-988.710,-2.580
946,33171.368000,101.118,67.156,21.542,193.485,284.302,-330.392,34.800,-155.710,3.420
947,33171.408000,82.374,16.663,13.526,217.325,296.054,-314.047,-624.200,1383.290,292.420
948,33171.448000,97.171,62.107,-9.519,239.428,301.170,-286.999,-1680.200,2053.290,484.420
949,33171.488000,168.200,19.692,-36.571,291.612,329.107,-220.388,-2574.200,2793.290,816.420
950,33171.528000,293.487,33.830,-80.658,350.022,328.354,-125.891,-2256.200,3797.290,1265.420
951,33171.548000,380.301,151.984,-109.714,396.112,313.928,-23.933,-1300.200,4264.290,1303.420
952,33171.588000,357.611,199.448,-217.926,406.863,301.935,42.242,-1123.200,3764.290,1119.420
953,33171.629000,297.434,199.448,-254.998,411.488,286.020,123.166,-1350.200,2056.290,354.420
954,33171.669000,171.160,122.698,-301.088,411.588,275.807,160.569,-1393.200,369.290,-148.580
955,33171.709000,353.665,-32.821,249.988,409.820,279.193,157.694,-360.200,-746.710,-405.580
956,33171.749000,296.447,63.116,44.587,406.251,287.363,140.074,439.800,-560.710,-323.580
957,33171.794000,260.933,83.314,-8.517,409.781,296.046,140.367,-553.200,-936.710,-721.580
958,33171.809000,261.919,62.107,16.532,407.118,306.178,130.757,-341.200,-737.710,-661.580
959,33171.852000,243.175,107.550,26.552,400.912,317.847,114.235,190.800,-624.710,-457.580
960,33171.892000,252.054,72.205,25.550,401.748,322.577,97.510,100.800,-726.710,-368.580
961,33171.933000,240.216,74.225,38.575,399.076,329.181,85.800,462.800,-684.710,-266.580
962,33171.970000,231.337,86.343,50.599,400.779,333.770,64.109,448.800,-850.710,-271.580
963,33172.10000,229.364,84.323,-7.515,398.075,338.328,41.409,385.800,-893.710,-285.580
964,33172.30000,232.324,94.422,-5.511,397.135,342.048,19.681,283.800,-851.710,-299.580
965,33172.70000,244.162,85.333,-30.560,394.463,352.096,7.090,209.800,-736.710,-266.580
966,33172.110000,246.135,80.284,-34.568,390.897,356.851,-8.655,280.800,-638.710,-247.580
967,33172.150000,240.216,87.353,-25.550,382.042,359.837,-25.468,303.800,-664.710,-283.580
968,33172.190000,244.162,95.432,-19.538,382.008,359.499,-37.395,279.800,-820.710,-239.580
969,33172.230000,245.148,101.491,-26.552,374.903,358.931,-57.296,235.800,-997.710,-210.580
970,33172.273000,268.825,116.639,-30.560,368.674,361.751,-80.063,663.800,-958.710,-249.580
971,33172.293000,342.813,94.422,-25.550,362.417,362.581,-111.832,976.800,-980.710,-274.580
972,33172.330000,344.786,60.087,-28.556,351.755,357.360,-142.818,1288.800,-885.710,-220.580
973,33172.369000,177.079,116.639,-137.769,342.864,354.829,-170.732,1246.800,-776.710,-73.580
974,33172.409000,129.726,137.846,-198.888,336.659,352.722,-183.730,924.800,-738.710,-287.580
975,33172.453000,128.740,102.501,-182.857,322.487,348.507,-209.729,1115.800,-551.710,-363.580
976,33172.490000,104.077,76.245,-218.928,308.303,339.000,-238.880,1236.800,-631.710,-252.580
977,33172.512000,103.091,56.047,-216.924,294.143,327.143,-259.170,767.800,-758.710,-51.580
978,33172.549000,97.171,54.028,-194.881,289.698,326.745,-273.099,164.800,-811.710,54.420
979,33172.590000,95.198,45.949,-158.810,281.738,326.429,-284.058,-67.200,-603.710,55.420
980,33172.630000,96.185,44.939,-152.798,277.312,327.069,-291.995,-58.200,-355.710,-11.580
981,33172.670000,112.956,33.830,-140.775,276.436,327.124,-290.010,-62.200,-5.710,-5.580
982,33172.712000,127.753,52.008,-130.755,279.087,326.343,-287.048,-405.200,460.290,82.420
983,33172.752000,160.308,109.570,-215.922,280.864,328.221,-282.016,-401.200,414.290,28.420
984,33172.772000,139.592,85.333,-103.703,284.404,330.968,-276.951,-219.200,443.290,35.420
985,33172.812000,109.010,148.955,-114.724,293.250,337.361,-265.792,-475.200,646.290,-164.580
986,33172.852000,131.699,150.974,-183.859,295.947,349.965,-249.487,-837.200,694.290,-308.580
987,33172.892000,256.000,74.225,-70.638,303.047,359.101,-233.280,-427.200,1228.290,-230.580
988,33172.933000,341.827,67.156,-46.591,313.710,369.502,-203.118,-975.200,1347.290,-8.580
989,33172.973000,306.312,94.422,-62.622,321.724,373.797,-174.157,-736.200,1161.290,191.420
990,33172.993000,278.690,122.698,-28.556,331.493,377.168,-147.205,-662.200,997.290,182.420
991,33173.32000,249.094,137.846,-48.595,339.458,373.228,-133.406,-511.200,881.290,363.420
992,33173.72000,290.528,93.412,-62.622,350.974,362.657,-108.887,-338.200,931.290,469.420
993,33173.113000,228.378,105.531,-52.603,364.247,358.946,-87.119,-308.200,964.290,458.420
994,33173.153000,204.701,74.225,-48.595,376.662,350.280,-56.578,-272.200,1446.290,715.420
995,33173.194000,231.337,73.215,6.513,383.752,346.396,-40.793,-92.200,1219.290,553.420
996,33173.230000,239.229,67.156,10.521,390.858,338.369,-18.192,-28.200,1025.290,351.420
997,33173.250000,221.472,92.402,36.571,394.433,334.567,0.563,-179.200,809.290,244.420
998,33173.295000,248.108,63.116,21.542,397.984,326.228,12.219,-140.200,650.290,187.420
999,33173.330000,222.459,86.343,52.603,399.778,330.851,22.305,-266.200,479.290,78.420
1000,33173.374000,234.297,72.205,40.579,397.149,323.234,29.000,-295.200,146.290,28.420
1001,33173.410000,247.121,80.284,32.564,397.161,320.771,33.886,-308.200,37.290,26.420
1002,33173.454000,240.216,83.314,25.550,400.712,322.763,42.898,-293.200,49.290,130.420
1003,33173.474000,239.229,77.254,40.579,402.473,321.028,42.848,-289.200,9.290,212.420
1004,33173.515000,244.162,40.899,38.575,405.123,312.491,47.544,-71.200,-24.710,231.420
1005,33173.550000,278.690,62.107,12.524,407.765,310.757,47.496,208.800,102.290,206.420
1006,33173.590000,271.784,52.008,14.528,411.282,302.079,47.226,233.800,354.290,347.420
1007,33173.630000,237.256,73.215,-64.626,416.574,298.696,50.112,-12.200,-92.710,319.420
1008,33173.674000,209.634,125.728,-184.861,414.800,302.026,45.250,-216.200,-746.710,6.420
1009,33173.710000,254.027,124.718,-233.957,407.642,304.366,5.583,830.800,-1402.710,-288.580
1010,33173.732000,281.649,117.649,-180.853,393.372,309.525,-56.854,1721.800,-2041.710,-464.580
1011,33173.771000,256.000,85.333,-134.763,366.731,303.949,-130.601,1361.800,-2574.710,-386.580
1012,33173.812000,239.229,78.264,-119.734,348.129,300.346,-165.533,534.800,-2732.710,-341.580
1013,33173.852000,232.324,36.860,-92.681,311.887,305.128,-210.178,554.800,-2553.710,-355.580
1014,33173.892000,216.540,42.919,-70.638,277.403,298.684,-253.196,1068.800,-1898.710,-337.580
1015,33173.932000,207.661,61.097,-46.591,252.642,284.801,-283.516,1027.800,-1431.710,-312.580
1016,33173.953000,202.728,52.008,-23.546,237.618,289.491,-301.286,579.800,-898.710,-333.580
1017,33173.993000,195.823,35.850,23.546,232.339,282.655,-297.552,90.800,149.290,-174.580
1018,33174.33000,210.620,76.245,44.587,241.180,287.284,-287.444,-27.200,891.290,70.420
1019,33174.73000,226.405,205.507,-246.982,253.599,303.649,-261.055,-977.200,1002.290,-133.580
1020,33174.114000,238.243,29.791,-68.634,262.478,313.823,-238.851,-558.200,1054.290,-169.580
1021,33174.154000,259.946,73.215,-96.689,267.801,321.949,-227.647,-378.200,868.290,-95.580
1022,33174.194000,249.094,86.343,-72.642,273.147,324.280,-206.702,-389.200,764.290,5.420
1023,33174.214000,256.000,67.156,-78.654,279.360,333.359,-192.485,-277.200,737.290,-100.580
1024,33174.258000,232.324,75.235,-76.650,284.683,338.041,-180.401,-209.200,705.290,-141.580
1025,33174.293000,232.324,100.481,-55.609,288.237,340.061,-170.394,-326.200,496.290,-138.580
1026,33174.333000,233.310,103.511,-60.618,289.146,340.343,-160.452,-289.200,335.290,-137.580
1027,33174.372000,227.391,95.432,-68.634,290.055,347.513,-152.272,-191.200,286.290,-105.580
1028,33174.413000,231.337,91.393,-67.632,289.199,353.786,-145.120,-91.200,259.290,-83.580
1029,33174.459000,238.243,100.481,-54.607,289.203,356.418,-144.042,-127.200,99.290,-79.580
1030,33174.474000,233.310,97.452,-70.638,286.574,359.133,-139.990,-87.200,76.290,-48.580
1031,33174.519000,223.445,104.521,-65.628,284.818,355.744,-137.127,-71.200,51.290,-8.580
1032,33174.553000,234.297,92.402,-74.646,288.338,353.982,-138.166,-16.200,51.290,20.420
1033,33174.594000,227.391,96.442,-69.636,289.227,357.511,-136.063,-1.200,45.290,50.420
1034,33174.635000,229.364,97.452,-64.626,290.104,356.616,-137.082,89.800,34.290,87.420
1035,33174.675000,230.351,96.442,-64.626,293.625,356.590,-138.064,156.800,16.290,123.420
1036,33174.695000,231.337,101.491,-57.613,296.252,350.404,-142.229,221.800,-28.710,151.420
1037,33174.732000,229.364,93.412,-54.607,297.115,345.055,-147.364,211.800,-186.710,160.420
1038,33174.772000,235.283,89.373,-55.609,294.444,337.016,-155.578,190.800,-327.710,159.420
1039,33174.812000,231.337,88.363,-54.607,294.420,331.611,-162.704,189.800,-499.710,131.420
1040,33174.853000,244.162,80.284,-58.614,290.849,329.422,-178.674,191.800,-698.710,85.420
1041,33174.893000,251.067,82.304,-57.613,285.520,323.815,-192.775,287.800,-806.710,32.420
1042,33174.934000,276.717,74.225,-50.599,276.673,326.019,-206.634,384.800,-944.710,-35.580
1043,33174.952000,282.636,70.185,-40.579,265.144,318.362,-231.744,715.800,-1095.710,-124.580
1044,33174.993000,275.730,82.304,-68.634,250.077,309.694,-261.864,903.800,-1222.710,-124.580
1045,33175.34000,232.324,122.698,-115.726,231.499,296.853,-286.172,749.800,-1191.710,-17.580
1046,33175.75000,171.160,102.501,-197.886,214.706,290.257,-304.313,103.800,-957.710,-133.580
1047,33175.114000,140.578,9.594,-52.603,213.800,287.427,-312.352,7.800,-557.710,-36.580
1048,33175.154000,121.834,9.594,-34.568,218.225,295.383,-307.115,-468.200,292.290,265.420
1049,33175.177000,133.672,-6.564,-34.568,239.447,303.075,-280.979,-1083.200,1158.290,666.420
