Sample, Time, ACCX, ACCY, ACCZ, MAGX, MAGY, MAGZ, GYRX, GYRY, GYRZ
0,33584.458000,242.189,66.146,24.548,368.972,310.419,36.438,167.800,-247.710,156.420
1,33584.477000,242.189,64.126,21.542,373.366,307.733,33.386,185.800,-258.710,151.420
2,33584.517000,244.162,65.136,20.540,372.483,312.884,31.565,189.800,-239.710,160.420
3,33584.557000,242.189,62.107,19.538,375.109,308.405,26.463,157.800,-199.710,180.420
4,33584.596000,245.148,58.067,25.550,379.487,303.843,18.385,140.800,-264.710,160.420
5,33584.637000,243.175,49.988,29.558,378.580,298.409,10.262,192.800,-443.710,98.420
6,33584.677000,243.175,43.929,26.552,381.177,297.961,-5.633,244.800,-644.710,15.420
7,33584.717000,263.892,52.008,19.538,382.026,304.539,-18.325,317.800,-828.710,-100.580
8,33584.737000,271.784,82.304,-6.513,380.210,304.003,-37.215,599.800,-739.710,-104.580
9,33584.777000,231.337,92.402,-33.566,379.260,301.590,-61.128,1134.800,-399.710,-42.580
10,33584.817000,223.445,89.373,-14.528,380.112,300.441,-71.093,557.800,-109.710,-49.580
11,33584.858000,215.553,73.215,-24.548,379.239,299.657,-68.142,-529.200,169.290,-99.580
12,33584.898000,218.513,40.899,-35.569,381.058,301.089,-48.230,-1067.200,393.290,-42.580
13,33584.940000,218.513,42.919,-94.685,382.896,304.427,-22.298,-1092.200,475.290,7.420
14,33584.960000,294.474,-11.613,10.521,384.664,304.485,-20.305,103.800,330.290,117.420
15,33585.0,272.771,65.136,-39.577,384.694,307.370,-10.281,24.800,342.290,-34.580
16,33585.42000,243.175,67.156,-14.528,383.833,311.011,-4.208,-174.200,264.290,-38.580
17,33585.77000,239.229,72.205,3.507,382.965,309.415,0.703,74.800,419.290,80.420
18,33585.117000,247.121,63.116,7.515,384.749,309.641,8.660,169.800,447.290,101.420
19,33585.157000,241.202,55.037,15.530,384.752,301.914,11.388,25.800,369.290,37.420
20,33585.197000,232.324,60.087,44.587,383.020,304.798,21.406,-19.200,214.290,-22.580
21,33585.217000,244.162,59.077,31.562,383.020,304.798,21.406,-152.200,-31.710,-99.580
22,33585.257000,246.135,65.136,14.528,381.256,304.769,20.406,-25.200,-84.710,-93.580
23,33585.297000,246.135,61.097,3.507,380.383,311.740,21.623,64.800,-15.710,-65.580
24,33585.347000,245.148,66.146,10.521,377.733,309.946,19.570,-26.200,-0.710,-77.580
25,33585.376000,242.189,69.176,15.530,374.209,309.944,19.559,-71.200,27.290,-69.580
26,33585.416000,242.189,64.126,19.538,375.095,316.020,19.759,-21.200,-3.710,-62.580
27,33585.436000,244.162,68.166,19.538,374.209,314.255,18.706,24.800,-16.710,-64.580
28,33585.476000,244.162,67.156,12.524,375.090,313.388,18.680,-9.200,-3.710,-59.580
29,33585.521000,241.202,69.176,13.526,372.462,317.839,22.788,-38.200,-21.710,-55.580
30,33585.556000,242.189,69.176,20.540,374.219,319.520,20.863,-22.200,-29.710,-50.580
31,33585.596000,241.202,67.156,12.524,371.572,321.197,18.923,-31.200,-37.710,-52.580
32,33585.636000,243.175,70.185,13.526,368.049,319.487,19.849,-11.200,-20.710,-44.580
33,33585.676000,241.202,71.195,12.524,369.810,321.196,18.917,-2.200,-24.710,-31.580
34,33585.696000,242.189,70.185,14.528,369.801,316.800,16.788,-0.200,-51.710,-34.580
35,33585.736000,243.175,68.166,13.526,367.159,318.534,16.836,-11.200,-63.710,-43.580
36,33585.780000,243.175,74.225,10.521,365.400,322.005,16.943,-36.200,-44.710,-36.580
37,33585.818000,243.175,73.215,12.524,369.810,324.640,18.036,-12.200,-8.710,-16.580
38,33585.857000,242.189,72.205,11.523,369.812,323.800,19.001,-44.200,-13.710,-15.580
39,33585.898000,241.202,72.205,15.530,371.571,324.641,18.041,-30.200,-16.710,-11.580
40,33585.939000,243.175,71.195,10.521,368.927,326.347,17.095,-28.200,-28.710,-2.580
41,33585.958000,242.189,72.205,10.521,368.041,311.647,18.601,4.800,-14.710,4.420
42,33585.998000,243.175,71.195,11.523,368.929,324.639,18.033,-19.200,-27.710,3.420
43,33586.37000,240.216,73.215,10.521,369.807,325.480,17.070,-8.200,-14.710,12.420
44,33586.77000,242.189,71.195,11.523,367.165,322.034,17.943,7.800,-8.710,16.420
45,33586.117000,244.162,70.185,10.521,370.691,324.641,18.038,8.800,-9.710,10.420
46,33586.158000,243.175,72.205,10.521,368.935,321.252,20.902,1.800,-6.710,9.420
47,33586.179000,241.202,72.205,8.517,367.163,323.742,17.005,16.800,17.290,19.420
48,33586.219000,242.189,70.185,11.523,370.693,323.801,19.004,3.800,28.290,23.420
49,33586.260000,242.189,71.195,11.523,368.033,315.874,14.766,0.800,29.290,21.420
50,33586.300000,242.189,70.185,12.524,369.804,317.696,17.810,11.800,30.290,22.420
51,33586.340000,242.189,71.195,12.524,369.809,323.772,18.007,25.800,36.290,30.420
52,33586.380000,244.162,69.176,13.526,374.205,320.247,15.921,38.800,30.290,30.420
53,33586.420000,242.189,69.176,13.526,371.566,321.141,16.935,55.800,26.290,28.420
54,33586.440000,242.189,69.176,13.526,368.045,313.411,19.652,19.800,11.290,16.420
55,33586.480000,243.175,70.185,11.523,374.204,310.755,17.599,17.800,12.290,17.420
56,33586.520000,244.162,68.166,13.526,371.561,309.885,17.562,32.800,17.290,24.420
57,33586.560000,244.162,69.176,15.530,372.435,308.962,15.549,48.800,33.290,31.420
58,33586.600000,242.189,68.166,13.526,372.456,318.650,20.829,54.800,38.290,36.420
59,33586.646000,243.175,66.146,12.524,374.196,314.983,13.764,45.800,37.290,31.420
60,33586.661000,243.175,68.166,16.532,375.973,320.305,17.915,28.800,22.290,27.420
61,33586.701000,243.175,67.156,13.526,373.332,319.463,18.872,17.800,14.290,25.420
62,33586.741000,242.189,69.176,15.530,372.443,319.378,15.887,29.800,11.290,19.420
63,33586.777000,243.175,68.166,14.528,374.202,312.463,16.662,15.800,-3.710,15.420
64,33586.825000,243.175,67.156,14.528,375.963,310.728,16.611,19.800,-8.710,13.420
65,33586.860000,244.162,67.156,12.524,374.207,314.227,17.712,1.800,-9.710,12.420
66,33586.900000,244.162,67.156,13.526,375.963,315.040,15.758,11.800,0.290,12.420
67,33586.920000,242.189,66.146,14.528,372.441,309.886,17.565,14.800,-0.710,14.420
68,33586.960000,243.175,66.146,13.526,376.843,309.861,16.586,-2.200,-12.710,7.420
69,33587.0,243.175,68.166,13.526,375.083,312.464,16.664,-13.200,-19.710,0.420
70,33587.40000,245.148,67.156,13.526,375.969,315.097,17.746,-11.200,-20.710,3.420
71,33587.80000,243.175,66.146,13.526,375.080,311.568,15.642,-9.200,-18.710,3.420
72,33587.120000,244.162,67.156,14.528,377.724,317.617,14.854,-25.200,-17.710,-1.580
73,33587.140000,243.175,66.146,12.524,375.087,317.672,16.833,-31.200,-7.710,1.420
74,33587.180000,242.189,66.146,12.524,375.087,316.804,16.805,-17.200,-2.710,2.420
75,33587.220000,243.175,64.126,10.521,372.444,316.802,16.797,-23.200,3.290,3.420
76,33587.260000,242.189,67.156,12.524,372.453,314.310,20.688,-13.200,9.290,3.420
77,33587.300000,243.175,65.136,13.526,374.201,310.727,16.605,-3.200,-6.710,-0.580
78,33587.340000,244.162,66.146,14.528,376.840,308.965,15.563,2.800,-16.710,-0.580
79,33587.380000,243.175,67.156,12.524,373.314,313.246,13.705,11.800,-13.710,-0.580
80,33587.400000,245.148,66.146,13.526,377.735,316.862,18.802,15.800,-13.710,-0.580
81,33587.440000,243.175,67.156,12.524,376.836,314.956,12.779,12.800,-13.710,-2.580
82,33587.480000,242.189,67.156,11.523,375.093,317.728,18.821,0.800,-8.710,-2.580
83,33587.518000,244.162,67.156,12.524,376.845,315.909,15.789,17.800,10.290,6.420
84,33587.558000,244.162,67.156,13.526,375.963,310.728,16.611,13.800,4.290,3.420
85,33587.598000,244.162,66.146,14.528,373.319,313.302,15.693,-5.200,9.290,0.420
86,33587.618000,244.162,67.156,10.521,375.971,314.257,18.711,1.800,19.290,10.420
87,33587.660000,243.175,67.156,13.526,375.084,309.020,17.546,11.800,18.290,11.420
88,33587.701000,245.148,67.156,15.530,375.974,317.729,18.824,10.800,3.290,6.420
89,33587.741000,243.175,68.166,15.530,377.725,318.485,14.882,9.800,-4.710,4.420
90,33587.780000,244.162,67.156,13.526,376.853,315.125,18.742,13.800,-2.710,4.420
91,33587.820000,246.135,67.156,15.530,376.846,317.645,15.845,-4.200,1.290,0.420
92,33587.860000,243.175,67.156,12.524,375.088,314.228,17.715,-7.200,9.290,6.420
93,33587.878000,244.162,66.146,12.524,375.957,309.804,14.595,-5.200,9.290,6.420
94,33587.928000,242.189,66.146,13.526,379.490,311.627,17.644,-5.200,7.290,2.420
95,33587.958000,244.162,66.146,15.530,376.845,312.465,16.670,-0.200,3.290,2.420
96,33587.998000,244.162,67.156,13.526,375.091,315.124,18.737,1.800,0.290,1.420
97,33588.40000,243.175,67.156,14.528,375.965,309.889,17.577,2.800,1.290,1.420
98,33588.80000,241.202,66.146,12.524,374.211,316.859,18.790,0.800,-1.710,-0.580
99,33588.100000,243.175,65.136,15.530,374.204,315.067,16.746,6.800,-4.710,-2.580
100,33588.140000,244.162,66.146,14.528,373.320,314.170,15.721,5.800,-10.710,-4.580
101,33588.180000,244.162,66.146,12.524,375.965,309.021,17.548,-9.200,-3.710,-7.580
102,33588.220000,242.189,66.146,12.524,374.205,315.935,16.774,-5.200,18.290,-2.580
103,33588.258000,244.162,66.146,14.528,375.094,315.152,19.731,-14.200,14.290,-3.580
104,33588.299000,244.162,66.146,15.530,377.730,314.230,17.723,-11.200,10.290,-6.580
105,33588.338000,244.162,66.146,12.524,374.212,317.727,18.818,-19.200,8.290,-10.580
106,33588.358000,244.162,66.146,13.526,372.448,314.254,18.700,-14.200,24.290,-7.580
107,33588.398000,243.175,66.146,13.526,373.343,314.396,23.672,-25.200,28.290,-8.580
108,33588.438000,245.148,67.156,14.528,374.214,313.444,20.665,-14.200,36.290,-10.580
109,33588.482000,241.202,65.136,15.530,372.455,312.603,21.625,-15.200,27.290,-11.580
110,33588.522000,242.189,67.156,17.534,378.626,318.683,21.842,-11.200,15.290,-17.580
111,33588.562000,242.189,65.136,15.530,375.100,315.209,21.718,-3.200,11.290,-21.580
112,33588.582000,242.189,66.146,14.528,373.343,318.707,22.819,-16.200,7.290,-21.580
113,33588.622000,242.189,70.185,17.534,374.230,311.877,26.573,-25.200,10.290,-26.580
114,33588.662000,243.175,68.166,18.536,368.937,312.656,23.602,-16.200,7.290,-13.580
115,33588.702000,241.202,67.156,18.536,371.578,314.366,22.673,3.800,-5.710,-6.580
116,33588.742000,241.202,67.156,17.534,371.587,311.875,26.564,8.800,-19.710,-10.580
117,33588.782000,244.162,68.166,18.536,370.696,312.630,22.614,5.800,-26.710,-7.580
118,33588.822000,244.162,69.176,14.528,374.225,320.444,22.879,0.800,-20.710,-4.580
119,33588.845000,242.189,67.156,14.528,370.704,320.470,23.861,11.800,-3.710,1.420
120,33588.880000,242.189,69.176,16.532,370.703,322.178,22.923,8.800,-1.710,1.420
121,33588.920000,243.175,68.166,15.530,370.705,321.338,23.889,0.800,1.290,-1.580
122,33588.960000,242.189,69.176,16.532,371.579,315.234,22.701,6.800,7.290,3.420
123,33589.0,243.175,65.136,15.530,373.347,316.160,24.723,-0.200,1.290,-2.580
124,33589.40000,242.189,68.166,17.534,375.110,321.341,23.903,-6.200,-2.710,-7.580
125,33589.60000,243.175,67.156,16.532,371.577,320.386,20.882,-0.200,-1.710,-9.580
126,33589.100000,242.189,68.166,14.528,371.586,321.338,23.892,-0.200,-3.710,-20.580
127,33589.140000,242.189,68.166,15.530,371.588,320.499,24.858,3.800,9.290,-19.580
128,33589.180000,242.189,70.185,14.528,369.825,322.205,23.915,5.800,19.290,-21.580
129,33589.221000,242.189,67.156,15.530,368.940,316.996,23.743,-4.200,15.290,-29.580
130,33589.261000,243.175,68.166,17.534,370.695,315.205,21.704,-7.200,14.290,-37.580
131,33589.303000,242.189,71.195,17.534,369.831,323.129,25.931,-49.200,21.290,-51.580
132,33589.323000,241.202,69.176,17.534,368.954,324.025,26.950,-39.200,23.290,-55.580
133,33589.363000,241.202,70.185,17.534,367.195,324.920,27.966,-61.200,11.290,-58.580
134,33589.403000,240.216,73.215,19.538,368.965,327.581,30.044,-21.200,49.290,-54.580
135,33589.443000,241.202,69.176,18.536,362.791,321.473,28.833,-72.200,45.290,-72.580
136,33589.480000,239.229,75.235,22.544,361.049,322.537,35.813,-142.200,187.290,-59.580
137,33589.520000,234.297,77.254,23.546,361.054,320.857,37.745,-163.200,79.290,-75.580
138,33589.540000,242.189,77.254,22.544,360.188,322.733,42.768,-120.200,12.290,-86.580
139,33589.580000,240.216,74.225,25.550,358.426,326.176,41.881,-76.200,-11.710,-76.580
140,33589.620000,238.243,80.284,28.556,356.671,327.967,43.919,-46.200,-73.710,-66.580
141,33589.660000,238.243,76.245,28.556,357.547,328.779,41.962,-31.200,-90.710,-48.580
142,33589.700000,238.243,78.264,21.542,357.550,328.807,42.956,15.800,-71.710,-28.580
143,33589.740000,239.229,79.274,20.540,354.013,326.088,38.885,-1.200,-43.710,-12.580
144,33589.781000,240.216,76.245,21.542,359.312,328.809,42.962,-26.200,19.290,-4.580
145,33589.801000,238.243,78.264,23.546,358.423,326.148,40.887,-21.200,57.290,8.420
146,33589.841000,238.243,76.245,21.542,355.776,327.825,38.947,9.800,8.290,-7.580
147,33589.882000,241.202,73.215,20.540,356.671,334.854,42.157,2.800,-3.710,-25.580
148,33589.921000,240.216,81.294,24.548,356.663,336.506,39.231,6.800,4.290,-38.580
149,33589.962000,237.256,80.284,24.548,354.021,333.928,40.132,-2.200,-12.710,-21.580
150,33590.2000,240.216,78.264,24.548,354.902,333.061,40.107,-12.200,-18.710,-16.580
151,33590.22000,239.229,78.264,23.546,354.022,330.484,41.013,-28.200,-6.710,-28.580
152,33590.62000,239.229,80.284,20.540,355.783,337.373,39.257,-46.200,-16.710,-30.580
153,33590.102000,238.243,81.294,25.550,357.554,338.327,42.272,-11.200,-13.710,-18.580
154,33590.142000,238.243,78.264,23.546,354.911,337.457,42.236,-8.200,-31.710,-21.580
155,33590.182000,240.216,78.264,23.546,354.036,338.381,44.249,-11.200,-12.710,-24.580
156,33590.221000,236.270,81.294,24.548,354.906,335.693,41.185,-1.200,60.290,-14.580
157,33590.262000,237.256,82.304,22.544,350.497,333.058,40.093,-13.200,6.290,-27.580
158,33590.282000,238.243,82.304,22.544,354.027,330.541,43.001,-18.200,-15.710,-19.580
159,33590.321000,240.216,80.284,25.550,353.144,334.824,41.151,5.800,-11.710,9.420
160,33590.362000,241.202,78.264,22.544,353.139,332.192,40.073,-44.200,9.290,-3.580
161,33590.402000,238.243,83.314,24.548,352.273,337.512,44.215,5.800,16.290,-17.580
162,33590.442000,238.243,76.245,22.544,352.273,337.512,44.215,-5.200,1.290,-22.580
163,33590.497000,237.256,77.254,21.542,352.270,340.059,42.311,13.800,-12.710,-55.580
164,33590.505000,237.256,84.323,26.552,347.864,339.188,42.269,-18.200,-31.710,-47.580
165,33590.541000,241.202,79.274,20.540,351.389,336.615,43.190,26.800,2.290,-39.580
166,33590.581000,236.270,86.343,24.548,353.157,337.540,45.212,-31.200,0.290,-36.580
167,33590.626000,236.270,80.284,19.538,352.274,334.936,45.124,-88.200,-18.710,-19.580
168,33590.661000,237.256,86.343,25.550,347.874,341.008,45.307,-27.200,18.290,-4.580
169,33590.701000,237.256,80.284,25.550,348.759,341.905,46.332,-11.200,14.290,12.420
170,33590.741000,237.256,83.314,29.558,348.757,340.169,46.276,-2.200,9.290,3.420
171,33590.761000,235.283,84.323,23.546,349.638,343.614,45.397,13.800,-0.710,7.420
172,33590.801000,236.270,84.323,24.548,348.755,341.009,45.310,14.800,-5.710,10.420
173,33590.842000,237.256,86.343,25.550,346.988,337.508,44.198,9.800,-11.710,12.420
174,33590.882000,236.270,85.333,23.546,347.871,336.668,45.166,-6.200,-20.710,24.420
175,33590.922000,238.243,82.304,22.544,352.273,336.644,44.187,-0.200,-14.710,27.420
176,33590.962000,237.256,84.323,26.552,350.520,341.039,46.310,12.800,-14.710,46.420
177,33590.981000,240.216,80.284,28.556,352.273,337.512,44.215,-1.200,6.290,62.420
178,33591.22000,244.162,76.245,54.607,354.036,327.181,46.864,-101.200,9.290,27.420
179,33591.61000,241.202,84.323,18.536,354.043,325.530,49.790,-92.200,-53.710,44.420
180,33591.101000,237.256,91.393,32.564,354.032,333.173,44.080,168.800,-129.710,60.420
181,33591.141000,230.351,86.343,37.573,355.781,334.769,39.172,281.800,-104.710,100.420
182,33591.181000,236.270,74.225,25.550,358.403,332.838,32.167,145.800,-333.710,55.420
183,33591.221000,247.121,81.294,6.513,360.137,336.869,21.380,-1.200,-472.710,23.420
184,33591.241000,251.067,77.254,7.515,363.648,335.891,17.388,42.800,-410.710,78.420
185,33591.281000,287.568,78.264,13.526,365.368,328.582,4.247,49.800,-332.710,133.420
186,33591.321000,336.894,66.146,24.548,368.014,328.613,5.250,184.800,-25.710,233.420
187,33591.361000,220.486,86.343,-123.742,375.044,316.381,1.897,519.800,-61.710,531.420
188,33591.406000,113.942,243.882,-407.296,380.297,310.027,-8.223,248.800,-242.710,288.420
189,33591.446000,170.173,196.418,-403.288,366.093,320.146,-48.653,1884.800,-1285.710,-619.580
190,33591.466000,209.634,197.428,-398.278,336.799,324.816,-128.034,2535.800,-2593.710,-933.580
191,33591.506000,218.513,112.600,-263.014,303.162,324.922,-184.739,1949.800,-3371.710,-975.580
192,33591.546000,184.971,39.890,-113.722,249.244,321.372,-247.585,1114.800,-3218.710,-932.580
193,33591.586000,187.931,22.722,-58.614,203.318,313.296,-286.721,976.800,-2402.710,-775.580
194,33591.626000,207.661,57.057,9.519,181.231,308.348,-307.805,818.800,-1298.710,-463.580
195,33591.666000,205.688,70.185,39.577,182.106,315.180,-311.553,132.800,60.290,-82.580
196,33591.705000,222.459,132.797,34.568,197.119,322.445,-300.346,-460.200,861.290,102.420
197,33591.725000,208.647,228.734,-60.618,221.871,338.819,-273.918,-987.200,1846.290,186.420
198,33591.771000,260.933,1.515,67.632,241.339,356.926,-247.450,-429.200,1492.290,-126.580
199,33591.806000,300.393,98.462,6.513,248.419,358.977,-236.438,-337.200,858.290,-314.580
200,33591.846000,324.069,62.107,-57.613,246.699,373.173,-225.060,-725.200,325.290,-156.580
201,33591.886000,312.231,152.994,-68.634,251.133,382.950,-216.784,-335.200,486.290,-72.580
202,33591.926000,312.231,120.679,-90.677,259.985,382.511,-201.875,-148.200,573.290,94.420
203,33591.946000,253.040,110.580,-77.652,266.151,382.515,-201.856,173.800,553.290,197.420
204,33591.986000,208.647,92.402,-81.659,271.442,377.396,-199.026,204.800,460.290,200.420
205,33592.22000,174.119,111.590,-75.648,274.097,374.934,-194.132,254.800,331.290,140.420
206,33592.62000,139.592,95.432,-84.665,275.843,368.747,-198.299,311.800,107.290,0.420
207,33592.102000,162.281,100.481,-91.679,275.834,371.238,-202.190,-7.200,-154.710,-62.580
208,33592.142000,220.486,110.580,-88.673,274.069,364.321,-201.428,-177.200,-228.710,-26.580
209,33592.182000,258.960,107.550,-72.642,273.184,369.444,-204.243,-137.200,-217.710,84.420
210,33592.206000,303.353,105.531,-30.560,272.313,372.132,-201.180,-134.200,-407.710,136.420
211,33592.246000,308.285,101.491,-12.524,267.870,370.027,-214.171,-6.200,-703.710,89.420
212,33592.286000,313.218,91.393,11.523,258.152,366.294,-223.260,430.800,-1127.710,-86.580
213,33592.326000,342.813,81.294,59.616,235.160,352.497,-250.592,1073.800,-1317.710,-288.580
214,33592.366000,366.489,119.669,11.523,211.250,325.397,-288.289,1896.800,-1392.710,-350.580
215,33592.406000,283.622,165.112,-87.671,182.924,291.294,-328.213,1876.800,-1615.710,2.420
216,33592.426000,246.135,197.428,-185.863,159.053,270.609,-353.786,788.800,-1389.710,166.420
217,33592.466000,143.538,150.974,-161.816,144.094,282.834,-350.458,-1305.200,-896.710,59.420
218,33592.506000,31.075,-24.742,-55.609,150.350,312.159,-325.655,-1798.200,553.290,391.420
219,33592.546000,-0.493,28.781,-134.763,185.721,330.728,-283.233,-2189.200,1498.290,772.420
220,33592.586000,36.994,4.544,-186.865,232.565,347.794,-232.880,-2024.200,2281.290,1109.420
221,33592.626000,68.563,75.235,-212.916,273.176,344.385,-201.084,-606.200,3082.290,1364.420
222,33592.665000,170.173,160.063,-308.102,323.525,327.658,-149.830,-436.200,3004.290,1158.420
223,33592.685000,215.553,213.586,-310.106,348.338,326.537,-98.152,-1369.200,2144.290,326.420
224,33592.725000,239.229,127.748,-254.998,355.502,332.009,-58.231,-1240.200,889.290,21.420
225,33592.767000,203.715,119.669,-85.667,354.648,340.885,-50.995,-204.200,523.290,-178.580
226,33592.807000,287.568,22.722,72.642,351.167,342.173,-36.070,-547.200,737.290,-194.580
227,33592.847000,358.597,33.830,-42.583,349.457,346.991,-19.038,-586.200,-79.710,-157.580
228,33592.887000,233.310,115.629,-40.579,345.073,344.609,-11.185,-434.200,172.290,-95.580
229,33592.907000,241.202,108.560,-0.501,348.626,342.317,-0.326,-249.200,590.290,163.420
230,33592.946000,249.094,75.235,6.513,352.193,343.611,14.623,-110.200,535.290,258.420
231,33592.986000,240.216,77.254,59.616,353.088,335.996,21.329,-130.200,331.290,181.420
232,33593.44000,230.351,74.225,33.566,353.978,336.081,24.314,18.800,174.290,67.420
233,33593.63000,231.337,75.235,18.536,351.347,333.616,29.191,-91.200,60.290,-42.580
234,33593.107000,244.162,72.205,20.540,350.470,335.380,30.238,-46.200,-2.710,-39.580
235,33593.143000,242.189,91.393,-2.505,353.106,333.590,28.202,68.800,71.290,-93.580
236,33593.167000,226.405,105.531,10.521,351.353,329.361,32.031,32.800,246.290,-29.580
237,33593.206000,223.445,94.422,6.513,354.013,333.844,37.150,-45.200,230.290,74.420
238,33593.246000,229.364,92.402,18.536,352.265,337.427,41.233,-7.200,107.290,147.420
239,33593.286000,248.108,76.245,26.552,353.141,339.107,39.304,-125.200,119.290,208.420
240,33593.326000,250.081,73.215,9.519,355.821,331.720,53.968,-218.200,346.290,195.420
241,33593.366000,254.027,68.166,16.532,356.723,322.454,63.600,-0.200,719.290,211.420
242,33593.386000,238.243,86.343,28.556,355.874,322.763,74.531,68.800,811.290,239.420
243,33593.426000,225.418,61.097,76.650,356.783,318.734,85.326,173.800,662.290,235.420
244,33593.466000,232.324,62.107,53.605,355.916,315.430,91.174,64.800,454.290,100.420
245,33593.506000,235.283,67.156,46.591,359.456,313.866,97.092,-3.200,430.290,123.420
246,33593.546000,239.229,67.156,65.628,356.843,312.438,107.960,-172.200,392.290,86.420
247,33593.587000,224.432,84.323,80.658,355.976,311.710,112.899,-162.200,275.290,167.420
248,33593.627000,234.297,74.225,67.632,355.117,304.179,122.582,-251.200,262.290,314.420
249,33593.643000,239.229,47.968,52.603,359.550,299.284,133.360,-297.200,311.290,311.420
250,33593.691000,239.229,55.037,72.642,360.455,290.047,143.986,-202.200,425.290,336.420
251,33593.726000,240.216,53.018,70.638,361.354,291.952,150.009,-171.200,444.290,367.420
252,33593.766000,229.364,71.195,91.679,363.131,281.763,157.628,-196.200,477.290,433.420
253,33593.806000,228.378,71.195,109.714,364.919,271.686,169.222,-187.200,276.290,518.420
254,33593.846000,246.135,39.890,119.734,373.713,262.060,165.959,-89.200,-101.710,481.420
255,33593.863000,275.730,87.353,93.683,377.232,259.430,164.892,-39.200,-382.710,156.420
256,33593.905000,270.798,8.584,33.566,378.103,249.855,163.591,-764.200,-239.710,-34.580
257,33593.945000,243.175,-24.742,84.665,379.010,245.797,173.392,-608.200,20.290,67.420
258,33593.985000,244.162,-16.663,106.708,380.773,244.091,174.335,-141.200,-93.710,149.420
259,33594.25000,213.580,1.515,74.646,382.536,241.516,175.251,-106.200,-91.710,87.420
260,33594.65000,196.809,-10.604,94.685,384.294,244.065,173.353,-409.200,-407.710,-49.580
261,33594.105000,191.877,-67.156,130.755,389.583,237.209,176.126,-664.200,-349.710,45.420
262,33594.125000,210.620,-19.692,126.748,386.933,234.547,174.046,-108.200,-16.710,131.420
263,33594.166000,214.566,-16.663,112.720,390.455,229.370,174.882,62.800,129.290,171.420
264,33594.206000,214.566,1.515,128.751,391.345,221.699,179.601,115.800,261.290,179.420
265,33594.246000,194.836,29.791,76.650,392.240,218.397,185.454,-175.200,179.290,92.420
266,33594.286000,200.755,37.870,26.552,388.724,217.611,188.397,-421.200,54.290,-24.580
267,33594.332000,241.202,16.663,141.777,389.600,226.179,184.705,90.800,-115.710,-274.580
268,33594.347000,270.798,-57.057,167.828,385.193,227.016,183.725,624.800,192.290,-171.580
269,33594.387000,274.744,7.574,113.722,382.548,239.053,180.136,287.800,-116.710,-325.580
270,33594.426000,254.027,17.673,88.673,382.521,248.263,168.519,-17.200,-524.710,-586.580
271,33594.467000,239.229,55.037,73.644,380.729,256.576,155.874,216.800,-640.710,-618.580
272,33594.507000,228.378,156.024,72.642,380.719,273.710,148.486,235.800,-599.710,-715.580
273,33594.547000,235.283,60.087,69.636,380.685,277.684,135.706,-19.200,-705.710,-511.580
274,33594.587000,299.407,53.018,16.532,382.407,288.490,119.181,324.800,-683.710,-421.580
275,33594.607000,263.892,46.959,33.566,379.723,290.670,104.348,165.800,-638.710,-338.580
276,33594.647000,242.189,63.116,38.575,377.938,293.887,95.510,238.800,-481.710,-233.580
277,33594.688000,249.094,55.037,22.544,377.915,297.106,86.677,275.800,-354.710,-196.580
278,33594.728000,234.297,69.176,32.564,372.601,303.708,74.959,250.800,-314.710,-176.580
279,33594.768000,240.216,67.156,42.583,377.854,305.978,63.133,286.800,-376.710,-165.580
280,33594.808000,238.243,50.998,22.544,375.166,309.837,46.369,240.800,-532.710,-214.580
281,33594.828000,233.310,55.037,5.511,376.919,320.085,40.749,253.800,-711.710,-304.580
282,33594.868000,214.566,71.195,11.523,373.346,326.491,22.079,269.800,-816.710,-317.580
283,33594.908000,305.326,73.215,21.542,370.647,330.238,1.339,107.800,-981.710,-269.580
284,33594.948000,323.083,73.215,16.532,366.181,332.219,-20.457,247.800,-925.710,-247.580
285,33594.988000,309.272,103.511,-8.517,366.146,330.145,-32.440,319.800,-854.710,-195.580
286,33595.28000,307.299,83.314,-23.546,363.456,331.400,-49.289,580.800,-535.710,-63.580
287,33595.68000,204.701,97.452,-59.616,362.529,333.525,-66.104,715.800,-379.710,132.420
288,33595.88000,143.538,112.600,-112.720,366.905,329.802,-75.147,343.800,-208.710,60.420
289,33595.128000,122.821,102.501,-116.728,365.150,335.037,-73.990,125.800,-21.710,-69.580
290,33595.168000,120.848,61.097,-121.738,366.906,331.538,-75.091,276.800,300.290,-15.580
291,33595.208000,195.823,48.978,-86.669,368.676,330.756,-72.132,150.800,329.290,28.420
292,33595.247000,297.434,107.550,-31.562,371.345,324.124,-61.416,-206.200,353.290,80.420
293,33595.287000,345.773,83.314,-10.521,375.777,326.117,-52.400,-101.200,690.290,541.420
294,33595.307000,352.678,89.373,59.616,387.254,316.887,-41.740,426.800,507.290,612.420
295,33595.347000,303.353,175.211,-166.826,390.757,312.380,-47.833,285.800,-332.710,193.420
296,33595.387000,221.472,36.860,-61.620,378.345,320.206,-77.408,549.800,-912.710,-663.580
297,33595.427000,14.304,-46.959,0.501,368.633,326.022,-86.187,79.800,-531.710,-364.580
298,33595.466000,51.792,-4.544,-116.728,370.399,319.164,-83.425,89.800,506.290,357.420
299,33595.507000,157.349,327.700,-397.276,371.323,321.323,-68.457,-1226.200,220.290,-50.580
300,33595.547000,346.759,15.653,-90.677,376.655,318.333,-51.656,-398.200,613.290,368.420
301,33595.567000,200.755,64.126,-151.796,381.094,307.475,-37.100,131.800,551.290,347.420
302,33595.613000,240.216,146.935,-222.935,378.444,312.569,-40.915,396.800,-90.710,-115.580
303,33595.650000,246.135,132.797,-316.117,366.020,316.838,-73.585,1519.800,-967.710,-374.580
304,33595.686000,241.202,100.481,-225.941,340.289,312.413,-137.362,2040.800,-2157.710,-697.580
305,33595.727000,231.337,80.284,-193.879,301.360,311.590,-196.100,1589.800,-2481.710,-768.580
306,33595.768000,214.566,27.771,-105.706,276.590,302.803,-230.226,1533.800,-2253.710,-734.580
307,33595.788000,197.796,35.850,-65.628,250.035,291.184,-272.394,1470.800,-1633.710,-422.580
308,33595.828000,176.092,80.284,-0.501,234.978,280.893,-298.594,1052.800,-964.710,-175.580
309,33595.868000,180.039,134.817,103.703,231.438,282.458,-304.513,267.800,-235.710,-100.580
310,33595.907000,159.322,99.471,65.628,236.746,289.574,-298.307,-919.200,724.290,25.420
311,33595.947000,209.634,307.503,-315.115,254.461,316.388,-270.569,-1612.200,766.290,-291.580
312,33595.987000,324.069,128.757,53.605,270.382,326.511,-250.330,-26.200,1275.290,-244.580
313,33596.28000,359.584,64.126,-36.571,285.412,333.945,-233.160,-325.200,1154.290,-116.580
314,33596.48000,311.245,63.116,-94.685,293.390,340.477,-217.034,-314.200,766.290,-245.580
315,33596.88000,282.636,141.886,-65.628,295.180,351.091,-209.733,-654.200,446.290,-272.580
316,33596.127000,264.879,149.964,-83.663,300.513,358.462,-194.582,-295.200,620.290,17.420
317,33596.167000,220.486,97.452,-123.742,312.904,355.590,-173.783,-392.200,972.290,358.420
318,33596.207000,196.809,96.442,-79.656,328.804,356.024,-158.823,-260.200,913.290,442.420
319,33596.247000,214.566,40.899,-76.650,333.237,348.554,-147.135,-1.200,890.290,336.420
320,33596.267000,213.580,71.195,-56.611,343.840,346.295,-135.259,-158.200,609.290,150.420
321,33596.306000,235.283,93.412,8.517,346.499,348.174,-130.224,-30.200,259.290,10.420
322,33596.346000,249.094,88.363,-7.515,344.750,347.446,-125.288,-219.200,-163.710,-48.580
323,33596.386000,224.432,87.353,-30.560,341.217,353.378,-130.072,-5.200,-327.710,-38.580
324,33596.426000,240.216,84.323,-53.605,339.428,354.831,-139.961,-47.200,-464.710,-9.580
325,33596.466000,235.283,94.422,-51.601,337.654,353.849,-143.970,146.800,-360.710,-14.580
326,33596.506000,243.175,95.432,-53.605,332.334,353.507,-155.914,225.800,-475.710,-24.580
327,33596.526000,234.297,89.373,-48.595,324.350,347.787,-173.999,207.800,-980.710,-105.580
328,33596.571000,307.299,98.462,-47.593,318.143,345.652,-187.990,226.800,-1147.710,-91.580
329,33596.620000,317.164,90.383,-67.632,305.765,346.928,-203.876,152.800,-1161.710,-35.580
330,33596.650000,324.069,95.432,-26.552,285.442,344.586,-224.870,200.800,-1251.710,-90.580
331,33596.688000,327.029,98.462,9.519,265.998,335.328,-245.093,710.800,-1269.710,-223.580
332,33596.728000,345.773,98.462,45.589,243.018,325.088,-269.331,1449.800,-1338.710,-245.580
333,33596.747000,262.906,171.172,-81.659,216.475,299.807,-303.998,1258.800,-1418.710,-94.580
334,33596.788000,175.106,118.659,-136.767,187.328,290.429,-328.227,663.800,-1436.710,-232.580
335,33596.828000,135.645,64.126,-51.601,168.803,291.030,-337.204,-91.200,-952.710,-196.580
336,33596.870000,111.969,47.968,-30.560,160.903,301.638,-329.934,-1228.200,21.290,-25.580
337,33596.908000,86.320,42.919,-111.718,168.037,323.179,-304.387,-1522.200,669.290,189.420
338,33596.950000,89.279,29.791,-154.802,196.328,337.989,-272.040,-1527.200,1303.290,449.420
339,33596.990000,103.091,31.811,-165.824,234.314,342.503,-236.025,-1031.200,1896.290,903.420
340,33597.10000,127.753,84.323,-207.906,262.565,336.227,-213.299,-666.200,2182.290,1128.420
341,33597.48000,152.416,109.570,-227.945,305.853,335.734,-170.478,-728.200,2306.290,1110.420
342,33597.88000,198.782,140.876,-233.957,339.457,324.958,-123.056,-1150.200,1940.290,695.420
343,33597.128000,217.526,131.787,-225.941,357.202,324.503,-78.329,-1070.200,1574.290,400.420
344,33597.168000,228.378,118.659,-185.863,364.339,327.117,-47.439,-653.200,1281.290,220.420
345,33597.211000,207.661,275.187,-128.751,367.901,329.222,-34.450,48.800,1054.290,-45.580
346,33597.231000,283.622,49.988,-123.742,364.409,333.841,-24.382,161.800,526.290,-104.580
347,33597.270000,234.297,102.501,-17.534,361.787,334.904,-17.405,170.800,633.290,-163.580
348,33597.308000,307.299,17.673,10.521,360.935,332.609,-6.559,-96.200,571.290,24.420
349,33597.348000,235.283,85.333,19.538,361.847,332.052,4.349,-632.200,340.290,-16.580
350,33597.388000,233.310,84.323,18.536,361.884,336.730,16.417,-359.200,304.290,32.420
351,33597.428000,266.852,79.274,16.532,360.147,328.358,27.062,-396.200,279.290,13.420
352,33597.468000,261.919,74.225,9.519,361.062,327.829,38.964,-230.200,352.290,48.420
353,33597.488000,239.229,77.254,21.542,359.316,334.884,43.159,-115.200,205.290,81.420
354,33597.528000,217.526,75.235,68.634,360.204,333.234,46.087,-26.200,17.290,-0.580
355,33597.568000,241.202,71.195,41.581,355.800,337.542,45.220,-76.200,-144.710,-102.580
356,33597.608000,246.135,78.264,11.523,359.318,333.177,44.097,-69.200,-74.710,-105.580
357,33597.650000,239.229,81.294,13.526,357.565,338.440,46.248,-103.200,3.290,-82.580
358,33597.690000,242.189,82.304,18.536,356.690,337.627,48.205,-78.200,79.290,-57.580
359,33597.708000,239.229,84.323,31.562,354.940,339.475,52.231,-13.200,114.290,-36.580
360,33597.748000,239.229,92.402,18.536,354.068,339.559,55.210,-54.200,158.290,-47.580
361,33597.787000,228.378,100.481,35.569,351.438,334.518,60.996,-68.200,365.290,57.420
362,33597.831000,230.351,78.264,31.562,353.215,331.216,66.852,-157.200,301.290,128.420
363,33597.871000,234.297,80.284,36.571,351.477,329.732,75.736,-154.200,331.290,137.420
364,33597.910000,234.297,87.353,51.601,353.258,332.507,81.789,-102.200,309.290,143.420
365,33597.951000,238.243,71.195,63.624,356.797,330.074,87.680,-125.200,153.290,141.420
366,33597.970000,239.229,69.176,51.601,355.040,321.506,91.368,-224.200,36.290,140.420
367,33598.10000,239.229,71.195,47.593,355.045,316.382,94.181,-168.200,34.290,120.420
368,33598.51000,242.189,64.126,44.587,362.983,313.897,98.097,-213.200,74.290,99.420
369,33598.91000,240.216,71.195,43.585,358.597,320.110,103.250,-158.200,188.290,87.420
370,33598.131000,241.202,62.107,48.595,361.252,317.649,108.143,-252.200,231.290,93.420
371,33598.168000,233.310,77.254,62.622,360.393,312.694,116.917,-178.200,263.290,192.420
372,33598.190000,230.351,64.126,56.611,363.939,308.610,125.733,-59.200,314.290,261.420
373,33598.230000,233.310,85.333,48.595,362.201,302.814,135.469,-254.200,303.290,242.420
374,33598.270000,235.283,74.225,71.640,363.094,292.596,142.091,-255.200,480.290,369.420
375,33598.310000,239.229,47.968,73.644,364.878,280.755,152.635,-191.200,448.290,454.420
376,33598.350000,248.108,47.968,61.620,370.200,272.502,167.280,-191.200,559.290,538.420
377,33598.390000,236.270,62.107,78.654,372.866,261.529,177.855,-83.200,580.290,582.420
378,33598.430000,258.960,63.116,70.638,376.409,253.106,186.530,16.800,479.290,594.420
379,33598.448000,255.013,29.791,94.685,375.533,247.981,189.340,-12.200,285.290,489.420
380,33598.488000,239.229,8.584,136.767,378.169,242.747,188.185,215.800,-62.710,297.420
381,33598.528000,264.879,60.087,137.769,380.792,243.420,181.265,62.800,-430.710,115.420
382,33598.570000,262.906,2.525,100.697,382.564,233.174,186.896,-873.200,-333.710,-12.580
383,33598.610000,234.297,-31.811,114.724,386.971,225.450,189.638,-1018.200,-196.710,7.420
384,33598.650000,192.863,-22.722,65.628,387.861,222.091,193.504,-899.200,-215.710,-30.580
385,33598.670000,193.850,-43.929,85.667,391.391,218.706,196.385,-158.200,-171.710,44.420
386,33598.710000,190.890,-31.811,107.710,395.791,220.389,194.467,132.800,-86.710,62.420
387,33598.750000,196.809,-37.870,110.716,391.374,218.537,190.421,-69.200,-93.710,70.420
388,33598.790000,201.742,-40.899,121.738,395.780,213.389,192.254,36.800,25.290,88.420
389,33598.830000,208.647,-37.870,116.728,390.493,211.649,192.181,459.800,265.290,128.420
390,33598.870000,207.661,-2.525,84.665,390.506,216.942,195.331,791.800,465.290,176.420
391,33598.910000,205.688,45.949,57.613,389.632,223.045,196.520,462.800,344.290,70.420
392,33598.930000,204.701,64.126,17.534,387.881,230.044,198.727,213.800,74.290,-144.580
393,33598.970000,273.757,15.653,204.900,383.467,232.532,194.822,114.800,117.290,-256.580
394,33599.10000,255.013,11.613,103.703,382.591,239.476,195.044,-314.200,-211.710,-382.580
395,33599.50000,261.919,-37.870,95.687,380.807,247.873,185.381,-5.200,-453.710,-565.580
396,33599.90000,224.432,48.978,96.689,379.028,251.146,178.531,312.800,-473.710,-634.580
397,33599.130000,224.432,71.195,131.757,379.875,266.320,163.138,540.800,-435.710,-517.580
398,33599.150000,287.568,46.959,33.566,376.331,281.632,152.701,134.800,-595.710,-592.580
399,33599.190000,266.852,38.880,44.587,370.128,297.640,136.319,474.800,-476.710,-498.580
400,33599.230000,254.027,71.195,42.583,370.981,300.803,125.502,224.800,-497.710,-345.580
401,33599.270000,242.189,68.166,44.587,368.316,309.199,115.836,437.800,-299.710,-199.580
402,33599.313000,232.324,70.185,37.573,369.179,311.607,108.966,296.800,-196.710,-107.580
403,33599.353000,227.391,76.245,43.585,364.754,315.718,101.141,330.800,-101.710,-39.580
404,33599.373000,239.229,68.166,45.589,370.028,310.430,98.007,312.800,-80.710,5.420
405,33599.412000,243.175,61.097,47.593,366.490,318.910,91.320,286.800,-55.710,3.420
406,33599.455000,235.283,78.264,57.613,368.236,316.166,86.272,356.800,-84.710,35.420
407,33599.490000,239.229,62.107,43.585,369.093,314.206,78.267,313.800,-113.710,52.420
408,33599.530000,232.324,68.166,67.632,370.848,320.170,74.494,242.800,-221.710,-48.580
409,33599.569000,233.310,68.166,60.618,369.937,318.152,64.496,193.800,-371.710,-118.580
410,33599.611000,227.391,76.245,56.611,369.911,320.474,54.641,194.800,-523.710,-163.580
411,33599.631000,251.067,87.353,42.583,371.628,325.205,37.920,-49.200,-675.710,-78.580
412,33599.671000,241.202,67.156,-7.515,371.608,325.008,30.962,8.800,-612.710,-18.580
413,33599.711000,192.863,64.126,5.511,375.988,325.625,22.059,-89.200,-732.710,-10.580
414,33599.751000,204.701,101.491,49.597,375.075,327.891,10.214,-306.200,-844.710,-108.580
415,33599.791000,262.906,56.047,-22.544,375.037,326.656,-2.735,-303.200,-755.710,-23.580
416,33599.831000,253.040,57.057,-6.513,372.353,327.100,-17.624,279.800,-668.710,-33.580
417,33599.851000,295.461,119.669,23.546,373.203,327.659,-28.526,-127.200,-816.710,-157.580
418,33599.890000,351.692,70.185,10.521,372.286,324.716,-40.540,298.800,-672.710,-58.580
419,33599.930000,365.503,68.166,12.524,372.242,326.001,-56.387,298.800,-687.710,-44.580
420,33599.973000,296.447,56.047,-37.573,374.841,328.157,-72.196,174.800,-818.710,193.420
421,33600.13000,204.701,144.915,-163.820,375.703,329.696,-79.095,-74.200,-1023.710,-181.580
422,33600.53000,144.524,101.491,-147.789,361.563,336.991,-96.777,-113.200,-1117.710,-347.580
423,33600.93000,103.091,48.978,-91.679,350.946,340.844,-113.567,292.800,-718.710,-304.580
424,33600.113000,65.603,14.643,-39.577,344.754,340.586,-122.532,514.800,-274.710,-105.580
425,33600.152000,75.468,22.722,-26.552,350.012,329.977,-129.810,540.800,201.290,168.420
426,33600.192000,118.875,174.201,-128.751,352.677,332.780,-122.760,-408.200,488.290,35.420
427,33600.233000,303.353,49.988,-101.699,350.957,333.201,-107.857,-1002.200,136.290,-12.580
428,33600.272000,285.595,98.462,-61.620,353.633,335.249,-96.859,-2.200,759.290,90.420
429,33600.311000,291.514,58.067,-89.675,358.979,332.401,-75.088,-174.200,1071.290,277.420
430,33600.332000,266.852,56.047,-92.681,366.092,326.166,-50.443,-322.200,1742.290,554.420
431,33600.371000,215.553,116.639,-230.951,367.916,318.163,-26.865,-76.200,837.290,167.420
432,33600.411000,227.391,118.659,-260.008,359.063,320.310,-42.712,1060.800,-294.710,-180.580
433,33600.451000,267.838,129.767,-280.047,343.914,319.449,-103.361,2349.800,-1360.710,-594.580
434,33600.491000,292.501,103.511,-182.857,319.996,320.712,-150.067,2597.800,-2490.710,-753.580
435,33600.531000,281.649,83.314,-138.771,281.912,312.636,-219.960,2076.800,-2705.710,-759.580
436,33600.576000,249.094,57.057,-77.652,242.122,301.679,-269.100,1744.800,-2347.710,-677.580
437,33600.591000,199.769,66.146,-101.699,217.332,279.759,-307.624,1371.800,-1396.710,-303.580
438,33600.631000,169.187,87.353,18.536,208.469,272.330,-324.775,680.800,-971.710,-269.580
439,33600.676000,171.160,4.544,99.695,204.035,271.177,-334.756,6.800,-330.710,43.420
440,33600.725000,142.551,40.899,127.750,222.550,264.443,-327.964,-157.200,1092.290,583.420
441,33600.755000,118.875,415.558,-205.902,235.867,295.622,-299.106,-2123.200,420.290,-154.580
442,33600.795000,190.890,4.544,-15.530,239.451,312.595,-281.663,-1247.200,440.290,-178.580
443,33600.815000,352.678,98.462,13.526,239.457,324.719,-282.263,-367.200,466.290,-299.580
444,33600.851000,344.786,73.215,-48.595,242.133,331.078,-272.118,-750.200,273.290,-250.580
445,33600.891000,308.285,125.728,-79.656,247.451,340.016,-262.874,-641.200,238.290,-196.580
446,33600.931000,282.636,151.984,-76.650,243.943,346.202,-258.713,-244.200,182.290,-169.580
447,33600.971000,265.865,110.580,-131.757,249.233,353.150,-258.470,-164.200,181.290,-47.580
448,33601.11000,259.946,100.481,-118.732,251.896,353.349,-251.504,-124.200,231.290,78.420
449,33601.52000,232.324,93.412,-115.726,252.802,356.179,-243.466,-57.200,209.290,85.420
450,33601.72000,182.998,112.600,-115.726,255.447,351.029,-241.638,86.800,224.290,113.420
451,33601.117000,168.200,113.609,-109.714,257.212,340.727,-237.995,101.800,207.290,140.420
452,33601.152000,166.227,94.422,-117.730,257.215,344.199,-237.882,129.800,90.290,142.420
453,33601.192000,168.200,77.254,-132.759,262.496,341.571,-238.944,-29.200,-34.710,153.420
454,33601.232000,188.917,106.540,-109.714,264.257,337.260,-238.085,-120.200,-115.710,176.420
455,33601.272000,229.364,109.570,-82.661,263.367,339.751,-241.979,44.800,-210.710,185.420
456,33601.292000,254.027,97.452,-73.644,263.356,336.194,-245.073,152.800,-361.710,167.420
457,33601.333000,313.218,80.284,-39.577,256.276,330.700,-255.204,463.800,-609.710,57.420
458,33601.372000,342.813,66.146,14.528,244.770,323.268,-272.363,740.800,-859.710,-8.580
459,33601.413000,357.611,81.294,-1.503,227.065,302.587,-297.916,1152.800,-1034.710,-74.580
460,33601.451000,341.827,114.619,-17.534,215.558,293.420,-315.131,1213.800,-1427.710,48.420
461,33601.496000,285.595,120.679,-72.642,195.215,271.926,-338.732,928.800,-1207.710,396.420
462,33601.531000,161.295,158.043,-173.840,180.191,261.104,-353.033,715.800,-965.710,531.420
463,33601.555000,121.834,133.807,-116.728,174.981,282.524,-331.502,-2286.200,-437.710,193.420
464,33601.593000,109.996,0.505,-73.644,174.163,310.722,-315.695,-1811.200,251.290,374.420
465,33601.633000,95.198,54.028,-121.738,194.503,320.989,-290.472,-985.200,1136.290,691.420
466,33601.672000,91.252,81.294,-200.892,231.587,323.569,-261.473,-1067.200,1700.290,699.420
467,33601.712000,87.306,64.126,-232.955,273.976,325.482,-225.527,-1012.200,2023.290,786.420
468,33601.756000,92.239,74.225,-235.961,304.001,328.812,-200.498,-620.200,2143.290,832.420
469,33601.776000,117.888,117.649,-307.100,333.188,323.940,-158.857,-542.200,2030.290,597.420
470,33601.815000,163.268,112.600,-274.035,354.421,323.989,-127.012,-660.200,1504.290,228.420
471,33601.856000,190.890,95.432,-226.943,364.200,329.181,-97.022,-747.200,922.290,34.420
472,33601.892000,201.742,68.166,-167.828,367.759,327.813,-84.146,-261.200,767.290,-54.580
473,33601.932000,200.755,197.428,-139.773,365.157,325.630,-69.330,155.800,1104.290,-228.580
474,33601.973000,274.744,20.702,-67.632,365.204,331.261,-54.253,-150.200,693.290,-330.580
475,33602.15000,304.339,92.402,-56.611,362.598,340.249,-43.046,-317.200,626.290,-71.580
476,33602.40000,323.083,60.087,-6.513,362.676,334.989,-14.420,-424.200,898.290,130.420
477,33602.76000,258.960,60.087,19.538,361.825,333.563,-3.546,-350.200,765.290,96.420
478,33602.115000,238.243,65.136,13.526,364.493,336.394,4.498,-242.200,348.290,181.420
479,33602.155000,229.364,83.314,3.507,366.292,336.761,17.425,-113.200,314.290,30.420
480,33602.192000,238.243,85.333,27.554,363.661,329.984,23.154,-153.200,347.290,-48.580
481,33602.233000,257.973,66.146,-1.503,365.456,336.343,33.296,-409.200,260.290,-76.580
482,33602.253000,256.000,69.176,-0.501,361.074,336.565,41.233,-54.200,450.290,-65.580
483,33602.292000,228.378,87.353,32.564,358.448,332.421,48.041,-79.200,387.290,-49.580
484,33602.333000,233.310,68.166,37.573,357.585,338.637,53.205,48.800,326.290,-58.580
485,33602.373000,232.324,86.343,36.571,354.083,337.124,61.089,58.800,339.290,-50.580
486,33602.413000,235.283,92.402,16.532,351.447,338.046,63.096,54.800,323.290,39.420
487,33602.453000,246.135,82.304,32.564,353.223,339.056,68.100,134.800,351.290,144.420
488,33602.493000,229.364,93.412,40.579,354.113,332.254,72.847,121.800,350.290,141.420
489,33602.513000,228.378,82.304,59.616,352.353,330.545,73.779,46.800,186.290,97.420
490,33602.553000,229.364,79.274,64.626,352.356,331.441,74.801,-4.200,20.290,44.420
491,33602.593000,234.297,63.116,40.579,354.113,331.386,72.819,-130.200,-93.710,-47.580
492,33602.633000,245.148,76.245,36.571,354.128,332.395,77.816,-15.200,-67.710,-83.580
493,33602.673000,234.297,80.284,47.593,352.360,335.781,74.942,48.800,31.290,-83.580
494,33602.712000,228.378,89.373,35.569,350.596,336.619,73.970,-54.200,17.290,-25.580
495,33602.752000,241.202,87.353,47.593,354.125,336.678,75.969,10.800,256.290,173.420
496,33602.772000,233.310,77.254,34.568,355.018,334.216,80.857,15.800,252.290,171.420
497,33602.813000,240.216,81.294,50.599,355.039,331.837,88.724,20.800,305.290,183.420
498,33602.853000,228.378,65.136,56.611,355.043,329.289,90.627,4.800,354.290,188.420
499,33602.893000,242.189,67.156,49.597,355.069,326.099,100.454,-55.200,326.290,140.420
500,33602.933000,235.283,82.304,63.624,356.841,321.033,105.260,20.800,349.290,118.420
501,33602.972000,237.256,61.097,52.603,355.095,316.021,112.043,-27.200,370.290,106.420
502,33602.992000,233.310,74.225,69.636,355.996,323.975,117.269,-35.200,382.290,88.420
503,33603.37000,229.364,85.333,80.658,355.127,320.643,122.123,-126.200,356.290,138.420
504,33603.77000,232.324,68.166,69.636,351.638,318.402,134.948,-293.200,367.290,148.420
505,33603.117000,234.297,66.146,80.658,355.185,311.743,144.673,-366.200,353.290,181.420
506,33603.157000,230.351,72.205,72.642,353.448,307.683,154.466,-293.200,369.290,299.420
507,33603.197000,229.364,54.028,85.667,357.871,293.212,163.940,-342.200,347.290,375.420
508,33603.237000,242.189,49.988,72.642,358.771,284.786,172.607,-236.200,394.290,424.420
509,33603.268000,235.283,79.274,88.673,358.791,273.784,182.179,-348.200,442.290,415.420
510,33603.297000,230.351,109.570,99.695,359.709,267.263,196.866,-475.200,386.290,406.420
511,33603.337000,256.000,24.742,99.695,361.487,262.253,203.660,-288.200,348.290,488.420
512,33603.377000,252.054,32.821,119.734,365.021,252.877,209.325,-17.200,191.290,319.420
513,33603.416000,249.094,26.761,137.769,363.265,248.620,212.160,-361.200,-200.710,110.420
514,33603.456000,262.906,4.544,142.779,367.651,246.718,206.154,-274.200,-543.710,-12.580
515,33603.476000,242.189,90.383,103.703,374.664,242.074,195.103,-931.200,-1186.710,-293.580
516,33603.516000,205.688,-13.633,64.626,379.929,240.144,188.107,-1487.200,-1027.710,-288.580
517,33603.556000,190.890,-65.136,106.708,384.340,225.561,193.605,-1313.200,-561.710,-153.580
518,33603.596000,189.904,-46.959,109.714,384.338,219.513,194.402,-467.200,-279.710,-38.580
519,33603.636000,199.769,-56.047,103.703,385.198,218.448,187.419,-128.200,-136.710,40.420
520,33603.675000,215.553,-56.047,116.728,387.861,222.091,193.504,-31.200,14.290,98.420
521,33603.715000,214.566,-23.732,121.738,388.737,216.016,193.310,200.800,99.290,184.420
522,33603.735000,218.513,-40.899,129.753,390.511,216.998,197.319,221.800,269.290,235.420
523,33603.775000,215.553,-38.880,134.763,390.511,212.686,198.172,252.800,363.290,273.420
524,33603.814000,210.620,-21.712,105.706,387.884,214.561,203.190,145.800,426.290,259.420
525,33603.856000,201.742,4.544,60.618,388.793,214.843,213.132,256.800,438.290,202.420
526,33603.896000,194.836,56.047,9.519,386.150,218.285,212.242,644.800,151.290,-29.580
527,33603.936000,261.919,7.574,207.906,382.609,225.869,204.533,571.800,144.290,-157.580
528,33603.960000,231.337,77.254,96.689,385.252,225.871,204.541,157.800,-85.710,-256.580
529,33603.994000,278.690,-7.574,83.663,385.258,234.551,204.823,-338.200,-477.710,-541.580
530,33604.34000,273.757,34.840,70.638,384.345,241.128,192.125,-106.200,-686.710,-672.580
531,33604.73000,228.378,27.771,100.697,386.068,257.115,174.775,169.800,-789.710,-675.580
532,33604.115000,213.580,95.432,74.646,383.407,266.407,166.131,-224.200,-995.710,-851.580
533,33604.154000,287.568,34.840,16.532,379.835,281.437,145.755,232.800,-957.710,-778.580
534,33604.194000,252.054,70.185,11.523,378.021,295.572,124.362,279.800,-972.710,-690.580
535,33604.215000,249.094,78.264,19.538,380.613,301.955,104.717,217.800,-814.710,-466.580
536,33604.255000,263.892,74.225,10.521,376.178,306.821,92.945,328.800,-417.710,-277.580
537,33604.295000,238.243,76.245,9.519,377.927,316.173,86.303,382.800,-122.710,-161.580
538,33604.335000,241.202,66.146,26.552,377.038,321.268,82.494,349.800,14.290,-77.580
539,33604.376000,233.310,74.225,33.566,374.389,323.786,79.588,244.800,-43.710,-71.580
540,33604.416000,239.229,67.156,36.571,377.010,325.298,71.702,257.800,-122.710,-67.580
541,33604.436000,233.310,70.185,25.550,374.343,319.891,64.567,312.800,-210.710,-72.580
542,33604.475000,233.310,69.176,16.532,375.201,323.110,55.737,290.800,-312.710,-90.580
543,33604.518000,233.310,66.146,12.524,373.414,326.299,45.905,254.800,-418.710,-100.580
544,33604.563000,253.040,60.087,15.530,374.242,328.369,27.108,446.800,-569.710,-154.580
545,33604.598000,275.730,59.077,43.585,372.452,334.973,15.400,503.800,-835.710,-206.580
546,33604.638000,363.530,46.959,51.601,369.731,340.231,-13.234,342.800,-1058.710,-248.580
547,33604.678000,389.179,57.057,56.611,370.560,343.168,-32.003,712.800,-912.710,-136.580
548,33604.698000,226.405,135.826,-28.556,369.606,339.859,-56.939,601.800,-939.710,185.420
549,33604.737000,151.430,145.925,-128.751,366.926,331.735,-68.134,-22.200,-1154.710,-83.580
550,33604.777000,143.538,136.836,-139.773,365.134,335.736,-79.925,-139.200,-778.710,-167.580
551,33604.816000,79.414,34.840,-51.601,363.353,337.274,-86.832,61.800,-360.710,-15.580
552,33604.855000,56.724,41.909,-53.605,366.008,334.812,-81.939,-51.200,324.290,174.420
553,33604.895000,107.037,-1.515,-51.601,376.617,332.611,-68.074,67.800,898.290,493.420
554,33604.915000,209.634,248.931,-351.186,377.491,330.819,-70.115,-317.200,62.290,-83.580
555,33604.955000,233.310,141.886,-45.589,376.650,331.213,-56.204,-139.200,422.290,-110.580
556,33604.995000,373.395,56.047,-16.532,377.574,335.080,-42.173,-456.200,735.290,151.420
557,33605.35000,337.881,43.929,-4.509,384.652,319.883,-27.749,108.800,948.290,445.420
558,33605.75000,279.676,52.008,-52.603,387.343,322.940,-11.753,-166.200,1129.290,485.420
559,33605.115000,253.040,53.018,-60.618,396.225,314.187,15.795,23.800,1637.290,674.420
560,33605.158000,214.566,71.195,-130.755,398.040,301.788,37.244,229.800,1250.290,596.420
561,33605.176000,228.378,86.343,-210.912,399.801,297.477,38.103,1016.800,321.290,210.420
562,33605.216000,218.513,104.521,-231.953,391.811,297.720,16.240,1732.800,-730.710,-97.580
563,33605.260000,270.798,132.797,-185.863,380.170,299.296,-50.277,2538.800,-1550.710,-404.580
564,33605.295000,306.312,138.856,-146.787,351.762,295.399,-125.962,2209.800,-2371.710,-567.580
565,33605.338000,270.798,106.540,-93.683,321.630,291.867,-188.731,1561.800,-2625.710,-561.580
566,33605.378000,262.906,89.373,-69.636,288.007,288.670,-239.585,1055.800,-2482.710,-645.580
567,33605.397000,246.135,71.195,-42.583,260.634,290.606,-262.449,969.800,-1848.710,-554.580
568,33605.436000,218.513,92.402,-20.540,237.662,290.781,-286.349,658.800,-1503.710,-457.580
569,33605.477000,204.701,38.880,17.534,220.866,285.894,-305.428,373.800,-980.710,-323.580
570,33605.516000,172.146,21.712,78.654,221.739,285.810,-308.407,348.800,73.290,30.420
571,33605.555000,144.524,100.481,-40.579,230.545,281.476,-308.519,-237.200,481.290,101.420
572,33605.596000,137.618,129.767,-188.869,239.440,297.839,-282.142,-1393.200,649.290,-209.580
573,33605.636000,195.823,115.629,-128.751,244.806,318.455,-258.617,-1106.200,548.290,-289.580
574,33605.656000,266.852,27.771,-90.677,253.665,336.187,-245.104,-773.200,723.290,-169.580
575,33605.700000,285.595,124.718,-44.587,266.901,338.130,-238.048,-182.200,1005.290,-145.580
576,33605.741000,247.121,115.629,-58.614,276.645,346.428,-220.867,-178.200,995.290,-137.580
577,33605.776000,240.216,132.797,-73.644,286.397,352.207,-200.788,-494.200,851.290,-130.580
578,33605.816000,218.513,148.955,-90.677,297.014,356.977,-185.705,-437.200,960.290,69.420
579,33605.856000,429.626,34.840,-33.566,314.670,353.912,-171.846,-303.200,1537.290,216.420
580,33605.882000,190.890,104.521,-36.571,320.925,362.545,-142.749,-581.200,813.290,76.420
581,33605.920000,220.486,87.353,-40.579,326.210,360.813,-142.788,189.800,274.290,100.420
582,33605.960000,221.472,84.323,-42.583,327.093,359.974,-141.819,73.800,54.290,-2.580
583,33606.0,214.566,106.540,-57.613,322.689,358.263,-140.896,33.800,3.290,1.420
584,33606.38000,231.337,90.383,-47.593,321.811,357.422,-139.933,-41.200,-64.710,-50.580
585,33606.77000,231.337,95.432,-42.583,320.909,355.489,-146.950,101.800,-263.710,-90.580
586,33606.118000,236.270,95.432,-67.632,315.590,353.439,-157.956,224.800,-513.710,-103.580
587,33606.137000,247.121,85.333,-74.646,308.491,352.927,-175.869,409.800,-705.710,-57.580
588,33606.178000,263.892,91.393,-70.638,306.708,354.436,-183.770,447.800,-746.710,9.420
589,33606.220000,238.243,128.757,-68.634,293.447,352.240,-199.772,95.800,-846.710,31.420
590,33606.260000,262.906,113.609,-72.642,289.004,345.823,-211.910,45.800,-722.710,162.420
591,33606.300000,269.811,98.462,-53.605,278.405,343.825,-220.946,99.800,-785.710,197.420
592,33606.340000,268.825,84.323,-52.603,275.734,332.342,-228.278,108.800,-977.710,168.420
593,33606.360000,288.555,109.570,0.501,256.298,326.613,-246.400,586.800,-1133.710,-21.580
594,33606.400000,312.231,113.609,30.560,238.578,308.367,-277.831,1326.800,-1253.710,-157.580
595,33606.440000,293.487,170.162,-33.566,206.756,292.630,-312.206,1226.800,-1631.710,-130.580
596,33606.480000,208.647,152.994,-101.699,175.841,280.591,-338.513,460.800,-1651.710,-14.580
597,33606.518000,138.605,115.629,-173.840,161.741,286.573,-341.343,-373.200,-1101.710,79.420
598,33606.560000,128.740,32.821,-79.656,152.089,303.311,-331.894,-1301.200,-90.710,196.420
599,33606.600000,107.037,26.761,-56.611,168.908,324.803,-308.304,-1634.200,859.290,505.420
600,33606.620000,97.171,34.840,-141.777,202.511,340.738,-266.966,-1926.200,1491.290,610.420
601,33606.659000,120.848,35.850,-184.861,234.310,347.626,-238.837,-1120.200,2272.290,981.420
602,33606.698000,138.605,72.205,-252.994,284.647,345.430,-195.056,-475.200,2605.290,1056.420
603,33606.738000,136.632,134.817,-293.072,323.500,335.160,-160.510,-44.200,2424.290,829.420
604,33606.778000,165.241,147.945,-332.149,344.755,338.878,-121.594,-981.200,1359.290,307.420
605,33606.816000,187.931,112.600,-230.951,352.737,337.683,-102.741,-812.200,715.290,124.420
606,33606.836000,189.904,93.412,-161.816,353.665,336.427,-85.898,-380.200,513.290,19.420
607,33606.881000,242.189,48.978,-124.744,350.157,339.169,-80.855,-84.200,150.290,-218.580
608,33606.919000,214.566,54.028,-33.566,346.649,341.911,-75.812,231.800,567.290,-188.580
609,33606.958000,263.892,102.501,-57.613,346.669,342.109,-68.855,-287.200,534.290,-134.580
610,33606.998000,250.081,75.235,-29.558,351.996,344.243,-54.867,-118.200,667.290,-10.580
611,33607.38000,288.555,103.511,26.552,350.279,350.712,-40.760,-342.200,664.290,7.420
612,33607.78000,235.283,94.422,12.524,351.190,353.598,-30.734,-161.200,448.290,-5.580
613,33607.98000,225.418,107.550,8.517,347.692,353.849,-21.800,-196.200,159.290,2.420
614,33607.140000,244.162,101.491,-22.544,348.565,347.746,-22.988,-219.200,122.290,73.420
615,33607.180000,237.256,81.294,-0.501,349.465,346.207,-16.084,-152.200,152.290,109.420
616,33607.219000,235.283,93.412,7.515,352.997,342.851,-12.210,-201.200,51.290,79.420
617,33607.260000,235.283,80.284,-8.517,353.017,346.492,-6.134,-170.200,23.290,94.420
618,33607.300000,232.324,89.373,-18.536,353.909,346.605,-2.155,-177.200,121.290,85.420
619,33607.320000,246.135,74.225,1.503,353.037,346.689,0.823,-96.200,167.290,26.420
620,33607.359000,243.175,88.363,8.517,351.285,345.064,4.737,-21.200,150.290,0.420
621,33607.400000,242.189,91.393,18.536,351.290,344.253,6.697,111.800,134.290,23.420
622,33607.440000,235.283,81.294,15.530,354.803,337.255,4.495,23.800,36.290,52.420
623,33607.480000,222.459,78.264,-4.509,355.684,340.699,3.617,186.800,121.290,-3.580
624,33607.518000,227.391,81.294,10.521,352.168,347.669,4.824,57.800,99.290,-62.580
625,33607.557000,247.121,94.422,-19.538,354.819,346.887,7.787,-148.200,150.290,-18.580
626,33607.580000,230.351,111.590,7.515,355.729,344.594,18.638,-65.200,353.290,79.420
627,33607.620000,252.054,80.284,6.513,356.624,340.423,24.463,-162.200,444.290,191.420
628,33607.660000,239.229,75.235,15.530,357.531,326.034,36.908,-106.200,494.290,199.420
629,33607.700000,229.364,81.294,18.536,358.444,331.525,47.019,-177.200,470.290,180.420
630,33607.740000,241.202,66.146,10.521,362.881,324.950,59.729,-139.200,542.290,146.420
631,33607.780000,226.405,89.373,26.552,362.908,331.251,67.878,-222.200,576.290,173.420
632,33607.800000,225.418,83.314,82.661,362.065,325.597,82.586,-502.200,441.290,203.420
633,33607.838000,249.094,61.097,42.583,362.984,319.944,97.301,-450.200,348.290,242.420
634,33607.878000,252.054,67.156,56.611,363.898,314.235,110.027,-214.200,565.290,366.420
635,33607.918000,239.229,55.037,65.628,367.441,302.367,119.583,-311.200,534.290,424.420
636,33607.958000,233.310,62.107,64.626,368.353,294.922,132.254,-185.200,567.290,469.420
637,33607.998000,231.337,68.166,80.658,372.786,279.696,145.676,-326.200,434.290,444.420
638,33608.38000,241.202,59.077,83.663,375.453,270.460,156.307,-457.200,312.290,470.420
639,33608.58000,256.987,52.008,66.630,378.978,260.999,158.991,-249.200,180.290,558.420
640,33608.97000,263.892,69.176,73.644,383.382,251.510,160.683,66.800,155.290,516.420
641,33608.141000,259.946,42.919,84.665,386.914,242.974,165.382,158.800,84.290,416.420
642,33608.181000,256.987,15.653,101.699,390.433,244.656,163.462,97.800,-120.710,69.420
643,33608.221000,202.728,32.821,53.605,393.937,245.329,156.544,-120.200,-495.710,-85.580
644,33608.261000,215.553,-1.515,85.667,394.808,239.198,154.362,-1331.200,-821.710,-87.580
645,33608.281000,229.364,-18.682,96.689,400.984,235.843,158.245,-1290.200,-401.710,-19.580
646,33608.321000,221.472,-81.294,106.708,401.008,230.049,167.987,-471.200,111.290,147.420
647,33608.361000,220.486,-31.811,115.726,400.135,230.132,170.966,324.800,378.290,244.420
648,33608.404000,215.553,-23.732,120.736,399.265,225.933,175.791,255.800,276.290,214.420
649,33608.440000,201.742,-27.771,120.736,399.277,218.290,181.501,47.800,259.290,208.420
650,33608.481000,195.823,-15.653,99.695,401.940,211.601,190.230,-241.200,422.290,224.420
651,33608.522000,207.661,8.584,59.616,396.676,210.955,198.136,9.800,428.290,147.420
652,33608.542000,198.782,36.860,48.595,396.686,209.331,202.055,264.800,250.290,11.420
653,33608.581000,255.013,66.146,98.693,395.797,221.314,196.483,402.800,23.290,-263.580
654,33608.621000,273.757,-20.702,125.746,392.273,228.199,194.709,365.800,87.290,-273.580
655,33608.661000,245.148,-0.505,80.658,392.267,235.898,190.987,21.800,-227.710,-363.580
656,33608.701000,269.811,20.702,86.669,390.492,236.624,186.040,38.800,-503.710,-629.580
657,33608.741000,242.189,13.633,99.695,390.468,254.486,173.711,-209.200,-662.710,-689.580
658,33608.761000,224.432,137.846,77.652,388.694,264.703,167.086,80.800,-585.710,-862.580
659,33608.801000,313.218,21.712,15.530,388.646,276.292,147.602,224.800,-763.710,-602.580
660,33608.841000,259.946,78.264,36.571,387.723,287.936,130.103,220.800,-878.710,-597.580
661,33608.881000,241.202,59.077,51.601,385.925,303.948,113.736,219.800,-872.710,-466.580
662,33608.921000,248.108,65.136,29.558,385.888,310.469,99.053,247.800,-719.710,-334.580
663,33608.961000,246.135,65.136,14.528,382.328,315.280,85.295,289.800,-513.710,-259.580
664,33608.981000,240.216,70.185,-5.511,384.939,317.548,73.461,286.800,-315.710,-186.580
665,33609.21000,249.094,73.215,20.540,382.281,317.406,68.483,211.800,-127.710,-94.580
666,33609.60000,242.189,76.245,19.538,381.399,322.557,66.662,149.800,-92.710,-62.580
667,33609.99000,242.189,74.225,26.552,381.383,319.812,61.608,151.800,-70.710,-33.580
668,33609.146000,236.270,63.116,14.528,384.012,317.097,57.556,172.800,-137.710,-27.580
669,33609.181000,227.391,50.998,14.528,381.351,327.258,48.940,238.800,-241.710,-49.580
670,33609.220000,260.933,66.146,25.550,383.089,325.298,40.938,332.800,-412.710,-88.580
671,33609.241000,262.906,97.452,47.593,382.157,324.790,23.045,388.800,-569.710,-90.580
672,33609.281000,296.447,73.215,54.607,383.869,326.020,5.217,320.800,-762.710,-70.580
673,33609.322000,383.260,65.136,56.611,380.310,327.387,-7.659,92.800,-1005.710,-143.580
674,33609.362000,354.651,66.146,63.624,385.544,326.016,-25.561,141.800,-951.710,196.420
675,33609.398000,199.769,167.132,-149.793,386.376,325.538,-42.455,143.800,-1162.710,-2.580
676,33609.438000,159.322,114.619,-210.912,377.521,332.837,-60.120,61.800,-1132.710,-355.580
677,33609.458000,104.077,68.166,-113.722,370.432,341.901,-76.729,239.800,-794.710,-362.580
678,33609.503000,75.468,12.623,-64.626,369.526,330.447,-83.062,324.800,-355.710,-198.580
679,33609.543000,74.482,5.554,-24.548,368.620,335.373,-92.835,471.800,242.290,177.420
680,33609.583000,75.468,129.767,-239.969,377.447,323.480,-84.256,186.800,753.290,494.420
681,33609.623000,148.470,362.036,-411.303,377.474,329.782,-76.107,-901.200,-61.710,-187.580
682,33609.661000,280.663,5.554,-41.581,378.381,334.348,-68.012,396.800,765.290,187.420
683,33609.702000,294.474,38.880,-78.654,381.048,325.980,-57.352,284.800,1029.290,374.420
684,33609.722000,256.987,99.471,-69.636,388.168,319.801,-30.719,-44.200,1617.290,532.420
685,33609.761000,276.717,108.560,-247.984,389.983,316.026,-10.976,-204.200,934.290,242.420
686,33609.803000,246.135,84.323,-200.892,386.422,307.902,-22.174,1285.800,81.290,72.420
687,33609.843000,231.337,143.905,-234.959,375.738,307.635,-61.936,2230.800,-850.710,-382.580
688,33609.883000,278.690,130.777,-194.881,345.580,308.161,-134.504,2674.800,-2008.710,-694.580
689,33609.923000,277.703,107.550,-125.746,312.796,301.098,-199.383,2013.800,-2483.710,-682.580
690,33609.942000,255.013,64.126,-94.685,280.084,296.476,-239.357,1507.800,-2450.710,-666.580
691,33609.981000,217.526,52.008,-59.616,246.484,284.881,-280.554,1214.800,-1893.710,-514.580
692,33610.21000,201.742,67.156,-55.609,220.853,276.289,-307.726,829.800,-1476.710,-323.580
693,33610.61000,175.106,60.087,-29.558,210.248,280.256,-320.540,425.800,-937.710,-58.580
694,33610.100000,156.362,15.653,74.646,212.877,272.361,-323.767,12.800,41.290,178.420
695,33610.142000,141.565,161.073,-95.687,226.123,277.860,-313.616,-254.200,749.290,346.420
696,33610.183000,247.121,125.728,-151.796,240.296,298.454,-291.056,-1358.200,491.290,-140.580
697,33610.211000,200.755,151.984,-67.632,246.545,321.675,-267.444,-1515.200,672.290,-421.580
698,33610.243000,277.703,98.462,-5.511,255.413,339.492,-250.950,-845.200,685.290,-369.580
699,33610.283000,298.420,74.225,-67.632,263.358,338.798,-244.989,89.800,987.290,-306.580
700,33610.323000,267.838,89.373,-107.710,273.972,347.852,-231.752,-311.200,730.290,-147.580
701,33610.363000,294.474,115.629,-102.701,281.066,356.064,-217.561,-417.200,788.290,-130.580
702,33610.403000,262.906,136.836,-90.677,293.439,356.467,-203.606,-195.200,906.290,65.420
703,33610.423000,256.987,118.659,-86.669,301.395,355.887,-193.670,4.800,936.290,296.420
704,33610.463000,249.094,91.393,-62.622,315.557,353.969,-169.855,-303.200,1479.290,460.420
705,33610.503000,188.917,84.323,-38.575,332.340,346.676,-152.164,-152.200,605.290,329.420
706,33610.543000,227.391,74.225,-39.577,338.519,347.661,-148.140,-29.200,292.290,124.420
707,33610.583000,238.243,78.264,-15.530,339.396,345.898,-149.188,26.800,101.290,3.420
708,33610.622000,240.216,86.343,-24.548,337.641,351.133,-148.030,-19.200,-226.710,-84.580
709,33610.663000,227.391,86.343,-45.589,331.447,353.450,-157.905,29.800,-445.710,-126.580
710,33610.683000,228.378,104.521,-54.607,325.257,355.796,-166.785,40.800,-697.710,-86.580
711,33610.723000,250.081,88.363,-75.648,314.638,348.422,-181.954,132.800,-1010.710,-54.580
712,33610.763000,310.258,86.343,-77.652,304.906,353.172,-197.719,66.800,-1292.710,-102.580
713,33610.805000,315.191,90.383,-88.673,290.767,351.872,-212.701,72.800,-1178.710,-23.580
714,33610.841000,306.312,94.422,-56.611,276.622,341.023,-227.993,106.800,-1024.710,45.420
715,33610.881000,295.461,99.471,-13.526,258.075,335.379,-243.131,407.800,-1046.710,-28.580
716,33610.901000,298.420,102.501,26.552,245.684,330.495,-262.196,964.800,-1072.710,-71.580
717,33610.965000,265.865,140.876,-52.603,223.567,310.594,-290.716,1368.800,-1406.710,-72.580
718,33610.983000,239.229,147.945,-70.638,197.925,294.135,-320.129,922.800,-1403.710,6.420
719,33611.23000,155.376,144.915,-137.769,174.979,287.676,-333.321,27.800,-1128.710,-8.580
720,33611.63000,122.821,112.600,-112.720,164.405,284.196,-333.468,-774.200,-535.710,14.420
721,33611.102000,103.091,9.594,-49.597,167.105,303.716,-317.931,-1337.200,274.290,76.420
722,33611.141000,92.239,57.057,-110.716,184.816,321.878,-289.481,-1330.200,1340.290,341.420
723,33611.163000,97.171,22.722,-115.726,221.049,338.542,-253.076,-1473.200,2005.290,591.420
724,33611.203000,145.511,8.584,-163.820,270.495,333.657,-212.364,-855.200,2660.290,1018.420
725,33611.243000,198.782,86.343,-199.890,307.597,334.698,-176.464,-416.200,3158.290,1237.420
726,33611.282000,240.216,183.290,-249.988,349.163,326.842,-117.999,-1143.200,2722.290,812.420
727,33611.322000,228.378,155.014,-287.061,362.556,324.315,-54.487,-1693.200,1913.290,378.420
728,33611.362000,225.418,150.974,-243.977,370.578,325.250,-21.662,-1118.200,837.290,143.420
729,33611.382000,180.039,170.162,-273.033,373.254,324.722,-9.754,-742.200,166.290,-353.580
730,33611.424000,259.946,10.604,113.722,367.985,328.331,-4.689,375.800,598.290,-141.580
731,33611.465000,309.272,32.821,-59.616,367.125,333.707,1.440,-626.200,-215.710,-253.580
732,33611.505000,216.540,115.629,11.523,364.487,339.781,1.629,-194.200,3.290,-244.580
733,33611.544000,204.701,132.797,-6.513,359.223,341.711,8.626,-507.200,-23.710,-162.580
734,33611.585000,266.852,76.245,7.515,357.478,342.746,14.612,-263.200,160.290,37.420
735,33611.624000,254.027,80.284,9.519,357.496,339.472,21.456,-285.200,177.290,1.420
736,33611.644000,242.189,80.284,11.523,355.762,336.308,32.271,-15.200,331.290,8.420
737,33611.681000,228.378,77.254,32.564,354.004,340.647,32.406,38.800,191.290,-55.580
738,33611.721000,230.351,85.333,26.552,355.761,341.460,30.452,86.800,-11.710,-76.580
739,33611.761000,239.229,85.333,9.519,354.886,346.695,31.612,6.800,-89.710,-117.580
740,33611.801000,236.270,74.225,1.503,350.468,343.107,27.510,19.800,-38.710,-122.580
741,33611.842000,246.135,81.294,3.507,346.949,345.737,28.577,54.800,-11.710,-119.580
742,33611.862000,238.243,100.481,-3.507,346.063,346.548,26.614,193.800,131.290,-6.580
743,33611.901000,237.256,109.570,14.528,345.181,345.679,26.583,98.800,241.290,57.420
744,33611.942000,231.337,95.432,21.542,351.375,345.098,36.514,-151.200,154.290,120.420
745,33611.982000,237.256,80.284,18.536,351.380,343.418,38.446,-109.200,221.290,142.420
746,33612.22000,237.256,88.363,8.517,354.043,343.617,45.412,-130.200,392.290,175.420
747,33612.62000,242.189,86.343,17.534,356.714,340.457,56.241,-179.200,485.290,230.420
748,33612.102000,243.175,81.294,21.542,357.626,336.455,68.029,-152.200,500.290,280.420
749,33612.126000,248.108,79.274,21.542,359.419,328.143,80.674,-131.200,649.290,357.420
750,33612.165000,233.310,68.166,27.554,359.442,321.481,90.388,-188.200,703.290,370.420
751,33612.205000,243.175,74.225,34.568,365.652,311.576,107.961,-268.200,773.290,339.420
752,33612.253000,239.229,41.909,69.636,362.175,306.005,125.642,-80.200,726.290,308.420
753,33612.286000,222.459,66.146,94.685,360.436,306.229,133.588,-88.200,520.290,216.420
754,33612.326000,231.337,66.146,87.671,360.464,302.199,144.380,-189.200,332.290,238.420
755,33612.346000,222.459,70.185,79.656,361.359,298.896,150.234,-125.200,336.290,317.420
756,33612.386000,219.499,61.097,98.693,365.787,292.237,159.962,-136.200,325.290,345.420
757,33612.425000,241.202,57.057,74.646,364.915,276.810,166.409,-537.200,295.290,308.420
758,33612.465000,250.081,65.136,62.622,365.834,267.713,182.005,-555.200,385.290,374.420
759,33612.504000,263.892,66.146,72.642,368.495,260.996,189.740,-259.200,445.290,496.420
760,33612.545000,278.690,43.929,75.648,370.278,251.731,199.375,19.800,424.290,565.420
761,33612.585000,254.027,34.840,117.730,372.046,248.345,202.249,196.800,280.290,377.420
762,33612.605000,235.283,-4.544,140.775,371.166,242.325,204.037,-150.200,-58.710,177.420
763,33612.645000,230.351,7.574,99.695,372.042,235.381,203.815,-233.200,-201.710,157.420
764,33612.685000,212.593,17.673,55.609,377.326,230.205,204.657,-704.200,-273.710,66.420
765,33612.725000,204.701,22.722,61.620,379.960,224.943,202.508,-445.200,-356.710,-98.580
766,33612.763000,204.701,-61.097,125.746,382.595,225.728,199.563,3.800,-226.710,-16.580
767,33612.803000,195.823,-34.840,138.771,382.580,232.475,192.831,260.800,-172.710,-13.580
768,33612.822000,209.634,-43.929,143.781,381.697,233.314,191.863,-163.200,-172.710,24.420
769,33612.862000,205.688,-41.909,133.761,384.340,226.429,193.634,-259.200,-54.710,107.420
770,33612.902000,205.688,-33.830,136.767,386.110,217.891,198.327,-106.200,143.290,165.420
771,33612.946000,201.742,-7.574,97.691,383.485,218.926,204.310,122.800,359.290,185.420
772,33612.986000,194.836,7.574,80.658,384.366,215.483,205.194,210.800,366.290,157.420
773,33613.26000,196.809,33.830,25.550,381.741,213.074,212.059,58.800,177.290,47.420
774,33613.66000,198.782,63.116,-33.566,383.495,225.058,206.495,81.800,-178.710,-153.580
775,33613.86000,324.069,-61.097,327.139,379.979,227.716,208.556,562.800,522.290,-65.580
776,33613.126000,270.798,28.781,98.693,377.329,237.121,203.888,953.800,356.290,-4.580
777,33613.165000,228.378,20.702,156.806,376.435,249.915,196.356,419.800,-382.710,-342.580
778,33613.205000,229.364,31.811,105.706,374.651,258.312,186.693,50.800,-805.710,-564.580
779,33613.243000,234.297,40.899,90.677,380.758,266.349,164.135,135.800,-769.710,-538.580
780,33613.282000,237.256,174.201,52.603,375.453,269.592,156.279,205.800,-482.710,-428.580
781,33613.302000,293.487,83.314,22.544,375.443,283.282,149.772,-360.200,-539.710,-433.580
782,33613.343000,250.081,59.077,56.611,373.656,288.207,139.997,398.800,-241.710,-273.580
783,33613.383000,211.607,63.116,107.710,374.519,294.059,132.245,-0.200,-375.710,-274.580
784,33613.423000,264.879,48.978,24.548,371.848,298.087,121.445,108.800,-447.710,-241.580
785,33613.463000,235.283,65.136,58.614,374.489,298.929,120.487,221.800,-336.710,-186.580
786,33613.527000,228.378,63.116,65.628,370.050,302.899,107.693,137.800,-409.710,-185.580
787,33613.546000,243.175,62.107,44.587,372.667,305.224,97.847,154.800,-437.710,-141.580
788,33613.567000,239.229,64.126,53.605,373.522,309.283,88.051,290.800,-360.710,-113.580
789,33613.603000,237.256,64.126,53.605,372.622,316.840,79.357,273.800,-409.710,-94.580
790,33613.643000,238.243,63.116,37.573,376.997,322.582,67.641,229.800,-507.710,-112.580
791,33613.683000,238.243,61.097,36.571,376.077,323.923,53.780,320.800,-618.710,-117.580
792,33613.723000,236.270,66.146,58.614,375.123,319.746,28.817,346.800,-815.710,-162.580
793,33613.763000,248.108,64.126,57.613,375.081,324.503,13.083,196.800,-1124.710,-260.580
794,33613.803000,304.339,57.057,10.521,371.499,329.089,-8.625,172.800,-1200.710,-330.580
795,33613.823000,338.867,61.097,16.532,370.545,333.536,-35.295,525.800,-968.710,-250.580
796,33613.863000,346.759,91.393,36.571,366.964,340.725,-56.919,595.800,-974.710,-148.580
797,33613.907000,316.177,105.531,19.538,368.686,336.020,-69.975,185.800,-707.710,315.420
798,33613.948000,150.443,191.369,-145.785,369.533,335.683,-81.899,171.800,-812.710,-69.580
799,33613.984000,120.848,116.639,-174.841,362.454,339.680,-93.708,77.800,-628.710,-237.580
800,33614.26000,90.266,43.929,-62.622,357.163,340.488,-95.685,-159.200,-448.710,-211.580
801,33614.46000,73.495,-5.554,-42.583,357.149,336.035,-99.801,81.800,-22.710,-84.580
802,33614.86000,81.387,7.574,-67.632,361.547,342.002,-103.565,569.800,554.290,95.420
803,33614.124000,241.202,146.935,-249.988,358.931,344.857,-94.544,-906.200,-88.710,-259.580
804,33614.164000,321.110,42.919,-60.618,356.320,346.033,-83.592,-250.200,416.290,102.420
805,33614.203000,290.528,59.077,-65.628,364.285,341.225,-69.820,-259.200,675.290,350.420
806,33614.243000,249.094,91.393,-63.624,366.960,334.649,-57.116,-95.200,1272.290,409.420
807,33614.288000,217.526,76.245,-95.687,377.604,322.454,-28.681,-227.200,1307.290,538.420
808,33614.303000,204.701,79.274,-242.975,381.173,315.152,-11.033,74.800,624.290,433.420
809,33614.343000,227.391,99.471,-238.967,371.428,313.741,-29.976,1222.800,-215.710,75.420
810,33614.383000,258.960,129.767,-274.035,366.908,317.763,-71.566,2432.800,-1316.710,-400.580
811,33614.423000,274.744,128.757,-186.865,339.380,309.555,-146.395,2457.800,-2485.710,-556.580
812,33614.468000,275.730,104.521,-144.783,300.427,302.459,-212.287,1790.800,-2703.710,-622.580
813,33614.504000,247.121,67.156,-81.659,263.261,288.731,-267.466,1682.800,-2380.710,-566.580
814,33614.525000,220.486,70.185,-41.581,235.827,272.828,-307.790,1657.800,-1469.710,-341.580
815,33614.564000,185.958,98.462,-21.542,226.081,259.351,-324.146,1190.800,-968.710,-187.580
816,33614.607000,173.133,80.284,20.540,217.236,252.090,-335.333,322.800,-507.710,-68.580
817,33614.647000,169.187,73.215,59.616,224.312,256.689,-326.224,-593.200,209.290,218.420
818,33614.687000,170.173,98.462,104.704,242.009,282.465,-304.479,-1282.200,838.290,215.420
819,33614.727000,261.919,197.428,-262.012,250.852,293.141,-295.167,-997.200,580.290,-119.580
820,33614.767000,261.919,6.564,-13.526,264.137,308.498,-273.773,-290.200,1315.290,-696.580
821,33614.786000,327.029,64.126,-63.624,275.639,318.477,-258.518,-90.200,1104.290,-385.580
822,33614.830000,273.757,98.462,-69.636,295.943,318.047,-243.572,-176.200,1255.290,-110.580
823,33614.864000,220.486,172.181,-44.587,304.800,328.863,-229.290,-817.200,931.290,10.420
824,33614.904000,252.054,139.866,-72.642,315.451,336.547,-203.189,-646.200,1032.290,158.420
825,33614.944000,349.719,-11.613,-74.646,334.020,342.417,-180.100,-498.200,940.290,187.420
826,33614.988000,204.701,101.491,-10.521,342.003,343.826,-161.162,-597.200,408.290,112.420
827,33615.4000,235.283,71.195,-28.556,342.006,340.410,-159.287,33.800,231.290,73.420
828,33615.47000,234.297,77.254,-32.564,343.771,340.439,-158.288,-84.200,-32.710,-2.580
829,33615.88000,231.337,80.284,-63.624,341.126,341.277,-159.262,-50.200,-74.710,10.420
830,33615.128000,230.351,82.304,-49.597,341.129,341.306,-158.268,-97.200,-155.710,-8.580
831,33615.168000,235.283,82.304,-52.603,337.603,345.587,-160.126,-0.200,-233.710,-22.580
832,33615.208000,235.283,83.314,-42.583,337.593,347.210,-164.046,94.800,-290.710,-15.580
833,33615.248000,234.297,92.402,-53.605,336.682,345.192,-174.044,149.800,-431.710,-44.580
834,33615.268000,237.256,89.373,-30.560,326.954,344.818,-186.996,85.800,-977.710,-123.580
835,33615.308000,254.027,95.432,-65.628,309.280,345.978,-206.875,-82.200,-1388.710,-177.580
836,33615.344000,309.272,101.491,-77.652,297.793,345.632,-218.839,48.800,-1357.710,-112.580
837,33615.384000,298.420,104.521,-87.671,279.238,339.903,-236.958,38.800,-1311.710,-73.580
838,33615.428000,282.636,98.462,-75.648,258.935,336.890,-251.023,66.800,-1204.710,-52.580
839,33615.468000,276.717,96.442,-37.573,242.146,332.927,-268.086,379.800,-1045.710,-31.580
840,33615.488000,312.231,88.363,32.564,226.241,322.973,-282.362,1284.800,-1012.710,-1.580
841,33615.528000,292.501,114.619,-53.605,207.633,294.311,-314.134,1736.800,-1109.710,112.420
842,33615.568000,219.499,144.915,-138.771,189.029,261.392,-343.066,1370.800,-1018.710,270.420
843,33615.608000,154.389,121.688,-196.885,172.230,246.985,-361.461,353.800,-870.710,269.420
844,33615.644000,109.010,190.359,-107.710,164.367,275.206,-344.683,-2074.200,-676.710,92.420
845,33615.684000,93.225,-7.574,-71.640,168.858,307.945,-321.760,-2504.200,148.290,34.420
846,33615.727000,61.657,14.643,-122.740,191.862,327.035,-291.277,-1128.200,1464.290,450.420
847,33615.747000,71.522,44.939,-195.883,230.717,334.012,-260.143,-859.200,2054.290,646.420
848,33615.785000,133.672,72.205,-206.904,276.628,330.748,-223.362,-475.200,2346.290,902.420
849,33615.825000,156.362,103.511,-230.951,297.843,325.448,-196.655,-771.200,2313.290,861.420
850,33615.865000,206.674,137.846,-235.961,329.696,325.983,-147.879,-1343.200,1955.290,612.420
851,33615.904000,226.405,117.649,-251.992,350.976,327.351,-100.103,-1244.200,1247.290,280.420
852,33615.949000,208.647,125.728,-210.912,361.613,325.430,-76.299,-404.200,787.290,114.420
853,33615.966000,204.701,78.264,-145.785,360.746,335.902,-73.976,135.800,379.290,-110.580
854,33616.10000,208.647,149.964,-109.714,360.747,337.638,-73.920,-554.200,138.290,-302.580
855,33616.49000,270.798,97.452,-0.501,355.491,339.652,-63.941,-290.200,330.290,-179.580
856,33616.91000,295.461,27.771,-27.554,354.652,346.093,-50.826,-365.200,171.290,-212.580
857,33616.127000,257.973,68.166,-60.618,353.765,342.592,-51.936,-379.200,-10.710,-52.580
858,33616.167000,242.189,81.294,-56.611,350.272,345.476,-41.923,-569.200,145.290,-153.580
859,33616.207000,229.364,96.442,-17.534,352.066,347.523,-30.928,-107.200,450.290,-42.580
860,33616.226000,233.310,103.511,-3.507,349.453,346.095,-20.060,-263.200,424.290,0.420
861,33616.267000,243.175,90.383,4.509,352.131,343.859,-7.215,-229.200,368.290,56.420
862,33616.307000,246.135,83.314,2.505,353.025,350.020,-4.033,-85.200,368.290,69.420
863,33616.348000,233.310,90.383,16.532,353.040,351.029,0.964,16.800,292.290,52.420
864,33616.389000,225.418,87.353,24.548,350.405,349.375,3.881,21.800,135.290,12.420
865,33616.428000,237.256,76.245,16.532,350.406,351.111,3.938,30.800,1.290,-70.580
866,33616.448000,234.297,86.343,0.501,350.407,348.536,4.847,46.800,-79.710,-147.580
867,33616.488000,238.243,98.462,-15.530,348.636,351.894,0.978,80.800,-13.710,-114.580
868,33616.526000,228.378,104.521,-3.507,348.640,353.658,2.028,166.800,121.290,-49.580
869,33616.568000,233.310,95.432,-5.511,345.998,354.524,2.048,36.800,167.290,54.420
870,33616.609000,231.337,99.471,9.519,346.884,349.401,4.864,33.800,231.290,80.420
871,33616.649000,232.324,109.570,4.509,347.782,349.571,10.830,-106.200,246.290,140.420
872,33616.689000,237.256,88.363,12.524,350.438,345.402,16.661,-86.200,307.290,225.420
873,33616.709000,244.162,83.314,18.536,355.739,338.659,23.410,-230.200,208.290,204.420
874,33616.749000,235.283,82.304,9.519,356.645,342.357,31.477,-201.200,212.290,188.420
875,33616.786000,232.324,88.363,12.524,360.186,339.084,38.333,-240.200,228.290,222.420
876,33616.826000,243.175,70.185,14.528,360.202,334.074,45.122,-283.200,253.290,205.420
877,33616.866000,236.270,86.343,24.548,361.992,330.045,55.920,-203.200,335.290,211.420
878,33616.906000,244.162,78.264,21.542,367.301,326.830,64.769,-287.200,358.290,262.420
879,33616.927000,240.216,68.166,24.548,369.079,314.065,73.298,-359.200,417.290,325.420
880,33616.968000,235.283,74.225,33.566,374.409,305.028,90.895,-311.200,581.290,384.420
881,33617.8000,253.040,66.146,28.556,372.679,298.449,103.585,-388.200,721.290,454.420
882,33617.48000,240.216,38.880,54.607,378.048,285.494,135.951,-242.200,1328.290,671.420
883,33617.88000,225.418,68.166,104.704,378.071,278.832,145.664,-200.200,690.290,560.420
884,33617.127000,242.189,49.988,76.650,379.856,271.303,155.356,-208.200,371.290,518.420
885,33617.167000,247.121,60.087,78.654,384.272,263.663,161.080,-63.200,252.290,461.420
886,33617.187000,246.135,58.067,91.679,386.035,250.757,164.639,-315.200,43.290,376.420
887,33617.227000,251.067,14.643,109.714,387.797,243.003,166.379,-125.200,-119.710,238.420
888,33617.267000,231.337,41.909,100.697,393.078,239.506,165.289,-461.200,-282.710,90.420
889,33617.307000,244.162,0.505,89.675,393.968,233.572,170.064,-748.200,-244.710,-25.580
890,33617.348000,234.297,-49.988,101.699,395.746,235.450,175.096,-711.200,-196.710,36.420
891,33617.391000,226.405,-32.821,104.704,395.735,228.449,172.883,-52.200,-81.710,12.420
892,33617.411000,217.526,-52.008,108.712,396.615,231.026,171.976,167.800,15.290,111.420
893,33617.451000,206.674,-17.673,107.710,400.145,228.509,174.885,112.800,36.290,148.420
894,33617.491000,213.580,-23.732,96.689,400.159,223.470,180.679,-228.200,37.290,176.420
895,33617.531000,213.580,-12.623,103.703,402.807,220.084,183.557,-108.200,114.290,165.420
896,33617.571000,206.674,-1.515,95.687,405.453,215.803,185.413,191.800,298.290,140.420
897,33617.611000,186.944,22.722,34.568,401.943,219.385,189.489,636.800,438.290,121.420
898,33617.651000,192.863,42.919,12.524,399.303,223.723,189.622,615.800,283.290,-0.580
899,33617.671000,258.960,-21.712,202.896,396.672,231.589,191.855,535.800,240.290,-54.580
900,33617.711000,274.744,29.791,110.716,393.136,234.918,186.986,50.800,39.290,-169.580
901,33617.748000,259.946,-16.663,102.701,393.143,236.710,189.030,-45.200,-221.710,-343.580
902,33617.788000,242.189,44.939,105.706,391.363,242.560,181.271,57.800,-325.710,-502.580
903,33617.829000,256.000,31.811,65.628,392.225,250.987,172.610,31.800,-541.710,-507.580
904,33617.869000,237.256,70.185,93.683,391.324,265.432,162.153,109.800,-542.710,-553.580
905,33617.890000,234.297,38.880,64.626,388.675,276.573,157.541,-211.200,-603.710,-624.580
906,33617.929000,257.973,59.077,16.532,384.241,287.488,144.972,273.800,-400.710,-476.580
907,33617.971000,257.973,67.156,32.564,381.578,297.620,135.362,254.800,-274.710,-382.580
908,33618.11000,239.229,64.126,55.609,379.796,304.310,126.637,204.800,-216.710,-289.580
909,33618.51000,238.243,61.097,63.624,377.141,304.195,122.653,263.800,-284.710,-237.580
910,33618.91000,221.472,70.185,68.634,376.242,313.489,114.014,259.800,-353.710,-240.580
911,33618.131000,241.202,68.166,41.581,377.087,311.415,102.034,240.800,-367.710,-217.580
912,33618.154000,239.229,76.245,41.581,376.191,317.294,95.271,210.800,-318.710,-156.580
913,33618.189000,242.189,74.225,42.583,376.179,324.069,89.533,271.800,-248.710,-119.580
914,33618.231000,234.297,78.264,40.579,376.157,329.023,80.757,251.800,-242.710,-85.580
915,33618.271000,237.256,68.166,41.581,370.841,329.577,69.835,245.800,-282.710,-59.580
916,33618.307000,242.189,68.166,32.564,376.108,331.120,62.951,288.800,-298.710,-55.580
917,33618.347000,235.283,80.284,40.579,375.199,327.394,53.890,338.800,-359.710,-52.580
918,33618.367000,238.243,94.422,45.589,378.692,335.710,41.262,219.800,-512.710,-51.580
919,33618.407000,235.283,82.304,36.571,378.660,337.976,29.420,202.800,-609.710,-23.580
920,33618.447000,250.081,67.156,18.536,373.319,331.389,11.315,143.800,-750.710,-119.580
921,33618.491000,260.933,64.126,-0.501,375.916,330.941,-4.579,206.800,-748.710,-144.580
922,33618.531000,267.838,78.264,3.507,376.773,340.179,-15.200,130.800,-770.710,-131.580
923,33618.573000,311.245,65.136,14.528,373.203,338.858,-31.142,274.800,-778.710,-146.580
924,33618.611000,341.827,69.176,16.532,371.387,339.190,-50.004,403.800,-812.710,-123.580
925,33618.631000,291.514,96.442,-7.515,373.991,335.353,-63.029,469.800,-602.710,130.420
926,33618.668000,177.079,165.112,-131.757,373.084,334.231,-72.005,-69.200,-941.710,73.420
927,33618.713000,157.349,121.688,-150.795,369.532,339.127,-82.780,-179.200,-864.710,-95.580
928,33618.748000,122.821,74.225,-110.716,366.866,342.343,-91.621,-125.200,-714.710,-146.580
929,33618.792000,90.266,39.890,-81.659,360.674,338.642,-99.705,344.800,-174.710,-6.580
930,33618.831000,85.333,-17.673,-13.526,365.940,337.580,-106.674,778.800,439.290,310.420
931,33618.851000,119.861,234.793,-321.127,370.353,329.912,-101.943,-279.200,510.290,29.420
932,33618.891000,322.096,14.643,-43.585,367.767,333.918,-82.955,-674.200,528.290,60.420
933,33618.931000,339.854,86.343,-34.568,375.728,335.969,-71.940,-444.200,749.290,233.420
934,33618.971000,305.326,46.959,-47.593,381.077,327.129,-47.385,-153.200,1005.290,373.420
935,33619.11000,244.162,64.126,-61.620,386.401,328.367,-34.419,21.800,1325.290,387.420
936,33619.51000,196.809,77.254,-128.751,391.758,318.744,-6.910,52.800,1434.290,536.420
937,33619.91000,228.378,93.412,-194.881,391.788,308.694,5.673,17.800,881.290,470.420
938,33619.111000,207.661,169.152,-250.990,389.989,308.327,-7.254,692.800,-161.710,47.420
939,33619.151000,244.162,120.679,-236.963,382.858,303.193,-35.247,1787.800,-1015.710,-247.580
940,33619.191000,289.541,140.876,-196.885,363.282,302.971,-103.833,2314.800,-1839.710,-508.580
941,33619.232000,301.380,98.462,-116.728,326.976,297.642,-168.667,1718.800,-2549.710,-597.580
942,33619.272000,271.784,70.185,-67.632,291.577,294.303,-224.496,1338.800,-2571.710,-619.580
943,33619.312000,263.892,54.028,-51.601,267.709,296.912,-254.278,1433.800,-2174.710,-586.580
944,33619.332000,243.175,61.097,-21.542,242.057,285.520,-288.491,1347.800,-1400.710,-432.580
945,33619.369000,200.755,68.166,17.534,222.601,272.706,-311.808,1006.800,-844.710,-187.580
946,33619.411000,161.295,49.988,91.679,225.236,272.623,-314.782,-117.200,-34.710,100.420
947,33619.451000,179.052,140.876,37.573,239.359,272.915,-304.797,-723.200,429.290,126.420
948,33619.491000,161.295,154.004,-99.695,245.608,295.268,-281.213,-1775.200,601.290,-125.580
949,33619.531000,211.607,140.876,-80.658,256.233,314.766,-266.644,-739.200,807.290,-366.580
950,33619.569000,260.933,63.116,-54.607,268.616,324.745,-251.386,-284.200,896.290,-309.580
951,33619.589000,309.272,43.929,-75.648,279.228,333.771,-239.143,-185.200,921.290,-315.580
952,33619.629000,293.487,121.688,-54.607,277.496,339.231,-230.034,-289.200,738.290,-256.580
953,33619.669000,257.973,139.866,-50.599,283.689,336.913,-220.160,-203.200,596.290,-213.580
954,33619.711000,251.067,121.688,-64.626,288.990,335.350,-214.236,-53.200,476.290,-135.580
955,33619.752000,220.486,103.511,-96.689,293.430,340.871,-203.119,-147.200,344.290,-12.580
956,33619.792000,206.674,95.432,-97.691,296.090,347.930,-198.910,-80.200,436.290,24.420
957,33619.812000,199.769,102.501,-77.652,300.524,354.263,-189.753,-122.200,463.290,70.420
958,33619.852000,213.580,92.402,-81.659,305.828,355.303,-183.745,-148.200,424.290,81.420
959,33619.892000,220.486,94.422,-77.652,312.015,352.061,-175.886,-162.200,405.290,96.420
960,33619.933000,241.202,79.274,-61.620,313.789,349.599,-170.995,-46.200,380.290,122.420
961,33619.969000,230.351,107.550,-35.569,318.205,346.271,-166.124,-79.200,115.290,116.420
962,33620.9000,242.189,88.363,-59.616,322.616,347.199,-164.094,-78.200,81.290,148.420
963,33620.49000,219.499,96.442,-33.566,325.256,346.305,-165.107,30.800,-18.710,155.420
964,33620.69000,219.499,99.471,-16.532,320.826,339.160,-172.304,-100.200,-513.710,94.420
965,33620.109000,251.067,97.452,-44.587,317.293,342.517,-176.179,-155.200,-784.710,8.420
966,33620.149000,277.703,82.304,-72.642,314.616,341.309,-188.142,-8.200,-868.710,20.420
967,33620.189000,263.892,98.462,-70.638,301.355,339.981,-204.116,31.800,-970.710,50.420
968,33620.229000,256.987,96.442,-66.630,287.220,336.132,-217.195,65.800,-1034.710,69.420
969,33620.271000,258.960,104.521,-66.630,280.148,333.298,-225.254,180.800,-1066.710,50.420
970,33620.291000,277.703,84.323,-39.577,265.119,331.044,-243.249,520.800,-1016.710,-8.580
971,33620.331000,292.501,81.294,9.519,249.180,315.572,-268.627,958.800,-1101.710,17.420
972,33620.374000,292.501,107.550,-53.605,225.277,294.577,-305.132,1360.800,-1277.710,0.420
973,33620.411000,221.472,135.826,-130.755,210.247,274.208,-319.743,1054.800,-1176.710,117.420
974,33620.451000,192.863,135.826,-140.775,189.932,271.950,-337.755,324.800,-1067.710,47.420
975,33620.491000,134.659,115.629,-178.849,177.594,276.196,-340.636,-1033.200,-617.710,86.420
976,33620.529000,101.118,39.890,-79.656,174.149,299.382,-318.049,-1926.200,11.290,71.420
977,33620.553000,97.171,24.742,-101.699,184.782,317.228,-300.555,-1495.200,836.290,406.420
978,33620.593000,106.050,43.929,-161.816,213.938,325.850,-272.378,-1156.200,1540.290,652.420
979,33620.633000,167.214,54.028,-205.902,251.023,325.854,-242.469,-685.200,1773.290,955.420
980,33620.672000,172.146,72.205,-197.886,296.928,325.109,-208.585,-541.200,1817.290,1044.420
981,33620.712000,175.106,105.531,-199.890,325.209,320.851,-175.864,-806.200,1585.290,795.420
982,33620.751000,194.836,107.550,-206.904,338.481,315.404,-154.152,-1026.200,1354.290,484.420
983,33620.771000,192.863,110.580,-198.888,354.439,318.138,-119.257,-777.200,1140.290,308.420
984,33620.811000,199.769,117.649,-186.865,360.665,318.734,-98.365,-358.200,791.290,58.420
985,33620.851000,195.823,80.284,-128.751,366.875,319.161,-83.437,-279.200,451.290,-81.580
986,33620.891000,206.674,220.655,-144.783,364.239,320.951,-81.401,66.800,505.290,-217.580
987,33620.929000,245.148,91.393,-31.562,365.137,328.877,-77.169,705.800,567.290,-205.580
988,33620.973000,262.906,81.294,-40.579,359.861,334.137,-75.029,93.800,340.290,-167.580
989,33621.13000,257.973,40.899,-55.609,358.122,334.361,-67.084,-181.200,191.290,-28.580
990,33621.33000,246.135,69.176,-37.573,359.885,329.211,-65.259,-203.200,275.290,-2.580
991,33621.73000,241.202,94.422,-22.544,358.152,329.491,-55.326,-240.200,320.290,8.420
992,33621.113000,239.229,79.274,-34.568,362.582,325.436,-45.513,-103.200,500.290,55.420
993,33621.153000,260.933,86.343,-18.536,364.394,331.964,-29.408,-111.200,617.290,107.420
994,33621.211000,259.946,58.067,-15.530,364.430,331.462,-16.515,-76.200,728.290,105.420
995,33621.233000,244.162,85.333,2.505,363.571,329.951,-8.623,223.800,816.290,130.420
996,33621.253000,229.364,68.166,38.575,365.351,328.413,-1.716,171.800,605.290,63.420
997,33621.293000,225.418,79.274,62.622,361.852,326.928,7.161,-147.200,180.290,-73.580
998,33621.333000,237.256,77.254,21.542,360.084,330.315,4.287,-137.200,-114.710,-139.580
999,33621.373000,246.135,88.363,11.523,363.611,335.525,4.467,-153.200,-124.710,-141.580
1000,33621.413000,241.202,75.235,-1.503,360.098,334.767,8.403,-304.200,-112.710,-118.580
1001,33621.453000,239.229,80.284,-4.509,354.829,337.508,13.440,-132.200,94.290,-53.580
1002,33621.492000,238.243,64.126,10.521,357.483,337.623,17.424,-54.200,146.290,-53.580
1003,33621.511000,244.162,94.422,10.521,355.713,327.206,17.081,-160.200,165.290,-120.580
1004,33621.552000,230.351,77.254,21.542,356.640,328.525,33.014,-293.200,726.290,84.420
1005,33621.591000,241.202,71.195,14.528,356.678,326.315,46.845,-286.200,379.290,23.420
1006,33621.631000,238.243,71.195,26.552,353.176,332.558,52.994,-191.200,233.290,-70.580
1007,33621.675000,237.256,84.323,42.583,354.062,339.502,53.222,-157.200,126.290,-90.580
1008,33621.713000,232.324,82.304,48.595,345.274,337.985,61.089,-72.200,86.290,-66.580
1009,33621.733000,229.364,86.343,52.603,347.932,342.440,65.214,12.800,97.290,-54.580
1010,33621.773000,240.216,89.373,36.571,344.403,343.249,63.243,2.800,104.290,-48.580
1011,33621.812000,236.270,87.353,35.569,343.535,341.653,68.153,-68.200,80.290,-19.580
1012,33621.852000,232.324,85.333,46.591,346.172,338.155,67.055,-1.200,70.290,8.420
1013,33621.892000,232.324,82.304,48.595,346.174,337.315,68.021,21.800,2.290,14.420
1014,33621.932000,233.310,86.343,36.571,342.648,337.284,67.015,27.800,-4.710,2.420
1015,33621.972000,231.337,82.304,42.583,345.290,339.862,66.115,-1.200,-65.710,6.420
1016,33621.991000,236.270,82.304,32.564,345.293,344.202,66.255,38.800,-45.710,24.420
1017,33622.31000,237.256,86.343,38.575,344.407,341.569,65.174,-13.200,-17.710,6.420
1018,33622.71000,233.310,86.343,45.589,340.883,340.699,65.135,-56.200,-35.710,23.420
1019,33622.111000,231.337,85.333,40.579,344.403,336.361,65.005,-54.200,-89.710,49.420
1020,33622.151000,236.270,82.304,37.573,347.047,340.675,64.161,-24.200,-94.710,56.420
1021,33622.191000,238.243,85.333,41.581,348.808,339.808,64.138,-37.200,-84.710,79.420
1022,33622.211000,236.270,82.304,43.585,350.566,338.045,63.093,-17.200,-76.710,100.420
1023,33622.251000,238.243,81.294,36.571,353.192,334.435,58.020,-12.200,-78.710,134.420
1024,33622.291000,238.243,75.235,37.573,357.596,330.126,58.887,110.800,-42.710,174.420
1025,33622.332000,241.202,74.225,33.566,361.112,326.600,56.798,162.800,-4.710,184.420
1026,33622.372000,240.216,73.215,32.564,364.628,323.942,54.737,156.800,19.290,185.420
1027,33622.416000,241.202,69.176,31.562,364.616,319.518,51.614,211.800,27.290,186.420
1028,33622.454000,242.189,71.195,32.564,369.008,314.229,48.478,322.800,45.290,195.420
1029,33622.473000,238.243,67.156,35.569,368.999,320.164,43.705,351.800,26.290,196.420
1030,33622.513000,237.256,65.136,35.569,370.750,316.609,40.617,427.800,-24.710,180.420
1031,33622.554000,241.202,66.146,30.560,373.358,308.517,30.433,327.800,-67.710,158.420
1032,33622.594000,245.148,66.146,28.556,377.765,315.436,29.678,281.800,-76.710,148.420
1033,33622.634000,244.162,64.126,26.552,379.497,309.108,20.542,245.800,-32.710,136.420
1034,33622.674000,245.148,64.126,26.552,378.619,305.691,22.414,198.800,-12.710,125.420
1035,33622.693000,244.162,63.116,27.554,381.245,302.080,17.340,171.800,19.290,112.420
1036,33622.732000,243.175,62.107,25.550,387.402,300.264,14.322,124.800,32.290,106.420
1037,33622.772000,242.189,62.107,26.552,385.648,299.480,17.270,103.800,24.290,94.420
1038,33622.812000,244.162,60.087,30.560,385.653,306.424,17.495,42.800,-17.710,66.420
1039,33622.852000,243.175,60.087,29.558,384.757,301.102,13.348,12.800,-53.710,44.420
1040,33622.892000,244.162,59.077,24.548,383.880,301.998,14.367,-18.200,-90.710,29.420
1041,33622.932000,247.121,60.087,22.544,385.626,295.810,10.200,-28.200,-104.710,8.420
1042,33622.952000,245.148,61.097,22.544,390.025,295.757,8.226,-24.200,-99.710,5.420
1043,33622.992000,256.000,67.156,32.564,389.153,301.021,10.380,-80.200,24.290,47.420
1044,33623.33000,244.162,53.018,19.538,391.801,303.655,11.467,-30.200,-60.710,17.420
1045,33623.74000,234.297,55.037,27.554,390.046,301.134,14.359,-136.200,13.290,37.420
1046,33623.114000,236.270,66.146,31.562,387.391,296.708,11.228,-185.200,-220.710,-20.580
1047,33623.154000,258.960,48.978,2.505,390.913,297.550,10.273,-252.200,-298.710,-40.580
1048,33623.174000,252.054,58.067,-2.505,390.905,294.890,8.201,-8.200,-168.710,8.420
1049,33623.216000,249.094,55.037,14.528,389.134,293.936,5.185,39.800,-68.710,17.420
1050,33623.256000,242.189,64.126,20.540,390.013,294.777,4.222,-9.200,-33.710,-5.580
1051,33623.296000,247.121,57.057,12.524,389.131,293.908,4.191,-46.200,-31.710,-16.580
1052,33623.336000,247.121,53.018,19.538,389.135,295.672,5.242,-25.200,-41.710,-23.580
1053,33623.376000,245.148,59.077,13.526,388.253,297.379,4.301,-13.200,-65.710,-45.580
1054,33623.416000,246.135,63.116,12.524,389.123,293.824,1.210,9.800,-33.710,-36.580
1055,33623.436000,246.135,60.087,8.517,386.480,298.133,0.348,-10.200,-20.710,-12.580
1056,33623.476000,246.135,60.087,14.528,389.126,298.164,1.350,-45.200,-31.710,-22.580
1057,33623.516000,245.148,62.107,13.526,389.129,299.060,2.373,-30.200,-17.710,-25.580
1058,33623.556000,245.148,64.126,16.532,391.776,300.826,3.431,-44.200,-17.710,-3.580
1059,33623.596000,245.148,56.047,12.524,389.127,295.588,2.260,-29.200,-34.710,-14.580
1060,33623.636000,246.135,62.107,15.530,386.485,300.766,1.426,-46.200,-48.710,-34.580
1061,33623.676000,246.135,62.107,7.515,384.729,305.132,2.556,-27.200,-2.710,-11.580
1062,33623.696000,244.162,58.067,15.530,383.844,299.056,2.355,-16.200,9.290,-8.580
1063,33623.747000,244.162,62.107,12.524,384.725,299.924,2.387,-13.200,-9.710,-28.580
1064,33623.774000,247.121,62.107,10.521,383.849,302.556,3.462,7.800,16.290,-22.580
1065,33623.816000,247.121,63.116,11.523,386.494,305.162,3.555,29.800,67.290,0.420
1066,33623.854000,245.148,59.077,15.530,387.379,303.483,5.489,11.800,68.290,-3.580
1067,33623.893000,243.175,60.087,12.524,386.502,305.246,6.537,-15.200,49.290,-17.580
1068,33623.914000,244.162,60.087,19.538,385.620,303.510,6.478,-24.200,44.290,5.420
1069,33623.956000,243.175,60.087,17.534,385.622,301.802,7.415,-27.200,10.290,-10.580
1070,33623.994000,242.189,63.116,16.532,382.101,302.696,8.426,-23.200,-17.710,-18.580
1071,33624.33000,244.162,62.107,12.524,382.101,302.696,8.426,-36.200,-12.710,-7.580
1072,33624.74000,245.148,60.087,18.536,385.629,300.150,10.341,-38.200,-27.710,4.420
1073,33624.113000,243.175,63.116,18.536,387.391,304.464,9.493,-22.200,-38.710,-30.580
1074,33624.153000,243.175,65.136,12.524,385.629,307.906,8.606,-24.200,-27.710,-21.580
1075,33624.173000,242.189,62.107,12.524,381.225,308.771,8.620,3.800,-21.710,-4.580
1076,33624.213000,245.148,61.097,20.540,384.737,307.793,4.628,-10.200,-51.710,-18.580
1077,33624.253000,243.175,64.126,11.523,382.105,304.460,9.476,-22.200,-29.710,-26.580
1078,33624.293000,244.162,60.087,10.521,382.981,305.272,7.519,-1.200,-6.710,4.420
1079,33624.333000,246.135,60.087,17.534,382.977,303.508,6.469,-5.200,-30.710,-11.580
1080,33624.373000,242.189,65.136,20.540,381.222,305.299,8.508,-31.200,-34.710,-23.580
1081,33624.393000,243.175,63.116,10.521,381.208,301.714,4.419,-15.200,-34.710,-4.580
