Sample, Time, ACCX, ACCY, ACCZ, MAGX, MAGY, MAGZ, GYRX, GYRY, GYRZ
0,49459.22000,253.040,-2.525,4.509,459.320,168.760,-68.161,-20.200,-95.710,-64.580
1,49459.63000,253.040,-4.544,5.511,456.689,173.183,-65.047,-56.200,-114.710,-82.580
2,49459.97000,253.040,-4.544,5.511,457.559,178.250,-69.845,-58.200,-133.710,-96.580
3,49459.137000,255.013,-0.505,1.503,456.673,174.750,-70.954,-49.200,-149.710,-91.580
4,49459.177000,254.027,2.525,-6.513,453.145,184.182,-74.631,-71.200,-162.710,-111.580
5,49459.217000,252.054,4.544,-8.517,451.385,183.341,-73.671,-110.200,-168.710,-120.580
6,49459.237000,253.040,1.515,-5.511,449.615,187.567,-77.512,-96.200,-163.710,-124.580
7,49459.277000,248.108,7.574,-7.515,452.243,183.116,-81.620,-77.200,-182.710,-124.580
8,49459.318000,252.054,10.604,-13.526,446.955,187.396,-83.484,-117.200,-188.710,-115.580
9,49459.362000,250.081,4.544,-8.517,445.190,194.254,-86.246,-109.200,-190.710,-123.580
10,49459.402000,253.040,13.633,-12.524,442.544,197.668,-88.130,-42.200,-234.710,-117.580
11,49459.442000,257.973,9.594,-16.532,439.004,199.233,-94.048,-74.200,-258.710,-97.580
12,49459.460000,253.040,6.564,-5.511,439.877,195.705,-96.146,-87.200,-293.710,-117.580
13,49459.500000,255.013,12.623,-2.505,436.329,204.941,-106.780,-21.200,-435.710,-152.580
14,49459.540000,261.919,31.811,-27.554,431.016,202.079,-115.827,-43.200,-536.710,-106.580
15,49459.582000,265.865,27.771,-51.601,428.348,202.692,-124.753,-149.200,-541.710,-6.580
16,49459.620000,258.960,36.860,-56.611,429.213,204.259,-130.657,-132.200,-314.710,6.420
17,49459.662000,241.202,14.643,-71.640,430.078,201.515,-135.708,-69.200,-184.710,26.420
18,49459.702000,238.243,9.594,-82.661,424.794,208.427,-136.494,-14.200,-69.710,2.420
19,49459.719000,226.405,2.525,-73.644,424.794,207.559,-136.522,-11.200,-79.710,-55.580
20,49459.759000,232.324,11.613,-54.607,422.146,204.925,-137.609,-53.200,-66.710,-107.580
21,49459.799000,238.243,3.535,-59.616,423.025,205.765,-138.572,47.800,-46.710,-62.580
22,49459.842000,247.121,16.663,-66.630,422.146,208.369,-138.490,126.800,-92.710,-30.580
23,49459.890000,245.148,13.633,-65.628,417.731,209.989,-142.424,73.800,-190.710,-22.580
24,49459.918000,244.162,11.613,-56.611,417.707,211.471,-151.313,171.800,-217.710,28.420
25,49459.942000,234.297,13.633,-45.589,415.062,208.866,-151.406,329.800,-134.710,91.420
26,49459.979000,235.283,28.781,-7.515,417.690,204.415,-155.514,308.800,73.290,91.420
27,49460.22000,261.919,-3.535,-26.552,417.715,207.244,-147.478,-339.200,318.290,-0.580
28,49460.59000,264.879,21.712,-80.658,421.256,203.972,-140.622,-172.200,290.290,55.420
29,49460.99000,256.987,48.978,-29.558,423.026,198.878,-136.809,-121.200,217.290,-20.580
30,49460.139000,253.040,21.712,-47.593,425.680,199.860,-132.797,120.800,232.290,52.420
31,49460.178000,261.919,9.594,-32.564,430.090,195.608,-129.942,25.800,216.290,50.420
32,49460.198000,249.094,16.663,-37.573,425.700,199.190,-125.868,18.800,163.290,62.420
33,49460.238000,251.067,7.574,-38.575,430.999,201.910,-121.791,61.800,148.290,68.420
34,49460.279000,252.054,14.643,-40.579,426.592,191.547,-120.155,21.800,150.290,76.420
35,49460.322000,255.013,9.594,-35.569,427.474,188.972,-119.243,13.800,151.290,87.420
36,49460.363000,252.054,14.643,-36.571,431.010,189.955,-115.228,32.800,165.290,94.420
37,49460.402000,251.067,11.613,-34.568,437.184,189.176,-112.254,44.800,181.290,100.420
38,49460.424000,254.027,5.554,-29.558,437.195,188.421,-108.307,41.800,183.290,105.420
39,49460.459000,255.013,4.544,-31.562,439.841,188.451,-107.304,80.800,201.290,102.420
40,49460.502000,254.027,7.574,-30.560,441.618,186.885,-101.391,76.800,225.290,98.420
41,49460.539000,252.054,5.554,-21.542,442.499,175.687,-98.773,51.800,232.290,106.420
42,49460.579000,253.040,2.525,-16.532,445.158,181.877,-94.592,42.800,239.290,104.420
43,49460.623000,251.067,-0.505,-10.521,447.806,176.756,-91.770,64.800,233.290,98.420
44,49460.663000,251.067,3.535,-9.519,447.814,172.528,-87.935,42.800,197.290,81.420
45,49460.684000,251.067,-5.554,-2.505,450.456,171.662,-87.955,49.800,140.290,72.420
46,49460.724000,250.081,-5.554,-2.505,453.116,175.277,-82.864,6.800,87.290,41.420
47,49460.764000,255.013,1.515,-10.521,452.237,170.993,-81.020,46.800,63.290,34.420
48,49460.804000,252.054,0.505,-8.517,453.118,170.125,-81.045,15.800,62.290,24.420
49,49460.843000,254.027,-5.554,-5.511,451.364,173.652,-78.951,-1.200,57.290,26.420
50,49460.879000,254.027,-1.515,-6.513,450.484,175.388,-78.897,24.800,56.290,15.420
51,49460.927000,253.040,-2.525,-8.517,455.773,175.420,-77.886,-1.200,47.290,13.420
52,49460.954000,253.040,-1.515,-4.509,456.653,170.241,-77.058,12.800,30.290,9.420
53,49460.985000,255.013,-0.505,-4.509,452.248,173.681,-77.954,15.800,20.290,5.420
54,49461.20000,252.054,0.505,-4.509,452.252,175.445,-76.904,-13.200,9.290,9.420
55,49461.59000,252.054,-0.505,-1.503,454.899,173.768,-74.964,-4.200,-13.710,12.420
56,49461.100000,251.067,-4.544,-7.515,454.892,175.419,-77.889,-6.200,-11.710,0.420
57,49461.143000,256.000,0.505,-7.515,452.253,173.737,-75.966,-3.200,-7.710,4.420
58,49461.163000,253.040,-4.544,-0.501,453.127,175.390,-78.889,-14.200,-22.710,1.420
59,49461.200000,254.027,-1.515,-6.513,454.884,168.447,-79.108,10.800,-22.710,2.420
60,49461.244000,253.040,0.505,-6.513,455.768,169.344,-78.083,4.800,-29.710,-1.580
61,49461.279000,251.067,0.505,-6.513,452.242,170.181,-79.061,-9.200,-37.710,-1.580
62,49461.319000,251.067,-3.535,-7.515,454.888,173.655,-78.939,7.800,-42.710,-2.580
63,49461.359000,255.013,1.515,-9.519,453.996,174.410,-82.890,-2.200,-33.710,-6.580
64,49461.385000,251.067,-0.505,-6.513,453.126,173.654,-78.945,0.800,-34.710,-1.580
65,49461.422000,253.040,0.505,-7.515,453.115,170.965,-82.011,0.800,-55.710,3.420
66,49461.464000,253.040,-4.544,-5.511,452.224,168.276,-85.080,-18.200,-71.710,-6.580
67,49461.503000,255.013,-2.525,-13.526,450.468,169.199,-83.070,-2.200,-68.710,-8.580
68,49461.544000,254.027,0.505,-12.524,450.466,173.483,-84.917,-8.200,-58.710,-18.580
69,49461.584000,252.054,0.505,-13.526,452.221,168.248,-86.074,-31.200,-59.710,-20.580
70,49461.623000,255.013,-4.544,-11.523,453.102,175.136,-87.834,-19.200,-48.710,-17.580
71,49461.644000,252.054,-0.505,-11.523,453.097,173.372,-88.884,-11.200,-52.710,-29.580
72,49461.679000,252.054,0.505,-16.532,447.810,170.764,-88.986,-60.200,-53.710,-30.580
73,49461.728000,248.108,0.505,-12.524,448.686,172.444,-90.914,-31.200,-59.710,-33.580
74,49461.762000,252.054,-0.505,-13.526,446.045,174.178,-90.867,-21.200,-61.710,-29.580
75,49461.799000,254.027,2.525,-22.544,449.565,173.285,-91.877,-19.200,-52.710,-26.580
76,49461.844000,254.027,2.525,-18.536,449.567,179.333,-92.674,-22.200,-22.710,-23.580
77,49461.859000,251.067,2.525,-19.538,446.927,179.359,-91.689,-0.200,-13.710,-19.580
78,49461.900000,252.054,1.515,-18.536,449.557,177.512,-95.712,-27.200,-7.710,-10.580
79,49461.940000,253.040,1.515,-18.536,446.044,181.066,-92.629,-20.200,-1.710,-8.580
80,49461.980000,253.040,3.535,-22.544,445.156,174.961,-93.823,3.800,11.290,-4.580
81,49462.23000,252.054,0.505,-19.538,446.928,177.651,-90.751,-25.200,22.290,2.420
82,49462.67000,255.013,2.525,-16.532,448.690,174.209,-89.864,-14.200,35.290,9.420
83,49462.103000,253.040,3.535,-14.528,446.934,173.396,-87.910,2.800,34.290,15.420
84,49462.123000,251.067,1.515,-14.528,447.810,175.076,-89.839,10.800,14.290,20.420
85,49462.165000,252.054,3.535,-16.532,447.812,174.236,-88.873,13.800,-9.710,24.420
86,49462.205000,253.040,-0.505,-12.524,447.814,180.284,-89.670,1.800,-12.710,35.420
87,49462.244000,250.081,1.515,-14.528,448.690,177.652,-90.745,15.800,-26.710,25.420
88,49462.285000,252.054,0.505,-15.530,449.568,176.757,-91.765,16.800,-21.710,47.420
89,49462.320000,254.027,-1.515,-14.528,450.439,171.493,-93.919,38.800,-28.710,42.420
90,49462.342000,253.040,0.505,-18.536,451.327,173.286,-91.872,16.800,-21.710,49.420
91,49462.380000,256.000,-2.525,-20.540,450.449,173.314,-90.880,49.800,1.290,64.420
92,49462.420000,254.027,-3.535,-18.536,452.202,173.230,-93.857,55.800,29.290,65.420
93,49462.467000,249.094,0.505,-13.526,450.440,168.917,-93.009,59.800,12.290,57.420
94,49462.500000,255.013,-6.564,-17.534,451.318,168.890,-94.000,72.800,20.290,73.420
95,49462.542000,251.067,-1.515,-13.526,451.327,166.398,-90.109,34.800,12.290,47.420
96,49462.580000,251.067,-10.604,-9.519,453.957,160.240,-93.279,60.800,-3.710,40.420
97,49462.600000,251.067,-0.505,-18.536,454.845,165.477,-92.114,27.800,-12.710,37.420
98,49462.644000,252.054,-2.525,-17.534,453.067,162.731,-97.173,47.800,-1.710,50.420
99,49462.685000,254.027,-10.604,-14.528,453.072,157.607,-94.361,8.800,14.290,34.420
100,49462.720000,248.108,-2.525,-17.534,453.959,162.844,-93.195,35.800,-1.710,27.420
101,49462.760000,253.040,-6.564,-15.530,455.719,160.241,-93.274,33.800,-11.710,28.420
102,49462.803000,252.054,-4.544,-17.534,453.069,157.579,-95.355,15.800,-10.710,24.420
103,49462.824000,251.067,-10.604,-14.528,453.946,155.815,-96.402,16.800,-16.710,9.420
104,49462.868000,255.013,-7.574,-21.542,457.474,154.138,-94.459,13.800,3.290,23.420
105,49462.905000,252.054,-4.544,-16.532,458.355,154.139,-94.456,23.800,38.290,23.420
106,49462.944000,253.040,-9.594,-15.530,457.478,159.346,-94.290,27.800,35.290,34.420
107,49462.987000,255.013,-6.564,-17.534,457.485,157.695,-91.365,19.800,44.290,27.420
108,49463.22000,255.013,-8.584,-14.528,456.603,156.826,-91.396,29.800,78.290,30.420
109,49463.64000,256.000,-6.564,-13.526,454.845,157.721,-90.379,20.800,103.290,34.420
110,49463.84000,252.054,-10.604,-6.513,456.608,156.015,-89.436,30.800,94.290,28.420
111,49463.124000,252.054,-13.633,-5.511,457.496,153.496,-86.536,14.800,54.290,27.420
112,49463.162000,254.027,-10.604,-10.521,459.257,148.317,-85.705,19.800,38.290,22.420
113,49463.205000,253.040,-12.623,-10.521,459.262,150.949,-84.627,9.800,34.290,11.420
114,49463.242000,256.000,-8.584,-5.511,457.499,150.080,-84.661,6.800,34.290,13.420
115,49463.285000,252.054,-11.613,-4.509,460.142,153.526,-85.534,14.800,18.290,9.420
116,49463.308000,252.054,-11.613,-6.513,459.262,155.261,-85.480,3.800,-5.710,6.420
117,49463.344000,254.027,-11.613,-7.515,461.023,150.083,-84.650,-6.200,-29.710,2.420
118,49463.389000,253.040,-8.584,-9.519,456.622,155.287,-84.495,-16.200,-25.710,4.420
119,49463.422000,252.054,-7.574,-10.521,461.013,152.574,-88.541,-3.200,-20.710,1.420
120,49463.463000,250.081,-14.643,-6.513,458.370,148.260,-87.696,-1.200,-24.710,-2.580
121,49463.502000,254.027,-13.633,-9.519,458.381,155.260,-85.483,-20.200,-26.710,2.420
122,49463.542000,254.027,-7.574,-10.521,457.490,152.571,-88.552,-20.200,-31.710,-1.580
123,49463.567000,254.027,-10.604,-12.524,459.253,155.177,-88.462,-0.200,-24.710,-1.580
124,49463.605000,254.027,-13.633,-6.513,459.257,156.073,-87.440,-12.200,-15.710,1.420
125,49463.645000,257.973,-10.604,-11.523,459.251,156.016,-89.428,-0.200,-6.710,10.420
126,49463.687000,252.054,-12.623,-9.519,457.490,152.571,-88.552,-5.200,-2.710,-0.580
127,49463.727000,254.027,-11.613,-9.519,461.015,154.310,-88.484,-0.200,-12.710,5.420
128,49463.767000,254.027,-10.604,-11.523,459.255,156.913,-88.406,-7.200,-15.710,4.420
129,49463.785000,254.027,-12.623,-9.519,461.010,155.122,-90.444,-6.200,-14.710,2.420
130,49463.825000,252.054,-12.623,-11.523,461.012,155.150,-89.450,-4.200,-17.710,7.420
131,49463.865000,250.081,-11.613,-9.519,458.372,155.176,-88.465,-4.200,-25.710,3.420
132,49463.902000,253.040,-9.594,-11.523,455.714,149.853,-92.618,-5.200,-22.710,10.420
133,49463.942000,252.054,-9.594,-13.526,455.724,150.806,-89.608,-4.200,-17.710,6.420
134,49463.985000,254.027,-12.623,-12.524,458.367,147.364,-88.718,7.800,-10.710,7.420
135,49464.23000,254.027,-11.613,-12.524,461.003,149.885,-91.607,-1.200,-2.710,10.420
136,49464.48000,254.027,-10.604,-12.524,460.130,153.413,-89.509,4.800,-0.710,9.420
137,49464.82000,253.040,-11.613,-12.524,460.127,152.517,-90.531,-2.200,-11.710,7.420
138,49464.127000,255.013,-12.623,-12.524,458.350,154.951,-96.416,-11.200,-10.710,7.420
139,49464.165000,253.040,-12.623,-12.524,458.370,155.148,-89.459,-8.200,-6.710,2.420
140,49464.208000,252.054,-12.623,-9.519,460.121,149.017,-91.638,-0.200,-10.710,8.420
141,49464.247000,252.054,-12.623,-13.526,459.238,148.988,-92.635,-13.200,-14.710,7.420
142,49464.265000,253.040,-12.623,-12.524,459.241,145.572,-90.760,-3.200,-11.710,8.420
143,49464.307000,253.040,-10.604,-14.528,461.881,145.546,-91.745,-0.200,-10.710,3.420
144,49464.345000,252.054,-13.633,-12.524,460.122,154.197,-92.463,-3.200,-18.710,5.420
145,49464.385000,253.040,-12.623,-13.526,457.479,153.327,-92.500,-3.200,-16.710,3.420
146,49464.428000,253.040,-8.584,-15.530,454.837,150.749,-91.599,-6.200,-12.710,0.420
147,49464.467000,251.067,-13.633,-13.526,456.599,150.750,-91.593,-5.200,-17.710,-2.580
148,49464.505000,253.040,-13.633,-14.528,455.712,150.693,-93.584,-13.200,-19.710,-3.580
149,49464.522000,254.027,-11.613,-12.524,457.474,147.251,-92.697,-14.200,-18.710,-5.580
150,49464.565000,253.040,-13.633,-13.526,459.234,151.536,-94.538,-14.200,-18.710,-8.580
151,49464.609000,253.040,-11.613,-12.524,458.355,154.139,-94.456,-2.200,-24.710,-8.580
152,49464.649000,254.027,-14.643,-15.530,459.236,154.140,-94.453,-6.200,-11.710,-2.580
153,49464.685000,250.081,-9.594,-14.528,456.591,154.978,-95.428,-11.200,-9.710,-13.580
154,49464.725000,254.027,-13.633,-14.528,456.593,150.694,-93.581,-5.200,-4.710,-5.580
155,49464.743000,252.054,-12.623,-15.530,455.712,150.693,-93.584,-10.200,-10.710,-14.580
156,49464.790000,254.027,-8.584,-15.530,454.822,149.740,-96.596,-8.200,-3.710,-2.580
157,49464.827000,250.081,-12.623,-11.523,457.467,153.214,-96.475,-8.200,-11.710,-18.580
158,49464.867000,254.027,-12.623,-14.528,457.472,155.846,-95.397,-18.200,-20.710,-10.580
159,49464.907000,252.054,-10.604,-13.526,458.360,157.639,-93.350,-16.200,-33.710,-19.580
160,49464.943000,252.054,-2.525,-17.534,456.592,153.270,-94.490,-29.200,-46.710,-5.580
161,49464.983000,253.040,-16.663,-17.534,457.464,155.762,-98.379,-6.200,-44.710,-24.580
162,49465.4000,254.027,-6.564,-18.536,457.465,154.054,-97.441,-17.200,-38.710,-22.580
163,49465.44000,253.040,-7.574,-18.536,455.703,153.185,-97.475,-3.200,-11.710,-11.580
164,49465.83000,252.054,-9.594,-16.532,455.707,151.505,-95.543,0.800,-10.710,-16.580
165,49465.123000,252.054,-12.623,-11.523,456.579,153.997,-99.432,-15.200,-32.710,-12.580
166,49465.167000,249.094,-12.623,-8.517,455.701,158.336,-99.294,11.800,-79.710,-28.580
167,49465.204000,254.027,-4.544,-22.544,454.813,156.543,-101.341,-32.200,-88.710,-12.580
168,49465.223000,253.040,-10.604,-22.544,456.582,159.205,-99.263,-40.200,-56.710,-16.580
169,49465.263000,249.094,-8.584,-19.538,451.287,161.692,-103.171,2.800,-54.710,-30.580
170,49465.307000,246.135,-21.712,-21.542,453.925,154.750,-103.388,16.800,-64.710,-6.580
171,49465.343000,261.919,0.505,-29.558,453.036,151.221,-105.491,79.800,-30.710,-37.580
172,49465.387000,255.013,-8.584,-33.566,453.919,153.826,-105.404,92.800,62.290,-14.580
173,49465.427000,253.040,-16.663,-19.538,453.056,160.042,-100.240,78.800,149.290,-22.580
174,49465.463000,250.081,0.505,-18.536,453.936,166.062,-102.028,116.800,150.290,-42.580
175,49465.488000,249.094,6.564,-11.523,453.935,156.571,-100.350,81.800,69.290,-42.580
176,49465.528000,255.013,-3.535,2.505,451.294,162.617,-101.155,-91.200,-30.710,-32.580
177,49465.564000,250.081,-7.574,-1.503,453.048,159.958,-103.221,20.800,-197.710,-77.580
178,49465.604000,252.054,-14.643,-13.526,448.612,152.757,-112.406,34.800,-251.710,-56.580
179,49465.648000,249.094,-18.682,-25.550,448.612,163.956,-115.022,106.800,-297.710,-133.580
180,49465.684000,259.946,-18.682,-17.534,449.479,168.128,-120.842,97.800,-312.710,-146.580
181,49465.703000,258.960,-34.840,-27.554,442.406,167.869,-129.810,369.800,-320.710,-280.580
182,49465.747000,253.040,-17.673,-34.568,437.107,176.348,-136.502,216.800,-322.710,-312.580
183,49465.783000,242.189,58.067,-47.593,430.921,173.571,-142.570,151.800,-255.710,-230.580
184,49465.827000,241.202,25.751,-36.571,426.496,176.814,-150.423,19.800,-301.710,-116.580
185,49465.869000,233.310,10.604,-60.618,420.312,175.773,-156.435,-46.200,-399.710,-58.580
186,49465.908000,263.892,2.525,-67.632,419.428,179.188,-158.313,-116.200,-354.710,-56.580
187,49465.945000,255.013,-27.771,-88.673,416.776,178.233,-161.331,-97.200,-174.710,-140.580
188,49465.964000,256.000,26.761,-95.687,418.540,188.594,-162.975,94.800,130.290,-172.580
189,49466.8000,254.027,35.850,-49.597,422.957,189.578,-158.957,-19.200,421.290,29.420
190,49466.44000,244.162,-4.544,-19.538,426.509,194.174,-149.860,-231.200,299.290,12.420
191,49466.88000,252.054,0.505,1.503,422.998,196.020,-145.839,-242.200,84.290,-25.580
192,49466.128000,250.081,-28.781,-0.501,419.450,197.500,-154.739,-126.200,-274.710,-193.580
193,49466.164000,246.135,28.781,-40.579,412.400,202.647,-156.581,-286.200,-410.710,-258.580
194,49466.189000,247.121,0.505,-42.583,410.621,213.676,-165.166,-51.200,-451.710,-184.580
195,49466.225000,245.148,16.663,-23.546,400.032,220.387,-172.926,-164.200,-558.710,-325.580
196,49466.269000,247.121,5.554,-67.632,392.964,215.873,-179.053,78.800,-601.710,-396.580
197,49466.305000,233.310,34.840,-89.675,380.604,225.074,-190.710,-40.200,-526.710,-461.580
198,49466.345000,240.216,40.899,-83.663,372.680,243.211,-193.126,-224.200,-350.710,-421.580
199,49466.389000,239.229,11.613,-61.620,364.732,250.764,-201.843,-94.200,-516.710,-529.580
200,49466.428000,251.067,29.791,-99.695,351.512,258.454,-205.608,-54.200,-426.710,-782.580
201,49466.445000,231.337,61.097,-118.732,340.059,276.533,-210.023,-58.200,-266.710,-779.580
202,49466.489000,277.703,61.097,-64.626,325.092,292.986,-210.530,-219.200,-194.710,-558.580
203,49466.534000,274.744,24.742,-82.661,319.794,292.001,-214.551,334.800,-218.710,-88.580
204,49466.565000,171.160,110.580,-124.744,318.051,297.349,-209.418,-814.200,-389.710,242.420
205,49466.609000,207.661,44.939,-63.624,318.951,297.546,-202.458,-1057.200,-323.710,522.420
206,49466.650000,200.755,157.034,-91.679,323.344,288.813,-204.713,375.800,77.290,330.420
207,49466.664000,201.742,94.422,-82.661,323.350,285.426,-201.844,-344.200,-108.710,214.420
208,49466.708000,180.039,119.669,-104.704,329.505,277.562,-204.065,262.800,99.290,294.420
209,49466.744000,182.012,125.728,-141.777,335.673,275.859,-203.108,-83.200,243.290,392.420
210,49466.789000,270.798,36.860,-59.616,348.884,262.905,-201.500,619.800,373.290,667.420
211,49466.825000,234.297,-8.584,-98.693,360.327,250.761,-201.857,479.800,202.290,457.420
212,49466.869000,245.148,72.205,-87.671,363.849,236.960,-199.315,432.800,475.290,185.420
213,49466.908000,229.364,97.452,-77.652,368.262,232.736,-195.466,-38.200,325.290,304.420
214,49466.926000,246.135,-18.682,-105.706,377.954,226.723,-193.644,136.800,441.290,235.420
215,49466.964000,243.175,27.771,-75.648,383.280,227.989,-179.684,-256.200,480.290,47.420
216,49467.9000,245.148,38.880,-55.609,392.995,226.514,-170.764,-212.200,559.290,141.420
217,49467.49000,242.189,11.613,-51.601,395.667,231.978,-161.641,-224.200,375.290,142.420
218,49467.85000,234.297,57.057,-57.613,400.087,229.546,-155.748,-153.200,301.290,143.420
219,49467.129000,240.216,7.574,-9.519,404.510,223.698,-147.979,32.800,179.290,176.420
220,49467.149000,245.148,19.692,-23.546,405.386,220.199,-149.083,-1.200,-30.710,118.420
221,49467.188000,246.135,19.692,-61.620,401.860,214.148,-148.298,-4.200,-160.710,106.420
222,49467.229000,251.067,27.771,-46.591,400.973,214.091,-150.288,-26.200,-145.710,79.420
223,49467.269000,276.717,26.761,-32.564,405.356,203.538,-155.582,161.800,-255.710,157.420
224,49467.308000,286.582,35.850,-46.591,402.691,207.622,-164.395,-224.200,-450.710,3.420
225,49467.345000,307.299,103.511,-54.607,398.276,209.242,-168.328,-191.200,-459.710,15.420
226,49467.389000,269.811,78.264,-39.577,396.483,208.931,-179.267,-415.200,-757.710,39.420
227,49467.408000,263.892,80.284,-126.748,392.914,209.346,-195.153,252.800,-794.710,-79.580
228,49467.449000,282.636,22.722,-127.750,380.547,216.755,-208.854,-736.200,-926.710,-106.580
229,49467.489000,211.607,-72.205,-133.761,377.006,224.339,-216.563,324.800,-547.710,54.420
230,49467.525000,177.079,36.860,-89.675,376.117,232.009,-221.282,-554.200,-510.710,-278.580
231,49467.569000,195.823,-54.028,-68.634,369.080,246.760,-220.826,-496.200,-154.710,-441.580
232,49467.605000,80.401,-13.633,-130.755,371.725,241.610,-218.998,305.800,426.290,-204.580
233,49467.650000,106.050,71.195,-57.613,377.927,254.888,-209.611,-269.200,646.290,-135.580
234,49467.669000,153.403,59.077,-72.642,384.190,271.362,-179.266,-1715.200,600.290,-108.580
235,49467.713000,167.214,210.556,-106.708,383.422,290.575,-143.891,-3920.200,763.290,-333.580
236,49467.750000,511.507,-232.773,-181.855,389.681,293.217,-112.009,91.800,149.290,794.420
237,49467.789000,322.096,436.765,46.591,388.679,281.674,-152.107,3063.800,1.290,-578.580
238,49467.825000,213.580,66.146,-52.603,381.585,288.105,-169.794,367.800,-629.710,-307.580
239,49467.869000,145.511,221.665,5.511,378.900,284.237,-183.831,1575.800,219.290,-363.580
240,49467.889000,210.620,245.901,8.517,377.216,309.131,-162.175,-1893.200,466.290,-897.580
241,49467.929000,220.486,160.063,-18.536,375.723,355.736,-78.250,-4260.200,1662.290,-874.580
242,49467.969000,346.759,99.471,-149.793,375.165,373.590,31.557,-5362.200,1401.290,-535.580
243,49468.5000,221.472,-202.477,-100.697,375.241,372.614,58.336,40.800,1653.290,10.420
244,49468.45000,193.850,-42.919,-143.781,361.048,393.177,19.238,3759.800,846.290,-947.580
245,49468.89000,201.742,-10.604,19.538,348.606,403.297,-21.186,1068.800,-412.710,-397.580
246,49468.127000,257.973,-111.590,-58.614,351.270,405.233,-14.163,-1405.200,-661.710,321.420
247,49468.145000,305.326,202.477,40.579,349.449,405.508,-35.013,924.800,-332.710,-57.580
248,49468.190000,332.948,165.112,20.540,348.558,407.130,-38.935,-34.200,-204.710,-94.580
249,49468.229000,318.150,57.057,0.501,347.704,412.563,-30.818,-395.200,63.290,-105.580
250,49468.269000,291.514,-9.594,-34.568,349.497,408.562,-19.026,-518.200,146.290,83.420
251,49468.307000,243.175,-157.034,-87.671,354.769,398.094,-21.335,15.800,-308.710,315.420
252,49468.350000,253.040,37.870,-163.820,356.492,394.257,-34.363,668.800,-737.710,321.420
253,49468.369000,272.771,30.801,-81.659,351.145,391.926,-55.308,-637.200,-1771.710,335.420
254,49468.409000,283.622,-44.939,-95.687,360.689,365.493,-100.820,1784.800,-1368.710,1057.420
255,49468.452000,246.135,97.452,-109.714,369.285,314.277,-164.020,3228.800,-730.710,1294.420
256,49468.489000,173.133,209.546,-13.526,375.364,283.254,-187.846,2304.800,-194.710,1204.420
257,49468.532000,168.200,175.211,-132.759,387.620,240.280,-205.089,1453.800,69.290,1136.420
258,49468.569000,181.025,335.779,-31.562,391.142,229.055,-203.456,-809.200,-14.710,468.420
259,49468.620000,234.297,-32.821,-138.771,392.986,241.073,-177.242,-2384.200,229.290,-117.580
260,49468.629000,290.528,178.241,-48.595,392.111,241.129,-175.257,633.800,171.290,220.420
261,49468.672000,336.894,202.477,-62.622,396.523,247.236,-174.052,-697.200,-261.710,2.420
262,49468.712000,303.353,53.018,-96.689,393.003,253.309,-173.866,-917.200,-644.710,205.420
263,49468.752000,251.067,-9.594,-49.597,392.951,243.311,-190.078,410.800,-703.710,431.420
264,49468.792000,191.877,76.245,-24.548,392.013,231.547,-207.344,921.800,-321.710,157.420
265,49468.832000,70.536,94.422,-148.791,393.744,215.727,-214.803,693.800,113.290,116.420
266,49468.855000,75.468,163.093,-79.656,398.162,222.759,-211.581,-52.200,315.290,-298.580
267,49468.890000,119.861,-116.639,-158.810,404.363,223.102,-199.635,817.800,833.290,-290.580
268,49468.930000,267.838,-126.738,-295.076,403.455,213.356,-206.905,1547.800,440.290,-209.580
269,49468.970000,180.039,21.712,-21.542,403.439,203.723,-210.196,1033.800,331.290,43.420
270,49469.10000,392.139,0.505,-26.552,407.032,209.582,-187.156,-1257.200,626.290,375.420
271,49469.50000,301.380,26.761,26.552,416.779,204.972,-166.421,-929.200,558.290,550.420
272,49469.90000,276.717,207.527,-94.685,418.565,207.803,-158.380,212.800,526.290,-101.580
273,49469.117000,275.730,-29.791,-59.616,419.445,201.756,-157.580,853.800,334.290,81.420
274,49469.150000,250.081,21.712,-65.628,426.490,202.601,-158.523,345.800,256.290,31.420
275,49469.193000,273.757,1.515,-31.562,429.136,203.499,-157.493,335.800,206.290,11.420
276,49469.228000,245.148,-4.544,-58.614,429.120,199.886,-162.575,281.800,7.290,-59.580
277,49469.270000,245.148,25.751,-62.622,423.835,201.618,-162.536,175.800,-4.710,-56.580
278,49469.307000,241.202,4.544,-49.597,422.956,200.778,-161.573,177.800,-6.710,-33.580
279,49469.328000,231.337,20.702,-43.585,422.937,198.005,-167.621,127.800,-148.710,-77.580
280,49469.368000,235.283,7.574,-66.630,419.396,197.833,-173.596,126.800,-299.710,-7.580
281,49469.407000,256.000,-9.594,-41.581,414.086,191.556,-180.767,121.800,-356.710,-0.580
282,49469.448000,253.040,-15.653,-40.579,414.069,199.143,-188.465,93.800,-571.710,-105.580
283,49469.488000,231.337,4.544,-71.640,402.575,203.892,-204.236,-63.200,-784.710,-262.580
284,49469.530000,235.283,2.525,-68.634,390.211,211.328,-216.943,62.800,-891.710,-402.580
285,49469.570000,222.459,29.791,-102.701,369.899,215.986,-235.724,38.800,-1063.710,-507.580
286,49469.590000,229.364,-19.692,-108.712,360.182,226.057,-247.344,-286.200,-1061.710,-583.580
287,49469.632000,208.647,11.613,-109.714,338.119,234.271,-263.036,80.800,-999.710,-613.580
288,49469.670000,213.580,47.968,-148.791,318.721,245.287,-271.677,-199.200,-761.710,-481.580
289,49469.713000,189.904,69.176,-180.853,307.242,248.469,-281.541,125.800,-606.710,-333.580
290,49469.753000,213.580,58.067,-156.806,301.950,254.428,-285.336,-39.200,-337.710,-115.580
291,49469.790000,203.715,82.304,-175.843,299.301,257.814,-288.214,99.800,-77.710,-26.580
292,49469.810000,192.863,81.294,-184.861,304.591,251.826,-285.412,265.800,267.290,169.420
293,49469.852000,200.755,57.057,-176.845,316.918,239.712,-284.773,586.800,686.290,444.420
294,49469.904000,213.580,23.732,-145.785,336.315,223.515,-275.306,427.800,841.290,436.420
295,49469.933000,220.486,19.692,-118.732,342.492,214.141,-269.633,409.800,885.290,356.420
296,49469.972000,228.378,2.525,-110.716,361.899,204.077,-257.981,247.800,850.290,209.420
297,49470.12000,231.337,21.712,-102.701,372.493,199.998,-249.143,152.800,822.290,130.420
298,49470.52000,240.216,11.613,-79.656,383.104,199.532,-235.222,44.800,710.290,156.420
299,49470.72000,219.499,42.919,-114.724,393.703,202.398,-226.158,-16.200,680.290,214.420
300,49470.110000,226.405,7.574,-53.605,399.008,191.399,-216.568,37.800,686.290,286.420
301,49470.164000,236.270,-26.761,-32.564,406.087,191.714,-205.613,-30.200,420.290,249.420
302,49470.192000,241.202,-6.564,-67.632,413.131,182.199,-204.906,-81.200,100.290,122.420
303,49470.232000,248.108,-9.594,-60.618,414.891,176.153,-204.103,-44.200,67.290,29.420
304,49470.274000,241.202,20.702,-95.687,415.795,184.134,-197.883,-89.200,135.290,10.420
305,49470.288000,256.000,7.574,-93.683,419.330,184.250,-193.896,-305.200,263.290,57.420
306,49470.328000,238.243,1.515,-71.640,422.877,185.346,-185.906,-345.200,346.290,13.420
307,49470.373000,249.094,13.633,-46.591,426.432,189.102,-175.842,-189.200,315.290,-13.580
308,49470.413000,248.108,3.535,-43.585,422.925,188.400,-169.918,-238.200,174.290,-28.580
309,49470.452000,249.094,35.850,-46.591,422.065,186.889,-162.026,-346.200,80.290,-0.580
310,49470.493000,245.148,-5.554,26.552,420.288,185.879,-167.030,-253.200,-447.710,-2.580
311,49470.533000,428.640,159.053,-3.507,416.726,182.906,-180.046,15.800,-595.710,95.420
312,49470.552000,321.110,171.172,-67.632,411.414,193.848,-191.624,-697.200,-1051.710,100.420
313,49470.593000,288.555,116.639,-184.861,404.297,195.743,-216.410,628.800,-1112.710,-274.580
314,49470.632000,105.064,154.004,-177.847,396.324,203.910,-234.045,-49.200,-782.710,-334.580
315,49470.673000,99.145,73.215,-124.744,393.693,216.088,-232.665,-414.200,-162.710,-312.580
316,49470.708000,167.214,134.817,-37.573,390.235,243.444,-215.901,-3207.200,87.290,-677.580
317,49470.748000,147.484,25.751,-33.566,392.180,293.518,-162.634,-3598.200,782.290,-595.580
318,49470.768000,266.852,170.162,-98.693,397.701,332.902,-88.850,-2701.200,1975.290,-802.580
319,49470.808000,323.083,166.122,-140.775,396.211,356.268,1.273,-3462.200,1697.290,-474.580
320,49470.849000,311.245,-188.339,-95.687,394.507,362.878,20.349,930.800,1840.290,-192.580
321,49470.892000,322.096,15.653,-88.673,381.240,383.024,-2.872,3613.800,1260.290,-1074.580
322,49470.932000,259.946,-13.633,37.573,366.190,397.793,-32.231,654.800,29.290,-471.580
323,49470.972000,237.256,52.008,-33.566,368.015,398.413,-10.359,-1407.200,41.290,14.420
324,49471.8000,240.216,39.890,-12.524,364.535,392.814,6.329,-427.200,-81.710,73.420
325,49471.32000,251.067,143.905,42.583,372.473,394.640,9.393,-210.200,77.290,51.420
326,49471.72000,249.094,120.679,47.593,369.847,398.251,14.466,-227.200,38.290,-2.580
327,49471.113000,258.960,57.057,66.630,369.861,397.524,19.408,-355.200,-215.710,76.420
328,49471.173000,241.202,3.535,-22.544,371.608,396.516,14.416,191.800,-190.710,0.420
329,49471.192000,226.405,14.643,-47.593,373.329,394.387,0.450,886.800,-175.710,-38.580
330,49471.232000,201.742,10.604,-69.636,375.061,396.683,-10.393,291.800,-344.710,146.420
331,49471.249000,258.960,10.604,-150.795,374.997,390.015,-31.462,752.800,-686.710,91.420
332,49471.290000,271.784,12.623,-63.624,373.142,382.197,-62.504,431.800,-1167.710,230.420
333,49471.332000,317.164,34.840,-74.646,373.093,369.650,-76.813,-170.200,-1494.710,875.420
334,49471.373000,294.474,24.742,-115.726,380.037,351.394,-109.159,446.800,-1639.710,947.420
335,49471.413000,227.391,49.988,-110.716,378.142,328.538,-150.620,1120.800,-1459.710,786.420
336,49471.453000,156.362,93.412,-83.663,377.970,287.202,-201.611,3216.800,-573.710,890.420
337,49471.493000,113.942,196.418,-85.667,385.782,231.763,-230.196,2700.800,124.290,941.420
338,49471.514000,175.106,73.215,-130.755,393.683,217.712,-236.584,1363.800,446.290,611.420
339,49471.549000,214.566,126.738,-67.632,402.488,181.487,-229.788,1489.800,872.290,304.420
340,49471.590000,189.904,155.014,-92.681,406.048,173.233,-215.149,261.800,1020.290,8.420
341,49471.630000,277.703,36.860,-69.636,415.782,171.086,-199.300,-299.200,691.290,260.420
342,49471.670000,321.110,90.383,-88.673,424.623,167.959,-187.457,-70.200,809.290,212.420
343,49471.710000,291.514,189.349,13.526,425.567,172.891,-166.441,-1429.200,263.290,240.420
344,49471.730000,314.204,-4.544,-48.595,429.982,179.026,-164.242,362.800,100.290,12.420
345,49471.773000,222.459,0.505,-107.710,429.096,175.526,-165.351,56.800,174.290,47.420
346,49471.813000,242.189,-33.830,-67.632,429.101,167.826,-161.629,485.800,364.290,-70.580
347,49471.853000,255.013,22.722,-25.550,431.756,172.253,-158.498,392.800,313.290,-64.580
348,49471.893000,250.081,-13.633,-37.573,435.279,170.519,-158.543,272.800,116.290,-42.580
349,49471.933000,249.094,-11.613,-29.558,433.502,169.509,-163.547,263.800,15.290,-60.580
350,49471.969000,241.202,-0.505,-57.613,429.088,172.865,-167.424,396.800,-67.710,-119.580
351,49471.994000,253.040,16.663,-56.611,429.093,172.054,-165.464,114.800,-161.710,-63.580
352,49472.29000,241.202,27.771,-54.607,429.078,170.177,-170.490,254.800,-56.710,-16.580
353,49472.69000,240.216,-3.535,-44.587,427.304,173.507,-175.353,311.800,-109.710,-4.580
354,49472.109000,255.013,1.515,-34.568,421.116,162.945,-180.680,344.800,-219.710,-4.580
355,49472.154000,248.108,-34.840,-43.585,425.495,163.563,-189.583,193.800,-413.710,-107.580
356,49472.193000,241.202,-17.673,-20.540,416.657,173.606,-202.194,47.800,-769.710,-288.580
357,49472.213000,233.310,-10.604,-88.673,406.923,180.065,-218.897,155.800,-887.710,-319.580
358,49472.252000,235.283,15.653,-75.648,388.376,185.620,-236.650,134.800,-808.710,-329.580
359,49472.294000,237.256,19.692,-49.597,375.142,185.413,-243.650,-43.200,-1111.710,-339.580
360,49472.334000,216.540,-0.505,-110.716,359.228,184.838,-263.579,150.800,-1097.710,-326.580
361,49472.375000,214.566,24.742,-153.800,341.561,188.658,-281.386,149.800,-996.710,-362.580
362,49472.415000,208.647,21.712,-132.759,322.138,193.402,-297.182,161.800,-855.710,-338.580
363,49472.464000,224.432,17.673,-142.779,307.142,196.637,-305.069,-6.200,-832.710,-185.580
364,49472.470000,201.742,29.791,-158.810,303.596,201.589,-313.856,44.800,-615.710,-174.580
365,49472.510000,196.809,43.929,-202.896,290.376,204.967,-316.768,62.800,-310.710,-208.580
366,49472.553000,215.553,45.949,-186.865,288.619,207.598,-315.695,12.800,-5.710,-148.580
367,49472.593000,200.755,67.156,-179.851,297.427,205.868,-315.723,115.800,299.290,45.420
368,49472.633000,205.688,29.791,-168.830,302.715,193.833,-312.125,226.800,622.290,246.420
369,49472.673000,210.620,15.653,-148.791,316.823,187.068,-306.341,179.800,729.290,231.420
370,49472.693000,216.540,16.663,-129.753,330.942,182.152,-296.526,173.800,764.290,226.420
371,49472.732000,219.499,5.554,-116.728,345.069,178.160,-284.694,64.800,746.290,210.420
372,49472.774000,219.499,2.525,-116.728,354.785,182.733,-276.571,-57.200,733.290,108.420
373,49472.814000,223.445,61.097,-102.701,367.148,181.316,-265.654,12.800,777.290,137.420
374,49472.855000,222.459,0.505,-106.708,377.752,179.057,-253.778,22.800,720.290,231.420
375,49472.890000,237.256,5.554,-87.671,386.589,174.166,-242.985,-63.200,688.290,119.420
376,49472.930000,235.283,-0.505,-78.654,393.662,173.556,-234.045,-68.200,639.290,70.420
377,49472.956000,234.297,-0.505,-69.636,402.493,168.608,-225.241,164.800,637.290,101.420
378,49472.990000,248.108,-2.525,-51.601,407.820,170.743,-211.252,-49.200,503.290,79.420
379,49473.32000,243.175,18.682,-52.603,417.523,169.154,-206.308,-40.200,400.290,36.420
380,49473.72000,243.175,3.535,-59.616,415.775,168.426,-201.372,-27.200,239.290,37.420
381,49473.112000,245.148,-5.554,-44.587,420.188,168.514,-198.376,-112.200,186.290,-6.580
382,49473.152000,238.243,4.544,-39.577,417.563,169.549,-192.393,-102.200,18.290,-57.580
383,49473.174000,233.310,46.959,-29.558,416.682,170.416,-192.368,-219.200,-151.710,8.420
384,49473.215000,260.933,-29.791,-44.587,414.896,171.029,-201.291,-200.200,-368.710,-10.580
385,49473.250000,248.108,29.791,-49.597,409.608,172.733,-202.245,-392.200,-498.710,-178.580
386,49473.295000,302.366,-23.732,-48.595,402.551,182.107,-207.922,-104.200,-534.710,-91.580
387,49473.330000,351.692,18.682,-56.611,392.826,185.206,-220.761,-82.200,-447.710,-185.580
388,49473.370000,382.274,66.146,-3.507,383.990,199.589,-233.232,-416.200,-679.710,-308.580
389,49473.410000,289.541,41.909,-88.673,377.818,203.840,-236.092,-773.200,-890.710,-319.580
390,49473.437000,114.929,-12.623,-197.886,371.624,212.178,-247.758,-142.200,-668.710,43.420
391,49473.473000,86.320,-113.609,-104.704,371.618,215.565,-250.627,-636.200,-357.710,561.420
392,49473.514000,111.969,14.643,-16.532,377.781,203.474,-249.013,290.800,319.290,377.420
393,49473.555000,40.940,-126.738,-190.873,384.855,192.533,-237.430,-555.200,376.290,430.420
394,49473.595000,200.755,88.363,-141.777,388.410,204.913,-229.073,-527.200,369.290,160.420
395,49473.637000,304.339,237.822,-119.734,388.409,195.422,-227.395,450.800,100.290,-202.580
396,49473.657000,241.202,230.753,-114.724,388.375,191.640,-238.440,478.800,-243.710,-238.580
397,49473.694000,204.701,75.235,-109.714,384.828,198.299,-248.166,365.800,-266.710,-325.580
398,49473.743000,181.025,37.870,-122.740,383.931,199.866,-254.076,145.800,-63.710,-366.580
399,49473.777000,236.270,137.846,-55.609,378.712,232.400,-238.142,-2443.200,-153.710,-630.580
400,49473.817000,181.025,14.643,-40.579,379.780,286.814,-184.737,-3987.200,474.290,-412.580
401,49473.857000,262.906,122.698,-0.501,385.310,323.706,-107.062,-3814.200,1461.290,-469.580
402,49473.897000,289.541,181.270,-94.685,387.281,354.211,-40.528,-3891.200,1969.290,-593.580
403,49473.912000,303.353,70.185,-76.650,385.765,358.368,44.999,-2407.200,1665.290,-345.580
404,49473.952000,254.027,-90.383,-88.673,376.115,374.267,55.414,2160.800,1926.290,-582.580
405,49473.992000,209.634,0.505,-64.626,355.714,400.450,0.591,3396.800,414.290,-1228.580
406,49474.32000,256.000,-167.132,24.548,350.394,407.864,-13.088,-273.200,-84.710,-138.580
407,49474.72000,258.960,-16.663,-11.523,352.163,406.214,-10.157,-329.200,-459.710,-53.580
408,49474.112000,255.013,99.471,-44.587,355.674,403.500,-14.205,-219.200,-232.710,99.420
409,49474.153000,281.649,214.596,21.542,358.357,403.896,-0.282,-1008.200,56.290,168.420
410,49474.173000,292.501,103.511,35.569,359.311,403.761,25.534,-930.200,277.290,73.420
411,49474.213000,253.040,-6.564,7.515,357.576,397.994,36.264,-735.200,262.290,202.420
412,49474.255000,218.513,-76.245,-19.538,358.483,392.228,47.003,-111.200,-62.710,328.420
413,49474.295000,215.553,-75.235,-33.566,371.655,387.503,32.990,396.800,-442.710,517.420
414,49474.337000,257.973,73.215,-105.706,375.094,376.329,5.828,476.800,-1300.710,117.420
415,49474.375000,316.177,-25.751,-64.626,375.005,378.032,-25.893,1712.800,-1518.710,319.420
416,49474.395000,305.326,81.294,-61.620,377.450,355.399,-90.171,2462.800,-1315.710,758.420
417,49474.435000,238.243,171.172,-54.607,379.043,325.292,-142.778,1487.800,-1152.710,870.420
418,49474.475000,269.811,49.988,-53.605,379.827,301.068,-171.365,901.800,-951.710,850.420
419,49474.517000,217.526,82.304,-60.618,380.638,275.389,-190.070,1863.800,-394.710,958.420
420,49474.552000,186.944,144.915,-85.667,388.488,237.564,-209.146,1618.800,152.290,867.420
421,49474.595000,138.605,136.836,-77.652,402.561,207.195,-210.086,1013.800,474.290,630.420
422,49474.635000,122.821,98.462,-147.789,410.508,190.150,-199.691,788.800,792.290,519.420
423,49474.655000,268.825,219.645,-148.791,415.834,183.661,-183.997,159.800,775.290,159.420
424,49474.695000,244.162,33.830,-21.542,417.630,188.312,-172.917,-1004.200,337.290,368.420
425,49474.735000,357.611,22.722,-43.585,428.219,177.289,-164.304,510.800,706.290,352.420
426,49474.775000,279.676,105.531,-31.562,429.123,185.271,-158.084,-839.200,-138.710,-57.580
427,49474.815000,278.690,37.870,-70.638,429.119,184.375,-159.106,512.800,-5.710,-132.580
428,49474.854000,232.324,-4.544,-76.650,422.946,183.446,-161.142,26.800,-34.710,-54.580
429,49474.875000,245.148,3.535,-52.603,425.589,182.580,-161.162,153.800,135.290,-68.580
430,49474.915000,245.148,3.535,-52.603,424.705,182.551,-162.159,320.800,89.290,-93.580
431,49474.955000,250.081,-2.525,-38.575,425.575,183.307,-166.103,114.800,-120.710,-75.580
432,49474.995000,233.310,-24.742,-53.605,425.569,186.694,-168.972,534.800,-140.710,-95.580
433,49475.38000,245.148,31.811,-71.640,419.380,186.465,-176.944,623.800,-198.710,-166.580
434,49475.78000,241.202,21.712,-69.636,412.309,186.234,-184.918,294.800,-351.710,-145.580
435,49475.113000,228.378,29.791,-79.656,407.882,186.006,-192.883,301.800,-324.710,-47.580
436,49475.133000,253.040,1.515,-67.632,406.976,178.864,-200.069,179.800,-412.710,63.420
437,49475.178000,235.283,23.732,-56.611,400.781,178.578,-210.028,182.800,-587.710,-52.580
438,49475.218000,241.202,-22.722,-108.712,394.569,178.990,-225.922,225.800,-609.710,-156.580
439,49475.258000,235.283,26.761,-80.658,382.214,179.624,-233.885,91.800,-487.710,-255.580
440,49475.298000,232.324,15.653,-96.689,376.896,186.198,-246.598,81.800,-593.710,-204.580
441,49475.339000,233.310,-4.544,-91.679,368.064,185.966,-254.577,91.800,-693.710,-173.580
442,49475.353000,221.472,29.791,-116.728,359.229,186.574,-263.523,-0.200,-725.710,-166.580
443,49475.393000,228.378,14.643,-116.728,340.691,187.902,-277.441,162.800,-770.710,-201.580
444,49475.433000,202.728,16.663,-144.783,331.853,188.482,-287.380,236.800,-747.710,-228.580
445,49475.473000,199.769,26.761,-149.793,321.260,193.429,-296.191,124.800,-660.710,-238.580
446,49475.513000,214.566,24.742,-165.824,309.783,194.035,-305.145,129.800,-534.710,-127.580
447,49475.554000,211.607,18.682,-185.863,304.487,191.343,-308.228,132.800,-248.710,-135.580
448,49475.594000,212.593,40.899,-184.861,306.254,190.533,-306.263,78.800,43.290,-75.580
449,49475.614000,211.607,18.682,-168.830,307.126,193.892,-310.123,125.800,410.290,107.420
450,49475.657000,213.580,6.564,-162.818,316.847,185.586,-297.452,190.800,598.290,106.420
451,49475.697000,216.540,23.732,-134.763,332.715,185.710,-293.426,229.800,734.290,119.420
452,49475.733000,210.620,30.801,-124.744,345.066,178.132,-285.688,307.800,749.290,161.420
453,49475.774000,219.499,17.673,-113.722,357.427,170.667,-273.975,116.800,701.290,238.420
454,49475.817000,222.459,-9.594,-111.718,365.370,170.814,-268.980,144.800,715.290,198.420
455,49475.837000,250.081,22.722,-107.710,375.097,166.007,-255.203,-128.200,801.290,204.420
456,49475.877000,231.337,12.623,-95.687,391.880,162.158,-238.393,-451.200,786.290,269.420
457,49475.917000,234.297,2.525,-89.675,401.615,160.880,-222.515,-392.200,704.290,260.420
458,49475.954000,247.121,3.535,-76.650,409.568,164.583,-214.426,-419.200,666.290,229.420
459,49475.994000,234.297,4.544,-78.654,418.426,165.069,-197.501,-410.200,620.290,160.420
460,49476.39000,232.324,-26.761,-33.566,428.152,166.282,-185.514,-398.200,513.290,129.420
461,49476.79000,245.148,-26.761,-28.556,429.954,164.101,-170.684,-201.200,360.290,63.420
462,49476.93000,228.378,-19.692,-27.554,429.079,167.601,-169.581,-189.200,184.290,19.420
463,49476.133000,257.973,8.584,-27.554,430.845,165.923,-167.643,-13.200,-27.710,-54.580
464,49476.173000,242.189,-5.554,-42.583,427.318,165.024,-168.677,-164.200,-238.710,-74.580
465,49476.214000,256.000,-1.515,-24.548,421.132,170.002,-176.479,-155.200,-436.710,-104.580
466,49476.254000,269.811,-9.594,-44.587,415.812,173.104,-189.304,-53.200,-573.710,-149.580
467,49476.303000,262.906,5.554,-71.640,409.645,176.543,-190.206,-151.200,-601.710,-159.580
468,49476.319000,329.002,32.821,-17.534,405.210,177.098,-201.125,116.800,-587.710,-147.580
469,49476.354000,315.191,97.452,-111.718,397.239,180.982,-216.912,-2.200,-456.710,-86.580
470,49476.394000,275.730,62.107,-54.607,392.844,194.867,-216.476,-1025.200,-496.710,-138.580
471,49476.437000,265.865,36.860,-152.798,385.769,199.760,-227.262,-506.200,-700.710,-262.580
472,49476.475000,227.391,21.712,-156.806,376.055,205.547,-237.036,-724.200,-742.710,-14.580
473,49476.518000,164.254,-81.294,-118.732,374.274,207.084,-243.942,279.800,-425.710,186.420
474,49476.559000,138.605,14.643,-51.601,375.154,208.793,-244.877,44.800,-88.710,-0.580
475,49476.579000,82.374,-56.047,-113.722,381.325,211.429,-243.779,366.800,557.290,159.420
476,49476.619000,74.482,-123.708,-375.233,392.822,202.397,-226.161,140.800,1044.290,62.420
477,49476.659000,232.324,158.043,-162.818,391.970,204.414,-216.169,-275.200,176.290,-94.580
478,49476.694000,331.961,103.511,-32.564,397.259,204.446,-215.158,1066.800,452.290,-276.580
479,49476.739000,324.069,320.631,-91.679,392.824,198.113,-224.314,1141.800,89.290,-478.580
480,49476.778000,211.607,113.609,-74.646,391.031,201.246,-236.134,946.800,-77.710,-473.580
481,49476.799000,129.726,20.702,-184.861,392.771,202.758,-244.023,811.800,-3.710,-416.580
482,49476.839000,164.254,168.142,-127.750,388.393,223.699,-239.386,-1226.200,-149.710,-572.580
483,49476.879000,186.944,65.136,-77.652,382.378,275.165,-198.016,-4343.200,-198.710,-303.580
484,49476.914000,197.796,77.254,11.523,383.396,304.965,-156.333,-3503.200,864.290,-384.580
485,49476.964000,314.204,176.221,-88.673,386.288,339.308,-76.763,-3495.200,1825.290,-882.580
486,49476.999000,302.366,9.594,-131.757,383.006,361.523,3.387,-2986.200,1384.290,-490.580
487,49477.39000,360.570,-131.787,-139.773,376.871,373.896,11.713,1328.800,1268.290,-314.580
488,49477.60000,306.312,-38.880,-54.607,367.988,392.980,-18.479,3392.800,920.290,-1256.580
489,49477.95000,281.649,-16.663,28.556,350.324,396.828,-35.292,122.800,356.290,-391.580
490,49477.135000,296.447,-134.817,43.585,355.660,403.359,-19.175,-874.200,-196.710,258.420
491,49477.175000,270.798,-8.584,-17.534,359.200,398.351,-12.375,-490.200,-214.710,233.420
492,49477.215000,261.919,52.008,25.550,368.004,387.101,-11.719,-720.200,-419.710,649.420
493,49477.258000,264.879,136.836,53.605,377.746,373.840,9.728,-1915.200,-417.710,720.420
494,49477.278000,257.973,37.870,-40.579,386.640,358.312,43.014,-2919.200,-833.710,466.420
495,49477.318000,276.717,-17.673,-128.751,390.929,353.717,3.159,1871.800,-1328.710,182.420
496,49477.358000,262.906,87.353,-90.677,385.418,342.864,-73.671,3543.800,-1072.710,91.420
497,49477.398000,252.054,175.211,-89.675,379.129,334.761,-114.667,2901.800,-1065.710,302.420
498,49477.438000,226.405,131.787,-53.605,376.370,311.205,-150.195,765.800,-1135.710,528.420
499,49477.478000,230.351,53.018,-66.630,378.918,286.142,-177.811,1091.800,-746.710,695.420
500,49477.518000,187.931,100.481,-96.689,378.853,266.539,-196.321,1021.800,-428.710,612.420
501,49477.535000,191.877,79.274,-99.695,379.703,255.031,-204.635,1155.800,-69.710,565.420
502,49477.582000,178.066,91.393,-101.699,384.957,235.769,-211.202,1016.800,141.290,482.420
503,49477.617000,180.039,82.304,-105.706,387.592,217.600,-209.797,907.800,319.290,410.420
504,49477.659000,152.416,110.580,-91.679,399.028,198.484,-211.373,835.800,536.290,246.420
505,49477.698000,230.351,68.166,-109.714,401.685,190.871,-204.661,686.800,758.290,212.420
506,49477.738000,290.528,37.870,-132.759,409.623,172.874,-197.276,-47.200,641.290,296.420
507,49477.758000,327.029,-20.702,-23.546,414.070,176.744,-183.234,-874.200,467.290,35.420
508,49477.798000,291.514,117.649,-52.603,417.625,177.056,-172.289,-326.200,333.290,-19.580
509,49477.838000,239.229,3.535,-57.613,418.497,169.217,-173.534,296.800,248.290,218.420
510,49477.878000,232.324,-27.771,-62.622,421.163,172.888,-166.455,-227.200,279.290,104.420
511,49477.918000,238.243,-13.633,-49.597,422.944,172.218,-159.521,13.800,258.290,-49.580
512,49477.957000,259.946,-25.751,-35.569,426.461,167.853,-160.644,584.800,156.290,-45.580
513,49477.997000,244.162,18.682,-52.603,426.459,168.692,-161.610,107.800,24.290,-40.580
514,49478.17000,252.054,0.505,-47.593,430.857,174.659,-165.374,27.800,-22.710,30.420
515,49478.57000,241.202,3.535,-55.609,426.445,168.552,-166.579,115.800,-80.710,7.420
516,49478.97000,254.027,-0.505,-59.616,428.195,167.572,-170.577,-3.200,-95.710,28.420
517,49478.137000,246.135,4.544,-60.618,427.310,169.251,-172.512,-36.200,-77.710,24.420
518,49478.177000,239.229,-2.525,-51.601,422.899,164.880,-173.661,1.800,-156.710,33.420
519,49478.219000,241.202,-11.613,-49.597,422.887,172.523,-179.371,134.800,-216.710,14.420
520,49478.239000,237.256,-5.554,-49.597,421.991,170.645,-184.399,144.800,-290.710,27.420
521,49478.279000,233.310,-14.643,-52.603,419.315,167.730,-195.426,411.800,-369.710,-94.580
522,49478.317000,249.094,21.712,-38.575,413.122,162.292,-203.566,50.800,-753.710,-189.580
523,49478.357000,223.445,-36.860,-80.658,399.856,168.663,-223.261,127.800,-959.710,-219.580
524,49478.397000,221.472,-25.751,-101.699,385.717,167.362,-238.244,318.800,-882.710,-331.580
525,49478.437000,242.189,26.761,-94.685,369.810,172.023,-257.010,193.800,-986.710,-438.580
526,49478.479000,209.634,-12.623,-132.759,357.445,179.460,-269.717,355.800,-969.710,-391.580
527,49478.495000,217.526,30.801,-146.787,342.434,181.687,-282.602,246.800,-780.710,-454.580
528,49478.535000,207.661,32.821,-146.787,322.140,183.938,-294.510,240.800,-721.710,-393.580
529,49478.575000,207.661,55.037,-136.767,312.418,187.933,-306.327,186.800,-661.710,-241.580
530,49478.617000,215.553,3.535,-170.834,300.062,186.831,-314.347,81.800,-512.710,-154.580
531,49478.657000,182.998,23.732,-191.875,298.293,185.037,-316.397,58.800,-267.710,-162.580
532,49478.699000,211.607,35.850,-179.851,300.061,189.406,-315.256,-116.200,9.290,-54.580
533,49478.719000,209.634,20.702,-163.820,302.710,186.889,-312.350,44.800,234.290,32.420
534,49478.764000,210.620,36.860,-157.808,309.764,187.818,-310.312,177.800,421.290,50.420
535,49478.799000,216.540,27.771,-156.806,315.946,185.388,-304.413,138.800,526.290,148.420
536,49478.859000,208.647,10.604,-146.787,323.004,176.882,-298.708,168.800,606.290,93.420
537,49478.880000,221.472,30.801,-137.769,335.363,172.833,-288.870,167.800,706.290,132.420
538,49478.920000,219.499,1.515,-117.730,350.369,167.106,-277.092,-48.200,767.290,223.420
539,49478.942000,222.459,5.554,-111.718,359.195,175.037,-272.834,3.800,729.290,144.420
540,49478.979000,233.310,18.682,-100.697,369.805,173.703,-258.942,-5.200,740.290,141.420
541,49479.20000,232.324,2.525,-102.701,382.173,174.918,-246.947,-96.200,767.290,103.420
542,49479.60000,236.270,16.663,-98.693,386.626,171.088,-229.183,-195.200,751.290,88.420
543,49479.100000,242.189,7.574,-75.648,395.448,168.631,-224.269,-350.200,719.290,119.420
544,49479.140000,241.202,22.722,-55.609,407.826,167.355,-208.383,-537.200,803.290,186.420
545,49479.185000,239.229,-3.535,-45.589,414.935,174.000,-188.285,-436.200,584.290,136.420
546,49479.200000,227.391,19.692,-46.591,419.375,168.321,-174.553,-375.200,463.290,91.420
547,49479.254000,241.202,-12.623,-20.540,426.440,169.363,-168.539,-120.200,207.290,73.420
548,49479.277000,254.027,-10.604,3.507,425.564,176.307,-168.316,-177.200,-122.710,36.420
549,49479.318000,245.148,30.801,-51.601,422.915,175.380,-170.341,-96.200,-308.710,-8.580
550,49479.358000,252.054,-28.781,-28.556,414.977,181.310,-175.139,-203.200,-481.710,-62.580
551,49479.402000,277.703,-20.702,-38.575,409.649,181.751,-190.037,-147.200,-671.710,-90.580
552,49479.422000,312.231,81.294,-84.665,406.116,176.484,-192.205,-37.200,-468.710,-16.580
553,49479.457000,308.285,40.899,-42.583,399.931,182.331,-199.979,-183.200,-580.710,-158.580
554,49479.498000,256.000,58.067,-90.677,393.734,194.952,-213.491,-394.200,-797.710,-231.580
555,49479.538000,266.852,4.544,-129.753,382.258,201.606,-223.242,-580.200,-758.710,-195.580
556,49479.587000,204.701,-14.643,-117.730,376.964,213.585,-228.828,-493.200,-475.710,-66.580
557,49479.620000,138.605,-58.067,-115.726,377.845,209.274,-227.972,738.800,30.290,188.420
558,49479.659000,137.618,-26.761,-88.673,385.750,196.119,-233.339,656.800,418.290,76.420
559,49479.684000,153.403,39.890,-76.650,391.957,193.942,-218.494,261.800,846.290,-231.580
560,49479.718000,153.403,66.146,-181.855,398.163,205.540,-207.175,-377.200,995.290,-281.580
561,49479.758000,200.755,37.870,-184.861,403.506,213.863,-189.014,-405.200,667.290,-395.580
562,49479.798000,275.730,86.343,-124.744,407.031,207.846,-187.212,1627.800,503.290,-32.580
563,49479.838000,258.960,206.517,-93.683,405.253,201.656,-191.391,846.800,106.290,-327.580
564,49479.877000,232.324,185.310,-78.654,403.469,202.297,-199.320,269.800,-204.710,-242.580
565,49479.897000,230.351,185.310,-51.601,399.074,215.314,-198.911,-1500.200,-178.710,-511.580
566,49479.937000,232.324,155.014,-11.523,396.522,249.812,-174.961,-2283.200,149.290,-818.580
567,49479.980000,272.771,131.787,-28.556,396.676,290.111,-129.961,-2629.200,649.290,-794.580
568,49480.17000,311.245,96.442,-12.524,393.378,328.536,-59.216,-4015.200,871.290,-948.580
569,49480.59000,273.757,34.840,-9.519,390.004,351.558,-11.809,-3325.200,1093.290,-772.580
570,49480.102000,287.568,26.761,-53.605,379.617,368.024,49.265,-2320.200,1065.290,-974.580
571,49480.140000,255.013,-80.284,-75.648,364.753,382.915,85.448,-725.200,535.290,-681.580
572,49480.162000,291.514,-60.087,-63.624,349.747,399.842,71.054,943.800,59.290,-844.580
573,49480.200000,286.582,-22.722,22.544,350.575,403.619,51.319,695.800,-167.710,-174.580
574,49480.242000,271.784,-28.781,-22.544,349.670,401.657,43.309,31.800,-304.710,60.420
575,49480.280000,291.514,-11.613,-2.505,355.823,395.501,40.150,-97.200,-259.710,310.420
576,49480.320000,243.175,25.751,-28.556,361.979,392.817,37.104,-1.200,-171.710,441.420
577,49480.360000,230.351,38.880,-23.546,369.918,386.888,41.902,-408.200,-315.710,664.420
578,49480.383000,259.946,12.623,-123.742,377.831,377.261,38.636,-436.200,-908.710,355.420
579,49480.418000,247.121,-9.594,-99.695,379.457,365.579,-6.423,1988.800,-1308.710,308.420
580,49480.459000,264.879,157.034,-59.616,380.148,349.917,-69.487,2333.800,-1258.710,632.420
581,49480.502000,265.865,109.570,-57.613,378.258,332.269,-110.779,1090.800,-1365.710,546.420
582,49480.542000,251.067,47.968,-71.640,375.513,320.053,-143.952,1736.800,-1177.710,319.420
583,49480.582000,243.175,115.629,-92.681,370.087,295.402,-187.468,2200.800,-913.710,500.420
584,49480.622000,199.769,129.767,-63.624,365.577,259.890,-216.439,1706.800,-654.710,489.420
585,49480.638000,170.173,98.462,-78.654,369.920,240.319,-233.941,1291.800,-66.710,619.420
586,49480.682000,165.241,120.679,-72.642,374.306,219.462,-235.597,1076.800,401.290,624.420
587,49480.732000,171.160,112.600,-69.636,383.137,199.002,-223.323,546.800,712.290,469.420
588,49480.764000,159.322,91.393,-88.673,402.544,195.826,-213.434,251.800,964.290,249.420
589,49480.798000,223.445,-16.663,-261.010,409.626,178.082,-197.107,299.800,792.290,397.420
590,49480.838000,239.229,-25.751,-127.750,413.171,179.150,-190.110,-699.200,358.290,443.420
591,49480.858000,332.948,12.623,-16.532,414.972,182.989,-177.070,-268.200,634.290,144.420
592,49480.900000,326.042,58.067,-8.517,422.939,177.342,-162.333,93.800,532.290,40.420
593,49480.939000,255.013,31.811,-39.577,424.706,176.531,-160.368,48.800,220.290,-32.580
594,49480.979000,251.067,-5.554,-49.597,422.074,180.086,-157.282,-30.200,221.290,15.420
595,49481.19000,224.432,0.505,-55.609,426.481,175.805,-155.421,425.800,214.290,-2.580
596,49481.59000,247.121,-49.988,-54.607,428.232,171.382,-158.538,484.800,186.290,-15.580
597,49481.98000,265.865,45.949,-49.597,430.878,176.592,-158.360,129.800,23.290,-117.580
598,49481.123000,250.081,-1.515,-57.613,428.235,180.034,-159.250,-35.200,-9.710,-1.580
599,49481.163000,254.027,-25.751,-36.571,423.825,176.531,-160.371,-105.200,-20.710,-112.580
600,49481.198000,242.189,41.909,-68.634,423.831,188.654,-160.970,62.800,-4.710,-152.580
601,49481.242000,243.175,24.742,-50.599,423.841,182.719,-156.198,-49.200,52.290,26.420
602,49481.278000,240.216,3.535,-35.569,422.949,182.606,-160.176,26.800,-76.710,68.420
603,49481.320000,245.148,-23.732,-48.595,423.826,181.710,-161.196,194.800,-146.710,-25.580
604,49481.340000,243.175,-48.978,-36.571,422.046,180.672,-167.193,155.800,-237.710,-80.580
605,49481.387000,242.189,1.515,-55.609,417.614,185.567,-177.971,485.800,-306.710,-230.580
606,49481.428000,245.148,3.535,-26.552,408.774,186.119,-188.905,260.800,-584.710,-267.580
607,49481.463000,237.256,4.544,-74.646,401.691,184.040,-200.911,518.800,-700.710,-347.580
608,49481.499000,231.337,27.771,-93.683,388.433,186.183,-216.771,265.800,-753.710,-316.580
609,49481.542000,243.175,17.673,-53.605,374.300,191.827,-231.528,86.800,-912.710,-261.580
610,49481.583000,226.405,16.663,-106.708,361.911,189.546,-250.509,273.800,-892.710,-236.580
611,49481.603000,231.337,40.899,-105.706,349.550,193.568,-261.341,72.800,-788.710,-240.580
612,49481.642000,225.418,20.702,-125.746,338.945,190.646,-272.393,187.800,-781.710,-225.580
613,49481.684000,218.513,32.821,-138.771,329.228,200.717,-284.013,139.800,-693.710,-205.580
614,49481.725000,209.634,31.811,-141.777,315.112,199.641,-291.044,61.800,-618.710,-156.580
615,49481.759000,214.566,17.673,-147.789,308.044,202.015,-298.934,117.800,-524.710,-108.580
616,49481.802000,210.620,43.929,-175.843,306.264,192.353,-303.225,0.800,-349.710,-71.580
617,49481.822000,203.715,33.830,-171.836,302.740,200.974,-304.942,9.800,-17.710,10.420
618,49481.860000,212.593,33.830,-175.843,305.393,198.485,-301.043,97.800,266.290,55.420
619,49481.900000,209.634,33.830,-164.822,316.855,193.426,-296.205,169.800,506.290,153.420
620,49481.942000,217.526,23.732,-138.771,321.271,189.230,-291.362,165.800,659.290,236.420
621,49481.980000,219.499,20.702,-122.740,337.140,182.467,-285.573,144.800,660.290,270.420
622,49482.23000,216.540,10.604,-115.726,348.622,175.869,-273.834,45.800,674.290,250.420
623,49482.63000,219.499,2.525,-102.701,356.568,172.600,-266.964,-51.200,622.290,155.420
624,49482.84000,227.391,12.623,-99.695,366.286,175.464,-257.903,-67.200,550.290,100.420
625,49482.124000,239.229,16.663,-90.677,370.719,172.305,-247.068,-63.200,509.290,111.420
626,49482.160000,231.337,10.604,-111.718,383.081,176.908,-237.942,-202.200,545.290,154.420
627,49482.203000,237.256,4.544,-80.658,390.156,175.459,-228.037,-108.200,615.290,151.420
628,49482.243000,242.189,-3.535,-79.656,392.819,168.770,-219.308,-170.200,538.290,125.420
629,49482.280000,242.189,2.525,-93.683,399.895,168.189,-209.375,-256.200,564.290,39.420
630,49482.300000,239.229,14.643,-66.630,409.638,174.751,-192.250,-216.200,604.290,29.420
631,49482.343000,246.135,2.525,-34.568,414.941,170.612,-185.416,-168.200,522.290,49.420
632,49482.392000,232.324,14.643,-39.577,418.489,169.132,-176.516,-108.200,319.290,53.420
633,49482.419000,246.135,-5.554,-21.542,420.264,171.850,-172.450,7.800,171.290,83.420
634,49482.463000,243.175,7.574,-4.509,417.623,170.140,-171.521,-20.200,-231.710,31.420
635,49482.503000,252.054,-24.742,-41.581,414.966,174.309,-177.352,-28.200,-423.710,-23.580
636,49482.519000,244.162,18.682,-67.632,410.532,176.600,-188.215,-246.200,-504.710,-99.580
637,49482.560000,292.501,-10.604,-54.607,407.869,172.089,-194.328,111.800,-450.710,51.420
638,49482.603000,314.204,61.097,-56.611,405.211,171.947,-199.306,8.800,-219.710,-59.580
639,49482.644000,256.987,63.116,-62.622,401.667,178.635,-208.037,-101.200,-389.710,-4.580
640,49482.684000,272.771,44.939,-98.693,394.579,180.811,-222.884,-136.200,-736.710,-74.580
641,49482.725000,280.663,54.028,-111.718,387.513,182.345,-229.808,-375.200,-856.710,-130.580
642,49482.765000,224.432,-113.609,-113.722,377.805,193.368,-238.418,-874.200,-895.710,31.420
643,49482.785000,180.039,-13.633,-53.605,375.133,187.905,-247.541,382.800,-223.710,119.420
644,49482.827000,91.252,-19.692,-94.685,379.535,184.436,-247.639,51.800,218.290,101.420
645,49482.860000,63.630,-144.915,-248.986,389.240,184.584,-242.639,540.800,604.290,370.420
646,49482.900000,249.094,110.580,-107.710,391.036,184.923,-230.706,-652.200,316.290,-58.580
647,49482.943000,293.487,185.310,-103.703,388.398,191.865,-230.489,365.800,104.290,-376.580
648,49482.983000,240.216,226.714,-116.728,386.628,189.203,-232.567,343.800,-211.710,-263.580
649,49483.3000,159.322,106.540,-114.724,384.841,201.016,-244.105,-50.200,-308.710,-320.580
650,49483.45000,138.605,12.623,-121.738,386.589,196.565,-248.216,403.800,83.290,-299.580
651,49483.85000,133.672,114.619,-133.761,387.494,202.839,-241.059,-528.200,197.290,-465.580
652,49483.123000,178.066,49.988,-77.652,387.649,259.517,-199.499,-4232.200,234.290,-424.580
653,49483.162000,200.755,127.748,3.507,395.820,301.563,-123.635,-3805.200,1465.290,-375.580
654,49483.204000,368.462,58.067,-60.618,393.400,334.781,-53.055,-5000.200,2006.290,-984.580
655,49483.244000,277.703,106.540,-85.667,397.176,348.490,32.799,-2598.200,1517.290,-351.580
656,49483.264000,323.083,-73.215,-149.793,385.755,363.435,40.198,1365.800,872.290,-926.580
657,49483.302000,301.380,54.028,-13.526,361.854,387.266,-5.776,3477.800,649.290,-1177.580
658,49483.342000,234.297,-174.201,-2.505,360.103,386.509,-1.834,-760.200,138.290,-218.580
659,49483.382000,308.285,-88.363,-4.509,358.356,387.517,3.158,-226.200,-15.710,-46.580
660,49483.424000,272.771,162.083,29.558,361.902,394.632,9.359,-115.200,98.290,-13.580
661,49483.464000,266.852,177.231,52.603,356.649,389.787,22.093,-632.200,176.290,33.420
662,49483.480000,259.946,59.077,60.618,357.564,390.125,34.023,-605.200,96.290,119.420
663,49483.520000,249.094,-53.018,1.503,358.458,385.087,39.820,-269.200,-87.710,206.420
664,49483.562000,242.189,-11.613,-25.550,364.592,375.290,30.585,199.800,-510.710,436.420
665,49483.602000,245.148,83.314,-94.685,374.232,367.902,14.489,26.800,-839.710,408.420
666,49483.642000,258.960,101.491,-102.701,375.039,359.415,-9.616,303.800,-1473.710,292.420
667,49483.682000,273.757,72.205,-62.622,379.356,359.413,-40.385,1109.800,-1409.710,543.420
668,49483.720000,276.717,67.156,-47.593,379.206,343.277,-89.566,1588.800,-1297.710,392.420
669,49483.740000,249.094,127.748,-67.632,372.016,326.352,-135.815,1739.800,-1068.710,298.420
670,49483.780000,232.324,59.077,-57.613,368.387,306.352,-168.252,1381.800,-954.710,379.420
671,49483.822000,210.620,66.146,-75.648,362.142,284.028,-190.842,1694.800,-571.710,480.420
672,49483.862000,170.173,83.314,-82.661,367.347,255.664,-212.598,1368.800,-72.710,499.420
673,49483.903000,151.430,38.880,-76.650,373.464,230.187,-224.328,1644.800,391.290,509.420
674,49483.940000,141.565,92.402,-87.671,389.300,201.554,-225.207,1789.800,796.290,421.420
675,49483.979000,166.227,20.702,-159.812,396.362,193.945,-218.480,1127.800,1094.290,362.420
676,49484.9000,205.688,-14.643,-204.900,409.599,171.781,-205.255,817.800,845.290,637.420
677,49484.48000,276.717,142.895,-143.781,407.004,174.834,-189.276,-1446.200,265.290,121.420
678,49484.84000,319.137,70.185,21.542,414.113,184.922,-170.060,-88.200,670.290,169.420
679,49484.127000,300.393,71.195,-38.575,420.296,177.340,-162.342,467.800,399.290,55.420
680,49484.162000,262.906,-41.909,-42.583,419.410,173.839,-163.451,162.800,196.290,161.420
681,49484.202000,239.229,-16.663,-71.640,426.465,172.193,-160.503,248.800,179.290,-47.580
682,49484.222000,245.148,30.801,-86.669,426.475,170.569,-156.584,206.800,392.290,-97.580
683,49484.262000,254.027,10.604,-30.560,427.361,177.514,-156.356,105.800,307.290,-28.580
684,49484.302000,251.067,13.633,-33.566,429.121,178.355,-157.316,-32.200,31.290,-11.580
685,49484.345000,245.148,8.584,-48.595,428.250,181.043,-154.252,-58.200,-48.710,0.420
686,49484.385000,246.135,-2.525,-57.613,425.604,180.145,-155.283,-18.200,-79.710,23.420
687,49484.425000,239.229,0.505,-52.603,427.363,176.674,-155.390,49.800,-38.710,16.420
688,49484.445000,240.216,15.653,-30.560,423.837,180.955,-157.248,29.800,-139.710,-8.580
689,49484.485000,250.081,-24.742,-39.577,420.294,178.180,-163.308,140.800,-274.710,-30.580
690,49484.525000,222.459,-30.801,-56.611,416.743,172.744,-171.439,443.800,-215.710,-93.580
691,49484.565000,264.879,41.909,-22.544,414.076,173.356,-180.365,285.800,-379.710,-171.580
692,49484.605000,250.081,6.564,-14.528,410.519,179.063,-193.100,16.800,-887.710,-222.580
693,49484.643000,234.297,-3.535,-68.634,394.601,176.724,-214.080,198.800,-950.710,-315.580
694,49484.683000,227.391,7.574,-92.681,378.699,180.574,-230.887,314.800,-995.710,-410.580
695,49484.713000,242.189,13.633,-110.716,360.147,182.629,-249.746,296.800,-1083.710,-394.580
696,49484.747000,211.607,35.850,-118.732,342.472,187.233,-270.506,359.800,-1065.710,-364.580
697,49484.787000,201.742,37.870,-143.781,333.635,192.125,-281.299,273.800,-1013.710,-342.580
698,49484.822000,236.270,28.781,-137.769,317.744,191.775,-293.277,18.800,-898.710,-117.580
699,49484.862000,198.782,6.564,-174.841,304.493,188.823,-305.331,126.800,-707.710,-138.580
700,49484.902000,222.459,6.564,-171.836,294.795,189.600,-308.316,-169.200,-421.710,-213.580
701,49484.925000,202.728,40.899,-184.861,292.156,190.494,-307.302,-58.200,-102.710,-126.580
702,49484.965000,199.769,33.830,-176.845,293.916,195.647,-309.115,56.800,127.290,-4.580
703,49485.7000,215.553,41.909,-168.830,300.963,191.340,-308.240,207.800,357.290,83.420
704,49485.42000,201.742,19.692,-150.795,313.308,184.574,-302.462,267.800,599.290,190.420
705,49485.82000,212.593,6.564,-141.777,318.606,185.559,-298.441,216.800,723.290,183.420
706,49485.122000,217.526,23.732,-134.763,330.088,175.517,-285.821,185.800,748.290,138.420
707,49485.162000,222.459,8.584,-119.734,346.845,178.303,-279.719,3.800,781.290,222.420
708,49485.183000,222.459,4.544,-114.724,355.691,174.363,-265.916,-28.200,790.290,215.420
709,49485.223000,225.418,7.574,-108.712,374.225,170.403,-253.077,-1.200,837.290,173.420
710,49485.270000,234.297,-2.525,-92.681,377.772,168.055,-244.205,-38.200,803.290,138.420
711,49485.305000,240.216,5.554,-84.665,391.032,171.959,-229.141,-141.200,770.290,115.420
712,49485.355000,235.283,11.613,-73.644,399.884,172.388,-214.203,-244.200,711.290,85.420
713,49485.388000,244.162,-0.505,-68.634,405.201,172.702,-203.253,-230.200,657.290,61.420
714,49485.408000,236.270,11.613,-51.601,411.397,173.856,-193.266,-246.200,557.290,33.420
715,49485.448000,244.162,2.525,-40.579,415.831,175.877,-183.256,-272.200,427.290,50.420
716,49485.487000,241.202,5.554,-25.550,422.022,166.643,-172.613,-260.200,222.290,42.420
717,49485.524000,249.094,-14.643,-35.569,419.384,165.830,-170.662,-76.200,67.290,39.420
718,49485.565000,245.148,20.702,-26.552,420.274,174.539,-169.384,-7.200,0.290,2.420
719,49485.605000,258.960,4.544,-1.503,417.633,176.273,-169.336,-269.200,-310.710,14.420
720,49485.647000,262.906,-41.909,-10.521,413.192,177.639,-182.215,-154.200,-804.710,-57.580
721,49485.668000,279.676,32.821,-117.730,406.112,179.032,-194.108,-57.200,-518.710,-59.580
722,49485.704000,316.177,27.771,-48.595,399.940,175.527,-195.235,-130.200,-169.710,-252.580
723,49485.745000,267.838,37.870,-64.626,397.285,185.744,-201.862,-5.200,-343.710,-307.580
724,49485.783000,248.108,48.978,-135.765,384.915,186.237,-214.795,-206.200,-740.710,5.420
725,49485.823000,263.892,-14.643,-160.814,380.497,194.717,-221.485,-953.200,-1009.710,256.420
726,49485.863000,172.146,8.584,-59.616,378.701,194.377,-233.418,138.800,-535.710,302.420
727,49485.883000,146.497,34.840,-67.632,375.173,196.055,-235.360,101.800,-50.710,157.420
728,49485.924000,43.900,-106.540,-204.900,382.227,197.852,-233.294,-416.200,479.290,-15.580
729,49485.965000,209.634,62.107,-224.939,384.000,193.654,-228.459,812.800,454.290,115.420
730,49486.7000,325.056,118.659,-93.683,384.885,191.975,-226.525,852.800,132.290,-481.580
731,49486.47000,255.013,247.921,-88.673,382.198,192.390,-242.408,957.800,-166.710,-594.580
732,49486.87000,182.012,81.294,-94.685,376.006,197.312,-252.198,565.800,-295.710,-565.580
733,49486.126000,151.430,126.738,-160.814,372.459,199.660,-261.070,245.800,-160.710,-497.580
734,49486.144000,197.796,184.300,-53.605,369.904,234.998,-238.086,-2728.200,-26.710,-726.580
735,49486.189000,208.647,-9.594,-50.599,367.382,283.581,-206.727,-4176.200,324.290,-505.580
736,49486.223000,258.960,178.241,-51.601,378.193,321.289,-130.995,-3711.200,1854.290,-834.580
737,49486.268000,314.204,56.047,-113.722,380.262,354.487,-30.612,-4960.200,1593.290,-322.580
738,49486.308000,297.434,-3.535,-340.164,384.844,357.105,31.053,-2009.200,1559.290,102.420
739,49486.343000,288.555,-49.988,-84.665,377.763,374.009,15.691,2074.800,805.290,-769.580
740,49486.388000,257.973,54.028,-15.530,366.267,387.354,-2.780,1581.800,576.290,-779.580
741,49486.408000,227.391,-73.215,16.532,363.656,388.529,8.173,-865.200,-34.710,-31.580
742,49486.448000,284.609,-28.781,5.511,365.454,387.161,21.043,-762.200,13.290,14.420
743,49486.487000,242.189,154.004,33.566,361.953,388.252,29.011,-331.200,94.290,-91.580
744,49486.528000,265.865,92.402,66.630,359.328,381.531,36.729,-613.200,41.290,-63.580
745,49486.569000,256.987,98.462,45.589,354.933,386.792,38.872,116.800,18.290,-82.580
746,49486.607000,256.000,67.156,16.532,357.566,388.417,34.961,107.800,-16.710,-29.580
747,49486.627000,231.337,-71.195,-54.607,363.697,382.036,23.850,272.800,-656.710,311.420
748,49486.667000,262.906,1.515,-51.601,366.280,382.315,3.015,1320.800,-883.710,395.420
749,49486.708000,264.879,98.462,-40.579,367.055,371.781,-32.079,615.800,-1121.710,233.420
750,49486.748000,276.717,63.116,-60.618,364.325,364.887,-61.108,327.800,-1451.710,584.420
751,49486.785000,290.528,72.205,-45.589,372.150,343.187,-92.570,135.800,-1570.710,888.420
752,49486.829000,237.256,61.097,-56.611,369.450,330.554,-109.869,413.800,-1408.710,621.420
753,49486.850000,249.094,82.304,-67.632,371.086,306.049,-148.393,1686.800,-953.710,618.420
754,49486.889000,208.647,130.777,-66.630,372.725,276.393,-185.098,2178.800,-537.710,607.420
755,49486.929000,182.012,97.452,-84.665,375.279,247.942,-209.845,1686.800,-159.710,494.420
756,49486.982000,183.985,39.890,-77.652,379.645,226.020,-218.486,1829.800,417.290,384.420
757,49487.8000,156.362,122.698,-74.646,384.043,213.032,-217.900,1508.800,658.290,154.420
758,49487.48000,136.632,-45.949,-174.841,395.507,195.066,-209.510,443.800,859.290,189.420
759,49487.89000,242.189,99.471,-130.755,404.339,186.674,-199.824,-549.200,378.290,246.420
760,49487.109000,297.434,111.590,-71.640,411.430,184.526,-183.983,-391.200,581.290,363.420
761,49487.153000,325.056,66.146,-40.579,414.982,180.498,-173.179,-332.200,588.290,100.420
762,49487.185000,283.622,69.176,-77.652,420.297,185.963,-164.048,491.800,454.290,-51.580
763,49487.228000,253.040,4.544,-54.607,422.071,183.502,-159.157,142.800,199.290,132.420
764,49487.269000,231.337,-42.919,-61.620,422.954,181.794,-158.217,204.800,257.290,47.420
765,49487.309000,243.175,30.801,-72.642,422.081,181.010,-155.266,909.800,354.290,-146.580
766,49487.324000,277.703,116.639,-28.556,426.483,177.541,-155.365,186.800,155.290,-87.580
767,49487.369000,243.175,-34.840,-35.569,424.722,174.964,-154.461,51.800,-21.710,-25.580
768,49487.405000,249.094,-4.544,-49.597,422.948,178.294,-159.323,20.800,-71.710,-192.580
769,49487.445000,253.040,46.959,-70.638,423.845,181.040,-154.266,110.800,155.290,-101.580
770,49487.488000,236.270,30.801,-63.624,425.611,186.249,-154.092,68.800,210.290,7.420
771,49487.529000,242.189,29.791,-39.577,424.733,179.389,-151.338,130.800,209.290,110.420
772,49487.569000,243.175,4.544,-25.550,424.743,181.209,-148.300,216.800,90.290,122.420
773,49487.589000,243.175,-28.781,-17.534,427.367,178.438,-154.340,148.800,-43.710,20.420
774,49487.625000,248.108,17.673,-24.548,425.596,173.173,-156.502,180.800,-279.710,-72.580
775,49487.664000,244.162,8.584,-36.571,422.039,171.124,-167.503,94.800,-527.710,-67.580
776,49487.705000,247.121,-15.653,-36.571,417.603,177.699,-180.213,-136.200,-686.710,-87.580
777,49487.745000,236.270,-5.554,-65.628,405.221,184.967,-198.883,26.800,-751.710,-162.580
778,49487.788000,243.175,9.594,-50.599,399.046,184.878,-201.885,129.800,-763.710,-195.580
779,49487.805000,242.189,3.535,-65.628,389.294,185.119,-223.754,220.800,-878.710,-173.580
780,49487.848000,228.378,5.554,-110.716,373.392,182.949,-238.770,148.800,-897.710,-236.580
781,49487.889000,225.418,24.742,-108.712,361.901,191.170,-254.428,274.800,-813.710,-299.580
782,49487.928000,234.297,33.830,-104.704,352.177,188.249,-265.477,158.800,-791.710,-151.580
783,49487.968000,227.391,13.633,-130.755,345.106,187.150,-273.479,-23.200,-725.710,-61.580
784,49488.5000,220.486,10.604,-163.820,333.632,184.341,-280.558,-7.200,-500.710,-38.580
785,49488.45000,218.513,15.653,-167.828,332.746,192.039,-284.283,-62.200,-82.710,3.420
786,49488.65000,229.364,19.692,-164.822,338.039,194.704,-282.194,-14.200,278.290,12.420
787,49488.108000,212.593,22.722,-144.783,339.815,187.958,-275.456,-53.200,531.290,75.420
788,49488.147000,218.513,3.535,-118.732,350.403,187.267,-269.487,358.800,569.290,139.420
789,49488.189000,227.391,8.584,-114.724,358.348,178.818,-261.791,313.800,531.290,102.420
790,49488.230000,224.432,-0.505,-105.706,366.300,175.605,-252.933,189.800,531.290,117.420
791,49488.268000,235.283,18.682,-97.691,373.352,178.243,-251.832,147.800,515.290,72.420
792,49488.288000,229.364,12.623,-105.706,378.661,175.028,-242.983,-2.200,499.290,89.420
793,49488.328000,236.270,7.574,-104.704,386.624,175.372,-231.030,-23.200,538.290,109.420
794,49488.373000,241.202,16.663,-102.701,394.577,173.895,-222.115,-166.200,651.290,147.420
795,49488.410000,240.216,-1.515,-76.650,400.773,175.917,-212.100,-239.200,726.290,181.420
796,49488.450000,243.175,6.564,-74.646,410.495,169.346,-199.373,-187.200,691.290,148.420
797,49488.490000,246.135,3.535,-52.603,416.714,170.726,-181.435,-474.200,672.290,99.420
798,49488.531000,245.148,-3.535,-50.599,422.935,179.889,-164.237,-418.200,582.290,50.420
799,49488.545000,247.121,-2.525,-29.558,429.132,181.911,-154.221,-499.200,495.290,17.420
800,49488.585000,239.229,-5.554,4.509,433.554,182.952,-148.215,-294.200,265.290,-3.580
801,49488.630000,237.256,-4.544,17.534,430.922,182.194,-144.276,-211.200,-83.710,-14.580
802,49488.670000,251.067,-0.505,-3.507,427.384,185.495,-150.139,-276.200,-480.710,-53.580
803,49488.707000,255.013,-23.732,-42.583,419.427,186.075,-160.075,-271.200,-723.710,-81.580
804,49488.749000,265.865,-12.623,-61.620,417.642,184.981,-168.060,-249.200,-687.710,-66.580
805,49488.769000,356.624,77.254,-43.585,408.802,182.089,-178.112,39.800,-579.710,-63.580
806,49488.809000,315.191,113.609,-53.605,402.600,184.322,-190.969,46.800,-556.710,14.420
807,49488.849000,256.000,103.511,-95.687,399.924,192.606,-204.610,-199.200,-691.710,-92.580
808,49488.885000,223.445,23.732,-138.771,395.502,199.321,-212.351,-36.200,-681.710,-302.580
809,49488.934000,213.580,-35.850,-126.748,390.204,209.536,-218.987,-361.200,-454.710,-149.580
810,49488.970000,233.310,-106.540,-49.597,387.536,205.837,-227.059,1206.800,160.290,-252.580
811,49489.5000,155.376,-124.718,-53.605,395.457,196.295,-227.344,573.800,611.290,-44.580
812,49489.25000,115.915,-62.107,-287.061,405.166,190.451,-219.558,672.800,753.290,362.420
813,49489.70000,187.931,245.901,-106.708,406.960,192.498,-208.563,-974.200,219.290,-68.580
814,49489.113000,299.407,178.241,-43.585,406.967,202.046,-208.253,652.800,287.290,-495.580
815,49489.146000,269.811,168.142,-108.712,408.725,200.283,-209.298,571.800,42.290,-258.580
816,49489.187000,179.052,5.554,-126.748,404.299,201.791,-217.207,42.800,-207.710,-404.580
817,49489.226000,148.470,131.787,-113.722,398.998,204.222,-223.103,142.800,-181.710,-400.580
818,49489.247000,163.268,129.767,-12.524,392.898,236.756,-207.172,-2524.200,-138.710,-585.580
819,49489.289000,159.322,42.919,-41.581,393.927,276.131,-164.186,-3622.200,216.290,-435.580
820,49489.334000,212.593,142.895,-47.593,399.438,306.807,-91.677,-2880.200,1703.290,-689.580
821,49489.372000,330.975,138.856,-70.638,394.341,332.798,-31.271,-4778.200,1418.290,-897.580
822,49489.412000,353.665,23.732,-21.542,392.769,348.459,31.791,-1801.200,1384.290,-367.580
823,49489.453000,313.218,-79.274,-105.706,381.331,364.103,33.255,1669.800,1168.290,-919.580
824,49489.490000,304.339,-123.708,5.511,359.228,390.877,-0.702,2104.800,459.290,-1046.580
825,49489.510000,223.445,65.136,56.611,354.829,395.242,0.419,-134.200,113.290,-546.580
826,49489.550000,298.420,-119.669,-17.534,355.731,392.864,8.288,355.800,-230.710,-101.580
827,49489.590000,252.054,208.536,13.526,355.721,398.799,3.516,73.800,-82.710,43.420
828,49489.632000,285.595,119.669,67.632,354.887,397.541,20.353,-744.200,-12.710,127.420
829,49489.667000,272.771,101.491,52.603,356.668,396.003,27.260,-497.200,5.290,110.420
830,49489.707000,239.229,5.554,9.519,360.206,392.703,33.122,-415.200,-274.710,271.420
831,49489.727000,241.202,-66.146,-39.577,367.220,385.483,22.981,-111.200,-672.710,326.420
832,49489.767000,245.148,41.909,-86.669,368.011,374.250,-6.178,852.800,-1106.710,139.420
833,49489.807000,298.420,98.462,-68.634,365.237,372.085,-51.935,1031.800,-1436.710,171.420
834,49489.852000,290.528,111.590,-33.566,366.937,365.447,-72.005,568.800,-1543.710,486.420
835,49489.890000,259.946,91.393,-49.597,366.820,352.224,-110.168,647.800,-1350.710,502.420
836,49489.927000,244.162,60.087,-70.638,362.302,333.007,-145.560,1215.800,-1177.710,358.420
837,49489.972000,209.634,104.521,-69.636,363.056,310.209,-185.024,1712.800,-899.710,553.420
838,49489.992000,160.308,78.264,-71.640,357.695,287.914,-206.618,1744.800,-454.710,562.420
839,49490.32000,146.497,108.560,-73.644,363.790,256.192,-224.509,1697.800,135.290,642.420
840,49490.72000,117.888,102.501,-93.683,373.460,232.735,-226.232,877.800,400.290,544.420
841,49490.112000,160.308,63.116,-107.710,384.895,208.439,-226.984,866.800,629.290,518.420
842,49490.153000,151.430,85.333,-114.724,392.837,203.406,-221.163,828.800,793.290,353.420
843,49490.187000,265.865,39.890,-183.859,403.427,182.919,-209.878,657.800,736.290,632.420
844,49490.207000,336.894,158.043,-55.609,410.508,175.507,-196.194,-364.200,407.290,287.420
845,49490.247000,347.746,96.442,-4.509,410.557,188.053,-181.885,-905.200,400.290,-166.580
846,49490.292000,336.894,96.442,-21.542,413.203,181.196,-179.120,439.800,114.290,23.420
847,49490.332000,214.566,-19.692,-114.724,417.601,175.963,-180.269,423.800,201.290,184.420
848,49490.367000,255.013,6.564,-81.659,417.629,174.508,-170.386,-11.200,578.290,50.420
849,49490.407000,248.108,27.771,-52.603,425.582,177.344,-162.325,178.800,631.290,18.420
850,49490.450000,248.108,14.643,-25.550,430.891,174.129,-153.475,116.800,455.290,113.420
851,49490.468000,253.040,-2.525,-28.556,431.788,177.742,-148.390,-37.200,245.290,74.420
852,49490.508000,258.960,-22.722,-34.568,431.790,176.035,-147.452,-52.200,49.290,38.420
853,49490.548000,245.148,15.653,-53.605,428.270,173.484,-145.561,-111.200,40.290,-39.580
854,49490.588000,236.270,-18.682,-54.607,433.564,177.017,-143.443,-164.200,64.290,-19.580
855,49490.628000,241.202,1.515,-34.568,435.337,181.442,-140.315,15.800,89.290,-59.580
856,49490.668000,223.445,-47.968,-22.544,430.046,181.382,-142.320,400.800,11.290,-99.580
857,49490.688000,249.094,34.840,-37.573,430.029,181.213,-148.283,707.800,-80.710,-205.580
858,49490.728000,255.013,-14.643,-7.515,427.345,183.393,-163.116,147.800,-588.710,-155.580
859,49490.768000,246.135,13.633,-67.632,421.152,181.399,-172.137,541.800,-498.710,-192.580
860,49490.808000,242.189,14.643,-53.605,411.420,179.261,-186.140,269.800,-499.710,-191.580
861,49490.850000,247.121,4.544,-44.587,401.694,180.624,-199.036,245.800,-605.710,-181.580
862,49490.892000,241.202,3.535,-75.648,392.843,181.063,-213.945,337.800,-659.710,-223.580
863,49490.941000,228.378,33.830,-77.652,390.178,189.459,-223.610,162.800,-727.710,-196.580
864,49490.948000,232.324,20.702,-94.685,377.802,189.028,-238.559,83.800,-888.710,-131.580
865,49490.988000,226.405,-2.525,-103.703,367.190,192.070,-253.389,53.800,-935.710,-200.580
866,49491.38000,213.580,20.702,-120.736,345.114,189.811,-271.407,174.800,-979.710,-309.580
867,49491.73000,228.378,18.682,-137.769,333.633,197.276,-283.117,-57.200,-847.710,-231.580
868,49491.108000,213.580,13.633,-172.838,326.565,196.206,-290.126,-22.200,-627.710,-152.580
869,49491.149000,214.566,30.801,-174.841,321.272,194.410,-292.187,-17.200,-172.710,-117.580
870,49491.169000,215.553,39.890,-172.838,318.633,198.748,-292.055,49.800,142.290,-26.580
871,49491.209000,212.593,32.821,-165.824,328.337,198.028,-287.082,87.800,412.290,69.420
872,49491.248000,219.499,21.712,-133.761,335.399,198.174,-282.090,168.800,624.290,141.420
873,49491.288000,220.486,24.742,-116.728,345.985,192.303,-275.295,226.800,651.290,152.420
874,49491.328000,221.472,24.742,-106.708,352.170,189.900,-268.403,162.800,576.290,196.420
875,49491.368000,224.432,1.515,-105.706,360.125,183.272,-257.669,105.800,488.290,127.420
876,49491.409000,226.405,25.751,-101.699,367.169,178.069,-257.815,50.800,462.290,89.420
877,49491.428000,236.270,12.623,-96.689,376.010,179.253,-246.826,58.800,450.290,173.420
878,49491.472000,231.337,4.544,-108.712,387.475,176.799,-241.904,-113.200,544.290,160.420
879,49491.513000,239.229,20.702,-90.677,395.447,178.095,-226.941,-116.200,629.290,186.420
880,49491.553000,243.175,-13.633,-69.636,399.877,174.040,-217.129,-91.200,617.290,168.420
881,49491.593000,240.216,9.594,-54.607,406.950,170.855,-207.280,-274.200,476.290,56.420
882,49491.629000,241.202,7.574,-40.579,410.495,165.035,-198.520,-186.200,312.290,51.420
883,49491.662000,238.243,-5.554,-17.534,410.503,167.695,-196.448,-7.200,76.290,40.420
884,49491.693000,243.175,5.554,-28.556,402.562,166.708,-200.477,-198.200,-478.710,-28.580
885,49491.732000,244.162,11.613,-38.575,401.665,175.163,-208.150,-312.200,-775.710,-16.580
886,49491.773000,295.461,-22.722,-47.593,390.172,178.204,-222.983,-208.200,-1073.710,-82.580
887,49491.813000,299.407,-8.584,-103.703,376.895,169.819,-243.157,316.800,-940.710,-233.580
888,49491.853000,364.516,56.047,-76.650,368.041,173.673,-259.941,692.800,-701.710,-150.580
889,49491.893000,328.015,98.462,-78.654,361.844,163.896,-268.222,221.800,-601.710,-7.580
890,49491.914000,182.012,-2.525,-187.867,351.234,172.985,-283.849,-303.200,-707.710,-199.580
891,49491.954000,135.645,22.722,-194.881,345.929,181.408,-292.530,13.800,-568.710,-58.580
892,49491.993000,114.929,-76.245,-173.840,347.685,184.797,-295.393,-196.200,-90.710,-42.580
893,49492.34000,140.578,-14.643,-12.524,351.214,183.119,-293.450,635.800,622.290,-390.580
894,49492.74000,15.291,-25.751,-184.861,365.354,190.468,-279.265,-115.200,895.290,-355.580
895,49492.112000,143.538,89.373,-188.869,366.259,192.430,-271.254,141.800,519.290,-234.580
896,49492.132000,288.555,186.320,-88.673,367.151,188.232,-266.423,455.800,399.290,-389.580
897,49492.172000,260.933,225.704,-116.728,366.263,194.194,-270.204,579.800,169.290,-460.580
898,49492.213000,221.472,122.698,-112.720,369.775,194.084,-274.168,104.800,-32.710,-268.580
899,49492.252000,156.362,-7.574,-196.885,371.534,194.057,-275.157,184.800,21.290,-185.580
900,49492.293000,220.486,126.738,-55.609,368.948,221.329,-261.371,-1497.200,27.290,-471.580
901,49492.335000,163.268,-12.623,-78.654,369.961,269.160,-226.054,-3612.200,149.290,-141.580
902,49492.373000,187.931,136.836,-84.665,374.491,293.669,-187.511,-3040.200,1126.290,-68.580
903,49492.394000,293.487,167.132,-106.708,386.193,329.755,-107.856,-3964.200,1562.290,-397.580
904,49492.438000,269.811,53.018,-51.601,387.321,354.605,-26.614,-2607.200,1339.290,-376.580
905,49492.473000,294.474,17.673,-70.638,378.557,362.805,-12.474,166.800,727.290,-802.580
906,49492.513000,275.730,14.643,-52.603,368.833,378.839,-27.872,1747.800,295.290,-979.580
907,49492.553000,240.216,-6.564,84.665,352.022,390.162,-56.356,748.800,70.290,-631.580
908,49492.593000,245.148,56.047,77.652,349.415,393.102,-44.353,-943.200,294.290,-220.580
909,49492.613000,282.636,-87.353,-40.579,347.673,396.742,-38.282,-737.200,-241.710,-65.580
910,49492.653000,266.852,95.432,-19.538,347.684,396.855,-34.307,107.800,72.290,-11.580
911,49492.692000,274.744,100.481,33.566,346.830,398.844,-25.308,-916.200,47.290,136.420
912,49492.733000,256.987,42.919,17.534,353.934,395.100,-4.554,-939.200,35.290,236.420
913,49492.773000,240.216,37.870,12.524,358.357,392.697,2.333,-575.200,-206.710,338.420
914,49492.813000,252.054,-1.515,-7.515,363.644,383.237,5.022,-307.200,-352.710,348.420
915,49492.853000,248.108,-0.505,-96.689,367.152,384.807,-0.873,-89.200,-810.710,189.420
916,49492.873000,293.487,63.116,-89.675,361.740,378.383,-43.798,1217.800,-1505.710,178.420
917,49492.914000,251.067,94.422,-75.648,362.470,361.380,-93.004,1459.800,-1428.710,690.420
918,49492.949000,281.649,106.540,-65.628,359.701,342.891,-133.332,929.800,-1437.710,641.420
919,49492.989000,252.054,78.264,-63.624,358.745,325.779,-155.736,1411.800,-1125.710,400.420
920,49493.30000,224.432,138.856,-64.626,353.338,303.033,-193.232,1471.800,-892.710,523.420
921,49493.70000,171.160,109.570,-77.652,355.012,276.318,-217.926,1250.800,-591.710,670.420
922,49493.90000,157.349,108.560,-70.638,361.137,253.501,-227.583,1048.800,-41.710,787.420
923,49493.133000,172.146,96.442,-94.685,369.923,237.771,-232.038,1118.800,505.290,696.420
924,49493.173000,176.092,99.471,-105.706,376.966,211.877,-227.890,682.800,724.290,317.420
925,49493.214000,163.268,46.959,-101.699,385.796,198.305,-217.380,624.800,770.290,195.420
926,49493.254000,161.295,-28.781,-239.969,396.394,187.367,-205.785,245.800,863.290,378.420
927,49493.294000,207.661,50.998,-134.763,404.346,178.135,-195.136,-878.200,272.290,309.420
928,49493.334000,385.233,-0.505,-63.624,407.904,189.675,-185.813,-623.200,529.290,79.420
929,49493.354000,302.366,55.037,-66.630,416.743,183.943,-174.055,15.800,560.290,193.420
930,49493.393000,260.933,81.294,-52.603,422.059,185.965,-164.042,-674.200,431.290,325.420
931,49493.441000,255.013,-15.653,-50.599,429.142,180.288,-150.302,260.800,493.290,270.420
932,49493.475000,247.121,-39.890,-27.554,431.791,174.327,-146.515,117.800,321.290,177.420
933,49493.514000,248.108,13.633,-48.595,434.428,169.961,-147.641,83.800,134.290,50.420
934,49493.553000,259.946,-18.682,-42.583,436.195,168.282,-145.704,-5.200,28.290,58.420
935,49493.574000,253.040,-7.574,-51.601,437.071,169.962,-147.633,-67.200,-61.710,-19.580
936,49493.614000,240.216,-24.742,-40.579,433.551,171.724,-146.594,-76.200,-182.710,-113.580
937,49493.653000,237.256,1.515,-70.638,431.790,180.346,-148.306,144.800,-138.710,-157.580
938,49493.694000,240.216,-0.505,-39.577,428.249,183.619,-155.162,178.800,-130.710,-141.580
939,49493.730000,256.000,12.623,-41.581,423.825,184.286,-162.105,137.800,-304.710,-162.580
940,49493.776000,240.216,-16.663,-71.640,417.635,183.188,-170.104,160.800,-384.710,-186.580
941,49493.810000,199.769,-99.471,-78.654,414.979,183.914,-175.054,590.800,-260.710,-222.580
942,49493.830000,261.919,95.432,-52.603,412.297,180.942,-188.068,873.800,-222.710,-438.580
943,49493.872000,244.162,18.682,-68.634,401.678,182.191,-204.943,408.800,-671.710,-247.580
944,49493.914000,232.324,9.594,-76.650,387.541,186.070,-220.750,358.800,-752.710,-215.580
945,49493.954000,238.243,15.653,-101.699,383.986,186.626,-231.666,87.800,-720.710,-191.580
946,49493.995000,233.310,12.623,-86.669,370.737,185.410,-243.664,136.800,-769.710,-177.580
947,49494.30000,225.418,12.623,-107.710,360.142,195.508,-254.293,57.800,-791.710,-172.580
948,49494.50000,207.661,14.643,-119.734,346.883,192.472,-269.329,231.800,-730.710,-231.580
949,49494.90000,215.553,42.919,-119.734,341.577,190.535,-276.360,158.800,-743.710,-197.580
950,49494.132000,201.742,38.880,-161.816,325.692,195.422,-287.175,8.800,-668.710,-44.580
951,49494.172000,225.418,14.643,-146.787,320.387,196.089,-294.121,20.800,-515.710,-37.580
952,49494.224000,215.553,-4.544,-177.847,315.090,196.840,-298.086,-67.200,-299.710,-87.580
953,49494.258000,211.607,27.771,-180.853,311.568,198.574,-298.041,-0.200,137.290,-140.580
954,49494.295000,211.607,41.909,-168.830,314.219,197.792,-295.079,79.800,421.290,-2.580
955,49494.317000,207.661,28.781,-145.785,325.694,190.270,-285.356,177.800,593.290,119.420
956,49494.365000,213.580,24.742,-132.759,338.037,185.212,-280.516,299.800,705.290,210.420
957,49494.392000,219.499,4.544,-120.736,350.385,181.050,-274.653,229.800,679.290,216.420
958,49494.435000,226.405,7.574,-113.722,356.580,182.204,-264.666,66.800,626.290,162.420
959,49494.471000,221.472,15.653,-116.728,368.943,175.607,-252.925,-258.200,675.290,143.420
960,49494.514000,222.459,12.623,-113.722,378.690,179.621,-233.896,-590.200,879.290,244.420
961,49494.535000,231.337,11.613,-89.675,390.185,180.920,-218.923,-282.200,724.290,313.420
962,49494.575000,237.256,-1.515,-109.714,399.015,181.124,-211.937,-336.200,788.290,322.420
963,49494.618000,239.229,0.505,-72.642,413.163,176.490,-192.182,-308.200,834.290,248.420
964,49494.653000,245.148,-4.544,-56.611,419.385,174.453,-172.368,-345.200,753.290,164.420
965,49494.692000,241.202,8.584,-54.607,429.116,179.167,-159.275,-406.200,680.290,59.420
966,49494.732000,249.094,6.564,-22.544,430.025,179.449,-149.333,-439.200,551.290,28.420
967,49494.772000,247.121,-2.525,-4.509,435.340,172.847,-137.615,-322.200,350.290,13.420
968,49494.792000,245.148,-16.663,27.554,432.709,182.449,-135.325,-349.200,-37.710,0.420
969,49494.832000,238.243,41.909,-35.569,430.950,182.476,-134.337,-65.200,-234.710,-34.580
970,49494.872000,266.852,16.663,-23.546,432.708,180.713,-135.382,-199.200,-391.710,19.420
971,49494.917000,291.514,-45.949,-23.546,423.859,184.624,-150.178,124.800,-552.710,-147.580
972,49494.957000,322.096,61.097,-55.609,420.312,187.840,-159.022,415.800,-427.710,-244.580
973,49494.995000,262.906,94.422,-68.634,413.226,188.309,-172.931,51.800,-688.710,-232.580
974,49495.15000,261.919,63.116,-126.748,400.866,206.133,-186.295,-362.200,-894.710,-350.580
975,49495.55000,237.256,-37.870,-99.695,393.805,211.167,-192.112,-758.200,-817.710,-159.580
976,49495.96000,197.796,24.742,-37.573,389.392,214.523,-195.989,-436.200,-485.710,-159.580
977,49495.135000,215.553,-32.821,-81.659,386.744,223.957,-199.663,-254.200,-186.710,-158.580
978,49495.175000,130.713,-14.643,-68.634,387.614,228.156,-204.489,491.800,152.290,-155.580
979,49495.215000,111.969,-307.503,-279.045,394.674,225.698,-199.581,678.800,653.290,128.420
980,49495.255000,298.420,137.846,-54.607,396.421,213.491,-201.958,91.800,254.290,-262.580
981,49495.276000,281.649,196.418,-57.613,395.542,218.671,-202.786,82.800,79.290,-258.580
982,49495.316000,299.407,306.493,-102.701,391.115,219.310,-210.723,540.800,-269.710,-369.580
983,49495.358000,214.566,243.882,-98.693,388.429,215.442,-224.759,537.800,-440.710,-393.580
984,49495.394000,149.457,-6.564,-96.689,383.994,215.997,-235.678,916.800,-49.710,-462.580
985,49495.431000,144.524,216.615,-117.730,383.980,220.168,-241.501,-432.200,78.290,-779.580
986,49495.478000,196.809,44.939,-49.597,379.736,276.900,-197.968,-4308.200,-20.710,-642.580
987,49495.507000,216.540,-5.554,-11.523,385.224,314.238,-135.173,-3651.200,850.290,-419.580
988,49495.535000,310.258,161.073,-111.718,383.633,346.949,-82.481,-3262.200,1915.290,-1064.580
989,49495.587000,313.218,-104.521,-137.769,377.695,373.333,-8.163,-2645.200,1007.290,-616.580
990,49495.616000,296.447,-80.284,-69.636,368.807,382.030,-37.699,3642.800,1335.290,-559.580
991,49495.656000,271.784,-72.205,54.607,349.351,390.747,-66.275,453.800,-87.710,-928.580
992,49495.695000,239.229,-69.176,39.577,351.132,396.965,-61.103,-443.200,77.290,-109.580
993,49495.737000,307.299,-40.899,-10.521,352.057,404.304,-46.960,-851.200,-409.710,71.420
994,49495.758000,272.771,156.024,-16.532,355.569,403.326,-50.952,16.800,-36.710,67.420
995,49495.797000,254.027,144.915,-4.509,357.376,399.466,-34.191,-1086.200,-1.710,203.420
996,49495.833000,241.202,77.254,-4.509,358.301,400.757,-19.251,-905.200,77.290,185.420
997,49495.878000,215.553,-34.840,-47.593,357.456,396.811,-5.480,-550.200,-2.710,167.420
998,49495.916000,205.688,-68.166,-44.587,366.255,386.373,-6.783,409.800,34.290,307.420
999,49495.955000,204.701,67.156,-88.673,367.089,379.875,-21.886,659.800,1.290,335.420
1000,49495.974000,254.027,-33.830,-60.618,372.336,376.909,-34.875,460.800,-940.710,619.420
1001,49496.15000,273.757,23.732,-78.654,375.756,359.518,-67.204,1066.800,-981.710,820.420
1002,49496.55000,280.663,113.609,-57.613,383.565,334.206,-103.748,879.800,-1055.710,842.420
1003,49496.95000,260.933,125.728,-44.587,386.130,317.068,-127.135,104.800,-1085.710,765.420
1004,49496.135000,253.040,65.136,-58.614,387.814,287.862,-147.937,580.800,-763.710,801.420
1005,49496.173000,242.189,121.688,-51.601,386.888,272.767,-160.345,1270.800,-350.710,833.420
1006,49496.213000,201.742,162.083,-56.611,395.639,247.207,-175.049,999.800,-22.710,729.420
1007,49496.233000,205.688,112.600,-69.636,400.037,230.775,-173.582,242.800,235.290,638.420
1008,49496.274000,213.580,114.619,-52.603,406.232,219.861,-161.007,302.800,608.290,304.420
1009,49496.314000,258.960,108.560,-72.642,412.424,222.695,-152.951,38.800,816.290,210.420
1010,49496.356000,259.946,68.166,-54.607,415.985,223.932,-139.991,-382.200,415.290,-44.580
1011,49496.396000,240.216,-6.564,4.509,417.760,218.026,-134.219,258.800,332.290,228.420
1012,49496.438000,265.865,101.491,-95.687,423.042,213.690,-134.343,467.800,297.290,104.420
1013,49496.458000,236.270,44.939,-51.601,425.698,208.653,-128.540,-148.200,109.290,21.420
1014,49496.498000,249.094,17.673,-50.599,426.590,215.654,-126.324,104.800,155.290,46.420
1015,49496.538000,249.094,8.584,-49.597,423.071,211.396,-123.494,96.800,175.290,46.420
1016,49496.578000,248.108,32.821,-54.607,428.359,210.560,-122.511,-4.200,160.290,18.420
1017,49496.618000,254.027,12.623,-45.589,429.250,211.513,-119.499,85.800,163.290,64.420
1018,49496.653000,244.162,12.623,-52.603,429.257,209.862,-116.573,85.800,190.290,56.420
1019,49496.693000,252.054,10.604,-45.589,431.910,209.108,-112.617,23.800,225.290,36.420
1020,49496.714000,261.919,25.751,-46.591,432.793,199.645,-109.942,5.800,284.290,47.420
1021,49496.765000,248.108,13.633,-40.579,436.342,203.345,-101.867,5.800,308.290,74.420
1022,49496.796000,247.121,5.554,-22.544,438.997,208.640,-98.708,-36.200,294.290,71.420
1023,49496.836000,244.162,6.564,-10.521,441.667,207.187,-88.816,-27.200,199.290,60.420
1024,49496.876000,241.202,7.574,-15.530,439.900,204.554,-89.901,85.800,108.290,50.420
1025,49496.914000,256.987,6.564,-11.523,441.670,202.904,-86.969,-3.200,31.290,41.420
1026,49496.934000,252.054,13.633,-32.564,441.666,197.696,-87.138,67.800,42.290,43.420
1027,49496.978000,256.000,17.673,-22.544,441.660,201.083,-90.008,65.800,58.290,47.420
1028,49497.18000,255.013,5.554,-25.550,441.657,196.743,-90.148,56.800,38.290,49.420
1029,49497.58000,254.027,6.564,-28.556,444.310,195.122,-86.221,28.800,42.290,40.420
1030,49497.98000,249.094,3.535,-17.534,446.074,198.595,-86.102,22.800,19.290,41.420
1031,49497.138000,252.054,3.535,-18.536,446.953,199.436,-87.065,71.800,-8.710,25.420
1032,49497.176000,256.000,23.732,-31.562,441.659,195.903,-89.183,99.800,-34.710,24.420
1033,49497.194000,252.054,1.515,-24.548,444.303,194.197,-88.237,1.800,-34.710,50.420
1034,49497.234000,252.054,5.554,-25.550,446.060,195.010,-90.191,58.800,-2.710,46.420
1035,49497.278000,252.054,3.535,-20.540,446.054,187.198,-90.444,61.800,-14.710,42.420
1036,49497.318000,249.094,0.505,-13.526,446.044,185.378,-93.482,43.800,-77.710,32.420
1037,49497.356000,248.108,1.515,-25.550,446.046,191.426,-94.279,69.800,-115.710,15.420
1038,49497.396000,253.040,20.702,-30.560,446.909,189.521,-100.296,69.800,-116.710,17.420
1039,49497.416000,248.108,-1.515,-30.560,445.145,183.472,-99.505,13.800,-142.710,42.420
1040,49497.457000,251.067,5.554,-36.571,446.014,182.492,-103.506,80.800,-94.710,34.420
1041,49497.495000,249.094,7.574,-35.569,445.129,184.171,-105.440,112.800,-87.710,27.420
