Sample, Time, ACCX, ACCY, ACCZ, MAGX, MAGY, MAGZ, GYRX, GYRY, GYRZ
0,50161.298000,253.040,-1.515,-10.521,469.936,168.350,-52.252,-11.200,-17.710,12.420
1,50161.317000,253.040,-2.525,-8.517,472.571,164.824,-54.344,4.800,-6.710,17.420
2,50161.359000,254.027,-5.554,-8.517,470.811,168.295,-54.237,-8.200,2.290,16.420
3,50161.395000,253.040,-2.525,-6.513,475.229,174.458,-51.044,-17.200,-0.710,20.420
4,50161.436000,252.054,-1.515,-7.515,469.937,165.775,-51.343,4.800,-3.710,13.420
5,50161.476000,253.040,-8.584,-3.507,476.099,167.459,-53.255,0.800,-20.710,13.420
6,50161.516000,253.040,-3.535,-3.507,472.571,169.136,-55.198,-5.200,-38.710,7.420
7,50161.536000,254.027,-6.564,-7.515,476.097,171.742,-55.102,24.800,-40.710,9.420
8,50161.596000,251.067,-1.515,-9.519,475.205,172.497,-59.052,26.800,-46.710,0.420
9,50161.631000,252.054,-12.623,-1.503,472.555,169.835,-61.133,23.800,-64.710,-3.580
10,50161.654000,255.013,0.505,-11.523,474.323,167.317,-58.230,15.800,-93.710,-16.580
11,50161.722000,254.027,-10.604,-6.513,471.663,166.278,-64.230,13.800,-89.710,-25.580
12,50161.764000,247.121,0.505,-4.509,469.025,168.908,-63.160,38.800,-130.710,-44.580
13,50161.780000,254.027,-2.525,-21.542,476.061,172.244,-67.994,38.800,-158.710,-28.580
14,50161.800000,251.067,-6.564,-17.534,470.774,174.816,-68.921,-68.200,-121.710,-23.580
15,50161.835000,256.000,-1.515,-30.560,473.405,173.837,-72.916,-14.200,-62.710,-9.580
16,50161.872000,254.027,6.564,-37.573,469.880,172.967,-72.956,40.800,29.290,26.420
17,50161.925000,254.027,-9.594,-22.544,470.765,166.976,-70.168,45.800,121.290,43.420
18,50161.956000,253.040,1.515,-16.532,469.895,162.776,-65.342,66.800,155.290,41.420
19,50161.998000,252.054,-8.584,-11.523,473.428,167.175,-63.202,38.800,159.290,53.420
20,50162.14000,254.027,-4.544,-8.517,473.434,163.788,-60.333,34.800,131.290,47.420
21,50162.56000,254.027,-6.564,-5.511,476.082,162.978,-58.365,12.800,111.290,41.420
22,50162.97000,252.054,-5.554,-5.511,473.452,169.136,-55.195,-21.200,75.290,32.420
23,50162.137000,250.081,-4.544,-5.511,474.333,169.137,-55.192,15.800,56.290,33.420
24,50162.177000,253.040,-8.584,-6.513,474.325,165.609,-57.292,28.800,44.290,21.420
25,50162.233000,251.067,-8.584,-2.505,477.862,164.884,-52.340,-11.200,33.290,5.420
26,50162.281000,252.054,-8.584,-1.503,476.100,160.571,-51.492,-20.200,16.290,-0.580
27,50162.287000,252.054,-7.574,-2.505,476.104,165.779,-51.323,-20.200,-6.710,6.420
28,50162.317000,253.040,-7.574,-8.517,478.746,169.225,-52.196,-14.200,-7.710,-14.580
29,50162.353000,252.054,-8.584,-3.507,476.108,167.543,-50.273,-33.200,-6.710,-2.580
30,50162.401000,253.040,-6.564,-5.511,472.567,167.372,-56.248,-20.200,-36.710,-18.580
31,50162.442000,252.054,-7.574,-9.519,474.336,165.721,-53.317,-30.200,-37.710,-16.580
32,50162.474000,253.040,-6.564,-7.515,473.450,163.089,-54.398,-39.200,-41.710,-21.580
33,50162.500000,254.027,-8.584,-8.517,475.205,164.741,-57.318,-28.200,-39.710,-24.580
34,50162.537000,252.054,-6.564,-9.519,473.451,170.844,-56.132,-31.200,-41.710,-26.580
35,50162.579000,253.040,-4.544,-4.509,472.564,167.343,-57.242,-41.200,-47.710,-26.580
36,50162.639000,254.027,-6.564,-9.519,475.207,171.657,-58.086,-15.200,-20.710,-23.580
37,50162.655000,252.054,-2.525,-7.515,472.571,172.580,-56.079,4.800,-14.710,-26.580
38,50162.700000,253.040,-4.544,-8.517,474.332,170.845,-56.129,6.800,-24.710,-14.580
39,50162.735000,251.067,-2.525,-13.526,473.441,161.268,-57.436,10.800,-25.710,-20.580
40,50162.755000,254.027,-4.544,-9.519,470.800,171.626,-59.094,-8.200,-16.710,-16.580
41,50162.795000,253.040,0.505,-15.530,470.801,169.918,-58.157,20.800,0.290,-17.580
42,50162.835000,255.013,-4.544,-11.523,471.680,167.315,-58.238,16.800,20.290,-3.580
43,50162.876000,250.081,-2.525,-9.519,473.448,170.816,-57.126,5.800,17.290,-12.580
44,50162.917000,253.040,-2.525,-9.519,472.553,167.231,-61.217,15.800,18.290,0.420
45,50162.954000,252.054,-2.525,-6.513,469.927,170.842,-56.144,-3.200,-5.710,-5.580
46,50162.975000,254.027,-4.544,-10.521,470.801,173.362,-59.038,-6.200,-13.710,3.420
47,50163.15000,254.027,-3.535,-8.517,472.559,167.287,-59.229,1.800,-3.710,-3.580
48,50163.65000,255.013,-0.505,-13.526,471.690,168.267,-55.229,-6.200,2.290,4.420
49,50163.105000,254.027,-3.535,-7.515,473.445,175.100,-58.973,2.800,1.290,3.420
50,50163.136000,254.027,-2.525,-11.523,475.205,172.497,-59.052,3.800,8.290,-1.580
51,50163.173000,253.040,-1.515,-5.511,473.441,173.336,-60.023,-0.200,-2.710,5.420
52,50163.215000,254.027,-5.554,-10.521,468.160,175.096,-58.990,-6.200,-14.710,-0.580
53,50163.247000,255.013,-0.505,-12.524,474.328,174.261,-58.005,-4.200,-4.710,-6.580
54,50163.277000,251.067,-1.515,-9.519,472.564,170.787,-58.123,0.800,-8.710,-1.580
55,50163.327000,253.040,-3.535,-10.521,471.693,173.475,-55.060,-7.200,-9.710,0.420
56,50163.352000,252.054,-2.525,-10.521,471.686,174.259,-58.013,8.800,-7.710,-6.580
57,50163.406000,252.054,-2.525,-11.523,475.207,174.233,-58.996,-9.200,-8.710,-1.580
58,50163.438000,253.040,-3.535,-10.521,473.451,175.156,-56.985,-12.200,-7.710,-3.580
59,50163.452000,253.040,-0.505,-10.521,472.568,175.995,-57.954,-7.200,-5.710,2.420
60,50163.497000,254.027,-3.535,-9.519,470.799,167.314,-58.241,-3.200,-3.710,2.420
61,50163.537000,255.013,-3.535,-10.521,469.919,171.625,-59.097,-9.200,-0.710,6.420
62,50163.574000,253.040,-0.505,-10.521,471.677,166.418,-59.261,-0.200,0.290,2.420
63,50163.627000,255.013,-1.515,-12.524,474.324,168.185,-58.202,-6.200,3.290,8.420
64,50163.694000,253.040,-3.535,-5.511,470.802,174.230,-59.010,-5.200,0.290,7.420
65,50163.737000,255.013,-3.535,-9.519,471.682,173.362,-59.035,9.800,-0.710,10.420
66,50163.744000,254.027,-4.544,-8.517,470.800,172.494,-59.066,12.800,2.290,5.420
67,50163.782000,254.027,-3.535,-9.519,471.687,172.551,-57.076,3.800,-7.710,6.420
68,50163.798000,254.027,-4.544,-9.519,470.811,170.870,-55.147,2.800,-4.710,-0.580
69,50163.857000,251.067,0.505,-11.523,470.805,170.814,-57.135,4.800,-3.710,1.420
70,50163.886000,254.027,-4.544,-7.515,475.207,171.657,-58.086,-6.200,-15.710,1.420
71,50163.916000,253.040,-1.515,-10.521,471.682,173.362,-59.035,-1.200,-6.710,-2.580
72,50163.937000,253.040,-4.544,-7.515,474.326,175.100,-58.970,-4.200,-3.710,2.420
73,50163.978000,255.013,-3.535,-10.521,469.922,172.521,-58.075,-2.200,-3.710,-1.580
74,50164.16000,254.027,-2.525,-10.521,472.565,172.523,-58.067,-5.200,-1.710,-2.580
75,50164.57000,253.040,-3.535,-7.515,469.914,168.993,-60.176,-10.200,0.290,-3.580
76,50164.100000,253.040,-2.525,-10.521,469.922,171.653,-58.103,-3.200,4.290,-4.580
77,50164.136000,253.040,-4.544,-8.517,472.569,174.287,-57.016,2.800,-2.710,-3.580
78,50164.175000,255.013,-3.535,-8.517,474.328,174.261,-58.005,-0.200,-3.710,-1.580
79,50164.219000,253.040,-2.525,-8.517,469.915,166.417,-59.266,2.800,-10.710,-9.580
80,50164.255000,255.013,-3.535,-9.519,470.797,168.154,-59.207,-10.200,-14.710,0.420
81,50164.297000,254.027,-3.535,-11.523,470.801,169.050,-58.185,-9.200,-0.710,-6.580
82,50164.325000,252.054,-2.525,-9.519,472.559,171.599,-60.083,-2.200,5.290,0.420
83,50164.365000,253.040,-0.505,-9.519,472.565,171.655,-58.095,0.800,-4.710,-6.580
84,50164.399000,253.040,-3.535,-10.521,469.039,169.049,-58.191,6.800,-1.710,-7.580
85,50164.413000,253.040,-4.544,-8.517,472.566,174.259,-58.010,-13.200,-4.710,-5.580
86,50164.460000,253.040,-2.525,-10.521,474.332,175.157,-56.982,-18.200,-8.710,-10.580
87,50164.496000,254.027,-2.525,-9.519,472.571,176.891,-56.932,-26.200,7.290,-12.580
88,50164.536000,254.027,-0.505,-8.517,470.808,175.154,-56.994,-16.200,-0.710,-10.580
89,50164.582000,254.027,-3.535,-7.515,469.925,175.993,-57.962,-0.200,-1.710,-11.580
90,50164.616000,252.054,1.515,-14.528,470.804,173.390,-58.044,-6.200,10.290,-8.580
91,50164.656000,251.067,-4.544,-9.519,472.563,173.363,-59.032,-5.200,4.290,-6.580
92,50164.682000,254.027,0.505,-11.523,471.697,178.683,-54.890,-0.200,-1.710,-9.580
93,50164.737000,252.054,-1.515,-7.515,471.683,170.787,-58.126,-10.200,1.290,-12.580
94,50164.768000,252.054,0.505,-10.521,467.285,176.020,-56.977,-6.200,-9.710,-7.580
95,50164.821000,253.040,-2.525,-8.517,470.809,176.022,-56.966,-5.200,-10.710,-11.580
96,50164.837000,256.000,1.515,-10.521,471.691,174.315,-56.025,2.800,-2.710,-13.580
97,50164.877000,252.054,-1.515,-8.517,469.923,173.389,-58.047,-7.200,-0.710,-9.580
98,50164.899000,256.000,1.515,-11.523,469.928,176.890,-56.940,-3.200,-5.710,-13.580
99,50164.950000,254.027,-0.505,-10.521,472.572,182.071,-57.757,-11.200,-1.710,-9.580
100,50164.997000,256.000,-0.505,-10.521,469.925,180.305,-58.816,1.800,0.290,-16.580
101,50165.20000,252.054,-2.525,-7.515,469.049,178.625,-56.887,-19.200,-2.710,-15.580
102,50165.60000,254.027,0.505,-11.523,469.926,177.729,-57.906,1.800,-0.710,-14.580
103,50165.106000,253.040,-0.505,-10.521,471.696,176.947,-54.947,-5.200,0.290,-12.580
104,50165.142000,254.027,2.525,-11.523,469.926,176.861,-57.934,-1.200,-11.710,-14.580
105,50165.157000,254.027,-1.515,-10.521,470.805,174.258,-58.016,0.800,-7.710,-7.580
106,50165.198000,253.040,1.515,-12.524,468.172,176.945,-54.958,-3.200,2.290,-10.580
107,50165.239000,253.040,-0.505,-8.517,469.051,182.097,-56.774,0.800,-0.710,-11.580
108,50165.279000,256.000,0.505,-10.521,469.054,182.125,-55.780,-6.200,5.290,-5.580
109,50165.318000,253.040,-0.505,-7.515,469.056,181.285,-54.815,-7.200,1.290,-7.580
110,50165.361000,253.040,1.515,-11.523,465.533,181.283,-54.826,-5.200,-1.710,-7.580
111,50165.381000,254.027,0.505,-10.521,464.637,176.829,-58.945,-13.200,1.290,-3.580
112,50165.416000,255.013,0.505,-10.521,469.044,175.993,-57.965,-15.200,2.290,-4.580
113,50165.465000,255.013,0.505,-9.519,469.044,183.748,-59.700,-10.200,-2.710,-3.580
114,50165.495000,254.027,0.505,-9.519,469.058,183.021,-54.758,-19.200,0.290,-3.580
115,50165.540000,253.040,0.505,-7.515,468.170,182.096,-56.777,-5.200,-0.710,0.420
116,50165.607000,254.027,1.515,-10.521,467.295,182.152,-54.792,-12.200,-7.710,-2.580
117,50165.623000,253.040,0.505,-7.515,467.293,179.548,-54.877,-5.200,-18.710,-5.580
118,50165.639000,254.027,1.515,-13.526,469.041,171.653,-58.106,-6.200,-15.710,-8.580
119,50165.675000,254.027,0.505,-8.517,465.525,175.178,-56.017,-5.200,-11.710,-8.580
120,50165.726000,254.027,1.515,-9.519,467.288,183.803,-57.717,11.800,-12.710,-8.580
121,50165.760000,254.027,0.505,-7.515,469.929,185.513,-58.646,3.800,-11.710,-10.580
122,50165.811000,253.040,1.515,-10.521,466.407,183.803,-57.720,7.800,-9.710,-14.580
123,50165.835000,252.054,1.515,-10.521,468.171,182.964,-56.749,-2.200,-11.710,-9.580
124,50165.866000,255.013,2.525,-11.523,470.814,179.522,-55.859,-3.200,-13.710,-11.580
125,50165.896000,253.040,2.525,-9.519,465.521,180.302,-58.830,-2.200,-8.710,-5.580
126,50165.942000,255.013,1.515,-12.524,469.051,182.097,-56.774,-8.200,-5.710,-4.580
127,50165.978000,254.027,1.515,-9.519,468.168,182.068,-57.771,3.800,-2.710,-6.580
128,50166.23000,255.013,1.515,-12.524,467.281,186.323,-60.615,-1.200,4.290,3.420
129,50166.60000,252.054,2.525,-8.517,469.934,183.833,-56.715,2.800,1.290,-3.580
130,50166.106000,254.027,1.515,-11.523,466.412,186.435,-56.642,-9.200,-0.710,1.420
131,50166.130000,252.054,1.515,-10.521,466.405,185.511,-58.658,-8.200,3.290,-5.580
132,50166.160000,253.040,3.535,-12.524,464.650,186.434,-56.648,0.800,1.290,0.420
133,50166.198000,252.054,1.515,-8.517,469.048,181.201,-57.796,-2.200,-3.710,-2.580
134,50166.249000,252.054,2.525,-13.526,466.405,185.511,-58.658,-1.200,1.290,-1.580
135,50166.282000,254.027,0.505,-10.521,466.416,188.199,-55.592,-7.200,-0.710,0.420
136,50166.316000,255.013,1.515,-11.523,468.174,186.436,-56.636,-9.200,-4.710,1.420
137,50166.342000,254.027,3.535,-11.523,465.525,186.378,-58.633,-8.200,-1.710,5.420
138,50166.376000,253.040,2.525,-11.523,466.409,186.407,-57.636,0.800,-1.710,3.420
139,50166.421000,253.040,1.515,-11.523,465.528,179.518,-55.876,-0.200,0.290,2.420
140,50166.460000,251.067,2.525,-9.519,464.647,178.650,-55.907,-1.200,4.290,3.420
141,50166.497000,252.054,3.535,-10.521,465.526,183.802,-57.723,-2.200,6.290,8.420
142,50166.542000,249.094,2.525,-9.519,468.169,183.804,-57.715,6.800,2.290,4.420
143,50166.588000,254.027,1.515,-11.523,467.298,186.492,-54.651,-3.200,1.290,8.420
144,50166.598000,253.040,4.544,-12.524,469.060,185.625,-54.674,4.800,10.290,4.420
145,50166.638000,253.040,1.515,-9.519,467.294,183.860,-55.730,2.800,10.290,10.420
146,50166.683000,251.067,2.525,-11.523,466.409,182.963,-56.755,-3.200,3.290,9.420
147,50166.719000,253.040,1.515,-9.519,468.170,177.784,-55.924,1.800,3.290,4.420
148,50166.757000,253.040,1.515,-11.523,465.529,180.386,-55.848,-2.200,6.290,7.420
149,50166.803000,251.067,1.515,-8.517,467.291,184.700,-56.695,-3.200,-2.710,11.420
150,50166.818000,253.040,1.515,-12.524,467.294,183.860,-55.730,0.800,-4.710,9.420
151,50166.892000,253.040,0.505,-11.523,465.532,184.726,-55.707,8.800,6.290,7.420
152,50166.908000,252.054,1.515,-9.519,465.533,185.594,-55.679,3.800,-1.710,12.420
153,50166.960000,253.040,1.515,-9.519,467.286,181.199,-57.802,12.800,-10.710,11.420
154,50166.976000,253.040,1.515,-11.523,466.404,176.019,-56.980,7.800,0.290,12.420
155,50167.16000,252.054,1.515,-7.515,469.929,182.069,-57.765,5.800,-5.710,13.420
156,50167.70000,254.027,-0.505,-9.519,469.046,182.909,-58.734,0.800,-16.710,10.420
157,50167.103000,254.027,1.515,-10.521,465.531,178.679,-54.910,11.800,-6.710,7.420
158,50167.146000,253.040,0.505,-8.517,466.405,185.511,-58.658,0.800,-11.710,10.420
159,50167.171000,254.027,1.515,-7.515,467.288,180.360,-56.836,0.800,-24.710,9.420
160,50167.203000,253.040,0.505,-11.523,466.398,175.963,-58.968,2.800,-21.710,10.420
161,50167.239000,254.027,1.515,-9.519,465.517,175.962,-58.971,-3.200,-17.710,7.420
162,50167.280000,252.054,0.505,-7.515,466.409,179.519,-55.873,0.800,-24.710,9.420
163,50167.300000,251.067,1.515,-4.509,470.807,181.174,-58.784,-23.200,-37.710,3.420
164,50167.341000,252.054,0.505,-9.519,469.044,183.748,-59.700,-14.200,-82.710,1.420
165,50167.397000,254.027,0.505,-15.530,468.153,181.927,-62.741,-33.200,-84.710,1.420
166,50167.417000,252.054,-6.564,-10.521,465.507,181.029,-63.771,-26.200,-83.710,-3.580
167,50167.459000,252.054,0.505,-17.534,467.258,174.030,-65.979,15.800,-86.710,-12.580
168,50167.512000,252.054,-4.544,9.519,465.489,179.124,-69.791,96.800,-147.710,-15.580
169,50167.538000,256.000,-0.505,-27.554,469.006,178.202,-71.796,151.800,-180.710,-38.580
170,50167.560000,252.054,-7.574,-10.521,466.348,177.192,-76.802,3.800,-179.710,-62.580
171,50167.605000,252.054,1.515,-47.593,464.583,184.050,-79.564,230.800,-169.710,-99.580
172,50167.643000,248.108,12.623,-47.593,462.807,183.908,-84.539,63.800,-120.710,-105.580
173,50167.691000,259.946,-0.505,-14.528,461.921,184.719,-86.502,-28.200,-117.710,-54.580
174,50167.721000,249.094,10.604,-39.577,462.804,188.191,-86.386,-69.200,-68.710,-84.580
175,50167.767000,240.216,20.702,-24.548,460.157,189.001,-88.354,-240.200,13.290,-56.580
176,50167.782000,255.013,-7.574,-23.546,461.033,187.238,-89.402,-216.200,-109.710,-42.580
177,50167.822000,253.040,-5.554,-31.562,461.038,196.757,-90.086,-71.200,-114.710,-97.580
178,50167.867000,249.094,16.663,-34.568,457.514,201.067,-90.950,-49.200,-106.710,-80.580
179,50167.900000,254.027,2.525,-26.552,453.986,198.432,-92.040,46.800,-118.710,-90.580
180,50167.946000,247.121,3.535,-45.589,452.229,208.818,-92.702,-5.200,-108.710,-161.580
181,50167.980000,250.081,18.682,-24.548,451.331,209.517,-98.640,21.800,-82.710,-185.580
182,50168.20000,253.040,3.535,-21.542,447.809,211.250,-98.595,-48.200,-167.710,-178.580
183,50168.41000,252.054,-4.544,-19.538,444.270,214.551,-104.457,135.800,-191.710,-206.580
184,50168.86000,252.054,55.037,-44.587,442.509,223.173,-106.169,76.800,-236.710,-191.580
185,50168.119000,270.798,26.761,6.513,437.198,227.227,-115.984,-7.200,-451.710,-96.580
186,50168.160000,249.094,4.544,-69.636,438.940,226.164,-122.964,164.800,-270.710,-22.580
187,50168.200000,243.175,10.604,-89.675,433.654,230.472,-123.834,150.800,-75.710,-130.580
188,50168.241000,247.121,21.712,-87.671,432.756,219.102,-127.185,127.800,-92.710,-41.580
189,50168.268000,205.688,-82.304,-181.855,431.851,216.272,-135.224,226.800,-233.710,285.420
190,50168.315000,210.620,-34.840,-150.795,429.167,207.252,-147.441,287.800,-606.710,593.420
191,50168.352000,181.025,85.333,38.575,428.224,191.121,-165.841,112.800,-515.710,450.420
192,50168.383000,399.044,60.087,-13.526,430.058,201.318,-142.666,-376.200,826.290,-581.580
193,50168.417000,323.083,82.304,-95.687,427.425,206.580,-140.517,359.800,138.290,172.420
194,50168.458000,227.391,-19.692,-75.648,435.367,198.971,-133.788,71.800,386.290,230.420
195,50168.500000,253.040,14.643,-18.536,438.906,196.539,-127.897,77.800,369.290,73.420
196,50168.520000,260.933,12.623,-32.564,440.679,188.029,-122.210,-72.200,184.290,150.420
197,50168.563000,246.135,-3.535,-57.613,443.326,185.483,-120.298,3.800,199.290,140.420
198,50168.597000,256.000,7.574,-52.603,448.631,185.685,-113.324,-158.200,299.290,53.420
199,50168.638000,258.960,-6.564,-43.585,451.291,190.167,-108.205,-115.200,340.290,56.420
200,50168.688000,252.054,1.515,-38.575,454.847,187.904,-96.351,-245.200,366.290,11.420
201,50168.745000,256.987,2.525,-7.515,453.987,185.525,-88.487,-349.200,305.290,-42.580
202,50168.751000,256.987,5.554,-10.521,454.022,194.486,-78.266,-298.200,281.290,-62.580
203,50168.792000,245.148,4.544,13.526,445.225,188.573,-72.528,-387.200,161.290,-73.580
204,50168.822000,236.270,-14.643,21.542,449.644,195.605,-69.307,-175.200,-107.710,-65.580
205,50168.862000,240.216,8.584,47.593,446.970,191.849,-79.367,-214.200,-471.710,-90.580
206,50168.902000,258.960,22.722,49.597,444.305,204.557,-89.886,-321.200,-977.710,-117.580
207,50168.943000,277.703,6.564,-42.583,437.191,206.480,-113.679,-340.200,-1360.710,-97.580
208,50168.982000,458.235,100.481,16.532,430.092,205.968,-131.592,-228.200,-1187.710,6.420
209,50169.3000,493.750,125.728,67.632,420.333,211.304,-157.268,-113.200,-1402.710,-92.580
210,50169.67000,402.004,-4.544,-31.562,406.169,214.062,-182.048,-136.200,-1640.710,-616.580
211,50169.84000,268.825,42.919,-129.753,390.250,229.810,-207.406,636.800,-1062.710,-786.580
212,50169.123000,46.859,-146.935,-175.843,384.064,245.120,-217.852,210.800,-343.710,-515.580
213,50169.158000,24.170,19.692,0.501,380.503,237.863,-229.022,1592.800,178.290,-421.580
214,50169.206000,-7.399,57.057,-24.548,385.806,242.348,-223.894,782.800,1048.290,-485.580
215,50169.230000,-5.426,-63.116,-212.916,395.586,256.164,-195.611,14.800,1027.290,-417.580
216,50169.260000,49.819,88.363,-86.669,390.226,235.604,-217.148,1307.800,-393.710,-84.580
217,50169.300000,359.584,53.018,-144.783,389.355,241.736,-214.966,-168.200,-19.710,89.420
218,50169.340000,425.680,166.122,-112.720,390.252,240.170,-209.056,-753.200,202.290,-44.580
219,50169.382000,278.690,87.353,-91.679,390.287,252.575,-199.716,-782.200,-139.710,-188.580
220,50169.433000,144.524,-83.314,-227.945,387.622,253.216,-207.648,584.800,-188.710,-106.580
221,50169.463000,96.185,45.949,-43.585,383.158,238.846,-225.009,905.800,-106.710,329.420
222,50169.482000,63.630,55.037,-20.540,391.114,233.953,-214.220,-396.200,241.290,222.420
223,50169.522000,62.644,-34.840,-227.945,397.331,243.928,-198.981,-1427.200,667.290,206.420
224,50169.567000,152.416,-117.649,-353.190,403.537,240.883,-184.165,-56.200,330.290,82.420
225,50169.602000,255.013,-19.692,-36.571,409.718,225.517,-175.707,933.800,1249.290,261.420
226,50169.643000,511.507,142.895,25.550,419.478,223.625,-150.913,-292.200,1125.290,73.420
227,50169.683000,260.933,113.609,-57.613,424.812,231.863,-135.733,-541.200,910.290,95.420
228,50169.710000,230.351,-36.860,-259.006,430.147,234.082,-118.763,-593.200,293.290,66.420
229,50169.741000,253.040,-80.284,-281.049,417.788,241.575,-129.483,-1705.200,-1634.710,62.420
230,50169.781000,251.067,-56.047,-240.971,392.140,242.278,-165.290,-779.200,-2327.710,150.420
231,50169.818000,188.917,69.176,-208.908,372.685,241.532,-191.194,-626.200,-2481.710,-35.580
232,50169.861000,192.863,36.860,-166.826,339.992,247.438,-226.855,172.800,-1965.710,-141.580
233,50169.905000,191.877,68.166,-156.806,314.371,246.687,-252.779,345.800,-1500.710,-166.580
234,50169.939000,231.337,-9.594,-77.652,293.167,240.900,-272.895,360.800,-1097.710,-52.580
235,50169.966000,236.270,23.732,-21.542,284.317,227.564,-284.279,896.800,-457.710,85.420
236,50170.0,218.513,44.939,25.550,273.741,229.236,-286.244,110.800,-56.710,-8.580
237,50170.65000,174.119,-75.235,-30.560,287.009,236.668,-269.080,-261.200,851.290,284.420
238,50170.87000,344.786,-6.564,-69.636,302.055,243.403,-245.974,-1348.200,598.290,322.420
239,50170.122000,337.881,-13.633,22.544,314.452,238.880,-222.249,-434.200,699.290,382.420
240,50170.162000,339.854,2.525,-13.526,321.516,238.186,-216.291,386.800,376.290,163.420
241,50170.182000,353.665,37.870,-64.626,322.403,242.555,-215.154,-18.200,-185.710,-4.580
242,50170.221000,358.597,91.393,-83.663,311.816,243.246,-221.123,41.800,-489.710,-110.580
243,50170.262000,335.908,38.880,-77.652,299.435,243.627,-238.031,161.800,-787.710,-158.580
244,50170.301000,336.894,56.047,-9.519,287.047,239.639,-256.074,706.800,-972.710,-299.580
245,50170.348000,355.638,80.284,50.599,264.936,235.305,-286.076,36.800,-1570.710,-270.580
246,50170.382000,381.287,40.899,-71.640,233.148,235.418,-311.992,-836.200,-2170.710,-362.580
247,50170.427000,325.056,-17.673,-357.198,199.573,238.720,-347.740,282.800,-2221.710,-162.580
248,50170.443000,158.335,63.116,-94.685,189.830,236.469,-365.718,774.800,-1340.710,42.420
249,50170.485000,93.225,65.136,-29.558,192.450,232.802,-372.779,-385.200,373.290,28.420
250,50170.525000,49.819,13.633,-80.658,220.704,242.066,-352.528,-415.200,1546.290,-8.580
251,50170.570000,9.372,-38.880,-92.681,272.758,244.600,-325.468,40.800,2679.290,136.420
252,50170.610000,15.291,50.998,-122.740,332.817,242.721,-270.723,241.800,3636.290,65.420
253,50170.641000,59.684,-6.564,-198.888,369.945,239.704,-225.024,-36.200,3965.290,-219.580
254,50170.661000,177.079,-41.909,-293.072,410.667,240.837,-155.347,1075.800,3873.290,-336.580
255,50170.702000,295.461,-46.959,-342.168,437.211,233.388,-112.805,954.800,2243.290,-50.580
256,50170.753000,297.434,-147.945,-382.247,452.209,208.621,-99.659,276.800,688.290,941.420
257,50170.791000,351.692,339.819,83.663,456.616,208.653,-98.651,4.800,-15.710,444.420
258,50170.828000,336.894,95.432,-65.628,458.396,206.247,-91.772,496.800,23.290,144.420
259,50170.885000,271.784,-36.860,-38.575,461.906,199.221,-94.968,880.800,218.290,289.420
260,50170.913000,260.933,47.968,-42.583,467.195,192.366,-92.195,470.800,327.290,66.420
261,50170.924000,294.474,77.254,-57.613,469.844,188.980,-89.317,394.800,389.290,162.420
262,50170.962000,260.933,-21.712,-39.577,472.506,188.311,-82.379,179.800,491.290,186.420
263,50171.2000,260.933,30.801,-37.573,478.709,186.946,-69.495,16.800,585.290,83.420
264,50171.42000,246.135,-2.525,10.521,482.269,187.314,-56.563,-44.200,606.290,82.420
265,50171.80000,222.459,-6.564,57.613,481.397,183.087,-52.731,-40.200,313.290,6.420
266,50171.127000,221.472,-20.702,52.603,482.282,184.851,-51.677,73.800,-192.710,52.420
267,50171.162000,239.229,10.604,10.521,476.971,181.150,-59.759,-61.200,-404.710,31.420
268,50171.191000,256.000,-27.771,10.521,474.300,178.291,-68.797,315.800,-431.710,-27.580
269,50171.222000,258.960,10.604,-38.575,474.257,181.312,-84.587,109.800,-614.710,-129.580
270,50171.272000,256.000,2.525,-50.599,470.717,189.764,-92.268,224.800,-489.710,-97.580
271,50171.311000,255.013,5.554,-68.634,471.570,189.483,-102.204,225.800,-276.710,-110.580
272,50171.343000,259.946,-0.505,-28.556,469.805,189.454,-103.204,150.800,-150.710,-57.580
273,50171.382000,247.121,17.673,-38.575,469.781,190.936,-112.093,89.800,-201.710,-97.580
274,50171.405000,239.229,9.594,-18.536,464.496,191.800,-112.081,-23.200,-342.710,-53.580
275,50171.442000,257.973,-10.604,-27.554,460.055,188.855,-124.107,136.800,-431.710,-45.580
276,50171.481000,252.054,25.751,-45.589,459.136,186.752,-137.087,120.800,-501.710,-69.580
277,50171.527000,225.418,60.087,-56.611,456.461,186.440,-148.029,76.800,-520.710,17.420
278,50171.561000,261.919,-22.722,-60.618,448.509,192.229,-157.796,117.800,-461.710,-16.580
279,50171.601000,202.728,32.821,-96.689,445.855,192.114,-161.780,86.800,-506.710,-53.580
280,50171.643000,264.879,0.505,-55.609,442.299,195.246,-173.606,90.800,-385.710,35.420
281,50171.664000,221.472,-5.554,-114.724,436.982,190.620,-183.703,250.800,-541.710,-9.580
282,50171.702000,208.647,23.732,-112.720,433.444,190.477,-188.684,-48.200,-313.710,-68.580
283,50171.743000,282.636,-10.604,-62.622,436.081,190.422,-190.663,102.800,-343.710,45.420
284,50171.784000,209.634,-9.594,-149.793,429.892,190.193,-198.635,174.800,-99.710,-42.580
285,50171.823000,245.148,37.870,-110.716,433.433,190.364,-192.660,-76.200,328.290,-38.580
286,50171.861000,241.202,-2.525,-61.620,439.620,187.990,-184.773,-84.200,427.290,147.420
287,50171.891000,237.256,-18.682,-76.650,443.156,181.218,-179.024,-100.200,484.290,109.420
288,50171.926000,236.270,-0.505,-82.661,447.601,185.927,-165.948,-218.200,599.290,31.420
289,50171.962000,256.000,23.732,-95.687,452.062,193.381,-147.818,-376.200,787.290,24.420
290,50172.6000,255.013,28.781,-37.573,461.807,190.480,-128.021,-267.200,879.290,108.420
291,50172.46000,248.108,49.988,-54.607,463.606,190.847,-115.094,-238.200,879.290,203.420
292,50172.86000,261.919,19.692,-39.577,471.593,187.133,-93.343,-738.200,764.290,175.420
293,50172.126000,261.919,-4.544,-30.560,476.945,188.652,-70.438,-774.200,699.290,-17.580
294,50172.146000,247.121,2.525,-18.536,478.774,191.037,-47.516,-922.200,648.290,-133.580
295,50172.181000,231.337,-6.564,38.575,474.416,194.089,-31.543,-869.200,475.290,-173.580
296,50172.223000,233.310,-41.909,63.624,476.210,202.156,-22.339,-846.200,226.290,-139.580
297,50172.264000,236.270,-32.821,70.638,475.344,204.032,-17.316,-521.200,-66.710,-107.580
298,50172.305000,227.391,-47.968,72.642,470.911,208.059,-28.122,-14.200,-627.710,-56.580
299,50172.346000,253.040,8.584,21.542,469.966,208.278,-50.957,335.800,-876.710,-13.580
300,50172.366000,266.852,-2.525,-60.618,467.275,205.222,-66.952,293.800,-1036.710,83.420
301,50172.405000,364.516,36.860,7.515,464.572,203.760,-87.861,-389.200,-1010.710,39.420
302,50172.455000,423.707,216.615,-15.530,453.065,198.037,-105.958,-596.200,-1158.710,-51.580
303,50172.485000,321.110,170.162,-69.636,448.611,212.198,-126.365,-755.200,-1509.710,-401.580
304,50172.525000,280.663,21.712,-191.875,433.595,227.304,-143.797,273.800,-1153.710,-701.580
305,50172.565000,107.037,-200.458,-394.270,417.661,244.619,-175.062,145.800,-1556.710,-627.580
306,50172.608000,41.927,50.998,-163.820,384.049,248.423,-223.703,868.800,-2018.710,-569.580
307,50172.626000,-43.900,-52.008,-69.636,354.003,259.539,-259.186,-61.200,-1716.710,-646.580
308,50172.665000,-56.724,-33.830,-40.579,338.087,256.360,-279.200,941.800,-637.710,-455.580
309,50172.706000,56.724,47.968,-30.560,334.525,243.056,-289.573,641.800,635.290,-153.580
310,50172.762000,105.064,63.116,-303.092,346.903,237.467,-272.834,107.800,1206.290,149.420
311,50172.783000,461.195,137.846,-121.738,363.697,230.287,-251.167,-50.200,1138.290,414.420
312,50172.826000,275.730,59.077,-114.724,383.174,230.391,-217.340,-929.200,1536.290,309.420
313,50172.846000,256.000,17.673,-141.777,392.944,233.763,-190.388,-651.200,1607.290,205.420
314,50172.886000,266.852,-62.107,-231.953,392.981,246.196,-180.055,-41.200,486.290,-255.580
315,50172.926000,192.863,90.383,-209.910,376.169,241.140,-205.098,-135.200,-1619.710,244.420
316,50172.973000,194.836,34.840,-167.828,340.871,251.722,-228.699,-1750.200,-2533.710,60.420
317,50173.2000,238.243,34.840,-59.616,316.162,263.349,-246.275,-899.200,-2586.710,-133.580
318,50173.43000,284.609,104.521,-104.704,275.564,274.655,-274.835,-539.200,-2239.710,-397.580
319,50173.83000,232.324,-22.722,51.601,247.332,282.835,-291.541,-165.200,-1517.710,-287.580
320,50173.104000,185.958,-43.929,76.650,245.527,266.900,-302.986,1288.800,636.290,8.420
321,50173.144000,278.690,112.600,-235.961,251.690,257.385,-302.282,550.800,1159.290,-333.580
322,50173.183000,292.501,30.801,-111.718,246.431,259.371,-293.298,89.800,-90.710,318.420
323,50173.224000,325.056,110.580,-43.585,245.569,265.587,-288.134,-701.200,-220.710,46.420
324,50173.265000,345.773,70.185,-31.562,243.794,263.737,-292.172,-104.200,-417.710,37.420
325,50173.308000,332.948,96.442,-92.681,232.316,266.919,-302.035,-385.200,-841.710,7.420
326,50173.332000,339.854,21.712,-162.818,223.493,279.707,-309.592,-863.200,-1377.710,147.420
327,50173.372000,317.164,-0.505,-177.847,207.614,292.406,-320.154,-586.200,-1722.710,-19.580
328,50173.402000,171.160,54.028,-126.748,188.174,292.668,-341.061,-75.200,-1572.710,-36.580
329,50173.446000,174.119,68.166,-234.959,174.945,295.093,-346.982,-193.200,-964.710,-161.580
330,50173.495000,100.131,68.166,-141.777,171.434,297.807,-342.933,-513.200,-431.710,-67.580
331,50173.523000,37.981,53.018,-110.716,182.013,299.607,-340.855,-46.200,437.290,213.420
332,50173.566000,29.102,77.254,-120.736,219.913,291.209,-332.069,584.800,1725.290,306.420
333,50173.586000,42.913,45.949,-142.779,271.059,279.685,-311.427,551.800,2446.290,273.420
334,50173.626000,55.738,32.821,-123.742,309.011,276.105,-285.603,751.800,3193.290,263.420
335,50173.666000,95.198,19.692,-195.883,360.225,260.946,-240.254,1214.800,3444.290,73.420
336,50173.707000,164.254,-16.663,-256.000,403.522,246.762,-190.926,1349.800,3258.290,-2.580
337,50173.747000,211.607,-18.682,-300.086,428.281,234.774,-155.488,1350.800,2241.290,4.420
338,50173.786000,258.960,-154.004,-337.159,441.534,222.243,-138.971,657.800,1109.290,361.420
339,50173.807000,313.218,30.801,-216.924,450.327,196.237,-138.794,722.800,169.290,555.420
340,50173.847000,329.988,27.771,-1.503,456.519,192.184,-128.975,-866.200,290.290,244.420
341,50173.887000,302.366,157.034,-57.613,458.292,191.430,-125.022,688.800,371.290,10.420
342,50173.928000,268.825,4.544,-50.599,462.706,188.941,-121.117,254.800,297.290,105.420
343,50173.971000,250.081,-33.830,-41.581,460.952,187.289,-118.197,474.800,398.290,86.420
344,50174.6000,279.676,31.811,-43.585,470.657,183.993,-112.315,70.800,481.290,65.420
345,50174.45000,246.135,18.682,-50.599,471.562,182.511,-103.423,-65.200,362.290,127.420
346,50174.72000,253.040,-6.564,-14.528,475.981,175.767,-96.677,-147.200,176.290,87.420
347,50174.107000,258.960,-13.633,-26.552,480.393,181.007,-95.500,-25.200,72.290,19.420
348,50174.147000,228.378,24.742,-38.575,479.507,182.686,-97.434,-142.200,16.290,-37.580
349,50174.185000,241.202,4.544,-22.544,476.874,183.636,-94.433,-46.200,-5.710,45.420
350,50174.225000,244.162,-16.663,-34.568,475.990,183.607,-95.430,-7.200,55.290,21.420
351,50174.265000,259.946,-11.613,-12.524,475.985,180.107,-96.536,77.800,-39.710,-9.580
352,50174.290000,257.973,30.801,-55.609,475.978,178.315,-98.580,123.800,77.290,-37.580
353,50174.328000,242.189,-5.554,-36.571,475.107,184.447,-96.398,-55.200,142.290,24.420
354,50174.367000,267.838,-16.663,19.538,479.517,184.506,-94.396,-31.200,31.290,-26.580
355,50174.408000,250.081,1.515,-9.519,476.872,181.032,-94.517,8.800,-213.710,-47.580
356,50174.448000,235.283,18.682,-21.542,475.975,189.486,-102.190,220.800,-333.710,-72.580
357,50174.488000,262.906,-8.584,57.613,470.650,190.824,-116.065,37.800,-877.710,-83.580
358,50174.530000,229.364,0.505,-77.652,461.776,187.594,-138.044,535.800,-901.710,-124.580
359,50174.558000,238.243,-2.525,-58.614,452.925,195.789,-154.688,-34.200,-793.710,-245.580
360,50174.589000,272.771,2.525,-48.595,452.021,191.251,-161.789,460.800,-545.710,-80.580
361,50174.633000,235.283,9.594,-120.736,446.694,189.117,-175.777,303.800,-305.710,-71.580
362,50174.669000,243.175,-12.623,-119.734,444.060,197.823,-174.510,-105.200,-46.710,-167.580
363,50174.710000,241.202,3.535,-74.646,439.666,200.508,-171.458,11.800,-127.710,-179.580
364,50174.746000,243.175,28.781,-116.728,437.014,202.998,-175.358,70.800,143.290,-115.580
365,50174.767000,243.175,16.663,-110.716,438.796,207.508,-169.248,-3.200,303.290,-69.580
366,50174.813000,241.202,16.663,-89.675,438.812,205.941,-163.340,37.800,361.290,-69.580
367,50174.848000,241.202,35.850,-89.675,445.874,199.199,-156.586,10.800,498.290,60.420
368,50174.890000,253.040,45.949,-125.746,452.067,204.637,-148.445,-197.200,552.290,122.420
369,50174.926000,239.229,17.673,-28.556,453.874,204.221,-132.565,-285.200,494.290,183.420
370,50174.965000,240.216,-0.505,-25.550,459.197,201.147,-118.746,-315.200,514.290,194.420
371,50175.10000,242.189,-6.564,-30.560,465.403,200.678,-104.839,-146.200,635.290,176.420
372,50175.31000,259.946,7.574,-46.591,471.599,190.633,-92.237,-546.200,498.290,89.420
373,50175.63000,255.013,13.633,-22.544,473.390,191.784,-82.264,-343.200,606.290,31.420
374,50175.113000,262.906,-0.505,-27.554,475.205,194.896,-64.283,-487.200,507.290,4.420
375,50175.147000,250.081,-7.574,-14.528,474.363,197.866,-51.281,-528.200,504.290,-38.580
376,50175.225000,256.987,-18.682,4.509,479.692,206.916,-38.061,-402.200,444.290,-104.580
377,50175.267000,233.310,-13.633,43.585,477.062,208.762,-34.037,-150.200,204.290,-154.580
378,50175.275000,235.283,-0.505,56.611,475.308,212.289,-31.943,32.800,-44.710,-94.580
379,50175.295000,244.162,12.623,47.593,470.870,205.928,-42.093,90.800,-327.710,-62.580
380,50175.325000,239.229,25.751,-15.530,470.837,210.770,-54.845,244.800,-662.710,32.420
381,50175.366000,262.906,26.761,-54.607,468.166,206.175,-63.940,203.800,-706.710,18.420
382,50175.407000,275.730,6.564,-67.632,468.120,201.412,-78.989,29.800,-648.710,-70.580
383,50175.448000,314.204,47.968,6.513,464.569,203.732,-88.855,-91.200,-722.710,-135.580
384,50175.491000,395.098,129.767,-15.530,456.592,205.823,-106.687,-315.200,-843.710,-21.580
385,50175.512000,377.341,46.959,-13.526,445.979,222.640,-125.042,-584.200,-1143.710,-327.580
386,50175.556000,376.355,5.554,-51.601,435.359,229.041,-143.735,199.800,-1386.710,-575.580
387,50175.587000,261.919,-57.057,-144.783,412.387,242.152,-170.194,-235.200,-1364.710,-369.580
388,50175.625000,108.023,30.801,-107.710,402.620,244.828,-197.942,772.800,-921.710,-161.580
389,50175.666000,16.277,8.584,-34.568,392.013,246.191,-210.841,396.800,-368.710,-222.580
390,50175.707000,-7.399,23.732,-87.671,392.901,244.540,-207.913,74.800,465.290,-373.580
391,50175.728000,135.645,-94.422,-488.454,393.788,256.664,-208.509,1217.800,-73.710,-481.580
392,50175.768000,124.794,109.570,-174.841,385.809,245.820,-223.782,1406.800,74.290,-723.580
393,50175.808000,116.902,8.584,-231.953,378.751,254.326,-229.486,486.800,95.290,-820.580
394,50175.845000,136.632,-33.830,-192.877,379.616,252.449,-234.509,988.800,407.290,-551.580
395,50175.887000,199.769,-33.830,-191.875,378.705,242.676,-242.773,999.800,431.290,-78.580
396,50175.926000,296.447,39.890,-169.832,376.920,230.381,-248.143,405.800,113.290,23.420
397,50175.967000,245.148,-18.682,-195.883,371.625,229.425,-251.170,-799.200,-517.710,313.420
398,50175.987000,245.148,61.097,-199.890,365.436,233.507,-259.994,-760.200,-1080.710,749.420
399,50176.25000,280.663,47.968,-152.798,342.478,229.511,-278.071,-1179.200,-1630.710,780.420
400,50176.69000,273.757,25.751,-21.542,309.827,230.660,-297.998,-669.200,-1955.710,454.420
401,50176.115000,276.717,-30.801,-44.587,289.512,220.647,-314.276,-181.200,-1174.710,511.420
402,50176.148000,350.705,118.659,35.569,284.230,221.539,-313.271,-9.200,-185.710,340.420
403,50176.190000,378.328,38.880,89.675,287.790,221.040,-300.367,-616.200,1108.290,178.420
404,50176.207000,346.759,52.008,-65.628,303.700,223.294,-282.369,-126.200,911.290,18.420
405,50176.269000,273.757,28.781,-62.622,314.313,225.432,-268.364,-51.200,695.290,90.420
406,50176.289000,239.229,62.107,-91.679,323.124,223.731,-267.398,90.800,334.290,18.420
407,50176.330000,237.256,42.919,-99.695,323.131,229.835,-266.207,-126.200,127.290,5.420
408,50176.368000,233.310,20.702,-61.620,324.012,226.392,-265.323,-39.200,-274.710,-28.580
409,50176.409000,257.973,27.771,-33.566,315.167,227.755,-278.216,-94.200,-773.710,7.420
410,50176.450000,335.908,46.959,-16.532,294.869,232.554,-292.027,-400.200,-1374.710,143.420
411,50176.474000,392.139,44.939,-84.665,280.735,237.329,-306.812,-835.200,-2054.710,-40.580
412,50176.510000,383.260,13.633,-131.757,253.356,246.097,-333.426,-678.200,-2172.710,-170.580
413,50176.552000,312.231,58.067,-174.841,223.363,263.768,-351.816,-417.200,-1949.710,-188.580
414,50176.592000,120.848,47.968,-199.890,212.758,267.734,-364.630,64.800,-1090.710,74.420
415,50176.627000,66.590,45.949,-123.742,219.820,267.880,-359.637,-172.200,-135.710,346.420
416,50176.667000,20.224,49.988,-86.669,238.333,263.723,-353.755,133.800,987.290,550.420
417,50176.690000,12.331,61.097,-90.677,279.816,254.182,-324.142,29.800,2153.290,475.420
418,50176.738000,25.156,32.821,-137.769,331.027,246.750,-281.520,328.800,2861.290,309.420
419,50176.768000,65.603,17.673,-174.841,377.848,236.013,-233.062,555.800,3135.290,52.420
420,50176.807000,125.780,-35.850,-289.065,404.363,235.169,-202.222,1719.800,2857.290,-252.580
421,50176.846000,196.809,-32.821,-312.110,425.593,230.010,-170.546,1223.800,1947.290,-351.580
422,50176.888000,323.083,-58.067,-295.076,434.425,214.730,-159.097,1236.800,653.290,433.420
423,50176.928000,286.582,62.107,-41.581,441.440,194.602,-165.686,975.800,278.290,297.420
424,50176.952000,371.422,-104.521,-117.730,444.985,181.027,-155.192,-187.200,808.290,403.420
425,50176.991000,299.407,96.442,-73.644,456.485,187.534,-140.049,-235.200,476.290,-46.580
426,50177.36000,250.081,22.722,-53.605,458.253,172.948,-134.559,1088.800,712.290,-127.580
427,50177.71000,295.461,33.830,-17.534,461.806,181.856,-126.315,468.800,619.290,-111.580
428,50177.117000,241.202,-4.544,-47.593,469.742,181.078,-123.335,322.800,419.290,51.420
429,50177.155000,249.094,40.899,-56.611,471.521,181.249,-117.366,17.800,463.290,53.420
430,50177.173000,267.838,-9.594,4.509,474.190,182.372,-108.384,-212.200,211.290,62.420
431,50177.211000,246.135,11.613,-42.583,475.080,182.457,-105.400,-186.200,125.290,103.420
432,50177.246000,258.960,-36.860,-14.528,475.980,181.787,-98.468,-245.200,125.290,103.420
433,50177.293000,253.040,3.535,-19.538,476.854,176.551,-99.628,-10.200,136.290,53.420
434,50177.330000,254.027,-4.544,-11.523,476.857,175.712,-98.662,-80.200,3.290,46.420
435,50177.373000,235.283,-10.604,-38.575,478.625,177.505,-96.612,-158.200,-30.710,-0.580
436,50177.413000,264.879,10.604,1.503,478.632,186.185,-96.330,-46.200,-57.710,-68.580
437,50177.427000,230.351,-3.535,-55.609,476.860,187.807,-100.255,17.800,-176.710,-82.580
438,50177.466000,239.229,0.505,-58.614,472.448,192.899,-104.076,41.800,-69.710,-134.580
439,50177.516000,272.771,0.505,-25.550,468.923,192.029,-104.116,190.800,-34.710,-42.580
440,50177.546000,256.987,1.515,-14.528,471.563,191.135,-105.129,8.800,-126.710,-10.580
441,50177.586000,253.040,3.535,-23.546,468.010,186.538,-114.227,91.800,-254.710,-83.580
442,50177.626000,245.148,-21.712,-74.646,466.237,187.293,-118.180,124.800,-184.710,-149.580
443,50177.667000,244.162,-6.564,-54.607,464.478,198.519,-119.807,67.800,47.290,-250.580
444,50177.688000,248.108,65.136,-78.654,462.732,204.706,-115.640,-180.200,-0.710,-260.580
445,50177.756000,277.703,-13.633,18.536,458.323,210.695,-118.439,214.800,46.290,-141.580
446,50177.791000,237.256,19.692,-55.609,456.558,210.665,-119.439,-159.200,82.290,-212.580
447,50177.810000,260.933,17.673,-50.599,453.054,213.436,-113.402,-125.200,106.290,-180.580
448,50177.850000,244.162,32.821,-54.607,454.810,213.380,-115.384,59.800,121.290,-146.580
449,50177.888000,241.202,27.771,-50.599,452.195,224.860,-108.069,-111.200,244.290,-83.580
450,50177.912000,256.987,37.870,-30.560,454.849,224.974,-104.085,-172.200,131.290,-36.580
451,50177.990000,246.135,-0.505,10.521,456.623,225.956,-100.075,-60.200,-37.710,29.420
452,50178.11000,221.472,9.594,-18.536,452.201,220.604,-105.228,-9.200,-56.710,8.420
453,50178.50000,244.162,62.107,-26.552,454.837,223.994,-108.089,212.800,-100.710,4.420
454,50178.71000,231.337,52.008,-31.562,456.603,221.447,-106.180,-28.200,-101.710,8.420
455,50178.110000,259.946,12.623,-52.603,455.707,209.238,-108.565,-173.200,-7.710,149.420
456,50178.151000,252.054,61.097,-73.644,459.250,215.458,-103.387,-238.200,160.290,229.420
457,50178.167000,256.987,-4.544,-52.603,465.433,207.008,-95.697,-357.200,299.290,327.420
458,50178.213000,251.067,-42.919,-35.569,473.385,200.351,-85.958,-209.200,411.290,339.420
459,50178.248000,267.838,-8.584,-61.620,471.652,201.499,-75.996,-256.200,478.290,87.420
460,50178.288000,265.865,3.535,-63.624,475.210,201.840,-64.058,-335.200,380.290,-61.580
461,50178.328000,243.175,10.604,-9.519,474.353,207.245,-56.934,-219.200,392.290,-81.580
462,50178.368000,236.270,9.594,11.523,477.039,208.537,-41.989,-472.200,447.290,-69.580
463,50178.395000,252.054,1.515,19.538,477.063,206.186,-33.128,-335.200,295.290,-73.580
464,50178.430000,243.175,3.535,34.568,476.190,205.402,-30.177,-363.200,62.290,-82.580
465,50178.470000,222.459,30.801,74.646,477.073,205.431,-29.181,-154.200,-207.710,16.420
466,50178.516000,234.297,-2.525,88.673,475.295,209.573,-36.003,-14.200,-415.710,52.420
467,50178.552000,250.081,16.663,51.601,475.254,208.310,-49.946,64.800,-840.710,14.420
468,50178.596000,274.744,-12.623,-76.650,470.804,204.413,-64.981,354.800,-666.710,158.420
469,50178.631000,321.110,53.018,17.534,471.643,197.103,-78.125,-10.200,-640.710,164.420
470,50178.652000,412.855,158.043,4.509,468.963,192.423,-90.201,-502.200,-1014.710,136.420
471,50178.691000,413.842,150.974,8.517,461.861,199.638,-110.843,-990.200,-1258.710,-209.580
472,50178.731000,350.705,-2.525,-59.616,452.133,213.041,-127.320,96.800,-1428.710,-497.580
473,50178.772000,234.297,-152.994,-250.990,432.677,229.513,-157.630,-101.200,-1373.710,-400.580
474,50178.818000,41.927,-6.564,-69.636,419.372,232.914,-190.331,766.800,-1242.710,-205.580
475,50178.850000,-13.318,34.840,-178.849,404.353,243.680,-207.904,-26.200,-765.710,-696.580
476,50178.890000,96.185,-21.712,9.519,395.548,239.418,-205.091,744.800,630.290,-634.580
477,50178.908000,203.715,56.047,-204.900,394.661,245.381,-208.873,838.800,176.290,-411.580
478,50178.948000,146.497,110.580,-249.988,395.542,246.249,-208.842,138.800,193.290,-258.580
479,50178.993000,18.250,-43.929,-252.994,392.026,252.351,-207.662,-390.200,-204.710,-103.580
480,50179.31000,45.873,-124.718,-333.151,387.585,253.718,-220.541,454.800,-281.710,15.420
481,50179.72000,151.430,-48.978,-210.912,390.183,234.314,-232.085,764.800,-435.710,549.420
482,50179.118000,185.958,45.949,-198.888,376.933,232.230,-244.111,-1374.200,-985.710,451.420
483,50179.133000,191.877,4.544,-243.977,368.130,248.659,-245.592,-2289.200,-1155.710,589.420
484,50179.181000,290.528,69.176,-127.750,352.266,254.611,-249.422,-1867.200,-1171.710,687.420
485,50179.227000,293.487,87.353,-85.667,340.785,242.254,-256.810,-100.200,-691.710,450.420
486,50179.278000,379.314,48.978,21.542,332.849,243.899,-259.761,201.800,170.290,355.420
487,50179.311000,511.507,169.152,115.726,343.452,237.329,-247.032,143.800,917.290,-125.580
488,50179.333000,302.366,-85.333,71.640,350.558,243.945,-227.927,-9.200,895.290,-318.580
489,50179.372000,250.081,47.968,-48.595,354.969,252.629,-227.631,267.800,388.290,34.420
490,50179.388000,231.337,43.929,-71.640,354.114,257.193,-219.542,-690.200,-162.710,57.420
491,50179.433000,236.270,47.968,-89.675,352.359,262.428,-218.385,-413.200,-390.710,75.420
492,50179.472000,224.432,63.116,-69.636,346.175,265.699,-225.250,-315.200,-621.710,29.420
493,50179.520000,267.838,54.028,-33.566,332.919,259.247,-238.410,-477.200,-1255.710,-11.580
494,50179.550000,348.732,13.633,-60.618,324.935,260.414,-258.258,-178.200,-1544.710,-125.580
495,50179.596000,393.125,20.702,-132.759,297.554,273.465,-286.719,-128.200,-1946.710,-453.580
496,50179.611000,384.247,32.821,-164.822,270.169,279.600,-314.411,-68.200,-2017.710,-484.580
497,50179.654000,199.769,5.554,-219.930,251.601,274.599,-337.472,570.800,-1385.710,-325.580
498,50179.691000,107.037,44.939,-139.773,248.050,271.739,-346.513,598.800,-455.710,-124.580
499,50179.733000,23.183,25.751,-94.685,267.445,264.138,-339.746,417.800,958.290,164.420
500,50179.774000,6.412,46.959,-104.704,305.394,257.086,-314.036,297.800,1920.290,246.420
501,50179.808000,7.399,35.850,-129.753,346.027,248.723,-273.464,139.800,2566.290,187.420
502,50179.856000,20.224,8.584,-170.834,376.958,251.439,-239.516,466.800,2910.290,34.420
503,50179.871000,114.929,-24.742,-256.000,406.162,239.848,-190.148,1362.800,2832.290,-146.580
504,50179.916000,175.106,-48.978,-286.059,430.027,236.343,-161.389,1637.800,2097.290,-311.580
505,50179.952000,146.497,-140.876,-434.348,442.387,221.962,-148.907,1325.800,1043.290,-74.580
506,50179.992000,340.840,-24.742,-242.975,447.652,201.945,-151.526,779.800,176.290,702.420
507,50180.34000,317.164,168.142,16.532,454.738,191.985,-135.938,-1363.200,563.290,162.420
508,50180.73000,362.543,189.349,-43.585,460.952,191.600,-119.050,50.800,791.290,92.420
509,50180.92000,286.582,-48.978,-18.536,469.793,191.917,-108.089,-35.200,538.290,26.420
510,50180.129000,247.121,21.712,-44.587,473.328,180.833,-101.486,963.800,709.290,97.420
511,50180.175000,278.690,44.939,-47.593,476.879,187.136,-93.326,239.800,511.290,-18.580
512,50180.211000,276.717,2.525,-53.605,483.065,186.470,-86.377,96.800,578.290,80.420
513,50180.251000,254.027,15.653,-31.562,479.563,181.513,-77.612,-86.200,408.290,-93.580
514,50180.300000,264.879,-14.643,8.517,484.874,192.102,-71.294,-135.200,278.290,-23.580
515,50180.335000,239.229,-3.535,-10.521,484.004,188.770,-66.440,-23.200,176.290,-46.580
516,50180.351000,223.445,-0.505,-10.521,481.360,187.032,-66.505,75.800,128.290,-41.580
517,50180.391000,239.229,-12.623,26.552,482.244,190.505,-66.389,162.800,20.290,-9.580
518,50180.431000,255.013,20.702,-20.540,480.474,194.731,-70.229,622.800,-45.710,-68.580
519,50180.475000,254.027,19.692,-23.546,480.456,186.806,-74.459,12.800,-327.710,-24.580
520,50180.515000,255.013,-4.544,-18.536,478.665,184.787,-84.460,-42.200,-294.710,-60.580
521,50180.560000,256.000,13.633,-42.583,478.663,193.383,-87.160,-57.200,-248.710,-90.580
522,50180.575000,241.202,42.919,-54.607,475.126,190.663,-91.231,-223.200,-164.710,-18.580
523,50180.618000,259.946,14.643,14.528,474.229,195.674,-98.023,-178.200,-266.710,32.420
524,50180.650000,252.054,-9.594,-32.564,472.465,197.380,-98.966,25.800,-388.710,73.420
525,50180.693000,248.108,-16.663,-69.636,467.153,196.255,-107.956,-74.200,-359.710,0.420
526,50180.735000,267.838,8.584,-5.511,464.490,196.056,-114.922,-56.200,-450.710,-85.580
527,50180.780000,259.946,-13.633,-35.569,463.582,200.953,-125.689,-22.200,-551.710,-35.580
528,50180.815000,229.364,-64.126,-90.677,460.050,201.734,-128.654,140.800,-330.710,-192.580
529,50180.835000,263.892,53.018,-81.659,455.631,205.034,-134.519,170.800,-228.710,-316.580
530,50180.875000,240.216,42.919,-124.744,453.855,204.892,-139.494,43.800,64.290,18.420
531,50180.915000,244.162,-17.673,-71.640,455.634,208.506,-134.407,65.800,350.290,125.420
532,50180.955000,256.987,6.564,-50.599,461.825,207.028,-125.498,-88.200,431.290,-33.580
533,50181.15000,240.216,25.751,-40.579,463.604,208.066,-119.500,49.800,412.290,7.420
534,50181.31000,247.121,34.840,-23.546,467.152,206.586,-110.600,-62.200,354.290,115.420
535,50181.51000,248.108,10.604,-43.585,467.174,205.076,-102.705,-114.200,302.290,149.420
536,50181.90000,243.175,5.554,-30.560,470.704,202.559,-99.797,-104.200,188.290,98.420
537,50181.135000,250.081,27.771,-24.548,471.598,196.652,-94.027,-45.200,197.290,83.420
538,50181.182000,248.108,-22.722,-3.507,473.372,198.502,-89.990,-17.200,115.290,115.420
539,50181.212000,256.000,29.791,-21.542,475.140,198.560,-87.996,-1.200,24.290,32.420
540,50181.252000,259.946,-17.673,-68.634,476.890,190.693,-90.232,-174.200,73.290,70.420
541,50181.291000,258.960,0.505,-64.626,476.915,197.834,-83.049,-180.200,296.290,-33.580
542,50181.312000,264.879,30.801,-44.587,479.589,200.722,-73.017,-216.200,323.290,-163.580
543,50181.355000,250.081,5.554,-29.558,479.629,206.296,-59.927,-331.200,357.290,-134.580
544,50181.397000,247.121,-8.584,-5.511,480.524,209.013,-55.864,-115.200,377.290,-137.580
545,50181.432000,244.162,7.574,24.548,477.890,206.520,-51.981,-50.200,269.290,-169.580
546,50181.475000,237.256,-15.653,34.568,474.383,205.818,-46.057,4.800,108.290,-82.580
547,50181.517000,268.825,54.028,24.548,475.250,206.546,-50.996,-129.200,-260.710,-134.580
548,50181.561000,245.148,16.663,12.524,469.071,216.760,-57.635,-105.200,-533.710,-3.580
549,50181.570000,262.906,7.574,-24.548,466.390,213.788,-70.649,42.800,-575.710,-77.580
550,50181.613000,268.825,34.840,-57.613,464.614,221.402,-77.359,-152.200,-554.710,-160.580
551,50181.653000,278.690,61.097,-84.665,458.425,222.908,-85.274,-51.200,-349.710,-128.580
552,50181.693000,285.595,104.521,-74.646,457.510,222.569,-97.203,-102.200,-544.710,-12.580
553,50181.738000,272.771,-12.623,-160.814,448.626,224.406,-123.983,-745.200,-1634.710,-33.580
554,50181.772000,304.339,-23.732,-275.037,433.566,229.598,-154.646,-887.200,-2725.710,130.420
555,50181.793000,240.216,1.515,-189.871,402.575,237.490,-212.082,-901.200,-3206.710,101.420
556,50181.835000,157.349,56.047,-70.638,360.138,239.410,-265.777,-209.200,-2822.710,-36.580
557,50181.885000,35.021,36.860,-163.820,328.286,231.987,-312.791,655.800,-1837.710,-116.580
558,50181.916000,102.104,-32.821,-84.665,310.617,226.316,-328.919,1134.800,-954.710,-43.580
559,50181.961000,74.482,50.998,-185.863,297.335,206.675,-348.466,496.800,-304.710,-160.580
560,50181.992000,138.605,45.949,-224.939,289.402,216.104,-352.158,-272.200,-185.710,-286.580
561,50182.35000,223.445,-19.692,-196.885,275.311,226.482,-352.859,-198.200,-386.710,-213.580
562,50182.53000,178.066,107.550,-176.845,261.206,232.407,-357.677,-302.200,-437.710,-208.580
563,50182.93000,210.620,-22.722,-160.814,252.391,239.232,-361.456,-110.200,-573.710,-123.580
564,50182.135000,176.092,23.732,-128.751,242.652,224.102,-374.887,791.800,-180.710,-33.580
565,50182.171000,134.659,41.909,-101.699,240.903,225.950,-370.860,-192.200,268.290,38.420
566,50182.213000,193.850,-38.880,-46.591,252.398,225.513,-355.943,-328.200,886.290,73.420
567,50182.257000,239.229,35.850,-329.143,267.399,217.153,-345.243,128.800,1240.290,-116.580
568,50182.273000,207.661,52.008,-83.663,281.548,222.011,-327.166,-107.200,1234.290,72.420
569,50182.313000,285.595,9.594,-108.712,293.970,234.960,-298.903,-1021.200,1081.290,236.420
570,50182.353000,286.582,-10.604,-31.562,302.849,248.578,-277.579,-1154.200,425.290,239.420
571,50182.395000,250.081,35.850,-91.679,306.390,256.506,-273.339,-679.200,75.290,201.420
572,50182.432000,253.040,54.028,-103.703,302.905,266.361,-262.107,-992.200,-200.710,234.420
573,50182.473000,242.189,33.830,-88.673,304.687,270.871,-255.997,-996.200,-450.710,340.420
574,50182.513000,250.081,61.097,-88.673,301.170,280.417,-255.699,-650.200,-681.710,277.420
575,50182.540000,249.094,81.294,-82.661,293.216,280.157,-264.670,-671.200,-1048.710,185.420
576,50182.573000,306.312,82.304,-94.685,280.872,289.527,-270.363,-570.200,-1387.710,27.420
577,50182.616000,362.543,72.205,-102.701,265.856,296.010,-286.089,-604.200,-1733.710,-135.580
578,50182.656000,309.272,-0.505,-151.796,240.244,304.835,-310.709,129.800,-1789.710,-389.580
579,50182.696000,229.364,54.028,-234.959,218.988,284.738,-346.184,1709.800,-1281.710,-500.580
580,50182.737000,142.551,64.126,-176.845,211.882,271.234,-363.526,1103.800,-741.710,-222.580
581,50182.772000,61.657,57.057,-107.710,218.917,265.946,-366.654,265.800,517.290,35.420
582,50182.801000,28.116,40.899,-111.718,252.462,266.647,-342.692,-272.200,1481.290,165.420
583,50182.847000,21.210,15.653,-119.734,296.618,267.749,-304.781,-500.200,2270.290,244.420
584,50182.873000,45.873,67.156,-164.822,332.826,270.385,-273.797,166.800,2993.290,260.420
585,50182.917000,78.428,31.811,-209.910,379.664,263.260,-220.256,649.800,3058.290,151.420
586,50182.958000,159.322,11.613,-245.980,407.964,243.688,-177.109,1712.800,2855.290,-136.580
587,50182.994000,206.674,-0.505,-265.018,428.304,238.443,-148.418,2180.800,2249.290,-343.580
588,50183.13000,203.715,-9.594,-247.984,438.021,229.241,-136.769,1902.800,1570.290,-301.580
589,50183.53000,322.096,-62.107,-228.947,449.485,217.294,-130.169,681.800,662.290,510.420
590,50183.96000,304.339,-28.781,-64.626,456.543,194.145,-120.968,222.800,568.290,368.420
591,50183.136000,334.921,73.215,-96.689,463.639,193.761,-104.077,-462.200,583.290,175.420
592,50183.176000,339.854,82.304,14.528,469.849,202.812,-90.854,450.800,653.290,96.420
593,50183.213000,223.445,-32.821,-20.540,474.254,199.371,-89.959,414.800,481.290,198.420
594,50183.237000,267.838,54.028,-26.552,475.151,195.229,-83.139,588.800,520.290,12.420
595,50183.276000,283.622,97.452,-21.542,476.926,193.635,-78.220,-23.200,257.290,117.420
596,50183.316000,256.987,-19.692,-24.548,482.231,192.968,-71.274,204.800,258.290,65.420
597,50183.356000,251.067,23.732,-27.554,479.583,186.022,-71.508,-49.200,196.290,3.420
598,50183.397000,248.108,-32.821,-1.503,483.114,187.817,-69.452,-16.200,16.290,41.420
599,50183.441000,241.202,0.505,-22.544,481.363,187.060,-65.511,80.800,48.290,-29.580
600,50183.476000,243.175,6.564,-1.503,482.232,186.080,-69.512,191.800,-11.710,26.420
601,50183.496000,237.256,8.584,-48.595,483.993,192.101,-71.297,570.800,39.290,-77.580
602,50183.536000,249.094,14.643,-20.540,483.102,191.148,-74.309,-90.200,-127.710,31.420
603,50183.581000,251.067,-5.554,-31.562,482.220,189.411,-74.368,-201.200,-93.710,-10.580
604,50183.621000,244.162,13.633,-21.542,482.214,191.931,-77.266,-140.200,-114.710,-48.580
605,50183.655000,244.162,3.535,11.523,480.447,193.609,-79.203,-98.200,-247.710,-46.580
606,50183.696000,233.310,-5.554,-26.552,477.773,188.986,-89.291,12.800,-395.710,4.420
607,50183.720000,250.081,6.564,-45.589,475.993,191.391,-96.170,163.800,-290.710,-2.580
608,50183.761000,254.027,1.515,-55.609,474.217,191.249,-101.145,-34.200,-335.710,24.420
609,50183.796000,262.906,-38.880,-51.601,468.910,192.756,-109.057,88.800,-332.710,-61.580
610,50183.832000,233.310,54.028,-78.654,468.022,198.719,-112.839,224.800,-112.710,-182.580
611,50183.880000,246.135,60.087,-70.638,468.030,202.247,-110.738,-121.200,-43.710,-20.580
612,50183.915000,259.946,-33.830,-25.550,464.489,198.632,-115.832,179.800,-69.710,-2.580
613,50183.960000,249.094,-7.574,-67.632,464.492,198.660,-114.838,1.800,55.290,-187.580
614,50183.976000,242.189,57.057,-55.609,466.257,202.133,-114.719,170.800,179.290,-102.580
615,50184.20000,244.162,5.554,-67.632,466.270,200.538,-109.806,163.800,245.290,88.420
616,50184.53000,245.148,17.673,-59.616,468.053,202.472,-102.787,-61.200,294.290,31.420
617,50184.97000,244.162,29.791,-41.581,469.828,201.746,-97.840,-109.200,272.290,21.420
618,50184.155000,245.148,-13.633,-12.524,475.123,198.391,-93.960,-131.200,193.290,129.420
619,50184.183000,248.108,-8.584,-10.521,472.495,195.954,-88.089,-4.200,176.290,69.420
620,50184.218000,246.135,20.702,-35.569,474.248,191.559,-90.212,-6.200,102.290,43.420
621,50184.233000,256.987,43.929,-21.542,472.489,191.586,-89.224,-111.200,-121.710,5.420
622,50184.276000,252.054,-30.801,-39.577,476.891,191.561,-90.204,122.800,-13.710,60.420
623,50184.317000,255.013,9.594,-61.620,477.775,192.458,-89.179,-96.200,143.290,-5.580
624,50184.357000,268.825,47.968,-56.611,477.800,195.287,-81.143,-217.200,317.290,-22.580
625,50184.396000,256.000,8.584,-51.601,483.120,195.629,-69.199,-450.200,381.290,-27.580
626,50184.435000,249.094,-7.574,-17.534,482.286,194.371,-52.362,-553.200,531.290,-39.580
627,50184.456000,252.054,-0.505,-4.509,484.081,197.286,-41.338,-578.200,478.290,-135.580
628,50184.498000,235.283,-19.692,11.523,483.235,201.935,-30.267,-405.200,394.290,-111.580
629,50184.543000,237.256,7.574,36.571,482.374,206.444,-24.166,-132.200,175.290,-81.580
630,50184.577000,244.162,8.584,41.581,480.621,207.395,-21.162,-119.200,-90.710,-46.580
631,50184.621000,246.135,1.515,35.569,477.074,209.743,-30.034,-15.200,-350.710,-16.580
632,50184.656000,241.202,9.594,24.548,475.284,206.884,-39.069,-51.200,-705.710,-0.580
633,50184.697000,281.649,-3.535,20.540,476.113,196.886,-55.279,-115.200,-942.710,32.420
634,50184.717000,327.029,77.254,-10.521,467.252,207.572,-75.813,-99.200,-1102.710,-18.580
635,50184.757000,384.247,142.895,-21.542,460.147,210.448,-96.595,-411.200,-1053.710,-166.580
636,50184.796000,322.096,44.939,-49.597,451.302,216.123,-110.341,-38.200,-1175.710,-407.580
637,50184.838000,341.827,27.771,-105.706,438.906,231.005,-135.716,-3.200,-1110.710,-531.580
638,50184.877000,167.214,-108.560,-176.845,426.550,245.414,-147.204,-447.200,-843.710,-100.580
639,50184.915000,141.565,-7.574,-111.718,417.693,245.797,-164.101,563.800,-551.710,-85.580
640,50184.936000,98.158,-57.057,-20.540,413.263,239.521,-171.270,653.800,-174.710,-104.580
641,50184.977000,178.066,1.515,-253.996,412.382,246.408,-173.035,499.800,344.290,-419.580
642,50185.16000,72.509,-21.712,-88.673,412.382,246.408,-173.035,376.800,485.290,-240.580
643,50185.57000,135.645,22.722,-202.896,409.752,252.566,-169.864,198.800,260.290,-392.580
644,50185.101000,117.888,14.643,-219.930,413.278,248.285,-168.006,56.800,285.290,-353.580
645,50185.138000,132.686,-63.116,-274.035,413.274,253.409,-170.819,527.800,377.290,-176.580
646,50185.178000,301.380,25.751,-189.871,416.780,244.619,-175.065,293.800,-308.710,221.420
647,50185.198000,311.245,2.525,-157.808,408.808,239.010,-189.174,-687.200,-966.710,298.420
648,50185.233000,247.121,-3.535,-178.849,397.279,234.798,-215.166,-943.200,-1348.710,565.420
649,50185.301000,230.351,56.047,-168.830,385.763,229.858,-236.216,-1246.200,-1830.710,657.420
650,50185.317000,254.027,33.830,-142.779,357.504,228.293,-260.189,-1358.200,-1904.710,652.420
651,50185.355000,283.622,49.988,-66.630,337.173,226.734,-284.136,-660.200,-1678.710,608.420
652,50185.407000,325.056,-5.554,-48.595,314.232,234.975,-298.837,-1017.200,-1227.710,234.420
653,50185.425000,303.353,-5.554,-14.528,308.933,236.567,-303.767,-25.200,-458.710,341.420
654,50185.456000,308.285,53.018,-13.526,299.240,233.087,-303.911,-11.200,60.290,16.420
655,50185.498000,290.528,25.751,17.534,307.196,238.527,-295.766,177.800,781.290,-115.580
656,50185.538000,260.933,59.077,-133.761,319.566,238.902,-282.805,154.800,918.290,-54.580
657,50185.576000,211.607,35.850,-82.661,321.339,234.704,-277.970,-295.200,272.290,42.420
658,50185.620000,213.580,16.663,-129.753,324.010,241.875,-269.785,-211.200,54.290,24.420
659,50185.657000,201.742,9.594,-106.708,324.878,240.895,-273.786,-9.200,-82.710,-21.580
660,50185.676000,213.580,25.751,-114.724,318.687,238.061,-281.842,110.800,-292.710,-28.580
661,50185.717000,243.175,61.097,-113.722,310.722,238.557,-294.760,-55.200,-884.710,-62.580
662,50185.755000,323.083,9.594,-52.603,299.255,249.608,-302.382,-410.200,-1353.710,-28.580
663,50185.795000,379.314,2.525,-81.659,271.881,253.252,-326.184,92.800,-1752.710,-351.580
664,50185.837000,359.584,-3.535,-148.791,243.605,248.942,-355.211,544.800,-1745.710,-380.580
665,50185.876000,239.229,46.959,-193.879,221.507,240.438,-379.389,776.800,-1304.710,-392.580
666,50185.901000,128.740,18.682,-103.703,218.856,236.908,-381.498,161.800,-184.710,-166.580
667,50185.936000,62.644,19.692,-90.677,232.970,235.379,-374.552,-110.200,816.290,-32.580
668,50185.981000,50.805,13.633,-84.665,270.058,246.611,-346.265,-110.200,1724.290,88.420
669,50186.22000,47.846,29.791,-103.703,317.749,247.829,-304.367,-47.200,2771.290,72.420
670,50186.56000,91.252,32.821,-136.767,356.607,237.615,-267.833,384.800,3408.290,43.420
671,50186.98000,174.119,-5.554,-200.892,400.843,240.374,-202.064,748.800,3605.290,32.420
672,50186.137000,289.541,-39.890,-272.031,434.500,228.398,-135.815,1169.800,3284.290,-85.580
673,50186.156000,276.717,-123.708,-356.196,452.238,221.838,-92.279,1072.800,2112.290,-78.580
674,50186.198000,301.380,-68.166,-315.115,458.407,205.492,-87.825,968.800,669.290,572.420
675,50186.250000,319.137,184.300,60.618,464.600,210.930,-79.685,-2224.200,-323.710,115.420
676,50186.277000,273.757,-92.402,-150.795,468.151,205.166,-68.937,600.800,428.290,250.420
677,50186.318000,262.906,39.890,-8.517,468.154,206.062,-67.915,771.800,420.290,-109.580
678,50186.357000,272.771,37.870,-22.544,469.054,201.080,-60.130,510.800,379.290,80.420
679,50186.376000,250.081,19.692,-56.611,475.209,200.972,-64.086,314.800,403.290,204.420
680,50186.417000,258.960,4.544,-35.569,478.767,192.689,-50.441,98.800,530.290,176.420
681,50186.458000,266.852,14.643,-14.528,484.076,190.342,-41.564,7.800,507.290,124.420
682,50186.496000,253.040,20.702,-5.511,487.629,188.051,-30.704,-124.200,393.290,91.420
683,50186.535000,256.000,-25.751,26.552,490.286,187.325,-25.754,-139.200,235.290,67.420
684,50186.580000,240.216,-27.771,32.564,493.832,194.441,-19.554,-184.200,50.290,-13.580
685,50186.618000,239.229,0.505,11.523,490.294,190.854,-23.653,-30.200,-52.710,-57.580
686,50186.635000,253.040,-2.525,-11.523,487.653,193.456,-23.577,10.800,-109.710,24.420
687,50186.680000,258.960,-9.594,-0.501,489.399,191.580,-28.598,-81.200,-116.710,-15.580
688,50186.737000,248.108,-23.732,19.538,487.630,189.787,-30.647,41.800,-101.710,-46.580
689,50186.755000,245.148,-25.751,11.523,488.504,187.995,-32.689,192.800,-177.710,-49.580
690,50186.805000,273.757,59.077,-4.509,487.606,194.713,-40.417,291.800,-295.710,-135.580
691,50186.843000,243.175,-12.623,10.521,481.399,194.314,-54.352,-111.200,-538.710,26.420
692,50186.857000,251.067,-0.505,-16.532,477.855,196.690,-62.230,-78.200,-682.710,-60.580
693,50186.900000,244.162,7.574,-41.581,470.763,201.414,-78.981,137.800,-656.710,-64.580
694,50186.942000,259.946,-2.525,-43.585,468.072,201.801,-95.858,121.800,-651.710,-73.580
695,50186.978000,242.189,6.564,-85.667,465.410,199.027,-101.914,61.800,-447.710,-111.580
696,50187.16000,263.892,26.761,-62.622,465.409,205.046,-103.705,56.800,-143.710,-83.580
697,50187.60000,250.081,-2.525,-54.607,462.750,202.299,-108.767,99.800,-90.710,-34.580
698,50187.120000,244.162,9.594,-75.648,462.753,206.639,-108.626,45.800,-35.710,-34.580
699,50187.126000,254.027,22.722,-73.644,461.879,207.563,-106.613,1.800,167.290,-45.580
700,50187.157000,236.270,27.771,-71.640,464.536,207.706,-101.635,-12.200,244.290,8.420
701,50187.201000,251.067,-4.544,-35.569,464.541,203.450,-98.794,108.800,273.290,27.420
702,50187.238000,246.135,11.613,-28.556,465.439,203.620,-92.828,6.800,227.290,12.420
703,50187.276000,249.094,9.594,-33.566,468.085,204.518,-91.797,-35.200,113.290,42.420
704,50187.317000,247.121,16.663,-59.616,467.215,208.074,-88.706,26.800,137.290,61.420
705,50187.340000,252.054,42.919,-60.618,474.275,205.616,-83.798,-80.200,235.290,96.420
706,50187.380000,251.067,1.515,-34.568,474.297,204.105,-75.903,-235.200,244.290,180.420
707,50187.421000,255.013,4.544,-42.583,475.194,195.651,-68.231,19.800,318.290,94.420
708,50187.463000,256.987,-0.505,-39.577,476.987,199.406,-58.173,-278.200,317.290,62.420
709,50187.506000,260.933,10.604,-41.581,478.767,197.001,-51.294,-157.200,392.290,16.420
710,50187.538000,258.960,20.702,-34.568,483.186,190.257,-44.548,-309.200,385.290,-12.580
711,50187.577000,253.040,-3.535,-15.530,483.224,194.935,-32.480,-289.200,392.290,-37.580
712,50187.601000,251.067,4.544,-8.517,488.546,198.749,-20.424,-286.200,476.290,-88.580
713,50187.637000,252.054,2.525,10.521,485.936,204.237,-10.324,-436.200,431.290,-106.580
714,50187.681000,236.270,0.505,49.597,484.208,205.441,1.625,-354.200,313.290,-103.580
715,50187.720000,238.243,-1.515,58.614,481.573,207.232,3.661,-211.200,4.290,-57.580
716,50187.757000,238.243,5.554,43.585,479.804,205.438,1.611,-41.200,-266.710,-41.580
717,50187.801000,241.202,0.505,70.638,479.785,202.665,-4.437,-103.200,-729.710,-72.580
718,50187.830000,260.933,-6.564,24.548,478.849,209.017,-25.087,16.800,-998.710,-90.580
719,50187.862000,309.272,27.771,-28.556,470.851,210.043,-49.904,-62.200,-1145.710,-130.580
720,50187.896000,349.719,70.185,-6.513,466.397,216.449,-68.577,-399.200,-1018.710,-88.580
721,50187.937000,421.734,138.856,32.564,457.533,226.239,-90.133,-538.200,-1299.710,-367.580
722,50187.992000,304.339,26.761,-59.616,442.501,230.844,-110.885,-205.200,-1326.710,-549.580
723,50188.26000,244.162,-43.929,-150.795,423.948,244.099,-132.360,396.800,-876.710,-578.580
724,50188.62000,119.861,-132.797,-198.888,412.433,246.915,-155.144,874.800,-723.710,-138.580
725,50188.81000,134.659,55.037,16.532,409.724,237.641,-176.307,1753.800,-243.710,40.420
726,50188.120000,29.102,54.028,-155.804,411.484,241.926,-178.148,-304.200,245.290,-146.580
727,50188.157000,129.726,-14.643,-88.673,411.484,246.238,-179.001,431.800,-78.710,-174.580
728,50188.197000,130.713,-19.692,-303.092,408.802,238.954,-191.162,1161.800,100.290,-290.580
729,50188.245000,158.335,-5.554,-296.078,399.915,221.808,-214.586,1611.800,-457.710,-84.580
730,50188.277000,207.661,-34.840,-247.984,393.696,216.984,-231.643,-322.200,-1275.710,145.420
731,50188.297000,197.796,-10.604,-233.957,375.105,211.758,-262.655,-1156.200,-1646.710,554.420
732,50188.337000,119.861,27.771,-232.955,350.359,214.395,-291.445,-1207.200,-1924.710,539.420
733,50188.380000,139.592,69.176,-184.861,319.445,217.028,-320.256,-1042.200,-1888.710,440.420
734,50188.426000,167.214,46.959,-27.554,297.346,203.344,-343.609,503.800,-989.710,536.420
735,50188.465000,267.838,35.850,-27.554,292.911,188.387,-351.060,627.800,311.290,813.420
736,50188.497000,415.815,33.830,-37.573,311.468,170.877,-326.744,-65.200,1811.290,488.420
737,50188.540000,511.507,-145.925,64.626,328.283,179.405,-301.588,234.800,1220.290,-289.580
738,50188.558000,209.634,80.284,-23.546,343.305,175.555,-284.784,364.800,1033.290,-297.580
739,50188.598000,267.838,122.698,-47.593,348.610,183.512,-279.544,-220.200,512.290,10.420
740,50188.638000,269.811,46.959,-58.614,355.681,187.186,-272.451,-585.200,61.290,54.420
741,50188.677000,251.067,-45.949,-45.589,350.395,190.626,-273.350,-82.200,-216.710,-95.580
742,50188.720000,249.094,-57.057,-49.597,339.795,190.337,-283.323,36.800,-486.710,-77.580
743,50188.757000,289.541,69.176,-63.624,337.139,191.930,-288.245,-145.200,-791.710,-32.580
744,50188.800000,269.811,73.215,-59.616,320.352,194.015,-306.105,-284.200,-1191.710,-17.580
745,50188.818000,347.746,22.722,-118.732,301.782,195.033,-330.956,-405.200,-1658.710,-9.580
746,50188.863000,361.557,26.761,-214.920,271.766,204.723,-355.562,-379.200,-2066.710,-135.580
747,50188.902000,342.813,15.653,-161.816,247.057,219.794,-374.019,-865.200,-1978.710,106.420
748,50188.940000,175.106,3.535,-190.873,238.231,228.242,-381.717,-707.200,-1401.710,307.420
749,50188.981000,106.050,27.771,-135.765,233.880,251.173,-368.078,-1099.200,-516.710,314.420
750,50189.20000,37.981,18.682,-83.663,252.433,262.053,-351.778,-568.200,520.290,462.420
751,50189.38000,6.412,46.959,-104.704,288.622,249.848,-324.254,187.800,1811.290,441.420
752,50189.78000,10.358,46.959,-115.726,315.991,249.592,-303.322,309.800,2448.290,314.420
753,50189.121000,30.089,21.712,-156.806,361.047,238.824,-255.864,621.800,2883.290,127.420
754,50189.165000,107.037,-22.722,-220.932,399.939,231.525,-208.312,1300.800,2902.290,-140.580
755,50189.202000,186.944,-16.663,-281.049,427.373,224.160,-162.786,1685.800,2660.290,-324.580
756,50189.240000,217.526,-146.935,-475.429,440.628,215.101,-146.156,1342.800,1812.290,-274.580
757,50189.282000,326.042,-83.314,-348.180,446.799,205.670,-142.471,1049.800,146.290,221.420
758,50189.307000,194.836,161.073,-5.511,450.335,202.342,-137.602,-405.200,367.290,-100.580
759,50189.346000,376.355,38.880,-25.550,454.797,199.464,-116.829,-384.200,724.290,141.420
760,50189.383000,325.056,71.195,-25.550,462.751,195.412,-107.005,4.800,615.290,-113.580
761,50189.420000,251.067,5.554,-16.532,468.060,197.377,-98.980,699.800,648.290,21.420
762,50189.462000,245.148,-9.594,-45.589,469.847,193.320,-89.176,558.800,605.290,98.420
763,50189.501000,257.973,37.870,-38.575,475.159,193.577,-80.214,171.800,581.290,112.420
764,50189.520000,271.784,-10.604,-17.534,478.716,188.738,-67.451,127.800,517.290,138.420
765,50189.561000,249.094,4.544,-7.515,484.888,185.355,-64.562,-1.200,365.290,35.420
766,50189.602000,254.027,-3.535,-0.501,481.383,190.701,-59.434,-181.200,175.290,6.420
767,50189.640000,241.202,-9.594,-3.507,486.668,182.950,-57.683,-106.200,64.290,-1.580
768,50189.681000,244.162,1.515,-19.538,483.153,186.475,-55.594,-129.200,27.290,32.420
769,50189.718000,252.054,-6.564,-9.519,482.276,192.551,-55.400,-23.200,43.290,29.420
770,50189.761000,252.054,-0.505,-11.523,484.935,190.986,-49.484,-58.200,40.290,-19.580
771,50189.780000,249.094,1.515,-6.513,482.282,193.475,-53.384,-26.200,-126.710,-60.580
772,50189.818000,255.013,13.633,6.513,484.911,185.580,-56.610,-52.200,-232.710,-49.580
773,50189.871000,263.892,-7.574,8.517,484.013,189.723,-63.430,25.800,-391.710,-48.580
774,50189.902000,235.283,18.682,-17.534,478.702,189.465,-72.392,-179.200,-561.710,-26.580
775,50189.951000,241.202,15.653,-23.546,470.731,193.349,-88.179,11.800,-607.710,29.420
776,50189.980000,249.094,-0.505,-60.618,471.581,193.040,-99.110,97.800,-528.710,1.420
777,50190.1000,256.987,-3.535,-61.620,469.074,414.964,-101.846,43.800,-385.710,-55.580
778,50190.47000,259.946,1.515,-33.566,464.497,197.848,-112.878,241.800,-342.710,-99.580
779,50190.87000,254.027,-7.574,-83.663,460.957,198.544,-118.825,151.800,-217.710,-148.580
780,50190.126000,245.148,47.968,-57.613,460.958,199.412,-118.797,-48.200,-77.710,-61.580
781,50190.160000,269.811,-41.909,-53.605,462.706,203.585,-124.614,89.800,-127.710,-14.580
782,50190.205000,234.297,18.682,-89.675,460.050,201.734,-128.654,143.800,-17.710,-154.580
783,50190.257000,229.364,45.949,-81.659,458.303,201.874,-123.690,-71.200,225.290,-48.580
784,50190.283000,252.054,26.761,-61.620,463.597,198.518,-119.810,56.800,175.290,115.420
785,50190.298000,251.067,-14.643,-41.581,461.853,203.866,-114.677,-22.200,239.290,73.420
786,50190.341000,244.162,2.525,-50.599,462.744,205.687,-111.636,-50.200,252.290,-59.580
787,50190.381000,251.067,3.535,-45.589,463.651,206.809,-102.660,-105.200,303.290,-27.580
788,50190.421000,242.189,1.515,-52.603,464.556,208.771,-94.650,162.800,335.290,-32.580
789,50190.458000,251.067,29.791,-38.575,463.676,205.327,-93.771,230.800,328.290,-7.580
790,50190.478000,249.094,24.742,-34.568,466.329,208.017,-90.697,290.800,300.290,8.420
791,50190.543000,257.973,8.584,-32.564,471.625,202.954,-85.879,41.800,308.290,88.420
792,50190.562000,252.054,9.594,-27.554,473.411,198.029,-76.103,-56.200,370.290,44.420
793,50190.605000,249.094,9.594,-43.585,476.963,201.757,-67.034,-186.200,364.290,47.420
794,50190.646000,257.973,18.682,-41.581,478.762,201.256,-54.135,-56.200,448.290,-2.580
795,50190.685000,256.000,-3.535,-5.511,480.544,198.011,-46.291,-80.200,463.290,-23.580
796,50190.726000,234.297,-10.604,9.519,478.803,196.499,-38.402,182.800,492.290,-57.580
797,50190.741000,239.229,29.791,19.538,477.933,195.743,-34.457,180.800,236.290,-69.580
798,50190.781000,244.162,17.673,39.577,477.044,199.970,-38.295,-1.200,-34.710,-45.580
799,50190.822000,242.189,-2.525,38.575,478.805,205.991,-40.080,-11.200,-344.710,-6.580
800,50190.863000,254.027,0.505,22.544,471.726,205.676,-51.036,-78.200,-651.710,-44.580
801,50190.903000,262.906,-5.554,31.562,469.922,206.988,-65.894,-273.200,-880.710,-100.580
802,50190.943000,295.461,11.613,-15.530,461.059,210.758,-85.659,69.800,-1080.710,-218.580
803,50190.963000,418.775,123.708,45.589,453.951,209.293,-106.583,143.800,-1144.710,-135.580
804,50191.3000,425.680,177.231,42.583,439.788,212.919,-131.335,-356.200,-1426.710,-123.580
805,50191.45000,353.665,19.692,-63.624,426.496,218.168,-160.004,-286.200,-1737.710,-111.580
806,50191.85000,234.297,53.018,-130.755,404.414,234.808,-184.360,-396.200,-1155.710,-185.580
807,50191.121000,96.185,-113.609,-200.892,398.231,243.258,-192.049,-818.200,-797.710,55.420
808,50191.161000,82.374,-7.574,-67.632,391.150,243.783,-203.971,401.800,-353.710,54.420
809,50191.202000,54.751,38.880,-18.536,390.270,241.207,-203.064,366.800,492.290,-97.580
810,50191.222000,40.940,-94.422,-411.303,393.840,246.840,-187.975,-607.200,848.290,-272.580
811,50191.262000,13.318,46.959,-205.902,391.176,240.593,-194.144,596.800,200.290,-368.580
812,50191.302000,177.079,32.821,-197.886,388.529,247.450,-196.909,288.800,130.290,-431.580
813,50191.342000,141.565,-12.623,-231.953,390.280,251.651,-201.732,497.800,-32.710,-384.580
814,50191.382000,129.726,-80.284,-287.061,388.488,248.764,-211.762,128.800,-546.710,25.420
815,50191.422000,278.690,-20.702,-193.879,384.021,236.941,-231.026,-73.200,-1020.710,268.420
816,50191.442000,223.445,-1.515,-186.865,375.167,242.532,-247.754,-946.200,-1395.710,284.420
817,50191.482000,192.863,-11.613,-274.035,353.954,242.680,-272.642,-615.200,-1723.710,317.420
818,50191.520000,209.634,80.284,-115.726,323.891,233.804,-309.767,-89.200,-1704.710,390.420
819,50191.565000,184.971,14.643,-100.697,300.890,222.499,-340.990,16.800,-1469.710,210.420
820,50191.627000,187.931,-22.722,-131.757,284.093,208.120,-358.392,999.800,-625.710,504.420
821,50191.652000,288.555,83.314,-9.519,284.928,183.535,-369.117,604.800,309.290,545.420
822,50191.682000,289.541,25.751,-6.513,298.197,181.504,-349.280,-1051.200,999.290,277.420
823,50191.702000,478.952,8.584,-99.695,315.888,195.156,-326.935,-403.200,971.290,224.420
824,50191.742000,300.393,33.830,-48.595,328.253,188.587,-314.199,512.800,941.290,-247.580
825,50191.783000,267.838,87.353,-31.562,336.204,187.082,-306.279,-76.200,461.290,-22.580
826,50191.821000,253.040,34.840,-29.558,336.208,188.847,-305.229,-359.200,-72.710,43.420
827,50191.863000,265.865,20.702,-37.573,330.027,193.013,-311.071,25.800,-551.710,4.420
828,50191.900000,285.595,33.830,-59.616,316.763,197.676,-329.829,-402.200,-1252.710,-6.580
829,50191.922000,340.840,5.554,-122.740,298.227,199.033,-342.753,-494.200,-1770.710,-70.580
830,50191.966000,339.854,-5.554,-154.802,264.684,204.380,-367.512,-132.200,-1978.710,-227.580
831,50192.2000,278.690,-6.564,-166.826,243.493,215.085,-387.092,-18.200,-1688.710,-161.580
832,50192.48000,133.672,8.584,-164.822,228.474,211.208,-401.168,269.800,-823.710,-88.580
833,50192.82000,112.956,39.890,-114.724,229.369,222.549,-398.811,-261.200,-37.710,-88.580
834,50192.125000,72.509,9.594,-98.693,248.824,231.051,-374.641,-282.200,1309.290,89.420
835,50192.166000,55.738,22.722,-126.748,293.856,232.966,-338.687,-77.200,2213.290,215.420
836,50192.186000,86.320,50.998,-148.791,341.579,235.361,-285.828,-534.200,2778.290,179.420
837,50192.226000,117.888,-0.505,-211.914,384.936,241.592,-219.950,-62.200,3026.290,233.420
838,50192.266000,185.958,-13.633,-302.090,405.296,233.101,-183.419,342.800,2654.290,130.420
839,50192.306000,195.823,-7.574,-276.039,423.892,232.336,-149.623,1011.800,1864.290,-67.580
840,50192.347000,197.796,14.643,-246.982,428.309,222.988,-142.961,1198.800,561.290,-148.580
841,50192.386000,193.850,-70.185,-227.945,437.081,202.806,-151.532,1637.800,108.290,394.420
842,50192.406000,348.732,-71.195,-103.703,440.632,209.109,-143.372,-408.200,445.290,397.420
843,50192.446000,283.622,55.037,-40.579,449.469,196.462,-130.845,228.800,544.290,299.420
844,50192.481000,261.919,-3.535,-70.638,456.547,198.485,-120.827,-163.200,370.290,135.420
845,50192.522000,269.811,16.663,-51.601,455.686,191.794,-112.110,125.800,437.290,26.420
846,50192.562000,269.811,14.643,-38.575,462.745,188.468,-107.230,210.800,486.290,168.420
847,50192.603000,256.000,-2.525,-35.569,468.054,185.253,-98.381,134.800,383.290,112.420
848,50192.643000,249.094,8.584,-52.603,472.469,183.633,-94.447,96.800,252.290,93.420
849,50192.663000,267.838,-2.525,-56.611,474.259,187.360,-85.383,-56.200,354.290,77.420
850,50192.717000,252.054,0.505,-29.558,475.156,185.793,-79.473,-121.200,394.290,25.420
851,50192.745000,254.027,-16.663,-1.503,478.700,190.305,-73.358,74.800,343.290,15.420
852,50192.786000,224.432,4.544,-19.538,480.477,191.315,-68.354,23.800,207.290,13.420
853,50192.821000,259.946,17.673,-41.581,480.483,184.484,-64.604,141.800,167.290,30.420
854,50192.861000,249.094,-12.623,3.507,481.362,181.881,-64.686,-151.200,96.290,14.420
855,50192.883000,252.054,0.505,3.507,484.019,189.779,-61.442,-149.200,-100.710,-21.580
856,50192.928000,256.987,-1.515,-7.515,481.362,189.636,-66.420,-88.200,-306.710,-47.580
857,50192.970000,246.135,-13.633,-22.544,480.448,191.033,-78.293,-95.200,-393.710,-60.580
858,50193.25000,230.351,10.604,-46.591,475.145,193.436,-85.183,74.800,-469.710,-76.580
859,50193.41000,254.027,-5.554,-26.552,474.237,188.002,-93.307,-9.200,-490.710,-10.580
860,50193.121000,231.337,30.801,-73.644,468.039,187.688,-104.260,75.800,-612.710,-37.580
861,50193.136000,218.513,-1.515,-69.636,465.369,189.141,-114.151,-106.200,-597.710,-13.580
862,50193.146000,254.027,-18.682,-67.632,460.049,193.110,-126.948,20.800,-472.710,-132.580
863,50193.191000,243.175,35.850,-119.734,454.752,196.438,-131.822,94.800,-184.710,-114.580
864,50193.225000,242.189,13.633,-85.667,454.770,201.787,-126.683,21.800,68.290,-54.580
865,50193.265000,264.879,-12.623,-68.634,456.529,200.892,-127.700,45.800,71.290,-85.580
866,50193.317000,227.391,0.505,-86.669,456.544,206.212,-123.555,21.800,209.290,-155.580
867,50193.352000,237.256,9.594,-87.671,453.927,210.776,-115.471,37.800,367.290,-190.580
868,50193.385000,252.054,46.959,-53.605,456.580,209.154,-111.544,-11.200,366.290,-49.580
869,50193.405000,251.067,5.554,-49.597,458.358,207.589,-105.631,10.800,367.290,72.420
870,50193.445000,248.108,-0.505,-35.569,459.258,211.230,-99.552,40.800,412.290,11.420
871,50193.486000,245.148,0.505,-27.554,461.926,214.062,-91.507,114.800,282.290,-46.580
872,50193.522000,246.135,-0.505,-31.562,462.807,214.062,-91.505,236.800,218.290,-55.580
873,50193.563000,244.162,52.008,-47.593,460.176,215.041,-87.509,126.800,191.290,-26.580
874,50193.603000,250.081,30.801,-34.568,460.175,209.861,-86.684,80.800,174.290,113.420
875,50193.623000,244.162,12.623,-28.556,466.343,203.846,-84.874,-29.200,193.290,128.420
876,50193.666000,256.987,-2.525,-29.558,464.591,206.533,-81.813,-146.200,147.290,82.420
877,50193.706000,251.067,-14.643,-14.528,467.249,203.232,-75.954,1.800,105.290,60.420
878,50193.750000,256.987,9.594,-49.597,471.655,204.971,-75.883,61.800,119.290,1.420
879,50193.783000,265.865,4.544,-35.569,472.554,203.433,-68.979,4.800,267.290,-32.580
880,50193.822000,255.013,0.505,-37.573,478.748,205.427,-59.958,7.800,329.290,-48.580
881,50193.863000,252.054,8.584,-2.505,475.234,199.490,-55.197,-57.200,371.290,-97.580
882,50193.883000,239.229,-1.515,6.513,475.249,208.254,-51.934,-9.200,254.290,-98.580
883,50193.927000,237.256,15.653,30.560,471.742,211.864,-46.863,-86.200,-30.710,-93.580
884,50193.962000,244.162,10.604,48.595,468.200,210.825,-52.866,-58.200,-400.710,-77.580
885,50194.10000,253.040,13.633,23.546,466.402,204.438,-64.002,-80.200,-899.710,-103.580
886,50194.45000,295.461,8.584,-18.536,459.296,216.776,-87.456,-137.200,-1156.710,-166.580
887,50194.92000,318.150,31.811,-32.564,448.658,218.697,-111.259,2.800,-1073.710,-111.580
888,50194.107000,478.952,132.797,29.558,434.507,214.679,-130.302,-36.200,-1032.710,-179.580
889,50194.147000,324.069,112.600,-12.524,428.306,225.536,-144.864,-610.200,-1315.710,-152.580
890,50194.187000,223.445,-4.544,-169.832,409.744,233.527,-168.496,229.800,-948.710,-304.580
891,50194.226000,121.834,-73.215,-210.912,400.032,250.542,-179.891,-645.200,-731.710,-120.580
892,50194.267000,95.198,-42.919,-83.663,391.188,249.329,-191.875,306.800,-522.710,107.420
893,50194.311000,100.131,-1.515,-10.521,389.387,239.470,-203.123,859.800,206.290,83.420
894,50194.346000,12.331,70.185,-154.802,392.064,246.698,-192.950,-589.200,432.290,-97.580
895,50194.391000,191.877,-29.791,-328.141,391.207,248.658,-184.946,-248.200,184.290,-157.580
896,50194.408000,179.052,48.978,-212.916,393.841,240.820,-186.184,1041.800,276.290,-225.580
897,50194.448000,130.713,-68.166,-310.106,391.173,237.121,-194.257,700.800,-19.710,-290.580
898,50194.482000,175.106,2.525,-264.016,396.427,235.947,-205.201,395.800,-354.710,-16.580
899,50194.522000,235.283,-23.732,-195.883,391.120,237.454,-213.113,-711.200,-1150.710,86.420
900,50194.575000,223.445,6.564,-202.896,378.706,235.788,-241.011,-920.200,-1366.710,377.420
901,50194.585000,211.607,-1.515,-296.078,357.457,225.239,-276.176,-448.200,-1770.710,441.420
902,50194.628000,259.946,47.968,-122.740,337.112,220.963,-304.184,38.800,-2033.710,413.420
903,50194.678000,248.108,33.830,-90.677,301.735,196.290,-347.796,740.800,-1701.710,391.420
904,50194.712000,182.012,59.077,-133.761,273.452,182.433,-377.133,483.800,-1407.710,534.420
905,50194.747000,316.177,-15.653,14.528,257.537,162.035,-392.741,328.800,-632.710,876.420
906,50194.787000,240.216,103.511,-2.505,261.973,165.792,-382.675,-801.200,376.290,391.420
907,50194.823000,266.852,-29.791,-202.896,274.366,185.347,-366.113,-780.200,1217.290,332.420
908,50194.845000,343.800,-54.028,-273.033,289.412,191.214,-343.035,-148.200,854.290,204.420
909,50194.885000,271.784,-4.544,-105.706,300.007,185.427,-333.259,707.800,958.290,-243.580
910,50194.925000,255.013,120.679,-86.669,309.717,177.876,-324.536,181.800,582.290,-103.580
911,50194.965000,262.906,43.929,-38.575,317.656,184.014,-322.326,-294.200,145.290,59.420
912,50195.10000,295.461,16.663,-32.564,314.111,178.635,-328.470,161.800,-333.710,-27.580
913,50195.51000,293.487,36.860,-47.593,299.982,178.286,-340.442,-134.200,-1075.710,-3.580
914,50195.90000,333.935,7.574,-55.609,276.136,188.877,-364.007,-476.200,-1565.710,54.420
915,50195.155000,388.193,1.515,-111.718,258.492,188.611,-373.009,-370.200,-1746.710,-116.580
916,50195.171000,322.096,20.702,-203.898,232.893,200.152,-393.569,-317.200,-1830.710,-161.580
917,50195.187000,46.859,-5.554,-183.859,216.118,207.530,-408.278,42.800,-1173.710,16.420
918,50195.226000,90.266,43.929,-89.675,222.308,212.071,-401.160,-24.200,-52.710,43.420
919,50195.264000,56.724,53.018,-83.663,244.373,210.774,-386.237,-186.200,1653.290,64.420
920,50195.312000,15.291,7.574,-109.714,290.314,227.614,-343.837,-287.200,2695.290,-36.580
921,50195.331000,21.210,30.801,-172.838,349.505,228.451,-285.034,193.800,3490.290,-69.580
922,50195.367000,113.942,-18.682,-247.984,394.637,232.220,-214.265,215.800,3599.290,-179.580
923,50195.416000,175.106,-48.978,-381.245,424.757,233.904,-155.527,238.800,2783.290,-203.580
924,50195.449000,223.445,-57.057,-350.184,429.221,233.630,-134.669,1042.800,1656.290,-22.580
925,50195.483000,239.229,-60.087,-326.137,440.667,206.004,-130.564,867.800,85.290,545.420
926,50195.523000,177.079,-33.830,-53.605,445.961,202.648,-126.684,-879.200,106.290,347.420
927,50195.546000,438.505,69.176,4.509,453.931,197.029,-110.953,558.800,592.290,296.420
928,50195.586000,218.513,81.294,-90.677,460.114,196.334,-104.997,526.800,479.290,23.420
929,50195.627000,325.056,62.107,-43.585,461.883,194.684,-102.066,770.800,521.290,-26.580
930,50195.683000,237.256,2.525,-64.626,465.423,186.232,-94.385,57.800,420.290,189.420
931,50195.707000,255.013,-11.613,-56.611,470.726,182.093,-87.552,265.800,500.290,-27.580
932,50195.753000,274.744,7.574,-18.536,474.271,184.897,-80.498,69.800,524.290,-20.580
933,50195.795000,243.175,19.692,-40.579,476.066,187.812,-69.475,-58.200,511.290,-7.580
934,50195.803000,256.000,-9.594,9.519,478.746,191.624,-57.427,-280.200,480.290,6.420
935,50195.846000,236.270,-12.623,18.536,479.652,187.566,-47.626,-198.200,338.290,15.420
936,50195.887000,232.324,-31.811,10.521,481.408,187.511,-49.608,119.800,44.290,11.420
937,50195.925000,251.067,-0.505,-14.528,478.765,194.397,-51.379,240.800,-113.710,-20.580
938,50195.970000,245.148,-2.525,-5.511,477.873,194.283,-55.357,225.800,-158.710,-92.580
939,50196.11000,251.067,4.544,-25.550,476.973,192.378,-61.380,239.800,-197.710,-102.580
940,50196.26000,253.040,31.811,-31.562,474.322,195.735,-65.252,-8.200,-239.710,-116.580
941,50196.66000,242.189,2.525,-25.550,476.065,197.275,-72.147,2.800,-291.710,-36.580
942,50196.105000,242.189,28.781,-17.534,472.512,192.679,-81.244,-169.200,-365.710,37.420
943,50196.147000,256.000,-13.633,-21.542,466.326,196.789,-89.075,43.800,-533.710,37.420
944,50196.185000,256.000,21.712,-53.605,463.649,195.581,-101.039,64.800,-462.710,-13.580
945,50196.226000,238.243,35.850,-72.642,459.223,193.645,-108.066,-129.200,-405.710,23.420
946,50196.268000,270.798,-47.968,-28.556,458.333,200.448,-112.814,140.800,-310.710,-54.580
947,50196.288000,235.283,27.771,-80.658,459.204,198.628,-115.849,61.800,-147.710,-115.580
948,50196.330000,257.973,4.544,-59.616,454.789,200.248,-119.782,81.800,-11.710,-53.580
949,50196.371000,236.270,-9.594,-82.661,453.899,200.163,-122.767,175.800,-68.710,-95.580
950,50196.408000,243.175,25.751,-100.697,455.666,202.796,-121.683,-82.200,199.290,-95.580
951,50196.448000,248.108,27.771,-81.659,456.569,206.466,-114.610,-47.200,411.290,-27.580
952,50196.488000,247.121,27.771,-39.577,460.118,205.854,-105.681,64.800,379.290,48.420
953,50196.531000,252.054,21.712,-27.554,464.546,202.639,-96.835,-11.200,437.290,154.420
954,50196.545000,245.148,-11.613,-18.536,465.440,196.732,-91.066,-95.200,346.290,131.420
955,50196.591000,248.108,4.544,-12.524,467.229,195.279,-81.177,41.800,265.290,80.420
956,50196.628000,246.135,13.633,-2.505,470.757,197.914,-80.087,-83.200,54.290,71.420
957,50196.668000,252.054,-0.505,-4.509,471.633,190.971,-80.310,-19.200,-24.710,31.420
958,50196.713000,256.000,5.554,-40.579,470.752,194.414,-81.194,-115.200,-139.710,7.420
959,50196.748000,256.000,-1.515,-66.630,472.510,193.519,-82.210,-116.200,5.290,-34.580
960,50196.768000,257.973,10.604,-59.616,469.877,191.894,-78.299,-62.200,200.290,-52.580
961,50196.808000,259.946,7.574,-50.599,470.786,198.196,-70.148,-144.200,350.290,-78.580
962,50196.848000,248.108,4.544,-18.536,476.087,193.189,-63.343,-13.200,382.290,-116.580
963,50196.895000,241.202,9.594,-1.503,472.578,197.639,-59.238,-0.200,281.290,-110.580
964,50196.930000,248.108,4.544,13.526,470.841,204.779,-52.060,-26.200,151.290,-82.580
965,50196.969000,245.148,16.663,23.546,469.954,207.298,-54.961,-28.200,-93.710,-68.580
966,50197.10000,244.162,8.584,49.597,466.407,202.758,-62.070,-34.200,-432.710,-48.580
967,50197.30000,253.040,-19.692,30.560,463.737,208.522,-72.815,37.800,-1002.710,-47.580
968,50197.76000,278.690,12.623,-1.503,456.628,209.633,-94.647,-264.200,-1323.710,-165.580
969,50197.111000,432.586,83.314,14.528,446.855,207.941,-123.530,-20.200,-1345.710,-86.580
970,50197.168000,415.815,177.231,-1.503,426.512,208.846,-152.363,-63.200,-1308.710,-102.580
971,50197.191000,377.341,116.639,-67.632,417.686,225.918,-161.767,-1155.200,-1354.710,-264.580
972,50197.231000,184.971,18.682,-153.800,403.567,242.901,-174.170,-312.200,-763.710,-311.580
973,50197.251000,97.171,-63.116,-149.793,392.991,255.773,-178.751,-760.200,-358.710,-180.580
974,50197.291000,79.414,12.623,-30.560,386.820,253.136,-179.849,525.800,109.290,-4.580
975,50197.327000,68.563,57.057,-53.605,389.478,251.571,-173.934,455.800,732.290,-118.580
976,50197.367000,18.250,54.028,-111.718,395.737,261.968,-143.787,-974.200,1202.290,-174.580
977,50197.408000,235.283,35.850,-216.924,397.495,264.517,-145.684,417.800,-153.710,-34.580
978,50197.448000,166.227,117.649,-172.838,396.602,266.980,-150.572,275.800,135.290,-366.580
979,50197.490000,157.349,-141.886,-348.180,393.954,275.545,-154.275,-381.200,-302.710,-368.580
980,50197.508000,208.647,-89.373,-227.945,393.035,269.999,-166.373,751.800,-754.710,274.420
981,50197.555000,244.162,60.087,-238.967,387.654,255.262,-196.659,-1331.200,-1860.710,268.420
982,50197.591000,190.890,-52.008,-251.992,362.015,268.985,-232.043,-1294.200,-2484.710,370.420
983,50197.629000,205.688,79.274,-276.039,330.137,249.241,-285.414,-2.200,-2565.710,309.420
984,50197.688000,187.931,58.067,-145.785,299.188,242.044,-324.474,765.800,-2600.710,319.420
985,50197.752000,189.904,-8.584,3.507,259.375,203.283,-375.509,1353.800,-1819.710,942.420
986,50197.780000,292.501,30.801,-49.597,261.956,173.378,-390.373,1076.800,162.290,931.420
987,50197.795000,447.383,63.116,127.750,280.548,186.361,-361.095,-1388.200,1539.290,213.420
988,50197.812000,326.042,13.633,-159.812,295.591,197.379,-339.837,-744.200,1976.290,46.420
989,50197.848000,270.798,87.353,-72.642,313.271,198.851,-318.879,284.800,1001.290,200.420
990,50197.888000,282.636,109.570,-69.636,324.778,204.575,-300.783,-921.200,471.290,326.420
991,50197.928000,255.013,-18.682,-120.736,331.830,191.701,-296.213,-11.200,331.290,141.420
992,50197.967000,242.189,-41.909,-144.783,334.481,202.119,-295.867,433.800,330.290,-61.580
993,50197.991000,199.769,-8.584,-109.714,338.017,199.658,-290.970,-27.200,137.290,-4.580
994,50198.33000,216.540,49.988,-103.703,335.382,203.185,-288.878,-11.200,-73.710,-19.580
995,50198.68000,244.162,0.505,-81.659,331.840,200.409,-294.937,125.800,-264.710,-51.580
996,50198.108000,250.081,14.643,-102.701,324.751,193.962,-308.078,96.800,-569.710,-62.580
997,50198.148000,253.040,35.850,-84.665,315.037,193.729,-316.061,-208.200,-821.710,-49.580
998,50198.190000,287.568,25.751,-111.718,301.780,201.053,-332.747,-9.200,-1081.710,-81.580
999,50198.207000,264.879,87.353,-184.861,279.708,200.558,-349.714,-440.200,-1343.710,-170.580
1000,50198.271000,296.447,-47.968,-158.810,259.416,208.857,-362.419,-742.200,-1525.710,-33.580
1001,50198.288000,259.946,19.692,-208.908,255.868,218.092,-373.053,-168.200,-1140.710,86.420
1002,50198.326000,134.659,8.584,-171.836,247.045,223.125,-378.876,-326.200,-832.710,201.420
1003,50198.367000,-40.940,45.949,-206.904,248.830,231.107,-372.654,-737.200,-10.710,484.420
1004,50198.415000,47.846,17.673,-91.679,272.747,264.311,-333.766,-1992.200,1010.290,630.420
1005,50198.450000,67.576,76.245,-65.628,299.285,274.892,-297.590,-2088.200,1773.290,706.420
1006,50198.477000,129.726,46.959,-104.704,346.181,296.778,-230.199,-2280.200,2166.290,824.420
1007,50198.508000,240.216,120.679,-169.832,385.991,289.845,-169.724,-87.200,2561.290,813.420
1008,50198.548000,247.121,89.373,-196.885,417.808,275.371,-130.372,1338.800,2430.290,299.420
1009,50198.588000,236.270,44.939,-226.943,432.834,266.397,-110.755,2097.800,2102.290,-137.580
1010,50198.630000,229.364,24.742,-174.841,433.735,259.707,-102.033,2703.800,1642.290,-453.580
1011,50198.668000,227.391,8.584,-138.771,433.723,250.971,-104.302,2846.800,1339.290,-564.580
1012,50198.690000,240.216,-10.604,-129.753,435.463,248.171,-111.338,2538.800,1034.290,-500.580
1013,50198.730000,227.391,-6.564,-121.738,439.853,243.721,-115.441,2282.800,882.290,-358.580
1014,50198.768000,229.364,-7.574,-151.796,442.484,238.431,-118.583,1651.800,527.290,-18.580
1015,50198.812000,290.528,-47.968,27.554,452.159,228.805,-121.843,206.800,231.290,426.420
1016,50198.858000,298.420,83.314,-101.699,453.956,226.569,-109.001,-886.200,138.290,285.420
1017,50198.888000,236.270,4.544,-47.593,458.363,223.156,-107.112,-280.200,102.290,175.420
1018,50198.928000,256.987,7.574,-36.571,460.123,212.798,-105.456,146.800,178.290,254.420
1019,50198.947000,228.378,-31.811,-30.560,462.777,216.356,-102.353,44.800,140.290,114.420
1020,50198.988000,262.906,29.791,-45.589,464.529,206.782,-103.651,504.800,162.290,54.420
1021,50199.28000,259.946,25.751,-41.581,468.940,206.841,-101.649,153.800,78.290,84.420
1022,50199.72000,251.067,-0.505,-55.609,471.579,201.635,-101.810,252.800,146.290,42.420
1023,50199.112000,260.933,19.692,-50.599,474.240,203.542,-95.781,235.800,265.290,6.420
1024,50199.152000,252.054,17.673,-45.589,473.362,199.258,-93.937,197.800,330.290,20.420
1025,50199.172000,252.054,4.544,-30.560,470.735,206.312,-89.745,236.800,320.290,-3.580
1026,50199.212000,250.081,21.712,-19.538,475.158,208.221,-83.711,140.800,291.290,-19.580
1027,50199.247000,249.094,10.604,-16.532,477.791,197.778,-85.034,247.800,238.290,-17.580
1028,50199.290000,253.040,11.613,-5.511,477.800,199.599,-81.996,198.800,172.290,-34.580
1029,50199.329000,249.094,4.544,-8.517,477.813,204.891,-78.845,104.800,115.290,-50.580
1030,50199.374000,253.040,11.613,-8.517,476.051,209.202,-79.704,119.800,11.290,-105.580
1031,50199.408000,257.973,17.673,-19.538,475.161,208.249,-82.717,120.800,-27.710,-132.580
1032,50199.428000,256.000,8.584,-14.528,473.393,211.635,-85.592,75.800,-14.710,-159.580
1033,50199.470000,250.081,22.722,-24.548,471.638,213.426,-83.553,163.800,9.290,-174.580
1034,50199.508000,254.027,22.722,-25.550,467.233,215.999,-84.477,10.800,17.290,-175.580
1035,50199.552000,252.054,24.742,-26.552,469.001,220.368,-83.336,0.800,86.290,-183.580
1036,50199.592000,254.027,19.692,-22.544,467.242,229.019,-84.054,1.800,129.290,-195.580
1037,50199.637000,256.000,17.673,-19.538,465.501,234.394,-77.927,16.800,153.290,-241.580
1038,50199.671000,252.054,29.791,-14.528,462.864,242.204,-77.682,36.800,188.290,-293.580
1039,50199.688000,247.121,38.880,-13.526,457.595,249.257,-73.498,-125.200,183.290,-311.580
1040,50199.731000,249.094,29.791,-6.513,453.208,245.979,-66.668,-166.200,159.290,-309.580
1041,50199.771000,251.067,35.850,-6.513,452.338,257.291,-65.311,-130.200,192.290,-317.580
1042,50199.817000,251.067,46.959,-18.536,447.954,262.664,-59.192,-123.200,249.290,-331.580
1043,50199.853000,265.865,56.047,-40.579,445.347,269.048,-48.071,-182.200,302.290,-329.580
1044,50199.893000,254.027,35.850,-53.605,444.481,282.124,-45.663,-134.200,421.290,-258.580
1045,50199.915000,260.933,73.215,-33.566,442.764,285.149,-30.676,-310.200,426.290,-207.580
1046,50199.956000,259.946,74.225,0.501,441.051,290.807,-14.610,-613.200,371.290,-72.580
1047,50199.991000,254.027,60.087,25.550,442.840,280.730,-3.015,-932.200,195.290,52.420
