Sample, Time, ACCX, ACCY, ACCZ, MAGX, MAGY, MAGZ, GYRX, GYRY, GYRZ
0,49334.179000,242.189,22.722,-67.632,443.270,224.566,-148.820,48.800,33.290,45.420
1,49334.217000,244.162,22.722,-65.628,444.154,224.595,-147.823,57.800,36.290,45.420
2,49334.261000,243.175,22.722,-65.628,444.151,221.123,-147.936,56.800,32.290,46.420
3,49334.300000,244.162,20.702,-63.624,445.033,221.992,-147.905,45.800,32.290,47.420
4,49334.341000,246.135,20.702,-63.624,445.033,218.548,-147.023,43.800,36.290,45.420
5,49334.382000,245.148,19.692,-64.626,446.789,215.049,-148.124,41.800,32.290,39.420
6,49334.401000,245.148,20.702,-62.622,445.035,214.264,-145.177,42.800,20.290,37.420
7,49334.439000,246.135,18.682,-59.616,448.553,214.211,-147.153,30.800,3.290,42.420
8,49334.481000,243.175,18.682,-65.628,449.440,217.711,-146.044,32.800,4.290,40.420
9,49334.521000,243.175,19.692,-66.630,450.311,212.448,-148.198,21.800,6.290,35.420
10,49334.560000,245.148,16.663,-59.616,445.911,211.633,-146.252,21.800,4.290,33.420
11,49334.603000,243.175,16.663,-64.626,447.674,208.190,-145.365,21.800,2.290,31.420
12,49334.644000,244.162,15.653,-64.626,449.431,209.871,-147.291,17.800,11.290,32.420
13,49334.657000,247.121,17.673,-62.622,447.663,208.946,-149.313,15.800,8.290,22.420
14,49334.699000,247.121,14.643,-65.628,448.550,209.003,-147.322,19.800,19.290,23.420
15,49334.739000,245.148,15.653,-63.624,451.193,206.429,-146.404,17.800,28.290,14.420
16,49334.779000,245.148,16.663,-61.620,450.319,208.220,-144.363,15.800,28.290,15.420
17,49334.820000,245.148,15.653,-63.624,450.314,212.476,-147.204,16.800,32.290,17.420
18,49334.862000,244.162,16.663,-68.634,450.318,209.928,-145.300,22.800,57.290,13.420
19,49334.883000,245.148,15.653,-63.624,449.439,209.088,-144.337,15.800,79.290,13.420
20,49334.923000,245.148,15.653,-60.618,451.211,210.910,-141.294,11.800,84.290,19.420
21,49334.958000,247.121,14.643,-57.613,452.970,206.571,-141.429,0.800,84.290,12.420
22,49335.0,245.148,17.673,-59.616,452.973,207.467,-140.407,-3.200,95.290,14.420
23,49335.40000,247.121,13.633,-59.616,454.733,208.308,-141.367,-17.200,103.290,19.420
24,49335.80000,245.148,16.663,-55.609,455.626,209.289,-137.360,-2.200,92.290,18.420
25,49335.120000,244.162,14.643,-50.599,454.752,207.637,-134.438,-33.200,50.290,12.420
26,49335.139000,247.121,12.623,-52.603,452.112,203.352,-132.599,13.800,23.290,-3.580
27,49335.195000,246.135,14.643,-51.601,456.527,210.355,-130.372,-17.200,-1.710,-5.580
28,49335.224000,247.121,14.643,-55.609,455.636,207.666,-133.441,-19.200,-12.710,-5.580
29,49335.259000,248.108,14.643,-57.613,456.521,210.299,-132.360,8.800,5.290,-14.580
30,49335.300000,249.094,14.643,-56.611,454.755,211.977,-134.297,-5.200,23.290,-2.580
31,49335.342000,246.135,15.653,-50.599,454.763,211.194,-131.343,-6.200,1.290,-1.580
32,49335.362000,247.121,14.643,-52.603,455.641,203.411,-130.600,-7.200,-17.710,-8.580
33,49335.402000,246.135,14.643,-54.607,452.114,210.268,-133.368,-4.200,-24.710,-14.580
34,49335.444000,247.121,13.633,-53.605,453.869,205.033,-134.525,-14.200,-29.710,-11.580
35,49335.504000,246.135,13.633,-55.609,456.512,205.035,-134.516,-10.200,-30.710,-12.580
36,49335.523000,247.121,14.643,-54.607,454.757,211.137,-133.331,3.800,-16.710,-15.580
37,49335.564000,246.135,18.682,-57.613,453.871,211.080,-135.322,-17.200,-11.710,-7.580
38,49335.602000,245.148,16.663,-56.611,452.112,211.975,-134.305,-7.200,-19.710,-6.580
39,49335.624000,248.108,14.643,-54.607,450.353,211.134,-133.345,-13.200,-7.710,-6.580
40,49335.664000,246.135,15.653,-57.613,454.748,209.317,-136.369,-6.200,-8.710,-7.580
41,49335.702000,245.148,16.663,-57.613,454.752,211.949,-135.291,-8.200,-2.710,-6.580
42,49335.744000,246.135,14.643,-54.607,452.110,212.815,-135.271,-0.200,-7.710,-9.580
43,49335.784000,245.148,17.673,-55.609,452.990,214.524,-136.206,-3.200,-7.710,-7.580
44,49335.819000,246.135,16.663,-56.611,454.749,211.921,-136.285,-1.200,-10.710,-12.580
45,49335.840000,248.108,16.663,-52.603,450.349,214.550,-135.220,-17.200,-15.710,-9.580
46,49335.880000,246.135,15.653,-55.609,450.336,208.389,-138.399,-2.200,-16.710,-10.580
47,49335.921000,247.121,18.682,-57.613,448.586,211.945,-135.311,-12.200,-5.710,-9.580
48,49335.959000,244.162,16.663,-56.611,451.223,211.890,-137.290,-6.200,-6.710,-9.580
49,49336.0,244.162,18.682,-57.613,452.106,211.051,-136.321,-12.200,-5.710,-10.580
50,49336.41000,247.121,18.682,-53.605,452.112,211.975,-134.305,-10.200,-6.710,-12.580
51,49336.81000,245.148,18.682,-55.609,453.877,215.449,-134.187,-15.200,-16.710,-12.580
52,49336.104000,247.121,17.673,-56.611,452.111,217.127,-136.124,-14.200,-12.710,-14.580
53,49336.139000,243.175,17.673,-56.611,446.821,216.227,-137.163,-12.200,-17.710,-19.580
54,49336.186000,246.135,19.692,-56.611,452.983,212.731,-138.250,-15.200,-16.710,-20.580
55,49336.220000,248.108,20.702,-54.607,450.344,214.494,-137.208,-17.200,-24.710,-23.580
56,49336.261000,246.135,19.692,-55.609,451.235,216.315,-134.167,-21.200,-27.710,-22.580
57,49336.301000,247.121,18.682,-57.613,450.347,218.834,-137.067,-19.200,-32.710,-25.580
58,49336.319000,246.135,22.722,-59.616,449.474,221.493,-134.998,-16.200,-27.710,-21.580
59,49336.359000,245.148,19.692,-57.613,445.941,221.406,-137.991,-14.200,-10.710,-22.580
60,49336.399000,244.162,22.722,-57.613,446.813,220.454,-140.998,-18.200,-15.710,-20.580
61,49336.439000,244.162,20.702,-55.609,444.178,216.225,-137.172,-21.200,-23.710,-22.580
62,49336.480000,243.175,21.712,-58.614,445.935,216.170,-139.154,-32.200,-37.710,-24.580
63,49336.525000,244.162,21.712,-59.616,446.821,223.983,-138.897,-21.200,-25.710,-27.580
64,49336.560000,243.175,22.722,-60.618,447.704,223.143,-137.929,-9.200,-22.710,-26.580
65,49336.581000,242.189,21.712,-56.611,445.062,227.453,-138.791,-25.200,-28.710,-23.580
66,49336.625000,242.189,22.722,-59.616,447.700,224.823,-139.860,-16.200,-34.710,-25.580
67,49336.660000,246.135,23.732,-58.614,444.167,220.424,-142.000,-21.200,-37.710,-30.580
68,49336.701000,243.175,26.761,-59.616,443.298,223.980,-138.909,-23.200,-46.710,-27.580
69,49336.741000,242.189,24.742,-57.613,445.054,220.481,-140.010,-35.200,-55.710,-27.580
70,49336.781000,243.175,23.732,-58.614,445.050,222.161,-141.941,-18.200,-71.710,-32.580
71,49336.804000,243.175,22.722,-59.616,440.641,229.017,-144.712,-19.200,-106.710,-37.580
72,49336.844000,242.189,27.771,-61.620,441.521,231.594,-145.618,-36.200,-120.710,-40.580
73,49336.884000,244.162,27.771,-64.626,436.233,231.562,-146.629,-40.200,-119.710,-43.580
74,49336.924000,243.175,26.761,-61.620,435.341,223.693,-148.874,-14.200,-145.710,-45.580
75,49336.964000,245.148,25.751,-62.622,436.198,226.912,-157.703,-15.200,-173.710,-47.580
76,49337.14000,242.189,30.801,-75.648,437.090,230.469,-154.606,-14.200,-165.710,-30.580
77,49337.47000,240.216,29.791,-79.656,435.330,236.515,-155.408,-18.200,-110.710,-24.580
78,49337.70000,241.202,28.781,-78.654,433.554,232.929,-159.503,-12.200,-63.710,-12.580
79,49337.104000,239.229,31.811,-80.658,433.553,235.505,-160.412,-12.200,-18.710,0.420
80,49337.140000,240.216,28.781,-77.652,431.798,232.117,-157.549,5.800,36.290,8.420
81,49337.181000,239.229,28.781,-71.640,432.670,225.145,-158.765,0.800,53.290,13.420
82,49337.221000,241.202,28.781,-69.636,433.562,227.834,-155.696,-0.200,49.290,9.420
83,49337.261000,244.162,28.781,-69.636,433.558,230.382,-157.599,0.800,32.290,8.420
84,49337.281000,241.202,28.781,-69.636,435.329,234.779,-155.465,-1.200,25.290,8.420
85,49337.321000,242.189,28.781,-69.636,435.321,232.119,-157.537,6.800,20.290,5.420
86,49337.361000,241.202,27.771,-69.636,436.213,235.676,-154.440,-0.200,15.290,9.420
87,49337.403000,243.175,27.771,-69.636,433.569,233.070,-154.533,-1.200,12.290,8.420
88,49337.442000,241.202,27.771,-71.640,435.336,232.260,-152.568,3.800,21.290,7.420
89,49337.482000,243.175,25.751,-68.634,435.335,227.080,-151.743,6.800,22.290,10.420
90,49337.522000,239.229,27.771,-70.638,436.203,228.676,-156.653,3.800,22.290,9.420
91,49337.545000,245.148,25.751,-67.632,437.094,231.365,-153.584,9.800,19.290,10.420
92,49337.580000,240.216,25.751,-68.634,434.446,228.731,-154.671,3.800,12.290,11.420
93,49337.620000,240.216,26.761,-65.628,433.568,232.202,-154.561,-0.200,-0.710,9.420
94,49337.662000,242.189,25.751,-67.632,434.448,231.335,-154.586,3.800,-6.710,15.420
95,49337.702000,240.216,27.771,-69.636,434.452,228.787,-152.683,8.800,-1.710,17.420
96,49337.742000,241.202,26.761,-69.636,435.325,226.128,-154.753,5.800,7.290,16.420
97,49337.762000,245.148,25.751,-67.632,437.974,230.498,-153.609,7.800,20.290,17.420
98,49337.802000,241.202,24.742,-66.630,439.742,230.555,-151.616,5.800,20.290,18.420
99,49337.842000,241.202,25.751,-69.636,439.737,231.367,-153.575,3.800,20.290,20.420
100,49337.894000,242.189,24.742,-68.634,435.339,229.712,-150.664,12.800,33.290,18.420
101,49337.921000,242.189,24.742,-67.632,437.095,225.345,-151.793,12.800,38.290,14.420
102,49337.961000,243.175,26.761,-64.626,437.100,224.534,-149.834,5.800,35.290,14.420
103,49338.2000,243.175,24.742,-63.624,439.742,226.243,-150.763,13.800,22.290,10.420
104,49338.22000,243.175,24.742,-65.628,440.613,225.292,-153.770,11.800,16.290,7.420
105,49338.67000,244.162,26.761,-64.626,442.387,226.274,-149.760,5.800,5.290,4.420
106,49338.104000,242.189,24.742,-66.630,439.747,225.432,-148.803,1.800,-7.710,4.420
107,49338.146000,244.162,25.751,-65.628,437.981,227.978,-150.712,2.800,-10.710,1.420
108,49338.181000,243.175,25.751,-67.632,437.980,227.110,-150.740,3.800,-9.710,2.420
109,49338.222000,243.175,26.761,-66.630,438.862,228.847,-150.681,-0.200,-7.710,2.420
110,49338.242000,246.135,26.761,-64.626,438.858,222.771,-150.878,-1.200,-5.710,-0.580
111,49338.286000,242.189,25.751,-66.630,438.864,223.695,-148.862,-3.200,-13.710,1.420
112,49338.329000,242.189,24.742,-65.628,440.623,230.556,-151.613,-7.200,-21.710,-1.580
113,49338.362000,243.175,23.732,-66.630,437.987,228.035,-148.724,-11.200,-28.710,-4.580
114,49338.402000,243.175,24.742,-67.632,438.862,231.423,-151.590,-10.200,-34.710,-5.580
115,49338.442000,241.202,26.761,-69.636,438.855,227.054,-152.725,-10.200,-31.710,-5.580
116,49338.484000,242.189,24.742,-67.632,437.092,224.449,-152.815,-11.200,-27.710,-6.580
117,49338.504000,242.189,24.742,-66.630,435.330,224.448,-152.821,-14.200,-35.710,-8.580
118,49338.544000,241.202,24.742,-68.634,437.970,227.866,-154.688,-11.200,-34.710,-9.580
119,49338.586000,240.216,25.751,-68.634,436.214,228.789,-152.677,-15.200,-26.710,-10.580
120,49338.626000,240.216,26.761,-69.636,436.204,231.280,-156.569,-12.200,-26.710,-15.580
121,49338.667000,243.175,27.771,-67.632,435.328,229.600,-154.640,-14.200,-26.710,-15.580
122,49338.704000,244.162,26.761,-69.636,437.084,226.101,-155.741,-8.200,-31.710,-13.580
123,49338.724000,240.216,26.761,-70.638,434.452,233.099,-153.536,-19.200,-29.710,-17.580
124,49338.762000,241.202,27.771,-68.634,434.441,228.675,-156.659,-13.200,-33.710,-20.580
125,49338.806000,242.189,27.771,-67.632,432.679,229.541,-156.636,-23.200,-43.710,-19.580
126,49338.845000,242.189,28.781,-70.638,433.558,226.938,-156.718,-15.200,-42.710,-16.580
127,49338.886000,241.202,27.771,-74.646,436.198,226.912,-157.703,-20.200,-35.710,-13.580
128,49338.926000,240.216,27.771,-71.640,433.556,227.778,-157.684,-18.200,-36.710,-16.580
129,49338.967000,239.229,29.791,-74.646,432.668,233.740,-161.465,-18.200,-36.710,-16.580
130,49338.982000,240.216,26.761,-70.638,432.673,235.505,-160.415,-22.200,-32.710,-19.580
131,49339.22000,242.189,29.791,-72.642,434.427,229.402,-161.600,-6.200,-25.710,-22.580
132,49339.65000,242.189,30.801,-71.640,434.439,233.826,-158.478,-1.200,-38.710,-16.580
133,49339.106000,240.216,30.801,-74.646,431.789,236.344,-161.383,-14.200,-43.710,-15.580
134,49339.145000,239.229,28.781,-71.640,429.150,237.238,-160.370,-15.200,-51.710,-13.580
135,49339.186000,240.216,29.791,-77.652,429.150,237.238,-160.370,-9.200,-35.710,-13.580
136,49339.206000,241.202,29.791,-74.646,429.140,235.418,-163.408,-2.200,-26.710,-16.580
137,49339.245000,241.202,32.821,-70.638,428.259,234.549,-163.439,6.800,-33.710,-16.580
138,49339.282000,240.216,32.821,-78.654,425.618,238.019,-163.335,-7.200,-38.710,-3.580
139,49339.322000,236.270,30.801,-77.652,429.134,235.361,-165.396,-27.200,-44.710,1.420
140,49339.364000,239.229,26.761,-77.652,426.483,231.831,-167.505,-6.200,-43.710,-8.580
141,49339.406000,238.243,29.791,-79.656,428.254,239.672,-166.252,-7.200,-27.710,-8.580
142,49339.449000,238.243,29.791,-81.659,430.902,238.863,-164.283,-17.200,-1.710,-7.580
143,49339.465000,238.243,29.791,-80.658,426.506,243.256,-162.169,-10.200,16.290,0.420
144,49339.506000,237.256,30.801,-76.650,429.140,234.550,-163.436,-17.200,2.290,-1.580
145,49339.561000,240.216,31.811,-74.646,426.495,231.944,-163.529,-11.200,-2.710,-3.580
146,49339.584000,239.229,31.811,-76.650,429.136,237.965,-165.311,-2.200,-4.710,-1.580
147,49339.624000,238.243,31.811,-76.650,427.388,240.681,-161.257,-1.200,-4.710,-1.580
148,49339.666000,238.243,31.811,-76.650,426.500,243.199,-164.157,-6.200,1.290,1.420
149,49339.682000,239.229,33.830,-76.650,425.606,232.727,-166.485,-4.200,3.290,6.420
150,49339.722000,238.243,31.811,-75.648,425.610,238.803,-166.288,-1.200,4.290,6.420
151,49339.764000,240.216,30.801,-76.650,426.499,238.020,-163.332,12.800,9.290,3.420
152,49339.804000,241.202,30.801,-78.654,429.140,235.418,-163.408,3.800,11.290,9.420
153,49339.842000,238.243,29.791,-76.650,428.253,237.936,-166.308,-4.200,1.290,9.420
154,49339.887000,242.189,30.801,-72.642,428.264,241.493,-163.214,2.800,4.290,5.420
155,49339.927000,239.229,30.801,-73.644,428.266,240.653,-162.248,4.800,-7.710,1.420
156,49339.944000,240.216,31.811,-74.646,428.258,237.993,-164.320,2.800,-16.710,2.420
157,49339.990000,240.216,32.821,-75.648,426.503,238.916,-162.310,-3.200,-18.710,4.420
158,49340.24000,238.243,29.791,-78.654,426.492,235.359,-165.404,-2.200,-14.710,2.420
159,49340.64000,236.270,29.791,-79.656,430.901,233.683,-163.459,-3.200,-3.710,-1.580
160,49340.104000,240.216,32.821,-73.644,429.135,236.229,-165.368,-4.200,-1.710,1.420
161,49340.142000,238.243,29.791,-76.650,427.375,237.964,-165.317,-6.200,3.290,2.420
162,49340.164000,238.243,30.801,-77.652,430.022,236.286,-163.377,-3.200,5.290,2.420
163,49340.204000,238.243,30.801,-75.648,424.731,233.650,-164.472,-4.200,-0.710,-0.580
164,49340.244000,242.189,31.811,-74.646,428.258,241.437,-165.201,-6.200,-8.710,-2.580
165,49340.285000,239.229,31.811,-73.644,429.136,237.965,-165.311,-1.200,-11.710,-5.580
166,49340.325000,240.216,32.821,-75.648,427.376,231.944,-163.526,-1.200,-15.710,-2.580
167,49340.367000,240.216,31.811,-75.648,426.492,235.359,-165.404,-1.200,-27.710,-2.580
168,49340.405000,241.202,30.801,-75.648,428.257,239.701,-165.258,2.800,-42.710,-5.580
169,49340.427000,241.202,31.811,-76.650,423.845,233.593,-166.463,7.800,-50.710,-9.580
170,49340.467000,242.189,31.811,-73.644,423.842,237.009,-168.338,4.800,-66.710,-11.580
171,49340.505000,241.202,34.840,-73.644,422.952,233.480,-170.442,3.800,-91.710,-14.580
172,49340.546000,244.162,30.801,-74.646,421.183,235.130,-173.373,-15.200,-117.710,-20.580
173,49340.587000,244.162,33.830,-72.642,422.945,235.131,-173.367,-32.200,-147.710,-26.580
174,49340.624000,240.216,31.811,-77.652,421.170,240.169,-179.167,1.800,-194.710,-34.580
175,49340.645000,231.337,33.830,-87.671,419.404,242.715,-181.076,3.800,-218.710,-31.580
176,49340.685000,232.324,30.801,-93.683,417.628,246.017,-186.933,22.800,-202.710,-42.580
177,49340.725000,226.405,30.801,-104.704,414.980,242.515,-188.048,36.800,-134.710,-29.580
178,49340.767000,223.445,33.830,-102.701,414.974,239.015,-189.154,11.800,-57.710,-21.580
179,49340.807000,232.324,30.801,-94.685,414.083,239.770,-193.105,-24.200,8.290,-5.580
180,49340.847000,251.067,36.860,-75.648,413.210,239.853,-190.126,4.800,-37.710,-5.580
181,49340.889000,280.663,36.860,-52.603,416.745,243.413,-187.020,-91.200,-134.710,-7.580
182,49340.909000,276.717,15.653,-20.540,410.557,244.919,-194.935,12.800,-396.710,45.420
183,49340.944000,271.784,19.692,-11.523,410.532,241.221,-202.999,235.800,-328.710,38.420
184,49340.984000,252.054,15.653,-10.521,414.921,235.904,-207.129,543.800,46.290,80.420
185,49341.25000,237.256,12.623,-11.523,419.341,230.028,-200.355,454.800,475.290,118.420
186,49341.65000,242.189,-3.535,-29.558,434.357,221.810,-184.686,523.800,839.290,125.420
187,49341.107000,249.094,-10.604,-34.568,444.092,214.512,-167.017,551.800,1150.290,51.420
188,49341.129000,261.919,2.525,-42.583,452.981,210.127,-138.334,661.800,1336.290,117.420
189,49341.164000,272.771,35.850,-51.601,465.384,216.860,-115.237,797.800,1235.290,63.420
190,49341.204000,272.771,57.057,-36.571,468.990,216.812,-86.431,613.800,1106.290,-90.580
191,49341.247000,239.229,38.880,-49.597,469.041,221.630,-69.393,441.800,1035.290,-112.580
192,49341.286000,219.499,62.107,-54.607,469.120,229.307,-43.326,-5.200,945.290,-93.580
193,49341.324000,210.620,50.998,-54.607,465.681,229.281,-13.548,-245.200,912.290,-45.580
194,49341.366000,207.661,90.383,-52.603,463.118,234.380,13.420,-455.200,892.290,-119.580
195,49341.390000,189.904,-101.491,-256.000,461.336,237.625,5.575,1084.800,-523.710,26.420
196,49341.426000,317.164,-100.481,62.622,462.157,232.723,-14.441,531.800,-741.710,140.420
197,49341.466000,242.189,79.274,-120.736,463.003,228.073,-25.512,2.800,-453.710,137.420
198,49341.506000,303.353,-36.860,-11.523,463.868,228.773,-31.444,1017.800,184.290,82.420
199,49341.546000,314.204,121.688,-21.542,462.103,225.300,-31.563,421.800,59.290,-92.580
200,49341.586000,256.987,11.613,1.503,462.096,226.083,-34.516,54.800,-137.710,56.420
201,49341.606000,253.040,15.653,-7.515,463.849,222.556,-36.611,220.800,-157.710,-13.580
202,49341.651000,245.148,7.574,-45.589,462.065,222.329,-44.568,186.800,-175.710,-92.580
203,49341.691000,252.054,27.771,-30.560,461.186,230.113,-45.311,127.800,-25.710,-106.580
204,49341.726000,259.946,19.692,-14.528,457.655,230.894,-48.276,173.800,49.290,-86.580
205,49341.769000,254.027,33.830,-22.544,456.777,235.233,-48.138,81.800,69.290,-81.580
206,49341.806000,246.135,10.604,-43.585,455.026,237.920,-45.078,-131.200,162.290,-98.580
207,49341.846000,261.919,13.633,-7.515,452.408,238.172,-36.141,-93.200,294.290,-108.580
208,49341.870000,268.825,5.554,-31.562,454.183,236.578,-31.222,-109.200,324.290,-215.580
209,49341.905000,263.892,15.653,-62.622,450.702,251.641,-19.822,-121.200,584.290,-321.580
210,49341.950000,283.622,58.067,-69.636,452.543,259.319,6.251,-424.200,1234.290,-314.580
211,49341.991000,305.326,90.383,11.523,446.506,264.054,51.070,-1187.200,1480.290,-283.580
212,49342.26000,174.119,-90.383,-78.654,443.918,264.587,69.946,-967.200,920.290,-192.580
213,49342.65000,237.256,-161.073,-253.996,443.883,264.249,58.019,162.800,-1191.710,-279.580
214,49342.87000,302.366,41.909,-187.867,450.778,259.289,5.252,603.800,-2030.710,10.420
215,49342.134000,290.528,66.146,-147.789,455.033,256.092,-46.474,-1907.200,-2706.710,234.420
216,49342.170000,190.890,-4.544,-151.796,449.606,251.236,-95.306,-2211.200,-2785.710,429.420
217,49342.210000,230.351,25.751,-139.773,438.042,245.817,-133.252,-1560.200,-2731.710,480.420
218,49342.250000,260.933,17.673,-164.822,411.464,242.597,-185.077,-649.200,-2459.710,180.420
219,49342.290000,257.973,28.781,-38.575,380.494,232.599,-231.179,69.800,-2130.710,267.420
220,49342.330000,247.121,110.580,-47.593,350.477,229.353,-253.226,88.800,-1500.710,131.420
221,49342.350000,281.649,-6.564,8.517,340.760,228.225,-262.231,150.800,-414.710,160.420
222,49342.387000,299.407,-11.613,60.618,331.972,231.019,-255.217,-634.200,72.290,147.420
223,49342.427000,337.881,50.998,105.706,342.586,227.138,-239.421,467.800,1079.290,398.420
224,49342.467000,399.044,-50.998,6.513,366.467,222.065,-204.755,-490.200,1516.290,603.420
225,49342.510000,297.434,1.515,2.505,373.569,223.473,-185.819,-490.200,982.290,312.420
226,49342.547000,294.474,57.057,-30.560,381.548,223.118,-167.931,-167.200,628.290,173.420
227,49342.570000,257.973,40.899,-78.654,385.964,218.922,-163.089,212.800,329.290,3.420
228,49342.605000,256.000,-11.613,-41.581,384.194,215.393,-165.195,210.800,111.290,40.420
229,49342.650000,211.607,-14.643,-104.704,386.832,219.650,-168.027,303.800,-46.710,-49.580
230,49342.687000,242.189,33.830,-105.706,382.404,211.666,-174.258,359.800,-44.710,-192.580
231,49342.730000,233.310,0.505,-87.671,378.000,221.154,-175.950,113.800,-234.710,-87.580
232,49342.770000,236.270,0.505,-91.679,376.219,217.512,-182.032,306.800,-259.710,-175.580
233,49342.810000,231.337,37.870,-130.755,374.443,209.614,-185.273,108.800,-216.710,-146.580
234,49342.825000,239.229,21.712,-117.730,372.687,218.293,-184.997,-84.200,89.290,-41.580
235,49342.869000,235.283,21.712,-74.646,373.568,217.426,-185.023,-53.200,68.290,-25.580
236,49342.911000,243.175,12.623,-65.628,372.682,218.237,-186.985,-42.200,-205.710,-29.580
237,49342.950000,240.216,1.515,-54.607,365.617,222.374,-193.824,-65.200,-537.710,-104.580
238,49342.989000,277.703,4.544,-31.562,358.534,228.051,-207.565,49.800,-903.710,-229.580
239,49343.31000,356.624,52.008,-21.542,336.444,229.095,-231.433,91.800,-1516.710,-404.580
240,49343.51000,463.168,57.057,-7.515,307.269,234.079,-269.099,230.800,-2084.710,-534.580
241,49343.90000,425.680,62.107,6.513,272.791,231.135,-311.010,655.800,-2119.710,-250.580
242,49343.130000,246.135,29.791,-224.939,259.497,220.005,-336.239,170.800,-1845.710,-53.580
243,49343.181000,144.524,-21.712,-64.626,248.840,207.085,-363.503,1075.800,-1014.710,35.420
244,49343.210000,95.198,13.633,-15.530,262.021,196.425,-372.744,895.800,713.290,-196.580
245,49343.251000,89.279,32.821,-45.589,297.323,191.051,-348.973,224.800,1798.290,-265.580
246,49343.290000,122.821,14.643,-69.636,331.769,196.261,-318.904,-186.200,2640.290,-400.580
247,49343.310000,238.243,16.663,-111.718,377.757,204.957,-257.902,-399.200,3174.290,-161.580
248,49343.346000,302.366,75.235,-108.712,425.543,213.152,-184.002,-401.200,3075.290,-136.580
249,49343.390000,329.988,65.136,-128.751,450.430,227.406,-109.978,216.800,2917.290,-148.580
250,49343.432000,288.555,48.978,-144.783,454.146,243.099,-45.906,206.800,2462.290,-197.580
251,49343.467000,278.690,59.077,-125.746,456.021,251.115,-7.906,141.800,2223.290,-269.580
252,49343.510000,216.540,-13.633,-138.771,445.595,265.479,40.190,480.800,1839.290,-395.580
253,49343.550000,202.728,-43.929,-170.834,433.327,276.450,60.367,864.800,1017.290,-332.580
254,49343.572000,194.836,-21.712,-130.755,427.175,285.210,63.610,737.800,405.290,-98.580
255,49343.611000,397.071,-21.712,105.706,428.041,276.446,60.350,-378.200,-401.710,508.420
256,49343.651000,293.487,-107.550,-68.634,436.817,264.915,51.067,-670.200,-1098.710,246.420
257,49343.692000,277.703,-0.505,-0.501,438.492,255.447,22.961,894.800,-925.710,240.420
258,49343.732000,267.838,15.653,-35.569,441.931,250.293,-5.992,440.800,-883.710,214.420
259,49343.767000,274.744,32.821,-98.693,437.505,249.225,-12.991,410.800,-430.710,66.420
260,49343.789000,259.946,14.643,-66.630,439.246,255.048,-21.734,97.800,-170.710,24.420
261,49343.829000,251.067,28.781,-50.599,439.251,250.793,-18.893,32.800,107.290,-59.580
262,49343.877000,256.000,33.830,-37.573,437.515,257.933,-11.716,-177.200,338.290,-96.580
263,49343.921000,251.067,14.643,-7.515,439.289,256.339,-6.797,-210.200,379.290,-97.580
264,49343.952000,250.081,21.712,16.532,439.331,263.649,6.349,-147.200,320.290,-129.580
265,49343.989000,255.013,12.623,2.505,436.698,268.912,8.498,-47.200,227.290,-113.580
266,49344.9000,274.744,58.067,-29.558,434.077,267.399,16.384,-165.200,265.290,-139.580
267,49344.60000,285.595,49.988,-45.589,433.243,267.009,33.250,-435.200,648.290,-172.580
268,49344.92000,288.555,62.107,-27.554,427.121,269.163,48.195,-641.200,1023.290,-224.580
269,49344.127000,193.850,34.840,-101.699,423.686,270.902,79.023,-1212.200,777.290,-255.580
270,49344.172000,259.946,-47.968,-284.055,429.843,269.954,76.033,-254.200,-974.710,-184.580
271,49344.212000,287.568,-67.156,-149.793,440.303,256.796,39.892,-595.200,-1988.710,441.420
272,49344.252000,293.487,-2.525,-187.867,451.654,256.658,4.176,-1226.200,-2720.710,267.420
273,49344.269000,252.054,79.274,-159.812,459.422,245.595,-49.780,-2113.200,-2952.710,323.420
274,49344.312000,203.715,-26.761,-125.746,446.057,244.092,-102.500,-1039.200,-2749.710,3.420
275,49344.352000,182.012,47.968,-115.726,423.804,231.463,-180.434,1154.800,-2184.710,-59.580
276,49344.394000,182.998,32.821,-114.724,406.080,224.388,-215.475,880.800,-1764.710,14.420
277,49344.429000,203.715,-30.801,-26.552,382.156,212.659,-261.610,771.800,-1186.710,52.420
278,49344.467000,224.432,-76.245,8.517,366.214,185.092,-285.394,1988.800,-162.710,8.420
279,49344.501000,229.364,23.732,-86.669,366.199,160.816,-285.189,1591.800,1317.290,-228.580
280,49344.531000,511.507,-197.428,18.536,389.252,182.988,-237.725,-1150.200,2019.290,392.420
281,49344.574000,319.137,298.414,-44.587,394.584,192.067,-223.512,15.800,1155.290,-485.580
282,49344.609000,259.946,-31.811,-74.646,401.676,194.230,-208.524,505.800,877.290,79.420
283,49344.654000,209.634,-67.156,-103.703,413.177,195.586,-191.562,-361.200,893.290,-132.580
284,49344.694000,233.310,15.653,-53.605,412.343,197.772,-175.606,177.800,905.290,-385.580
285,49344.756000,233.310,70.185,-54.607,415.888,206.595,-170.344,183.800,389.290,-292.580
286,49344.764000,262.906,41.909,-59.616,412.376,207.573,-166.351,105.800,191.290,-93.580
287,49344.787000,243.175,-4.544,-30.560,415.017,205.839,-166.399,154.800,49.290,-5.580
288,49344.834000,253.040,-39.890,-42.583,415.902,210.180,-166.255,410.800,243.290,-114.580
289,49344.869000,247.121,36.860,-37.573,413.254,203.234,-166.489,525.800,245.290,-270.580
290,49344.909000,246.135,12.623,-63.624,410.602,206.591,-170.361,386.800,137.290,-277.580
291,49344.950000,239.229,36.860,-54.607,409.721,210.902,-171.217,287.800,113.290,-289.580
292,49344.990000,261.919,21.712,-43.585,411.477,217.735,-174.961,198.800,31.290,-271.580
293,49345.10000,258.960,62.107,-114.724,408.865,220.619,-164.946,157.800,395.290,-105.580
294,49345.49000,289.541,45.949,-63.624,409.759,223.336,-160.883,376.800,448.290,-3.580
295,49345.87000,283.622,41.909,-8.517,411.513,212.921,-161.215,431.800,260.290,70.420
296,49345.135000,329.988,39.890,22.544,412.392,222.385,-163.884,-676.200,-567.710,142.420
297,49345.169000,234.297,48.978,48.595,407.966,219.581,-170.941,-619.200,-675.710,102.420
298,49345.209000,145.511,54.028,25.550,411.492,222.188,-170.845,-351.200,-184.710,197.420
299,49345.230000,150.443,43.929,32.564,415.933,229.445,-159.672,-415.200,452.290,118.420
300,49345.270000,162.281,1.515,-32.564,426.563,232.620,-139.675,-569.200,738.290,154.420
301,49345.310000,235.283,-19.692,-119.734,438.971,230.785,-112.884,-770.200,784.290,332.420
302,49345.349000,290.528,-23.732,-140.775,440.755,222.388,-103.221,-318.200,63.290,318.420
303,49345.389000,217.526,3.535,-157.808,440.720,220.314,-115.204,119.800,-682.710,237.420
304,49345.435000,190.890,14.643,-146.787,435.361,209.246,-138.419,174.800,-910.710,243.420
305,49345.471000,291.514,56.047,97.691,435.351,203.982,-140.576,797.800,312.290,-176.580
306,49345.490000,252.054,35.850,-62.622,430.052,208.149,-146.416,-19.200,-545.710,-194.580
307,49345.534000,243.175,59.077,-93.683,431.794,201.066,-151.605,261.800,2.290,113.420
308,49345.572000,253.040,3.535,-1.503,435.319,198.492,-150.684,168.800,67.290,281.420
309,49345.610000,256.000,-18.682,-47.593,438.840,190.711,-149.933,51.800,2.290,179.420
310,49345.650000,253.040,-21.712,-93.683,439.722,188.136,-149.020,-64.200,-0.710,-64.580
311,49345.694000,248.108,16.663,-35.569,437.966,188.191,-147.038,-50.200,6.290,-96.580
312,49345.725000,245.148,17.673,-23.546,433.553,193.283,-150.859,-23.200,-182.710,-79.580
313,49345.755000,245.148,19.692,-2.505,431.766,193.896,-159.782,-303.200,-569.710,8.420
314,49345.790000,295.461,28.781,75.648,421.145,199.429,-178.503,-511.200,-1303.710,21.420
315,49345.830000,408.909,27.771,107.710,410.524,207.538,-198.134,-743.200,-2192.710,97.420
316,49345.881000,511.507,212.576,120.736,376.901,208.653,-249.841,-305.200,-3180.710,31.420
317,49345.912000,257.973,-28.781,-179.851,345.034,195.910,-300.999,528.800,-2532.710,-34.580
318,49345.954000,96.185,-27.771,78.654,347.663,196.639,-305.932,691.800,-448.710,124.420
319,49345.972000,59.684,45.949,90.677,370.649,200.048,-277.944,-325.200,2203.290,-42.580
320,49346.10000,58.697,-31.811,9.519,407.000,216.160,-199.851,-646.200,3545.290,-256.580
321,49346.54000,170.173,12.623,-210.912,437.258,231.263,-95.993,-658.200,4144.290,-151.580
322,49346.89000,375.368,0.505,-223.937,441.073,243.630,3.719,-271.200,3811.290,-89.580
323,49346.132000,226.405,-31.811,-300.086,435.080,237.588,66.062,-301.200,2454.290,59.420
324,49346.175000,195.823,-44.939,-321.127,436.005,237.172,81.940,-192.200,809.290,356.420
325,49346.195000,225.418,4.544,-226.943,438.599,227.203,66.730,-95.200,-1014.710,273.420
326,49346.232000,302.366,206.517,-29.558,439.406,234.227,39.157,2179.800,-394.710,-388.580
327,49346.272000,260.933,58.067,-41.581,441.150,226.304,34.933,187.800,-340.710,250.420
328,49346.311000,369.449,101.491,1.503,441.153,233.219,34.164,168.800,-199.710,57.420
329,49346.351000,215.553,-47.968,-18.536,441.121,228.598,24.084,477.800,-111.710,209.420
330,49346.389000,264.879,57.057,-21.542,443.761,228.571,23.099,168.800,8.290,48.420
331,49346.431000,259.946,32.821,8.517,445.519,223.365,22.936,70.800,0.290,134.420
332,49346.451000,249.094,-0.505,1.503,446.395,212.978,23.595,-36.200,-111.710,69.420
333,49346.490000,243.175,-2.525,-10.521,447.272,222.414,19.932,-97.200,-108.710,3.420
334,49346.530000,258.960,4.544,-12.524,445.501,218.016,17.797,-74.200,-53.710,-45.580
335,49346.570000,258.960,-1.515,-5.511,443.753,225.911,21.027,-65.200,-10.710,-81.580
336,49346.611000,271.784,6.564,-17.534,445.525,226.865,24.042,47.800,102.290,-96.580
337,49346.651000,254.027,1.515,-27.554,442.008,229.523,26.103,-11.200,234.290,-120.580
338,49346.681000,258.960,32.821,-2.505,439.386,234.030,32.199,-69.200,350.290,-131.580
339,49346.715000,247.121,7.574,-12.524,441.167,233.360,39.134,-66.200,327.290,-104.580
340,49346.751000,262.906,30.801,-16.532,437.686,234.648,54.060,-214.200,410.290,-132.580
341,49346.791000,269.811,29.791,-27.554,435.948,240.052,61.180,-284.200,647.290,-113.580
342,49346.836000,262.906,53.018,-11.523,434.249,237.227,83.922,-710.200,1005.290,-65.580
343,49346.870000,283.622,34.840,23.546,430.802,237.985,110.746,-691.200,867.290,-123.580
344,49346.915000,261.919,-0.505,-139.773,429.920,232.804,111.568,-520.200,-7.710,-170.580
345,49346.934000,281.649,-81.294,-187.867,436.915,229.698,93.616,3.800,-1689.710,-38.580
346,49346.975000,289.541,39.890,-195.883,442.067,232.690,46.066,93.800,-2262.710,-4.580
347,49347.29000,241.202,39.890,-179.851,450.729,227.788,-4.708,-1837.200,-2788.710,92.420
348,49347.51000,190.890,4.544,-122.740,447.922,227.020,-62.335,-640.200,-2643.710,-172.580
349,49347.90000,170.173,33.830,-136.767,441.631,234.400,-107.793,595.800,-2291.710,-250.580
350,49347.131000,164.254,27.771,-124.744,422.075,230.932,-168.541,698.800,-1992.710,-224.580
351,49347.154000,208.647,25.751,-67.632,400.782,226.847,-220.377,926.800,-1366.710,-204.580
352,49347.194000,182.998,20.702,-14.528,377.762,211.033,-257.705,1229.800,-725.710,-312.580
353,49347.234000,240.216,81.294,121.738,368.886,182.799,-274.537,2585.800,322.290,-424.580
354,49347.276000,511.507,91.393,491.460,375.092,178.887,-259.750,-124.200,1780.290,-800.580
355,49347.310000,384.247,202.477,-9.519,395.438,181.454,-230.804,379.800,1478.290,260.420
356,49347.376000,278.690,3.535,-81.659,405.185,189.780,-212.629,-300.200,677.290,-75.580
357,49347.390000,278.690,-38.880,-89.675,416.679,184.163,-196.887,428.800,958.290,166.420
358,49347.416000,228.378,20.702,-85.667,418.480,191.447,-184.729,-298.200,823.290,-93.580
359,49347.456000,245.148,-12.623,-50.599,424.684,188.373,-170.907,283.800,787.290,-106.580
360,49347.490000,216.540,37.870,-33.566,430.875,187.763,-161.970,116.800,572.290,-120.580
361,49347.532000,246.135,3.535,-40.579,432.655,185.358,-155.091,150.800,467.290,-59.580
362,49347.576000,249.094,-5.554,-33.566,434.431,193.256,-151.850,280.800,352.290,-106.580
363,49347.616000,249.094,10.604,-59.616,436.202,196.785,-149.744,177.800,314.290,-151.580
364,49347.635000,248.108,18.682,-39.577,438.875,203.985,-140.565,99.800,430.290,-161.580
365,49347.672000,259.946,-17.673,-2.505,436.249,207.596,-135.491,271.800,311.290,-238.580
366,49347.712000,266.852,20.702,-55.609,434.487,203.283,-134.644,338.800,288.290,-348.580
367,49347.751000,256.987,33.830,-79.656,434.515,214.764,-127.320,72.800,459.290,-351.580
368,49347.795000,234.297,41.909,-106.708,433.688,218.742,-109.320,-137.200,900.290,-237.580
369,49347.836000,275.730,31.811,-57.613,434.624,224.458,-91.258,-42.200,995.290,-149.580
370,49347.877000,272.771,12.623,-35.569,435.540,229.976,-80.153,155.800,838.290,-86.580
371,49347.891000,233.310,-5.554,-37.573,434.699,233.814,-67.122,-270.200,328.290,-15.580
372,49347.930000,229.364,14.643,-56.611,430.285,225.970,-68.384,-400.200,-311.710,147.420
373,49347.971000,253.040,15.653,-39.577,429.376,230.000,-79.179,-635.200,-916.710,154.420
374,49348.11000,269.811,18.682,-4.509,417.847,225.787,-105.170,-119.200,-1401.710,93.420
375,49348.56000,258.960,50.998,21.542,412.492,223.371,-129.097,184.800,-1512.710,41.420
376,49348.91000,242.189,59.077,48.595,403.600,222.548,-157.949,218.800,-1310.710,62.420
377,49348.132000,223.445,66.146,70.638,395.610,219.347,-178.932,123.800,-670.710,128.420
378,49348.151000,221.472,61.097,72.642,394.730,217.638,-177.997,-187.200,-54.710,110.420
379,49348.204000,256.000,50.998,71.640,398.286,215.375,-166.143,-290.200,680.290,62.420
380,49348.232000,259.946,43.929,52.603,408.914,215.078,-146.259,-303.200,997.290,68.420
381,49348.272000,273.757,34.840,21.542,416.919,219.288,-120.279,-282.200,1066.290,91.420
382,49348.330000,216.540,19.692,-56.611,427.556,219.944,-97.385,-53.200,839.290,22.420
383,49348.357000,178.066,10.604,-94.685,433.751,215.918,-86.573,166.800,589.290,-79.580
384,49348.372000,223.445,-33.830,-151.796,431.119,222.916,-84.368,153.800,268.290,-238.580
385,49348.414000,470.073,104.521,48.595,438.146,214.969,-89.568,835.800,-336.710,164.420
386,49348.466000,212.593,-2.525,-38.575,432.828,216.363,-101.456,-368.200,-681.710,55.420
387,49348.496000,279.676,18.682,-69.636,432.796,208.297,-110.655,360.800,-220.710,219.420
388,49348.532000,249.094,17.673,-13.526,438.071,201.301,-112.851,-214.200,-200.710,133.420
389,49348.572000,260.933,9.594,-36.571,437.186,199.536,-113.904,-143.200,-65.710,120.420
390,49348.612000,256.987,-4.544,-48.595,438.056,192.536,-116.114,62.800,-104.710,82.420
391,49348.632000,252.054,10.604,-19.538,436.307,197.827,-112.969,-67.200,-48.710,-51.580
392,49348.672000,241.202,22.722,-1.503,432.780,201.241,-114.856,-38.200,-108.710,-16.580
393,49348.717000,238.243,8.584,11.523,429.252,202.918,-116.799,-90.200,-206.710,-37.580
394,49348.757000,240.216,16.663,34.568,429.218,200.004,-127.816,-86.200,-549.710,-35.580
395,49348.791000,244.162,-23.732,61.620,424.744,194.145,-150.859,223.800,-1087.710,167.420
396,49348.832000,315.191,40.899,71.640,404.393,199.276,-183.527,-638.200,-2175.710,-137.580
397,49348.852000,511.507,104.521,92.681,388.449,203.572,-215.214,-777.200,-2736.710,1.420
398,49348.897000,469.087,55.037,-63.624,356.599,203.932,-262.968,-716.200,-3106.710,166.420
399,49348.934000,305.326,-56.047,1.503,348.580,203.025,-294.799,446.800,-1682.710,109.420
400,49348.976000,144.524,-22.722,101.699,371.538,195.821,-274.106,642.800,1237.290,109.420
401,49349.14000,104.077,47.968,33.566,395.428,199.457,-238.164,73.800,2802.290,-182.580
402,49349.54000,206.674,28.781,-97.691,430.950,216.075,-142.184,-547.200,3989.290,-396.580
403,49349.94000,293.487,57.057,-171.836,450.634,229.434,-38.416,-736.200,3962.290,-118.580
404,49349.114000,245.148,-82.304,-321.127,449.136,234.628,53.103,-910.200,3257.290,69.420
405,49349.152000,227.391,-71.195,-227.945,440.412,243.223,81.157,632.800,1543.290,-58.580
406,49349.192000,182.012,63.116,-273.033,434.282,243.584,94.058,-441.200,-213.710,113.420
407,49349.232000,294.474,-288.316,-144.783,439.506,240.393,73.119,-222.200,-1433.710,28.420
408,49349.274000,256.987,114.619,-59.616,438.510,240.973,32.422,2563.800,-387.710,83.420
409,49349.316000,359.584,141.886,-2.505,442.905,234.844,30.251,-941.200,-794.710,-30.580
410,49349.336000,280.663,-7.574,-28.556,443.732,231.734,12.279,689.800,-591.710,271.420
411,49349.376000,242.189,-24.742,-34.568,444.577,227.924,0.242,-77.200,-360.710,169.420
412,49349.417000,239.229,26.761,-44.587,444.566,229.548,-3.677,436.800,-152.710,5.420
413,49349.457000,270.798,25.751,-5.511,445.434,225.964,-7.763,71.800,-195.710,103.420
414,49349.496000,253.040,-11.613,-5.511,446.301,226.691,-12.701,-161.200,-203.710,92.420
415,49349.536000,236.270,2.525,-15.530,448.050,221.400,-15.846,-298.200,-260.710,26.420
416,49349.582000,257.973,16.663,-29.558,443.629,217.784,-20.943,-77.200,-209.710,-28.580
417,49349.599000,253.040,7.574,-44.587,442.751,218.680,-19.924,-40.200,-68.710,-30.580
418,49349.634000,234.297,-19.692,-49.597,445.405,225.682,-17.702,-68.200,34.290,-76.580
419,49349.674000,239.229,21.712,-45.589,443.651,231.785,-16.517,129.800,238.290,-129.580
420,49349.712000,245.148,35.850,-23.546,445.427,225.039,-9.779,22.800,362.290,-118.580
421,49349.756000,273.757,18.682,8.517,442.818,235.707,-0.504,-11.200,303.290,-72.580
422,49349.796000,254.027,4.544,-2.505,441.934,228.790,0.262,-54.200,213.290,-116.580
423,49349.814000,247.121,14.643,-33.566,440.194,231.590,7.298,1.800,307.290,-153.580
424,49349.854000,277.703,41.909,-38.575,438.465,237.947,17.428,-57.200,547.290,-139.580
425,49349.894000,327.029,38.880,-2.505,435.878,240.216,36.361,-292.200,829.290,-121.580
426,49349.936000,310.258,62.107,7.515,435.052,250.242,53.564,-609.200,1017.290,-174.580
427,49349.976000,194.836,-9.594,-70.638,432.464,247.331,73.321,-826.200,418.290,-154.580
428,49350.17000,254.027,-39.890,-268.023,432.430,255.617,59.688,-209.200,-1235.710,-263.580
429,49350.57000,264.879,-41.909,-178.849,442.897,251.139,23.829,-305.200,-1883.710,138.420
430,49350.74000,253.040,67.156,-157.808,445.412,246.429,-20.008,-977.200,-2422.710,0.420
431,49350.116000,231.337,69.176,-163.820,442.671,240.290,-52.984,-1890.200,-2694.710,-42.580
432,49350.156000,186.944,-20.702,-123.742,433.710,248.254,-108.362,-386.200,-2422.710,-153.580
433,49350.195000,174.119,59.077,-114.724,415.031,243.022,-170.157,802.800,-2009.710,-153.580
434,49350.239000,199.769,20.702,-127.750,390.202,233.643,-225.156,630.800,-1570.710,-77.580
435,49350.274000,250.081,-30.801,-90.677,372.522,227.859,-245.260,521.800,-1106.710,53.420
436,49350.294000,227.391,-28.781,16.532,361.883,208.220,-264.798,1363.800,-126.710,163.420
437,49350.334000,237.256,22.722,101.699,366.260,171.767,-265.967,1691.800,1174.290,206.420
438,49350.372000,511.507,-259.030,160.814,388.406,184.194,-225.773,-957.200,2187.290,100.420
439,49350.421000,297.434,308.513,-85.667,399.030,186.445,-207.792,-67.200,1381.290,81.420
440,49350.455000,269.811,-65.136,-45.589,407.015,198.213,-190.504,337.800,1070.290,-56.580
441,49350.494000,296.447,-47.968,-4.509,416.735,183.859,-177.037,460.800,914.290,43.420
442,49350.536000,226.405,-2.525,-51.601,423.825,191.174,-163.868,-114.200,597.290,-105.580
443,49350.557000,254.027,45.949,-50.599,424.737,192.352,-152.904,346.800,642.290,-169.580
444,49350.599000,230.351,26.761,-42.583,427.386,180.343,-148.320,5.800,369.290,-77.580
445,49350.640000,255.013,6.564,-62.622,429.163,186.533,-144.141,112.800,408.290,-19.580
446,49350.677000,254.027,5.554,-36.571,432.712,190.233,-136.066,196.800,436.290,-30.580
447,49350.720000,256.000,1.515,-30.560,433.603,191.186,-133.053,249.800,367.290,-42.580
448,49350.767000,249.094,0.505,-17.534,437.144,195.670,-127.931,159.800,302.290,-63.580
449,49350.775000,253.040,-4.544,-31.562,433.634,195.808,-122.973,114.800,247.290,-141.580
450,49350.820000,249.094,14.643,-21.542,431.012,201.183,-116.849,34.800,227.290,-162.580
451,49350.869000,268.825,-0.505,-49.597,431.906,203.032,-112.814,4.800,239.290,-166.580
452,49350.897000,260.933,0.505,-50.599,433.680,208.326,-109.658,152.800,391.290,-208.580
453,49350.934000,243.175,47.968,-59.616,433.707,213.759,-101.538,-68.200,510.290,-180.580
454,49350.975000,266.852,32.821,-26.552,435.518,215.976,-84.579,-276.200,540.290,-79.580
455,49351.19000,277.703,5.554,-32.564,435.554,222.361,-73.449,-296.200,478.290,-46.580
456,49351.36000,253.040,16.663,16.532,434.695,220.850,-65.557,-164.200,283.290,-62.580
457,49351.90000,246.135,-18.682,-28.556,432.054,220.008,-64.599,28.800,-270.710,-3.580
458,49351.119000,264.879,15.653,-30.560,430.235,215.132,-83.630,-312.200,-1080.710,-7.580
459,49351.157000,280.663,6.564,-10.521,418.699,220.326,-114.281,83.800,-1496.710,-62.580
460,49351.195000,260.933,50.998,18.536,407.144,222.748,-150.981,376.800,-1556.710,-126.580
461,49351.235000,205.688,61.097,65.628,399.164,225.679,-169.778,481.800,-1112.710,15.420
462,49351.255000,191.877,60.087,64.626,395.606,218.451,-179.954,174.800,-429.710,69.420
463,49351.299000,197.796,47.968,68.634,400.909,215.180,-173.092,-225.200,520.290,62.420
464,49351.337000,237.256,53.018,50.599,408.910,221.069,-149.043,-276.200,1122.290,36.420
465,49351.379000,271.784,34.840,10.521,418.667,223.460,-126.096,-338.200,1334.290,42.420
466,49351.420000,277.703,8.584,-28.556,430.191,220.729,-100.330,-315.200,1068.290,68.420
467,49351.457000,261.919,-6.564,-69.636,434.650,217.824,-80.550,-396.200,554.290,133.420
468,49351.499000,230.351,-2.525,-85.667,443.505,221.725,-65.500,-687.200,24.290,261.420
469,49351.519000,179.052,-24.742,-125.746,445.262,219.094,-66.573,-730.200,-104.710,256.420
470,49351.559000,310.258,-12.623,59.616,445.268,216.574,-63.676,-243.200,59.290,4.420
471,49351.595000,232.324,90.383,-111.718,445.234,208.480,-73.868,930.800,-426.710,167.420
472,49351.640000,262.906,-80.284,-75.648,449.605,201.258,-84.018,-433.200,-439.710,291.420
473,49351.681000,266.852,-59.077,-66.630,452.229,197.619,-90.086,616.800,-219.710,296.420
474,49351.715000,267.838,25.751,-37.573,450.441,193.052,-98.184,19.800,-292.710,21.420
475,49351.736000,260.933,-23.732,-64.626,452.189,192.913,-103.148,-28.200,-177.710,4.420
476,49351.776000,250.081,0.505,-41.581,452.186,192.885,-104.142,-95.200,-141.710,-38.580
477,49351.819000,238.243,-20.702,41.581,449.536,194.534,-107.076,-134.200,-133.710,-69.580
478,49351.861000,245.148,25.751,-21.542,446.014,190.248,-105.240,-88.200,-364.710,-116.580
479,49351.895000,244.162,24.742,-8.517,440.700,201.162,-117.812,-212.200,-578.710,-42.580
480,49351.940000,258.960,21.712,31.562,435.364,198.075,-134.810,-316.200,-1293.710,14.420
481,49351.979000,320.123,2.525,54.607,423.826,197.222,-164.664,-427.200,-1944.710,68.420
482,49351.997000,511.507,160.063,103.703,410.535,200.763,-192.396,-517.200,-2471.710,-23.580
483,49352.36000,511.507,16.663,-26.552,381.318,205.325,-244.970,-261.200,-2832.710,-136.580
484,49352.79000,226.405,-91.393,-173.840,357.395,199.644,-291.901,1162.800,-2117.710,-167.580
485,49352.119000,84.347,-36.860,28.556,357.394,193.596,-291.105,254.800,-40.710,-83.580
486,49352.160000,54.751,45.949,61.620,383.016,195.215,-265.152,-237.200,2113.290,-155.580
487,49352.200000,75.468,4.544,-71.640,413.181,211.993,-194.009,-479.200,3237.290,-371.580
488,49352.216000,198.782,19.692,-187.867,439.899,228.661,-96.069,-635.200,3847.290,-320.580
489,49352.256000,278.690,-18.682,-197.886,444.575,244.275,-4.192,-96.200,3548.290,-137.580
490,49352.296000,316.177,-32.821,-237.965,440.341,250.274,54.575,614.800,2496.290,-68.580
491,49352.340000,295.461,-19.692,-214.920,434.239,250.049,77.387,71.800,1432.290,229.420
492,49352.381000,226.405,-63.116,-208.908,431.604,245.820,81.213,30.800,-445.710,244.420
493,49352.419000,341.827,158.043,43.585,437.679,243.187,49.372,1672.800,-915.710,201.420
494,49352.456000,310.258,16.663,-2.505,440.273,230.643,35.071,252.800,-567.710,392.420
495,49352.479000,281.649,54.028,-65.628,443.789,235.741,31.276,-23.200,-466.710,187.420
496,49352.517000,256.000,19.692,-35.569,444.638,230.252,21.170,119.800,-257.710,237.420
497,49352.561000,264.879,-7.574,-8.517,447.274,225.018,20.016,-152.200,-191.710,173.420
498,49352.600000,256.987,-5.554,8.517,448.137,219.669,14.880,5.800,-177.710,95.420
499,49352.639000,271.784,8.584,8.517,451.651,217.851,11.854,30.800,-212.710,60.420
500,49352.675000,226.405,10.604,-41.581,448.997,215.161,8.779,-112.200,-223.710,41.420
501,49352.700000,244.162,-6.564,-45.589,449.002,213.481,10.710,-224.200,-29.710,18.420
502,49352.739000,266.852,-6.564,-18.536,449.010,217.010,12.811,-77.200,97.290,-23.580
503,49352.781000,264.879,14.643,-11.523,450.780,212.784,16.651,-35.200,159.290,-51.580
504,49352.826000,252.054,0.505,-13.526,448.144,221.462,16.925,-118.200,166.290,-84.580
505,49352.860000,243.175,1.515,-0.501,447.273,223.282,19.960,-132.200,147.290,-116.580
506,49352.896000,257.973,7.574,19.538,447.280,221.630,22.885,-7.200,33.290,-126.580
507,49352.936000,267.838,12.623,-28.556,443.769,231.232,25.171,51.800,97.290,-158.580
508,49352.956000,303.353,54.028,-38.575,442.899,231.344,29.144,-118.200,323.290,-166.580
509,49352.996000,312.231,64.126,-16.532,442.938,230.870,43.031,-567.200,720.290,-66.580
510,49353.35000,286.582,77.254,-15.530,439.491,231.628,69.855,-971.200,707.290,-147.580
511,49353.76000,197.796,-55.037,-120.736,434.229,236.161,76.936,-715.200,132.290,-220.580
512,49353.116000,256.987,-63.116,-238.967,436.850,245.430,67.316,-307.200,-1273.710,-186.580
513,49353.157000,276.717,13.633,-192.877,445.541,238.233,27.390,-75.200,-1945.710,176.420
514,49353.200000,238.243,11.613,-199.890,443.649,236.936,-18.335,-1760.200,-2684.710,-74.580
515,49353.220000,210.620,-13.633,-152.798,440.828,232.584,-80.051,-325.200,-2700.710,-65.580
516,49353.257000,156.362,1.515,-153.800,428.297,222.008,-146.965,592.800,-2395.710,-53.580
517,49353.300000,150.443,34.840,-147.789,414.953,218.127,-191.818,515.800,-2186.710,-42.580
518,49353.341000,164.254,14.643,-121.738,386.621,213.254,-240.724,350.800,-1715.710,-14.580
519,49353.382000,171.160,-26.761,-83.663,372.403,199.965,-280.920,1160.800,-1001.710,44.420
520,49353.426000,204.701,25.751,70.638,367.944,172.716,-293.734,2064.800,289.290,-74.580
521,49353.441000,287.568,61.097,208.908,376.777,154.860,-281.377,46.800,2077.290,-222.580
522,49353.480000,511.507,-94.422,279.045,401.587,158.023,-231.545,-1063.200,2202.290,325.420
523,49353.521000,256.000,181.270,-72.642,411.357,177.774,-208.034,-594.200,992.290,-20.580
524,49353.559000,225.418,33.830,-105.706,426.387,177.452,-189.129,271.800,1224.290,-160.580
525,49353.602000,274.744,14.643,-34.568,430.835,179.613,-174.150,-168.200,1214.290,63.420
526,49353.637000,263.892,3.535,-30.560,439.711,184.580,-152.115,-136.200,872.290,-31.580
527,49353.676000,237.256,-9.594,-43.585,445.043,185.902,-136.167,14.800,747.290,-53.580
528,49353.697000,238.243,-0.505,-52.603,449.492,185.488,-120.278,-87.200,595.290,-121.580
529,49353.742000,268.825,16.663,-21.542,452.143,181.263,-116.435,285.800,578.290,-106.580
530,49353.782000,250.081,0.505,-39.577,453.055,180.705,-105.527,17.800,499.290,-74.580
531,49353.822000,257.973,9.594,-36.571,453.081,188.714,-98.316,61.800,433.290,-89.580
532,49353.866000,260.933,15.653,-17.534,451.350,196.778,-89.123,-256.200,231.290,-121.580
533,49353.901000,243.175,-60.087,22.544,450.479,202.042,-86.969,150.800,244.290,-129.580
534,49353.921000,258.960,32.821,-39.577,447.847,205.597,-83.883,81.800,227.290,-172.580
535,49353.960000,270.798,10.604,-82.661,446.105,210.104,-77.785,-98.200,231.290,-226.580
536,49353.997000,260.933,38.880,-29.558,446.123,212.009,-71.765,143.800,287.290,-114.580
537,49354.40000,259.946,56.047,30.560,445.246,205.149,-69.011,-177.200,45.290,-102.580
538,49354.82000,256.987,-18.682,39.577,439.969,217.297,-68.634,-89.200,-226.710,-19.580
539,49354.117000,295.461,8.584,-43.585,438.168,217.770,-82.526,46.800,-639.710,-25.580
540,49354.157000,306.312,8.584,-19.538,435.481,223.365,-99.234,-322.200,-1179.710,42.420
541,49354.179000,276.717,11.613,-11.523,424.819,219.012,-130.192,90.800,-1240.710,83.420
542,49354.221000,254.027,41.909,-10.521,423.017,213.437,-143.288,160.800,-1021.710,76.420
543,49354.262000,181.025,31.811,9.519,418.580,213.124,-154.235,175.800,-460.710,67.420
544,49354.297000,148.470,36.860,3.507,419.454,211.332,-156.277,231.800,289.290,-33.580
545,49354.339000,184.971,30.801,-42.583,428.301,211.704,-143.327,220.800,712.290,-113.580
546,49354.379000,234.297,26.761,-35.569,434.522,213.112,-124.395,104.800,836.290,-162.580
547,49354.399000,246.135,14.643,-47.593,438.085,220.397,-112.231,189.800,800.290,-58.580
548,49354.441000,224.432,4.544,-85.667,441.647,218.190,-98.389,-109.200,546.290,95.420
549,49354.484000,221.472,-8.584,-121.738,446.980,220.380,-82.413,-625.200,311.290,45.420
550,49354.520000,436.532,-205.507,54.607,452.271,212.685,-78.674,-728.200,154.290,610.420
551,49354.556000,214.566,50.998,-13.526,454.885,203.781,-86.899,378.800,-670.710,-208.580
552,49354.599000,194.836,43.929,-84.665,452.212,201.762,-96.903,-10.200,-232.710,156.420
553,49354.639000,265.865,26.761,-67.632,458.352,199.777,-105.884,233.800,-279.710,264.420
554,49354.659000,245.148,-65.136,-15.530,457.451,192.691,-111.082,-123.200,-279.710,290.420
555,49354.705000,264.879,-16.663,-71.640,455.668,183.001,-116.367,78.800,-388.710,204.420
556,49354.742000,258.960,-8.584,-45.589,460.056,179.392,-121.435,24.800,-367.710,36.420
557,49354.782000,256.000,5.554,-85.667,456.513,175.748,-127.523,-130.200,-305.710,-10.580
558,49354.822000,244.162,14.643,-90.677,456.508,176.560,-129.482,-173.200,-158.710,1.420
559,49354.872000,250.081,-2.525,-34.568,454.747,181.738,-130.313,-100.200,-90.710,48.420
560,49354.881000,254.027,-16.663,2.505,452.981,184.285,-132.222,-88.200,-239.710,69.420
561,49354.922000,244.162,-25.751,-14.528,448.546,181.396,-142.260,-419.200,-761.710,53.420
562,49354.962000,292.501,-0.505,12.524,438.796,180.797,-163.163,-454.200,-1226.710,60.420
563,49355.4000,361.557,91.393,15.530,425.504,190.358,-192.685,-503.200,-1784.710,-16.580
564,49355.39000,427.653,120.679,87.671,409.550,185.077,-225.677,-109.200,-2629.710,15.420
565,49355.79000,511.507,111.590,237.965,377.703,182.022,-271.555,-92.200,-2669.710,-232.580
566,49355.121000,179.052,-89.373,-278.043,348.503,186.753,-318.166,350.800,-2697.710,-345.580
567,49355.141000,75.468,-90.383,16.532,344.957,179.638,-324.366,756.800,-12.710,-21.580
568,49355.179000,100.131,67.156,102.701,364.416,186.460,-298.265,158.800,1749.290,-269.580
569,49355.219000,57.711,-19.692,-63.624,397.230,214.496,-227.740,-1517.200,2874.290,-277.580
570,49355.259000,107.037,15.653,-173.840,423.967,231.361,-122.843,-1630.200,3725.290,118.420
571,49355.301000,229.364,-33.830,-251.992,437.469,235.083,-22.387,-390.200,3912.290,355.420
572,49355.339000,320.123,9.594,-253.996,441.142,233.975,30.217,205.800,3421.290,94.420
573,49355.361000,272.771,-11.613,-209.910,427.206,235.542,85.831,-195.200,1942.290,83.420
574,49355.404000,250.081,1.515,-205.902,423.750,235.347,109.645,193.800,939.290,225.420
575,49355.442000,247.121,-50.998,-205.902,427.247,233.360,100.655,998.800,-115.710,359.420
576,49355.480000,241.202,6.564,-35.569,431.602,232.017,83.744,1084.800,-452.710,264.420
577,49355.522000,303.353,139.866,-40.579,431.582,230.952,76.759,-66.200,-475.710,157.420
578,49355.560000,300.393,10.604,-19.538,434.197,227.228,67.709,512.800,-257.710,123.420
579,49355.600000,286.582,49.988,-35.569,437.703,222.750,62.610,-156.200,-193.710,69.420
580,49355.620000,248.108,-19.692,-15.530,435.948,221.097,65.530,-66.200,8.290,7.420
581,49355.664000,266.852,-3.535,13.526,439.487,226.420,69.686,104.800,185.290,-3.580
582,49355.705000,259.946,4.544,12.524,437.720,226.363,67.693,124.800,137.290,25.420
583,49355.742000,248.108,4.544,-7.515,437.725,225.551,69.652,82.800,141.290,3.420
584,49355.780000,257.973,22.722,8.517,438.623,225.720,75.619,-33.200,190.290,-0.580
585,49355.821000,254.027,6.564,4.509,436.000,229.360,81.686,159.800,237.290,-43.580
586,49355.842000,252.054,-12.623,31.562,433.354,222.442,82.446,-21.200,147.290,-52.580
587,49355.879000,251.067,19.692,7.515,430.719,225.100,84.510,21.800,150.290,-125.580
588,49355.925000,265.865,9.594,2.505,431.618,226.138,90.505,-60.200,201.290,-97.580
589,49355.977000,275.730,5.554,-4.509,430.748,234.006,92.743,-111.200,346.290,-129.580
590,49356.0,294.474,33.830,-9.519,422.860,235.262,106.660,-363.200,727.290,-159.580
591,49356.40000,278.690,92.402,-2.505,417.648,231.679,133.338,-588.200,1003.290,-166.580
592,49356.80000,178.066,2.525,-62.622,411.548,237.502,155.353,-1080.200,702.290,-146.580
593,49356.100000,297.434,-40.899,-138.771,414.176,236.495,150.364,-92.200,-552.710,-362.580
594,49356.144000,257.973,-1.515,-120.736,421.171,230.813,133.321,368.800,-1243.710,-7.580
595,49356.185000,265.865,48.978,-182.857,434.273,231.432,93.664,-223.200,-1932.710,-148.580
596,49356.225000,251.067,50.998,-163.820,446.478,229.306,48.949,-1227.200,-2599.710,-147.580
597,49356.265000,232.324,4.544,-134.763,448.963,229.466,-6.645,-614.200,-2643.710,-252.580
598,49356.300000,204.701,30.801,-128.751,449.712,230.747,-53.272,761.800,-2506.710,-345.580
599,49356.320000,187.931,40.899,-106.708,436.278,227.700,-129.874,1027.800,-2290.710,-340.580
600,49356.362000,186.944,27.771,-126.748,417.608,231.177,-190.393,937.800,-1947.710,-250.580
601,49356.404000,232.324,-35.850,-71.640,398.949,210.631,-241.762,1423.800,-1043.710,-139.580
602,49356.444000,234.297,-27.771,43.585,393.595,197.883,-263.046,2385.800,23.290,-189.580
603,49356.482000,244.162,16.663,129.753,393.560,173.410,-269.798,1048.800,1208.290,-62.580
604,49356.520000,511.507,-8.584,62.622,414.822,182.364,-229.720,-529.200,1704.290,427.420
605,49356.562000,361.557,210.556,-31.562,425.459,183.020,-206.826,-371.200,864.290,118.420
606,49356.581000,251.067,-40.899,-100.697,434.299,178.156,-195.039,518.800,814.290,-19.580
607,49356.624000,283.622,43.929,-69.636,437.842,174.044,-187.217,40.800,735.290,-179.580
608,49356.665000,242.189,-3.535,-50.599,442.277,176.065,-177.208,127.800,486.290,-120.580
609,49356.705000,231.337,-12.623,-80.658,444.939,179.708,-171.123,258.800,496.290,-95.580
610,49356.741000,240.216,15.653,-78.654,452.024,180.080,-158.179,132.800,578.290,-226.580
611,49356.786000,242.189,1.515,-81.659,452.047,188.929,-151.934,218.800,695.290,-226.580
612,49356.804000,253.040,14.643,-39.577,454.726,191.872,-139.914,100.800,620.290,-135.580
613,49356.841000,243.175,-6.564,-48.595,454.757,195.626,-129.862,165.800,553.290,-183.580
614,49356.880000,258.960,11.613,-29.558,454.791,203.720,-119.670,47.800,540.290,-231.580
615,49356.921000,250.081,2.525,-36.571,458.325,201.231,-115.767,145.800,526.290,-260.580
616,49356.964000,247.121,9.594,-33.566,455.722,210.247,-103.567,100.800,566.290,-317.580
617,49356.999000,265.865,14.643,-68.634,455.773,221.086,-88.320,-53.200,721.290,-289.580
618,49357.39000,265.865,23.732,-50.599,453.186,231.979,-71.094,-55.200,833.290,-336.580
619,49357.61000,255.013,13.633,-60.618,451.458,235.759,-60.054,48.800,764.290,-248.580
620,49357.110000,244.162,66.146,16.532,443.569,236.148,-46.165,-8.200,616.290,-187.580
621,49357.139000,255.013,47.968,37.573,444.485,233.911,-33.326,-419.200,487.290,-73.580
622,49357.181000,257.973,4.544,-49.597,445.380,230.608,-27.472,-532.200,-83.710,144.420
623,49357.225000,249.094,-0.505,-57.613,442.711,229.485,-36.454,-811.200,-858.710,130.420
624,49357.266000,269.811,4.544,-36.571,441.784,239.365,-55.003,-374.200,-1357.710,152.420
625,49357.285000,252.054,38.880,-27.554,434.630,236.582,-91.857,152.800,-1668.710,-11.580
626,49357.324000,245.148,34.840,-13.526,419.535,236.256,-133.622,585.800,-1689.710,-127.580
627,49357.364000,243.175,53.018,17.534,403.571,229.154,-169.651,688.800,-1361.710,-27.580
628,49357.400000,226.405,57.057,40.579,395.577,220.745,-190.802,400.800,-921.710,63.420
629,49357.441000,205.688,52.008,51.601,389.383,217.883,-199.852,-48.200,-350.710,98.420
630,49357.481000,223.445,57.057,47.593,395.574,216.405,-190.943,-408.200,466.290,146.420
631,49357.521000,242.189,40.899,27.554,408.854,222.242,-168.865,-639.200,948.290,168.420
632,49357.541000,235.283,36.860,16.532,413.325,219.449,-145.110,-545.200,1300.290,221.420
633,49357.581000,258.960,16.663,-67.632,430.162,223.023,-111.178,-546.200,1269.290,286.420
634,49357.627000,258.960,-25.751,-92.681,439.040,220.262,-86.415,-103.200,904.290,168.420
635,49357.664000,221.472,13.633,-129.753,445.225,211.840,-77.731,495.800,504.290,110.420
636,49357.704000,369.449,36.860,62.622,446.973,208.256,-81.814,9.800,-120.710,165.420
637,49357.745000,280.663,41.909,-43.585,447.834,208.060,-88.768,43.800,-347.710,-29.580
638,49357.765000,241.202,21.712,-60.618,449.586,208.816,-92.710,-42.200,-227.710,154.420
639,49357.801000,251.067,-4.544,-35.569,446.048,205.229,-96.810,195.800,-137.710,107.420
640,49357.840000,251.067,30.801,-8.517,452.197,199.885,-101.929,180.800,-145.710,125.420
641,49357.885000,259.946,18.682,-33.566,448.657,193.694,-106.113,183.800,-244.710,182.420
642,49357.925000,254.027,-27.771,-48.595,450.401,189.214,-111.217,18.800,-335.710,29.420
643,49357.965000,238.243,-9.594,-26.552,450.378,180.365,-117.463,58.800,-226.710,-4.580
644,49358.4000,248.108,8.584,-28.556,446.847,186.326,-121.253,-7.200,-284.710,-39.580
645,49358.25000,239.229,3.535,-10.521,443.307,194.778,-128.934,-165.200,-495.710,-48.580
646,49358.65000,248.108,13.633,9.519,438.878,199.701,-138.718,-213.200,-855.710,-65.580
647,49358.105000,253.040,6.564,17.534,428.235,198.989,-163.600,-254.200,-1350.710,-80.580
648,49358.146000,287.568,16.663,-92.681,414.071,200.879,-188.409,-133.200,-1444.710,-8.580
649,49358.185000,448.370,112.600,48.595,403.447,199.496,-206.361,-113.200,-1633.710,-147.580
650,49358.221000,511.507,131.787,187.867,379.545,202.636,-248.042,-329.200,-2403.710,-2.580
651,49358.241000,222.459,-70.185,-158.810,353.862,194.377,-294.070,493.800,-2343.710,4.420
652,49358.281000,124.794,3.535,-3.507,353.829,188.020,-304.206,347.800,-545.710,251.420
653,49358.322000,149.457,16.663,77.652,381.258,200.422,-264.989,-643.200,1493.290,441.420
654,49358.362000,126.767,23.732,42.583,404.289,207.726,-221.980,-578.200,2745.290,90.420
655,49358.401000,121.834,-14.643,-160.814,433.621,224.114,-133.971,-882.200,3415.290,-98.580
656,49358.441000,179.052,-12.623,-180.853,448.007,235.621,-34.252,-643.200,3648.290,-79.580
657,49358.481000,296.447,-57.057,-241.973,445.594,237.033,46.218,-67.200,3147.290,53.420
658,49358.505000,294.474,3.535,-214.920,436.019,239.888,86.000,139.800,2346.290,-1.580
659,49358.544000,241.202,-57.057,-208.908,429.944,230.454,120.429,-215.200,824.290,304.420
660,49358.587000,226.405,15.653,-232.955,433.444,229.363,112.461,695.800,-354.710,438.420
661,49358.627000,292.501,90.383,9.519,436.887,226.841,84.586,1220.800,-968.710,261.420
662,49358.667000,317.164,84.323,-64.626,441.250,227.289,69.720,223.800,-669.710,172.420
663,49358.715000,284.609,43.929,-18.536,443.858,222.642,58.655,177.800,-495.710,130.420
664,49358.725000,256.000,-42.919,-7.515,442.071,223.255,49.732,241.800,-261.710,173.420
665,49358.762000,264.879,49.988,-22.544,445.570,216.116,42.561,391.800,-146.710,30.420
666,49358.805000,275.730,38.880,-5.511,449.085,219.478,38.709,76.800,-230.710,131.420
667,49358.846000,249.094,-38.880,-11.523,447.319,216.845,37.625,-196.200,-264.710,89.420
668,49358.882000,257.973,8.584,-33.566,448.192,217.629,34.674,26.800,-127.710,-31.580
669,49358.922000,268.825,6.564,-27.554,447.308,218.468,33.706,7.800,18.290,-14.580
670,49358.964000,236.270,-2.525,-24.548,446.427,218.467,33.703,-3.200,83.290,-76.580
671,49358.986000,263.892,-6.564,-19.538,445.559,216.871,38.613,30.800,162.290,-151.580
672,49359.26000,241.202,9.594,-2.505,445.583,222.277,45.739,3.800,224.290,-139.580
673,49359.62000,261.919,4.544,19.538,441.173,225.661,42.856,142.800,186.290,-134.580
674,49359.106000,261.919,3.535,3.507,440.305,231.821,46.032,99.800,95.290,-186.580
675,49359.149000,279.676,25.751,-11.523,435.903,236.158,46.159,73.800,189.290,-197.580
676,49359.182000,301.380,52.008,-25.550,432.404,238.984,54.183,-158.200,427.290,-197.580
677,49359.222000,282.636,86.343,-2.505,431.555,236.718,66.023,-567.200,726.290,-68.580
678,49359.242000,178.066,-0.505,-85.667,428.979,234.788,89.784,-1012.200,421.290,-84.580
679,49359.282000,195.823,-76.245,-172.838,430.743,241.705,89.021,-36.200,-399.710,-215.580
680,49359.322000,269.811,-69.176,-175.843,437.735,242.883,69.222,-611.200,-1381.710,8.420
681,49359.362000,295.461,94.422,-149.793,444.676,236.666,33.295,-260.200,-1999.710,-87.580
682,49359.402000,268.825,9.594,-154.802,447.201,237.221,-8.385,-1569.200,-2547.710,-119.580
683,49359.446000,218.513,-7.574,-123.742,438.226,239.024,-66.942,17.800,-2393.710,-271.580
684,49359.466000,159.322,62.107,-136.767,433.703,231.818,-106.910,748.800,-2074.710,-183.580
685,49359.506000,145.511,90.383,-131.757,419.457,233.759,-160.514,5.800,-1876.710,-218.580
686,49359.546000,126.767,11.613,-124.744,400.826,235.894,-207.175,217.800,-1653.710,-342.580
687,49359.586000,146.497,48.978,-143.781,375.143,231.947,-254.056,1262.800,-1301.710,-381.580
688,49359.626000,194.836,5.554,-34.568,367.123,216.397,-282.390,1716.800,-577.710,-431.580
689,49359.664000,180.039,-67.156,-29.558,353.833,194.096,-304.009,2136.800,412.290,-205.580
690,49359.702000,262.906,74.225,58.614,364.429,169.354,-289.883,1121.800,1647.290,-178.580
691,49359.724000,511.507,-193.389,158.810,390.091,183.435,-252.603,-412.200,2081.290,591.420
692,49359.764000,322.096,106.540,-12.524,404.238,176.196,-232.933,-229.200,1251.290,346.420
693,49359.820000,248.108,45.949,-88.673,417.519,179.458,-209.946,-216.200,909.290,286.420
694,49359.844000,279.676,38.880,-61.620,427.247,180.699,-196.965,494.800,806.290,-196.580
695,49359.895000,298.420,62.107,-48.595,429.028,179.161,-190.058,306.800,502.290,-136.580
696,49359.926000,238.243,-11.613,-77.652,429.913,177.482,-188.124,82.800,253.290,54.420
697,49359.944000,230.351,-10.604,-96.689,431.685,174.992,-184.227,138.800,334.290,-87.580
698,49359.986000,240.216,1.515,-102.701,436.988,172.589,-177.337,193.800,471.290,-166.580
699,49360.29000,244.162,-2.525,-63.624,438.788,181.581,-166.117,255.800,592.290,-135.580
700,49360.67000,248.108,3.535,-59.616,442.341,182.733,-156.138,152.800,600.290,-123.580
701,49360.104000,233.310,10.604,-56.611,444.997,182.008,-151.188,35.800,530.290,-147.580
702,49360.147000,262.906,-2.525,-40.579,449.443,191.897,-138.937,-48.200,598.290,-109.580
703,49360.186000,238.243,12.623,-28.556,450.358,195.679,-127.889,-195.200,510.290,-183.580
704,49360.207000,265.865,18.682,-4.509,450.386,202.849,-119.712,-110.200,346.290,-152.580
705,49360.246000,255.013,-3.535,-30.560,446.874,200.383,-114.838,-112.200,220.290,-157.580
706,49360.287000,247.121,7.574,-19.538,449.535,204.866,-109.719,43.800,234.290,-193.580
707,49360.326000,257.973,19.692,-37.573,450.429,211.895,-106.509,72.800,223.290,-137.580
708,49360.364000,245.148,33.830,-34.568,446.052,214.749,-97.494,-133.200,362.290,-157.580
709,49360.404000,260.933,30.801,-2.505,446.067,220.070,-93.349,-169.200,222.290,-107.580
710,49360.422000,240.216,15.653,-20.540,442.555,223.624,-90.266,-77.200,51.290,-87.580
711,49360.466000,272.771,14.643,-11.523,445.202,221.946,-88.326,-130.200,13.290,-118.580
712,49360.515000,265.865,15.653,5.511,440.781,222.642,-94.276,147.800,-154.710,-112.580
713,49360.546000,348.732,16.663,-53.605,438.085,220.397,-112.231,524.800,-609.710,44.420
714,49360.587000,315.191,15.653,-2.505,435.402,223.444,-127.036,202.800,-1156.710,161.420
715,49360.627000,199.769,63.116,18.536,425.647,220.214,-149.018,-17.200,-1035.710,196.420
716,49360.674000,130.713,56.047,42.583,425.633,215.761,-153.134,-21.200,-395.710,59.420
717,49360.684000,67.576,58.067,40.579,430.078,220.470,-140.058,44.800,740.290,-74.580
718,49360.725000,156.362,36.860,-61.620,434.522,212.244,-124.423,35.800,1177.290,-137.580
719,49360.767000,256.000,4.544,-124.744,443.412,219.087,-97.362,-113.200,1083.290,-20.580
720,49360.810000,324.069,-92.402,-68.634,448.712,218.364,-92.403,-8.200,190.290,126.420
721,49360.845000,463.168,-27.771,214.920,453.994,209.716,-91.674,832.800,258.290,327.420
722,49360.885000,225.418,81.294,-52.603,453.986,213.943,-95.509,-278.200,-447.710,28.420
723,49360.905000,259.946,-21.712,-57.613,454.854,212.095,-99.538,8.800,-70.710,206.420
724,49360.947000,245.148,20.702,-17.534,455.724,204.227,-101.776,94.800,-137.710,144.420
725,49360.982000,256.987,4.544,-12.524,457.477,197.257,-102.990,-172.200,-127.710,143.420
726,49361.25000,256.987,-6.564,-9.519,457.443,192.607,-114.064,165.800,-329.710,99.420
727,49361.66000,246.135,-8.584,-32.564,456.563,193.474,-114.038,117.800,-362.710,-17.580
728,49361.105000,260.933,13.633,-31.562,458.296,193.194,-123.972,-163.200,-408.710,-102.580
729,49361.156000,241.202,8.584,0.501,452.117,195.652,-128.877,298.800,-271.710,-73.580
730,49361.169000,247.121,12.623,-37.573,446.803,198.811,-139.714,-90.200,-489.710,-77.580
731,49361.205000,253.040,22.722,-5.511,439.729,194.240,-147.829,-136.200,-853.710,-50.580
732,49361.247000,261.919,20.702,-22.544,433.501,195.352,-169.659,-284.200,-1286.710,-21.580
733,49361.285000,328.015,3.535,19.538,418.450,200.628,-197.340,-393.200,-1667.710,16.420
734,49361.329000,511.507,142.895,106.708,397.200,197.835,-234.239,-310.200,-2432.710,115.420
735,49361.371000,511.507,112.600,18.536,378.629,204.873,-260.881,-421.200,-2339.710,399.420
736,49361.385000,131.699,-65.136,-43.585,362.689,202.308,-289.812,-410.200,-1917.710,550.420
737,49361.424000,101.118,6.564,-18.536,374.167,203.438,-280.802,-369.200,419.290,520.420
738,49361.464000,82.374,16.663,47.593,396.334,202.287,-230.125,-544.200,1713.290,464.420
739,49361.514000,85.333,39.890,-11.523,416.704,199.060,-191.438,-320.200,2798.290,200.420
740,49361.546000,156.362,25.751,-145.785,442.507,208.501,-103.666,-1038.200,3378.290,-7.580
741,49361.584000,275.730,9.594,-140.775,450.711,225.883,-10.728,-818.200,3346.290,-128.580
742,49361.625000,306.312,43.929,-136.767,441.233,230.564,62.875,-79.200,3115.290,-22.580
743,49361.645000,274.744,55.037,-179.851,429.087,232.414,128.434,-858.200,2245.290,65.420
744,49361.687000,290.528,0.505,-141.777,417.709,221.939,156.854,-542.200,1318.290,189.420
745,49361.734000,224.432,-63.116,-209.910,421.225,208.082,157.409,-423.200,-388.710,166.420
746,49361.769000,265.865,-13.633,-52.603,431.695,212.255,120.837,2214.800,-869.710,89.420
747,49361.805000,297.434,2.525,10.521,435.165,219.478,100.230,-168.200,-925.710,152.420
748,49361.845000,290.528,23.732,-2.505,434.271,221.073,95.314,-124.200,-558.710,131.420
749,49361.865000,280.663,7.574,11.523,437.766,219.926,85.358,191.800,-373.710,122.420
750,49361.905000,242.189,-16.663,-15.530,439.495,217.881,74.374,196.800,-327.710,61.420
751,49361.946000,264.879,20.702,-16.532,440.361,212.561,70.232,84.800,-307.710,-8.580
752,49361.984000,265.865,6.564,-21.542,436.822,214.993,64.342,23.800,-164.710,9.420
753,49362.25000,266.852,-0.505,-25.550,440.338,211.468,62.253,-40.200,19.290,1.420
754,49362.70000,252.054,1.515,-19.538,439.470,210.740,67.191,-35.200,212.290,6.420
755,49362.111000,260.933,0.505,-0.501,439.490,218.693,72.414,2.800,313.290,-28.580
756,49362.126000,256.000,0.505,5.511,438.634,218.078,81.329,-50.200,363.290,-59.580
757,49362.166000,255.013,-3.535,16.532,435.132,220.008,88.331,-20.200,346.290,-85.580
758,49362.206000,252.054,-1.515,18.536,435.149,216.733,95.176,-15.200,312.290,-113.580
759,49362.245000,247.121,4.544,37.573,425.469,215.971,99.092,-44.200,213.290,-103.580
760,49362.286000,247.121,5.554,32.564,430.756,217.711,99.165,72.800,54.290,-111.580
761,49362.326000,271.784,7.574,12.524,429.879,227.230,98.478,92.800,98.290,-147.580
762,49362.347000,269.811,30.801,-20.540,427.255,233.445,103.637,-9.200,257.290,-144.580
763,49362.399000,296.447,76.245,-12.524,422.892,235.572,117.594,-227.200,732.290,-68.580
764,49362.425000,322.096,84.323,10.521,419.444,232.018,145.271,-856.200,977.290,-26.580
765,49362.466000,200.755,16.663,-28.556,415.081,227.258,160.990,-866.200,614.290,-106.580
766,49362.509000,266.852,-6.564,-193.879,418.559,225.941,145.071,603.800,-1015.710,-490.580
767,49362.549000,288.555,-42.919,-141.777,425.508,237.896,107.747,526.800,-1875.710,-23.580
768,49362.586000,271.784,89.373,-148.791,435.929,240.723,54.251,150.800,-2315.710,-138.580
769,49362.606000,251.067,46.959,-149.793,439.338,230.975,16.212,-1448.200,-2860.710,-108.580
770,49362.649000,214.566,-15.653,-130.755,442.709,238.080,-39.154,-282.200,-2762.710,-180.580
771,49362.692000,170.173,49.988,-101.699,434.571,236.858,-112.701,918.800,-2391.710,-229.580
772,49362.726000,154.389,37.870,-133.761,412.358,225.491,-176.693,1024.800,-2017.710,-273.580
773,49362.769000,185.958,34.840,-93.683,394.590,222.278,-228.489,1189.800,-1540.710,-200.580
774,49362.809000,196.809,9.594,-95.687,385.683,209.246,-259.723,1183.800,-1093.710,-257.580
775,49362.829000,233.310,-14.643,-36.571,372.384,189.436,-285.234,1437.800,-105.710,-234.580
776,49362.869000,250.081,24.742,97.691,372.367,171.180,-286.819,1214.800,942.290,-205.580
777,49362.912000,511.507,68.166,88.673,393.607,176.465,-253.811,-1398.200,1892.290,22.420
778,49362.946000,366.489,77.254,18.536,406.893,178.047,-228.892,-316.200,1388.290,152.420
779,49362.989000,265.865,84.323,-47.593,416.635,178.561,-210.970,164.800,966.290,32.420
780,49363.29000,287.568,28.781,-73.644,423.716,178.036,-199.049,53.800,628.290,-25.580
781,49363.70000,244.162,29.791,-63.624,425.504,174.847,-189.217,-47.200,470.290,-5.580
782,49363.90000,252.054,-15.653,-61.620,430.801,179.275,-186.077,184.800,342.290,-18.580
783,49363.130000,226.405,2.525,-85.667,431.689,177.625,-183.149,35.800,256.290,-62.580
784,49363.169000,236.270,-9.594,-94.685,436.102,176.844,-180.181,88.800,313.290,-104.580
785,49363.209000,231.337,-16.663,-87.671,437.007,182.250,-173.052,122.800,415.290,-170.580
786,49363.246000,249.094,11.613,-81.659,442.333,186.960,-159.973,58.800,557.290,-201.580
787,49363.287000,248.108,17.673,-52.603,442.343,185.337,-156.054,122.800,544.290,-167.580
788,49363.342000,266.852,-8.584,-28.556,442.374,189.958,-145.974,-8.200,395.290,-119.580
789,49363.358000,243.175,-7.574,-35.569,442.393,196.175,-140.807,72.800,319.290,-236.580
790,49363.385000,245.148,25.751,-30.560,442.427,203.401,-130.643,-100.200,305.290,-227.580
791,49363.434000,261.919,16.663,-58.614,440.669,209.476,-130.451,16.800,270.290,-189.580
792,49363.470000,258.960,27.771,-74.646,439.822,213.257,-119.408,-149.200,411.290,-183.580
793,49363.507000,262.906,28.781,-32.564,439.840,217.738,-114.298,-79.200,386.290,-120.580
794,49363.547000,267.838,12.623,-46.591,442.507,219.701,-106.282,-244.200,191.290,-114.580
795,49363.572000,302.366,-0.505,-57.613,438.103,217.122,-105.386,-252.200,-183.710,63.420
796,49363.605000,306.312,4.544,-37.573,437.206,222.132,-112.178,-394.200,-592.710,132.420
797,49363.662000,278.690,20.702,14.528,431.000,222.601,-126.084,-200.200,-773.710,54.420
798,49363.691000,216.540,69.176,28.556,424.798,217.079,-137.206,-69.200,-625.710,66.420
799,49363.731000,145.511,41.909,23.546,426.560,220.524,-138.082,-121.200,-113.710,47.420
800,49363.767000,147.484,30.801,-23.546,430.100,224.139,-132.988,-2.200,504.290,-13.580
801,49363.820000,163.268,24.742,-43.585,433.668,226.301,-118.012,-176.200,632.290,-25.580
802,49363.832000,207.661,6.564,-98.693,435.468,227.536,-105.057,-295.200,407.290,5.420
803,49363.872000,265.865,-28.781,-113.722,438.982,226.586,-108.055,75.800,-57.710,2.420
804,49363.910000,230.351,-27.771,-102.701,438.968,218.690,-111.291,807.800,-171.710,48.420
805,49363.947000,240.216,-37.870,-14.528,438.039,211.322,-126.428,1026.800,-30.710,105.420
806,49363.991000,324.069,-14.643,211.914,444.197,200.043,-126.774,698.800,643.290,128.420
807,49364.29000,293.487,180.260,-105.706,442.440,201.806,-125.729,-749.200,-426.710,-278.580
808,49364.50000,237.256,25.751,-40.579,440.666,200.824,-129.739,116.800,-20.710,304.420
809,49364.91000,248.108,-6.564,4.509,441.536,190.380,-131.068,357.800,-92.710,150.420
810,49364.136000,261.919,40.899,-46.591,443.270,178.900,-138.386,113.800,-321.710,54.420
811,49364.180000,246.135,-3.535,-58.614,441.482,177.778,-147.365,10.800,-506.710,57.420
812,49364.212000,255.013,-0.505,-68.634,437.064,187.125,-154.027,9.800,-417.710,-27.580
813,49364.250000,249.094,27.771,-62.622,437.051,188.720,-158.940,-35.200,-259.710,-65.580
814,49364.290000,245.148,15.653,-38.575,432.624,189.360,-166.877,-19.200,-287.710,45.420
815,49364.310000,247.121,15.653,-20.540,429.080,191.736,-174.755,0.800,-573.710,38.420
816,49364.347000,260.933,4.544,-26.552,421.978,186.884,-192.809,-284.200,-1004.710,50.420
817,49364.387000,297.434,12.623,-21.542,414.008,184.748,-206.806,-219.200,-1273.710,101.420
818,49364.427000,439.491,90.383,34.568,398.076,182.268,-232.755,-107.200,-1757.710,115.420
819,49364.472000,511.507,121.688,73.644,375.059,180.285,-271.620,-462.200,-2444.710,435.420
820,49364.519000,175.106,-75.235,-189.871,348.536,181.911,-305.414,-427.200,-2003.710,23.420
821,49364.532000,93.225,-1.515,4.509,347.611,183.196,-321.263,288.800,-812.710,302.420
822,49364.572000,79.414,15.653,24.548,360.015,190.797,-298.138,-682.200,686.290,209.420
823,49364.612000,129.726,55.037,56.611,385.707,203.452,-249.982,-891.200,1956.290,-40.580
824,49364.646000,159.322,-5.554,-62.622,423.826,219.621,-169.895,-1031.200,3071.290,35.420
825,49364.696000,284.609,27.771,-108.712,441.628,219.728,-105.290,-884.200,3600.290,201.420
826,49364.731000,335.908,85.333,-111.718,453.362,222.525,-6.856,-1037.200,3467.290,108.420
827,49364.769000,337.881,65.136,-109.714,443.046,223.317,82.506,-1394.200,3062.290,38.420
828,49364.789000,258.960,-44.939,-201.894,427.385,225.249,151.035,-705.200,2493.290,117.420
829,49364.831000,263.892,48.978,-101.699,410.735,230.422,180.939,360.800,1352.290,-14.580
830,49364.871000,211.607,22.722,-147.789,407.218,224.456,184.706,0.800,-52.710,-24.580
831,49364.919000,300.393,-156.024,-37.573,412.430,235.795,156.294,576.800,-1449.710,-13.580
832,49364.955000,221.472,-3.535,-7.515,421.141,235.683,121.564,1136.800,-823.710,260.420
833,49364.989000,260.933,70.185,-76.650,425.480,230.727,99.571,-30.200,-1083.710,-6.580
834,49365.14000,276.717,30.801,33.566,426.341,237.418,90.854,125.800,-653.710,80.420
835,49365.52000,264.879,6.564,-17.534,431.587,233.584,77.837,258.800,-534.710,109.420
836,49365.94000,252.054,0.505,-46.591,435.961,235.013,66.975,235.800,-276.710,76.420
837,49365.129000,268.825,23.732,5.511,435.073,235.796,64.018,133.800,-177.710,24.420
838,49365.167000,265.865,15.653,-4.509,431.523,231.228,55.915,183.800,-112.710,55.420
839,49365.209000,260.933,5.554,-12.524,434.167,229.522,56.861,67.800,-1.710,-1.580
840,49365.251000,257.973,7.574,-9.519,433.286,229.521,56.858,43.800,81.290,-54.580
841,49365.271000,254.027,6.564,-9.519,433.305,235.738,62.025,51.800,173.290,-92.580
842,49365.321000,256.000,10.604,2.505,433.310,238.370,63.103,-13.200,230.290,-101.580
843,49365.352000,253.040,2.525,12.524,430.681,241.953,67.183,10.800,235.290,-125.580
844,49365.392000,256.000,18.682,8.517,428.051,243.800,71.206,5.800,216.290,-181.580
845,49365.427000,257.973,21.712,8.517,424.548,242.287,79.090,28.800,264.290,-160.580
846,49365.474000,276.717,37.870,-19.538,419.292,251.188,87.306,-148.200,449.290,-132.580
847,49365.496000,302.366,55.037,11.523,419.331,250.715,101.193,-421.200,883.290,-20.580
848,49365.529000,343.800,109.570,25.550,413.250,243.799,132.724,-872.200,1150.290,-52.580
849,49365.580000,244.162,101.491,-8.517,408.054,236.073,166.219,-1217.200,1214.290,-82.580
850,49365.614000,264.879,10.604,-171.836,406.294,245.564,164.535,228.800,-267.710,-466.580
851,49365.649000,252.054,-48.978,-109.714,415.043,244.979,143.691,559.800,-1345.710,-116.580
852,49365.687000,256.987,6.564,-110.716,423.746,252.538,104.245,163.800,-1860.710,-147.580
853,49365.732000,255.013,106.540,-129.753,436.835,247.865,61.437,-636.200,-2282.710,-108.580
854,49365.754000,227.391,45.949,-124.744,447.266,241.312,13.594,-1670.200,-2645.710,-82.580
855,49365.794000,217.526,-17.673,-101.699,446.277,244.553,-25.031,154.800,-2449.710,-161.580
856,49365.830000,176.092,48.978,-119.734,439.914,246.049,-94.512,648.800,-2226.710,-207.580
857,49365.870000,203.715,16.663,-95.687,426.514,234.717,-157.481,969.800,-2008.710,-176.580
858,49365.910000,200.755,14.643,-125.746,405.195,222.623,-216.528,1282.800,-1536.710,-163.580
859,49365.950000,224.432,-2.525,-107.710,380.393,215.234,-262.525,1277.800,-1112.710,-231.580
860,49365.970000,235.283,-91.393,-14.528,367.992,192.150,-281.188,2104.800,-224.710,-220.580
861,49366.10000,264.879,32.821,123.742,365.309,167.618,-289.936,1046.800,1064.290,-34.580
862,49366.50000,511.507,-148.955,129.753,388.333,180.018,-250.734,-2082.200,1696.290,137.420
863,49366.89000,345.773,75.235,-16.532,402.519,181.797,-218.855,-540.200,1302.290,204.420
864,49366.127000,261.919,95.432,-34.568,410.483,187.321,-207.727,196.800,905.290,12.420
865,49366.170000,275.730,17.673,-88.673,414.041,179.906,-194.054,330.800,867.290,-56.580
866,49366.215000,256.987,-10.604,-59.616,420.248,188.060,-181.854,84.800,719.290,-54.580
867,49366.229000,250.081,-7.574,-44.587,427.331,183.252,-168.085,283.800,605.290,-48.580
868,49366.274000,242.189,12.623,-66.630,430.855,178.943,-167.221,282.800,517.290,-79.580
869,49366.312000,239.229,4.544,-67.632,434.403,180.907,-159.202,123.800,497.290,-129.580
870,49366.352000,259.946,4.544,-55.609,437.071,185.474,-151.101,286.800,594.290,-145.580
871,49366.390000,251.067,21.712,-54.607,438.858,188.304,-143.060,149.800,568.290,-93.580
872,49366.429000,247.121,-6.564,-45.589,438.889,184.302,-131.274,11.800,646.290,-94.580
873,49366.450000,254.027,12.623,-16.532,444.229,193.465,-114.078,-69.200,544.290,-153.580
874,49366.489000,248.108,-6.564,-3.507,446.893,195.400,-107.056,53.800,413.290,-128.580
875,49366.530000,254.027,2.525,-1.503,440.745,201.613,-101.909,-34.200,338.290,-162.580
876,49366.575000,250.081,19.692,-17.534,441.637,205.170,-98.812,-188.200,165.290,-203.580
877,49366.614000,271.784,-18.682,-89.675,441.657,215.698,-94.498,-95.200,202.290,-189.580
878,49366.649000,253.040,49.988,-18.536,439.037,220.234,-87.409,33.800,308.290,-160.580
879,49366.692000,239.229,41.909,35.569,436.414,223.873,-81.341,-285.200,116.290,-85.580
880,49366.710000,256.000,45.949,20.540,438.170,220.374,-82.442,-410.200,-67.710,78.420
881,49366.766000,306.312,17.673,-31.562,437.286,216.033,-82.586,-748.200,-599.710,221.420
882,49366.790000,311.245,8.584,-12.524,433.741,217.541,-90.492,-1074.200,-1080.710,157.420
883,49366.841000,263.892,27.771,41.581,430.158,217.815,-111.347,-469.200,-1092.710,77.420
884,49366.870000,181.025,27.771,30.560,429.246,218.373,-122.255,67.800,-487.710,62.420
885,49366.914000,161.295,23.732,46.591,428.356,217.420,-125.268,409.800,288.290,14.420
886,49366.930000,144.524,59.077,29.558,432.803,216.977,-110.373,225.800,939.290,-171.580
887,49366.972000,197.796,15.653,-7.515,443.459,229.029,-83.137,219.800,1306.290,-176.580
888,49367.9000,260.933,-7.574,-109.714,447.041,231.331,-63.191,85.800,878.290,-196.580
889,49367.50000,255.013,-43.929,-163.820,446.175,228.896,-57.315,202.800,166.290,-143.580
890,49367.95000,279.676,-59.077,8.517,447.006,221.502,-73.440,517.800,-624.710,245.420
891,49367.129000,235.283,-4.544,36.571,448.718,214.976,-89.534,722.800,-349.710,33.420
892,49367.175000,316.177,21.712,-35.569,448.717,218.420,-90.415,-64.200,-108.710,33.420
893,49367.189000,251.067,15.653,-30.560,448.686,210.355,-99.614,207.800,-330.710,59.420
894,49367.241000,255.013,-29.791,2.505,443.387,211.078,-104.573,531.800,-222.710,111.420
895,49367.277000,251.067,76.245,-25.550,442.463,202.899,-117.750,853.800,-292.710,33.420
896,49367.317000,275.730,62.107,-5.511,440.653,203.287,-134.624,-10.200,-778.710,85.420
897,49367.354000,240.216,-18.682,-48.595,435.303,192.304,-154.857,143.800,-861.710,10.420
898,49367.400000,256.000,7.574,-81.659,434.412,200.814,-160.542,18.800,-771.710,-95.580
899,49367.410000,242.189,25.751,-66.630,424.685,205.621,-174.319,81.800,-553.710,-193.580
900,49367.451000,244.162,24.742,-61.620,417.604,202.702,-185.359,160.800,-497.710,-78.580
901,49367.504000,251.067,11.613,-55.609,409.641,205.802,-198.193,134.800,-642.710,-67.580
902,49367.541000,245.148,20.702,-66.630,403.435,198.515,-210.365,213.800,-845.710,-74.580
903,49367.570000,278.690,13.633,-63.624,393.686,195.341,-230.359,56.800,-933.710,-22.580
904,49367.622000,365.503,49.988,-8.517,380.424,199.164,-248.152,38.800,-1142.710,-2.580
905,49367.654000,454.289,97.452,56.611,363.592,191.335,-279.242,-34.200,-1878.710,269.420
906,49367.674000,482.898,106.540,-12.524,337.959,189.603,-309.170,-202.200,-1973.710,360.420
907,49367.720000,223.445,44.939,-169.832,322.938,197.765,-326.827,-812.200,-1872.710,250.420
908,49367.757000,180.039,-24.742,-46.591,314.967,198.205,-341.734,480.800,-870.710,390.420
909,49367.791000,136.632,53.018,33.566,325.581,202.079,-327.672,-475.200,409.290,239.420
910,49367.831000,125.780,44.939,12.524,360.093,220.872,-277.302,-1033.200,1981.290,117.420
911,49367.871000,158.335,44.939,-71.640,384.017,227.422,-230.342,-1154.200,2923.290,125.420
912,49367.895000,195.823,62.107,-130.755,420.404,239.587,-138.476,-1402.200,3526.290,195.420
913,49367.931000,278.690,33.830,-149.793,439.197,250.258,-37.777,-967.200,3629.290,297.420
914,49367.974000,320.123,-22.722,-194.881,435.030,254.329,44.760,-274.200,3247.290,98.420
915,49368.14000,277.703,-28.781,-222.935,424.569,254.551,83.460,401.800,2521.290,-0.580
916,49368.54000,247.121,69.176,-155.804,414.961,259.673,111.399,194.800,1081.290,178.420
917,49368.91000,221.472,25.751,-148.791,412.342,249.565,121.986,-598.200,-61.710,262.420
918,49368.131000,225.418,-53.018,-124.744,419.322,242.874,99.945,381.800,-927.710,237.420
919,49368.151000,292.501,171.172,28.556,422.791,248.361,79.282,1193.800,-576.710,-102.580
920,49368.190000,304.339,54.028,-9.519,425.410,246.402,71.282,-227.200,-506.710,255.420
921,49368.236000,305.326,79.274,-20.540,427.149,238.422,65.071,205.800,-313.710,101.420
922,49368.276000,272.771,52.008,-22.544,425.358,237.271,55.098,164.800,-200.710,137.420
923,49368.316000,250.081,-0.505,-25.550,435.054,241.647,56.264,-28.200,-59.710,59.420
924,49368.355000,264.879,22.722,4.509,430.637,236.351,53.099,51.800,41.290,26.420
925,49368.376000,254.027,5.554,11.523,431.521,236.380,54.096,46.800,22.290,9.420
926,49368.414000,250.081,20.702,-2.505,432.402,239.824,53.218,61.800,-27.710,-42.580
927,49368.452000,248.108,17.673,5.511,431.519,238.087,53.158,39.800,-9.710,-26.580
928,49368.492000,248.108,5.554,3.507,433.285,242.429,53.305,8.800,-1.710,-50.580
929,49368.530000,256.987,6.564,8.517,431.519,240.663,52.249,94.800,23.290,-75.580
930,49368.572000,254.027,15.653,2.505,427.109,242.340,50.303,173.800,19.290,-110.580
931,49368.610000,260.933,12.623,2.505,425.360,251.943,52.595,193.800,87.290,-143.580
932,49368.631000,257.973,34.840,-25.550,422.708,250.120,49.549,185.800,207.290,-162.580
933,49368.671000,272.771,41.909,-23.546,420.970,252.080,57.551,-15.200,419.290,-125.580
934,49368.711000,304.339,64.126,-12.524,417.491,252.529,73.442,-273.200,887.290,-85.580
935,49368.789000,346.759,86.343,15.530,412.299,256.898,105.343,-648.200,1267.290,-86.580
936,49368.805000,214.566,102.501,-29.558,407.094,258.551,133.183,-1020.200,1547.290,-33.580
937,49368.832000,218.513,24.742,-200.892,399.252,253.371,164.766,-815.200,611.290,-279.580
938,49368.855000,212.593,-169.152,-275.037,400.988,256.562,154.945,92.800,-1064.710,-241.580
939,49368.896000,241.202,-19.692,-118.732,417.592,254.382,108.257,696.800,-1764.710,-149.580
940,49368.932000,288.555,87.353,-96.689,431.558,252.257,63.548,-895.200,-2415.710,-16.580
941,49368.975000,241.202,15.653,-138.771,442.926,252.288,33.796,-1918.200,-2876.710,-43.580
942,49369.15000,200.755,37.870,-90.677,446.269,256.536,-30.600,-229.200,-2750.710,-385.580
943,49369.55000,192.863,49.988,-84.665,434.616,251.952,-100.295,967.800,-2398.710,-394.580
944,49369.92000,213.580,44.939,-86.669,410.615,250.662,-175.881,1403.800,-2128.710,-394.580
945,49369.111000,271.784,13.633,-78.654,394.616,234.599,-222.132,1824.800,-1576.710,30.420
946,49369.156000,283.622,-71.195,-32.564,374.217,213.409,-265.583,1387.800,-924.710,170.420
947,49369.196000,228.378,22.722,137.769,365.345,193.827,-283.128,888.800,53.290,127.420
948,49369.231000,263.892,-11.613,199.890,380.393,180.767,-254.707,-176.200,1637.290,483.420
949,49369.273000,511.507,-102.501,69.636,397.198,187.475,-232.589,24.800,1604.290,538.420
950,49369.315000,302.366,152.994,-11.523,409.607,193.396,-207.533,-1189.200,825.290,299.420
951,49369.335000,258.960,78.264,-92.681,418.465,193.882,-190.608,132.800,703.290,34.420
952,49369.371000,238.243,-36.860,-59.616,422.904,183.023,-176.051,117.800,697.290,77.420
953,49369.412000,267.838,28.781,-51.601,429.965,186.613,-171.940,-3.200,633.290,-58.580
954,49369.452000,271.784,10.604,-31.562,431.751,185.132,-163.045,502.800,481.290,-81.580
955,49369.496000,247.121,3.535,-71.640,433.531,190.482,-157.901,218.800,388.290,-58.580
956,49369.536000,244.162,-7.574,-81.659,438.826,190.570,-154.902,282.800,440.290,-125.580
957,49369.556000,248.108,5.554,-72.642,441.497,190.854,-144.955,192.800,577.290,-158.580
958,49369.592000,246.135,3.535,-51.601,439.766,190.295,-134.055,174.800,620.290,-166.580
959,49369.637000,247.121,18.682,-50.599,444.215,197.636,-119.901,92.800,652.290,-150.580
960,49369.677000,257.973,-0.505,-30.560,445.130,201.419,-108.852,39.800,655.290,-153.580
961,49369.716000,268.825,3.535,-44.587,445.173,205.285,-94.825,10.800,702.290,-211.580
962,49369.757000,274.744,35.850,-10.521,444.318,214.161,-87.589,-134.200,747.290,-218.580
963,49369.791000,288.555,93.412,7.515,447.901,221.643,-68.468,-577.200,579.290,-82.580
964,49369.816000,289.541,67.156,28.556,447.947,222.094,-52.565,-832.200,330.290,25.420
965,49369.852000,241.202,-5.554,-0.501,448.855,224.952,-43.532,-350.200,223.290,-17.580
966,49369.896000,219.499,-14.643,-85.667,447.098,220.695,-40.697,-332.200,-205.710,-141.580
967,49369.938000,286.582,-31.811,-100.697,446.194,227.357,-50.414,-257.200,-629.710,-41.580
968,49369.972000,249.094,25.751,-13.526,439.987,229.534,-65.258,-159.200,-767.710,-61.580
969,49370.14000,233.310,24.742,9.519,434.660,230.844,-80.127,-33.200,-751.710,-126.580
970,49370.34000,222.459,56.047,61.620,429.355,240.134,-88.780,87.800,-634.710,-105.580
971,49370.79000,200.755,33.830,50.599,427.563,240.691,-99.690,263.800,-233.710,-63.580
972,49370.113000,176.092,24.742,15.530,428.449,236.436,-96.847,449.800,429.290,-5.580
973,49370.156000,208.647,25.751,1.503,432.884,238.457,-86.837,284.800,625.290,-73.580
974,49370.202000,252.054,12.623,-0.501,432.920,237.955,-73.944,141.800,650.290,-103.580
975,49370.237000,256.987,8.584,-12.524,436.459,235.523,-68.054,23.800,434.290,-47.580
976,49370.277000,262.906,-15.653,-53.605,439.113,239.949,-64.923,-176.200,-20.710,69.420
977,49370.297000,230.351,-11.613,-51.601,438.217,233.760,-69.098,348.800,-170.710,129.420
978,49370.343000,233.310,8.584,-58.614,441.720,228.386,-75.220,237.800,-60.710,133.420
979,49370.381000,456.262,-23.732,92.681,437.319,226.703,-73.302,26.800,232.290,-13.580
980,49370.413000,351.692,172.181,-55.609,438.174,218.694,-80.510,261.800,-458.710,-79.580
981,49370.457000,211.607,62.107,-10.521,439.039,215.082,-85.590,-251.200,-283.710,290.420
982,49370.498000,251.067,-57.057,12.524,442.540,204.528,-90.886,146.800,-212.710,291.420
983,49370.519000,255.013,35.850,-11.523,440.766,206.122,-95.805,-28.200,-431.710,89.420
984,49370.552000,244.162,-7.574,-8.517,442.495,207.521,-107.670,-100.200,-647.710,78.420
985,49370.594000,247.121,-0.505,-39.577,439.814,206.285,-120.627,3.800,-605.710,-6.580
986,49370.636000,257.973,17.673,-85.667,434.506,209.499,-129.477,30.800,-607.710,-166.580
987,49370.674000,253.040,39.890,-38.575,428.306,207.449,-140.486,-3.200,-610.710,-119.580
988,49370.717000,256.987,3.535,-33.566,423.858,205.287,-155.466,-71.200,-902.710,-40.580
989,49370.756000,256.987,14.643,-91.679,415.875,209.058,-175.229,-93.200,-947.710,-36.580
990,49370.777000,293.487,41.909,-40.579,408.782,208.602,-191.154,-58.200,-926.710,38.420
991,49370.818000,420.748,98.462,68.634,391.963,209.509,-219.975,-42.200,-1447.710,24.420
992,49370.857000,511.507,110.580,82.661,382.195,207.874,-246.870,-28.200,-2177.710,210.420
993,49370.894000,259.946,-44.939,-170.834,357.428,209.446,-282.646,-479.200,-2054.710,2.420
994,49370.933000,124.794,-9.594,-3.507,352.083,198.519,-300.892,156.800,-1249.710,275.420
995,49370.972000,130.713,20.702,89.675,370.641,203.407,-281.807,-481.200,847.290,304.420
996,49370.994000,129.726,36.860,57.613,392.780,210.598,-242.776,-386.200,2233.290,29.420
997,49371.37000,143.538,-12.623,-80.658,425.592,221.386,-168.839,-430.200,3082.290,-212.580
998,49371.72000,238.243,22.722,-134.763,447.881,228.334,-77.187,349.800,3672.290,-172.580
999,49371.112000,358.597,84.323,-144.783,450.766,242.797,4.716,-190.200,3399.290,-221.580
1000,49371.155000,249.094,-31.811,-214.920,442.993,247.785,58.475,-621.200,2802.290,1.420
1001,49371.197000,279.676,2.525,-150.795,430.807,251.816,109.209,-170.200,1653.290,48.420
1002,49371.237000,246.135,32.821,-147.789,422.039,251.364,124.061,-53.200,610.290,87.420
1003,49371.256000,225.418,-74.225,-194.881,426.413,247.614,114.024,208.800,-611.710,122.420
1004,49371.297000,267.838,-65.136,-18.536,430.720,245.791,80.217,2153.800,-590.710,34.420
1005,49371.350000,300.393,95.432,-1.503,431.566,254.917,65.621,522.800,-505.710,-51.580
1006,49371.381000,321.110,86.343,22.544,432.433,251.333,61.535,-273.200,-471.710,146.420
1007,49371.417000,264.879,26.761,-2.505,435.924,245.846,51.438,247.800,-400.710,127.420
1008,49371.457000,246.135,-10.604,11.523,436.779,244.725,42.468,62.800,-330.710,126.420
1009,49371.477000,247.121,31.811,-23.546,437.655,241.226,41.364,26.800,-275.710,50.420
1010,49371.519000,256.987,6.564,-14.528,437.645,242.849,37.445,37.800,-210.710,44.420
1011,49371.557000,256.987,29.791,-9.519,438.514,242.737,33.472,47.800,-100.710,47.420
1012,49371.595000,251.067,14.643,-1.503,438.500,239.153,29.384,80.800,-101.710,42.420
1013,49371.639000,258.960,18.682,-13.526,442.010,235.570,25.307,42.800,-86.710,3.420
1014,49371.680000,253.040,8.584,-16.532,442.894,239.911,25.450,24.800,-43.710,-21.580
1015,49371.720000,255.013,14.643,-21.542,443.780,242.544,26.532,14.800,71.290,-55.580
1016,49371.740000,251.067,17.673,-20.540,438.503,239.181,30.377,39.800,159.290,-77.580
1017,49371.778000,255.013,20.702,-17.534,436.743,238.340,31.338,1.800,236.290,-92.580
1018,49371.820000,262.906,18.682,-7.515,438.526,240.274,38.357,-8.200,369.290,-101.580
1019,49371.855000,256.000,22.722,-3.507,433.265,242.232,46.348,-93.200,414.290,-116.580
1020,49371.895000,255.013,18.682,8.517,433.301,246.042,58.387,-33.200,472.290,-114.580
1021,49371.935000,266.852,43.929,7.515,431.574,254.134,68.574,-172.200,548.290,-126.580
1022,49371.955000,273.757,50.998,10.521,428.087,251.054,82.365,-306.200,642.290,-109.580
1023,49371.995000,273.757,57.057,29.558,427.238,248.787,94.205,-350.200,760.290,-78.580
1024,49372.39000,262.906,45.949,27.554,422.024,258.111,117.329,-183.200,804.290,-159.580
1025,49372.75000,233.310,17.673,-30.560,415.875,258.276,123.273,410.800,422.290,-230.580
1026,49372.117000,237.256,-59.077,-134.763,418.498,270.148,113.736,463.800,-257.710,-242.580
1027,49372.159000,228.378,-49.988,-117.730,423.721,272.108,90.978,607.800,-961.710,-44.580
1028,49372.198000,231.337,61.097,-56.611,435.097,273.092,64.236,-155.200,-1224.710,0.420
1029,49372.218000,237.256,24.742,-29.558,441.192,263.768,41.114,-907.200,-1456.710,78.420
1030,49372.259000,247.121,39.890,-58.614,443.786,254.668,25.932,-885.200,-1515.710,156.420
1031,49372.296000,246.135,46.959,-47.593,453.385,249.462,-4.989,-855.200,-1597.710,-19.580
1032,49372.341000,256.000,47.968,-52.603,450.634,247.521,-42.794,-366.200,-1550.710,-198.580
1033,49372.376000,255.013,63.116,-52.603,443.469,253.249,-85.330,357.800,-1441.710,-228.580
1034,49372.416000,266.852,55.037,-54.607,442.504,258.451,-115.947,475.800,-1373.710,-234.580
1035,49372.450000,267.838,42.919,-42.583,430.038,251.099,-160.910,726.800,-1182.710,-143.580
1036,49372.475000,256.000,34.840,-13.526,416.728,246.687,-193.865,1023.800,-839.710,-48.580
1037,49372.520000,259.946,32.821,-2.505,406.950,232.032,-221.182,903.800,-407.710,14.420
1038,49372.553000,254.027,29.791,6.513,403.393,224.804,-231.358,639.800,83.290,26.420
1039,49372.596000,239.229,79.274,20.540,406.035,216.182,-229.643,-108.200,360.290,-118.580
1040,49372.639000,299.407,-68.166,-12.524,414.885,217.451,-215.672,-275.200,827.290,207.420
1041,49372.680000,279.676,-19.692,-47.593,424.613,218.692,-202.692,58.800,582.290,203.420
1042,49372.699000,228.378,34.840,-86.669,432.575,214.724,-189.886,-340.200,491.290,275.420
1043,49372.740000,256.987,103.511,-61.620,434.355,215.762,-183.889,-313.200,396.290,132.420
1044,49372.780000,267.838,30.801,-57.613,438.777,212.490,-177.030,271.800,318.290,198.420
1045,49372.820000,236.270,3.535,-83.663,445.827,203.900,-174.307,125.800,287.290,181.420
1046,49372.856000,240.216,1.515,-82.661,449.367,195.448,-166.626,165.800,381.290,111.420
1047,49372.901000,250.081,27.771,-74.646,452.029,202.535,-161.423,280.800,504.290,74.420
1048,49372.935000,252.054,2.525,-61.620,458.203,196.576,-157.624,167.800,518.290,85.420
1049,49372.955000,250.081,6.564,-56.611,459.118,189.159,-143.960,137.800,516.290,71.420
1050,49372.998000,249.094,10.604,-26.552,464.417,184.992,-138.120,114.800,433.290,42.420
1051,49373.35000,247.121,6.564,-32.564,466.207,188.719,-129.057,259.800,325.290,38.420
1052,49373.76000,251.067,9.594,-32.564,467.967,185.248,-129.164,284.800,238.290,15.420
1053,49373.116000,246.135,14.643,-32.564,467.092,182.728,-126.269,221.800,175.290,34.420
1054,49373.161000,252.054,8.584,-28.556,472.365,180.015,-130.312,158.800,90.290,48.420
1055,49373.175000,251.067,0.505,-30.560,474.141,176.713,-124.456,232.800,45.290,27.420
1056,49373.216000,252.054,1.515,-34.568,472.368,180.911,-129.290,151.800,-2.710,-19.580
1057,49373.258000,253.040,1.515,-35.569,469.726,177.465,-128.418,44.800,-16.710,-13.580
1058,49373.301000,252.054,2.525,-40.579,472.366,178.307,-129.375,41.800,-40.710,-47.580
1059,49373.340000,250.081,6.564,-38.575,467.069,177.323,-133.396,-58.200,-45.710,-55.580
1060,49373.381000,251.067,5.554,-40.579,471.478,183.402,-133.184,-72.200,-52.710,-45.580
1061,49373.421000,252.054,2.525,-39.577,468.848,185.249,-129.161,-47.200,-34.710,-88.580
1062,49373.441000,251.067,6.564,-46.591,469.715,185.976,-134.099,-78.200,-17.710,-107.580
1063,49373.481000,248.108,16.663,-43.585,464.437,192.945,-132.897,-97.200,14.290,-100.580
1064,49373.516000,251.067,10.604,-40.579,465.336,197.426,-127.784,-110.200,28.290,-75.580
