Sample, Time, ACCX, ACCY, ACCZ, MAGX, MAGY, MAGZ, GYRX, GYRY, GYRZ
0,49938.868000,248.016,-4.509,21.829,493.386,-261.732,77.862,-75.150,9.630,-93.930
1,49938.889000,247.018,-4.509,20.837,490.386,-267.526,74.745,-70.150,20.630,-75.930
2,49938.930000,252.008,-4.509,19.845,488.625,-255.234,76.067,-76.150,9.630,-54.930
3,49938.966000,253.006,-4.509,18.853,491.547,-254.300,74.131,-73.150,3.630,-33.930
4,49939.5000,254.004,-4.509,18.853,492.508,-255.179,76.075,-62.150,5.630,-19.930
5,49939.49000,254.004,-6.513,17.860,489.566,-257.138,75.032,-54.150,-29.370,-14.930
6,49939.86000,252.008,-4.509,18.853,492.463,-258.068,74.028,-38.150,-46.370,15.070
7,49939.129000,253.006,-4.509,17.860,490.447,-262.903,70.939,-31.150,-35.370,39.070
8,49939.169000,254.004,-6.513,17.860,487.507,-264.835,70.880,-11.150,-71.370,66.070
9,49939.190000,255.002,-8.517,16.868,486.550,-263.904,70.905,3.850,-86.370,81.070
10,49939.230000,253.006,-11.523,20.837,491.386,-264.833,68.920,27.850,-78.370,73.070
11,49939.270000,253.006,-11.523,18.853,484.495,-271.549,68.721,55.850,-89.370,68.070
12,49939.311000,255.002,-15.530,17.860,487.471,-266.832,66.890,48.850,-99.370,51.070
13,49939.351000,249.014,-14.528,18.853,484.508,-269.842,61.884,13.850,-122.370,61.070
14,49939.391000,256.000,-16.532,17.860,485.532,-266.072,61.007,-18.150,-63.370,45.070
15,49939.428000,252.008,-18.536,16.868,484.473,-271.838,57.894,-14.150,-112.370,32.070
16,49939.446000,250.012,-21.542,14.884,485.465,-270.012,54.995,1.850,-84.370,37.070
17,49939.492000,251.010,-19.538,17.860,485.373,-276.579,56.780,30.850,-54.370,41.070
18,49939.529000,250.012,-23.546,15.876,487.383,-271.823,56.915,30.850,-68.370,39.070
19,49939.571000,252.008,-19.538,15.876,483.370,-280.468,53.717,50.850,-67.370,36.070
20,49939.611000,252.008,-21.542,14.884,484.425,-274.754,54.862,64.850,-25.370,38.070
21,49939.650000,253.006,-18.536,14.884,483.425,-276.686,53.823,51.850,-39.370,38.070
22,49939.701000,254.004,-18.536,16.868,484.418,-275.621,57.788,56.850,8.630,31.070
23,49939.736000,251.010,-17.534,15.876,482.429,-278.564,54.752,37.850,-6.370,28.070
24,49939.750000,254.004,-20.540,17.860,477.580,-278.580,56.711,25.850,23.630,12.070
25,49939.791000,249.014,-18.536,17.860,479.492,-280.470,55.678,6.850,-0.370,13.070
26,49939.830000,256.998,-14.528,12.899,479.557,-276.556,60.705,23.850,43.630,2.070
27,49939.869000,257.996,-13.526,14.884,483.379,-281.124,64.519,61.850,85.630,-26.930
28,49939.910000,253.006,-10.521,10.915,481.575,-271.695,64.778,85.850,99.630,-31.930
29,49939.952000,256.000,-17.534,6.946,481.599,-270.618,69.726,114.850,181.630,-28.930
30,49939.987000,259.992,-20.540,8.930,481.540,-275.215,74.516,201.850,146.630,-4.930
31,49940.42000,255.002,-9.519,5.953,482.523,-275.043,80.424,187.850,121.630,7.070
32,49940.50000,256.000,-6.513,4.961,479.676,-271.170,85.445,196.850,133.630,6.070
33,49940.91000,256.998,-2.505,6.946,481.664,-268.227,88.481,117.850,112.630,7.070
34,49940.127000,254.004,-1.503,10.915,479.729,-268.175,91.430,48.850,94.630,-8.930
35,49940.167000,250.012,-4.509,14.884,475.841,-269.070,95.333,-6.150,92.630,7.070
36,49940.207000,249.014,-2.505,16.868,474.778,-275.651,97.116,-29.150,118.630,39.070
37,49940.248000,252.008,-3.507,12.899,476.782,-271.736,101.162,-49.150,78.630,79.070
38,49940.287000,246.020,-1.503,4.961,472.809,-277.570,97.059,-59.150,53.630,118.070
39,49940.327000,248.016,0.501,4.961,468.937,-277.493,101.973,-74.150,33.630,178.070
40,49940.349000,248.016,-2.505,4.961,468.852,-283.193,100.830,-99.150,-38.370,224.070
41,49940.397000,255.002,-19.538,6.946,462.973,-287.058,100.713,-69.150,-86.370,221.070
42,49940.435000,266.979,-35.569,9.922,461.731,-305.171,95.289,-12.150,-147.370,110.070
43,49940.469000,244.023,-28.556,22.822,459.006,-292.052,92.698,-29.150,-244.370,37.070
44,49940.510000,231.049,-24.548,29.767,456.029,-296.007,87.665,-52.150,-185.370,47.070
45,49940.550000,240.031,-27.554,38.698,456.995,-296.046,85.699,-74.150,11.630,-0.930
46,49940.598000,251.010,-32.564,43.659,459.880,-297.896,85.652,-121.150,42.630,-21.930
47,49940.611000,263.984,-39.577,35.721,457.958,-296.138,81.763,-185.150,20.630,64.070
48,49940.652000,266.979,-44.587,26.791,451.033,-304.824,78.559,-249.150,1.630,160.070
49,49940.693000,247.018,-45.589,21.829,450.102,-302.027,77.652,-242.150,35.630,171.070
50,49940.729000,247.018,-51.601,21.829,447.035,-312.523,75.387,-142.150,139.630,135.070
51,49940.772000,253.006,-50.599,23.814,442.229,-309.676,78.409,-97.150,182.630,133.070
52,49940.809000,256.000,-50.599,21.829,440.144,-320.000,82.053,-51.150,212.630,158.070
53,49940.849000,256.998,-53.605,28.775,440.125,-321.786,85.938,-93.150,217.630,161.070
54,49940.890000,256.000,-51.601,27.783,436.248,-321.762,88.883,-118.150,259.630,159.070
55,49940.907000,255.002,-57.613,25.798,426.540,-322.687,94.742,-148.150,315.630,129.070
56,49940.951000,248.016,-61.620,30.760,429.316,-332.076,95.470,-210.150,284.630,98.070
57,49940.991000,238.035,-61.620,37.705,424.469,-332.066,98.413,-224.150,269.630,73.070
58,49941.32000,235.041,-64.626,36.713,420.646,-328.285,100.478,-201.150,246.630,48.070
59,49941.72000,228.055,-64.626,40.682,420.547,-334.931,99.310,-165.150,214.630,4.070
60,49941.112000,231.049,-61.620,43.659,419.606,-333.027,100.345,-138.150,207.630,-25.930
61,49941.149000,240.031,-60.618,46.636,420.532,-336.664,105.163,-127.150,212.630,-27.930
62,49941.196000,248.016,-60.618,41.674,419.607,-333.789,107.209,-153.150,144.630,-69.930
63,49941.210000,248.016,-59.616,40.682,420.473,-340.500,103.089,-170.150,118.630,-94.930
64,49941.251000,243.025,-62.622,47.628,424.511,-329.990,105.356,-140.150,75.630,-93.930
65,49941.292000,232.047,-58.614,47.628,420.622,-330.124,102.395,-84.150,50.630,-83.930
66,49941.329000,226.058,-57.613,45.643,428.411,-328.175,100.495,-64.150,18.630,-86.930
67,49941.369000,229.053,-55.609,44.651,425.460,-331.027,101.394,-34.150,-12.370,-123.930
68,49941.421000,244.023,-53.605,36.713,432.346,-324.364,99.624,-30.150,-92.370,-145.930
69,49941.450000,252.008,-52.603,36.713,433.325,-323.484,96.699,-32.150,-183.370,-116.930
70,49941.490000,247.018,-58.614,32.744,433.338,-321.777,89.861,-8.150,-252.370,-103.930
71,49941.510000,247.018,-45.589,34.729,435.358,-316.128,88.054,45.850,-285.370,-109.930
72,49941.550000,245.021,-38.575,32.744,443.997,-321.862,81.024,138.850,-286.370,-70.930
73,49941.590000,254.004,-40.579,34.729,440.154,-319.107,80.111,136.850,-246.370,-68.930
74,49941.629000,254.004,-35.569,35.721,446.090,-310.672,74.454,108.850,-247.370,-81.930
75,49941.669000,248.016,-28.556,36.713,448.949,-314.387,75.339,94.850,-212.370,-67.930
76,49941.712000,246.020,-33.566,36.713,453.890,-307.804,71.596,100.850,-157.370,-68.930
77,49941.752000,243.025,-30.560,33.736,456.629,-319.215,67.349,51.850,-132.370,-80.930
78,49941.774000,249.014,-31.562,31.752,453.941,-304.074,69.732,26.850,-53.370,-89.930
79,49941.810000,252.008,-26.552,33.736,454.857,-307.843,69.629,1.850,-24.370,-106.930
80,49941.851000,248.016,-31.562,36.713,456.876,-302.194,67.822,4.850,6.630,-103.930
81,49941.891000,247.018,-31.562,30.760,459.843,-298.370,67.934,24.850,25.630,-116.930
82,49941.930000,257.996,-33.566,29.767,459.847,-298.318,69.903,44.850,20.630,-138.930
83,49941.971000,253.006,-24.548,23.814,462.881,-289.792,69.161,53.850,10.630,-133.930
84,49942.9000,253.006,-23.546,20.837,464.881,-285.929,71.239,60.850,22.630,-110.930
85,49942.51000,255.002,-21.542,24.806,466.705,-294.334,73.959,94.850,20.630,-88.930
86,49942.71000,255.002,-20.540,26.791,471.668,-286.700,74.180,107.850,18.630,-67.930
87,49942.119000,246.020,-18.536,30.760,469.702,-288.592,75.108,135.850,43.630,-66.930
88,49942.150000,250.012,-15.530,29.767,465.955,-279.978,81.243,165.850,95.630,-68.930
89,49942.191000,256.998,-18.536,35.721,472.714,-282.640,84.131,192.850,147.630,-101.930
90,49942.261000,259.992,-13.526,27.783,469.958,-272.988,93.247,227.850,122.630,-135.930
91,49942.277000,246.020,-2.505,18.853,474.782,-275.598,99.084,196.850,76.630,-71.930
92,49942.311000,246.020,-3.507,17.860,471.980,-268.075,99.289,133.850,42.630,-3.930
93,49942.351000,255.002,-1.503,18.853,475.806,-271.828,98.207,58.850,-5.370,-0.930
94,49942.371000,252.008,-3.507,18.853,469.999,-270.913,100.190,31.850,-76.370,12.070
95,49942.409000,251.010,-5.511,20.837,471.931,-271.017,95.272,-14.150,-100.370,30.070
96,49942.452000,252.008,-7.515,30.760,474.870,-269.084,95.331,-52.150,-76.370,17.070
97,49942.491000,250.012,-18.536,32.744,474.811,-272.919,93.257,-61.150,-110.370,-1.930
98,49942.530000,253.006,-28.556,30.760,473.878,-270.149,91.365,-15.150,-134.370,-5.930
99,49942.571000,249.014,-14.528,28.775,474.746,-276.834,88.230,49.850,-157.370,-14.930
100,49942.614000,254.004,-15.530,24.806,479.707,-269.226,87.466,58.850,-166.370,-16.930
101,49942.664000,249.014,-6.513,20.837,477.721,-272.143,85.415,7.850,-208.370,-8.930
102,49942.672000,252.008,-14.528,20.837,476.799,-267.692,75.701,-8.150,-168.370,-6.930
103,49942.711000,253.006,-16.532,21.829,479.687,-269.489,77.623,-34.150,-156.370,-16.930
104,49942.751000,253.006,-14.528,19.845,478.602,-276.359,68.578,-39.150,-150.370,-9.930
105,49942.789000,244.023,-16.532,24.806,480.647,-268.846,65.839,-44.150,-97.370,13.070
106,49942.832000,247.018,-18.536,26.791,478.624,-274.547,65.677,-53.150,-37.370,17.070
107,49942.879000,252.008,-17.534,24.806,480.616,-270.790,63.818,-41.150,-30.370,2.070
108,49942.912000,256.000,-17.534,15.876,479.677,-268.860,65.837,-28.150,-50.370,-24.930
109,49942.932000,256.998,-15.530,10.915,482.551,-270.841,60.869,-30.150,-4.370,-36.930
110,49942.971000,260.990,-18.536,9.922,481.563,-272.615,65.736,-20.150,-14.370,-29.930
111,49943.9000,256.000,-14.528,16.868,483.506,-271.799,59.860,-1.150,-3.370,-11.930
112,49943.60000,253.006,-18.536,17.860,480.514,-277.488,60.681,-9.150,20.630,-7.930
113,49943.94000,248.016,-15.530,20.837,482.610,-267.006,62.943,-8.150,17.630,-4.930
114,49943.131000,249.014,-14.528,21.829,480.569,-273.706,60.786,15.850,53.630,2.070
115,49943.171000,251.010,-13.526,20.837,482.600,-267.899,64.885,11.850,66.630,-0.930
116,49943.212000,253.006,-16.532,17.860,483.506,-272.561,66.724,15.850,19.630,-0.930
117,49943.234000,250.012,-17.534,17.860,477.637,-275.533,64.665,15.850,23.630,18.070
118,49943.270000,257.996,-15.530,17.860,480.606,-271.683,65.760,72.850,52.630,17.070
119,49943.315000,255.002,-9.519,16.868,481.648,-266.915,66.878,82.850,51.630,32.070
120,49943.361000,256.000,-14.528,16.868,482.562,-271.471,72.655,93.850,43.630,7.070
121,49943.396000,256.000,-14.528,18.853,477.673,-274.298,75.519,117.850,102.630,13.070
122,49943.434000,253.006,-10.521,20.837,480.652,-270.316,81.536,121.850,113.630,16.070
123,49943.474000,251.010,-6.513,25.798,481.654,-268.358,83.559,94.850,121.630,-0.930
124,49943.515000,254.004,-8.517,28.775,477.750,-270.226,86.452,70.850,125.630,-24.930
125,49943.536000,250.012,-12.524,28.775,477.741,-271.119,88.394,27.850,118.630,-37.930
126,49943.570000,250.012,-11.523,26.791,477.735,-271.959,92.305,30.850,111.630,-46.930
127,49943.611000,251.010,-13.526,24.806,479.788,-264.340,93.504,29.850,113.630,-48.930
128,49943.662000,250.012,-10.521,26.791,481.728,-265.100,99.388,38.850,106.630,-58.930
129,49943.700000,249.014,-8.517,28.775,478.900,-259.441,100.524,32.850,93.630,-38.930
130,49943.734000,251.010,-12.524,28.775,481.734,-265.021,102.341,48.850,53.630,-61.930
131,49943.770000,252.008,-6.513,24.806,482.848,-255.472,105.559,54.850,53.630,-79.930
132,49943.819000,249.014,-5.511,22.822,484.705,-261.145,104.421,28.850,27.630,-43.930
133,49943.832000,255.002,-6.513,25.798,481.875,-255.512,104.573,23.850,30.630,-68.930
134,49943.874000,251.010,-3.507,22.822,483.779,-258.269,106.467,-14.150,-12.370,-61.930
135,49943.921000,249.014,-1.503,26.791,486.719,-256.336,106.525,-45.150,0.630,-26.930
136,49943.956000,249.014,-7.515,29.767,484.774,-256.417,104.553,-77.150,-9.370,-32.930
137,49943.991000,251.010,-3.507,28.775,485.721,-258.241,106.471,-109.150,-13.370,-25.930
138,49944.32000,247.018,-6.513,32.744,486.715,-256.389,104.557,-121.150,3.630,-2.930
139,49944.84000,253.006,-8.517,31.752,483.893,-249.890,101.782,-122.150,-2.370,-16.930
140,49944.112000,252.008,-6.513,28.775,488.705,-252.658,101.713,-122.150,-14.370,-28.930
141,49944.131000,255.002,-4.509,23.814,486.756,-252.791,97.772,-105.150,-5.370,-26.930
142,49944.171000,255.002,-7.515,25.798,482.908,-250.088,94.889,-90.150,8.630,-17.930
143,49944.216000,257.996,-5.511,24.806,489.675,-251.883,94.851,-58.150,21.630,-16.930
144,49944.252000,255.002,-7.515,25.798,488.723,-250.898,96.844,-36.150,9.630,-5.930
145,49944.290000,249.014,-5.511,25.798,487.744,-251.017,92.905,-13.150,2.630,-3.930
146,49944.330000,254.004,-7.515,27.783,487.732,-251.937,93.863,4.850,-8.370,-16.930
147,49944.370000,248.016,-4.509,26.791,488.666,-254.707,95.754,19.850,-36.370,-11.930
148,49944.390000,246.020,-2.505,28.775,488.618,-257.623,92.722,21.850,-37.370,6.070
149,49944.430000,254.004,-8.517,31.752,486.722,-254.761,94.766,26.850,-38.370,14.070
150,49944.476000,256.000,-3.507,31.752,492.611,-250.003,92.941,26.850,-35.370,1.070
151,49944.512000,250.012,-2.505,24.806,486.718,-254.814,92.797,23.850,-36.370,-4.930
152,49944.554000,251.010,-3.507,28.775,490.626,-252.894,91.874,17.850,-31.370,11.070
153,49944.602000,254.004,-2.505,27.783,487.646,-257.663,91.736,1.850,-22.370,16.070
154,49944.631000,250.012,-3.507,28.775,490.638,-251.974,90.916,-15.150,-27.370,21.070
155,49944.672000,251.010,-5.511,28.775,487.699,-253.907,90.857,-13.150,-26.370,19.070
156,49944.696000,252.008,-5.511,29.767,489.626,-254.825,90.835,-12.150,-8.370,7.070
157,49944.742000,253.006,-4.509,26.791,485.730,-255.826,90.800,-12.150,2.630,8.070
158,49944.771000,251.010,-3.507,28.775,490.634,-252.027,88.947,-27.150,3.630,10.070
159,49944.812000,251.010,-1.503,26.791,487.665,-255.877,87.851,-18.150,-5.370,10.070
160,49944.865000,248.016,-0.501,30.760,490.620,-252.973,88.921,-48.150,19.630,25.070
161,49944.894000,243.025,0.501,30.760,485.734,-255.773,92.769,-62.150,21.630,33.070
162,49944.935000,243.025,0.501,32.744,488.640,-255.811,89.822,-83.150,39.630,35.070
163,49944.974000,252.008,-2.505,25.798,485.604,-264.363,89.579,-57.150,30.630,35.070
164,49944.995000,255.002,-4.509,28.775,484.789,-253.922,91.835,0.850,66.630,36.070
165,49945.32000,256.998,-5.511,24.806,483.694,-262.446,91.596,22.850,3.630,31.070
166,49945.76000,256.998,-4.509,35.721,480.798,-261.516,92.601,73.850,41.630,33.070
167,49945.115000,257.996,-3.507,31.752,483.706,-262.288,97.502,134.850,52.630,38.070
168,49945.152000,265.980,-8.517,32.744,478.818,-265.115,100.366,157.850,64.630,70.070
169,49945.196000,260.990,2.505,37.705,477.873,-264.025,106.297,210.850,102.630,62.070
170,49945.236000,257.996,8.517,32.744,477.034,-255.423,110.469,292.850,156.630,60.070
171,49945.271000,254.004,21.542,34.729,474.079,-259.089,116.264,120.850,101.630,15.070
172,49945.294000,221.068,26.552,31.752,478.980,-256.104,119.306,35.850,61.630,-133.930
173,49945.335000,223.064,25.550,30.760,480.841,-261.724,120.136,-12.150,9.630,-135.930
174,49945.375000,235.041,4.509,33.736,477.084,-253.242,121.349,26.850,63.630,-56.930
175,49945.424000,245.021,-5.511,26.791,477.074,-254.135,123.292,79.850,15.630,-58.930
176,49945.452000,238.035,-7.515,37.705,477.039,-256.893,126.166,215.850,27.630,57.070
177,49945.496000,255.002,6.513,37.705,470.276,-255.045,128.173,222.850,65.630,125.070
178,49945.536000,267.977,25.550,28.775,474.221,-251.103,132.224,29.850,64.630,72.070
179,49945.576000,263.984,33.566,20.837,471.266,-254.007,131.154,-172.150,-8.370,75.070
180,49945.601000,252.008,20.540,13.891,466.370,-256.939,130.081,-313.150,-42.370,97.070
181,49945.636000,242.027,32.564,19.845,463.345,-263.810,122.016,-376.150,-83.370,80.070
182,49945.671000,239.033,22.544,29.767,460.364,-267.818,115.014,-328.150,-61.370,196.070
183,49945.714000,236.039,42.583,23.814,458.275,-277.434,109.825,-363.150,-225.370,160.070
184,49945.752000,261.988,77.652,39.690,453.396,-278.606,103.883,-159.150,-86.370,130.070
185,49945.795000,306.901,88.673,61.519,450.431,-281.642,97.892,-211.150,-101.370,35.070
186,49945.841000,280.951,57.613,61.519,444.554,-284.720,91.894,-525.150,-114.370,70.070
187,49945.862000,272.967,-16.532,80.372,437.749,-284.947,86.959,-1003.150,381.630,-173.930
188,49945.896000,253.006,-159.812,88.310,443.518,-287.886,80.001,-899.150,588.630,-413.930
189,49945.946000,214.082,-126.748,60.527,444.561,-283.853,88.968,-352.150,610.630,-264.930
190,49945.976000,201.107,-92.681,28.775,437.626,-294.219,93.586,-237.150,355.630,170.070
191,49946.17000,296.920,-129.753,0.000,431.886,-288.602,94.716,-431.150,210.630,210.070
192,49946.75000,277.957,-100.697,15.876,431.737,-298.216,88.547,-356.150,149.630,-11.930
193,49946.96000,235.041,-64.626,18.853,432.648,-302.038,86.475,-286.150,52.630,1.070
194,49946.142000,224.062,-62.622,17.860,425.916,-297.485,83.639,-331.150,47.630,-107.930
195,49946.156000,220.070,-39.577,14.884,431.811,-291.886,77.903,-440.150,-32.370,-208.930
196,49946.196000,230.051,-60.618,31.752,433.712,-293.908,71.948,-507.150,91.630,-266.930
197,49946.244000,213.084,-39.577,41.674,439.671,-283.634,64.375,-586.150,-48.370,-407.930
198,49946.277000,242.027,-28.556,44.651,441.663,-279.115,55.652,-583.150,4.630,-369.930
199,49946.317000,235.041,-30.560,53.581,445.579,-275.567,44.938,-498.150,-123.370,-261.930
200,49946.359000,221.068,-83.663,52.589,447.517,-274.044,30.229,-324.150,-300.370,-215.930
201,49946.397000,218.074,-47.593,65.488,453.434,-267.394,28.457,-122.150,-113.370,-289.930
202,49946.437000,213.084,-23.546,48.620,453.434,-267.394,28.457,-104.150,-22.370,-21.930
203,49946.460000,256.000,-13.526,107.163,454.465,-262.758,24.653,-502.150,196.630,98.070
204,49946.500000,264.982,29.558,79.380,454.437,-263.888,17.736,-813.150,-13.370,-242.930
205,49946.534000,218.074,-83.663,65.488,454.427,-263.258,5.950,-658.150,-37.370,-213.930
206,49946.577000,256.998,-97.691,52.589,460.361,-255.610,6.173,-160.150,7.630,-130.930
207,49946.622000,255.002,-75.648,62.512,460.368,-254.744,3.246,16.850,19.630,135.070
208,49946.657000,265.980,-86.669,100.217,455.402,-263.953,14.785,-0.150,460.630,344.070
209,49946.692000,265.980,-74.646,26.791,453.305,-275.196,19.387,44.850,170.630,360.070
210,49946.739000,216.078,-69.636,36.713,452.406,-270.456,20.501,-52.150,-28.370,106.070
211,49946.759000,171.166,-51.601,62.512,454.382,-267.670,17.631,12.850,11.630,-102.930
212,49946.795000,198.113,-64.626,45.643,456.333,-267.511,22.557,215.850,135.630,-93.930
213,49946.835000,230.051,-61.620,50.605,457.433,-260.457,38.492,643.850,176.630,-136.930
214,49946.875000,257.996,22.544,56.558,460.426,-256.291,51.400,780.850,341.630,305.070
215,49946.912000,301.910,106.708,40.682,453.579,-261.666,65.993,202.850,387.630,564.070
216,49946.967000,270.971,40.579,11.907,447.625,-270.338,62.791,-361.150,-299.370,172.070
217,49946.996000,277.957,-10.521,-33.736,448.623,-266.910,49.118,-199.150,-245.370,-129.930
218,49947.21000,322.869,19.538,17.860,450.529,-269.641,51.996,360.850,-22.370,246.070
219,49947.57000,280.951,-26.552,29.767,447.590,-272.335,58.801,379.850,63.630,189.070
220,49947.95000,265.980,26.552,56.558,447.592,-273.070,66.650,290.850,161.630,69.070
221,49947.142000,240.031,-0.501,19.845,445.631,-274.122,63.666,-74.150,-122.370,-29.930
222,49947.176000,220.070,-34.568,0.000,450.525,-271.216,63.755,91.850,-115.370,46.070
223,49947.217000,233.045,-6.513,15.876,449.372,-282.814,54.578,-211.150,-194.370,22.070
224,49947.255000,230.051,10.521,17.860,454.336,-273.631,42.055,-788.150,-374.370,-94.930
225,49947.301000,219.072,-37.573,-8.930,452.311,-277.049,21.301,-910.150,-262.370,-108.930
226,49947.331000,227.057,-38.575,-16.868,457.180,-274.485,8.594,-878.150,-347.370,119.070
227,49947.366000,298.916,-91.679,-4.961,454.165,-280.464,-1.414,-360.150,-84.370,247.070
228,49947.397000,315.883,-110.716,15.876,453.159,-282.474,-5.406,114.850,-117.370,289.070
229,49947.446000,335.844,-39.577,61.519,447.156,-294.850,-5.760,103.850,-97.370,248.070
230,49947.489000,315.883,55.609,45.643,453.996,-291.103,-10.563,-298.150,-115.370,-19.930
231,49947.516000,155.197,-41.581,73.426,457.817,-294.148,-20.477,-391.150,-158.370,-221.930
232,49947.564000,188.133,-48.595,110.140,461.914,-279.803,-16.137,33.850,311.630,-321.930
233,49947.599000,303.906,-88.673,90.295,464.791,-284.042,0.472,731.850,258.630,117.070
234,49947.624000,254.004,-73.644,62.512,460.709,-299.725,16.750,1034.850,25.630,507.070
235,49947.666000,247.018,-27.554,36.713,459.751,-300.343,29.518,1207.850,-21.370,427.070
236,49947.707000,256.000,-5.511,45.643,453.914,-303.655,50.072,1171.850,18.630,505.070
237,49947.737000,227.057,-23.546,51.597,445.971,-317.581,63.442,968.850,-113.370,491.070
238,49947.776000,196.117,-0.501,44.651,440.199,-315.456,75.294,665.850,-251.370,269.070
239,49947.816000,197.115,-27.554,42.667,442.101,-318.239,76.204,591.850,-251.370,146.070
240,49947.857000,197.115,-48.595,32.744,441.160,-316.335,77.239,420.850,-451.370,138.070
241,49947.894000,235.041,-0.501,31.752,445.918,-322.098,71.185,323.850,-565.370,-50.930
242,49947.916000,253.006,-14.528,49.612,449.905,-313.796,61.586,231.850,-532.370,-173.930
243,49947.962000,287.938,-18.536,57.550,457.625,-316.575,59.555,77.850,-257.370,-156.930
244,49947.994000,298.916,7.515,69.457,454.856,-306.320,55.901,-46.150,28.630,-135.930
245,49948.37000,284.943,-52.603,82.357,461.716,-302.310,60.942,-78.150,265.630,-243.930
246,49948.77000,215.080,-37.573,101.209,463.736,-298.184,72.864,278.850,406.630,-347.930
247,49948.117000,204.101,-20.540,99.225,467.696,-294.057,83.805,350.850,213.630,-182.930
248,49948.156000,226.058,-15.530,73.426,466.610,-302.476,87.503,431.850,243.630,55.070
249,49948.196000,242.027,-12.524,72.434,463.895,-290.748,103.563,506.850,251.630,38.070
250,49948.217000,260.990,13.526,71.442,463.946,-288.541,115.427,536.850,150.630,199.070
251,49948.257000,234.043,7.515,62.512,459.066,-291.262,122.229,313.850,-18.370,310.070
252,49948.299000,224.062,13.526,62.512,455.022,-302.612,123.873,183.850,88.630,191.070
253,49948.336000,211.088,13.526,67.473,452.081,-305.332,129.694,94.850,130.630,245.070
254,49948.375000,195.119,-7.515,72.434,445.214,-310.971,134.444,133.850,96.630,297.070
255,49948.417000,161.185,3.507,127.008,438.432,-310.909,140.336,205.850,221.630,363.070
256,49948.456000,218.074,-41.581,119.070,434.479,-317.241,152.940,467.850,132.630,363.070
257,49948.477000,289.934,-48.595,122.047,426.793,-312.491,157.977,660.850,174.630,311.070
258,49948.519000,231.049,-45.589,75.411,425.885,-309.379,168.882,835.850,-222.370,84.070
259,49948.564000,224.062,-80.658,61.519,423.992,-307.252,178.774,927.850,-303.370,55.070
260,49948.596000,263.984,-32.564,50.605,427.038,-299.329,190.803,832.850,-73.370,-29.930
261,49948.640000,328.858,-10.521,-19.845,426.321,-282.243,194.228,571.850,-271.370,-250.930
262,49948.680000,268.975,5.511,-37.705,433.076,-284.957,195.147,344.850,-338.370,91.070
263,49948.720000,256.000,-50.599,-43.659,437.072,-276.523,190.471,192.850,-397.370,60.070
264,49948.759000,256.000,-49.597,-22.822,435.111,-277.575,187.487,222.850,-234.370,-72.930
265,49948.775000,230.051,-31.562,2.977,435.223,-269.984,188.682,344.850,-325.370,-63.930
266,49948.816000,251.010,-28.556,-5.953,441.041,-269.980,185.741,703.850,-355.370,14.070
267,49948.855000,278.955,-18.536,-16.868,440.289,-256.413,198.904,1304.850,-313.370,137.070
268,49948.909000,374.768,10.521,97.240,433.584,-252.279,215.729,1441.850,26.630,245.070
269,49948.941000,287.938,-6.513,46.636,433.862,-234.863,230.968,1264.850,-344.370,274.070
270,49948.981000,255.002,-112.720,56.558,432.811,-241.285,238.657,1158.850,-434.370,256.070
271,49949.17000,156.195,-50.599,61.519,425.240,-228.892,246.858,796.850,-117.370,314.070
272,49949.60000,226.058,64.626,65.488,420.349,-233.294,261.481,291.850,298.630,216.070
273,49949.76000,299.914,-12.524,75.411,409.599,-238.987,266.223,-54.150,216.630,185.070
274,49949.115000,280.951,-36.571,37.705,414.572,-230.460,264.501,-293.150,17.630,-258.930
275,49949.164000,238.035,-14.528,34.729,415.564,-228.634,261.603,-333.150,-35.370,-223.930
276,49949.200000,226.058,-8.517,18.853,419.293,-238.246,253.473,-499.150,-77.370,-238.930
277,49949.237000,197.115,9.519,20.837,423.101,-242.237,243.532,-665.150,-224.370,-200.930
278,49949.277000,190.129,28.556,13.891,422.139,-240.596,234.724,-908.150,-200.370,-32.930
279,49949.319000,153.201,-9.519,39.690,416.038,-258.095,219.472,-1231.150,93.630,136.070
280,49949.365000,246.020,-70.638,83.349,417.878,-263.978,210.459,-1067.150,380.630,-245.930
281,49949.379000,374.768,-120.736,24.806,422.729,-262.413,195.757,-804.150,-132.370,-542.930
282,49949.417000,339.836,-105.706,31.752,422.579,-271.266,182.724,-540.150,-327.370,-0.930
283,49949.465000,292.928,-49.597,31.752,422.488,-277.045,178.628,-426.150,-172.370,-12.930
284,49949.505000,281.949,-37.573,30.760,423.433,-277.374,165.834,-706.150,-235.370,191.070
285,49949.536000,256.998,-28.556,49.612,419.310,-292.061,148.697,-1027.150,-72.370,117.070
286,49949.595000,208.094,-56.611,48.620,420.164,-298.168,131.807,-1147.150,-40.370,14.070
287,49949.620000,197.115,-99.695,57.550,419.177,-298.393,123.930,-706.150,78.630,-187.930
288,49949.635000,167.173,-63.624,66.481,422.128,-295.541,123.031,-324.150,324.630,-241.930
289,49949.681000,165.177,-50.599,58.543,416.090,-309.913,118.687,-307.150,-86.370,311.070
290,49949.721000,227.057,-140.775,54.574,412.156,-313.698,120.542,105.850,193.630,350.070
291,49949.767000,293.926,-87.671,78.388,409.241,-314.553,125.431,324.850,280.630,157.070
292,49949.797000,261.988,-30.560,59.535,407.433,-306.700,137.450,307.850,180.630,-82.930
293,49949.845000,264.982,-28.556,39.690,411.328,-306.487,143.364,61.850,48.630,-358.930
294,49949.891000,253.006,0.501,57.550,421.276,-289.407,140.905,-152.150,63.630,-593.930
295,49949.922000,239.033,-24.548,38.698,425.216,-285.543,142.003,-341.150,203.630,-485.930
296,49949.937000,190.129,-64.626,71.442,431.102,-280.811,139.194,-381.150,187.630,-520.930
297,49949.982000,211.088,-64.626,65.488,440.991,-267.567,134.661,-357.150,107.630,-529.930
298,49950.27000,209.092,-21.542,80.372,443.019,-261.051,129.927,-426.150,121.630,-203.930
299,49950.61000,226.058,-9.519,85.333,441.889,-270.811,118.834,-812.150,-55.370,-23.930
300,49950.101000,301.910,-6.513,71.442,444.743,-273.817,110.887,-1118.150,-36.370,-97.930
301,49950.139000,251.010,45.589,58.543,442.665,-280.991,91.011,-1381.150,77.630,227.070
302,49950.186000,188.133,0.501,14.884,440.615,-286.273,71.189,-1517.150,306.630,261.070
303,49950.219000,276.959,-26.552,-6.946,433.678,-295.117,62.079,-1324.150,544.630,65.070
304,49950.241000,360.795,-124.744,-79.380,437.468,-300.106,50.143,-889.150,-131.370,56.070
305,49950.289000,279.953,-115.726,-58.543,433.636,-295.670,41.407,-487.150,67.630,-130.930
306,49950.325000,261.988,-16.532,-40.682,438.507,-293.841,36.548,-212.150,-25.370,-133.930
307,49950.360000,269.973,3.507,-4.961,445.266,-294.980,25.708,-444.150,-244.370,-117.930
308,49950.400000,236.039,-41.581,-29.767,448.275,-286.771,13.155,-801.150,-156.370,-148.930
309,49950.441000,252.008,-113.722,-16.868,445.284,-291.672,8.096,-781.150,172.630,-24.930
310,49950.480000,296.920,-42.583,-7.938,446.255,-290.897,1.233,-789.150,417.630,257.070
311,49950.524000,301.910,-112.720,38.698,444.060,-308.024,-2.197,-806.150,228.630,653.070
312,49950.539000,245.021,-49.597,128.992,439.251,-304.442,-7.024,-659.150,217.630,126.070
313,49950.592000,180.148,34.568,53.581,444.120,-301.879,-19.731,-603.150,-304.370,-394.930
314,49950.617000,200.109,-54.607,82.357,451.071,-290.540,-23.339,38.850,158.630,-559.930
315,49950.667000,265.980,-68.634,75.411,466.791,-278.657,-11.178,605.850,239.630,-552.930
316,49950.697000,282.947,-4.509,65.488,467.851,-274.413,5.663,705.850,166.630,97.070
317,49950.740000,250.012,1.503,52.589,466.837,-278.051,11.461,580.850,24.630,157.070
318,49950.776000,276.959,-40.579,42.667,466.767,-284.329,24.074,620.850,56.630,273.070
319,49950.822000,254.004,-33.566,20.837,455.943,-295.590,32.595,679.850,-267.370,597.070
320,49950.836000,211.088,-63.624,17.860,449.982,-305.129,32.319,670.850,-442.370,461.070
321,49950.879000,180.148,-44.587,27.783,448.917,-311.736,33.117,858.850,-576.370,263.070
322,49950.920000,180.148,-10.521,26.791,451.780,-315.398,35.971,826.850,-574.370,-22.930
323,49950.960000,234.043,-22.544,39.690,457.743,-305.833,37.231,883.850,-501.370,-227.930
324,49951.0,292.928,23.546,34.729,463.660,-299.945,42.323,858.850,-187.370,-160.930
325,49951.40000,324.866,60.618,64.496,459.758,-302.548,53.063,675.850,-114.370,110.070
326,49951.84000,279.953,28.556,67.473,454.799,-310.129,54.811,10.850,-118.370,245.070
327,49951.104000,256.000,2.505,64.496,462.631,-304.556,47.111,-236.150,-52.370,-119.930
328,49951.139000,238.035,13.526,71.442,462.615,-305.528,46.100,-253.150,31.630,-267.930
329,49951.189000,196.117,-2.505,64.496,468.478,-301.873,38.343,-154.150,-35.370,-254.930
330,49951.221000,186.136,14.528,80.372,475.357,-296.077,39.499,-96.150,106.630,-322.930
331,49951.264000,224.062,17.534,77.395,474.530,-286.555,42.713,-239.150,-28.370,-8.930
332,49951.304000,267.977,-63.624,43.659,474.465,-291.231,44.550,280.850,259.630,-31.930
333,49951.341000,282.947,-29.558,41.674,477.468,-286.172,55.516,571.850,159.630,-140.930
334,49951.379000,264.982,-44.587,33.736,473.594,-287.644,73.173,811.850,132.630,124.070
335,49951.404000,255.002,-23.546,28.775,472.745,-279.935,79.288,1102.850,42.630,160.070
336,49951.439000,281.949,-7.515,13.891,467.856,-285.072,101.760,1076.850,-18.370,352.070
337,49951.477000,244.023,21.542,6.946,464.858,-292.362,113.355,923.850,-219.370,289.070
338,49951.517000,248.016,36.571,21.829,461.029,-289.422,119.332,681.850,-97.370,196.070
339,49951.559000,260.990,64.626,22.822,461.951,-293.112,122.182,250.850,-60.370,172.070
340,49951.599000,245.021,59.616,28.775,460.046,-290.355,120.288,-45.150,-240.370,-27.930
341,49951.639000,250.012,55.609,30.760,461.083,-284.879,112.574,-237.150,-205.370,-190.930
342,49951.679000,258.994,39.577,53.581,461.983,-289.619,111.460,-224.150,167.630,-73.930
343,49951.699000,193.123,16.532,52.589,459.177,-282.148,109.695,-219.150,220.630,-13.930
344,49951.741000,240.031,-23.546,59.535,457.195,-285.774,116.477,161.850,309.630,118.070
345,49951.782000,240.031,-9.519,40.682,448.358,-294.119,127.049,215.850,165.630,343.070
346,49951.822000,247.018,30.560,42.667,444.405,-299.690,132.789,234.850,21.630,290.070
347,49951.862000,261.988,52.603,29.767,433.700,-301.732,132.714,256.850,-196.370,306.070
348,49951.911000,287.938,109.714,69.457,429.711,-308.538,127.600,-118.150,-336.370,79.070
349,49951.941000,267.977,68.634,84.341,431.683,-305.044,115.898,-487.150,-272.370,-335.930
350,49951.979000,276.959,-75.648,116.093,432.708,-300.486,109.141,-527.150,87.630,-321.930
351,49951.999000,291.930,-160.814,89.302,434.724,-294.890,105.365,-491.150,78.630,-154.930
352,49952.40000,268.975,-210.912,68.465,433.724,-296.822,104.326,-261.150,303.630,-118.930
353,49952.80000,277.957,-114.724,15.876,425.980,-295.881,108.274,138.850,-48.370,345.070
354,49952.120000,269.973,-190.873,3.969,419.966,-309.176,108.878,195.850,-40.370,348.070
355,49952.157000,228.055,-82.661,18.853,416.144,-305.369,111.928,127.850,16.630,46.070
356,49952.202000,205.099,-69.636,22.822,419.080,-304.251,116.882,366.850,-106.370,-85.930
357,49952.244000,167.173,-81.659,34.729,418.159,-301.322,120.896,526.850,6.630,-77.930
358,49952.264000,199.111,-50.599,54.574,421.091,-301.018,130.746,256.850,221.630,63.070
359,49952.304000,236.039,4.509,8.930,414.357,-297.253,133.790,97.850,20.630,-79.930
360,49952.361000,227.057,-59.616,20.837,420.101,-302.056,127.765,-193.150,-150.370,-175.930
361,49952.389000,269.973,-30.560,22.822,427.013,-293.528,125.063,-28.150,-142.370,-310.930
362,49952.424000,286.940,54.607,63.504,429.050,-286.881,125.251,-273.150,136.630,-316.930
363,49952.481000,266.979,16.532,47.628,426.105,-288.131,115.375,-548.150,-88.370,46.070
364,49952.500000,215.080,-95.687,22.822,429.985,-288.103,114.399,-192.150,-63.370,-200.930
365,49952.540000,260.990,-23.546,43.659,426.924,-298.520,115.088,16.850,206.630,-13.930
366,49952.561000,262.986,26.552,54.574,426.097,-288.998,118.302,-83.150,166.630,95.070
367,49952.601000,243.025,29.558,54.574,426.020,-293.832,114.233,-385.150,75.630,48.070
368,49952.641000,238.035,-8.517,71.442,419.107,-301.598,110.071,-897.150,498.630,251.070
369,49952.682000,275.961,-88.673,27.783,416.115,-306.526,104.027,-1021.150,478.630,208.070
370,49952.734000,231.049,-67.632,22.822,413.096,-313.318,98.915,-849.150,279.630,-107.930
371,49952.764000,205.099,-108.712,-11.907,408.170,-317.406,89.940,-524.150,-21.370,94.070
372,49952.804000,234.043,-89.675,-3.969,414.090,-309.943,83.273,-261.150,-49.370,-135.930
373,49952.844000,254.004,-54.607,-1.984,420.882,-309.112,75.438,-159.150,-190.370,-437.930
374,49952.864000,264.982,-53.605,16.868,426.896,-295.817,74.835,-110.150,-102.370,-462.930
375,49952.904000,281.949,-10.521,98.233,429.887,-290.154,73.030,-594.150,274.630,-356.930
376,49952.944000,226.058,15.530,140.899,435.665,-291.438,57.266,-1106.150,-41.370,53.070
377,49952.985000,130.246,7.515,117.085,431.457,-311.826,38.987,-1222.150,-88.370,292.070
378,49953.24000,111.283,2.505,56.558,427.645,-305.603,26.367,-1297.150,359.630,275.070
379,49953.66000,234.043,25.550,-6.946,427.668,-303.003,17.587,-1100.150,407.630,-420.930
380,49953.100000,432.655,-163.820,-126.016,430.627,-296.975,-5.847,-887.150,-561.370,139.070
381,49953.144000,267.977,-149.793,-22.822,429.576,-302.636,-5.023,-14.150,17.630,121.070
382,49953.164000,324.866,0.501,-5.953,426.641,-304.516,-3.113,76.850,93.630,-74.930
383,49953.204000,283.945,-65.628,-36.713,427.596,-305.474,-4.121,-70.150,-373.370,104.070
384,49953.244000,284.943,-129.753,-36.713,431.488,-303.765,-12.920,-141.150,30.630,-79.930
385,49953.279000,322.869,-102.701,-9.922,427.617,-302.900,-13.886,-300.150,65.630,43.070
386,49953.320000,324.866,-107.710,-5.953,432.505,-300.074,-16.750,-70.150,50.630,38.070
387,49953.361000,264.982,0.501,37.705,434.338,-306.824,-22.836,-509.150,-182.370,-66.930
388,49953.401000,144.218,27.554,79.380,441.142,-304.312,-38.493,-367.150,-105.370,-310.930
389,49953.421000,160.187,-63.624,86.326,447.139,-293.538,-27.363,157.850,368.630,-351.930
390,49953.459000,272.967,-37.573,78.388,449.244,-283.712,-14.299,308.850,270.630,-42.930
391,49953.504000,289.934,-49.597,59.535,449.176,-289.201,-7.567,195.850,150.630,110.070
392,49953.539000,239.033,-49.597,40.682,447.221,-290.174,-7.597,172.850,3.630,162.070
393,49953.586000,234.043,-40.579,37.705,448.084,-297.699,-6.822,312.850,-119.370,266.070
394,49953.624000,215.080,-52.603,26.791,444.152,-301.458,-3.982,406.850,-254.370,207.070
395,49953.665000,211.088,-85.667,35.721,445.138,-300.472,-2.969,736.850,-373.370,136.070
396,49953.707000,224.062,-42.583,45.643,444.044,-309.758,3.656,854.850,-263.370,124.070
397,49953.721000,241.029,-31.562,41.674,447.030,-306.458,19.490,1010.850,-300.370,70.070
398,49953.762000,239.033,-57.613,54.574,446.087,-305.342,26.405,970.850,-251.370,118.070
399,49953.807000,260.990,-64.626,24.806,445.150,-304.147,36.273,1069.850,-353.370,25.070
400,49953.842000,258.994,-38.575,57.550,448.059,-305.681,48.038,1106.850,-112.370,3.070
401,49953.882000,248.016,22.544,57.550,450.040,-304.366,60.865,952.850,37.630,204.070
402,49953.930000,253.006,83.663,74.419,444.168,-309.675,77.429,483.850,201.630,223.070
403,49953.964000,268.975,-30.560,36.713,445.157,-309.424,86.290,362.850,19.630,88.070
404,49954.15000,254.004,-14.528,27.783,444.149,-312.222,88.178,561.850,-142.370,-18.930
405,49954.24000,240.031,14.528,22.822,449.126,-304.404,95.289,621.850,-254.370,145.070
406,49954.62000,244.023,-23.546,28.775,445.138,-311.971,97.039,587.850,-311.370,167.070
407,49954.105000,238.035,23.546,51.597,446.199,-306.178,101.136,628.850,-177.370,150.070
408,49954.142000,266.979,12.524,44.651,447.107,-310.814,103.960,367.850,-177.370,192.070
409,49954.184000,262.986,10.521,46.636,449.105,-306.977,105.053,307.850,-193.370,-129.930
410,49954.221000,257.996,54.607,51.597,449.040,-311.653,106.891,162.850,10.630,-54.930
411,49954.275000,213.084,30.560,75.411,446.300,-300.268,110.153,-43.150,146.630,13.070
412,49954.304000,239.033,-1.503,72.434,446.243,-304.076,109.064,-92.150,250.630,-136.930
413,49954.324000,255.002,6.513,50.605,452.149,-298.320,109.234,-204.150,107.630,-32.930
414,49954.364000,292.928,8.517,58.543,446.207,-306.834,111.938,-505.150,205.630,-46.930
415,49954.410000,358.799,10.521,70.450,449.150,-304.088,107.101,-851.150,514.630,-26.930
416,49954.444000,255.002,-69.636,31.752,440.286,-312.014,98.013,-1080.150,491.630,25.070
417,49954.485000,157.193,-104.704,27.783,440.308,-310.201,95.113,-730.150,122.630,-69.930
418,49954.525000,167.173,-117.730,57.550,442.070,-321.706,87.911,-287.150,305.630,25.070
419,49954.561000,274.963,-91.679,15.876,439.286,-313.184,90.110,-171.150,55.630,-92.930
420,49954.609000,291.930,-84.665,9.922,442.143,-316.164,83.147,-121.150,-269.370,-171.930
421,49954.630000,274.963,-69.636,51.597,441.311,-306.695,84.392,-26.150,-4.370,-45.930
422,49954.671000,229.053,-66.630,92.279,446.148,-309.147,96.136,363.850,424.630,-171.930
423,49954.705000,193.123,-114.724,77.395,445.435,-293.530,115.257,835.850,259.630,-312.930
424,49954.745000,217.076,90.677,98.233,453.485,-277.448,147.194,1195.850,582.630,-466.930
425,49954.780000,266.979,44.587,-19.845,454.552,-271.576,154.244,858.850,-144.370,212.070
426,49954.820000,220.070,18.536,-51.597,453.538,-274.453,153.179,428.850,-436.370,278.070
427,49954.861000,267.977,60.618,-14.884,442.653,-288.815,151.777,-72.150,-32.370,450.070
428,49954.885000,273.965,-32.564,24.806,436.660,-300.298,149.481,-212.150,-29.370,545.070
429,49954.922000,236.039,-35.569,84.341,437.658,-297.631,142.671,68.850,-283.370,120.070
430,49954.964000,211.088,-59.616,142.884,438.658,-295.700,143.710,371.850,-473.370,49.070
431,49955.22000,177.154,-102.701,89.302,444.603,-286.372,136.111,546.850,-822.370,-488.930
432,49955.45000,235.041,-107.710,56.558,450.638,-272.813,145.351,868.850,89.630,-144.930
433,49955.85000,227.057,58.614,47.628,443.774,-277.638,145.205,156.850,8.630,452.070
434,49955.126000,307.899,45.589,-27.783,445.746,-276.454,153.110,-98.150,728.630,-521.930
435,49955.166000,430.659,-25.550,-28.775,441.928,-272.595,158.129,-410.150,-79.370,139.070
436,49955.186000,245.021,-49.597,-13.891,438.811,-285.272,144.984,-461.150,-91.370,334.070
437,49955.226000,213.084,-76.650,-10.915,436.773,-290.396,131.068,-235.150,-257.370,114.070
438,49955.276000,198.113,-43.585,-4.961,442.626,-288.396,132.117,304.850,-357.370,64.070
439,49955.304000,214.082,-10.521,-8.930,435.787,-292.143,136.919,697.850,-247.370,127.070
440,49955.341000,297.918,-0.501,-7.938,438.780,-287.216,142.963,801.850,-224.370,66.070
441,49955.382000,292.928,-22.544,9.922,436.925,-282.278,151.950,825.850,-314.370,86.070
442,49955.426000,319.875,-1.503,28.775,438.957,-276.471,156.049,834.850,-248.370,16.070
443,49955.461000,323.867,-30.560,53.581,438.786,-288.659,159.644,644.850,-129.370,60.070
444,49955.486000,240.031,-72.642,51.597,435.208,-268.645,168.064,543.850,-43.370,-5.930
445,49955.522000,177.154,12.524,52.589,431.305,-272.035,184.684,411.850,414.630,101.070
446,49955.566000,283.945,-3.507,73.426,427.519,-266.994,198.589,31.850,306.630,-7.930
447,49955.606000,331.852,-32.564,23.814,430.386,-269.842,196.547,-131.150,295.630,-435.930
448,49955.644000,206.097,-34.568,42.667,431.441,-264.128,197.691,-128.150,-10.370,-336.930
449,49955.685000,191.127,-35.569,28.775,438.232,-264.084,195.737,-213.150,-70.370,-329.930
450,49955.732000,215.080,32.564,61.519,442.250,-253.838,188.160,-307.150,21.630,-302.930
451,49955.772000,237.037,-22.544,53.581,438.363,-253.946,186.183,-131.150,-216.370,-78.930
452,49955.796000,243.025,-6.513,38.698,445.057,-259.760,177.180,-83.150,-331.370,45.070
453,49955.826000,254.004,47.593,60.527,445.145,-253.246,173.427,-116.150,-243.370,166.070
454,49955.866000,243.025,21.542,64.496,440.046,-269.549,167.063,-410.150,-85.370,227.070
455,49955.907000,245.021,-4.509,70.450,437.008,-277.366,158.972,-581.150,-35.370,181.070
456,49955.950000,208.094,-5.511,84.341,433.005,-285.117,153.831,-715.150,23.630,86.070
457,49955.985000,242.027,-2.505,94.264,429.997,-291.017,146.777,-693.150,298.630,36.070
458,49956.25000,276.959,-20.540,83.349,428.102,-287.367,142.941,-637.150,295.630,-70.930
459,49956.45000,274.963,-12.524,75.411,425.010,-299.728,141.608,-707.150,487.630,33.070
460,49956.85000,263.984,-32.564,54.574,420.138,-300.795,139.603,-814.150,590.630,87.070
461,49956.124000,200.109,-104.704,40.682,418.203,-299.982,135.688,-684.150,243.630,-89.930
462,49956.166000,197.115,-115.726,36.713,414.314,-300.116,132.727,-107.150,62.630,-91.930
463,49956.206000,202.105,-75.648,41.674,421.085,-301.858,134.657,46.850,-28.370,-116.930
464,49956.246000,240.031,-25.550,30.760,418.205,-299.955,136.672,-103.150,-41.370,-332.930
465,49956.285000,236.039,-38.575,57.550,428.037,-290.520,131.050,-174.150,-15.370,-357.930
466,49956.331000,246.020,-43.585,46.636,429.076,-285.016,124.319,-250.150,-46.370,-269.930
467,49956.345000,256.000,-28.556,56.558,436.923,-278.471,117.629,-395.150,-8.370,-217.930
468,49956.385000,241.029,-10.521,80.372,437.879,-277.880,103.877,-752.150,-41.370,-256.930
469,49956.426000,248.016,19.538,96.248,443.681,-278.088,93.061,-1059.150,-25.370,-106.930
470,49956.465000,248.016,24.548,79.380,439.603,-289.885,77.972,-1288.150,175.630,142.070
471,49956.507000,251.010,19.538,16.868,437.628,-290.360,61.234,-1422.150,247.630,106.070
472,49956.554000,242.027,-91.679,-22.822,435.531,-299.319,45.244,-1331.150,159.630,34.070
473,49956.606000,295.922,-87.671,-30.760,436.577,-292.950,35.586,-892.150,115.630,-140.930
474,49956.627000,295.922,-87.671,-22.822,437.483,-296.089,23.697,-488.150,-16.370,-95.930
475,49956.647000,276.959,-34.568,-0.992,441.402,-293.249,21.816,-109.150,-33.370,-15.930
476,49956.685000,281.949,-26.552,-27.783,438.384,-300.042,16.704,-204.150,-173.370,-22.930
477,49956.726000,235.041,-59.616,-25.798,441.445,-289.625,16.015,-167.150,-18.370,-98.930
478,49956.766000,230.051,-49.597,-24.806,443.310,-294.431,11.950,-249.150,187.630,-75.930
479,49956.806000,230.051,-40.579,3.969,445.347,-287.784,12.138,-392.150,101.630,-35.930
480,49956.846000,233.045,-67.632,-28.775,443.303,-293.748,2.133,-659.150,-139.370,90.070
481,49956.886000,262.986,-120.736,-14.884,441.358,-293.829,0.160,-211.150,121.630,200.070
482,49956.937000,284.943,-107.710,52.589,443.164,-303.231,0.885,137.850,131.630,375.070
483,49956.947000,286.940,-4.509,101.209,440.215,-306.057,2.769,-23.150,-59.370,93.070
484,49956.991000,200.109,59.616,98.233,443.050,-310.087,-8.158,-336.150,-232.370,-40.930
485,49957.25000,171.166,-9.519,84.341,446.071,-301.720,-14.806,-138.150,71.630,-225.930
486,49957.64000,227.057,-81.659,102.202,452.893,-299.732,-14.739,179.850,117.630,-157.930
487,49957.105000,280.951,-44.587,78.388,451.059,-293.770,-2.773,477.850,87.630,-132.930
488,49957.147000,270.971,-36.571,52.589,452.959,-297.341,4.016,460.850,31.630,275.070
489,49957.184000,245.021,-15.530,63.504,449.937,-305.708,10.664,308.850,53.630,338.070
490,49957.229000,282.947,-66.630,46.636,449.934,-306.522,15.559,345.850,89.630,79.070
491,49957.242000,262.986,-53.605,38.698,446.975,-310.241,19.385,460.850,-140.370,245.070
492,49957.282000,229.053,-63.624,34.729,445.899,-318.528,28.005,639.850,-284.370,434.070
493,49957.326000,211.088,-64.626,29.767,438.096,-321.423,29.879,731.850,-416.370,269.070
494,49957.370000,200.109,-26.552,30.760,440.904,-328.867,32.627,781.850,-467.370,107.070
495,49957.406000,196.117,-6.513,28.775,437.990,-328.935,31.637,886.850,-478.370,-123.930
496,49957.446000,199.111,-2.505,48.620,448.890,-314.389,39.929,989.850,-367.370,-256.930
497,49957.506000,273.965,36.571,51.597,448.863,-317.803,53.604,787.850,-140.370,-3.930
498,49957.527000,329.856,42.583,71.442,450.834,-316.619,61.509,486.850,-47.370,262.070
499,49957.547000,260.990,-4.509,80.372,445.899,-323.123,68.205,261.850,11.630,35.070
500,49957.601000,267.977,-71.640,45.643,448.968,-312.601,71.454,490.850,-5.370,-19.930
501,49957.647000,278.955,-45.589,28.775,449.949,-313.217,83.242,742.850,73.630,-112.930
502,49957.669000,266.979,29.558,36.713,453.007,-304.375,94.313,629.850,30.630,-73.930
503,49957.709000,241.029,1.503,28.775,455.904,-306.067,100.172,378.850,-66.370,-176.930
504,49957.749000,238.035,13.526,9.922,456.055,-295.665,100.462,199.850,-155.370,-220.930
505,49957.794000,227.057,31.562,22.822,457.994,-295.664,99.481,258.850,-150.370,-157.930
506,49957.806000,264.982,-7.515,20.837,461.987,-288.044,99.700,265.850,-194.370,-122.930
507,49957.845000,227.057,107.710,26.791,465.924,-284.206,99.814,-26.150,-107.370,-402.930
508,49957.909000,246.020,86.669,39.690,468.997,-272.870,98.167,-97.150,-95.370,-364.930
509,49957.925000,240.031,17.534,29.767,471.923,-271.883,98.199,-57.150,-46.370,-196.930
510,49957.965000,287.938,8.517,87.318,472.027,-264.397,95.457,227.850,11.630,-22.930
511,49958.6000,255.002,-78.654,96.248,465.178,-269.799,109.065,459.850,85.630,252.070
512,49958.46000,242.027,-145.785,65.488,456.352,-276.463,111.816,200.850,216.630,541.070
513,49958.86000,254.004,-88.673,21.829,449.458,-284.754,123.377,407.850,-3.370,122.070
514,49958.107000,340.834,-1.503,-20.837,448.528,-281.931,123.454,111.850,-15.370,371.070
515,49958.147000,287.938,-58.614,-22.822,443.384,-301.123,115.043,-241.150,-301.370,499.070
516,49958.186000,194.121,-55.609,3.969,443.389,-299.521,104.268,-240.150,-462.370,-90.930
517,49958.226000,86.331,27.554,45.643,453.323,-283.387,101.782,215.850,-276.370,-631.930
518,49958.266000,87.329,39.577,74.419,452.491,-274.706,108.908,268.850,282.630,-247.930
519,49958.311000,248.016,68.634,76.403,450.522,-277.386,115.715,-554.150,665.630,234.070
520,49958.352000,394.729,-113.722,-25.798,448.577,-276.705,106.878,-675.150,-153.370,-183.930
521,49958.386000,308.897,-60.618,29.767,454.447,-272.184,96.194,-352.150,-338.370,-316.930
522,49958.412000,374.768,-0.501,3.969,449.504,-278.793,98.953,217.850,-180.370,256.070
523,49958.447000,317.879,24.548,18.853,450.553,-273.158,97.144,270.850,-248.370,-44.930
524,49958.487000,305.903,65.628,17.860,453.512,-269.439,93.318,362.850,-401.370,-276.930
525,49958.526000,265.980,46.591,-2.977,454.543,-264.803,89.514,79.850,-465.370,-265.930
526,49958.566000,204.101,68.634,23.814,453.487,-269.755,81.506,-7.150,-225.370,-91.930
527,49958.610000,201.107,-23.546,60.527,451.627,-264.897,87.540,57.850,458.630,110.070
528,49958.646000,263.984,-150.795,48.620,446.696,-272.109,103.068,-122.150,523.630,37.070
529,49958.686000,256.998,-48.595,15.876,443.803,-270.365,99.178,-157.150,94.630,305.070
530,49958.706000,222.066,-84.665,42.667,431.963,-284.530,105.649,-19.150,267.630,555.070
531,49958.746000,260.990,-31.562,44.651,425.067,-292.847,116.226,224.850,411.630,398.070
532,49958.790000,203.103,-42.583,47.628,421.171,-294.609,123.055,355.850,89.630,104.070
533,49958.831000,196.117,-68.634,54.574,415.332,-297.186,135.761,449.850,296.630,305.070
534,49958.865000,275.961,31.562,69.457,409.464,-301.681,147.429,275.850,620.630,155.070
535,49958.916000,292.928,-53.605,47.628,405.630,-298.794,151.438,-362.150,377.630,173.070
536,49958.946000,248.016,-63.624,42.667,395.715,-313.142,150.038,-553.150,309.630,164.070
537,49958.986000,201.107,-107.710,15.876,393.784,-312.277,148.092,-415.150,166.630,137.070
538,49959.10000,226.058,-122.740,18.853,394.672,-317.937,147.936,-202.150,116.630,-92.930
539,49959.47000,235.041,-66.630,35.721,395.762,-309.465,146.206,-36.150,-49.370,-74.930
540,49959.87000,244.023,-53.605,28.775,397.664,-311.486,140.251,-62.150,-230.370,-102.930
541,49959.127000,248.016,-49.597,40.682,400.652,-305.089,130.598,-182.150,-279.370,-322.930
542,49959.169000,222.066,-37.573,58.543,413.257,-305.095,123.734,-345.150,-351.370,-374.930
543,49959.216000,230.051,-35.569,58.543,418.205,-296.884,110.200,-378.150,-350.370,-390.930
544,49959.250000,220.070,-17.534,101.209,423.888,-305.549,101.116,-523.150,-164.370,-407.930
545,49959.295000,210.090,20.540,125.023,426.857,-299.388,82.604,-905.150,-106.370,-141.930
546,49959.306000,199.111,15.530,78.388,428.715,-301.989,54.994,-1580.150,-104.370,161.070
547,49959.356000,206.097,9.519,64.496,425.733,-305.236,41.128,-1580.150,228.630,146.070
548,49959.386000,265.980,-78.654,33.736,422.733,-310.269,31.147,-1211.150,528.630,242.070
549,49959.439000,364.788,-130.755,-133.953,409.937,-321.192,18.035,-551.150,-66.370,453.070
550,49959.466000,298.916,-97.691,-78.388,416.684,-324.011,15.017,-306.150,-72.370,-175.930
551,49959.510000,263.984,6.513,-60.527,421.674,-313.725,8.426,-26.150,-94.370,-204.930
552,49959.546000,239.033,-0.501,-18.853,424.602,-311.950,2.579,-281.150,-211.370,-295.930
553,49959.570000,230.051,0.501,-28.775,425.664,-303.847,-12.932,-565.150,-213.370,-265.930
554,49959.611000,256.000,-52.603,-40.682,432.413,-305.879,-21.830,-706.150,44.630,-127.930
555,49959.646000,311.891,-123.742,-29.767,435.456,-296.460,-24.513,-377.150,84.630,-109.930
556,49959.687000,339.836,-73.644,49.612,432.538,-296.581,-27.472,-100.150,74.630,-61.930
557,49959.749000,267.977,-59.616,65.488,433.527,-295.569,-25.475,-68.150,-24.370,-130.930
558,49959.776000,170.168,-0.501,66.481,442.331,-289.955,-32.190,-75.150,-43.370,-224.930
559,49959.807000,135.236,-7.515,73.426,447.257,-285.867,-23.215,73.850,369.630,-316.930
560,49959.855000,214.082,-37.573,72.434,450.242,-281.806,-14.245,315.850,560.630,-126.930
561,49959.870000,301.910,-50.599,55.566,448.192,-290.922,-0.731,156.850,203.630,85.070
562,49959.916000,246.020,-3.507,36.713,451.206,-284.182,2.412,72.850,100.630,16.070
563,49959.945000,253.006,-22.544,25.798,451.155,-287.912,4.276,80.850,40.630,67.070
564,49959.992000,227.057,-45.589,25.798,452.155,-285.981,5.315,240.850,-39.370,74.070
565,49960.29000,227.057,-56.611,32.744,450.941,-302.963,6.807,274.850,-163.370,100.070
566,49960.84000,232.047,-49.597,38.698,456.023,-287.659,11.176,304.850,-168.370,-46.930
567,49960.107000,230.051,-54.607,52.589,452.038,-294.412,8.031,254.850,-174.370,-11.930
568,49960.151000,246.020,-85.667,31.752,456.836,-298.126,7.935,334.850,-363.370,216.070
569,49960.169000,224.062,-97.691,8.930,451.994,-297.276,6.967,555.850,-466.370,240.070
570,49960.209000,237.037,-36.571,22.822,451.985,-298.169,8.910,853.850,-453.370,237.070
571,49960.262000,258.994,-8.517,39.690,444.992,-313.105,19.302,791.850,11.630,463.070
572,49960.291000,282.947,56.611,74.419,440.145,-313.856,29.109,489.850,140.630,421.070
573,49960.329000,284.943,35.569,68.465,440.979,-324.060,35.712,276.850,88.630,177.070
574,49960.386000,262.986,-27.554,31.752,442.054,-317.322,39.836,330.850,-150.370,-34.930
575,49960.409000,242.027,16.532,28.775,443.921,-322.863,43.619,390.850,-178.370,-118.930
576,49960.449000,218.074,14.528,37.705,446.844,-321.141,35.803,168.850,-299.370,18.070
577,49960.469000,206.097,-47.593,57.550,448.777,-321.219,31.870,9.850,-438.370,-1.930
578,49960.506000,209.092,-4.509,50.605,444.926,-318.569,27.019,-143.150,-148.370,-52.930
579,49960.561000,297.918,-55.609,39.690,450.752,-318.460,28.015,-75.150,142.630,-82.930
580,49960.591000,312.889,-60.618,17.860,448.946,-309.819,34.154,313.850,111.630,-340.930
581,49960.630000,302.908,-24.548,74.419,459.757,-303.335,58.943,842.850,658.630,-229.930
582,49960.684000,260.990,-26.552,50.605,459.952,-291.593,74.024,965.850,370.630,-187.930
583,49960.707000,246.020,31.562,20.837,463.914,-288.201,92.814,841.850,335.630,-103.930
584,49960.734000,241.029,45.589,16.868,461.022,-288.740,109.515,467.850,251.630,63.070
585,49960.767000,225.060,19.538,23.814,454.285,-285.789,117.455,76.850,224.630,103.070
586,49960.807000,239.033,-19.538,30.760,459.042,-292.340,117.281,-63.150,66.630,112.070
587,49960.847000,219.072,12.524,62.512,456.178,-289.465,120.307,-53.150,97.630,72.070
588,49960.901000,214.082,-2.505,54.574,449.338,-292.451,118.245,-111.150,37.630,162.070
589,49960.930000,216.078,-13.526,58.543,449.188,-302.065,112.076,-50.150,-79.370,353.070
590,49960.970000,219.072,-25.550,98.233,439.462,-303.988,115.940,104.850,-56.370,444.070
591,49961.10000,251.010,-99.695,130.977,433.607,-306.776,120.771,502.850,20.630,305.070
592,49961.31000,252.008,-154.802,50.605,439.528,-301.597,134.695,945.850,-172.370,-62.930
593,49961.67000,280.951,26.552,13.891,438.739,-290.814,149.748,1360.850,-24.370,-55.930
594,49961.106000,299.914,40.579,-38.698,438.959,-277.206,163.897,1059.850,-79.370,-69.930
595,49961.161000,317.879,-24.548,-59.535,437.938,-280.950,165.759,420.850,-352.370,107.070
596,49961.189000,266.979,-4.509,-48.620,441.781,-282.944,159.808,62.850,-260.370,3.070
597,49961.229000,255.002,-35.569,-31.752,443.769,-279.240,155.980,-71.150,-190.370,75.070
598,49961.272000,201.107,-23.546,-16.868,442.690,-286.031,149.888,-108.150,-264.370,206.070
599,49961.306000,234.043,-19.538,-29.767,440.678,-290.813,148.768,-66.150,-151.370,188.070
600,49961.335000,296.920,-7.515,-16.868,437.666,-297.526,146.609,124.850,-4.370,50.070
601,49961.370000,264.982,-32.564,57.550,438.764,-288.949,148.816,198.850,-36.370,8.070
602,49961.424000,263.984,40.579,47.628,427.005,-297.467,154.461,173.850,107.630,161.070
603,49961.450000,291.930,-99.695,33.736,431.929,-293.405,162.451,275.850,-216.370,15.070
604,49961.492000,250.012,-130.755,40.682,430.929,-295.336,161.412,569.850,-240.370,-71.930
605,49961.532000,207.096,-49.597,42.667,433.104,-279.994,168.728,749.850,-72.370,-30.930
606,49961.574000,238.035,7.515,46.636,427.137,-291.135,179.228,493.850,111.630,178.070
607,49961.616000,278.955,8.517,53.581,432.193,-277.695,184.528,102.850,189.630,-178.930
608,49961.637000,292.928,4.509,37.705,433.164,-277.682,184.530,-94.150,83.630,-413.930
609,49961.671000,248.016,-5.511,36.713,436.145,-272.912,184.668,-157.150,44.630,-443.930
610,49961.712000,245.021,-19.538,11.907,443.071,-263.439,181.992,-266.150,5.630,-371.930
611,49961.749000,211.088,-6.513,23.814,446.061,-257.776,180.188,-300.150,-12.370,-257.930
612,49961.796000,210.090,22.544,39.690,446.959,-261.782,171.225,-438.150,-82.370,-145.930
613,49961.839000,233.045,-6.513,29.767,446.858,-267.693,162.208,-583.150,-222.370,34.070
614,49961.872000,233.045,7.515,29.767,444.793,-275.470,155.103,-554.150,-31.370,96.070
615,49961.911000,240.031,-2.505,20.837,442.872,-272.923,145.335,-634.150,-66.370,155.070
616,49961.939000,266.979,-30.560,66.481,442.729,-281.697,135.254,-809.150,-86.370,246.070
617,49961.972000,271.969,-63.624,75.411,433.884,-288.599,129.146,-589.150,121.630,40.070
618,49962.9000,281.949,-57.613,61.519,433.866,-288.835,120.287,-381.150,-32.370,-146.930
619,49962.50000,231.049,-4.509,66.481,431.921,-288.916,118.314,-223.150,-1.370,-98.930
620,49962.91000,216.078,-11.523,89.302,431.844,-294.510,121.109,-317.150,332.630,73.070
621,49962.132000,238.035,-26.552,104.186,426.922,-299.307,120.967,-383.150,463.630,88.070
622,49962.169000,237.037,-38.575,84.341,419.106,-303.147,122.814,-494.150,460.630,212.070
623,49962.210000,203.103,-91.679,36.713,416.051,-313.485,126.456,-510.150,370.630,172.070
624,49962.230000,224.062,-85.667,29.767,410.207,-314.592,123.465,-357.150,306.630,53.070
625,49962.270000,236.039,-58.614,38.698,411.107,-319.333,122.351,-257.150,244.630,-95.930
626,49962.316000,255.002,-47.593,43.659,410.295,-308.078,119.712,-246.150,83.630,-199.930
627,49962.350000,244.023,-60.618,64.496,416.090,-309.913,118.687,-206.150,-63.370,-320.930
628,49962.392000,251.010,-49.597,69.457,423.982,-300.478,114.044,-157.150,-109.370,-231.930
629,49962.427000,240.031,-41.581,80.372,425.847,-305.284,109.979,-224.150,-147.370,-270.930
630,49962.474000,234.043,-43.585,87.318,435.738,-291.252,99.567,-305.150,-74.370,-326.930
631,49962.487000,239.033,-30.560,86.326,432.835,-290.400,97.618,-362.150,-88.370,-345.930
632,49962.549000,216.078,-4.509,75.411,441.675,-282.029,88.030,-432.150,-80.370,-200.930
633,49962.572000,239.033,-11.523,53.581,440.633,-286.036,80.048,-516.150,-16.370,-0.930
634,49962.612000,279.953,-16.532,27.783,441.572,-287.205,71.164,-827.150,27.630,254.070
635,49962.659000,256.000,-30.560,-1.984,435.466,-304.756,53.945,-1003.150,-252.370,405.070
636,49962.705000,248.016,-52.603,-12.899,430.423,-315.727,34.942,-809.150,-237.370,273.070
637,49962.732000,237.037,-38.575,21.829,428.507,-313.128,27.143,-516.150,-42.370,-52.930
638,49962.770000,251.010,-20.540,0.992,433.466,-305.547,25.395,-390.150,5.630,-160.930
639,49962.791000,303.906,-40.579,8.930,433.557,-299.007,22.626,-263.150,72.630,-135.930
640,49962.829000,318.877,-78.654,-14.884,434.444,-303.906,15.606,-56.150,-144.370,-123.930
641,49962.870000,289.934,-65.628,-32.744,441.381,-294.300,17.852,391.850,-124.370,-245.930
642,49962.910000,249.014,7.515,-8.930,444.367,-289.452,20.943,222.850,-170.370,-145.930
643,49962.954000,236.039,-13.526,-18.853,444.289,-294.312,15.889,38.850,-203.370,12.070
644,49962.994000,224.062,-30.560,-16.868,445.383,-285.787,16.128,-59.150,-74.370,-57.930
645,49963.34000,234.043,-19.538,1.984,446.223,-293.602,6.076,-410.150,-46.370,52.070
646,49963.74000,250.012,-47.593,-25.798,450.052,-295.780,-6.765,-684.150,-41.370,41.070
647,49963.95000,235.041,-68.634,-22.822,445.236,-292.303,-15.529,-667.150,-89.370,-5.930
648,49963.129000,256.998,-77.652,-41.674,444.257,-291.661,-26.332,-528.150,-117.370,95.070
649,49963.172000,286.940,-80.658,-13.891,449.008,-298.291,-29.459,-190.150,-24.370,143.070
650,49963.212000,314.885,-68.634,35.721,447.204,-289.623,-22.336,377.850,224.630,36.070
651,49963.259000,298.916,-10.521,26.791,446.155,-295.258,-20.527,82.850,180.630,376.070
652,49963.292000,293.926,29.558,74.419,440.132,-310.208,-11.117,-86.150,219.630,236.070
653,49963.332000,190.129,39.577,59.535,443.039,-309.458,-19.944,-606.150,-72.370,-74.930
654,49963.372000,182.144,-36.571,73.426,444.145,-300.014,-20.663,-386.150,344.630,-121.930
655,49963.392000,252.008,-76.650,82.357,453.803,-303.580,-17.795,-94.150,322.630,-177.930
656,49963.432000,292.928,-51.601,76.403,451.862,-304.369,-10.935,210.850,208.630,46.070
657,49963.474000,242.027,-68.634,51.597,446.990,-306.985,-0.196,315.850,120.630,331.070
658,49963.514000,225.060,-51.601,37.705,442.064,-313.357,11.421,416.850,185.630,237.070
659,49963.554000,243.025,-45.589,30.760,443.037,-314.078,19.272,484.850,65.630,301.070
660,49963.590000,239.033,-49.597,35.721,438.943,-329.158,22.780,474.850,-100.370,381.070
661,49963.632000,207.096,-51.601,39.690,435.096,-327.217,26.762,537.850,-316.370,167.070
662,49963.672000,185.138,-20.540,67.473,437.943,-331.851,28.605,770.850,-383.370,-27.930
663,49963.694000,200.109,-12.524,51.597,440.036,-322.944,42.627,1076.850,-228.370,-13.930
664,49963.742000,230.051,26.552,37.705,443.902,-325.410,54.368,1171.850,-153.370,-106.930
665,49963.779000,304.904,10.521,56.558,440.185,-316.402,75.268,1191.850,78.630,3.070
666,49963.814000,279.953,39.577,36.713,445.037,-317.121,81.158,582.850,-95.370,-225.930
667,49963.855000,304.904,-4.509,42.667,456.976,-297.832,89.583,498.850,16.630,-443.930
668,49963.892000,268.975,-10.521,39.690,459.000,-292.892,96.609,569.850,-106.370,-361.930
669,49963.939000,267.977,-9.519,14.884,463.032,-282.462,95.923,463.850,-418.370,-244.930
670,49963.986000,238.035,69.636,11.907,471.834,-276.875,88.224,216.850,-426.370,-329.930
671,49963.994000,229.053,43.585,33.736,470.873,-275.996,86.280,68.850,-217.370,-80.930
672,49964.41000,222.066,19.538,19.845,466.959,-277.995,84.250,-27.150,-191.370,84.070
673,49964.75000,232.047,29.558,53.581,466.900,-281.830,82.176,126.850,-0.370,201.070
674,49964.131000,253.006,17.534,97.240,465.063,-275.894,93.158,512.850,243.630,134.070
675,49964.154000,273.965,6.513,95.256,460.191,-278.510,103.897,574.850,97.630,30.070
676,49964.192000,304.904,-26.552,9.922,458.203,-282.215,107.725,558.850,-256.370,112.070
677,49964.234000,264.982,-71.640,45.643,453.338,-283.203,108.673,291.850,110.630,317.070
678,49964.272000,244.023,-65.628,49.612,453.236,-290.662,112.399,-170.150,-76.370,193.070
679,49964.292000,317.879,-37.573,-24.806,448.412,-288.052,106.562,-237.150,-292.370,366.070
680,49964.334000,182.144,-93.683,-7.938,449.193,-299.702,94.436,-89.150,-382.370,-138.930
681,49964.371000,101.302,2.505,33.736,457.247,-279.734,95.005,435.850,-249.370,-688.930
682,49964.410000,161.185,150.795,107.163,460.218,-276.619,103.949,471.850,445.630,-407.930
683,49964.452000,284.943,41.581,23.814,450.559,-274.602,113.825,-607.150,695.630,296.070
684,49964.492000,290.932,-112.720,-13.891,457.363,-272.851,105.033,-716.150,-147.370,-503.930
685,49964.532000,284.943,-52.603,1.984,462.281,-266.584,89.478,-286.150,-359.370,-429.930
686,49964.571000,332.850,45.589,15.876,465.265,-261.001,84.720,78.850,-121.370,260.070
687,49964.591000,337.840,10.521,6.946,465.175,-267.541,87.489,282.850,-118.370,26.070
688,49964.630000,286.940,29.558,19.845,467.220,-259.266,77.886,72.850,-339.370,-195.930
689,49964.679000,249.014,55.609,15.876,464.318,-258.414,75.938,49.850,-165.370,44.070
690,49964.711000,247.018,45.589,30.760,461.384,-260.268,78.832,146.850,152.630,4.070
691,49964.750000,218.074,43.585,58.543,457.476,-262.949,86.620,123.850,193.630,84.070
692,49964.792000,232.047,-18.536,62.512,456.484,-264.775,89.518,-51.150,94.630,4.070
693,49964.836000,298.916,-70.638,50.605,452.720,-258.683,107.387,228.850,786.630,-117.930
694,49964.851000,228.055,-31.562,19.845,449.679,-268.075,111.055,-193.150,181.630,160.070
695,49964.899000,214.082,-24.548,-7.938,447.700,-270.125,106.076,-228.150,-62.370,-23.930
696,49964.932000,238.035,-8.517,33.736,445.820,-266.291,109.130,-266.150,359.630,81.070
697,49964.972000,225.060,49.597,25.798,439.941,-270.156,109.013,-352.150,236.630,-10.930
698,49965.12000,217.076,-18.536,15.876,441.807,-274.175,99.068,-694.150,-69.370,116.070
699,49965.52000,251.010,-57.613,26.791,430.894,-289.667,90.750,-915.150,267.630,325.070
700,49965.92000,285.942,-77.652,40.682,428.817,-298.363,84.603,-835.150,206.630,270.070
701,49965.130000,268.975,-83.663,42.667,419.895,-310.097,74.426,-712.150,-16.370,356.070
702,49965.150000,252.008,-134.763,41.674,414.071,-309.418,67.550,-323.150,83.630,356.070
703,49965.192000,228.055,-118.732,22.822,407.070,-323.699,67.141,69.850,9.630,308.070
704,49965.230000,257.996,-69.636,12.899,405.133,-323.674,69.105,210.850,-20.370,274.070
705,49965.276000,238.035,-40.579,16.868,408.896,-332.077,70.845,137.850,-235.370,-24.930
706,49965.316000,238.035,-7.515,21.829,408.133,-317.119,65.358,-46.150,-182.370,-188.930
707,49965.384000,238.035,-14.528,28.775,414.028,-311.520,59.622,-325.150,-120.370,-259.930
708,49965.420000,236.039,-47.593,57.550,417.890,-312.490,56.651,-551.150,103.630,-231.930
709,49965.435000,246.020,-47.593,46.636,423.657,-314.694,41.845,-841.150,74.630,-239.930
710,49965.455000,248.016,-26.552,45.643,426.649,-308.243,34.161,-981.150,199.630,-189.930
711,49965.495000,232.047,-57.613,40.682,423.775,-303.951,19.521,-997.150,160.630,-161.930
712,49965.535000,227.057,-100.697,35.721,428.691,-298.472,9.846,-778.150,2.630,-160.930
713,49965.575000,223.064,-102.701,47.628,431.493,-305.235,2.777,-479.150,-38.370,-55.930
714,49965.621000,221.068,-88.673,40.682,432.528,-299.784,-5.922,-104.150,-83.370,64.070
715,49965.654000,239.033,-62.622,45.643,430.467,-308.270,-4.194,54.850,-100.370,159.070
716,49965.694000,220.070,-45.589,75.411,428.509,-309.269,-5.209,34.850,-99.370,191.070
717,49965.734000,240.031,-24.548,88.310,427.592,-305.527,-6.090,120.850,25.630,223.070
718,49965.754000,244.023,-16.532,-2.977,420.676,-314.869,1.507,255.850,64.630,482.070
719,49965.802000,310.893,-45.589,-42.667,417.652,-323.263,7.170,31.850,167.630,150.070
720,49965.834000,305.903,-16.532,-39.690,415.778,-318.588,6.314,-168.150,96.630,-23.930
721,49965.879000,281.949,-36.571,-38.698,420.580,-321.488,1.323,-174.150,-9.370,-60.930
722,49965.912000,265.980,-53.605,-18.853,418.729,-315.736,5.414,-4.150,24.630,-41.930
723,49965.952000,219.072,-33.566,0.992,423.564,-316.666,3.429,-72.150,-78.370,-29.930
724,49965.992000,230.051,-12.524,3.969,422.566,-317.810,-3.489,-397.150,-117.370,27.070
725,49966.12000,242.027,-48.595,-14.884,422.620,-313.266,-10.248,-564.150,2.630,-63.930
726,49966.52000,242.027,-67.632,-8.930,428.397,-315.338,-20.132,-655.150,53.630,-91.930
727,49966.92000,273.965,-83.663,-7.938,429.402,-311.805,-29.868,-632.150,237.630,-81.930
728,49966.135000,292.928,-111.718,9.922,428.436,-311.766,-27.902,-324.150,253.630,29.070
729,49966.174000,316.881,-88.673,29.767,431.306,-314.561,-27.975,-155.150,268.630,342.070
730,49966.217000,289.934,-13.526,95.256,427.255,-326.778,-23.403,-211.150,442.630,219.070
731,49966.260000,207.096,49.597,44.651,432.197,-320.195,-27.146,-440.150,12.630,-85.930
732,49966.302000,174.160,-7.515,53.581,434.110,-320.536,-40.923,-496.150,-89.370,-166.930
733,49966.316000,171.166,-26.552,59.535,443.973,-309.156,-44.524,-255.150,-12.370,-386.930
734,49966.355000,245.021,-43.585,74.419,447.770,-315.589,-39.779,244.850,113.630,-433.930
735,49966.404000,294.924,-70.638,78.388,455.792,-298.326,-34.367,415.850,178.630,-72.930
736,49966.447000,241.029,-43.585,62.512,452.834,-302.806,-23.677,424.850,140.630,-28.930
737,49966.476000,262.986,-33.566,52.589,453.852,-300.638,-13.779,410.850,88.630,30.070
738,49966.516000,252.008,-60.618,27.783,454.729,-307.217,-12.977,400.850,-48.370,188.070
739,49966.556000,215.080,-62.622,11.907,451.687,-316.609,-9.309,573.850,-395.370,243.070
740,49966.594000,195.119,-73.644,25.798,446.895,-312.817,-6.260,910.850,-567.370,120.070
741,49966.614000,207.096,-19.538,26.791,445.838,-319.318,-1.525,1018.850,-551.370,16.070
742,49966.654000,229.053,-11.523,19.845,447.775,-319.343,-3.490,821.850,-788.370,-9.930
743,49966.695000,255.002,13.526,24.806,452.774,-308.952,-6.143,723.850,-776.370,-216.930
744,49966.735000,321.871,15.530,33.736,459.578,-307.962,-8.071,373.850,-407.370,-98.930
745,49966.777000,316.881,-9.519,44.651,457.629,-308.095,-12.013,199.850,-235.370,93.070
746,49966.817000,245.021,-51.601,46.636,454.749,-306.954,-3.133,278.850,175.630,-24.930
747,49966.862000,259.992,-65.628,50.605,458.658,-306.557,9.671,493.850,622.630,-76.930
748,49966.902000,267.977,-65.628,50.605,459.631,-308.801,31.250,666.850,581.630,-181.930
749,49966.922000,220.070,-43.585,29.767,463.700,-298.658,55.145,1005.850,481.630,-169.930
750,49966.956000,227.057,-17.534,40.682,465.733,-295.135,79.837,1031.850,329.630,35.070
751,49966.996000,231.049,-22.544,20.837,461.967,-289.069,96.721,1050.850,99.630,162.070
752,49967.50000,231.049,6.513,1.984,458.079,-291.487,114.352,1039.850,-100.370,121.070
753,49967.84000,242.027,19.538,38.698,459.096,-289.345,123.266,818.850,-9.370,328.070
754,49967.115000,257.996,-8.517,46.636,456.061,-299.419,136.751,578.850,10.630,331.070
755,49967.164000,255.002,-0.501,61.519,449.280,-298.570,136.763,479.850,-36.370,137.070
756,49967.199000,251.010,2.505,69.457,452.289,-293.432,150.682,410.850,24.630,147.070
757,49967.214000,248.016,23.546,69.457,446.423,-296.351,150.591,354.850,-57.370,176.070
758,49967.270000,238.035,-5.511,74.419,447.445,-293.369,155.593,207.850,82.630,150.070
759,49967.312000,256.998,-20.540,79.380,439.685,-294.188,164.410,240.850,113.630,221.070
760,49967.337000,251.010,-38.575,93.271,438.596,-302.633,167.124,368.850,24.630,349.070
761,49967.374000,234.043,-44.587,99.225,432.828,-299.695,174.081,664.850,4.630,271.070
762,49967.419000,246.020,-49.597,87.318,430.024,-293.720,187.030,936.850,33.630,96.070
763,49967.455000,232.047,-42.583,56.558,434.110,-281.817,206.056,1152.850,-156.370,-43.930
764,49967.501000,198.113,-35.569,35.721,438.166,-270.309,210.318,1111.850,-333.370,-63.930
765,49967.525000,249.014,-6.513,-4.961,440.188,-265.395,216.359,794.850,-275.370,-58.930
766,49967.554000,353.809,45.589,-41.674,445.344,-245.284,223.813,349.850,175.630,-528.930
767,49967.599000,273.965,-1.503,-30.760,445.372,-243.393,223.865,-164.150,29.630,-120.930
768,49967.632000,253.006,-54.607,-30.760,444.291,-250.210,216.789,-170.150,-178.370,105.070
769,49967.672000,229.053,-58.614,-30.760,445.259,-250.223,215.806,37.850,-157.370,77.070
770,49967.712000,234.043,-45.589,-2.977,449.181,-247.357,214.909,198.850,-244.370,69.070
771,49967.754000,254.004,-43.585,-20.837,445.257,-250.249,214.822,528.850,-164.370,35.070
772,49967.795000,251.010,-14.528,4.961,446.325,-244.377,221.872,757.850,-80.370,89.070
773,49967.824000,271.969,17.534,-11.907,447.441,-234.802,226.075,990.850,-292.370,158.070
774,49967.859000,345.825,-1.503,57.550,444.688,-225.097,237.160,870.850,-88.370,203.070
775,49967.895000,280.951,27.554,21.829,448.561,-225.935,239.110,452.850,-279.370,140.070
776,49967.934000,249.014,-72.642,31.752,447.701,-218.384,239.319,354.850,-349.370,-148.930
777,49967.975000,176.156,-50.599,40.682,447.677,-220.223,241.235,331.850,-185.370,-81.930
778,49968.15000,242.027,57.613,79.380,444.844,-215.404,246.282,-8.150,437.630,134.070
779,49968.55000,309.895,2.505,45.643,434.959,-228.596,252.784,-416.150,373.630,116.070
780,49968.75000,276.959,-24.548,51.597,436.959,-223.972,247.998,-760.150,128.630,-429.930
781,49968.119000,259.992,-13.526,51.597,437.873,-227.767,246.910,-700.150,258.630,-396.930
782,49968.159000,264.982,-14.528,29.767,435.002,-224.210,240.119,-818.150,136.630,-398.930
783,49968.196000,218.074,-28.556,21.829,442.657,-230.904,233.061,-978.150,-4.370,-404.930
784,49968.236000,223.064,-23.546,26.791,444.577,-230.378,216.357,-1043.150,-93.370,-337.930
785,49968.282000,208.094,-19.538,29.767,448.235,-243.983,200.247,-1013.150,-197.370,-139.930
786,49968.316000,215.080,-10.521,60.527,447.225,-245.285,187.422,-887.150,-130.370,-78.930
787,49968.391000,225.060,-18.536,35.721,450.103,-246.453,177.558,-715.150,-269.370,57.070
788,49968.400000,237.037,-21.542,41.674,445.891,-266.892,157.311,-728.150,-307.370,273.070
789,49968.416000,275.961,-10.521,75.411,444.739,-278.464,149.118,-595.150,-46.370,318.070
790,49968.470000,296.920,-72.642,72.434,437.943,-278.587,148.120,-571.150,260.630,122.070
791,49968.494000,249.014,-32.564,78.388,438.925,-277.654,147.164,-522.150,296.630,-117.930
792,49968.544000,222.066,0.501,59.535,433.973,-283.607,139.121,-536.150,168.630,115.070
793,49968.575000,234.043,-24.548,66.481,430.946,-292.054,142.815,-579.150,518.630,132.070
794,49968.614000,226.058,-27.554,58.543,424.127,-293.227,137.853,-759.150,419.630,-42.930
795,49968.655000,245.021,-77.652,35.721,426.049,-294.224,134.878,-658.150,301.630,-133.930
796,49968.675000,256.998,-66.630,39.690,426.927,-300.016,129.800,-539.150,260.630,-169.930
797,49968.719000,254.004,-54.607,49.612,429.929,-293.434,127.037,-494.150,137.630,-181.930
798,49968.761000,238.035,-49.597,53.581,431.819,-296.375,122.041,-498.150,39.630,-221.930
799,49968.795000,234.043,-57.613,61.519,435.660,-298.396,115.106,-483.150,-42.370,-241.930
800,49968.836000,209.092,-51.601,68.465,435.715,-293.852,108.347,-405.150,-108.370,-294.930
801,49968.881000,213.084,-46.591,80.372,444.542,-286.400,99.717,-363.150,-31.370,-300.930
802,49968.916000,233.045,-35.569,88.310,445.538,-283.760,91.923,-493.150,53.630,-174.930
803,49968.980000,246.020,-23.546,83.349,450.387,-282.983,83.100,-738.150,-15.370,-97.930
804,49968.987000,252.008,-4.509,83.349,448.406,-284.298,70.273,-1095.150,-82.370,-4.930
805,49969.25000,254.004,41.581,74.419,448.303,-289.474,53.408,-1311.150,154.630,258.070
806,49969.62000,228.055,1.503,13.891,439.271,-308.012,36.156,-1394.150,105.630,534.070
807,49969.106000,194.121,-112.720,-12.899,434.412,-307.398,26.328,-972.150,326.630,183.070
808,49969.136000,264.982,-84.665,-13.891,437.225,-313.242,18.302,-638.150,340.630,33.070
809,49969.179000,317.879,-28.556,-10.915,436.321,-308.554,17.447,-394.150,91.630,-144.930
810,49969.220000,267.977,-59.616,-13.891,440.225,-306.686,14.555,-198.150,-68.370,-52.930
811,49969.290000,269.973,-36.571,-24.806,439.274,-304.914,10.668,-33.150,-160.370,-56.930
812,49969.299000,265.980,-29.558,-38.698,441.184,-306.830,8.651,-237.150,-167.370,-29.930
813,49969.320000,257.996,-52.603,-27.783,444.166,-301.273,2.909,-320.150,23.630,-35.930
814,49969.360000,240.031,-70.638,-21.829,444.099,-304.453,-9.967,-507.150,-157.370,63.070
815,49969.397000,284.943,-66.630,51.597,443.104,-305.544,-14.917,-377.150,158.630,158.070
816,49969.442000,253.006,-30.560,84.341,445.933,-310.415,-21.933,-397.150,100.630,-165.930
817,49969.476000,226.058,2.505,69.457,451.851,-302.978,-29.585,-349.150,-44.370,-225.930
818,49969.516000,202.105,-18.536,86.326,455.771,-300.900,-24.603,-224.150,281.630,-144.930
819,49969.572000,296.920,-88.673,80.372,461.743,-291.229,-19.405,115.850,166.630,-161.930
820,49969.581000,285.942,-42.583,75.411,460.656,-299.649,-15.707,243.850,3.630,40.070
821,49969.624000,229.053,-42.583,41.674,456.845,-294.949,-14.599,236.850,-71.370,83.070
822,49969.669000,236.039,-57.613,50.605,456.731,-303.328,-9.914,471.850,-139.370,146.070
823,49969.699000,196.117,-52.603,22.822,454.809,-302.331,-6.939,632.850,-394.370,285.070
824,49969.737000,215.080,-50.599,34.729,452.682,-315.518,-4.359,983.850,-463.370,190.070
825,49969.785000,210.090,8.517,63.504,447.895,-311.647,1.643,1102.850,-319.370,96.070
826,49969.817000,221.068,17.534,60.527,455.595,-317.761,16.240,1158.850,-194.370,-87.930
827,49969.870000,244.023,1.503,53.581,456.761,-306.005,31.323,1318.850,-128.370,-167.930
828,49969.886000,238.035,-66.630,61.519,455.856,-304.389,56.940,1473.850,47.630,13.070
829,49969.921000,294.924,11.523,74.419,453.881,-309.458,80.402,947.850,254.630,225.070
830,49969.957000,311.891,-6.513,43.659,457.944,-297.845,88.601,867.850,-32.370,-119.930
831,49969.999000,252.008,-35.569,21.829,458.116,-287.180,98.734,1097.850,-335.370,-123.930
832,49970.37000,217.076,14.528,-23.814,460.012,-290.803,103.554,937.850,-610.370,-103.930
833,49970.84000,167.173,47.593,-30.760,464.002,-282.448,95.925,521.850,-559.370,48.070
834,49970.116000,197.115,31.562,96.248,463.888,-290.066,93.745,259.850,-116.370,446.070
835,49970.144000,308.897,-148.791,133.953,451.277,-291.688,110.400,747.850,426.630,254.070
836,49970.179000,301.910,-23.546,-2.977,456.225,-287.310,130.203,1588.850,82.630,-2.930
837,49970.217000,241.029,79.656,33.736,450.601,-276.359,154.104,1360.850,101.630,219.070
838,49970.259000,254.004,92.681,14.884,453.525,-276.921,166.881,774.850,10.630,-105.930
839,49970.299000,297.918,35.569,10.915,451.778,-263.684,168.230,142.850,-87.370,-253.930
840,49970.345000,262.986,31.562,2.977,459.606,-258.924,165.424,10.850,-66.370,-189.930
841,49970.392000,221.068,18.536,11.907,458.596,-260.987,159.464,-270.150,-130.370,-66.930
842,49970.417000,234.043,40.579,4.961,457.572,-263.996,153.476,-296.150,-97.370,-20.930
843,49970.436000,195.119,30.560,11.907,456.466,-272.678,147.331,-465.150,-389.370,108.070
844,49970.477000,220.070,61.620,-7.938,453.588,-268.439,130.723,-673.150,-319.370,205.070
845,49970.517000,273.965,66.630,54.574,451.395,-284.779,121.413,-484.150,-34.370,273.070
846,49970.557000,314.885,58.614,56.558,449.422,-286.751,119.387,-217.150,25.630,72.070
847,49970.597000,349.817,48.595,76.403,442.594,-288.817,116.367,-376.150,7.630,-55.930
848,49970.641000,363.789,-15.530,92.279,441.787,-278.271,122.561,148.850,484.630,-351.930
849,49970.685000,301.910,-17.534,75.411,436.883,-282.831,131.278,-626.150,780.630,-200.930
850,49970.720000,231.049,-72.642,38.698,437.769,-287.756,123.274,-1410.150,408.630,-157.930
851,49970.740000,161.185,-93.683,82.357,432.870,-290.714,121.216,-1574.150,896.630,-165.930
852,49970.787000,228.055,-144.783,15.876,427.952,-294.697,116.179,-1205.150,647.630,-0.930
853,49970.817000,268.975,-145.785,-25.798,420.925,-310.081,109.838,-801.150,370.630,208.070
854,49970.857000,193.123,-70.638,-5.953,419.964,-308.441,101.029,-628.150,17.630,10.070
855,49970.899000,192.125,-64.626,-3.969,420.900,-309.636,91.162,-379.150,-145.370,-266.930
856,49970.944000,204.101,-87.671,42.667,427.864,-297.378,86.596,310.850,-379.370,-373.930
857,49970.977000,247.018,-18.536,55.566,428.813,-299.177,89.499,503.850,-415.370,-261.930
858,49971.22000,304.904,58.614,65.488,434.749,-290.741,83.842,-162.150,-202.370,-30.930
859,49971.37000,243.025,-18.536,44.651,431.730,-296.772,71.865,-590.150,-233.370,-27.930
860,49971.92000,223.064,-96.689,30.760,435.655,-292.331,59.209,-641.150,-333.370,97.070
861,49971.121000,219.072,-97.691,39.690,430.630,-303.065,49.066,-339.150,-213.370,179.070
862,49971.166000,212.086,-69.636,45.643,433.607,-297.587,40.370,19.850,-281.370,44.070
863,49971.201000,242.027,-5.511,66.481,428.620,-307.060,42.066,146.850,96.630,99.070
864,49971.241000,277.957,12.524,91.287,420.916,-304.070,51.972,130.850,168.630,240.070
865,49971.294000,281.949,-40.579,51.597,417.819,-316.483,48.671,-433.150,503.630,342.070
866,49971.317000,258.994,-82.661,92.279,413.919,-318.298,53.532,-678.150,494.630,212.070
867,49971.337000,189.131,-35.569,14.884,409.021,-321.256,51.474,-520.150,380.630,-10.930
868,49971.381000,219.072,-108.712,16.868,412.962,-317.366,53.556,3.850,219.630,-29.930
869,49971.421000,241.029,-77.652,24.806,411.929,-322.029,56.375,269.850,106.630,-158.930
870,49971.461000,245.021,-44.587,37.705,419.893,-308.601,59.713,270.850,-236.370,-279.930
871,49971.526000,253.006,-30.560,66.481,422.850,-305.670,61.767,199.850,-82.370,-157.930
872,49971.549000,229.053,-24.548,80.372,426.786,-301.859,60.896,114.850,-55.370,-259.930
873,49971.584000,251.010,-6.513,76.403,428.817,-296.052,64.995,-43.150,52.630,-323.930
874,49971.616000,246.020,-11.523,82.357,435.610,-295.221,57.161,-262.150,-90.370,-86.930
875,49971.639000,199.111,-68.634,86.326,435.592,-295.458,48.302,-464.150,-34.370,-147.930
876,49971.679000,209.092,-72.642,86.326,438.601,-288.010,42.612,-492.150,-4.370,-83.930
877,49971.719000,252.008,-38.575,93.271,435.571,-295.721,38.458,-677.150,251.630,147.070
878,49971.765000,277.957,-40.579,51.597,430.755,-292.244,29.695,-858.150,104.630,423.070
879,49971.799000,225.060,-7.515,20.837,423.673,-310.650,16.384,-904.150,-0.370,414.070
880,49971.844000,210.090,-24.548,14.884,423.712,-307.078,8.614,-609.150,95.630,204.070
881,49971.879000,245.021,-58.614,-8.930,423.503,-320.527,0.371,-501.150,70.630,277.070
882,49971.924000,287.938,-32.564,21.829,419.715,-313.989,-0.437,-419.150,119.630,47.070
883,49971.939000,315.883,-48.595,-6.946,422.589,-315.971,-5.405,-364.150,62.630,-81.930
884,49971.981000,310.893,-67.632,-23.814,421.673,-311.441,-12.166,-145.150,-88.370,-64.930
885,49972.30000,296.920,-46.591,-35.721,425.552,-311.438,-14.127,38.850,-252.370,-203.930
886,49972.64000,272.967,-7.515,-17.860,428.583,-302.939,-15.853,2.850,-104.370,-176.930
887,49972.99000,231.049,-26.552,-7.938,432.495,-300.205,-21.672,-367.150,-203.370,-106.930
888,49972.145000,237.037,-29.558,-22.822,429.545,-301.508,-33.516,-564.150,-122.370,-84.930
889,49972.180000,229.053,-98.693,1.984,433.408,-301.716,-43.351,-524.150,85.630,-31.930
890,49972.200000,248.016,-116.728,12.899,439.226,-301.713,-46.292,-287.150,12.630,-57.930
891,49972.239000,307.899,-48.595,30.760,441.295,-293.122,-44.083,-104.150,97.630,-17.930
892,49972.281000,307.899,7.515,54.574,440.273,-296.104,-49.085,-371.150,-99.370,41.070
893,49972.319000,184.140,1.503,69.457,441.270,-292.677,-62.759,-669.150,-282.370,-60.930
894,49972.360000,153.201,-16.532,74.419,447.159,-287.157,-71.448,-395.150,227.630,-441.930
895,49972.399000,242.027,-126.748,89.302,454.111,-276.580,-68.191,-16.150,417.630,-441.930
896,49972.439000,313.887,-72.642,80.372,460.018,-272.346,-54.293,569.850,333.630,-440.930
897,49972.480000,291.930,-45.589,66.481,467.819,-271.001,-43.423,690.850,25.630,107.070
898,49972.504000,226.058,-27.554,29.767,464.821,-278.292,-31.827,785.850,26.630,150.070
899,49972.539000,240.031,-23.546,27.783,462.910,-277.924,-17.066,937.850,-38.370,361.070
900,49972.589000,242.027,-28.556,14.884,456.839,-295.789,-10.688,914.850,-200.370,411.070
901,49972.619000,224.062,-35.569,18.853,453.967,-293.781,-4.735,932.850,-321.370,255.070
902,49972.664000,230.051,-45.589,13.891,448.947,-305.985,0.818,968.850,-547.370,277.070
903,49972.699000,253.006,-32.564,16.868,450.967,-301.098,5.876,926.850,-598.370,280.070
904,49972.737000,243.025,-21.542,2.977,449.794,-314.482,0.583,663.850,-748.370,203.070
905,49972.777000,231.049,-44.587,-2.977,447.797,-317.531,-6.390,578.850,-748.370,53.070
906,49972.797000,255.002,-8.517,24.806,451.671,-317.581,-10.319,566.850,-660.370,-73.930
907,49972.837000,286.940,44.587,70.450,449.838,-310.070,-11.097,246.850,-294.370,150.070
908,49972.877000,246.020,-4.509,60.527,448.679,-322.509,-16.363,-47.150,-394.370,350.070
909,49972.941000,220.070,-51.601,65.488,444.786,-322.695,-21.293,109.850,-40.370,112.070
910,49972.961000,291.930,-64.626,80.372,441.812,-328.909,-4.749,441.850,640.630,-84.930
911,49973.1000,267.977,-39.577,107.163,449.767,-318.658,21.123,729.850,681.630,-152.930
912,49973.41000,224.062,-49.597,32.744,449.782,-319.996,41.742,806.850,441.630,-76.930
913,49973.82000,270.971,-15.530,23.814,452.828,-312.835,60.634,802.850,565.630,-55.930
914,49973.107000,267.977,-6.513,3.969,454.830,-311.257,83.305,790.850,436.630,-131.930
915,49973.141000,262.986,12.524,0.992,455.035,-298.621,96.443,708.850,195.630,-221.930
916,49973.180000,230.051,16.532,18.853,452.071,-303.941,111.045,563.850,77.630,-18.930
917,49973.220000,211.088,8.517,18.853,455.175,-291.423,118.283,438.850,64.630,-27.930
918,49973.259000,210.090,1.503,42.667,455.150,-294.049,126.079,310.850,36.630,10.070
919,49973.306000,236.039,-1.503,61.519,458.105,-291.144,127.148,136.850,-23.370,103.070
920,49973.345000,237.037,-7.515,50.605,453.203,-294.155,123.122,180.850,-256.370,143.070
921,49973.387000,275.961,-33.566,64.496,454.256,-288.468,123.282,542.850,-306.370,0.070
922,49973.402000,253.006,-31.562,70.450,455.284,-285.407,131.238,958.850,-155.370,-88.930
923,49973.441000,256.998,30.560,33.736,453.379,-284.199,142.088,943.850,-126.370,123.070
924,49973.481000,259.992,-7.515,28.775,452.469,-281.112,152.008,727.850,-82.370,184.070
925,49973.536000,282.947,-18.536,30.760,447.670,-278.948,164.847,799.850,44.630,104.070
926,49973.560000,270.971,-25.550,34.729,448.737,-273.076,171.898,736.850,-125.370,216.070
927,49973.600000,229.053,-17.534,38.698,441.076,-267.222,182.867,933.850,-131.370,130.070
928,49973.644000,218.074,10.521,25.798,443.048,-266.039,190.772,1012.850,-146.370,147.070
929,49973.684000,209.092,18.536,11.907,440.345,-253.392,205.874,1108.850,-159.370,142.070
930,49973.701000,243.025,75.648,16.868,441.404,-248.387,215.851,1102.850,-40.370,144.070
931,49973.749000,268.975,112.720,27.783,433.781,-240.510,231.795,686.850,88.630,16.070
932,49973.780000,290.932,108.712,21.829,434.856,-233.772,235.918,332.850,118.630,-89.930
933,49973.846000,280.951,75.648,21.829,431.881,-237.701,231.870,-310.150,-266.370,-88.930
934,49973.864000,264.982,-8.517,65.488,437.766,-232.996,228.076,-365.150,136.630,-203.930
935,49973.904000,263.984,-117.730,68.465,437.773,-232.129,225.149,-319.150,39.630,-409.930
936,49973.944000,311.891,-41.581,57.550,437.734,-234.178,219.191,-679.150,69.630,16.070
937,49973.964000,238.035,-49.597,56.558,428.799,-246.858,208.987,-924.150,34.630,31.070
938,49974.2000,206.097,-83.663,33.736,430.657,-250.982,195.105,-950.150,81.630,-139.930
939,49974.44000,251.010,-73.644,26.791,427.617,-259.587,192.893,-814.150,186.630,-82.930
940,49974.84000,242.027,-65.628,29.767,427.623,-258.746,188.982,-618.150,121.630,50.070
941,49974.124000,248.016,-60.618,16.868,425.505,-270.279,182.756,-473.150,46.630,208.070
942,49974.164000,255.002,-54.607,18.853,424.518,-270.504,174.879,-490.150,54.630,-20.930
943,49974.204000,258.994,-57.613,6.946,423.410,-279.974,174.614,-398.150,31.630,-33.930
944,49974.245000,248.016,-58.614,23.814,421.468,-279.240,167.746,-466.150,-7.370,-23.930
945,49974.259000,229.053,-46.591,24.806,423.291,-286.121,156.738,-403.150,-244.370,-107.930
946,49974.299000,213.084,-48.595,26.791,428.191,-281.614,146.052,-269.150,-394.370,-75.930
947,49974.339000,218.074,-58.614,48.620,432.016,-283.845,131.242,-295.150,-442.370,-36.930
948,49974.385000,252.008,-26.552,44.651,431.029,-284.070,123.365,-370.150,-283.370,-109.930
949,49974.421000,264.982,-37.573,37.705,433.838,-289.965,113.370,-448.150,-156.370,-1.930
950,49974.464000,256.998,-51.601,21.829,433.859,-287.392,103.605,-495.150,-126.370,154.070
951,49974.502000,252.008,-51.601,16.868,427.776,-304.654,97.213,-520.150,12.630,187.070
952,49974.542000,257.996,-40.579,-4.961,424.852,-304.853,91.301,-531.150,25.630,158.070
953,49974.562000,250.012,-41.581,-8.930,425.802,-305.102,81.460,-598.150,-41.370,24.070
954,49974.601000,244.023,-46.591,13.891,426.798,-302.462,73.666,-519.150,3.630,-98.930
955,49974.640000,248.016,-48.595,23.814,426.765,-304.433,70.660,-421.150,188.630,-148.930
956,49974.685000,250.012,-63.624,33.736,427.727,-304.524,66.725,-401.150,176.630,-51.930
957,49974.722000,228.055,-63.624,13.891,431.509,-311.141,64.580,-309.150,55.630,57.070
958,49974.764000,240.031,-65.628,0.000,427.690,-306.547,61.751,-276.150,-18.370,205.070
959,49974.804000,246.020,-73.644,1.984,427.526,-317.107,55.555,-365.150,-31.370,90.070
960,49974.842000,245.021,-82.661,10.915,425.649,-311.698,46.850,-272.150,-81.370,-26.930
961,49974.864000,245.021,-87.671,8.930,424.671,-311.817,42.910,-103.150,-190.370,4.070
962,49974.910000,238.035,-77.652,6.946,423.584,-319.474,39.745,118.850,-323.370,39.070
963,49974.945000,234.043,-67.632,25.798,424.631,-313.866,36.952,294.850,-206.370,41.070
964,49974.990000,275.961,-32.564,72.434,429.402,-320.232,43.668,216.850,154.630,147.070
965,49975.25000,263.984,-49.597,60.527,429.424,-319.181,47.632,244.850,104.630,163.070
966,49975.85000,256.998,-48.595,59.535,423.679,-315.165,59.537,399.850,111.630,-3.930
967,49975.110000,245.021,-5.511,45.643,426.554,-318.670,68.297,469.850,157.630,59.070
968,49975.142000,256.000,17.534,41.674,425.643,-315.610,77.233,285.850,290.630,-79.930
969,49975.164000,307.899,2.505,20.837,428.710,-305.114,79.497,76.850,206.630,-400.930
970,49975.206000,283.945,-2.505,3.969,439.349,-308.534,87.289,70.850,211.630,-476.930
971,49975.242000,265.980,5.511,18.853,447.369,-291.298,91.716,107.850,200.630,-409.930
972,49975.282000,251.010,7.515,15.876,447.464,-285.466,97.780,95.850,157.630,-347.930
973,49975.322000,228.055,13.526,21.829,452.441,-276.887,98.027,-148.150,166.630,-245.930
974,49975.362000,224.062,7.515,23.814,455.282,-281.600,96.917,-327.150,83.630,-245.930
975,49975.410000,230.051,-3.507,26.791,462.228,-270.340,90.357,-530.150,59.630,-138.930
976,49975.425000,235.041,-3.507,35.721,458.211,-279.038,85.190,-544.150,52.630,-56.930
977,49975.461000,245.021,-19.538,37.705,459.233,-274.533,76.465,-516.150,12.630,-60.930
978,49975.526000,253.006,-23.546,36.713,458.209,-277.541,70.478,-361.150,0.630,-75.930
979,49975.542000,264.982,-24.548,44.651,463.119,-273.664,71.577,-228.150,18.630,-76.930
980,49975.584000,257.996,-22.544,47.628,462.207,-269.081,66.785,-37.150,-7.370,-159.930
981,49975.622000,254.004,0.501,45.643,467.111,-266.044,71.796,87.850,-5.370,-168.930
982,49975.669000,242.027,3.507,40.682,469.990,-267.973,68.796,143.850,-11.370,-112.930
983,49975.704000,251.010,1.503,39.690,469.049,-266.069,69.831,147.850,-18.370,-80.930
984,49975.727000,248.016,1.503,36.713,471.018,-264.150,69.888,119.850,-78.370,-35.930
985,49975.764000,240.031,7.515,37.705,474.016,-258.382,72.021,95.850,-107.370,-12.930
986,49975.805000,239.033,8.517,40.682,476.897,-260.285,70.005,10.850,-83.370,26.070
987,49975.845000,247.018,-0.501,44.651,468.218,-256.600,71.077,-23.150,-78.370,76.070
988,49975.882000,246.020,-3.507,42.667,472.914,-267.012,67.844,23.850,-91.370,109.070
989,49975.941000,247.018,-2.505,41.674,468.096,-264.323,64.960,83.850,-130.370,162.070
990,49975.970000,245.021,-3.507,39.690,466.976,-274.712,65.653,139.850,-164.370,219.070
991,49976.5000,242.027,-3.507,39.690,463.987,-279.587,61.578,128.850,-195.370,246.070
992,49976.25000,245.021,-4.509,35.721,458.129,-281.640,58.560,100.850,-243.370,310.070
993,49976.70000,254.004,-27.554,38.698,454.184,-285.582,54.509,138.850,-259.370,335.070
994,49976.110000,256.000,-33.566,39.690,448.216,-295.200,51.281,190.850,-267.370,317.070
995,49976.145000,256.998,-21.542,29.767,448.120,-301.820,51.097,257.850,-239.370,199.070
996,49976.191000,253.006,-18.536,22.822,446.228,-298.144,48.245,159.850,-189.370,149.070
997,49976.226000,251.010,-18.536,19.845,441.312,-302.862,51.056,10.850,-104.370,169.070
998,49976.284000,250.012,-30.560,15.876,439.305,-306.803,46.025,-92.150,-73.370,145.070
999,49976.312000,256.998,-29.558,5.953,439.301,-306.856,44.057,-172.150,-46.370,102.070
1000,49976.345000,269.973,-25.550,-5.953,438.334,-306.056,39.159,-218.150,-19.370,133.070
1001,49976.367000,263.984,-33.566,-8.930,436.204,-318.508,33.891,-254.150,-21.370,167.070
1002,49976.402000,252.008,-51.601,-13.891,433.380,-312.035,30.132,-290.150,-35.370,109.070
1003,49976.442000,249.014,-54.607,-13.891,430.301,-322.689,21.962,-271.150,-65.370,84.070
1004,49976.482000,250.012,-54.607,-13.891,430.356,-318.906,22.067,-129.150,-122.370,68.070
1005,49976.522000,239.033,-56.611,-12.899,428.359,-321.955,15.094,-25.150,-144.370,29.070
1006,49976.561000,244.023,-45.589,-6.946,432.148,-328.493,15.902,48.850,-82.370,20.070
1007,49976.582000,249.014,-41.581,-6.946,429.249,-327.589,15.922,8.850,-42.370,-6.930
1008,49976.621000,250.012,-41.581,-2.977,430.277,-323.766,17.014,-81.150,-13.370,-34.930
1009,49976.667000,252.008,-42.583,-2.977,430.293,-322.033,11.160,-185.150,-1.370,-40.930
1010,49976.714000,258.994,-47.593,-9.922,427.337,-324.937,10.091,-216.150,45.630,-29.930
1011,49976.747000,256.000,-54.607,-11.907,430.241,-325.001,6.160,-269.150,81.630,3.070
1012,49976.805000,251.010,-56.611,-12.899,435.208,-316.554,1.485,-286.150,57.630,20.070
1013,49976.824000,244.023,-58.614,-10.915,432.151,-326.156,-2.722,-333.150,41.630,-7.930
1014,49976.861000,237.037,-59.616,-16.868,434.221,-316.778,-6.392,-300.150,-10.370,-87.930
1015,49976.881000,237.037,-68.634,-18.853,436.194,-314.045,-11.231,-252.150,-64.370,-127.930
1016,49976.927000,244.023,-53.605,-20.837,437.184,-312.245,-15.113,-135.150,-93.370,-180.930
1017,49976.964000,245.021,-57.613,-23.814,442.100,-307.528,-17.925,-10.150,-131.370,-180.930
1018,49977.5000,263.984,-35.569,-16.868,442.023,-312.361,-21.994,-20.150,-126.370,-115.930
1019,49977.49000,255.002,-52.603,-5.953,445.918,-311.387,-22.944,4.850,-149.370,-9.930
