Sample, Time, ACCX, ACCY, ACCZ, MAGX, MAGY, MAGZ, GYRX, GYRY, GYRZ
0,50404.533000,256.998,-19.538,-33.736,470.860,-269.275,19.581,57.850,-37.370,26.070
1,50404.571000,256.000,-18.536,-27.783,473.668,-276.720,22.330,43.850,-30.370,35.070
2,50404.595000,256.998,-11.523,-26.791,469.730,-280.557,22.216,35.850,-54.370,56.070
3,50404.632000,251.010,-16.532,-26.791,468.868,-273.032,21.441,-5.150,-33.370,61.070
4,50404.673000,251.010,-21.542,-20.837,470.730,-278.626,23.255,-29.150,8.630,36.070
5,50404.709000,253.006,-24.548,-24.806,467.867,-274.964,20.402,-36.150,6.630,46.070
6,50404.753000,252.008,-26.552,-26.791,466.783,-282.595,18.220,-32.150,19.630,47.070
7,50404.792000,253.006,-28.556,-26.791,463.900,-280.719,19.251,-11.150,-1.370,35.070
8,50404.836000,253.006,-30.560,-27.783,468.754,-280.650,19.261,30.850,-10.370,29.070
9,50404.854000,253.006,-28.556,-26.791,466.869,-276.869,20.347,64.850,-8.370,54.070
10,50404.894000,249.014,-25.550,-18.853,466.692,-289.136,20.989,83.850,-0.370,63.070
11,50404.931000,243.025,-26.552,-21.829,467.665,-289.096,21.975,99.850,-26.370,59.070
12,50404.971000,252.008,-26.552,-23.814,463.857,-284.343,25.052,119.850,0.630,60.070
13,50405.21000,254.004,-26.552,-28.775,462.946,-280.522,27.124,96.850,-27.370,53.070
14,50405.52000,256.000,-28.556,-25.798,466.785,-283.330,26.069,52.850,-27.370,26.070
15,50405.92000,252.008,-24.548,-28.775,461.932,-283.399,26.059,30.850,-21.370,28.070
16,50405.133000,249.014,-26.552,-23.814,462.790,-290.977,24.866,16.850,7.630,29.070
17,50405.151000,252.008,-27.554,-24.806,462.686,-298.463,27.608,12.850,-23.370,15.070
18,50405.192000,256.998,-28.556,-23.814,462.859,-286.249,24.997,10.850,-0.370,-4.930
19,50405.232000,257.996,-27.554,-24.806,458.012,-286.238,27.940,25.850,1.630,2.070
20,50405.273000,255.002,-29.558,-20.837,463.844,-285.289,25.026,37.850,24.630,2.070
21,50405.316000,256.998,-24.548,-23.814,462.785,-291.817,28.777,38.850,31.630,4.070
22,50405.351000,256.998,-24.548,-20.837,464.840,-284.172,30.960,44.850,87.630,10.070
23,50405.392000,251.010,-23.546,-21.829,461.820,-291.752,31.728,-1.150,84.630,-1.930
24,50405.433000,256.000,-21.542,-24.806,465.685,-293.456,36.605,-44.150,135.630,-37.930
25,50405.456000,252.008,-27.554,-21.829,461.860,-289.703,37.686,-63.150,127.630,-39.930
26,50405.491000,245.021,-24.548,-20.837,463.905,-282.189,34.948,-56.150,65.630,-72.930
27,50405.531000,256.000,-28.556,-21.829,465.762,-288.623,40.674,-13.150,106.630,-75.930
28,50405.580000,252.008,-23.546,-11.907,467.813,-281.030,40.889,-30.150,109.630,-43.930
29,50405.613000,253.006,-23.546,-17.860,460.903,-289.532,44.575,-23.150,81.630,17.070
30,50405.653000,256.000,-20.540,-18.853,465.896,-279.981,45.833,-79.150,83.630,30.070
31,50405.692000,250.012,-23.546,-11.907,463.884,-284.763,44.713,-111.150,84.630,13.070
32,50405.733000,252.008,-22.544,-7.938,464.806,-288.452,47.562,-99.150,148.630,-33.930
33,50405.752000,256.000,-24.548,-4.961,466.776,-286.507,48.603,-79.150,135.630,-55.930
34,50405.797000,256.998,-21.542,0.992,464.920,-280.835,49.742,-38.150,124.630,-18.930
35,50405.832000,252.008,-23.546,3.969,462.868,-288.427,49.527,17.850,124.630,10.070
36,50405.874000,251.010,-28.556,13.891,464.945,-279.731,55.674,83.850,115.630,9.070
37,50405.914000,245.021,-28.556,18.853,466.787,-287.137,60.389,116.850,102.630,-7.930
38,50405.954000,250.012,-32.564,25.798,462.977,-282.411,62.481,158.850,88.630,-9.930
39,50405.994000,250.012,-25.550,19.845,464.013,-278.483,67.510,180.850,110.630,-20.930
40,50406.13000,252.008,-20.540,16.868,466.007,-275.461,73.499,143.850,66.630,-12.930
41,50406.55000,254.004,-16.532,-7.938,465.899,-283.000,74.273,68.850,10.630,-22.930
42,50406.92000,258.994,-15.530,-4.961,463.988,-281.110,75.306,26.850,81.630,-38.930
43,50406.133000,249.014,-6.513,-6.946,463.119,-274.425,78.441,-72.150,58.630,-31.930
44,50406.173000,253.006,-10.521,-13.891,467.978,-273.516,74.540,-215.150,49.630,-70.930
45,50406.213000,250.012,-16.532,-12.899,466.031,-273.622,71.583,-273.150,19.630,-120.930
46,50406.252000,252.008,-16.532,-6.946,467.025,-271.770,69.669,-277.150,2.630,-104.930
47,50406.296000,254.004,-16.532,-8.930,469.929,-271.834,65.738,-284.150,-18.370,-74.930
48,50406.317000,253.006,-15.530,-8.930,469.901,-272.964,58.821,-294.150,-59.370,-63.930
49,50406.356000,251.010,-19.538,-4.961,471.846,-272.122,53.930,-272.150,-41.370,-50.930
50,50406.396000,249.014,-19.538,-2.977,473.797,-271.202,51.992,-219.150,-57.370,-39.930
51,50406.436000,251.010,-17.534,-8.930,472.844,-269.456,47.121,-142.150,-79.370,-30.930
52,50406.476000,256.998,-16.532,-4.961,467.945,-272.414,45.063,-127.150,-65.370,-14.930
53,50406.517000,253.006,-12.524,-6.946,474.830,-265.778,42.308,-109.150,-75.370,-28.930
54,50406.558000,256.000,-11.523,-5.953,474.698,-274.394,38.134,-94.150,-57.370,-26.930
55,50406.593000,256.000,-14.528,-9.922,471.872,-267.947,33.390,-89.150,-40.370,-26.930
56,50406.613000,258.994,-14.528,-11.907,475.728,-269.783,33.346,-75.150,-2.370,-45.930
57,50406.653000,258.994,-13.526,-5.953,475.798,-265.029,34.462,-56.150,17.630,-43.930
58,50406.693000,257.996,-15.530,-1.984,473.804,-268.813,35.337,2.850,34.630,-28.930
59,50406.738000,254.004,-13.526,1.984,476.787,-264.017,36.459,41.850,33.630,-0.930
60,50406.773000,251.010,-14.528,0.992,472.855,-267.775,39.298,65.850,20.630,22.070
61,50406.812000,254.004,-12.524,0.000,472.898,-264.912,40.362,75.850,13.630,23.070
62,50406.867000,251.010,-12.524,-0.992,473.787,-270.572,40.206,62.850,-10.370,26.070
63,50406.902000,253.006,-15.530,-0.992,471.942,-263.980,40.386,50.850,-13.370,11.070
64,50406.922000,255.002,-14.528,-1.984,470.928,-266.857,39.321,42.850,-13.370,-7.930
65,50406.957000,252.008,-12.524,-1.984,468.920,-271.587,40.169,32.850,-18.370,-12.930
66,50406.997000,252.008,-15.530,-3.969,475.812,-264.845,41.352,24.850,-16.370,-6.930
67,50407.33000,254.004,-12.524,-2.977,478.724,-264.803,41.358,18.850,-28.370,-7.930
68,50407.76000,256.000,-13.526,-2.977,478.661,-268.691,37.316,-10.150,-5.370,-3.930
69,50407.116000,250.012,-10.521,-1.984,474.824,-265.857,39.355,-46.150,-10.370,-12.930
70,50407.156000,256.000,-14.528,-3.969,480.660,-264.855,38.409,-88.150,-7.370,-20.930
71,50407.194000,254.004,-14.528,-0.992,473.895,-263.034,39.432,-96.150,-6.370,-25.930
72,50407.215000,257.996,-10.521,-2.977,475.802,-264.976,36.430,-99.150,4.630,-11.930
73,50407.252000,254.004,-10.521,-4.961,473.816,-267.893,34.379,-94.150,-5.370,-3.930
74,50407.301000,256.000,-13.526,-5.953,478.740,-263.070,35.505,-81.150,3.630,13.070
75,50407.336000,255.002,-9.519,-1.984,479.649,-266.918,32.449,-101.150,16.630,6.070
76,50407.376000,254.004,-10.521,-2.977,472.829,-268.879,33.366,-106.150,21.630,1.070
77,50407.419000,253.006,-12.524,-2.977,476.704,-268.929,29.437,-102.150,19.630,-8.930
78,50407.458000,252.008,-11.523,-0.992,476.755,-265.199,27.573,-75.150,16.630,-4.930
79,50407.473000,252.008,-12.524,-1.984,474.739,-270.795,31.349,-67.150,21.630,2.070
80,50407.513000,251.010,-11.523,-4.961,475.804,-264.189,30.551,-50.150,5.630,-6.930
81,50407.566000,254.004,-13.526,-4.961,477.716,-266.079,29.518,-41.150,-7.370,-10.930
82,50407.595000,255.002,-13.526,-3.969,477.759,-263.215,30.581,-9.150,1.630,-0.930
83,50407.644000,253.006,-12.524,-3.969,474.772,-268.064,27.490,-4.150,1.630,6.070
84,50407.674000,252.008,-11.523,-4.961,478.716,-264.147,30.557,5.850,7.630,-4.930
85,50407.718000,256.000,-11.523,-4.961,471.878,-267.107,29.479,7.850,-7.370,-5.930
86,50407.762000,252.008,-12.524,-1.984,477.620,-272.698,29.333,11.850,0.630,-3.930
87,50407.791000,253.006,-9.519,-3.969,477.657,-269.914,27.444,24.850,-2.370,5.070
88,50407.813000,255.002,-11.523,-4.961,478.716,-264.147,30.557,25.850,-8.370,7.070
89,50407.855000,253.006,-10.521,-1.984,476.663,-271.766,29.358,21.850,-6.370,8.070
90,50407.896000,253.006,-9.519,-1.984,480.663,-264.041,33.514,19.850,-21.370,7.070
91,50407.937000,255.002,-14.528,-3.969,475.792,-265.108,31.509,16.850,-15.370,6.070
92,50407.985000,254.004,-13.526,-4.961,474.833,-264.202,30.549,18.850,-22.370,4.070
93,50408.17000,255.002,-12.524,-1.984,477.720,-266.026,31.486,19.850,-19.370,6.070
94,50408.56000,253.006,-12.524,-1.984,476.706,-268.903,30.421,19.850,-17.370,6.070
95,50408.73000,255.002,-9.519,-5.953,473.817,-267.106,28.499,16.850,-18.370,3.070
96,50408.113000,255.002,-13.526,-3.969,473.788,-269.023,27.462,13.850,-13.370,5.070
97,50408.158000,253.006,-11.523,-4.961,477.771,-262.296,29.623,7.850,-14.370,3.070
98,50408.195000,254.004,-11.523,-4.961,476.743,-266.119,28.531,2.850,-10.370,-0.930
99,50408.236000,253.006,-9.519,-2.977,477.759,-263.215,30.581,1.850,-4.370,-2.930
100,50408.274000,257.996,-11.523,-6.946,473.808,-267.999,30.441,3.850,-2.370,-1.930
101,50408.316000,256.000,-10.521,-3.969,476.780,-263.335,26.642,1.850,14.630,2.070
102,50408.357000,256.000,-11.523,-2.977,473.782,-269.864,31.373,0.850,27.630,5.070
103,50408.375000,255.002,-12.524,-2.977,473.792,-268.971,29.431,16.850,35.630,12.070
104,50408.418000,255.002,-12.524,-4.961,477.681,-268.837,32.392,28.850,71.630,24.070
105,50408.453000,256.998,-11.523,-2.977,477.757,-264.003,36.461,18.850,57.630,18.070
106,50408.499000,255.002,-12.524,-0.992,475.793,-265.869,38.373,8.850,63.630,15.070
107,50408.538000,255.002,-9.519,0.000,473.767,-271.597,37.226,-1.150,63.630,16.070
108,50408.578000,254.004,-12.524,-2.977,477.651,-271.516,38.219,-15.150,72.630,17.070
109,50408.621000,254.004,-13.526,0.000,474.828,-265.804,41.324,-29.150,67.630,22.070
110,50408.636000,254.004,-10.521,0.000,474.748,-271.451,42.150,-38.150,63.630,29.070
111,50408.681000,255.002,-13.526,0.992,472.889,-265.805,42.304,-53.150,53.630,28.070
112,50408.722000,252.008,-13.526,2.977,474.732,-272.423,41.140,-49.150,51.630,29.070
113,50408.757000,252.008,-14.528,0.992,473.838,-267.604,45.207,-40.150,56.630,30.070
114,50408.794000,253.006,-15.530,2.977,472.740,-276.181,42.999,-47.150,55.630,29.070
115,50408.837000,251.010,-14.528,5.953,469.924,-269.603,43.177,-33.150,43.630,23.070
116,50408.877000,250.012,-16.532,6.946,474.704,-274.315,41.087,-25.150,40.630,27.070
117,50408.916000,252.008,-15.530,7.938,469.869,-273.385,43.072,-32.150,29.630,16.070
118,50408.938000,252.008,-14.528,5.953,473.742,-274.223,45.022,-26.150,7.630,14.070
119,50408.991000,251.010,-13.526,5.953,469.751,-281.817,45.788,-27.150,-9.370,13.070
120,50409.14000,254.004,-15.530,2.977,471.836,-271.493,42.144,-16.150,-13.370,5.070
121,50409.58000,254.004,-17.534,3.969,471.773,-276.142,44.966,-12.150,-28.370,15.070
122,50409.96000,254.004,-15.530,3.969,474.653,-278.045,42.950,4.850,-27.370,12.070
123,50409.137000,253.006,-15.530,1.984,469.790,-279.006,44.883,16.850,-32.370,21.070
124,50409.173000,254.004,-16.532,3.969,468.812,-279.125,40.943,16.850,-28.370,17.070
125,50409.218000,254.004,-16.532,2.977,465.894,-280.007,44.848,20.850,-28.370,16.070
126,50409.238000,252.008,-18.536,1.984,469.853,-274.357,42.061,19.850,-18.370,19.070
127,50409.280000,253.006,-17.534,3.969,468.814,-279.099,41.928,29.850,-25.370,14.070
128,50409.316000,254.004,-15.530,1.984,469.800,-278.113,42.940,45.850,-35.370,25.070
129,50409.356000,252.008,-18.536,1.984,468.871,-275.290,43.017,40.850,-31.370,29.070
130,50409.396000,251.010,-14.528,2.977,469.826,-276.248,42.009,43.850,-32.370,24.070
131,50409.437000,254.004,-16.532,0.992,469.747,-281.870,43.819,42.850,-48.370,32.070
132,50409.473000,251.010,-18.536,-1.984,470.773,-278.073,43.927,47.850,-52.370,36.070
133,50409.516000,254.004,-20.540,-2.977,466.800,-283.907,39.823,53.850,-50.370,37.070
134,50409.537000,253.006,-19.538,-2.977,467.870,-277.221,41.978,45.850,-47.370,34.070
135,50409.578000,256.000,-17.534,-2.977,468.737,-283.933,37.859,54.850,-47.370,34.070
136,50409.614000,255.002,-20.540,-1.984,469.762,-280.136,37.966,36.850,-31.370,30.070
137,50409.661000,253.006,-20.540,-3.969,465.866,-281.137,37.931,38.850,-30.370,19.070
138,50409.703000,256.000,-18.536,-1.984,465.870,-281.084,39.900,25.850,-33.370,22.070
139,50409.739000,253.006,-22.544,-0.992,467.729,-286.730,39.746,42.850,-29.370,21.070
140,50409.778000,252.008,-21.542,-0.992,463.821,-288.650,40.670,50.850,-27.370,21.070
141,50409.814000,254.004,-24.548,-1.984,468.715,-285.745,40.759,58.850,-26.370,16.070
142,50409.837000,255.002,-23.546,-2.977,463.901,-283.003,39.843,69.850,-27.370,23.070
143,50409.877000,256.000,-21.542,-3.969,464.878,-282.910,42.799,60.850,-11.370,17.070
144,50409.927000,255.002,-23.546,-3.969,464.778,-289.582,40.646,49.850,-0.370,12.070
145,50409.961000,252.008,-23.546,0.000,463.913,-282.845,45.750,41.850,9.630,6.070
146,50410.3000,251.010,-21.542,-0.992,460.925,-287.720,41.674,45.850,15.630,11.070
147,50410.38000,253.006,-23.546,-0.992,467.771,-284.655,46.689,33.850,16.630,15.070
148,50410.82000,254.004,-25.550,-1.984,463.929,-281.873,46.760,34.850,11.630,0.070
149,50410.109000,252.008,-24.548,-1.984,462.956,-281.913,45.774,18.850,23.630,1.070
150,50410.134000,254.004,-22.544,0.992,460.023,-283.767,48.668,13.850,29.630,5.070
151,50410.179000,250.012,-22.544,1.984,465.845,-283.710,47.696,12.850,24.630,-1.930
152,50410.218000,251.010,-23.546,0.000,459.945,-289.388,50.479,0.850,17.630,-2.930
153,50410.257000,252.008,-23.546,-1.984,463.809,-290.331,48.492,9.850,6.630,-2.930
154,50410.296000,251.010,-25.550,0.000,463.819,-289.438,46.550,7.850,10.630,1.070
155,50410.353000,251.010,-22.544,-2.977,460.974,-285.539,52.555,10.850,-4.370,-4.930
156,50410.377000,253.006,-23.546,-2.977,462.827,-291.264,49.448,19.850,-11.370,-9.930
157,50410.401000,251.010,-25.550,-1.984,461.957,-284.606,51.599,36.850,-7.370,3.070
158,50410.437000,253.006,-23.546,-5.953,462.886,-287.429,51.522,59.850,-0.370,-1.930
159,50410.477000,255.002,-20.540,-2.977,463.959,-280.717,54.661,33.850,69.630,21.070
160,50410.519000,245.021,-19.538,-2.977,464.847,-286.377,54.505,9.850,136.630,-13.930
161,50410.558000,247.018,-23.546,2.977,465.895,-281.530,58.576,4.850,142.630,-69.930
162,50410.601000,258.994,-20.540,-24.806,464.928,-281.491,60.543,64.850,67.630,-110.930
163,50410.641000,263.984,-31.562,-21.829,467.891,-278.481,65.550,107.850,57.630,-65.930
164,50410.703000,259.992,-25.550,-28.775,465.929,-280.321,68.446,182.850,19.630,10.070
165,50410.713000,249.014,-28.556,-24.806,465.044,-274.608,70.571,218.850,38.630,73.070
166,50410.738000,248.016,-19.538,-23.814,465.897,-283.026,73.289,197.850,17.630,55.070
167,50410.782000,234.043,-22.544,-30.760,465.019,-277.234,78.367,187.850,-66.370,49.070
168,50410.817000,235.041,-28.556,-40.682,465.031,-276.315,77.409,211.850,-48.370,-18.930
169,50410.858000,257.996,-23.546,-47.628,463.092,-276.316,78.389,159.850,-36.370,-70.930
170,50410.899000,254.004,-24.548,-44.651,466.043,-273.464,77.490,140.850,-27.370,-62.930
171,50410.941000,247.018,-32.564,-43.659,466.075,-272.282,86.375,247.850,48.630,-51.930
172,50410.979000,250.012,-37.573,-36.713,466.118,-269.419,87.438,356.850,51.630,34.070
173,50411.2000,267.977,-52.603,-29.767,462.157,-275.856,96.105,351.850,98.630,201.070
174,50411.39000,306.901,6.513,45.643,457.224,-282.334,103.785,16.850,357.630,333.070
175,50411.80000,277.957,-22.544,37.705,453.182,-293.657,106.414,-13.150,157.630,206.070
176,50411.119000,280.951,-74.646,46.636,448.351,-293.436,117.232,349.850,278.630,167.070
177,50411.159000,258.994,-11.523,85.333,443.467,-296.972,128.929,595.850,343.630,194.070
178,50411.201000,230.051,-1.503,85.333,436.778,-291.866,146.765,569.850,339.630,194.070
179,50411.241000,233.045,-29.558,69.457,433.857,-294.323,162.429,442.850,293.630,201.070
180,50411.259000,257.996,0.501,70.450,430.082,-287.600,168.511,310.850,152.630,-96.930
181,50411.297000,244.023,21.542,70.450,433.886,-293.167,170.330,183.850,-36.370,-198.930
182,50411.337000,218.074,31.562,73.426,436.969,-281.699,173.605,-14.150,-40.370,-47.930
183,50411.378000,188.133,11.523,80.372,431.967,-291.382,167.426,-192.150,-71.370,-33.930
184,50411.418000,218.074,-37.573,107.163,436.997,-279.046,166.794,-75.150,45.630,-84.930
185,50411.458000,236.039,-12.524,142.884,434.920,-288.504,167.511,28.850,164.630,74.070
186,50411.498000,321.871,55.609,145.860,429.110,-288.402,174.389,-341.150,486.630,238.070
187,50411.537000,310.893,13.526,55.566,424.070,-300.869,170.099,-888.150,258.630,3.070
188,50411.558000,201.107,-39.577,-13.891,427.909,-302.155,155.316,-919.150,-84.370,-73.930
189,50411.599000,177.154,-111.718,6.946,427.739,-312.794,146.167,-709.150,148.630,-70.930
190,50411.639000,244.023,-43.585,26.791,426.867,-306.162,147.334,-509.150,401.630,-170.930
191,50411.681000,273.965,-8.517,25.798,426.817,-309.104,143.318,-610.150,314.630,-209.930
192,50411.722000,258.994,-28.556,29.767,428.760,-308.289,137.442,-893.150,236.630,-140.930
193,50411.762000,257.996,-55.609,61.519,428.626,-316.170,125.419,-917.150,267.630,-138.930
194,50411.807000,265.980,-41.581,70.450,428.699,-310.627,120.655,-941.150,260.630,-174.930
195,50411.843000,237.037,-39.577,58.543,431.410,-323.169,109.491,-967.150,264.630,-62.930
196,50411.857000,218.074,-66.630,71.442,432.445,-317.718,100.792,-1000.150,297.630,-7.930
197,50411.897000,214.082,-56.611,60.527,432.287,-326.677,83.821,-961.150,32.630,-123.930
198,50411.946000,222.066,-65.628,52.589,430.447,-318.483,73.227,-745.150,-71.370,-229.930
199,50411.983000,208.094,-51.601,58.543,439.222,-314.787,65.475,-443.150,-70.370,-235.930
200,50412.21000,236.039,-19.538,43.659,441.210,-310.321,54.783,-358.150,-199.370,-297.930
201,50412.59000,262.986,26.552,44.651,446.037,-311.356,48.861,-282.150,-41.370,-358.930
202,50412.99000,260.990,-39.577,26.791,447.970,-311.434,44.927,-321.150,-87.370,27.070
203,50412.139000,275.961,-61.620,16.868,451.957,-303.132,35.329,-323.150,-160.370,-15.930
204,50412.160000,272.967,-45.589,7.938,454.966,-295.683,29.640,-79.150,-165.370,-300.930
205,50412.207000,258.994,-13.526,43.659,458.880,-292.923,24.805,-12.150,-170.370,-43.930
206,50412.241000,251.010,-10.521,26.791,457.896,-293.882,24.777,-25.150,-82.370,21.070
207,50412.279000,256.998,-14.528,33.736,457.929,-291.912,27.782,30.850,49.630,-37.930
208,50412.324000,239.033,-57.613,7.938,455.935,-295.696,28.657,205.850,-16.370,-24.930
209,50412.359000,250.012,-23.546,-26.791,458.922,-290.847,31.748,300.850,-148.370,6.070
210,50412.402000,265.980,1.503,-47.628,453.990,-295.776,26.685,95.850,-329.370,128.070
211,50412.423000,259.992,-10.521,-43.659,453.813,-307.281,20.463,-150.150,-260.370,192.070
212,50412.458000,280.951,-2.505,-41.674,451.030,-297.210,9.918,-388.150,-127.370,159.070
213,50412.501000,265.980,-16.532,-33.736,448.925,-307.036,-3.145,-474.150,-199.370,114.070
214,50412.538000,255.002,-9.519,-43.659,446.926,-310.111,-11.103,-588.150,70.630,96.070
215,50412.584000,250.012,-32.564,-11.907,445.997,-307.288,-11.026,-501.150,244.630,112.070
216,50412.618000,235.041,-34.568,2.977,448.804,-313.972,-15.142,-416.150,104.630,30.070
217,50412.659000,246.020,-30.560,-12.899,447.942,-306.447,-15.918,-262.150,210.630,-114.930
218,50412.701000,256.000,-46.591,-0.992,448.926,-305.487,-15.889,-3.150,116.630,-190.930
219,50412.719000,293.926,-18.536,-23.814,450.966,-298.814,-14.717,63.850,-182.370,-260.930
220,50412.762000,319.875,1.503,-37.705,454.842,-298.838,-17.662,58.850,-267.370,-403.930
221,50412.804000,292.928,3.507,23.814,457.936,-284.928,-29.073,-497.150,-113.370,-275.930
222,50412.842000,180.148,-91.679,62.512,459.914,-280.594,-44.687,-789.150,-201.370,-227.930
223,50412.886000,233.045,-65.628,52.589,466.738,-277.819,-50.500,-403.150,59.630,-206.930
224,50412.919000,296.920,-44.587,83.349,465.714,-281.589,-49.623,-177.150,75.630,196.070
225,50412.958000,225.060,-29.558,91.287,457.972,-279.860,-51.555,-387.150,-16.370,137.070
226,50413.6000,184.140,-47.593,70.450,463.764,-280.960,-60.428,-539.150,-3.370,-97.930
227,50413.18000,200.109,-57.613,63.504,465.806,-273.499,-65.135,-472.150,119.630,-157.930
228,50413.61000,241.029,-78.654,72.434,466.792,-272.513,-64.122,-79.150,7.630,-319.930
229,50413.102000,245.021,-71.640,69.457,469.787,-266.798,-63.958,403.850,-224.370,-247.930
230,50413.142000,259.992,-60.618,56.558,471.767,-263.960,-64.860,586.850,-170.370,-13.930
231,50413.178000,266.979,-52.603,90.295,470.807,-265.365,-46.212,918.850,226.630,17.070
232,50413.219000,251.010,-64.626,95.256,469.743,-274.256,-24.822,715.850,457.630,291.070
233,50413.278000,257.996,-38.575,59.535,467.640,-287.128,-10.429,539.850,757.630,163.070
234,50413.318000,248.016,-19.538,-8.930,468.771,-278.129,7.528,296.850,469.630,-170.930
235,50413.326000,269.973,2.505,-36.713,470.775,-274.975,18.439,341.850,168.630,-112.930
236,50413.371000,254.004,27.554,-4.961,474.747,-269.929,28.422,445.850,105.630,-54.930
237,50413.398000,263.984,-17.534,10.915,470.843,-272.557,38.178,515.850,279.630,19.070
238,50413.452000,251.010,-8.517,12.899,475.774,-268.417,49.122,467.850,216.630,36.070
239,50413.477000,229.053,-3.507,34.729,468.964,-271.007,61.825,655.850,214.630,92.070
240,50413.522000,200.109,-16.532,37.705,469.020,-268.748,75.658,733.850,96.630,100.070
241,50413.559000,239.033,-30.560,70.450,470.932,-272.160,88.354,1051.850,275.630,195.070
242,50413.603000,243.025,9.519,83.349,463.245,-269.721,112.999,1164.850,287.630,284.070
243,50413.623000,259.992,5.511,81.364,460.265,-276.774,133.453,1043.850,234.630,271.070
244,50413.662000,256.998,6.513,75.411,457.488,-269.696,152.334,886.850,221.630,256.070
245,50413.701000,245.021,2.505,52.589,446.770,-274.207,165.961,750.850,105.630,212.070
246,50413.742000,225.060,5.511,56.558,445.902,-267.522,169.096,560.850,30.630,359.070
247,50413.778000,201.107,-15.530,75.411,437.964,-280.608,178.555,409.850,3.630,543.070
248,50413.821000,186.136,-42.583,96.248,429.175,-284.488,179.416,284.850,-129.370,528.070
249,50413.861000,223.064,-80.658,118.078,417.492,-288.172,189.130,313.850,98.630,487.070
250,50413.888000,255.002,-64.626,123.039,417.449,-291.797,194.931,257.850,318.630,408.070
251,50413.921000,257.996,-40.579,29.767,414.451,-298.326,199.662,232.850,-2.370,-153.930
252,50413.962000,295.922,-42.583,-28.775,422.454,-282.087,202.095,706.850,-452.370,-182.930
253,50414.2000,305.903,-42.583,-28.775,421.511,-280.971,209.009,766.850,-159.370,219.070
254,50414.41000,264.982,-14.528,-9.922,422.604,-272.473,208.264,367.850,-363.370,37.070
255,50414.86000,258.994,-41.581,-28.775,424.480,-276.360,203.241,149.850,-490.370,47.070
256,50414.118000,230.051,-42.583,-17.860,431.323,-271.798,193.543,308.850,-550.370,100.070
257,50414.162000,248.016,-7.515,11.907,433.162,-277.708,183.546,79.850,-576.370,64.070
258,50414.179000,294.924,55.609,50.605,432.081,-283.764,169.605,-671.150,-302.370,294.070
259,50414.221000,231.049,-71.640,55.566,430.001,-292.487,162.474,-471.150,-363.370,285.070
260,50414.261000,172.164,-60.618,50.605,425.863,-308.907,151.190,-240.150,-9.370,584.070
261,50414.299000,235.041,-55.609,66.481,421.947,-311.694,155.041,3.850,1.630,194.070
262,50414.344000,334.846,-36.571,24.806,419.868,-320.416,147.909,-4.150,-208.370,138.070
263,50414.381000,275.961,-75.648,6.946,419.960,-313.849,146.125,79.850,-324.370,-7.930
264,50414.421000,278.955,-24.548,6.946,423.742,-319.705,137.116,-163.150,-279.370,-279.930
265,50414.460000,224.062,10.521,-4.961,432.623,-308.497,127.606,-563.150,-285.370,-344.930
266,50414.479000,207.096,-4.509,-20.837,438.348,-312.776,105.858,-699.150,-362.370,-232.930
267,50414.519000,216.078,-37.573,18.853,436.424,-311.044,100.985,-599.150,-159.370,24.070
268,50414.562000,244.023,-41.581,1.984,431.515,-313.373,87.141,-557.150,-149.370,64.070
269,50414.599000,315.883,-27.554,50.605,427.557,-317.473,77.184,-633.150,101.630,214.070
270,50414.642000,273.965,-37.573,85.333,426.264,-338.554,66.760,-969.150,341.630,97.070
271,50414.681000,199.111,-56.611,103.194,424.381,-333.985,61.965,-1198.150,345.630,55.070
272,50414.719000,193.123,-67.632,130.977,422.445,-333.172,58.050,-816.150,716.630,-374.930
273,50414.766000,260.990,-56.611,123.039,428.438,-321.690,60.347,-614.150,727.630,-378.930
274,50414.782000,267.977,-62.622,58.543,435.152,-326.480,54.324,-712.150,288.630,-389.930
275,50414.822000,227.057,-44.587,50.605,437.305,-311.427,50.811,-532.150,157.630,-330.930
276,50414.864000,214.082,-50.599,32.744,440.119,-317.270,42.785,-455.150,5.630,-132.930
277,50414.904000,218.074,-63.624,31.752,439.269,-308.038,35.171,-305.150,-126.370,-110.930
278,50414.944000,222.066,-70.638,74.419,442.159,-309.048,31.214,-134.150,-112.370,-93.930
279,50414.984000,232.047,-85.667,96.248,445.023,-312.710,34.067,128.850,8.630,-78.930
280,50415.28000,259.992,-9.519,57.550,445.156,-303.307,32.362,370.850,-136.370,-56.930
281,50415.43000,210.090,-27.554,45.643,447.141,-300.416,33.429,362.850,-341.370,33.070
282,50415.83000,245.021,24.548,71.442,451.017,-301.201,37.348,361.850,44.630,-31.930
283,50415.123000,264.982,19.538,73.426,446.147,-303.030,42.207,25.850,129.630,169.070
284,50415.163000,266.979,-6.513,43.659,446.156,-302.137,40.265,-183.150,-44.370,135.070
285,50415.207000,273.965,-35.569,8.930,445.130,-305.172,33.294,-301.150,-127.370,-80.930
286,50415.242000,240.031,-17.534,1.984,447.091,-302.597,22.549,-461.150,-190.370,-4.930
287,50415.296000,227.057,-13.526,26.791,448.955,-306.642,11.620,-518.150,-16.370,-48.930
288,50415.329000,260.990,-45.589,-4.961,446.045,-305.895,5.734,-498.150,-13.370,64.070
289,50415.343000,238.035,-74.646,-8.930,445.083,-304.255,-3.074,-138.150,-203.370,32.070
290,50415.382000,280.951,-29.558,-26.791,446.999,-305.331,-9.003,-85.150,-308.370,189.070
291,50415.421000,287.938,-66.630,-18.853,442.106,-307.449,-14.972,-98.150,-177.370,102.070
292,50415.461000,267.977,-31.562,0.000,447.010,-303.650,-16.825,-69.150,-83.370,-146.930
293,50415.522000,257.996,-38.575,5.953,448.895,-307.431,-17.911,37.850,-131.370,-141.930
294,50415.543000,270.971,-47.593,18.853,449.930,-302.742,-19.746,241.850,-44.370,-173.930
295,50415.597000,250.012,-34.568,4.961,452.944,-296.002,-16.602,287.850,-170.370,-227.930
296,50415.621000,273.965,-26.552,7.938,457.867,-291.967,-9.596,193.850,255.630,-92.930
297,50415.641000,304.904,-37.573,8.930,457.869,-292.702,-1.748,211.850,279.630,-211.930
298,50415.681000,260.990,-54.607,13.891,461.950,-280.090,8.446,326.850,233.630,-311.930
299,50415.726000,227.057,-31.562,26.791,467.795,-279.745,18.301,659.850,273.630,-187.930
300,50415.766000,216.078,-37.573,31.752,467.933,-272.572,39.157,896.850,238.630,-93.930
301,50415.807000,216.078,-8.517,16.868,470.901,-270.271,52.996,965.850,248.630,-24.930
302,50415.843000,222.066,9.519,29.767,467.031,-271.691,72.622,794.850,390.630,161.070
303,50415.883000,251.010,0.501,33.736,468.987,-273.002,93.245,626.850,331.630,131.070
304,50415.924000,267.977,4.509,42.667,459.291,-273.769,105.011,521.850,302.630,126.070
305,50415.943000,257.996,3.507,39.690,460.209,-279.034,119.620,343.850,189.630,207.070
306,50415.981000,256.000,-1.503,25.798,455.470,-271.485,121.789,325.850,57.630,48.070
307,50416.21000,244.023,33.566,41.674,459.396,-269.328,129.725,347.850,114.630,-53.930
308,50416.61000,249.014,4.509,45.643,454.659,-262.514,139.742,410.850,196.630,-3.930
309,50416.99000,226.058,-3.507,63.504,455.623,-264.129,149.535,382.850,176.630,-14.930
310,50416.143000,220.070,0.501,81.364,455.572,-267.859,151.398,307.850,29.630,-6.930
311,50416.186000,201.107,-33.566,86.326,456.635,-262.039,156.480,185.850,-199.370,219.070
312,50416.201000,190.129,-62.622,108.155,455.575,-267.045,146.503,104.850,-294.370,275.070
313,50416.242000,246.020,-78.654,135.938,457.541,-265.940,151.455,335.850,-183.370,131.070
314,50416.289000,240.031,-59.616,94.264,451.630,-272.510,156.180,629.850,-69.370,135.070
315,50416.323000,262.986,73.644,28.775,457.663,-258.217,157.572,584.850,-113.370,62.070
316,50416.362000,291.930,34.568,-26.791,457.651,-259.136,158.530,9.850,-174.370,-380.930
317,50416.403000,322.869,-5.511,-84.341,467.612,-240.349,149.233,3.850,-467.370,-427.930
318,50416.442000,332.850,-26.552,-99.225,468.482,-246.246,140.218,7.850,-242.370,40.070
319,50416.494000,255.002,-22.544,-29.767,467.494,-247.258,138.221,-172.150,-158.370,88.070
320,50416.502000,254.004,-25.550,-46.636,471.307,-251.170,131.233,-146.150,-292.370,16.070
321,50416.542000,240.031,-46.591,-20.837,473.357,-243.604,130.464,150.850,-148.370,-45.930
322,50416.582000,200.109,-12.524,-14.884,475.326,-241.685,130.520,378.850,-280.370,-90.930
323,50416.622000,226.058,-2.505,-19.845,478.236,-241.670,129.542,466.850,-345.370,-24.930
324,50416.662000,333.848,31.562,40.682,475.320,-242.525,134.431,317.850,466.630,73.070
325,50416.701000,231.049,22.544,-12.899,478.257,-239.858,126.642,-150.150,-529.370,251.070
326,50416.742000,256.998,-47.593,-2.977,475.131,-254.189,122.303,-95.150,-110.370,230.070
327,50416.787000,249.014,-29.558,0.000,470.342,-249.582,120.456,-150.150,-35.370,177.070
328,50416.802000,260.990,-31.562,8.930,471.238,-254.376,117.374,111.850,-56.370,52.070
329,50416.842000,255.002,-19.538,25.798,466.367,-256.204,122.233,141.850,80.630,174.070
330,50416.882000,267.977,17.534,20.837,463.381,-261.814,126.006,-161.150,384.630,299.070
331,50416.922000,254.004,25.550,5.953,462.283,-270.391,123.798,-658.150,192.630,115.070
332,50416.961000,255.002,-39.577,-34.729,462.265,-271.389,121.803,-540.150,181.630,-63.930
333,50417.2000,280.951,-81.659,-41.674,453.423,-279.025,123.543,-208.150,229.630,206.070
334,50417.43000,247.018,-33.566,-11.907,450.421,-285.607,126.306,-317.150,179.630,223.070
335,50417.84000,236.039,-17.534,-13.891,447.432,-289.720,115.367,-513.150,-40.370,128.070
336,50417.106000,233.045,-65.628,-39.690,451.310,-288.957,106.542,-319.150,-346.370,77.070
337,50417.146000,230.051,-96.689,45.643,448.317,-293.884,100.498,-5.150,-199.370,30.070
338,50417.193000,244.023,156.806,25.798,447.258,-300.412,104.249,-378.150,99.630,369.070
339,50417.224000,204.101,-56.611,65.488,438.286,-316.638,102.799,-477.150,99.630,283.070
340,50417.276000,302.908,-131.757,-18.853,438.304,-314.878,97.930,-205.150,-229.370,-139.930
341,50417.304000,341.832,-45.589,29.767,440.241,-314.903,95.966,-14.150,-31.370,-68.930
342,50417.345000,291.930,-2.505,36.713,446.153,-308.307,92.225,-100.150,-246.370,-99.930
343,50417.386000,245.021,-61.620,24.806,445.141,-310.396,85.280,-23.150,-146.370,-170.930
344,50417.406000,219.072,-6.513,30.760,447.196,-302.751,87.463,23.850,-33.370,-201.930
345,50417.446000,200.109,-3.507,24.806,450.075,-304.680,84.463,0.850,-176.370,-80.930
346,50417.486000,203.103,-38.575,-2.977,452.053,-301.868,82.578,125.850,-186.370,-25.930
347,50417.526000,243.025,9.519,-1.984,451.965,-307.621,79.467,43.850,-134.370,46.070
348,50417.563000,267.977,-8.517,0.000,444.231,-305.025,74.608,-145.150,-15.370,198.070
349,50417.604000,258.994,-34.568,0.992,445.078,-313.522,74.373,-293.150,-63.370,92.070
350,50417.648000,262.986,-19.538,-20.837,442.183,-311.043,62.634,-624.150,-85.370,118.070
351,50417.691000,262.986,-41.581,-42.667,440.060,-322.628,54.439,-740.150,-57.370,154.070
352,50417.706000,288.936,-55.609,21.829,433.324,-318.128,49.635,-600.150,330.630,-12.930
353,50417.746000,261.988,-86.669,72.434,439.162,-316.339,42.809,-443.150,128.630,-156.930
354,50417.783000,284.943,-46.591,70.450,437.252,-314.422,44.826,-44.150,99.630,-124.930
355,50417.827000,255.002,0.501,67.473,441.142,-313.500,41.908,-345.150,53.630,-44.930
356,50417.862000,244.023,-20.540,52.589,436.232,-317.378,40.808,-486.150,196.630,0.070
357,50417.903000,243.025,-79.656,52.589,439.130,-317.521,33.924,-290.150,143.630,-44.930
358,50417.947000,225.060,-68.634,70.450,436.155,-322.212,36.739,-192.150,139.630,24.070
359,50417.967000,228.055,-59.616,71.442,438.183,-316.458,38.870,-107.150,121.630,47.070
360,50418.3000,209.092,-36.571,85.333,432.326,-318.510,35.852,-102.150,71.630,14.070
361,50418.43000,227.057,-21.542,81.364,436.188,-319.480,32.881,-152.150,96.630,1.070
362,50418.86000,235.041,-42.583,53.581,436.094,-326.073,33.681,-252.150,-0.370,-56.930
363,50418.131000,235.041,-67.632,59.535,440.024,-322.341,29.857,-183.150,-104.370,-133.930
364,50418.169000,244.023,-63.624,58.543,437.090,-323.433,25.887,-31.150,-94.370,-7.930
365,50418.207000,276.959,-22.544,39.690,437.168,-317.812,24.076,-85.150,-85.370,89.070
366,50418.243000,250.012,-35.569,37.705,437.182,-316.105,17.238,-119.150,-153.370,6.070
367,50418.263000,213.084,-41.581,15.876,441.023,-318.887,17.167,-107.150,-100.370,-2.930
368,50418.309000,262.986,-77.652,-5.953,438.097,-319.874,17.135,123.850,42.630,40.070
369,50418.351000,291.930,-26.552,-16.868,442.955,-319.752,19.114,242.850,-32.370,-98.930
370,50418.392000,246.020,-33.566,-10.915,443.043,-313.999,22.225,195.850,-68.370,-73.930
371,50418.423000,251.010,-17.534,-3.969,444.071,-310.177,23.317,221.850,-79.370,-171.930
372,50418.463000,233.045,-21.542,17.860,451.829,-310.934,26.259,209.850,-92.370,-227.930
373,50418.504000,237.037,-5.511,5.953,454.878,-301.436,26.529,210.850,-43.370,-229.930
374,50418.551000,243.025,-13.526,1.984,455.868,-300.398,29.510,251.850,-128.370,-239.930
375,50418.566000,231.049,-4.509,7.938,460.918,-287.037,31.857,214.850,50.630,-187.930
376,50418.621000,259.992,-14.528,23.814,465.795,-285.891,36.815,251.850,132.630,-153.930
377,50418.647000,325.864,-31.562,7.938,464.880,-282.884,43.783,234.850,97.630,-62.930
378,50418.698000,325.864,-12.524,13.891,464.839,-285.721,43.704,198.850,108.630,-15.930
379,50418.724000,278.955,-4.509,14.884,463.866,-286.522,49.582,112.850,182.630,-61.930
380,50418.768000,240.031,-2.505,17.860,467.859,-279.664,56.664,9.850,133.630,-64.930
381,50418.807000,210.090,-2.505,23.814,465.859,-284.288,61.450,19.850,192.630,-44.930
382,50418.847000,211.088,-6.513,40.682,464.970,-279.415,67.486,17.850,257.630,91.070
383,50418.867000,220.070,-11.523,46.636,460.930,-290.712,71.099,40.850,255.630,106.070
384,50418.908000,228.055,-21.542,55.566,461.991,-284.920,75.197,22.850,147.630,159.070
385,50418.944000,227.057,-16.532,61.519,459.962,-291.461,78.946,80.850,58.630,150.070
386,50418.987000,244.023,-22.544,70.450,457.087,-289.480,83.914,110.850,45.630,124.070
387,50419.29000,247.018,-25.550,71.442,455.046,-296.179,81.757,136.850,-69.370,119.070
388,50419.66000,263.984,-26.552,68.465,456.079,-291.516,78.938,122.850,-54.370,56.070
389,50419.106000,278.955,-8.517,59.535,454.146,-291.438,82.871,-15.150,212.630,-40.930
390,50419.149000,276.959,-20.540,21.829,459.066,-287.429,88.893,90.850,204.630,-138.930
391,50419.171000,256.998,-9.519,0.000,454.070,-297.795,92.530,1.850,137.630,183.070
392,50419.206000,238.035,-11.523,-2.977,452.254,-289.285,93.748,-220.150,94.630,115.070
393,50419.246000,257.996,-49.597,-15.876,450.256,-293.121,92.654,-339.150,82.630,-59.930
394,50419.284000,240.031,-66.630,-14.884,451.197,-294.264,84.755,-187.150,-78.370,29.070
395,50419.337000,244.023,-57.613,-0.992,454.061,-297.139,81.729,-63.150,-131.370,103.070
396,50419.366000,243.025,-18.536,2.977,452.193,-292.385,83.825,26.850,-142.370,-44.930
397,50419.408000,257.996,-17.534,18.853,452.163,-293.541,75.924,-74.150,-130.370,-109.930
398,50419.447000,257.996,-24.548,20.837,454.095,-294.407,77.870,-139.150,-82.370,-56.930
399,50419.467000,256.998,-33.566,39.690,453.186,-289.010,68.183,-381.150,-34.370,27.070
400,50419.507000,235.041,-24.548,42.667,456.039,-292.043,59.251,-468.150,-125.370,-74.930
401,50419.546000,237.037,-31.562,61.519,461.892,-289.281,53.436,-381.150,-48.370,-112.930
402,50419.584000,245.021,-8.517,54.574,459.831,-297.005,48.300,-372.150,127.630,47.070
403,50419.627000,203.103,-51.601,21.829,456.993,-291.478,44.514,-237.150,-47.370,-16.930
404,50419.664000,236.039,-28.556,19.845,461.774,-296.190,42.424,-84.150,50.630,24.070
405,50419.704000,260.990,-37.573,12.899,457.901,-295.352,40.473,-18.150,-63.370,204.070
406,50419.724000,270.971,-43.585,9.922,455.965,-294.539,36.558,223.850,-240.370,5.070
407,50419.769000,254.004,-8.517,3.969,457.979,-289.731,38.663,373.850,-219.370,-17.930
408,50419.806000,266.979,-3.507,-2.977,455.008,-293.608,36.583,338.850,-231.370,55.070
409,50419.848000,257.996,-2.505,-19.845,459.895,-291.569,39.598,158.850,-282.370,-50.930
410,50419.884000,262.986,-8.517,-25.798,456.924,-294.684,30.654,45.850,-192.370,-75.930
411,50419.924000,280.951,-16.532,-27.783,461.802,-292.750,29.733,-43.150,-73.370,51.070
412,50419.971000,275.961,-19.538,-19.845,459.770,-298.557,25.633,-131.150,-128.370,-10.930
413,50420.6000,254.004,-15.530,-21.829,460.845,-291.057,22.893,-143.150,-135.370,-54.930
414,50420.26000,251.010,-17.534,-20.837,461.737,-295.903,17.842,-89.150,-59.370,-41.930
415,50420.79000,239.033,-13.526,-23.814,461.853,-287.497,14.141,-92.150,-124.370,-23.930
416,50420.115000,252.008,-11.523,-35.721,464.647,-295.127,9.999,-190.150,-126.370,34.070
417,50420.152000,250.012,-1.503,-36.713,462.738,-292.423,6.137,-211.150,-50.370,83.070
418,50420.188000,267.977,-12.524,-31.752,457.785,-299.925,10.838,-152.150,252.630,188.070
419,50420.227000,253.006,-24.548,-4.961,454.852,-301.778,13.732,-103.150,349.630,180.070
420,50420.266000,250.012,11.523,-18.853,455.801,-303.577,16.635,-319.150,234.630,88.070
421,50420.313000,250.012,10.521,-15.876,452.871,-304.616,14.634,-509.150,388.630,77.070
422,50420.328000,241.029,-16.532,16.868,449.808,-315.059,14.338,-475.150,325.630,71.070
423,50420.366000,253.006,-3.507,-14.884,447.916,-311.383,11.486,-550.150,90.630,-41.930
424,50420.409000,272.967,-35.569,34.729,448.935,-307.666,8.640,-509.150,197.630,-117.930
425,50420.446000,293.926,-61.620,63.504,450.949,-302.096,3.881,-470.150,164.630,-213.930
426,50420.486000,252.008,-57.613,95.256,450.955,-301.256,-0.030,-451.150,215.630,-302.930
427,50420.526000,229.053,-64.626,73.426,457.786,-298.376,-1.906,-441.150,262.630,-311.930
428,50420.566000,256.998,-43.585,63.504,463.766,-287.839,0.364,-221.150,306.630,-219.930
429,50420.612000,246.020,-44.587,57.550,461.817,-288.733,3.287,-173.150,179.630,-15.930
430,50420.627000,210.090,-50.599,57.550,458.885,-289.799,0.302,-247.150,-62.370,-9.930
431,50420.666000,214.082,-57.613,64.496,457.904,-289.944,-4.622,-85.150,-127.370,-76.930
432,50420.709000,206.097,-56.611,53.581,459.865,-288.130,-8.503,118.850,-297.370,-58.930
433,50420.751000,222.066,-58.614,56.558,457.872,-291.126,-13.507,194.850,-382.370,-93.930
434,50420.786000,245.021,-38.575,89.302,466.742,-281.599,-15.195,179.850,-272.370,-72.930
435,50420.826000,255.002,-29.558,79.380,462.747,-288.484,-23.262,164.850,-326.370,12.070
436,50420.867000,241.029,-27.554,77.395,463.798,-282.823,-24.086,131.850,-195.370,-31.930
437,50420.925000,271.969,-45.589,107.163,462.694,-292.240,-22.383,20.850,294.630,30.070
438,50420.950000,291.930,-77.652,118.078,462.848,-283.335,-7.381,171.850,419.630,-16.930
439,50420.972000,259.992,-98.693,46.636,461.825,-288.627,7.224,538.850,427.630,-2.930
440,50421.6000,238.035,-61.620,2.977,461.908,-284.476,21.111,923.850,285.630,82.070
441,50421.56000,210.090,13.526,5.953,462.840,-289.557,42.610,1052.850,210.630,55.070
442,50421.88000,219.072,-7.515,-26.791,462.030,-281.348,67.427,1083.850,214.630,188.070
443,50421.129000,305.903,-2.505,-17.860,460.050,-285.708,82.057,942.850,114.630,106.070
444,50421.174000,275.961,3.507,6.946,461.128,-279.705,94.029,617.850,134.630,47.070
445,50421.209000,249.014,-5.511,17.860,461.091,-283.251,102.783,534.850,54.630,184.070
446,50421.227000,249.014,-7.515,15.876,454.389,-277.541,107.848,400.850,-13.370,158.070
447,50421.289000,255.002,-2.505,38.698,452.304,-287.866,111.492,368.850,8.630,178.070
448,50421.304000,258.994,0.501,47.628,453.386,-281.809,125.433,338.850,139.630,92.070
449,50421.356000,251.010,3.507,67.473,453.415,-279.892,126.470,310.850,123.630,-6.930
450,50421.388000,240.031,-9.519,67.473,449.560,-278.817,133.379,245.850,43.630,24.070
451,50421.428000,247.018,-8.517,60.527,449.551,-279.710,135.321,221.850,-26.370,48.070
452,50421.469000,207.096,-5.511,58.543,450.521,-279.696,135.323,-12.150,-142.370,128.070
453,50421.487000,209.092,-35.569,64.496,450.523,-278.908,129.443,-17.150,-182.370,113.070
454,50421.526000,223.064,-93.683,88.310,446.487,-289.392,128.161,299.850,-130.370,313.070
455,50421.567000,221.068,-87.671,80.372,446.513,-288.288,134.094,536.850,-224.370,298.070
456,50421.609000,245.021,-55.609,57.550,445.533,-289.195,136.034,555.850,-270.370,134.070
457,50421.653000,267.977,8.517,20.837,448.588,-279.618,139.256,450.850,-168.370,-149.930
458,50421.689000,255.002,33.566,-5.953,447.631,-278.686,139.281,172.850,48.630,-110.930
459,50421.729000,289.934,-38.575,-16.868,451.642,-270.068,141.494,108.850,-47.370,-273.930
460,50421.771000,296.920,-23.546,-67.473,456.489,-270.078,138.551,173.850,-313.370,-253.930
461,50421.789000,256.000,-35.569,-57.550,461.460,-261.578,135.845,255.850,-382.370,-63.930
462,50421.832000,280.951,-49.597,-45.643,464.401,-259.619,136.888,518.850,-94.370,-155.930
463,50421.871000,237.037,-19.538,-47.628,468.437,-249.136,138.170,586.850,-313.370,-105.930
464,50421.914000,220.070,16.532,-24.806,472.299,-251.654,147.943,624.850,59.630,-83.930
465,50421.956000,263.984,49.597,25.798,470.574,-237.366,153.255,358.850,77.630,-70.930
466,50421.989000,234.043,-39.577,67.473,474.313,-246.846,150.047,203.850,-277.370,229.070
467,50422.36000,196.117,11.523,51.597,464.616,-246.091,148.085,166.850,-241.370,444.070
468,50422.71000,227.057,-61.620,22.822,460.441,-266.057,145.555,91.850,-170.370,596.070
469,50422.91000,343.828,-63.624,-62.512,457.479,-269.040,141.533,-34.150,-147.370,56.070
470,50422.144000,312.889,32.564,-33.736,459.397,-270.851,143.453,-43.150,2.630,58.070
471,50422.172000,295.922,-44.587,-21.829,459.428,-268.146,138.610,-99.150,-120.370,14.070
472,50422.227000,238.035,-67.632,-22.822,459.456,-266.255,138.663,82.850,29.630,-140.930
473,50422.252000,253.006,-36.571,-30.760,455.620,-263.394,141.687,186.850,25.630,10.070
474,50422.289000,232.047,-41.581,-45.643,462.411,-264.111,146.596,273.850,-88.370,-85.930
475,50422.331000,223.064,-41.581,-28.775,459.604,-257.428,150.712,360.850,11.630,-64.930
476,50422.366000,284.943,29.558,40.682,457.674,-257.297,156.614,206.850,385.630,174.070
477,50422.386000,270.971,27.554,128.992,446.919,-263.831,165.266,-25.150,387.630,136.070
478,50422.428000,237.037,-64.626,95.256,444.882,-271.240,171.942,-2.150,311.630,336.070
479,50422.467000,244.023,-79.656,92.279,439.978,-275.799,180.660,308.850,319.630,89.070
480,50422.507000,271.969,-14.528,101.209,439.165,-266.094,190.764,363.850,283.630,-89.930
481,50422.548000,266.979,5.511,76.403,439.199,-264.885,200.634,445.850,-84.370,-71.930
482,50422.591000,203.103,-1.503,43.659,442.237,-256.306,201.861,463.850,-315.370,-89.930
483,50422.629000,211.088,25.550,58.543,440.246,-259.276,197.841,204.850,-304.370,50.070
484,50422.669000,234.043,51.601,60.527,443.232,-253.666,194.068,-112.150,-305.370,134.070
485,50422.692000,243.025,18.536,61.519,444.969,-266.274,180.933,-416.150,-372.370,164.070
486,50422.732000,233.045,-7.515,86.326,447.786,-271.304,168.011,-455.150,-320.370,78.070
487,50422.773000,247.018,4.509,133.953,443.761,-280.106,158.907,-395.150,-89.370,73.070
488,50422.818000,292.928,54.607,139.907,446.695,-278.253,156.012,-588.150,205.630,33.070
489,50422.853000,293.926,58.614,113.116,444.594,-288.787,151.781,-886.150,524.630,-75.930
490,50422.888000,252.008,48.595,60.527,444.657,-284.138,148.960,-1188.150,530.630,-332.930
491,50422.934000,217.076,-32.564,6.946,447.445,-291.846,141.865,-1043.150,437.630,-316.930
492,50422.969000,212.086,-86.669,-11.907,445.623,-282.654,133.265,-708.150,437.630,-252.930
493,50422.989000,269.973,-27.554,-11.907,448.529,-283.454,137.182,-638.150,401.630,-145.930
494,50423.31000,278.955,32.564,-9.922,445.609,-283.600,133.239,-756.150,312.630,-128.930
495,50423.71000,258.994,-48.595,13.891,443.528,-292.349,125.123,-1035.150,280.630,-92.930
496,50423.113000,269.973,-51.601,30.760,446.459,-289.760,114.380,-986.150,284.630,-144.930
497,50423.148000,253.006,-42.583,40.682,444.494,-290.865,109.428,-876.150,134.630,-124.930
498,50423.188000,264.982,-69.636,57.550,444.340,-299.771,94.426,-891.150,166.630,57.070
499,50423.233000,240.031,-59.616,67.473,446.230,-302.712,89.430,-798.150,206.630,12.070
500,50423.253000,240.031,-49.597,74.419,443.274,-304.855,81.496,-671.150,221.630,-6.930
501,50423.288000,224.062,-42.583,78.388,441.236,-310.740,74.444,-584.150,95.630,-44.930
502,50423.341000,214.082,-36.571,63.504,445.001,-318.356,70.304,-431.150,-28.370,-123.930
503,50423.372000,196.117,-52.603,54.574,451.027,-303.380,61.878,-181.150,-224.370,-88.930
504,50423.409000,204.101,-34.568,78.388,452.024,-300.714,55.069,-146.150,-207.370,-69.930
505,50423.451000,237.037,20.540,52.589,454.958,-298.860,52.174,-194.150,-95.370,-235.930
506,50423.504000,279.953,-10.521,34.729,459.895,-292.330,46.463,-186.150,-242.370,-149.930
507,50423.528000,249.014,-45.589,65.488,456.946,-294.394,41.482,-120.150,-63.370,184.070
508,50423.551000,244.023,-22.544,15.876,454.755,-310.708,33.156,-210.150,-143.370,304.070
509,50423.588000,265.980,-77.652,-10.915,454.908,-300.280,34.430,109.850,-204.370,71.070
510,50423.653000,270.971,-22.544,-17.860,450.908,-308.766,37.138,355.850,-66.370,124.070
511,50423.669000,253.006,-36.571,14.884,451.934,-305.731,44.109,670.850,-8.370,169.070
512,50423.713000,235.041,-25.550,-37.705,450.920,-309.370,49.908,465.850,-416.370,87.070
513,50423.748000,240.031,12.524,-37.705,451.914,-307.517,47.994,271.850,-231.370,18.070
514,50423.789000,280.951,29.558,-31.752,453.747,-314.267,41.908,-143.150,-242.370,55.070
515,50423.828000,265.980,-4.509,-36.713,448.950,-309.005,29.259,-532.150,-273.370,46.070
516,50423.849000,255.002,-12.524,-37.705,447.847,-316.873,18.219,-598.150,13.630,83.070
517,50423.892000,238.035,-49.597,-23.814,446.856,-316.389,1.509,-782.150,-211.370,-15.930
518,50423.929000,258.994,-38.575,-41.674,448.844,-311.923,-9.183,-603.150,-166.370,-23.930
519,50423.971000,257.996,-51.601,-20.837,445.934,-311.176,-15.069,-321.150,84.630,37.070
520,50424.13000,246.020,-26.552,-11.907,444.894,-315.918,-15.203,-166.150,23.630,-29.930
521,50424.54000,256.000,1.503,-46.636,447.910,-308.391,-17.939,-156.150,-4.370,-161.930
522,50424.89000,269.973,-24.548,-18.853,449.758,-315.718,-10.271,191.850,222.630,-96.930
523,50424.131000,282.947,-26.552,14.884,450.846,-308.034,-6.121,234.850,164.630,-90.930
524,50424.151000,272.967,-31.562,69.457,451.920,-302.083,3.883,376.850,305.630,-274.930
525,50424.193000,273.965,-35.569,61.519,453.911,-299.874,14.767,213.850,82.630,-166.930
526,50424.238000,273.965,-12.524,49.612,455.891,-297.036,13.866,81.850,26.630,-119.930
527,50424.279000,242.027,-30.560,68.465,454.863,-300.859,12.774,-254.150,150.630,-186.930
528,50424.312000,213.084,-54.607,83.349,460.837,-290.401,12.091,-286.150,200.630,-175.930
529,50424.352000,227.057,-35.569,71.442,457.860,-295.118,13.923,-239.150,187.630,-128.930
530,50424.392000,260.990,-15.530,77.395,463.703,-293.249,10.050,-303.150,97.630,-74.930
531,50424.433000,251.010,-39.577,55.566,461.815,-289.520,9.167,-435.150,-51.370,-126.930
532,50424.452000,231.049,-53.605,60.527,461.869,-284.215,-4.456,-417.150,-196.370,-189.930
533,50424.499000,215.080,-84.665,69.457,466.702,-284.410,-14.289,-293.150,-302.370,-55.930
534,50424.532000,205.099,-61.620,83.349,462.772,-286.619,-24.194,-70.150,-381.370,-0.930
535,50424.572000,220.070,-52.603,99.225,462.880,-278.319,-31.831,35.850,-349.370,-36.930
536,50424.609000,239.033,-50.599,102.202,463.854,-277.491,-36.725,68.850,-266.370,-58.930
537,50424.652000,262.986,-64.626,115.101,466.658,-284.989,-35.945,308.850,-143.370,-58.930
538,50424.696000,284.943,-71.640,103.194,466.765,-278.999,-23.975,664.850,176.630,-145.930
539,50424.733000,318.877,-107.710,84.341,476.567,-276.075,9.566,1402.850,661.630,-261.930
540,50424.752000,245.021,-75.648,25.798,473.837,-266.081,31.478,1642.850,501.630,47.070
541,50424.789000,177.154,7.515,30.760,474.822,-269.716,71.707,1909.850,628.630,87.070
542,50424.832000,185.138,64.626,19.845,471.971,-269.729,108.095,1490.850,669.630,314.070
543,50424.872000,313.887,5.511,-5.953,463.311,-267.329,131.754,1183.850,238.630,321.070
544,50424.909000,302.908,17.534,-3.969,461.474,-261.394,142.736,486.850,206.630,-79.930
545,50424.952000,234.043,-9.519,26.791,465.426,-257.372,149.739,397.850,91.630,114.070
546,50424.989000,252.008,1.503,16.868,464.400,-261.929,156.496,506.850,-54.370,190.070
547,50425.28000,240.031,20.540,29.767,462.538,-257.097,161.546,367.850,-38.370,125.070
548,50425.52000,234.043,21.542,29.767,456.690,-259.018,163.450,257.850,-21.370,106.070
549,50425.89000,243.025,29.558,42.667,458.638,-258.912,166.407,222.850,114.630,91.070
550,50425.128000,237.037,-2.505,59.535,455.706,-260.739,170.285,183.850,-6.370,16.070
551,50425.169000,245.021,1.503,63.504,456.681,-260.673,172.256,160.850,-41.370,45.070
552,50425.211000,246.020,12.524,70.450,459.572,-262.444,175.162,152.850,-57.370,60.070
553,50425.263000,220.070,-2.505,75.411,457.758,-253.146,170.500,-4.150,-133.370,107.070
554,50425.308000,204.101,-29.558,79.380,453.812,-257.089,166.449,-91.150,-249.370,142.070
555,50425.316000,222.066,-52.603,94.264,454.637,-265.876,155.386,-9.150,-203.370,183.070
556,50425.354000,236.039,-66.630,100.217,454.588,-269.579,158.234,274.850,-151.370,231.070
557,50425.396000,232.047,-43.585,71.442,458.565,-262.931,157.442,332.850,-344.370,197.070
558,50425.433000,235.041,10.521,28.775,461.402,-267.697,154.364,450.850,-420.370,-132.930
559,50425.472000,257.996,41.581,23.814,464.533,-251.764,147.927,328.850,-314.370,-69.930
560,50425.511000,368.780,3.507,18.853,464.443,-257.543,143.831,-171.150,-175.370,99.070
561,50425.554000,279.953,77.652,-33.736,467.358,-255.927,132.078,-650.150,-66.370,-135.930
562,50425.591000,233.045,-37.573,-15.876,469.211,-260.891,122.107,-715.150,-142.370,-24.930
563,50425.611000,303.906,-59.616,-54.574,467.342,-255.376,117.339,-423.150,104.630,-52.930
564,50425.653000,265.980,-49.597,-12.899,468.135,-266.868,111.119,-258.150,-85.370,113.070
565,50425.693000,215.080,-19.538,-6.946,464.268,-265.951,112.122,-38.150,-36.370,172.070
566,50425.732000,226.058,-14.528,-4.961,463.164,-274.607,106.961,-29.150,-63.370,39.070
567,50425.779000,243.025,-20.540,-13.891,464.270,-265.163,106.242,-10.150,-158.370,-6.930
568,50425.809000,244.023,-39.577,0.992,468.092,-268.970,103.192,-10.150,-200.370,-52.930
569,50425.858000,280.951,-7.515,43.659,467.213,-262.417,101.405,-93.150,-34.370,-92.930
570,50425.891000,244.023,8.517,16.868,470.042,-267.288,94.389,-314.150,-201.370,33.070
571,50425.909000,235.041,-9.519,18.853,471.036,-264.674,85.611,-175.150,-122.370,19.070
572,50425.973000,252.008,-39.577,12.899,468.942,-275.130,84.333,-76.150,-104.370,167.070
573,50425.994000,247.018,-40.579,17.860,467.035,-272.400,81.455,117.850,-107.370,8.070
574,50426.46000,248.016,-9.519,-16.868,473.887,-268.495,82.559,132.850,-87.370,-35.930
575,50426.71000,256.000,0.501,0.000,470.967,-269.402,85.480,-83.150,78.630,-43.930
576,50426.113000,261.988,5.511,4.961,472.942,-267.405,88.489,-193.150,129.630,-164.930
577,50426.152000,269.973,-30.560,-7.938,471.906,-271.333,83.460,-42.150,67.630,-67.930
578,50426.189000,247.018,-36.571,-20.837,471.999,-265.527,88.540,111.850,-9.370,116.070
579,50426.213000,248.016,-39.577,-28.775,472.862,-273.052,89.316,239.850,-63.370,65.070
580,50426.249000,233.045,-29.558,-35.721,470.062,-265.502,90.505,466.850,-232.370,17.070
581,50426.295000,209.092,-14.528,-23.814,473.927,-267.207,95.382,627.850,-187.370,-27.930
582,50426.332000,238.035,-10.521,-30.760,474.022,-261.375,101.446,585.850,-82.370,-171.930
583,50426.378000,282.947,16.532,-25.798,478.903,-260.176,108.373,399.850,-30.370,-138.930
584,50426.414000,263.984,-6.513,-33.736,474.216,-248.871,109.663,278.850,11.630,-6.930
585,50426.453000,258.994,-30.560,-27.783,478.001,-256.223,115.366,301.850,-16.370,43.070
586,50426.473000,304.904,-17.534,0.000,473.156,-256.187,119.294,144.850,153.630,306.070
587,50426.511000,268.975,-5.511,24.806,462.300,-269.392,125.793,-3.150,143.630,413.070
588,50426.554000,264.982,-51.601,46.636,461.342,-269.248,131.697,120.850,226.630,274.070
589,50426.594000,247.018,-20.540,60.527,457.395,-274.740,140.390,212.850,226.630,128.070
590,50426.634000,237.037,-3.507,67.473,449.536,-282.205,148.038,199.850,275.630,106.070
591,50426.673000,253.006,-3.507,69.457,449.658,-275.243,161.019,281.850,334.630,131.070
592,50426.716000,257.996,-45.589,65.488,444.754,-279.803,169.737,259.850,306.630,134.070
593,50426.754000,262.986,-48.595,67.473,444.792,-277.780,174.711,333.850,0.630,-15.930
594,50426.772000,241.029,-22.544,74.419,444.868,-272.947,178.780,478.850,-120.370,-106.930
595,50426.811000,210.090,2.505,62.512,451.838,-261.371,184.032,470.850,-252.370,-17.930
596,50426.852000,211.088,-5.511,60.527,449.879,-262.397,182.033,453.850,-235.370,26.070
597,50426.892000,217.076,2.505,70.450,449.883,-262.344,184.001,276.850,-258.370,217.070
598,50426.937000,212.086,7.515,64.496,444.853,-273.918,177.769,8.850,-239.370,280.070
599,50426.978000,252.008,-5.511,72.434,449.688,-274.848,175.784,-103.150,-82.370,193.070
600,50427.18000,297.918,-8.517,79.380,442.732,-285.478,170.559,-325.150,-50.370,140.070
601,50427.58000,291.930,-6.513,106.171,444.646,-286.580,163.646,-454.150,7.630,30.070
602,50427.72000,239.033,-1.503,82.357,442.637,-290.548,157.631,-638.150,86.630,-66.930
603,50427.114000,197.115,11.523,51.597,447.559,-284.990,150.908,-570.150,130.630,-106.930
604,50427.162000,251.010,-9.519,5.953,446.463,-293.541,149.685,-403.150,223.630,-155.930
605,50427.197000,308.897,-41.581,-16.868,447.522,-287.774,152.798,-272.150,400.630,-224.930
606,50427.233000,277.957,-34.568,0.000,447.538,-287.564,160.673,-133.150,558.630,-27.930
607,50427.276000,260.990,-11.523,0.000,445.603,-287.512,163.622,-519.150,394.630,-16.930
608,50427.321000,248.016,-35.569,-11.907,439.676,-294.293,160.473,-644.150,251.630,-57.930
609,50427.357000,220.070,-54.607,15.876,438.694,-295.226,161.429,-457.150,420.630,-91.930
610,50427.371000,252.008,-25.550,21.829,436.716,-298.038,163.314,-536.150,463.630,-72.930
611,50427.416000,259.992,-18.536,61.519,424.999,-302.931,163.158,-763.150,500.630,-15.930
612,50427.456000,246.020,-36.571,45.643,427.728,-314.474,153.989,-1087.150,370.630,65.070
613,50427.497000,250.012,-73.644,52.589,427.686,-315.788,140.182,-1123.150,373.630,13.070
614,50427.532000,256.000,-87.671,59.535,425.644,-321.727,131.161,-1100.150,220.630,-26.930
615,50427.574000,233.045,-82.661,74.419,424.612,-324.841,121.237,-871.150,112.630,-100.930
616,50427.614000,225.060,-74.646,72.434,425.543,-326.115,108.416,-689.150,139.630,-86.930
617,50427.656000,216.078,-60.618,69.457,426.479,-327.310,98.548,-500.150,-57.370,-184.930
618,50427.681000,218.074,-57.613,55.566,435.278,-322.537,95.745,-282.150,-184.370,-313.930
619,50427.714000,194.121,-38.575,72.434,440.095,-323.703,84.901,-114.150,-156.370,-289.930
620,50427.752000,216.078,-6.513,72.434,448.011,-312.430,78.343,-204.150,-255.370,-289.930
621,50427.794000,248.016,13.526,64.496,449.966,-310.696,71.509,-346.150,-165.370,-509.930
622,50427.832000,264.982,-22.544,57.550,461.745,-300.392,61.979,-381.150,-167.370,-370.930
623,50427.879000,281.949,-65.628,29.767,463.743,-295.794,56.209,-251.150,-122.370,-79.930
624,50427.913000,249.014,-41.581,34.729,463.719,-296.872,51.261,-82.150,-165.370,-89.930
625,50427.932000,189.131,-20.540,49.612,467.657,-293.034,51.374,157.850,-47.370,-153.930
626,50427.974000,214.082,-41.581,32.744,466.740,-290.053,57.357,326.850,85.630,65.070
627,50428.16000,278.955,7.515,5.953,464.773,-291.945,58.285,264.850,47.630,161.070
628,50428.57000,311.891,0.501,-18.853,459.910,-292.907,60.217,75.850,-272.370,140.070
629,50428.96000,260.990,-23.546,-26.791,463.745,-295.768,57.193,96.850,-262.370,-153.930
630,50428.141000,273.965,1.503,-22.822,470.685,-284.587,47.680,31.850,-305.370,-121.930
631,50428.177000,260.990,1.503,-21.829,470.741,-280.017,41.905,-108.150,-351.370,-45.930
632,50428.213000,217.076,-7.515,-18.853,469.627,-288.805,31.823,-116.150,-295.370,87.070
633,50428.232000,246.020,-2.505,-20.837,468.616,-290.868,25.862,-215.150,-130.370,125.070
634,50428.276000,250.012,-3.507,-13.891,464.655,-295.783,20.801,-296.150,-92.370,184.070
635,50428.313000,267.977,-17.534,-26.791,462.621,-301.616,15.717,-351.150,-176.370,255.070
636,50428.352000,277.957,-4.509,-5.953,457.775,-300.818,12.780,-234.150,109.630,152.070
637,50428.396000,284.943,-1.503,-35.721,452.739,-312.471,3.595,-371.150,69.630,98.070
638,50428.433000,275.961,21.542,-56.558,456.735,-304.037,-1.082,-545.150,56.630,10.070
639,50428.476000,266.979,21.542,-47.628,458.692,-302.276,-6.931,-733.150,190.630,-121.930
640,50428.513000,292.928,-70.638,19.845,457.672,-305.232,-10.949,-460.150,137.630,-211.930
641,50428.532000,248.016,-87.671,62.512,459.733,-296.746,-12.677,-109.150,155.630,-204.930
642,50428.576000,245.021,-43.585,71.442,461.763,-290.966,-9.562,-71.150,179.630,-291.930
643,50428.628000,234.043,-31.562,79.380,466.563,-294.654,-8.673,-132.150,144.630,-246.930
644,50428.653000,227.057,-37.573,66.481,467.673,-285.157,-7.423,-272.150,188.630,-94.930
645,50428.692000,270.971,-37.573,70.450,468.638,-285.223,-10.374,-447.150,180.630,-93.930
646,50428.733000,245.021,-47.593,73.426,467.671,-284.422,-15.272,-610.150,84.630,-122.930
647,50428.774000,232.047,-65.628,69.457,471.541,-283.764,-28.034,-657.150,-4.370,-19.930
648,50428.814000,206.097,-71.640,72.434,468.598,-285.749,-30.061,-471.150,-129.370,-43.930
649,50428.833000,198.113,-70.638,76.403,466.626,-286.171,-44.830,-228.150,-304.370,-6.930
650,50428.882000,200.109,-76.650,85.333,466.655,-283.492,-50.657,-40.150,-307.370,16.070
651,50428.916000,232.047,-60.618,90.295,466.722,-278.029,-58.374,94.850,-344.370,-118.930
652,50428.953000,218.074,-50.599,117.085,469.610,-279.065,-63.316,206.850,-340.370,-283.930
653,50429.8000,240.031,-98.693,108.155,472.689,-268.411,-55.146,809.850,300.630,-281.930
654,50429.34000,307.899,-106.708,79.380,480.466,-270.454,-29.616,1295.850,234.630,-324.930
655,50429.77000,303.906,-101.699,-9.922,477.677,-265.056,-2.913,1488.850,165.630,165.070
656,50429.96000,217.076,47.593,50.605,476.619,-273.868,21.430,1211.850,464.630,217.070
657,50429.141000,229.053,31.562,0.992,478.569,-275.258,39.100,898.850,364.630,265.070
658,50429.173000,245.021,-2.505,-8.930,477.580,-278.580,56.711,679.850,65.630,71.070
659,50429.217000,267.977,-3.507,-12.899,475.635,-279.422,61.602,571.850,-21.370,-5.930
660,50429.257000,238.035,-5.511,3.969,477.653,-275.322,72.539,632.850,20.630,102.070
661,50429.302000,261.988,24.548,12.899,472.838,-273.368,77.504,637.850,-5.370,207.070
662,50429.348000,262.986,20.540,19.845,467.920,-278.874,86.195,577.850,14.630,146.070
663,50429.376000,259.992,15.530,44.651,471.874,-274.826,94.183,408.850,-9.370,134.070
664,50429.394000,253.006,16.532,45.643,471.794,-281.234,101.873,450.850,25.630,95.070
665,50429.434000,239.033,4.509,57.550,465.066,-277.390,107.871,556.850,116.630,64.070
666,50429.479000,242.027,0.501,52.589,469.985,-274.169,119.772,607.850,78.630,55.070
667,50429.518000,236.039,1.503,57.550,467.144,-270.217,127.746,520.850,15.630,87.070
668,50429.557000,213.084,11.523,58.543,466.199,-268.366,126.812,220.850,-268.370,50.070
669,50429.598000,191.127,-16.532,58.543,463.188,-274.291,118.773,-131.150,-300.370,149.070
670,50429.636000,245.021,-37.573,86.326,464.066,-280.083,113.696,-267.150,-3.370,86.070
671,50429.676000,242.027,-117.730,61.519,463.099,-279.283,108.798,-91.150,-170.370,90.070
672,50429.696000,247.018,-89.675,48.620,465.082,-276.418,108.881,282.850,-168.370,43.070
673,50429.737000,245.021,-31.562,13.891,468.086,-270.572,113.967,621.850,-171.370,-203.930
674,50429.777000,276.959,20.540,-6.946,474.950,-265.747,114.113,443.850,-212.370,-193.930
675,50429.817000,321.871,7.515,-35.721,477.871,-264.813,112.176,314.850,-318.370,-109.930
676,50429.857000,237.037,16.532,-34.729,476.906,-263.986,108.263,184.850,-272.370,147.070
677,50429.903000,297.918,-25.550,-43.659,477.920,-260.348,102.465,66.850,-328.370,90.070
678,50429.944000,260.990,-16.532,-9.922,475.992,-259.430,102.487,63.850,-150.370,100.070
679,50429.976000,238.035,-44.587,-21.829,479.745,-267.965,99.305,249.850,-198.370,141.070
680,50429.996000,228.055,-5.511,-11.907,474.986,-262.202,105.359,350.850,-119.370,132.070
681,50430.36000,240.031,-19.538,-12.899,474.882,-268.926,101.237,370.850,-158.370,153.070
682,50430.76000,258.994,4.509,-27.783,473.057,-261.310,104.397,327.850,-142.370,68.070
683,50430.119000,253.006,-8.517,-25.798,475.916,-265.025,105.282,109.850,-166.370,168.070
684,50430.156000,246.020,-36.571,-31.752,468.999,-272.844,99.151,69.850,-218.370,215.070
685,50430.196000,259.992,-31.562,-50.605,468.885,-280.462,96.972,83.850,-101.370,52.070
686,50430.242000,263.984,-7.515,-20.837,468.015,-273.803,99.123,65.850,-101.370,143.070
687,50430.278000,239.033,-38.575,-27.783,468.928,-277.598,98.035,258.850,-143.370,33.070
688,50430.302000,217.076,-37.573,-29.767,467.032,-274.736,100.079,324.850,-289.370,-140.930
689,50430.336000,263.984,-51.601,-41.674,472.002,-267.024,103.253,442.850,-39.370,-89.930
690,50430.376000,279.953,-17.534,-16.868,471.059,-265.907,110.167,287.850,27.630,136.070
691,50430.418000,306.901,6.513,-1.984,469.914,-278.162,111.792,48.850,134.630,280.070
692,50430.453000,275.961,-72.642,19.845,462.133,-280.005,117.629,-254.150,325.630,111.070
693,50430.508000,270.971,-51.601,15.876,460.198,-279.954,120.578,-141.150,305.630,-4.930
694,50430.536000,257.996,-63.624,-21.829,456.217,-287.416,126.265,139.850,170.630,44.070
695,50430.558000,254.004,-29.558,15.876,452.423,-282.479,136.232,418.850,205.630,29.070
696,50430.596000,240.031,-13.526,51.597,453.442,-280.311,146.130,416.850,276.630,-29.930
697,50430.657000,247.018,18.536,60.527,447.697,-276.295,158.036,316.850,244.630,12.070
698,50430.679000,230.051,0.501,65.488,445.728,-278.975,164.843,216.850,160.630,100.070
699,50430.716000,229.053,-13.526,71.442,447.731,-275.847,174.770,53.850,208.630,42.070
700,50430.756000,279.953,-0.501,88.310,443.764,-281.603,173.619,-61.150,142.630,-27.930
701,50430.797000,246.020,-2.505,83.349,442.772,-283.429,176.518,-95.150,7.630,-84.930
702,50430.837000,208.094,-2.505,101.209,446.703,-279.670,173.678,-107.150,-63.370,-84.930
703,50430.857000,208.094,2.505,95.256,449.688,-274.087,168.920,-121.150,-65.370,-111.930
704,50430.897000,206.097,-21.542,136.930,448.591,-282.637,167.697,-167.150,-203.370,-15.930
705,50430.936000,213.084,-1.503,129.984,447.683,-277.241,158.009,-134.150,-282.370,46.070
706,50430.974000,287.938,41.581,68.465,450.469,-285.736,156.794,-192.150,76.630,145.070
707,50431.18000,319.875,75.648,62.512,445.612,-285.858,154.815,-751.150,405.630,36.070
708,50431.56000,259.992,-14.528,19.845,448.482,-287.892,147.878,-840.150,260.630,-369.930
709,50431.97000,256.000,-64.626,-15.876,446.614,-283.139,149.975,-420.150,311.630,-14.930
710,50431.142000,278.955,-63.624,-12.899,442.546,-295.566,146.671,-492.150,398.630,148.070
711,50431.181000,268.975,-7.515,2.977,443.511,-295.631,143.720,-725.150,264.630,-16.930
712,50431.197000,235.041,-42.583,11.907,441.528,-297.734,136.773,-701.150,190.630,-12.930
713,50431.239000,232.047,-48.595,14.884,439.428,-308.269,132.542,-568.150,137.630,-105.930
714,50431.279000,251.010,-13.526,21.829,446.293,-302.657,126.808,-537.150,166.630,-182.930
715,50431.321000,240.031,-20.540,30.760,442.400,-302.844,121.879,-649.150,137.630,-128.930
716,50431.362000,242.027,-40.579,34.729,446.256,-303.131,109.090,-888.150,94.630,-129.930
717,50431.403000,244.023,-47.593,27.783,448.154,-304.444,94.303,-981.150,-8.370,-152.930
718,50431.438000,236.039,-67.632,39.690,448.141,-303.840,81.533,-896.150,-60.370,-134.930
719,50431.458000,245.021,-62.622,49.612,449.982,-308.962,65.655,-802.150,16.630,-78.930
720,50431.498000,247.018,-60.618,53.581,452.891,-308.186,57.813,-696.150,24.630,-38.930
721,50431.539000,242.027,-40.579,63.504,450.873,-312.286,46.876,-658.150,137.630,-59.930
722,50431.581000,247.018,-34.568,70.450,450.920,-308.608,43.044,-653.150,113.630,-31.930
723,50431.614000,235.041,-30.560,70.450,455.773,-307.778,36.190,-598.150,116.630,-20.930
724,50431.656000,206.097,-25.550,62.512,455.766,-307.096,26.373,-507.150,-65.370,-86.930
725,50431.696000,220.070,-27.554,63.504,452.903,-302.672,16.655,-394.150,-134.370,-134.930
726,50431.736000,233.045,-7.515,45.643,456.850,-297.942,14.826,-300.150,-78.370,-125.930
727,50431.756000,267.977,-26.552,40.682,460.673,-300.961,5.896,-262.150,-104.370,-237.930
728,50431.797000,282.947,-14.528,16.868,459.811,-293.436,5.120,-120.150,-37.370,-175.930
729,50431.836000,267.977,-81.659,-27.783,457.763,-299.453,-6.854,-62.150,-367.370,239.070
730,50431.877000,256.998,-72.642,-28.775,456.815,-297.628,-8.772,77.850,-349.370,66.070
731,50431.918000,245.021,-29.558,0.992,459.772,-293.936,-13.582,209.850,-272.370,-18.930
732,50431.958000,262.986,-22.544,-4.961,458.686,-301.594,-16.748,199.850,-164.370,35.070
733,50432.13000,259.992,-17.534,-3.969,458.652,-303.564,-19.754,-34.150,-197.370,14.070
734,50432.21000,251.010,-25.550,10.915,456.756,-299.941,-24.574,-156.150,-146.370,-120.930
735,50432.61000,279.953,-45.589,7.938,461.713,-292.386,-27.307,-114.150,-96.370,-124.930
736,50432.99000,264.982,-44.587,18.853,466.635,-287.589,-27.165,-17.150,62.630,-184.930
737,50432.153000,256.000,-35.569,-7.938,467.728,-279.852,-21.046,87.850,164.630,-292.930
738,50432.187000,239.033,-22.544,-8.930,469.701,-277.881,-19.021,313.850,139.630,-147.930
739,50432.221000,248.016,-3.507,-11.907,470.776,-271.904,-8.033,344.850,139.630,6.070
740,50432.261000,237.037,-21.542,3.969,468.727,-280.231,-0.399,442.850,129.630,20.070
741,50432.306000,220.070,-21.542,-3.969,472.631,-279.125,3.573,476.850,-129.370,-69.930
742,50432.322000,246.020,2.505,-14.884,472.663,-277.181,5.594,443.850,-97.370,-44.930
743,50432.361000,257.996,6.513,-10.915,474.663,-273.319,7.672,257.850,-64.370,23.070
744,50432.399000,270.971,-11.523,-8.930,474.589,-278.887,11.451,197.850,-35.370,48.070
745,50432.437000,274.963,-27.554,-2.977,473.665,-275.985,14.481,252.850,-39.370,38.070
746,50432.479000,261.988,-12.524,5.953,470.622,-285.404,17.165,209.850,-26.370,35.070
747,50432.519000,230.051,-16.532,-0.992,471.756,-274.068,16.499,117.850,-140.370,9.070
748,50432.559000,243.025,-4.509,-16.868,471.661,-280.662,17.299,125.850,11.630,44.070
749,50432.599000,247.018,-20.540,-22.822,469.722,-280.663,18.279,84.850,-67.370,160.070
750,50432.621000,233.045,-18.536,-15.876,468.614,-290.133,18.014,61.850,-73.370,217.070
751,50432.659000,241.029,-2.505,-44.651,464.649,-295.100,10.984,-199.150,-126.370,234.070
752,50432.698000,248.016,6.513,-20.837,460.736,-297.073,9.939,-329.150,78.630,288.070
753,50432.739000,237.037,-4.509,-18.853,454.833,-301.254,-1.991,-704.150,-134.370,336.070
754,50432.776000,244.023,-29.558,-43.659,448.867,-310.084,-11.099,-639.150,176.630,240.070
755,50432.817000,253.006,-55.609,12.899,445.883,-314.906,-13.205,-407.150,217.630,217.070
756,50432.861000,295.922,5.511,-60.527,444.910,-314.946,-14.192,-587.150,209.630,160.070
757,50432.897000,286.940,0.501,-55.566,441.980,-315.224,-23.057,-828.150,226.630,98.070
758,50432.917000,332.850,-69.636,4.961,442.848,-321.909,-26.192,-319.150,542.630,-95.930
759,50432.974000,279.953,-110.716,51.597,445.865,-315.904,-15.201,15.850,185.630,-288.930
760,50432.996000,247.018,-53.605,47.628,449.810,-311.200,-18.014,26.850,-23.370,-314.930
761,50433.43000,229.053,-15.530,63.504,456.615,-310.972,-13.078,24.850,67.630,-385.930
762,50433.91000,209.092,-44.587,89.302,459.676,-300.555,-13.767,-133.150,258.630,-202.930
763,50433.119000,226.058,-59.616,78.388,460.647,-301.303,-6.901,-164.150,299.630,-184.930
764,50433.161000,242.027,-40.579,72.434,462.742,-290.847,-5.623,-111.150,234.630,-261.930
765,50433.188000,266.979,-17.534,55.566,467.475,-299.236,-3.881,-199.150,65.630,89.070
766,50433.219000,225.060,-45.589,51.597,460.739,-294.736,-8.685,-368.150,29.630,138.070
767,50433.257000,217.076,-48.595,64.496,465.498,-300.499,-14.739,-341.150,12.630,-16.930
768,50433.308000,229.053,-71.640,58.543,462.641,-295.997,-21.504,-231.150,-178.370,19.070
769,50433.338000,233.045,-91.679,73.426,458.750,-296.157,-25.449,20.850,-263.370,-24.930
770,50433.379000,220.070,-66.630,86.326,457.826,-292.493,-29.283,228.850,-373.370,-81.930
771,50433.421000,220.070,-48.595,97.240,459.716,-295.434,-34.280,260.850,-335.370,-26.930
772,50433.461000,220.070,-60.618,104.186,459.661,-299.217,-34.385,290.850,-238.370,-37.930
773,50433.482000,219.072,-78.654,113.116,464.615,-292.476,-32.222,584.850,-143.370,-227.930
774,50433.523000,240.031,-83.663,77.395,466.628,-289.217,-17.374,1126.850,-47.370,-241.930
775,50433.558000,273.965,-95.687,70.450,467.715,-283.843,6.384,1480.850,178.630,48.070
776,50433.598000,315.883,-59.616,40.682,470.666,-284.063,31.956,1460.850,71.630,-37.930
777,50433.638000,258.994,13.526,5.953,470.792,-277.049,46.906,1294.850,173.630,-20.930
778,50433.683000,259.992,-34.568,-10.915,473.704,-279.318,66.520,1095.850,-48.370,-262.930
779,50433.724000,263.984,50.599,-35.721,479.795,-261.951,76.849,904.850,-113.370,-327.930
780,50433.779000,248.016,41.581,-12.899,485.670,-258.900,81.862,590.850,23.630,-250.930
781,50433.796000,260.990,0.501,-3.969,487.665,-256.639,94.715,320.850,210.630,-127.930
782,50433.819000,253.006,24.548,18.853,488.744,-249.847,100.808,59.850,276.630,-79.930
783,50433.857000,254.004,3.507,16.868,488.809,-245.933,105.835,43.850,292.630,-34.930
784,50433.897000,239.033,-11.523,22.822,487.802,-249.493,114.586,119.850,239.630,56.070
785,50433.953000,259.992,-0.501,20.837,482.963,-249.377,121.467,171.850,193.630,65.070
786,50433.977000,248.016,16.532,33.736,482.959,-250.191,126.362,222.850,216.630,71.070
787,50434.18000,227.057,-1.503,39.690,481.089,-246.225,134.338,193.850,157.630,94.070
788,50434.69000,236.039,2.505,32.744,477.150,-250.851,140.105,143.850,154.630,57.070
789,50434.88000,239.033,13.526,32.744,476.216,-248.080,138.213,44.850,41.630,142.070
790,50434.118000,247.018,17.534,38.698,473.216,-254.636,141.960,62.850,48.630,148.070
791,50434.159000,256.998,-3.507,48.620,472.281,-252.653,145.948,171.850,-31.370,90.070
792,50434.199000,258.994,6.513,56.558,473.206,-255.529,143.902,299.850,-54.370,147.070
793,50434.239000,236.039,5.511,73.426,470.283,-257.250,151.718,343.850,-27.370,111.070
794,50434.281000,238.035,7.515,66.481,472.254,-255.305,152.759,359.850,-32.370,42.070
795,50434.324000,249.014,0.501,77.395,473.284,-252.218,161.699,299.850,84.630,41.070
796,50434.341000,225.060,0.501,73.426,466.517,-250.423,161.738,247.850,-9.370,19.070
797,50434.378000,218.074,-3.507,59.535,466.471,-253.312,159.690,123.850,-185.370,127.070
798,50434.421000,211.088,-10.521,77.395,465.440,-257.188,156.630,-31.150,-164.370,283.070
799,50434.461000,208.094,-56.611,99.225,463.398,-263.887,154.473,75.850,-164.370,264.070
800,50434.499000,238.035,-66.630,79.380,462.439,-262.982,153.513,286.850,-154.370,317.070
801,50434.541000,291.930,-71.640,23.814,460.354,-272.544,150.293,219.850,-255.370,337.070
802,50434.581000,309.895,70.638,-27.783,466.214,-269.704,147.431,20.850,-346.370,-237.930
803,50434.618000,261.988,-19.538,-9.922,471.133,-264.172,139.724,-256.150,-257.370,-152.930
804,50434.642000,233.045,-23.546,3.969,467.274,-261.627,130.936,-131.150,-91.370,-147.930
805,50434.683000,223.064,18.536,-2.977,472.060,-265.499,124.934,-315.150,-194.370,-135.930
806,50434.718000,229.053,-31.562,-16.868,477.987,-257.169,115.340,-343.150,-280.370,-103.930
807,50434.761000,266.979,-16.532,-26.791,478.889,-261.122,108.346,-141.150,-292.370,-19.930
808,50434.803000,264.982,-4.509,-27.783,482.852,-254.658,100.664,-95.150,-294.370,107.070
809,50434.838000,241.029,-17.534,-33.736,479.737,-267.309,88.503,71.850,-524.370,122.070
810,50434.882000,246.020,-41.581,-51.597,482.772,-257.234,75.018,359.850,-627.370,-3.930
811,50434.919000,251.010,-61.620,-33.736,485.643,-260.030,74.945,556.850,-603.370,-98.930
812,50434.939000,337.840,59.616,26.791,480.905,-252.454,78.099,132.850,151.630,-12.930
813,50434.983000,284.943,41.581,19.845,481.779,-258.299,71.053,-221.150,-182.370,271.070
814,50435.22000,221.068,-98.693,-10.915,479.767,-263.081,69.933,-55.150,-22.370,140.070
815,50435.69000,239.033,-37.573,12.899,479.681,-268.807,67.806,160.850,52.630,3.070
816,50435.101000,276.959,28.556,26.791,477.773,-267.626,77.672,191.850,170.630,80.070
817,50435.148000,249.014,-9.519,22.822,480.725,-265.535,83.636,22.850,141.630,104.070
818,50435.179000,228.055,-25.550,15.876,472.936,-267.484,85.536,26.850,140.630,-20.930
819,50435.219000,250.012,-27.554,-6.946,477.823,-265.445,88.552,11.850,149.630,-79.930
820,50435.239000,251.010,-23.546,-17.860,476.807,-269.109,93.366,-6.150,170.630,-63.930
821,50435.279000,245.021,-18.536,-6.946,477.874,-262.476,93.553,-92.150,216.630,-67.930
822,50435.323000,243.025,-1.503,-34.729,476.747,-273.732,97.172,-169.150,134.630,-54.930
823,50435.358000,267.977,-29.558,-56.558,475.874,-267.100,98.339,-172.150,-58.370,3.070
824,50435.399000,282.947,-49.597,-57.550,474.943,-263.542,90.567,-8.150,-10.370,131.070
825,50435.441000,249.014,-30.560,-32.744,473.925,-267.233,94.397,137.850,-31.370,127.070
826,50435.478000,221.068,-14.528,-39.690,471.917,-271.962,95.246,274.850,-197.370,79.070
827,50435.499000,243.025,-22.544,-37.705,474.876,-269.005,98.284,241.850,52.630,-35.930
828,50435.541000,227.057,-21.542,-20.837,470.998,-269.008,100.245,275.850,-20.370,-86.930
829,50435.581000,224.062,-48.595,-52.589,475.949,-262.293,101.424,470.850,-373.370,-102.930
830,50435.641000,243.025,-44.587,-24.806,481.797,-261.133,106.384,603.850,-13.370,-136.930
831,50435.667000,256.000,-39.577,-39.690,479.988,-253.306,117.418,674.850,-135.370,106.070
832,50435.703000,258.994,-49.597,-39.690,471.231,-256.004,127.164,769.850,-30.370,146.070
833,50435.746000,333.848,-5.511,13.891,469.325,-254.796,138.014,352.850,207.630,412.070
834,50435.784000,325.864,30.560,40.682,463.276,-270.849,141.492,-190.150,145.630,336.070
835,50435.802000,288.936,-52.603,8.930,459.373,-271.928,138.505,-180.150,45.630,110.070
836,50435.846000,257.996,-42.583,59.535,454.393,-281.322,143.153,197.850,203.630,76.070
837,50435.879000,236.039,8.517,80.372,449.632,-276.346,155.087,181.850,292.630,271.070
838,50435.932000,259.992,4.509,86.326,447.654,-279.920,163.837,210.850,344.630,122.070
839,50435.968000,258.994,-11.523,89.302,439.934,-277.901,172.732,214.850,259.630,14.070
840,50436.2000,227.057,-11.523,74.419,444.847,-274.759,181.680,302.850,177.630,-143.930
841,50436.41000,205.099,-1.503,71.442,447.757,-275.505,187.566,406.850,3.630,-87.930
842,50436.82000,206.097,11.523,67.473,444.062,-263.162,191.838,272.850,-59.370,-40.930
843,50436.101000,210.090,19.538,77.395,445.911,-269.701,193.626,95.850,-79.370,-119.930
844,50436.141000,224.062,0.501,87.318,447.966,-261.294,188.945,39.850,-133.370,-49.930
845,50436.183000,214.082,10.521,92.279,447.922,-264.158,187.882,-21.150,-180.370,19.070
846,50436.226000,233.045,13.526,108.155,451.866,-259.480,184.084,-133.150,-94.370,-12.930
847,50436.272000,279.953,-22.544,118.078,454.656,-267.162,177.974,-236.150,-77.370,-15.930
848,50436.302000,289.934,6.513,47.628,453.779,-259.821,170.308,-502.150,-79.370,-173.930
849,50436.359000,257.996,-2.505,2.977,457.524,-268.461,163.188,-510.150,74.630,-176.930
850,50436.377000,259.992,-41.581,-14.884,455.517,-272.402,158.157,-479.150,113.630,15.070
851,50436.403000,280.951,-52.603,-19.845,458.392,-274.384,153.189,-534.150,111.630,96.070
852,50436.447000,287.938,1.503,-29.767,455.410,-278.392,146.187,-705.150,91.630,106.070
853,50436.484000,275.961,-26.552,23.814,450.347,-291.937,136.949,-812.150,371.630,211.070
854,50436.519000,259.992,-32.564,19.845,444.334,-305.205,138.537,-727.150,359.630,211.070
855,50436.561000,243.025,-31.562,19.845,446.246,-307.096,137.504,-626.150,451.630,50.070
856,50436.603000,210.090,-19.538,18.853,440.487,-302.503,135.655,-564.150,455.630,-173.930
857,50436.641000,227.057,0.501,0.992,442.334,-309.068,136.459,-554.150,355.630,-149.930
858,50436.664000,244.023,-12.524,1.984,439.465,-305.485,130.653,-573.150,215.630,-95.930
859,50436.702000,240.031,-15.530,-2.977,441.335,-309.450,122.677,-675.150,91.630,-113.930
860,50436.763000,243.025,-44.587,-1.984,439.311,-314.390,115.650,-785.150,12.630,-219.930
861,50436.784000,262.986,-56.611,25.798,446.244,-303.289,103.184,-760.150,87.630,-180.930
862,50436.822000,269.973,-68.634,29.767,446.041,-315.898,91.030,-871.150,89.630,-65.930
863,50436.863000,248.016,-79.656,49.612,448.023,-312.272,84.249,-823.150,206.630,51.070
864,50436.901000,238.035,-69.636,55.566,442.909,-329.547,76.874,-728.150,248.630,157.070
865,50436.943000,233.045,-63.624,41.674,438.012,-331.717,68.937,-639.150,144.630,238.070
866,50436.962000,224.062,-54.607,59.535,432.121,-335.740,62.913,-657.150,233.630,88.070
867,50437.2000,226.058,-39.577,59.535,435.083,-331.208,54.192,-668.150,186.630,22.070
868,50437.41000,232.047,-60.618,55.566,436.918,-337.931,49.090,-659.150,9.630,-59.930
869,50437.112000,215.080,-44.587,53.581,436.959,-333.572,35.441,-577.150,-153.370,-157.930
870,50437.134000,208.094,-53.605,75.411,440.794,-335.671,25.553,-390.150,-119.370,-195.930
871,50437.161000,232.047,-11.523,59.535,445.815,-322.680,14.119,-389.150,-162.370,-238.930
872,50437.203000,250.012,-3.507,59.535,449.737,-319.053,6.358,-462.150,-154.370,-372.930
873,50437.242000,251.010,-38.575,54.574,455.643,-312.535,-0.336,-269.150,-125.370,-328.930
874,50437.266000,256.998,-74.646,22.822,458.602,-308.055,-11.026,-85.150,-220.370,-48.930
875,50437.301000,250.012,-67.632,19.845,457.700,-303.341,-10.897,221.850,-244.370,11.070
876,50437.343000,255.002,-33.566,33.736,454.803,-302.410,-9.892,446.850,-161.370,15.070
877,50437.381000,277.957,-16.532,22.822,453.808,-305.050,-2.098,318.850,-129.370,290.070
878,50437.426000,255.002,-70.638,-15.876,451.723,-314.613,-5.319,314.850,-269.370,8.070
879,50437.467000,259.992,-29.558,-2.977,456.709,-305.140,-7.014,373.850,-230.370,-194.930
880,50437.504000,260.990,-32.564,-12.899,456.747,-302.356,-8.904,302.850,-245.370,-26.930
881,50437.541000,282.947,-38.575,-7.938,458.657,-305.034,-4.057,261.850,-18.370,-60.930
882,50437.561000,260.990,-46.591,-20.837,456.814,-298.416,-2.892,218.850,-34.370,-213.930
883,50437.604000,279.953,-19.538,-10.915,462.613,-300.960,4.916,403.850,193.630,-182.930
884,50437.642000,227.057,-19.538,-11.907,466.665,-290.266,14.072,373.850,-92.370,-109.930
885,50437.684000,224.062,-23.546,-24.806,464.657,-294.995,14.921,545.850,-123.370,-60.930
886,50437.723000,252.008,-13.526,-53.581,469.632,-287.203,21.048,406.850,-186.370,30.070
887,50437.766000,281.949,25.550,-37.705,463.664,-296.821,17.819,-61.150,-55.370,128.070
888,50437.804000,251.010,-29.558,-28.775,464.674,-293.235,10.052,-348.150,-153.370,96.070
889,50437.824000,221.068,-40.579,-23.814,459.777,-296.167,8.978,-324.150,-50.370,93.070
890,50437.863000,241.029,-37.573,-23.814,460.740,-296.259,5.043,-187.150,-22.370,62.070
891,50437.906000,233.045,-31.562,-3.969,461.463,-312.505,-2.293,-131.150,38.630,40.070
892,50437.946000,243.025,-25.550,-11.907,459.622,-305.861,-0.144,-72.150,-52.370,72.070
893,50437.983000,251.010,-21.542,-28.775,458.590,-309.736,-3.204,-116.150,-121.370,53.070
894,50438.21000,270.971,-15.530,-23.814,460.701,-298.308,-0.916,-138.150,87.630,28.070
895,50438.62000,261.988,-3.507,-42.667,459.586,-307.096,-10.998,-348.150,-113.370,51.070
896,50438.107000,269.973,-14.528,-48.620,457.725,-301.476,-11.828,-442.150,83.630,60.070
897,50438.128000,240.031,-22.544,-10.915,456.546,-315.700,-13.210,-351.150,277.630,136.070
898,50438.166000,228.055,-21.542,-3.969,453.715,-310.094,-14.042,-360.150,179.630,142.070
899,50438.204000,249.014,-14.528,-1.984,446.796,-318.701,-14.293,-397.150,377.630,214.070
900,50438.244000,267.977,-12.524,-26.791,445.837,-317.796,-15.253,-319.150,179.630,124.070
901,50438.284000,268.975,0.501,-62.512,446.715,-323.587,-20.331,-412.150,79.630,31.070
902,50438.323000,303.906,-57.613,26.791,443.845,-320.792,-20.258,-362.150,215.630,-187.930
903,50438.362000,278.955,-98.693,62.512,448.834,-311.293,-20.969,-190.150,236.630,-283.930
904,50438.409000,257.996,-76.650,75.411,455.721,-305.391,-15.875,58.850,173.630,-435.930
905,50438.423000,222.066,-14.528,76.403,459.643,-303.287,-9.908,-5.150,242.630,-276.930
906,50438.469000,226.058,-60.618,70.450,453.923,-296.645,-5.799,-82.150,299.630,-59.930
907,50438.509000,263.984,-43.585,78.388,459.700,-300.239,-1.955,-127.150,272.630,-12.930
908,50438.543000,272.967,-38.575,77.395,458.726,-300.306,-3.925,-358.150,247.630,9.070
909,50438.583000,238.035,-51.601,69.457,460.710,-296.654,-9.722,-530.150,29.630,-64.930
910,50438.622000,213.084,-90.677,76.403,460.593,-303.536,-19.750,-471.150,-41.370,31.070
911,50438.666000,196.117,-94.685,73.426,456.771,-298.969,-23.564,-151.150,-199.370,68.070
912,50438.717000,199.111,-74.646,75.411,450.831,-305.934,-33.603,28.850,-397.370,46.070
913,50438.724000,198.113,-69.636,85.333,451.813,-304.239,-41.423,84.850,-448.370,27.070
914,50438.773000,203.103,-52.603,86.326,454.743,-302.438,-46.286,198.850,-483.370,-255.930
915,50438.811000,242.027,-26.552,70.450,458.709,-295.922,-52.000,264.850,-295.370,-350.930
916,50438.862000,293.926,-61.620,80.372,464.644,-289.036,-44.913,481.850,78.630,-242.930
917,50438.899000,322.869,-126.748,94.264,464.737,-284.753,-26.106,970.850,272.630,48.070
918,50438.928000,239.033,-70.638,52.589,462.614,-299.410,-7.828,1047.850,190.630,172.070
919,50438.964000,252.008,36.571,2.977,467.645,-288.598,5.268,801.850,80.630,-16.930
920,50439.17000,238.035,5.511,-52.589,468.500,-296.989,8.970,439.850,48.630,70.070
921,50439.24000,319.875,-15.530,-43.659,469.535,-293.061,13.999,-97.150,272.630,-334.930
922,50439.64000,239.033,-0.501,-13.891,475.495,-284.310,20.154,-104.150,111.630,-316.930
923,50439.109000,231.049,-23.546,-6.946,481.419,-277.556,22.320,144.850,-50.370,-100.930
924,50439.144000,228.055,-36.571,28.775,476.623,-274.577,30.263,519.850,117.630,64.070
925,50439.188000,250.012,-31.562,30.760,476.663,-273.289,43.086,849.850,139.630,12.070
926,50439.228000,213.084,-61.620,42.667,481.494,-276.581,58.740,1410.850,47.630,-35.930
927,50439.263000,252.008,20.540,20.837,476.697,-275.913,86.292,1503.850,109.630,155.070
928,50439.283000,261.988,41.581,16.868,476.778,-271.788,99.194,1130.850,-35.370,298.070
929,50439.337000,265.980,5.511,22.822,472.908,-272.447,111.956,805.850,-101.370,155.070
930,50439.366000,254.004,10.521,24.806,471.026,-268.639,114.026,611.850,-110.370,98.070
931,50439.406000,250.012,7.515,25.798,469.101,-268.456,121.896,409.850,-168.370,97.070
932,50439.446000,252.008,18.536,25.798,471.995,-269.413,119.907,277.850,-125.370,82.070
933,50439.486000,252.008,25.550,52.589,470.016,-272.225,121.793,63.850,13.630,53.070
934,50439.527000,252.008,18.536,47.628,472.050,-265.630,120.013,-63.150,-60.370,26.070
935,50439.567000,239.033,8.517,50.605,469.075,-269.560,115.964,-197.150,-59.370,-5.930
936,50439.584000,236.039,-14.528,61.519,474.961,-264.828,113.155,-110.150,-23.370,-85.930
937,50439.623000,225.060,-31.562,64.496,470.024,-270.597,112.002,32.850,-51.370,59.070
938,50439.667000,196.117,-70.638,60.527,466.984,-279.201,109.791,-53.150,-231.370,419.070
939,50439.707000,199.111,-90.677,95.256,467.709,-295.421,103.439,32.850,-193.370,477.070
940,50439.743000,227.057,-99.695,85.333,458.091,-289.806,106.530,344.850,-90.370,283.070
941,50439.788000,329.856,-33.566,17.860,459.016,-293.443,111.348,597.850,-38.370,79.070
942,50439.827000,324.866,21.542,-70.450,466.045,-277.271,111.810,407.850,-458.370,-367.930
943,50439.864000,265.980,4.509,-57.550,472.857,-275.415,106.955,309.850,-346.370,-133.930
944,50439.886000,267.977,-37.573,-44.651,473.945,-266.970,104.241,340.850,-279.370,140.070
945,50439.926000,239.033,-27.554,-26.791,474.841,-271.763,101.158,173.850,-246.370,-64.930
946,50439.967000,239.033,-12.524,-14.884,474.949,-264.224,100.384,189.850,-169.370,-95.930
947,50440.11000,235.041,16.532,-5.953,476.776,-271.815,98.209,116.850,-141.370,44.070
948,50440.49000,262.986,-28.556,-14.884,476.849,-266.272,93.445,8.850,-84.370,-55.930
949,50440.83000,249.014,-20.540,-15.876,477.774,-269.148,91.400,28.850,-58.370,-120.930
950,50440.126000,261.988,-35.569,-39.690,475.945,-261.584,92.591,263.850,15.630,105.070
951,50440.168000,252.008,-19.538,-35.721,479.818,-262.422,94.541,196.850,-9.370,111.070
952,50440.184000,264.982,-23.546,-16.868,476.932,-261.360,100.467,114.850,81.630,93.070
953,50440.229000,245.021,-22.544,-24.806,476.822,-268.925,100.257,-45.150,50.630,121.070
954,50440.274000,254.004,-9.519,-7.938,469.960,-273.723,101.095,-215.150,192.630,197.070
955,50440.303000,246.020,-29.558,-5.953,468.974,-274.709,100.083,-467.150,213.630,109.070
956,50440.348000,242.027,-48.595,-27.783,468.852,-282.432,93.966,-409.150,-24.370,22.070
957,50440.383000,256.000,-37.573,-11.907,465.949,-281.580,92.018,-181.150,92.630,125.070
958,50440.427000,254.004,-48.595,-26.791,465.889,-286.203,95.823,123.850,-49.370,86.070
959,50440.467000,262.986,-41.581,-16.868,468.887,-280.435,97.956,278.850,-65.370,41.070
960,50440.487000,260.990,-11.523,0.992,461.955,-290.749,104.543,293.850,96.630,50.070
961,50440.527000,238.035,-20.540,-13.891,463.046,-282.277,102.813,232.850,-156.370,55.070
962,50440.567000,243.025,-42.583,-19.845,462.001,-287.860,106.591,346.850,-177.370,-49.930
963,50440.608000,251.010,-36.571,-25.798,466.011,-279.241,108.804,332.850,-141.370,-32.930
964,50440.651000,232.047,-31.562,-37.705,468.925,-279.174,109.795,313.850,-264.370,-32.930
965,50440.686000,252.008,-35.569,-38.698,470.935,-274.418,109.930,236.850,-78.370,-79.930
966,50440.728000,246.020,-38.575,-45.643,470.018,-271.437,115.913,291.850,-111.370,-169.930
967,50440.768000,264.982,-38.575,-27.783,474.026,-262.845,117.143,318.850,140.630,-200.930
968,50440.811000,223.064,-21.542,-25.798,477.868,-266.388,123.936,336.850,15.630,-146.930
969,50440.838000,243.025,-40.579,-38.698,475.080,-258.680,131.031,290.850,64.630,-152.930
970,50440.879000,269.973,-51.601,-21.829,475.167,-253.715,140.022,220.850,281.630,-69.930
971,50440.908000,321.871,34.568,29.767,473.165,-258.365,143.823,-310.150,358.630,228.070
972,50440.954000,271.969,-8.517,10.915,468.261,-262.164,145.677,-657.150,318.630,119.070
973,50440.988000,269.973,-47.593,15.876,457.454,-270.905,142.464,-593.150,344.630,106.070
974,50441.26000,266.979,-61.620,35.721,460.232,-280.267,144.176,-409.150,324.630,18.070
975,50441.46000,251.010,-4.509,59.535,456.407,-277.275,152.122,-68.150,304.630,-58.930
976,50441.84000,229.053,2.505,79.380,455.391,-280.940,156.936,-93.150,346.630,43.070
977,50441.126000,232.047,-11.523,86.326,448.599,-281.771,164.770,-64.150,457.630,108.070
978,50441.166000,251.010,-22.544,69.457,442.719,-286.423,170.533,-85.150,372.630,-13.930
979,50441.208000,251.010,-26.552,81.364,443.804,-279.553,179.578,15.850,260.630,-166.930
980,50441.246000,234.043,-14.528,71.442,443.745,-284.150,184.368,106.850,134.630,-205.930
981,50441.286000,224.062,-19.538,70.450,442.871,-277.544,184.550,147.850,22.630,-132.930
982,50441.328000,210.090,-10.521,71.442,446.895,-267.980,186.790,127.850,-44.370,-51.930
983,50441.347000,221.068,-9.519,70.450,444.855,-274.654,185.618,62.850,-93.370,40.070
984,50441.384000,236.039,-9.519,75.411,446.722,-279.433,182.537,-48.150,-109.370,77.070
985,50441.429000,229.053,-18.536,74.419,448.673,-278.513,180.599,-38.150,-174.370,69.070
986,50441.474000,238.035,-0.501,69.457,447.696,-278.605,177.644,-117.150,-180.370,76.070
987,50441.507000,246.020,-8.517,56.558,451.376,-291.160,165.497,-210.150,-257.370,2.070
988,50441.546000,257.996,-22.544,56.558,453.411,-283.778,157.837,-214.150,-305.370,10.070
989,50441.588000,258.994,-25.550,57.550,451.418,-286.774,152.833,-148.150,-293.370,-80.930
990,50441.626000,238.035,-18.536,60.527,458.303,-279.376,143.214,-126.150,-291.370,-113.930
991,50441.648000,234.043,-7.515,52.589,461.161,-282.329,137.235,-75.150,-270.370,-88.930
992,50441.688000,237.037,-6.513,52.589,465.122,-275.892,128.568,-187.150,-222.370,-56.930
993,50441.728000,258.994,-21.542,39.690,465.021,-281.802,119.551,-204.150,-184.370,-9.930
994,50441.774000,260.990,-5.511,33.736,464.015,-283.813,115.559,-322.150,-20.370,83.070
995,50441.809000,284.943,6.513,-10.915,461.958,-291.484,112.391,-386.150,134.630,126.070
996,50441.847000,278.955,-16.532,-7.938,460.004,-291.670,106.481,-571.150,213.630,144.070
997,50441.886000,256.998,-32.564,-17.860,457.081,-292.630,107.433,-539.150,109.630,153.070
998,50441.929000,239.033,-43.585,-8.930,455.029,-299.461,100.354,-516.150,24.630,133.070
999,50441.944000,244.023,-40.579,0.000,456.854,-306.317,90.331,-534.150,39.630,78.070
1000,50441.988000,248.016,-27.554,2.977,451.945,-309.407,83.351,-517.150,39.630,34.070
1001,50442.26000,236.039,-33.566,4.961,452.788,-317.195,74.284,-581.150,71.630,22.070
1002,50442.71000,240.031,-42.583,20.837,453.758,-316.420,67.422,-563.150,139.630,-51.930
1003,50442.109000,240.031,-45.589,20.837,455.782,-309.957,60.719,-426.150,88.630,-125.930
1004,50442.158000,247.018,-46.591,24.806,455.740,-312.794,60.640,-250.150,71.630,-86.930
1005,50442.187000,248.016,-44.587,19.845,456.803,-306.214,58.858,-192.150,-31.370,-32.930
1006,50442.206000,258.994,-27.554,17.860,455.758,-311.034,55.771,-304.150,-33.370,40.070
1007,50442.249000,246.020,-31.562,18.853,456.695,-312.230,45.904,-363.150,-102.370,17.070
1008,50442.287000,246.020,-45.589,20.837,455.661,-316.131,41.859,-382.150,-102.370,25.070
1009,50442.329000,244.023,-38.575,23.814,458.602,-312.650,29.174,-426.150,-98.370,24.070
1010,50442.368000,247.018,-35.569,22.822,458.552,-315.592,25.157,-456.150,-93.370,-7.930
1011,50442.408000,246.020,-39.577,22.822,455.699,-310.275,13.497,-511.150,-137.370,-25.930
1012,50442.446000,238.035,-32.564,20.837,459.500,-314.345,0.604,-462.150,-187.370,-44.930
1013,50442.493000,245.021,-27.554,17.860,461.557,-305.151,-9.957,-387.150,-227.370,-90.930
1014,50442.507000,242.027,-28.556,19.845,460.442,-313.938,-20.039,-356.150,-182.370,-114.930
1015,50442.548000,269.973,-27.554,32.744,458.569,-308.476,-26.776,-349.150,-76.370,-107.930
1016,50442.587000,271.969,-35.569,37.705,467.295,-308.484,-31.679,-184.150,-117.370,35.070
1017,50442.629000,241.029,-49.597,12.899,459.518,-308.752,-37.602,75.850,-308.370,144.070
1018,50442.669000,221.068,-63.624,-13.891,458.594,-305.850,-34.572,632.850,-230.370,63.070
1019,50442.711000,258.994,-49.597,-21.829,458.567,-308.503,-27.760,831.850,99.630,62.070
1020,50442.757000,287.938,-46.591,-47.628,460.511,-309.972,-13.044,814.850,30.630,-17.930
1021,50442.788000,276.959,-21.542,-48.620,459.691,-301.132,-0.012,760.850,-70.370,-253.930
1022,50442.808000,252.008,-14.528,-52.589,466.537,-298.068,5.003,625.850,-169.370,-257.930
1023,50442.849000,248.016,-5.511,-45.643,468.452,-299.905,5.938,445.850,-121.370,-169.930
1024,50442.891000,247.018,0.501,-42.667,469.571,-290.303,11.125,236.850,-126.370,-107.930
1025,50442.932000,245.021,-1.503,-40.682,469.521,-293.246,7.109,48.850,-134.370,-53.930
1026,50442.972000,242.027,-16.532,-36.713,474.441,-288.475,6.266,-9.150,-110.370,-5.930
1027,50443.9000,251.010,-17.534,-39.690,468.596,-289.608,2.291,-7.150,-90.370,36.070
1028,50443.51000,256.000,-16.532,-33.736,471.543,-287.571,6.287,19.850,-42.370,93.070
1029,50443.91000,251.010,-17.534,-38.698,464.581,-299.041,4.972,2.850,0.630,78.070
1030,50443.111000,256.000,-14.528,-32.744,473.425,-291.378,4.217,43.850,-26.370,20.070
1031,50443.151000,244.023,-1.503,-24.806,467.480,-299.945,4.952,120.850,-112.370,-15.930
