Sample, Time, ACCX, ACCY, ACCZ, MAGX, MAGY, MAGZ, GYRX, GYRY, GYRZ
0,49459.4000,216.691,104.408,82.944,451.645,-25.078,314.197,-148.780,-229.600,276.940
1,49459.24000,213.743,97.380,84.992,458.177,-31.462,311.087,-126.780,-227.600,284.940
2,49459.65000,215.708,94.369,80.896,461.028,-30.508,311.111,-100.780,-227.600,286.940
3,49459.105000,214.726,92.361,77.824,461.895,-36.051,308.011,-81.780,-204.600,298.940
4,49459.145000,218.656,90.353,76.800,460.862,-42.457,308.868,-87.780,-183.600,305.940
5,49459.184000,222.587,88.345,83.968,460.790,-47.155,302.800,-104.780,-142.600,291.940
6,49459.225000,224.553,84.329,79.872,460.569,-62.827,297.493,-82.780,-120.600,266.940
7,49459.265000,226.518,80.314,77.824,461.487,-64.685,295.465,-100.780,-113.600,217.940
8,49459.285000,222.587,77.302,78.848,458.527,-73.066,290.309,-131.780,-117.600,172.940
9,49459.335000,227.501,75.294,76.800,459.449,-74.885,290.272,-114.780,-118.600,156.940
10,49459.364000,226.518,72.282,76.800,458.436,-79.518,288.183,-99.780,-111.600,130.940
11,49459.404000,226.518,73.286,66.560,464.079,-81.392,282.183,-95.780,-141.600,135.940
12,49459.444000,232.415,73.286,66.560,460.164,-90.662,278.996,-138.780,-128.600,114.940
13,49459.483000,227.501,71.278,65.536,459.125,-97.146,275.873,-186.780,-97.600,92.940
14,49459.523000,222.587,68.267,57.344,461.906,-100.870,270.824,-257.780,-143.600,76.940
15,49459.550000,232.415,61.239,62.464,462.775,-106.374,269.714,-434.780,-94.600,75.940
16,49459.584000,242.242,54.212,75.776,463.663,-110.124,264.662,-469.780,-53.600,54.940
17,49459.623000,257.965,42.165,84.992,459.702,-123.019,263.387,-323.780,13.400,67.940
18,49459.664000,245.190,42.165,92.160,457.834,-121.212,263.423,-302.780,76.400,86.940
19,49459.704000,234.380,39.153,79.872,457.746,-127.625,263.286,-215.780,42.400,47.940
20,49459.745000,232.415,39.153,78.848,453.963,-127.655,264.275,-95.780,51.400,45.940
21,49459.762000,229.466,38.149,81.920,456.743,-131.380,259.226,-73.780,29.400,19.940
22,49459.802000,236.345,37.145,86.016,453.889,-133.133,265.153,-13.780,24.400,10.940
23,49459.844000,232.415,35.137,79.872,454.736,-140.449,264.998,45.220,17.400,-25.060
24,49459.884000,234.380,39.153,80.896,455.857,-127.611,265.273,112.220,22.400,-41.060
25,49459.944000,233.397,45.176,84.992,457.835,-121.972,271.364,108.220,25.400,-91.060
26,49459.962000,230.449,44.173,83.968,456.818,-126.663,266.289,122.220,-14.600,-84.060
27,49460.3000,230.449,46.180,82.944,457.891,-117.469,267.481,146.220,-4.600,-62.060
28,49460.24000,235.363,48.188,83.968,458.828,-118.334,269.453,204.220,22.400,-57.060
29,49460.62000,243.225,56.220,81.920,457.063,-109.159,271.635,225.220,4.400,-36.060
30,49460.102000,229.466,63.247,84.992,456.112,-109.230,268.649,205.220,20.400,-36.060
31,49460.145000,225.536,66.259,77.824,457.137,-103.681,270.757,130.220,-8.600,-55.060
32,49460.187000,229.466,69.271,77.824,459.040,-102.760,269.785,65.220,-22.600,-70.060
33,49460.227000,226.518,68.267,77.824,465.719,-98.949,272.860,48.220,-41.600,-117.060
34,49460.248000,226.518,68.267,76.800,462.872,-99.084,267.880,6.220,-48.600,-127.060
35,49460.288000,229.466,70.275,73.728,466.762,-91.647,271.028,8.220,-26.600,-154.060
36,49460.324000,232.415,70.275,77.824,464.873,-91.633,273.015,11.220,8.400,-138.060
37,49460.365000,229.466,73.286,75.776,468.721,-87.002,273.119,19.220,17.400,-152.060
38,49460.404000,223.570,73.286,75.776,468.796,-81.505,273.236,72.220,45.400,-152.060
39,49460.448000,227.501,77.302,75.776,469.772,-79.602,276.262,130.220,78.400,-135.060
40,49460.494000,228.484,79.310,75.776,466.133,-69.477,281.445,113.220,89.400,-149.060
41,49460.504000,228.484,78.306,72.704,469.968,-65.762,281.530,129.220,93.400,-140.060
42,49460.548000,221.605,79.310,67.584,469.108,-59.381,280.670,224.220,86.400,-129.060
43,49460.589000,223.570,91.357,71.680,465.318,-60.250,285.619,236.220,80.400,-126.060
44,49460.625000,224.553,90.353,68.608,470.230,-47.303,288.886,256.220,77.400,-114.060
45,49460.665000,224.553,103.404,71.680,468.365,-45.457,290.911,275.220,98.400,-112.060
46,49460.707000,229.466,105.412,75.776,467.618,-31.591,298.168,258.220,113.400,-105.060
47,49460.727000,218.656,110.431,79.872,464.729,-35.293,298.085,206.220,156.400,-107.060
48,49460.767000,214.726,112.439,76.800,461.944,-31.626,300.148,156.220,146.400,-83.060
49,49460.807000,212.760,107.420,81.920,459.197,-25.193,303.265,45.220,147.400,-22.060
50,49460.845000,210.795,110.431,83.968,461.052,-28.695,310.155,29.220,130.400,-6.060
51,49460.889000,211.777,108.424,82.944,455.425,-25.086,311.219,24.220,101.400,19.940
52,49460.933000,212.760,114.447,86.016,453.543,-24.994,317.186,-117.780,90.400,47.940
53,49460.948000,210.795,112.439,88.064,456.303,-30.493,315.083,-236.780,70.400,64.940
54,49460.988000,214.726,107.420,87.040,456.973,-50.655,313.661,-351.780,-6.600,102.940
55,49461.23000,208.829,101.396,87.040,456.114,-44.254,313.796,-398.780,-26.600,158.940
56,49461.68000,218.656,86.337,88.064,456.863,-58.101,307.534,-414.780,-102.600,169.940
57,49461.108000,214.726,80.314,88.064,458.679,-63.592,306.425,-279.780,-125.600,146.940
58,49461.145000,225.536,79.310,90.112,458.649,-65.483,303.401,-184.780,-121.600,127.940
59,49461.183000,221.605,75.294,89.088,459.439,-76.542,299.188,-77.780,-117.600,89.940
60,49461.203000,223.570,79.310,87.040,459.498,-72.000,297.296,43.220,-101.600,46.940
61,49461.247000,224.553,80.314,87.040,463.269,-72.886,296.288,69.220,-97.600,31.940
62,49461.288000,223.570,84.329,81.920,459.505,-71.143,294.330,88.220,-78.600,7.940
63,49461.328000,223.570,83.325,80.896,463.255,-73.822,295.273,102.220,-76.600,11.940
64,49461.368000,226.518,86.337,80.896,468.987,-69.264,290.406,74.220,-92.600,-2.060
65,49461.415000,223.570,84.329,79.872,465.211,-68.436,288.428,43.220,-83.600,-22.060
66,49461.424000,228.484,84.329,76.800,468.026,-70.212,289.389,8.220,-78.600,-24.060
67,49461.474000,223.570,79.310,73.728,466.102,-72.147,285.367,-24.780,-57.600,-29.060
68,49461.512000,232.415,79.310,75.776,468.098,-64.754,287.516,-67.780,-25.600,-34.060
69,49461.547000,227.501,81.318,74.752,469.987,-64.768,285.530,-49.780,6.400,-59.060
70,49461.587000,227.501,78.306,73.728,462.408,-65.745,287.487,-80.780,60.400,-59.060
71,49461.625000,222.587,79.310,80.896,464.314,-64.784,288.505,-55.780,95.400,-64.060
72,49461.668000,224.553,80.314,78.848,464.310,-65.603,293.461,-60.780,97.400,-49.060
73,49461.688000,221.605,81.318,82.944,461.420,-69.325,292.382,-61.780,103.400,-66.060
74,49461.730000,223.570,82.322,82.944,462.369,-69.273,294.374,-84.780,92.400,-58.060
75,49461.764000,221.605,83.325,81.920,462.444,-63.776,294.491,-61.780,120.400,-69.060
76,49461.807000,226.518,83.325,88.064,455.705,-72.908,300.255,-108.780,166.400,-59.060
77,49461.847000,217.674,80.314,89.088,455.865,-61.797,306.459,-110.780,229.400,-75.060
78,49461.895000,223.570,79.310,87.040,451.042,-69.091,311.270,-100.780,299.400,-83.060
79,49461.909000,215.708,80.314,92.160,450.105,-68.987,317.239,-82.780,382.400,-117.060
80,49461.949000,219.639,83.325,101.376,442.663,-60.666,326.357,-88.780,378.400,-103.060
81,49461.990000,211.777,82.322,103.424,437.973,-58.701,336.338,-132.780,439.400,-123.060
82,49462.25000,208.829,82.322,111.616,431.301,-63.193,345.184,-134.780,449.400,-107.060
83,49462.69000,205.881,83.325,118.784,423.803,-58.596,351.239,-165.780,443.400,-126.060
84,49462.105000,203.916,81.318,115.712,414.382,-56.693,361.212,-127.780,439.400,-110.060
85,49462.149000,201.950,82.322,129.024,411.428,-65.775,366.982,-125.780,431.400,-135.060
86,49462.168000,198.019,86.337,131.072,406.811,-58.333,376.085,-72.780,388.400,-131.060
87,49462.208000,195.071,84.329,142.336,396.374,-61.102,381.979,-86.780,383.400,-138.060
88,49462.247000,189.175,88.345,143.360,392.706,-53.627,392.079,-55.780,337.400,-132.060
89,49462.288000,187.209,86.337,146.432,387.981,-53.612,396.050,-37.780,309.400,-125.060
90,49462.330000,182.296,88.345,149.504,386.146,-49.875,401.100,-12.780,262.400,-123.060
91,49462.364000,185.244,90.353,150.528,378.589,-49.819,409.048,6.220,168.400,-115.060
92,49462.389000,178.365,91.357,151.552,377.738,-42.561,406.217,65.220,126.400,-95.060
93,49462.429000,182.296,92.361,151.552,374.874,-44.430,406.173,74.220,85.400,-94.060
94,49462.469000,179.347,97.380,150.528,376.800,-42.476,411.191,134.220,30.400,-78.060
95,49462.510000,182.296,101.396,146.432,377.834,-36.050,411.329,136.220,5.400,-77.060
96,49462.544000,180.330,105.412,147.456,374.982,-37.004,411.304,134.220,20.400,-78.060
97,49462.589000,181.313,106.416,145.408,377.052,-24.133,412.576,140.220,14.400,-79.060
98,49462.624000,176.399,108.424,144.384,380.746,-30.535,410.456,113.220,3.400,-73.060
99,49462.647000,179.347,111.435,147.456,378.073,-18.624,412.695,81.220,-4.600,-68.060
100,49462.688000,176.399,112.439,143.360,372.333,-23.280,412.587,63.220,19.400,-68.060
101,49462.729000,173.451,110.431,142.336,379.964,-18.619,411.703,74.220,11.400,-45.060
102,49462.769000,181.313,115.451,145.408,379.023,-18.573,414.686,60.220,4.400,-30.060
103,49462.805000,181.313,114.447,143.360,378.189,-10.340,414.860,46.220,31.400,-34.060
104,49462.845000,171.486,116.455,143.360,375.350,-10.377,414.855,53.220,17.400,-5.060
105,49462.870000,177.382,115.451,146.432,380.130,-6.670,413.947,43.220,-23.600,1.940
106,49462.919000,171.486,114.447,145.408,379.174,-7.559,415.916,74.220,-44.600,14.940
107,49462.947000,173.451,114.447,143.360,380.091,-9.438,412.893,64.220,-77.600,30.940
108,49462.989000,181.313,117.459,141.312,380.153,-4.857,412.991,88.220,-105.600,36.940
109,49463.32000,179.347,115.451,135.168,383.957,-3.053,409.056,101.220,-94.600,44.940
110,49463.67000,182.296,112.439,139.264,383.916,-5.840,407.008,92.220,-145.600,82.940
111,49463.108000,176.399,112.439,136.192,386.778,-3.990,406.057,165.220,-203.600,112.940
112,49463.127000,181.313,113.443,133.120,390.555,-4.038,401.088,225.220,-287.600,134.940
113,49463.170000,188.192,114.447,130.048,401.882,-4.999,391.138,216.220,-345.600,119.940
114,49463.208000,189.175,114.447,124.928,406.691,1.359,385.312,283.220,-331.600,122.940
115,49463.252000,198.019,117.459,116.736,410.466,1.292,379.349,270.220,-359.600,106.940
116,49463.288000,197.036,116.455,112.640,417.123,4.070,376.434,255.220,-330.600,109.940
117,49463.332000,200.967,112.439,107.520,422.877,11.201,362.669,205.220,-317.600,102.940
118,49463.354000,201.950,114.447,101.376,424.666,3.857,360.526,173.220,-270.600,99.940
119,49463.392000,204.898,115.451,102.400,432.216,2.944,355.545,119.220,-210.600,100.940
120,49463.437000,206.864,116.455,99.328,436.118,12.058,350.771,66.220,-153.600,74.940
121,49463.465000,201.950,114.447,97.280,434.197,10.161,348.739,14.220,-82.600,57.940
122,49463.513000,202.933,110.431,97.280,436.040,6.522,348.664,-26.780,-96.600,58.940
123,49463.550000,202.933,108.424,95.232,436.986,6.534,348.666,-44.780,-86.600,44.940
124,49463.589000,208.829,108.424,95.232,438.761,-1.745,345.508,-67.780,-77.600,40.940
125,49463.608000,206.864,109.427,94.208,443.552,2.860,343.624,-47.780,-94.600,36.940
126,49463.648000,209.812,108.424,95.232,442.505,-4.482,343.466,-78.780,-83.600,35.940
127,49463.689000,207.846,108.424,92.160,439.599,-9.159,340.379,-72.780,-88.600,37.940
128,49463.729000,209.812,106.416,95.232,444.406,-3.599,340.504,-112.780,-77.600,40.940
129,49463.769000,208.829,104.408,92.160,447.136,-10.989,335.378,-107.780,-85.600,42.940
130,49463.809000,210.795,101.396,92.160,444.336,-8.258,336.426,-104.780,-91.600,43.940
131,49463.828000,208.829,100.392,95.232,448.079,-11.015,333.389,-85.780,-88.600,49.940
132,49463.868000,208.829,98.384,92.160,449.923,-14.635,334.309,-47.780,-73.600,52.940
133,49463.910000,212.760,100.392,98.304,447.949,-20.235,330.209,-52.780,-56.600,51.940
134,49463.949000,208.829,99.388,96.256,450.869,-13.863,326.370,-13.780,-46.600,47.940
135,49463.988000,210.795,98.384,94.208,451.734,-20.185,330.215,-5.780,-38.600,42.940
136,49464.25000,208.829,101.396,98.304,453.570,-23.903,326.161,-9.780,-42.600,30.940
137,49464.69000,211.777,103.404,95.232,452.701,-18.399,327.271,-1.780,-29.600,27.940
138,49464.92000,212.760,102.400,94.208,451.649,-25.799,324.128,12.220,-38.600,30.940
139,49464.129000,210.795,104.408,93.184,451.742,-19.327,327.250,0.220,-30.600,27.940
140,49464.168000,207.846,101.396,94.208,451.687,-23.050,324.187,8.220,-22.600,24.940
141,49464.210000,209.812,101.396,91.136,452.671,-20.290,324.247,-4.780,-24.600,20.940
142,49464.249000,207.846,102.400,93.184,454.534,-22.915,329.167,-6.780,-17.600,11.940
143,49464.288000,211.777,105.412,92.160,452.672,-20.270,325.242,-2.780,-15.600,8.940
144,49464.328000,209.812,103.404,92.160,449.748,-26.701,326.095,-21.780,-10.600,5.940
145,49464.348000,208.829,103.404,93.184,455.461,-23.897,325.169,-16.780,-10.600,11.940
146,49464.388000,212.760,104.408,94.208,455.358,-31.265,323.023,-33.780,-11.600,17.940
147,49464.430000,215.708,101.396,93.184,453.579,-23.025,324.190,-30.780,5.400,27.940
148,49464.469000,214.726,102.400,95.232,451.574,-31.296,324.011,-27.780,9.400,18.940
149,49464.508000,213.743,100.392,93.184,452.535,-30.347,325.027,-25.780,28.400,26.940
150,49464.550000,212.760,98.384,93.184,449.788,-23.913,328.144,-36.780,39.400,26.940
151,49464.568000,209.812,95.373,95.232,449.728,-28.475,329.041,-42.780,76.400,23.940
152,49464.612000,211.777,99.388,95.232,452.543,-30.250,330.002,-43.780,112.400,5.940
153,49464.652000,214.726,96.376,97.280,446.824,-33.892,334.890,-53.780,137.400,10.940
154,49464.688000,208.829,95.373,98.304,444.958,-32.065,335.920,-47.780,148.400,-7.060
155,49464.728000,212.760,95.373,102.400,440.147,-38.443,340.751,-29.780,169.400,-4.060
156,49464.793000,206.864,95.373,103.424,438.347,-31.996,343.869,-6.780,181.400,-12.060
157,49464.799000,209.812,95.373,105.472,434.552,-32.924,345.833,-16.780,173.400,-22.060
158,49464.829000,203.916,91.357,106.496,431.654,-37.503,347.721,8.220,175.400,-19.060
159,49464.869000,208.829,95.373,111.616,429.881,-29.204,351.873,8.220,140.400,-19.060
160,49464.909000,203.916,98.384,111.616,429.886,-29.146,354.858,15.220,131.400,-37.060
161,49464.952000,209.812,97.380,112.640,427.064,-28.209,357.858,13.220,134.400,-30.060
162,49464.992000,201.950,96.376,113.664,424.232,-28.168,361.833,15.220,106.400,-44.060
163,49465.32000,201.950,98.384,112.640,421.359,-30.915,363.760,22.220,96.400,-42.060
164,49465.47000,202.933,100.392,116.736,421.389,-29.024,366.784,0.220,83.400,-45.060
165,49465.92000,200.967,100.392,114.688,421.473,-22.650,364.931,-2.780,69.400,-48.060
166,49465.132000,200.967,100.392,113.664,418.516,-31.771,368.711,1.220,42.400,-48.060
167,49465.169000,199.985,100.392,115.712,419.609,-20.804,366.956,-15.780,41.400,-47.060
168,49465.207000,203.916,105.412,117.760,418.609,-24.520,364.887,-29.780,51.400,-56.060
169,49465.247000,203.916,99.388,117.760,416.702,-26.260,370.815,-43.780,61.400,-43.060
170,49465.270000,199.002,98.384,113.664,416.763,-21.699,369.917,-3.780,64.400,-36.060
171,49465.309000,207.846,97.380,109.568,417.714,-21.628,372.904,40.220,47.400,-17.060
172,49465.352000,202.933,100.392,98.304,414.941,-17.046,374.987,66.220,39.400,-38.060
173,49465.389000,198.019,102.400,105.472,415.978,-10.581,377.115,163.220,34.400,-62.060
174,49465.429000,200.967,112.439,112.640,415.041,-9.717,375.143,169.220,117.400,-55.060
175,49465.472000,194.088,115.451,112.640,410.294,-11.494,381.066,94.220,164.400,-73.060
176,49465.517000,199.985,116.455,120.832,405.591,-9.686,383.086,46.220,205.400,-68.060
177,49465.547000,195.071,118.463,123.904,402.814,-5.922,390.125,-20.780,226.400,-76.060
178,49465.573000,185.244,112.439,118.784,398.089,-5.906,394.097,-121.780,160.400,-72.060
179,49465.612000,195.071,109.427,121.856,396.137,-10.473,395.986,-133.780,103.400,-69.060
180,49465.650000,198.019,110.431,121.856,394.218,-12.350,394.949,-101.780,123.400,-58.060
181,49465.693000,207.846,111.435,118.784,389.607,-4.070,400.091,36.220,138.400,-41.060
182,49465.730000,190.157,113.443,113.664,385.834,-3.203,400.104,88.220,178.400,-76.060
183,49465.749000,179.347,122.478,140.288,382.142,2.458,411.160,228.220,235.400,-38.060
184,49465.792000,155.762,132.518,145.408,377.439,4.267,413.181,95.220,280.400,-42.060
185,49465.829000,131.194,122.478,147.456,372.636,-1.254,415.046,-5.780,288.400,-71.060
186,49465.872000,163.624,128.502,143.360,370.739,-2.097,419.998,-105.780,64.400,-23.060
187,49465.911000,195.071,118.463,143.360,370.784,1.509,417.091,-107.780,-81.600,55.940
188,49465.948000,185.244,102.400,128.000,369.745,-5.755,420.913,-25.780,-8.600,62.940
189,49465.992000,192.123,113.443,137.216,368.832,-3.058,418.980,358.220,9.400,122.940
190,49466.10000,198.019,140.549,129.024,367.101,8.807,418.235,348.220,121.400,139.940
191,49466.67000,152.814,117.459,129.024,362.392,9.778,424.217,136.220,162.400,116.940
192,49466.90000,167.555,128.502,137.216,359.542,8.844,425.188,57.220,70.400,125.940
193,49466.130000,161.658,117.459,131.072,361.350,2.495,427.044,-158.780,77.400,136.940
194,49466.173000,168.537,123.482,143.360,355.533,-7.677,425.825,-78.780,-12.600,116.940
195,49466.210000,165.589,134.525,139.264,358.317,-11.362,422.766,-184.780,-64.600,80.940
196,49466.228000,169.520,138.541,124.928,360.183,-13.189,421.736,-252.780,-168.600,28.940
197,49466.272000,169.520,129.506,124.928,363.878,-18.812,412.670,-317.780,-313.600,10.940
198,49466.308000,179.347,121.475,112.640,370.318,-31.667,406.438,-383.780,-416.600,10.940
199,49466.348000,163.624,119.467,113.664,377.770,-39.111,395.349,-383.780,-491.600,-100.060
200,49466.398000,188.192,116.455,96.256,387.129,-45.594,385.279,-451.780,-570.600,-203.060
201,49466.430000,232.415,88.345,106.496,394.731,-42.044,374.425,-576.780,-620.600,-253.060
202,49466.473000,249.121,69.271,128.000,406.975,-44.864,362.447,-434.780,-534.600,-335.060
203,49466.492000,237.328,48.188,136.192,408.912,-40.473,351.602,-235.780,-282.600,-385.060
204,49466.528000,214.726,33.129,135.168,413.637,-40.489,347.631,-198.780,-175.600,-340.060
205,49466.568000,220.622,32.125,141.312,413.607,-42.379,344.606,-225.780,-153.600,-265.060
206,49466.615000,226.518,31.122,157.696,414.614,-37.806,343.711,-231.780,23.400,-153.060
207,49466.659000,226.518,17.067,164.864,408.863,-43.358,344.578,-206.780,264.400,88.940
208,49466.697000,215.708,15.059,153.600,407.832,-50.524,353.376,61.220,401.400,170.940
209,49466.710000,204.898,43.169,144.384,398.439,-46.750,365.378,198.220,405.400,236.940
210,49466.759000,210.795,77.302,138.240,394.613,-50.348,371.264,357.220,306.400,285.940
211,49466.792000,205.881,114.447,117.760,388.983,-47.557,377.283,367.220,303.400,260.940
212,49466.834000,187.209,113.443,114.688,385.270,-42.909,383.344,181.220,244.400,264.940
213,49466.872000,188.192,126.494,146.432,377.735,-41.060,389.340,405.220,254.400,186.940
214,49466.915000,206.864,159.624,130.048,374.009,-37.328,395.382,235.220,307.400,49.940
215,49466.954000,199.002,109.427,148.480,370.284,-33.597,401.423,115.220,302.400,43.940
216,49466.973000,188.192,112.439,133.120,367.410,-37.123,410.296,199.220,253.400,31.940
217,49467.12000,158.710,107.420,121.856,365.508,-38.025,412.263,151.220,145.400,40.940
218,49467.52000,160.676,115.451,112.640,368.385,-35.239,412.327,149.220,-72.600,7.940
219,49467.94000,139.056,125.490,116.736,372.262,-27.958,407.514,165.220,-227.600,-22.060
220,49467.132000,156.745,164.643,110.592,380.845,-22.446,402.671,-80.780,-316.600,-166.060
221,49467.172000,171.486,163.639,116.736,386.376,-32.566,396.496,-378.780,-368.600,-201.060
222,49467.190000,160.676,153.600,120.832,392.070,-30.756,391.570,-465.780,-296.600,-256.060
223,49467.244000,199.002,152.596,121.856,392.876,-40.081,382.421,-533.780,-316.600,-267.060
224,49467.272000,231.432,144.565,113.664,399.405,-46.504,377.321,-793.780,-262.600,-202.060
225,49467.310000,201.950,82.322,111.616,404.971,-53.894,370.209,-820.780,-241.600,-47.060
226,49467.354000,202.933,63.247,137.216,410.484,-64.988,361.029,-479.780,-176.600,-1.060
227,49467.397000,154.779,86.337,110.592,411.388,-67.783,357.987,-324.780,-87.600,-31.060
228,49467.437000,224.553,90.353,122.880,410.208,-84.383,352.659,-532.780,-261.600,-62.060
229,49467.452000,202.933,59.231,134.144,414.942,-83.522,346.717,-640.780,-201.600,2.940
230,49467.492000,204.898,59.231,136.192,417.503,-102.899,337.356,-473.780,-161.600,38.940
231,49467.534000,214.726,63.247,145.408,415.482,-112.124,335.168,-354.780,-47.600,76.940
232,49467.572000,217.674,73.286,141.312,414.588,-108.453,336.239,-341.780,34.400,46.940
233,49467.623000,167.555,77.302,136.192,415.415,-116.763,332.085,-456.780,22.400,-30.060
234,49467.653000,195.071,58.227,146.432,415.322,-123.235,328.963,-419.780,-68.600,25.940
235,49467.672000,181.313,63.247,141.312,414.235,-133.364,326.757,-218.780,43.400,15.940
236,49467.715000,171.486,65.255,134.144,415.158,-135.164,327.714,-165.780,-30.600,63.940
237,49467.759000,186.226,69.271,134.144,415.095,-138.985,319.676,-124.780,-177.600,58.940
238,49467.792000,194.088,52.204,119.808,415.968,-144.450,320.555,-314.780,-72.600,33.940
239,49467.834000,194.088,34.133,133.120,419.613,-153.737,311.411,-377.780,-300.600,34.940
240,49467.878000,202.933,29.114,147.456,422.528,-147.423,304.588,-159.780,-158.600,-60.060
241,49467.892000,203.916,42.165,151.552,425.249,-155.689,301.432,-173.780,-0.600,-141.060
242,49467.932000,198.019,26.102,150.528,423.499,-145.578,304.628,-27.780,11.400,-103.060
243,49467.972000,193.106,22.086,149.504,420.671,-144.719,303.648,90.220,34.400,-57.060
244,49468.14000,194.088,34.133,166.912,423.576,-140.062,305.741,354.220,25.400,-3.060
245,49468.54000,153.797,45.176,136.192,420.794,-136.357,309.794,339.220,-20.600,26.940
246,49468.92000,177.382,42.165,135.168,423.692,-131.777,307.906,282.220,-188.600,178.940
247,49468.135000,224.553,85.333,132.096,424.610,-133.636,305.879,598.220,-197.600,206.940
248,49468.160000,237.328,126.494,144.384,423.742,-128.113,307.984,504.220,-79.600,136.940
249,49468.193000,253.052,143.561,140.288,426.707,-118.895,309.180,315.220,-40.600,-140.060
250,49468.232000,249.121,156.612,148.480,427.794,-108.766,311.386,-155.780,20.400,-327.060
251,49468.272000,248.138,107.420,144.384,428.750,-107.876,309.417,-331.780,15.400,-391.060
252,49468.315000,216.691,86.337,131.072,432.504,-109.736,305.404,-354.780,-10.600,-286.060
253,49468.353000,206.864,50.196,134.144,432.479,-111.568,305.365,-409.780,-39.600,-77.060
254,49468.372000,205.881,54.212,125.952,429.590,-115.271,305.282,-195.780,13.400,40.940
255,49468.412000,191.140,68.267,133.120,433.312,-119.801,305.191,-93.780,73.400,46.940
256,49468.454000,199.002,63.247,137.216,426.690,-119.869,306.175,-110.780,114.400,55.940
257,49468.492000,193.106,51.200,141.312,428.530,-124.308,312.051,-95.780,183.400,79.940
258,49468.534000,179.347,32.125,146.432,424.745,-124.358,312.044,30.220,197.400,123.940
259,49468.578000,188.192,41.161,137.216,418.968,-132.522,319.819,306.220,175.400,214.940
260,49468.603000,164.607,56.220,137.216,416.264,-123.281,325.980,283.220,132.400,201.940
261,49468.639000,200.967,65.255,128.000,416.195,-128.700,329.843,337.220,34.400,121.940
262,49468.674000,203.916,65.255,133.120,415.299,-125.048,329.919,318.220,39.400,64.940
263,49468.714000,214.726,67.263,136.192,412.604,-114.930,334.109,269.220,10.400,9.940
264,49468.754000,214.726,79.310,141.312,416.443,-111.176,336.184,121.220,37.400,-27.060
265,49468.794000,212.760,77.302,137.216,414.524,-113.053,335.146,50.220,73.400,-48.060
266,49468.834000,165.589,50.196,128.000,417.389,-111.164,336.186,-94.780,-15.600,18.940
267,49468.858000,170.503,46.180,123.904,417.316,-116.641,337.063,0.220,-117.600,54.940
268,49468.893000,168.537,53.208,134.144,420.095,-120.385,331.020,75.220,-186.600,28.940
269,49468.933000,245.190,63.247,153.600,418.363,-108.520,330.275,221.220,-15.600,-36.060
270,49468.973000,220.622,50.196,157.696,421.226,-107.429,337.265,303.220,199.400,17.940
271,49469.13000,219.639,23.090,129.024,415.685,-98.207,344.416,653.220,203.400,182.940
272,49469.53000,176.399,50.196,96.256,412.890,-95.418,348.450,874.220,90.400,233.940
273,49469.73000,233.397,67.263,124.928,407.470,-77.852,360.751,1027.220,93.400,327.940
274,49469.110000,166.572,89.349,112.640,406.621,-71.334,366.856,1288.220,355.400,210.940
275,49469.153000,169.520,117.459,114.688,401.347,-42.814,377.402,1334.220,322.400,103.940
276,49469.195000,232.415,167.655,132.096,390.278,-23.452,391.723,924.220,521.400,-23.060
277,49469.230000,172.468,150.588,151.552,380.941,-15.936,407.783,602.220,573.400,-52.060
278,49469.273000,195.071,116.455,140.288,373.520,-5.822,414.950,424.220,439.400,56.940
279,49469.317000,145.935,98.384,125.952,371.682,-2.124,418.010,567.220,327.400,185.940
280,49469.337000,149.866,112.439,113.664,368.091,11.646,422.276,652.220,109.400,228.940
281,49469.377000,161.658,117.459,102.400,366.236,14.370,422.331,548.220,-89.600,277.940
282,49469.423000,180.330,134.525,97.280,372.081,27.173,417.639,505.220,-182.600,190.940
283,49469.457000,198.019,143.561,84.992,376.796,26.280,415.638,424.220,-169.600,121.940
284,49469.504000,176.399,121.475,89.088,376.901,34.428,410.838,272.220,-187.600,92.940
285,49469.533000,173.451,112.439,92.160,378.877,40.827,408.988,347.220,-126.600,75.940
286,49469.553000,161.658,103.404,82.944,384.627,46.360,407.125,259.220,-98.600,126.940
287,49469.600000,169.520,101.396,91.136,381.770,45.348,404.115,325.220,-144.600,86.940
288,49469.634000,169.520,120.471,70.656,388.480,52.589,395.328,282.220,-245.600,98.940
289,49469.673000,202.933,130.510,81.920,394.124,50.734,390.323,149.220,-284.600,-95.060
290,49469.715000,261.896,136.533,108.544,394.114,50.617,384.353,-53.780,-380.600,-72.060
291,49469.755000,286.464,163.639,145.408,400.880,61.600,379.623,-149.780,-105.600,-223.060
292,49469.793000,299.240,165.647,136.192,398.882,53.408,383.425,-285.780,214.400,-294.060
293,49469.820000,252.069,133.522,126.976,390.506,62.652,393.555,-303.780,363.400,-186.060
294,49469.854000,238.311,128.502,121.856,385.597,48.965,399.225,-275.780,286.400,-37.060
295,49469.907000,202.933,140.549,111.616,380.912,51.748,404.250,-283.780,209.400,-5.060
296,49469.935000,172.468,131.514,105.472,378.922,44.433,406.081,-318.780,160.400,-23.060
297,49469.974000,163.624,146.573,105.472,378.845,38.137,411.915,-355.780,78.400,-82.060
298,49470.14000,184.261,127.498,108.544,372.108,29.804,411.727,-423.780,106.400,-83.060
299,49470.34000,160.676,96.376,117.760,372.986,24.398,415.592,-414.780,153.400,46.940
300,49470.74000,139.056,91.357,121.856,369.047,12.536,420.307,-261.780,106.400,66.940
301,49470.119000,141.021,119.467,117.760,371.850,9.845,421.248,-148.780,82.400,-51.060
302,49470.158000,152.814,136.533,110.592,371.800,6.180,421.170,-465.780,-128.600,-54.060
303,49470.194000,175.417,110.431,110.592,379.157,-8.534,412.911,-592.780,-320.600,-11.060
304,49470.234000,202.933,121.475,114.688,381.937,-12.259,407.863,-445.780,-351.600,-7.060
305,49470.277000,212.760,109.427,126.976,390.391,-15.967,399.839,-386.780,-199.600,47.940
306,49470.297000,208.829,105.412,125.952,391.220,-24.258,396.680,-267.780,-123.600,59.940
307,49470.337000,202.933,107.420,116.736,390.238,-26.999,397.615,-196.780,-60.600,59.940
308,49470.375000,180.330,112.439,112.640,389.075,-42.625,395.291,-283.780,-110.600,50.940
309,49470.415000,162.641,113.443,108.544,392.793,-47.214,392.215,-275.780,-119.600,36.940
310,49470.454000,156.745,132.518,107.520,396.533,-50.010,387.188,-427.780,-180.600,-82.060
311,49470.495000,217.674,140.549,95.232,398.326,-56.535,380.089,-772.780,-365.600,-166.060
312,49470.515000,218.656,83.325,126.976,404.660,-76.778,370.716,-1200.780,-228.600,-212.060
313,49470.554000,213.743,82.322,120.832,411.199,-82.304,364.640,-871.780,-165.600,-304.060
314,49470.595000,168.537,58.227,151.552,409.949,-103.583,354.239,-1084.780,-159.600,-196.060
315,49470.634000,251.086,21.082,151.552,408.903,-110.145,347.136,-828.780,-80.600,-36.060
316,49470.675000,201.950,35.137,161.792,410.755,-112.908,345.090,-340.780,115.400,49.940
317,49470.723000,185.244,39.153,143.360,401.184,-121.219,347.883,-110.780,82.400,89.940
318,49470.757000,181.313,49.192,134.144,404.011,-122.098,347.869,125.220,-52.600,92.940
319,49470.777000,178.365,52.204,132.096,405.913,-121.196,345.901,163.220,-113.600,65.940
320,49470.818000,193.106,41.161,142.336,405.838,-126.693,345.784,54.220,-113.600,90.940
321,49470.858000,191.140,34.133,135.168,403.006,-125.873,342.814,342.220,-95.600,103.940
322,49470.894000,217.674,69.271,126.976,410.719,-115.637,346.027,274.220,-102.600,42.940
323,49470.934000,217.674,75.294,131.072,409.813,-112.102,340.133,74.220,-184.600,-17.060
324,49470.974000,224.553,93.365,137.216,412.640,-112.201,333.173,-50.780,-140.600,-124.060
325,49470.994000,224.553,94.369,135.168,411.646,-115.858,334.088,-120.780,-122.600,-187.060
326,49471.34000,220.622,85.333,126.976,416.385,-114.938,331.130,-272.780,-146.600,-176.060
327,49471.80000,214.726,80.314,122.880,416.398,-113.242,324.204,-280.780,-160.600,-163.060
328,49471.115000,221.605,77.302,123.904,423.957,-113.279,317.252,-393.780,-196.600,-83.060
329,49471.175000,210.795,64.251,124.928,424.759,-123.422,313.059,-431.780,-115.600,20.940
330,49471.194000,206.864,62.243,128.000,423.695,-131.738,309.896,-367.780,-6.600,84.940
331,49471.234000,201.950,57.224,135.168,418.788,-144.627,309.615,-260.780,158.400,183.940
332,49471.259000,204.898,46.180,132.096,416.826,-150.090,312.480,-132.780,209.400,278.940
333,49471.302000,204.898,45.176,139.264,407.349,-151.911,319.389,-34.780,230.400,276.940
334,49471.334000,225.536,57.224,146.432,406.336,-157.322,324.246,-17.780,198.400,283.940
335,49471.375000,219.639,54.212,157.696,401.583,-159.178,326.189,-69.780,223.400,236.940
336,49471.415000,211.777,38.149,158.720,392.951,-168.335,331.949,-61.780,205.400,195.940
337,49471.455000,201.950,31.122,153.600,392.867,-174.709,333.802,-19.780,136.400,200.940
338,49471.475000,192.123,21.082,161.792,389.032,-178.423,333.717,-98.780,95.400,240.940
339,49471.524000,199.002,0.000,158.720,388.066,-180.210,336.662,135.220,75.400,231.940
340,49471.558000,187.209,-5.020,148.480,382.368,-182.058,339.598,300.220,42.400,238.940
341,49471.593000,175.417,-16.063,148.480,384.324,-178.213,347.640,343.220,-20.600,208.940
342,49471.633000,215.708,-14.055,141.312,383.317,-182.786,348.536,633.220,-8.600,141.940
343,49471.673000,185.244,6.024,145.408,380.714,-166.197,355.847,726.220,51.400,58.940
344,49471.713000,232.415,15.059,143.360,382.817,-151.396,362.133,742.220,107.400,1.940
345,49471.733000,253.052,37.145,144.384,378.288,-137.541,371.373,815.220,200.400,-17.060
346,49471.775000,188.192,46.180,137.216,377.642,-117.106,386.727,895.220,300.400,-96.060
347,49471.815000,170.503,65.255,123.904,374.098,-100.471,397.022,1151.220,242.400,-82.060
348,49471.855000,188.192,120.471,118.784,373.479,-77.404,406.464,1118.220,156.400,-143.060
349,49471.895000,185.244,131.514,120.832,372.863,-53.539,409.955,779.220,82.400,-245.060
350,49471.935000,187.209,126.494,121.856,375.954,-35.159,411.345,596.220,-5.600,-223.060
351,49471.957000,181.313,125.490,119.808,377.989,-24.998,414.548,504.220,-14.600,-230.060
352,49472.3000,187.209,115.451,118.784,382.032,-5.768,411.979,449.220,-36.600,-182.060
353,49472.43000,166.572,104.408,113.664,380.172,-3.103,409.050,442.220,-121.600,-89.060
354,49472.78000,170.503,108.424,113.664,384.073,5.231,411.222,491.220,-147.600,-57.060
355,49472.118000,212.760,121.475,114.688,389.890,16.183,405.496,443.220,-137.600,26.940
356,49472.157000,177.382,111.435,96.256,391.906,25.350,404.699,442.220,-57.600,3.940
357,49472.195000,184.261,108.424,91.136,389.222,37.124,399.973,554.220,-157.600,49.940
358,49472.215000,159.693,114.447,80.896,394.073,46.290,397.191,578.220,-139.600,45.940
359,49472.254000,179.347,127.498,92.160,398.852,49.978,395.287,593.220,-84.600,22.940
360,49472.297000,153.797,131.514,69.632,394.342,66.367,393.640,365.220,-48.600,8.940
361,49472.337000,175.417,115.451,77.824,398.144,68.151,388.711,298.220,-161.600,25.940
362,49472.378000,193.106,152.596,83.968,401.112,78.169,383.955,346.220,-170.600,-30.060
363,49472.418000,186.226,157.616,79.872,404.939,81.786,379.064,141.220,-200.600,-83.060
364,49472.438000,239.294,162.635,81.920,412.560,86.330,372.210,43.220,-308.600,-69.060
365,49472.479000,208.829,148.580,98.304,408.720,82.557,369.140,-16.780,-161.600,-95.060
366,49472.519000,297.274,171.671,99.328,412.548,86.193,365.245,-99.780,-28.600,-109.060
367,49472.555000,266.810,156.612,115.712,407.748,80.712,369.099,-252.780,83.400,-149.060
368,49472.595000,258.948,168.659,107.520,408.780,86.338,375.189,-148.780,236.400,-104.060
369,49472.635000,219.639,156.612,107.520,400.255,85.368,378.139,-246.780,272.400,-83.060
370,49472.675000,206.864,154.604,99.328,401.113,78.188,384.950,-173.780,216.400,-69.060
371,49472.695000,181.313,139.545,90.112,396.371,77.229,385.917,-167.780,94.400,-29.060
372,49472.743000,175.417,135.529,92.160,397.249,71.823,389.782,-96.780,61.400,4.940
373,49472.777000,167.555,129.506,92.160,394.476,76.405,391.865,-56.780,29.400,-5.060
374,49472.823000,167.555,143.561,92.160,393.556,78.244,392.897,-23.780,7.400,-23.060
375,49472.864000,182.296,156.612,84.992,398.261,76.455,391.871,-177.780,-45.600,-48.060
376,49472.899000,180.330,150.588,84.992,397.179,66.384,392.650,-360.780,-51.600,-95.060
377,49472.919000,168.537,149.584,91.136,399.036,63.681,393.590,-319.780,-89.600,-35.060
378,49472.958000,178.365,156.612,87.040,399.770,48.119,393.260,-499.780,-119.600,0.940
379,49472.999000,189.175,141.553,97.280,402.478,38.936,390.085,-620.780,-92.600,129.940
380,49473.34000,182.296,113.443,101.376,403.273,27.936,388.857,-672.780,-78.600,227.940
381,49473.74000,176.399,106.416,99.328,403.908,5.065,389.366,-582.780,-62.600,276.940
382,49473.114000,178.365,100.392,101.376,404.687,-6.891,386.129,-545.780,-92.600,285.940
383,49473.160000,177.382,100.392,102.400,403.489,-25.246,384.741,-465.780,-102.600,254.940
384,49473.177000,177.382,103.404,87.040,405.298,-30.815,379.652,-448.780,-175.600,170.940
385,49473.224000,218.656,116.455,101.376,405.043,-49.196,376.277,-522.780,-173.600,127.940
386,49473.264000,210.795,98.384,94.208,405.903,-54.817,369.196,-629.780,-178.600,107.940
387,49473.298000,225.536,77.302,108.544,409.389,-75.975,361.789,-641.780,-125.600,83.940
388,49473.339000,233.397,76.298,108.544,411.203,-81.486,359.685,-654.780,-54.600,46.940
389,49473.379000,223.570,66.259,118.784,408.100,-100.782,358.275,-744.780,43.400,52.940
390,49473.399000,193.106,47.184,114.688,404.996,-120.097,355.870,-734.780,9.400,53.940
391,49473.439000,220.622,49.192,150.528,404.041,-120.207,350.893,-776.780,13.400,82.940
392,49473.475000,201.950,27.106,157.696,404.734,-138.556,348.514,-553.780,180.400,92.940
393,49473.517000,197.036,46.180,151.552,396.170,-142.294,350.411,-355.780,211.400,83.940
394,49473.558000,195.071,60.235,147.456,394.115,-154.229,350.154,-327.780,39.400,57.940
395,49473.598000,201.950,49.192,140.288,388.343,-160.795,346.027,-393.780,19.400,22.940
396,49473.639000,199.002,42.165,138.240,390.202,-162.700,341.016,-437.780,-123.600,58.940
397,49473.659000,200.967,23.090,143.360,393.853,-171.928,334.857,-446.780,-152.600,20.940
398,49473.697000,199.985,19.075,140.288,393.727,-180.330,326.721,-344.780,-148.600,-36.060
399,49473.754000,205.881,21.082,142.336,397.425,-185.913,319.646,-264.780,-137.600,-89.060
400,49473.779000,225.536,28.110,145.408,402.105,-189.535,318.581,-167.780,-132.600,-141.060
401,49473.819000,196.054,22.086,138.240,397.470,-182.307,316.738,-137.780,-87.600,-167.060
402,49473.859000,201.950,21.082,128.000,407.986,-174.002,312.952,-45.780,-123.600,-127.060
403,49473.879000,176.399,23.090,132.096,409.827,-177.661,311.882,9.220,-160.600,-150.060
404,49473.920000,183.278,6.024,126.976,413.700,-170.419,305.080,93.220,-157.600,-99.060
405,49473.960000,194.088,11.043,131.072,414.652,-170.348,308.067,304.220,-165.600,16.940
406,49474.0,244.207,44.173,122.880,415.643,-166.729,305.161,374.220,-179.600,0.940
407,49474.40000,215.708,73.286,130.048,416.750,-154.827,304.422,299.220,-180.600,-79.060
408,49474.80000,256.000,86.337,130.048,415.813,-153.962,302.449,182.220,-116.600,-174.060
409,49474.120000,225.536,99.388,129.024,424.491,-141.959,301.723,80.220,-166.600,-246.060
410,49474.140000,259.931,104.408,138.240,426.471,-135.522,301.863,-80.780,-44.600,-306.060
411,49474.175000,243.225,105.412,137.216,424.596,-133.792,297.918,-163.780,15.400,-380.060
412,49474.215000,218.656,97.380,125.952,431.264,-130.118,294.028,-328.780,-37.600,-428.060
413,49474.258000,205.881,64.251,120.832,437.021,-123.728,289.199,-499.780,-120.600,-370.060
414,49474.298000,200.967,57.224,121.856,439.776,-129.285,284.112,-453.780,-139.600,-296.060
415,49474.339000,207.846,50.196,126.976,441.722,-124.796,278.242,-438.780,-52.600,-115.060
416,49474.359000,211.777,34.133,131.072,442.479,-138.545,276.956,-305.780,26.400,-39.060
417,49474.398000,210.795,47.184,136.192,441.523,-139.435,278.925,-173.780,101.400,7.940
418,49474.438000,230.449,35.137,136.192,439.657,-137.608,279.956,-177.780,101.400,92.940
419,49474.478000,230.449,30.118,139.264,438.602,-145.827,281.769,-56.780,124.400,133.940
420,49474.519000,213.743,33.129,129.024,437.664,-145.742,286.742,119.220,130.400,119.940
421,49474.560000,218.656,30.118,129.024,436.760,-142.947,289.784,168.220,104.400,157.940
422,49474.598000,203.916,26.102,132.096,434.844,-144.785,290.737,302.220,110.400,116.940
423,49474.618000,181.313,5.020,133.120,428.183,-148.381,298.608,408.220,193.400,129.940
424,49474.658000,202.933,4.016,132.096,426.464,-137.139,312.769,790.220,282.400,181.940
425,49474.698000,207.846,29.114,120.832,421.893,-126.851,326.907,1023.220,389.400,220.940
426,49474.738000,200.967,38.149,116.736,412.628,-113.877,341.094,1151.220,435.400,211.940
427,49474.778000,221.605,57.224,102.400,408.245,-90.626,362.470,1225.220,355.400,185.940
428,49474.818000,228.484,106.416,126.976,404.550,-84.224,364.590,1144.220,375.400,68.940
429,49474.838000,163.624,111.435,116.736,398.315,-57.432,381.065,1170.220,411.400,-58.060
430,49474.878000,185.244,130.510,108.544,392.031,-33.524,390.516,1138.220,351.400,-65.060
431,49474.918000,180.330,151.592,120.832,389.432,-16.895,399.818,918.220,234.400,-72.060
432,49474.958000,177.382,153.600,120.832,384.984,3.295,405.214,659.220,207.400,-91.060
433,49474.998000,170.503,135.529,112.640,385.070,9.688,404.356,496.220,114.400,-63.060
434,49475.40000,177.382,129.506,117.760,384.166,12.482,407.398,463.220,23.400,-11.060
435,49475.80000,179.347,137.537,117.760,384.389,28.953,406.754,413.220,15.400,14.940
436,49475.108000,165.589,139.545,110.592,381.588,31.664,406.808,172.220,-94.600,29.940
437,49475.152000,195.071,126.494,115.712,389.161,32.563,400.870,23.220,-185.600,74.940
438,49475.180000,206.864,117.459,120.832,391.901,25.291,401.714,6.220,-114.600,67.940
439,49475.220000,197.036,78.306,100.352,392.869,27.097,399.765,275.220,30.400,159.940
440,49475.260000,176.399,74.290,100.352,393.038,39.845,396.058,779.220,-12.600,276.940
441,49475.300000,171.486,119.467,91.136,393.177,49.942,397.267,930.220,89.400,268.940
442,49475.320000,160.676,122.478,91.136,389.568,62.737,398.529,632.220,61.400,249.940
443,49475.362000,187.209,139.545,89.088,386.864,72.738,396.749,505.220,57.400,139.940
444,49475.402000,172.468,143.561,106.496,390.665,73.743,398.765,406.220,64.400,89.940
445,49475.442000,181.313,147.576,89.088,386.890,74.590,397.783,302.220,29.400,115.940
446,49475.482000,202.933,156.612,89.088,390.747,80.098,395.916,162.220,-177.600,80.940
447,49475.523000,250.104,169.663,97.280,390.662,74.484,389.829,-46.780,-179.600,124.940
448,49475.557000,248.138,148.580,112.640,394.450,75.333,383.885,-82.780,-150.600,114.940
449,49475.577000,263.862,164.643,104.448,395.378,73.591,387.828,-35.780,16.400,44.940
450,49475.617000,246.173,154.604,98.304,395.278,66.262,387.672,-25.780,26.400,-2.060
451,49475.659000,221.605,167.655,92.160,393.423,68.985,387.727,-48.780,44.400,-38.060
452,49475.699000,182.296,150.588,93.184,395.261,64.527,392.608,-191.780,63.400,-64.060
453,49475.742000,181.313,140.549,88.064,393.305,59.902,391.512,-189.780,-54.600,1.940
454,49475.784000,184.261,122.478,88.064,395.247,63.592,391.593,-233.780,-25.600,52.940
455,49475.803000,184.261,122.478,83.968,395.174,58.114,392.471,-184.780,-50.600,99.940
456,49475.839000,198.019,120.471,89.088,397.804,42.617,394.134,-262.780,-41.600,90.940
457,49475.879000,199.985,113.443,96.256,395.923,43.508,394.151,-289.780,57.400,84.940
458,49475.919000,200.967,116.455,97.280,394.807,30.728,396.861,-243.780,66.400,39.940
459,49475.963000,198.019,114.447,93.184,394.809,30.747,397.856,-319.780,68.400,-19.060
460,49476.3000,178.365,113.443,94.208,393.839,28.922,398.810,-379.780,-7.600,-27.060
461,49476.42000,174.434,121.475,93.184,394.554,12.366,394.480,-394.780,-94.600,-16.060
462,49476.60000,176.399,112.439,84.992,395.448,8.695,393.409,-531.780,-154.600,14.940
463,49476.102000,172.468,111.435,86.016,400.037,-1.379,390.218,-535.780,-240.600,26.940
464,49476.142000,194.088,108.424,87.040,404.612,-12.388,386.011,-598.780,-272.600,44.940
465,49476.182000,185.244,124.486,104.448,402.624,-18.924,380.896,-555.780,-158.600,-35.060
466,49476.223000,185.244,121.475,104.448,407.147,-33.617,375.617,-705.780,-149.600,-22.060
467,49476.263000,237.328,102.400,103.424,406.878,-52.934,371.227,-823.780,-19.600,-38.060
468,49476.295000,212.760,71.278,109.568,410.469,-66.704,366.961,-799.780,19.400,-50.060
469,49476.322000,245.190,82.322,121.856,402.725,-79.610,367.669,-725.780,-13.600,-59.060
470,49476.363000,221.605,69.271,125.952,400.788,-82.461,363.627,-668.780,89.400,-150.060
471,49476.403000,186.226,58.227,106.496,406.382,-88.760,365.491,-628.780,-45.600,-133.060
472,49476.439000,202.933,59.231,109.568,408.015,-106.396,352.187,-627.780,-170.600,-88.060
473,49476.478000,209.812,60.235,120.832,410.823,-108.268,348.173,-736.780,-104.600,-8.060
474,49476.520000,226.518,58.227,138.240,409.630,-125.785,342.825,-688.780,21.400,2.940
475,49476.539000,205.881,53.208,144.384,403.826,-135.041,341.625,-648.780,146.400,-3.060
476,49476.582000,191.140,49.192,141.312,402.819,-139.615,342.521,-605.780,151.400,-14.060
477,49476.622000,178.365,50.196,144.384,401.705,-151.595,339.280,-587.780,61.400,-32.060
478,49476.662000,194.088,49.192,140.288,398.742,-160.015,332.134,-547.780,-43.600,-32.060
479,49476.702000,192.123,44.173,131.072,399.578,-167.448,326.010,-555.780,-79.600,-30.060
480,49476.742000,208.829,37.145,132.096,401.270,-181.321,317.760,-538.780,-161.600,-6.060
481,49476.762000,181.313,21.082,131.072,403.204,-177.729,312.866,-450.780,-143.600,-44.060
482,49476.802000,191.140,30.118,136.192,404.037,-185.202,304.751,-337.780,-198.600,-82.060
483,49476.842000,199.985,21.082,147.456,409.641,-189.844,297.698,-307.780,-139.600,-138.060
484,49476.882000,194.088,23.090,148.480,409.677,-187.116,296.761,-68.780,-13.600,-182.060
485,49476.927000,197.036,25.098,144.384,414.417,-186.176,294.799,40.220,-51.600,-156.060
486,49476.958000,181.313,22.086,137.216,414.489,-180.718,292.926,64.220,-165.600,-114.060
487,49477.2000,202.933,16.063,143.360,415.543,-172.519,290.118,127.220,-196.600,-66.060
488,49477.22000,223.570,26.102,145.408,421.267,-168.819,288.216,375.220,-204.600,-29.060
489,49477.63000,244.207,64.251,130.048,421.366,-161.509,287.377,335.220,-140.600,-105.060
490,49477.104000,272.706,75.294,145.408,425.298,-150.504,285.628,265.220,-241.600,-125.060
491,49477.150000,264.845,82.322,139.264,428.188,-146.783,286.706,147.220,-165.600,-219.060
492,49477.184000,271.724,81.318,141.312,431.005,-147.779,280.721,-122.780,-121.600,-213.060
493,49477.224000,239.294,56.220,132.096,432.891,-147.832,276.744,-82.780,-90.600,-183.060
494,49477.245000,217.674,42.165,120.832,438.631,-143.176,276.852,-67.780,-43.600,-94.060
495,49477.280000,198.019,44.173,118.784,438.703,-137.718,274.979,-4.780,-15.600,-49.060
496,49477.320000,199.985,50.196,119.808,443.372,-142.236,274.890,3.220,-37.600,-26.060
497,49477.360000,209.812,59.231,125.952,443.408,-139.507,273.953,3.220,40.400,-121.060
498,49477.400000,209.812,61.239,124.928,438.745,-134.911,278.023,58.220,78.400,-107.060
499,49477.440000,221.605,62.243,133.120,441.558,-137.486,284.935,117.220,164.400,-69.060
500,49477.488000,221.605,60.235,126.976,437.855,-131.961,289.025,184.220,224.400,-21.060
501,49477.500000,199.985,52.204,125.952,435.070,-129.055,299.029,263.220,207.400,75.940
502,49477.544000,199.985,48.188,126.976,434.200,-123.551,300.140,378.220,195.400,129.940
503,49477.584000,188.192,49.192,122.880,431.287,-129.845,307.959,450.220,197.400,96.940
504,49477.619000,184.261,53.208,122.880,428.652,-115.945,318.197,525.220,204.400,121.940
505,49477.662000,179.347,48.188,125.952,426.756,-116.789,323.149,415.220,174.400,166.940
506,49477.700000,173.451,37.145,131.072,423.096,-108.438,331.279,478.220,141.400,147.940
507,49477.720000,218.656,52.204,122.880,419.413,-101.139,332.423,635.220,113.400,210.940
508,49477.760000,256.000,65.255,129.024,419.476,-97.318,340.462,625.220,153.400,215.940
509,49477.800000,236.345,87.341,132.096,416.730,-91.644,351.520,634.220,235.400,111.940
510,49477.840000,209.812,79.310,120.832,411.177,-83.338,358.651,595.220,266.400,52.940
511,49477.880000,189.175,75.294,114.688,408.434,-76.865,363.757,655.220,236.400,35.940
512,49477.920000,162.641,87.341,97.280,404.033,-53.809,375.183,772.220,168.400,6.940
513,49477.959000,199.002,115.451,106.496,407.952,-44.500,380.360,821.220,139.400,20.940
514,49477.979000,191.140,120.471,109.568,402.465,-30.794,382.633,822.220,182.400,37.940
515,49478.19000,197.036,132.518,117.760,400.823,-13.257,390.961,778.220,206.400,-30.060
516,49478.59000,193.106,137.537,115.712,396.232,-3.203,393.157,645.220,204.400,-53.060
517,49478.99000,204.898,126.494,122.880,392.649,10.665,402.399,426.220,194.400,-30.060
518,49478.139000,192.123,109.427,117.760,393.692,17.968,400.566,433.220,189.400,41.940
519,49478.179000,176.399,104.408,114.688,388.957,17.087,405.514,435.220,104.400,63.940
520,49478.199000,171.486,120.471,115.712,385.386,32.630,406.834,503.220,29.400,15.940
521,49478.242000,167.555,121.475,93.184,391.157,39.956,403.020,420.220,-24.600,3.940
522,49478.282000,192.123,124.486,91.136,391.268,48.182,402.200,375.220,-146.600,34.940
523,49478.325000,201.950,131.514,76.800,394.184,54.515,396.372,408.220,-180.600,24.940
524,49478.365000,165.589,123.482,77.824,398.000,57.236,392.457,323.220,-164.600,38.940
525,49478.405000,180.330,128.502,84.992,398.103,65.364,386.662,467.220,-170.600,55.940
526,49478.445000,178.365,140.549,91.136,402.967,75.445,383.900,324.220,-51.600,27.940
527,49478.465000,189.175,132.518,87.040,400.050,69.872,381.788,312.220,-71.600,113.940
528,49478.504000,203.916,141.553,84.992,403.914,76.237,376.956,246.220,-13.600,84.940
529,49478.544000,192.123,134.525,74.752,406.844,82.727,379.087,179.220,-98.600,118.940
530,49478.584000,223.570,143.561,78.848,408.625,75.286,371.969,202.220,-179.600,110.940
531,49478.625000,266.810,161.631,95.232,407.773,82.544,369.138,119.220,-15.600,110.940
532,49478.665000,237.328,142.557,95.232,410.580,79.892,372.070,-71.780,35.400,119.940
533,49478.682000,259.931,148.580,96.256,405.836,78.913,372.042,-89.780,52.400,43.940
534,49478.722000,230.449,145.569,84.992,406.798,79.881,374.053,-44.780,41.400,-60.060
535,49478.802000,224.553,162.635,87.040,406.800,79.900,375.049,-83.780,-13.600,-108.060
536,49478.815000,220.622,173.678,93.184,402.966,76.205,375.959,-147.780,-5.600,-189.060
537,49478.862000,201.950,143.561,84.992,407.737,79.036,377.021,-274.780,21.400,-132.060
538,49478.883000,200.967,137.537,86.016,407.612,69.874,376.826,-258.780,6.400,-104.060
539,49478.923000,184.261,131.514,82.944,406.652,68.166,383.750,-193.780,25.400,-96.060
540,49478.944000,185.244,138.541,88.064,405.662,65.327,379.710,-174.780,69.400,-70.060
541,49478.982000,187.209,128.502,89.088,403.768,64.523,386.652,-299.780,91.400,-58.060
542,49479.23000,190.157,124.486,84.992,401.880,64.556,389.634,-257.780,95.400,-104.060
543,49479.63000,177.382,138.541,92.160,399.902,58.138,390.489,-247.780,58.400,-93.060
544,49479.103000,183.278,130.510,94.208,396.095,56.295,392.434,-389.780,13.400,-94.060
545,49479.143000,176.399,134.525,91.136,397.913,50.823,392.320,-395.780,-11.600,-95.060
546,49479.162000,167.555,129.506,81.920,400.669,44.506,395.174,-507.780,-90.600,-79.060
547,49479.203000,155.762,136.533,80.896,402.352,29.756,388.894,-556.780,-203.600,-55.060
548,49479.248000,165.589,143.561,87.040,406.991,23.347,385.781,-661.780,-227.600,-47.060
549,49479.285000,173.451,141.553,96.256,405.764,3.121,382.365,-836.780,-170.600,-48.060
550,49479.320000,187.209,141.553,106.496,405.586,-9.744,380.101,-881.780,-89.600,-43.060
551,49479.360000,199.985,121.475,96.256,410.181,-18.980,372.949,-986.780,-122.600,-33.060
552,49479.404000,242.242,116.455,115.712,408.983,-37.334,371.562,-1036.780,-131.600,16.940
553,49479.432000,209.812,74.290,125.952,409.633,-58.490,366.140,-1061.780,27.400,-0.060
554,49479.465000,202.933,72.282,114.688,406.502,-79.658,362.701,-839.780,-85.600,19.940
555,49479.500000,191.140,71.278,118.784,412.068,-87.048,355.589,-835.780,-149.600,45.940
556,49479.540000,208.829,52.204,125.952,411.794,-106.424,348.214,-837.780,-202.600,114.940
557,49479.580000,209.812,43.169,141.312,409.718,-119.372,342.962,-723.780,-27.600,146.940
558,49479.623000,214.726,47.184,147.456,405.744,-132.404,334.722,-565.780,-19.600,145.940
559,49479.643000,198.019,54.212,144.384,405.610,-142.443,336.497,-389.780,80.400,115.940
560,49479.687000,187.209,60.235,136.192,400.775,-149.873,334.342,-449.780,-8.600,45.940
561,49479.727000,183.278,55.216,139.264,403.465,-160.050,327.167,-525.780,-96.600,55.940
562,49479.767000,202.933,42.165,143.360,406.216,-165.665,319.095,-525.780,-160.600,114.940
563,49479.805000,192.123,29.114,141.312,406.966,-179.492,313.828,-328.780,-106.600,114.940
564,49479.847000,210.795,39.153,125.952,406.008,-179.641,306.861,-275.780,-168.600,112.940
565,49479.885000,195.071,16.063,123.904,406.729,-195.359,298.571,-314.780,-173.600,90.940
566,49479.905000,190.157,18.071,133.120,407.666,-196.224,300.543,-131.780,-149.600,57.940
567,49479.953000,191.140,25.098,132.096,407.706,-192.676,294.651,-48.780,-103.600,3.940
568,49479.992000,187.209,20.078,142.336,410.482,-197.220,294.558,-51.780,-22.600,9.940
569,49480.25000,190.157,16.063,151.552,405.826,-191.785,294.667,73.220,6.400,-2.060
570,49480.62000,187.209,18.071,135.168,407.738,-189.987,291.724,74.220,-40.600,-42.060
571,49480.104000,223.570,26.102,148.480,404.012,-185.495,289.825,70.220,-155.600,-3.060
572,49480.124000,221.605,30.118,143.360,408.717,-187.284,288.799,65.220,-200.600,-56.060
573,49480.172000,267.793,44.173,145.408,411.530,-188.319,280.824,31.220,-252.600,-56.060
574,49480.203000,256.983,47.184,148.480,414.391,-186.488,278.878,77.220,-144.600,-118.060
575,49480.262000,276.637,65.255,144.384,419.281,-174.555,277.150,34.220,-163.600,-174.060
576,49480.283000,258.948,51.200,140.288,422.155,-171.808,275.224,-134.780,-88.600,-144.060
577,49480.323000,236.345,39.153,139.264,425.821,-180.081,271.074,-93.780,-45.600,-118.060
578,49480.370000,209.812,34.133,129.024,425.921,-172.752,271.231,-72.780,-73.600,-42.060
579,49480.385000,198.019,34.133,128.000,427.712,-180.076,270.083,-20.780,-52.600,-5.060
580,49480.427000,197.036,25.098,123.904,424.871,-180.133,269.083,11.220,-35.600,39.940
581,49480.462000,207.846,31.122,129.024,427.763,-176.392,271.156,79.220,-2.600,97.940
582,49480.504000,212.760,22.086,131.072,429.658,-176.347,272.154,199.220,90.400,112.940
583,49480.544000,215.708,27.106,132.096,423.979,-177.202,279.090,294.220,103.400,111.940
584,49480.584000,222.587,23.090,129.024,421.159,-176.245,283.085,381.220,111.400,75.940
585,49480.604000,218.656,40.157,129.024,422.156,-173.328,291.105,476.220,158.400,83.940
586,49480.655000,216.691,35.137,124.928,419.443,-164.964,299.237,424.220,118.400,60.940
587,49480.684000,198.019,29.114,121.856,420.443,-161.248,301.306,431.220,69.400,41.940
588,49480.724000,196.054,26.102,117.760,419.517,-160.247,306.300,530.220,45.400,12.940
589,49480.767000,183.278,24.094,119.808,419.781,-141.768,314.650,556.220,13.400,24.940
590,49480.807000,215.708,29.114,126.976,421.705,-139.833,318.673,627.220,63.400,43.940
591,49480.847000,208.829,45.176,117.760,417.151,-127.810,327.874,727.220,183.400,10.940
592,49480.878000,242.242,54.212,115.712,417.318,-116.621,338.059,702.220,207.400,48.940
593,49480.903000,220.622,62.243,112.640,412.799,-101.870,346.323,822.220,338.400,-44.060
594,49480.948000,208.829,98.384,115.712,408.297,-86.163,356.597,799.220,307.400,-39.060
595,49480.988000,212.760,106.416,108.544,407.571,-71.283,368.848,706.220,310.400,-12.060
596,49481.28000,156.745,102.400,107.520,403.927,-61.976,378.987,709.220,322.400,-17.060
597,49481.70000,188.192,121.475,104.448,399.404,-47.283,384.266,618.220,100.400,90.940
598,49481.85000,208.829,128.502,112.640,394.763,-40.894,386.385,435.220,107.400,18.940
599,49481.142000,200.967,132.518,117.760,395.749,-38.113,387.440,283.220,89.400,-43.060
600,49481.185000,212.760,126.494,115.712,393.004,-31.660,391.552,150.220,129.400,-73.060
601,49481.207000,187.209,101.396,114.688,394.046,-25.137,396.665,164.220,167.400,-84.060
602,49481.258000,181.313,103.404,116.736,392.264,-16.936,395.843,298.220,83.400,-90.060
603,49481.288000,172.468,105.412,108.544,393.281,-11.485,392.976,272.220,11.400,-85.060
604,49481.323000,202.933,91.357,115.712,394.218,-12.350,394.949,241.220,-33.600,-30.060
605,49481.343000,193.106,96.376,110.592,392.513,1.367,395.238,431.220,4.400,1.940
606,49481.389000,187.209,103.404,97.280,393.589,10.599,398.420,519.220,11.400,44.940
607,49481.442000,180.330,92.361,89.088,394.685,21.606,398.656,738.220,33.400,75.940
608,49481.465000,170.503,117.459,92.160,392.919,30.761,399.843,836.220,18.400,105.940
609,49481.508000,185.244,143.561,96.256,394.070,46.251,395.201,668.220,44.400,80.940
610,49481.544000,170.503,130.510,96.256,391.272,49.001,397.245,451.220,106.400,67.940
611,49481.565000,177.382,129.506,98.304,387.638,59.964,398.467,430.220,67.400,87.940
612,49481.605000,191.140,150.588,98.304,387.571,55.324,395.384,336.220,-16.600,50.940
613,49481.644000,193.106,160.627,96.256,390.556,66.316,393.634,99.220,-95.600,25.940
614,49481.687000,188.192,132.518,95.232,392.455,67.180,389.676,112.220,-165.600,40.940
615,49481.728000,221.605,147.576,84.992,395.250,64.391,385.642,0.220,-354.600,76.940
616,49481.768000,207.846,134.525,88.064,400.925,65.206,376.716,-142.780,-319.600,38.940
617,49481.804000,284.499,130.510,101.376,410.248,55.994,367.582,-254.780,-361.600,116.940
618,49481.824000,266.810,133.522,104.448,408.250,48.582,364.438,-239.780,-98.600,58.940
619,49481.869000,283.516,129.506,112.640,412.962,46.870,367.392,-195.780,70.400,51.940
620,49481.903000,242.242,127.498,109.568,406.326,45.107,375.302,-160.780,253.400,36.940
621,49481.954000,205.881,122.478,97.280,402.448,37.806,379.119,-160.780,238.400,17.940
622,49481.989000,191.140,125.490,95.232,400.613,41.543,384.169,-199.780,123.400,3.940
623,49482.25000,180.330,112.439,100.352,398.563,29.667,386.898,-239.780,65.400,-8.060
624,49482.50000,183.278,115.451,95.232,401.391,28.807,387.878,-182.780,-2.600,-48.060
625,49482.87000,186.226,120.471,92.160,399.566,33.422,390.957,-169.780,-37.600,-85.060
626,49482.127000,188.192,115.451,89.088,403.209,23.336,387.764,-273.780,-96.600,-132.060
627,49482.163000,199.985,128.502,90.112,405.165,28.721,380.919,-245.780,-158.600,-179.060
628,49482.205000,206.864,140.549,82.944,408.878,23.313,382.799,-363.780,-211.600,-195.060
629,49482.245000,200.967,116.455,87.040,410.770,24.098,374.861,-498.780,-257.600,-160.060
630,49482.289000,195.071,127.498,80.896,414.400,13.096,371.649,-418.780,-281.600,-167.060
631,49482.314000,188.192,133.522,84.992,420.079,13.951,364.713,-412.780,-285.600,-123.060
632,49482.345000,183.278,124.486,81.920,428.350,-3.441,359.382,-511.780,-257.600,-102.060
633,49482.384000,166.572,127.498,82.944,426.492,-0.757,357.447,-510.780,-296.600,-105.060
634,49482.429000,183.278,131.514,82.944,432.908,-14.645,345.225,-647.780,-319.600,-100.060
635,49482.465000,191.140,115.451,90.112,433.766,-20.286,337.149,-716.780,-257.600,-71.060
636,49482.513000,227.501,109.427,90.112,439.328,-28.495,334.993,-734.780,-188.600,-31.060
637,49482.528000,219.639,98.384,97.280,441.930,-45.085,327.682,-752.780,-113.600,6.940
638,49482.570000,230.449,81.318,105.472,439.004,-51.535,327.540,-697.780,-23.600,11.940
639,49482.605000,237.328,86.337,111.616,436.947,-63.489,326.288,-506.780,61.400,-17.060
640,49482.647000,199.985,77.302,104.448,436.892,-67.212,323.225,-489.780,104.400,-19.060
641,49482.687000,191.140,65.255,102.400,435.833,-75.470,323.048,-482.780,-54.600,52.940
642,49482.735000,226.518,62.243,115.712,434.730,-86.554,318.831,-540.780,-60.600,137.940
643,49482.768000,216.691,54.212,124.928,430.767,-99.469,316.561,-517.780,35.400,204.940
644,49482.788000,219.639,52.204,131.072,427.779,-110.481,317.317,-423.780,164.400,243.940
645,49482.829000,204.898,61.239,138.240,425.768,-119.589,321.099,-398.780,219.400,203.940
646,49482.869000,200.967,58.227,130.048,418.963,-133.340,324.775,-422.780,164.400,145.940
647,49482.909000,194.088,59.231,132.096,419.764,-143.503,319.587,-440.780,136.400,74.940
648,49482.945000,199.985,55.216,133.120,417.770,-150.876,318.432,-530.780,38.400,54.940
649,49482.992000,202.933,41.161,139.264,414.887,-153.740,314.388,-530.780,-22.600,7.940
650,49483.12000,199.985,41.161,137.216,416.598,-165.840,303.192,-393.780,-25.600,-73.060
651,49483.48000,204.898,45.176,143.360,415.604,-169.497,304.108,-307.780,-42.600,-120.060
652,49483.88000,196.054,31.122,140.288,413.738,-167.671,305.138,-171.780,-34.600,-122.060
653,49483.125000,192.123,38.149,128.000,418.575,-159.441,301.342,66.220,-41.600,-105.060
654,49483.164000,184.261,44.173,129.024,420.534,-154.796,303.433,150.220,-52.600,-50.060
655,49483.207000,194.088,27.106,141.312,417.720,-153.002,303.467,195.220,-55.600,22.940
656,49483.247000,182.296,21.082,128.000,417.796,-147.485,304.579,411.220,-13.600,51.940
657,49483.267000,208.829,32.125,116.736,416.811,-150.266,303.524,457.220,-167.600,237.940
658,49483.304000,229.466,66.259,141.312,417.864,-142.846,307.662,322.220,45.400,134.940
659,49483.344000,240.276,75.294,123.904,418.832,-141.040,305.713,292.220,-192.600,71.940
660,49483.384000,239.294,101.396,134.144,415.991,-141.097,304.713,136.220,-85.600,-64.060
661,49483.427000,247.155,96.376,135.168,422.675,-136.468,302.832,-37.780,-110.600,-120.060
662,49483.475000,249.121,95.373,142.336,422.634,-139.256,300.783,-212.780,-36.600,-195.060
663,49483.489000,233.397,83.325,137.216,423.628,-135.598,299.868,-293.780,29.400,-206.060
664,49483.530000,220.622,73.286,131.072,429.321,-133.808,293.946,-370.780,-17.600,-190.060
665,49483.570000,211.777,64.251,128.000,426.445,-136.594,293.883,-349.780,-30.600,-125.060
666,49483.617000,194.088,54.212,135.168,429.166,-144.860,290.727,-382.780,-37.600,-72.060
667,49483.650000,218.656,35.137,139.264,430.991,-149.474,287.648,-306.780,-34.600,7.940
668,49483.699000,209.812,36.141,137.216,426.238,-151.330,289.590,-123.780,68.400,65.940
669,49483.729000,212.760,39.153,138.240,427.170,-152.253,288.578,-29.780,62.400,71.940
670,49483.749000,213.743,37.145,133.120,425.217,-156.839,289.472,52.220,29.400,100.940
671,49483.789000,222.587,38.149,131.072,426.231,-152.188,292.556,114.220,27.400,121.940
672,49483.830000,207.846,39.153,121.856,423.379,-153.141,292.532,151.220,30.400,126.940
673,49483.872000,196.054,29.114,122.880,426.125,-160.355,296.361,177.220,20.400,127.940
674,49483.913000,198.019,26.102,126.976,421.492,-153.868,303.454,232.220,36.400,125.940
675,49483.949000,186.226,23.090,129.024,422.403,-156.584,304.392,294.220,68.400,60.940
676,49483.968000,185.244,18.071,139.264,418.762,-146.479,308.581,375.220,116.400,108.940
677,49484.35000,215.708,12.047,136.192,413.978,-151.005,314.445,604.220,150.400,102.940
678,49484.50000,212.760,35.137,138.240,417.080,-132.488,322.801,759.220,202.400,95.940
679,49484.98000,213.743,47.184,130.048,410.562,-125.948,333.871,837.220,248.400,103.940
680,49484.135000,216.691,60.235,119.808,411.741,-110.127,346.146,846.220,270.400,88.940
681,49484.170000,256.000,79.310,133.120,407.204,-97.130,358.351,816.220,263.400,123.940
682,49484.210000,225.536,67.263,126.976,402.678,-83.236,369.581,911.220,395.400,113.940
683,49484.230000,169.520,68.267,109.568,395.259,-73.102,377.743,1165.220,346.400,160.940
684,49484.270000,197.036,118.463,105.472,388.955,-50.968,390.140,1122.220,246.400,98.940
685,49484.320000,190.157,124.486,111.616,388.231,-35.289,396.441,860.220,263.400,40.940
686,49484.348000,192.123,127.498,118.784,381.695,-29.724,404.507,656.220,187.400,2.940
687,49484.388000,169.520,119.467,110.592,381.964,-10.407,408.897,533.220,184.400,-50.060
688,49484.428000,174.434,115.451,107.520,378.259,-4.902,411.992,447.220,76.400,-4.060
689,49484.448000,170.503,98.384,113.664,382.153,3.355,410.185,463.220,-18.600,23.940
690,49484.493000,210.795,112.439,97.280,381.365,15.193,407.451,511.220,-53.600,29.940
691,49484.528000,173.451,100.392,93.184,384.357,26.263,409.681,604.220,-87.600,31.940
692,49484.568000,194.088,118.463,86.016,384.522,38.972,403.984,759.220,-95.600,36.940
693,49484.608000,160.676,120.471,76.800,383.627,42.644,405.055,721.220,-63.600,67.940
694,49484.652000,168.537,124.486,89.088,386.614,54.415,396.358,638.220,-81.600,94.940
695,49484.665000,183.278,134.525,80.896,386.775,66.306,395.617,612.220,-77.600,101.940
696,49484.708000,177.382,135.529,79.872,391.649,77.284,391.879,431.220,-66.600,115.940
697,49484.749000,183.278,131.514,81.920,392.583,76.380,391.861,445.220,-23.600,136.940
698,49484.789000,228.484,141.553,69.632,394.539,81.765,385.016,267.220,-184.600,188.940
699,49484.830000,210.795,137.537,91.136,393.666,87.230,384.137,245.220,-94.600,122.940
700,49484.870000,256.000,132.518,86.016,397.456,88.098,379.188,224.220,-117.600,185.940
701,49484.912000,286.464,151.592,87.040,398.431,90.762,374.273,300.220,-46.600,107.940
702,49484.928000,255.017,156.612,94.208,402.240,92.625,373.323,110.220,-17.600,46.940
703,49484.968000,264.845,163.639,87.040,397.499,91.685,375.286,158.220,67.400,-52.060
704,49485.9000,247.155,162.635,79.872,395.613,91.738,379.262,43.220,7.400,-97.060
705,49485.50000,211.777,156.612,76.800,398.550,99.085,378.429,-7.780,-14.600,-108.060
706,49485.89000,199.985,153.600,76.800,398.484,94.465,376.341,-131.780,-34.600,-126.060
707,49485.130000,197.036,148.580,72.704,397.607,99.112,380.417,-271.780,-52.600,-81.060
708,49485.150000,195.071,132.518,69.632,397.487,90.009,383.207,-320.780,-69.600,-92.060
709,49485.198000,190.157,136.533,71.680,400.230,83.536,378.100,-259.780,-62.600,-62.060
710,49485.232000,199.002,140.549,75.776,403.117,86.439,384.134,-343.780,-22.600,-85.060
711,49485.273000,193.106,124.486,70.656,403.028,80.006,383.002,-379.780,11.400,-57.060
712,49485.320000,196.054,124.486,75.776,399.149,72.705,386.820,-414.780,-3.600,-51.060
713,49485.349000,185.244,122.478,74.752,400.932,64.524,388.638,-389.780,22.400,-41.060
714,49485.395000,186.226,118.463,76.800,400.908,62.692,388.599,-427.780,1.400,-45.060
715,49485.410000,176.399,132.518,75.776,398.838,49.822,387.327,-444.780,-59.600,-53.060
716,49485.450000,181.313,129.506,75.776,403.486,43.510,389.189,-601.780,-87.600,-44.060
717,49485.489000,169.520,132.518,79.872,404.291,33.406,386.986,-673.780,-134.600,-59.060
718,49485.527000,174.434,135.529,90.112,404.011,13.193,383.571,-861.780,-137.600,-94.060
719,49485.568000,192.123,131.514,91.136,405.747,2.146,379.360,-964.780,-175.600,-120.060
720,49485.608000,192.123,126.494,95.232,410.263,-13.405,377.046,-1089.780,-222.600,-147.060
721,49485.629000,216.691,99.388,96.256,408.212,-24.521,371.834,-1176.780,-175.600,-93.060
722,49485.678000,237.328,70.275,114.688,413.601,-44.757,363.454,-1154.780,-188.600,-43.060
723,49485.707000,230.449,57.224,132.096,412.366,-65.081,355.062,-779.780,-147.600,-4.060
724,49485.748000,192.123,73.286,103.424,415.092,-72.528,346.951,-624.780,-118.600,-11.060
725,49485.792000,205.881,64.251,109.568,418.739,-81.796,338.802,-780.780,-368.600,20.940
726,49485.831000,230.449,59.231,112.640,423.150,-103.955,326.401,-757.780,-398.600,86.940
727,49485.870000,212.760,73.286,125.952,426.830,-110.532,315.326,-708.780,-293.600,83.940
728,49485.892000,206.864,56.220,125.952,429.407,-128.954,307.975,-654.780,-261.600,78.940
729,49485.927000,192.123,54.212,121.856,432.143,-135.505,298.888,-631.780,-265.600,87.940
730,49485.968000,224.553,41.161,130.048,435.805,-143.837,291.753,-665.780,-330.600,156.940
731,49486.9000,199.985,29.114,111.616,437.488,-157.808,278.528,-525.780,-315.600,134.940
732,49486.49000,205.881,30.118,101.376,438.384,-159.920,263.565,-480.780,-391.600,74.940
733,49486.89000,207.846,24.094,97.280,444.879,-168.273,253.450,-359.780,-406.600,-14.060
734,49486.109000,203.916,24.094,109.568,446.741,-169.379,242.489,-157.780,-350.600,9.940
735,49486.154000,256.983,33.129,104.448,448.613,-170.367,237.497,-56.780,-280.600,-61.060
736,49486.192000,212.760,38.149,106.496,452.374,-171.370,230.519,82.220,-234.600,-63.060
737,49486.233000,246.173,34.133,105.472,456.206,-167.695,228.614,38.220,-242.600,-56.060
738,49486.270000,203.916,26.102,106.496,455.321,-162.367,220.769,112.220,-230.600,-46.060
739,49486.310000,188.192,25.098,97.280,459.996,-166.047,216.719,311.220,-309.600,13.940
740,49486.353000,302.188,40.157,100.352,462.894,-161.467,214.831,259.220,-346.600,77.940
741,49486.375000,198.019,67.263,91.136,466.809,-151.438,210.077,310.220,-348.600,-42.060
742,49486.410000,235.363,59.231,74.752,470.521,-156.085,204.016,190.220,-355.600,-47.060
743,49486.450000,249.121,68.267,77.824,474.332,-153.424,197.116,238.220,-336.600,-10.060
744,49486.499000,256.983,69.271,66.560,475.394,-144.367,191.342,185.220,-304.600,-37.060
745,49486.530000,266.810,71.278,75.776,475.389,-144.425,188.357,133.220,-213.600,-39.060
746,49486.579000,251.086,67.263,81.920,476.350,-142.698,182.427,48.220,-141.600,-78.060
747,49486.593000,263.862,72.282,72.704,483.042,-137.971,185.522,-2.780,-115.600,-208.060
748,49486.629000,255.017,75.294,71.680,485.004,-132.508,182.657,-55.780,-83.600,-242.060
749,49486.669000,248.138,61.239,69.632,486.972,-126.986,182.778,-118.780,-92.600,-170.060
750,49486.710000,249.121,51.200,75.776,490.596,-138.066,175.585,-122.780,-38.600,-131.060
751,49486.750000,239.294,49.192,57.344,487.833,-132.587,176.692,-51.780,-18.600,-83.060
752,49486.788000,242.242,48.188,58.368,489.812,-126.169,175.837,-15.780,11.400,-7.060
753,49486.832000,242.242,47.184,68.608,489.813,-126.149,176.832,104.220,35.400,3.940
754,49486.853000,241.259,41.161,67.584,489.779,-128.859,178.763,160.220,82.400,59.940
755,49486.892000,240.276,51.200,65.536,487.895,-128.786,183.735,217.220,93.400,32.940
756,49486.932000,227.501,55.216,65.536,489.926,-119.444,191.894,305.220,114.400,51.940
757,49486.984000,231.432,54.212,71.680,487.046,-122.269,189.841,242.220,141.400,24.940
758,49487.10000,224.553,51.200,69.632,488.042,-119.371,196.866,286.220,162.400,16.940
759,49487.50000,204.898,44.173,70.656,485.230,-118.317,205.836,348.220,214.400,52.940
760,49487.78000,222.587,44.173,72.704,484.399,-110.825,214.946,502.220,290.400,72.940
761,49487.112000,208.829,59.231,59.392,481.525,-114.351,223.819,540.220,265.400,101.940
762,49487.155000,249.121,62.243,67.584,478.684,-115.188,229.764,438.220,247.400,104.940
763,49487.188000,245.190,69.271,67.584,480.771,-102.102,241.982,589.220,286.400,61.940
764,49487.235000,256.000,76.298,70.656,476.015,-104.757,249.875,524.220,317.400,50.940
765,49487.272000,195.071,72.282,73.728,473.409,-88.986,262.143,691.220,388.400,-14.060
766,49487.312000,209.812,80.314,65.536,469.763,-80.479,278.232,739.220,383.400,-11.060
767,49487.333000,245.190,110.431,72.704,466.114,-71.231,285.386,648.220,401.400,-36.060
768,49487.372000,232.415,97.380,74.752,456.791,-62.019,294.520,543.220,357.400,-12.060
769,49487.414000,213.743,92.361,77.824,455.055,-51.752,305.677,642.220,354.400,-63.060
770,49487.453000,226.518,113.443,78.848,448.624,-38.799,316.884,615.220,272.400,-86.060
771,49487.490000,211.777,104.408,79.872,452.582,-26.722,323.115,504.220,174.400,-101.060
772,49487.532000,202.933,105.412,76.800,449.785,-23.953,326.154,486.220,73.400,-96.060
773,49487.550000,201.950,104.408,76.800,447.867,-25.810,326.112,306.220,-10.600,-63.060
774,49487.592000,214.726,99.388,71.680,449.994,-8.417,324.496,297.220,-46.600,-69.060
775,49487.634000,213.743,104.408,69.632,450.052,-3.895,321.608,300.220,-68.600,-51.060
776,49487.674000,208.829,106.416,58.368,451.086,2.530,321.746,254.220,-75.600,8.940
777,49487.714000,200.967,95.373,57.344,455.864,6.218,319.843,231.220,-65.600,37.940
778,49487.755000,196.054,100.392,60.416,452.986,3.413,318.784,336.220,-56.600,61.940
779,49487.790000,199.002,110.431,55.296,454.009,8.942,319.898,187.220,-45.600,31.940
780,49487.825000,186.226,108.424,70.656,455.036,15.289,316.056,258.220,-3.600,14.940
781,49487.850000,215.708,123.482,51.200,453.167,17.077,315.096,160.220,-38.600,20.940
782,49487.892000,202.933,117.459,57.344,456.020,18.050,316.116,79.220,-62.600,46.940
783,49487.930000,244.207,117.459,60.416,456.938,16.191,314.089,20.220,-124.600,51.940
784,49487.970000,284.499,118.463,70.656,454.946,9.617,306.983,-1.780,-64.600,132.940
785,49488.14000,281.551,100.392,70.656,454.053,13.308,309.050,-21.780,-22.600,126.940
786,49488.34000,285.482,102.400,84.992,451.061,1.478,314.761,60.220,161.400,60.940
787,49488.75000,275.655,116.455,73.728,454.065,13.444,316.015,197.220,235.400,-11.060
788,49488.110000,241.259,127.498,68.608,447.475,15.306,322.013,223.220,263.400,-69.060
789,49488.149000,198.019,120.471,64.512,447.514,17.295,330.012,220.220,311.400,-99.060
790,49488.192000,210.795,120.471,64.512,441.050,28.318,336.205,144.220,215.400,-60.060
791,49488.233000,192.123,117.459,68.608,438.203,27.423,339.166,25.220,213.400,-89.060
792,49488.270000,200.967,122.478,67.584,435.424,31.167,345.209,-72.780,172.400,-70.060
793,49488.290000,207.846,116.455,73.728,432.586,30.369,353.145,-157.780,170.400,-100.060
794,49488.330000,219.639,124.486,74.752,429.724,28.519,354.096,-150.780,148.400,-109.060
795,49488.379000,214.726,125.490,78.848,428.688,22.074,352.963,-212.780,150.400,-111.060
796,49488.413000,217.674,124.486,78.848,425.917,26.676,356.041,-323.780,115.400,-116.060
797,49488.453000,205.881,116.455,73.728,422.965,17.614,362.806,-309.780,110.400,-84.060
798,49488.493000,199.002,112.439,77.824,422.957,16.756,365.771,-361.780,67.400,-71.060
799,49488.513000,191.140,110.431,76.800,422.816,6.639,363.567,-421.780,54.400,-56.060
800,49488.565000,179.347,111.435,76.800,418.076,5.700,365.529,-456.780,18.400,-52.060
801,49488.594000,179.347,117.459,76.800,418.836,-8.010,366.233,-528.780,-51.600,-41.060
802,49488.633000,178.365,126.494,78.848,425.366,-14.414,362.128,-631.780,-131.600,-70.060
803,49488.680000,192.123,129.506,83.968,423.258,-29.272,352.857,-749.780,-164.600,-67.060
804,49488.714000,197.036,124.486,94.208,423.093,-41.221,350.613,-937.780,-117.600,-86.060
805,49488.752000,243.225,114.447,102.400,426.785,-47.643,347.498,-1017.780,-83.600,-76.060
806,49488.772000,279.585,79.310,111.616,421.735,-70.687,343.021,-1004.780,45.400,-38.060
807,49488.812000,195.071,63.247,112.640,418.710,-84.447,343.719,-759.780,125.400,-141.060
808,49488.852000,179.347,76.298,95.232,420.555,-87.287,337.693,-613.780,59.400,-188.060
809,49488.895000,208.829,68.267,104.448,422.321,-96.443,336.506,-865.780,-101.600,-72.060
810,49488.936000,217.674,55.216,125.952,419.322,-107.591,330.297,-730.780,-3.600,-12.060
811,49488.980000,227.501,64.251,139.264,418.158,-123.236,326.978,-645.780,110.400,14.940
812,49488.994000,191.140,66.259,136.192,414.298,-128.783,326.854,-621.780,168.400,-55.060
813,49489.38000,173.451,54.212,141.312,410.422,-135.285,324.721,-713.780,60.400,-49.060
814,49489.84000,201.950,42.165,138.240,409.344,-144.537,320.544,-674.780,37.400,-25.060
815,49489.115000,199.985,39.153,138.240,411.095,-154.629,318.342,-667.780,8.400,27.940
816,49489.160000,205.881,25.098,139.264,412.811,-166.689,309.136,-565.780,-12.600,32.940
817,49489.195000,187.209,24.094,138.240,410.824,-173.205,305.016,-356.780,-30.600,1.940
818,49489.235000,194.088,34.133,140.288,412.677,-175.948,303.966,-284.780,-49.600,-17.060
819,49489.263000,198.019,21.082,141.312,409.728,-183.432,297.835,-148.780,-50.600,18.940
820,49489.292000,188.192,30.118,149.504,406.857,-186.159,300.756,20.220,-21.600,20.940
821,49489.337000,186.226,13.051,144.384,408.835,-179.740,299.901,148.220,24.400,35.940
822,49489.374000,182.296,15.059,136.192,410.745,-178.741,302.909,327.220,-40.600,57.940
823,49489.414000,194.088,18.071,134.144,409.947,-167.779,302.147,312.220,-147.600,134.940
824,49489.455000,222.587,21.082,143.360,410.842,-171.451,301.075,411.220,-123.600,145.940
825,49489.478000,223.570,56.220,138.240,408.975,-169.643,301.111,372.220,-124.600,66.940
826,49489.513000,229.466,58.227,120.832,410.049,-160.431,303.298,249.220,-224.600,-39.060
827,49489.553000,269.758,77.302,137.216,416.767,-153.092,299.485,172.220,-201.600,-99.060
828,49489.593000,241.259,75.294,139.264,418.698,-150.299,300.542,67.220,-97.600,-224.060
829,49489.634000,265.827,72.282,141.312,422.624,-139.373,294.813,-37.780,-1.600,-226.060
830,49489.675000,240.276,69.271,136.192,423.495,-144.857,294.697,-45.780,-7.600,-261.060
831,49489.715000,214.726,72.282,128.000,423.584,-138.425,295.829,-114.780,-81.600,-299.060
832,49489.735000,201.950,64.251,117.760,427.447,-132.079,290.002,-175.780,-146.600,-297.060
833,49489.774000,199.985,59.231,121.856,435.041,-130.166,289.059,-213.780,-187.600,-258.060
834,49489.815000,202.933,52.204,124.928,438.775,-133.020,281.047,-154.780,-154.600,-168.060
835,49489.854000,218.656,60.235,121.856,438.800,-131.188,281.086,-111.780,-57.600,-131.060
836,49489.893000,211.777,60.235,123.904,442.641,-126.636,277.210,-60.780,8.400,-84.060
837,49489.935000,221.605,55.216,121.856,441.775,-121.093,280.311,-18.780,5.400,-30.060
838,49489.954000,212.760,58.227,116.736,441.702,-126.570,281.189,35.220,7.400,-27.060
839,49489.994000,201.950,52.204,113.664,441.691,-127.467,282.164,85.220,-18.600,36.940
840,49490.34000,194.088,51.200,111.616,444.594,-122.829,283.262,111.220,-11.600,50.940
841,49490.74000,185.244,47.184,116.736,443.660,-121.925,283.280,161.220,-5.600,94.940
842,49490.114000,191.140,41.161,121.856,442.635,-127.474,281.171,311.220,6.400,137.940
843,49490.155000,190.157,32.125,121.856,442.779,-118.098,292.311,335.220,72.400,152.940
844,49490.195000,212.760,40.157,128.000,440.838,-121.768,293.225,604.220,54.400,166.940
845,49490.215000,233.397,60.235,109.568,438.173,-109.759,300.439,660.220,94.400,170.940
846,49490.255000,268.775,62.243,125.952,437.201,-112.383,307.344,538.220,104.400,237.940
847,49490.294000,266.810,52.204,115.712,433.487,-107.755,312.411,606.220,255.400,252.940
848,49490.342000,199.985,68.267,109.568,428.898,-98.441,323.543,645.220,253.400,194.940
849,49490.380000,226.518,70.275,112.640,427.144,-89.149,331.695,786.220,305.400,163.940
850,49490.415000,157.727,81.318,83.968,420.693,-77.970,345.849,935.220,311.400,98.940
851,49490.434000,224.553,130.510,99.328,416.172,-63.257,352.123,981.220,166.400,103.940
852,49490.477000,201.950,136.533,119.808,417.241,-54.882,358.271,644.220,240.400,-32.060
853,49490.517000,218.656,133.522,121.856,413.556,-48.363,366.361,435.220,223.400,-42.060
854,49490.557000,179.347,98.384,119.808,408.981,-37.354,370.567,354.220,306.400,-19.060
855,49490.597000,178.365,69.271,97.280,405.220,-36.351,377.545,452.220,150.400,111.940
856,49490.637000,192.123,86.337,88.064,408.136,-30.797,378.662,530.220,-53.600,159.940
857,49490.677000,177.382,94.369,91.136,406.343,-23.493,378.815,664.220,-84.600,157.940
858,49490.696000,220.622,123.482,101.376,406.501,-11.642,376.084,672.220,-45.600,129.940
859,49490.736000,207.846,131.514,96.256,404.816,3.089,381.368,722.220,110.400,69.940
860,49490.776000,203.916,118.463,100.352,404.961,13.244,385.563,622.220,190.400,71.940
861,49490.817000,216.691,138.541,101.376,403.232,25.148,386.808,785.220,219.400,87.940
862,49490.853000,189.175,132.518,88.064,395.725,28.869,394.833,482.220,160.400,138.940
863,49490.894000,179.347,109.427,86.016,395.811,35.262,393.975,405.220,82.400,161.940
864,49490.914000,166.572,116.455,77.824,394.847,34.275,390.969,422.220,-20.600,162.940
865,49490.962000,186.226,121.475,74.752,396.813,39.778,390.094,172.220,-185.600,129.940
866,49490.997000,184.261,136.533,80.896,395.868,40.545,383.146,173.220,-139.600,-30.060
867,49491.40000,217.674,132.518,77.824,403.472,43.354,381.228,-37.780,-229.600,61.940
868,49491.75000,224.553,100.392,102.400,406.161,32.398,380.999,-106.780,-111.600,45.940
869,49491.116000,269.758,110.431,105.472,403.364,35.927,376.097,89.220,-1.600,94.940
870,49491.152000,269.758,119.467,113.664,402.410,35.057,379.061,121.220,81.400,2.940
871,49491.178000,254.035,141.553,109.568,400.622,42.420,382.199,117.220,212.400,-102.060
872,49491.212000,245.190,144.565,105.472,391.204,45.121,386.221,18.220,219.400,-135.060
873,49491.257000,213.743,146.573,98.304,392.217,49.773,389.305,-91.780,141.400,-187.060
874,49491.297000,186.226,141.553,90.112,392.208,48.896,391.276,-225.780,51.400,-182.060
875,49491.335000,177.382,138.541,87.040,392.107,41.547,390.125,-268.780,-38.600,-165.060
876,49491.376000,193.106,129.506,87.040,394.012,42.488,390.148,-388.780,-90.600,-111.060
877,49491.398000,199.985,116.455,90.112,392.901,30.547,388.897,-370.780,-71.600,-57.060
878,49491.452000,215.708,123.482,93.184,394.772,28.779,390.852,-311.780,-48.600,-27.060
879,49491.474000,209.812,123.482,99.328,394.745,26.927,389.817,-354.780,-50.600,-40.060
880,49491.515000,208.829,121.475,86.016,397.409,14.138,389.549,-382.780,-133.600,-43.060
881,49491.555000,198.019,120.471,87.040,399.184,5.860,386.392,-464.780,-204.600,-31.060
882,49491.604000,186.226,116.455,91.136,406.670,0.346,380.318,-540.780,-206.600,21.940
883,49491.643000,180.330,110.431,89.088,407.478,-8.959,372.164,-552.780,-275.600,3.940
884,49491.664000,175.417,112.439,87.040,408.258,-20.895,369.922,-567.780,-311.600,19.940
885,49491.695000,165.589,95.373,89.088,419.512,-27.334,360.849,-673.780,-314.600,11.940
886,49491.734000,184.261,92.361,80.896,419.287,-43.045,353.552,-623.780,-330.600,-60.060
887,49491.775000,220.622,100.392,97.280,424.888,-47.726,344.509,-691.780,-321.600,-5.060
888,49491.815000,244.207,79.310,111.616,427.527,-61.567,337.256,-669.780,-176.600,-33.060
889,49491.855000,231.432,79.310,113.664,426.442,-71.677,336.045,-515.780,-43.600,-72.060
890,49491.875000,218.656,77.302,94.208,430.205,-72.660,330.061,-543.780,-44.600,-141.060
891,49491.917000,202.933,72.282,96.256,428.143,-84.673,325.824,-662.780,-159.600,-130.060
892,49491.957000,256.983,76.298,110.592,431.895,-86.553,320.817,-595.780,-171.600,-97.060
893,49491.995000,226.518,66.259,118.784,434.634,-93.065,313.720,-581.780,-22.600,-95.060
894,49492.37000,225.536,79.310,115.712,428.908,-96.785,314.627,-583.780,47.400,-112.060
895,49492.83000,182.296,62.243,116.736,429.695,-108.643,316.365,-692.780,11.400,-93.060
896,49492.98000,198.019,61.239,114.688,434.374,-111.504,307.359,-653.780,-29.600,-122.060
897,49492.134000,183.278,63.247,117.760,433.245,-124.440,302.109,-688.780,-75.600,-144.060
898,49492.174000,201.950,59.231,114.688,436.984,-127.236,297.082,-599.780,-138.600,-155.060
899,49492.215000,199.002,56.220,119.808,437.856,-131.941,290.020,-506.780,-98.600,-176.060
900,49492.254000,204.898,55.216,125.952,442.531,-135.621,285.970,-468.780,-92.600,-182.060
901,49492.295000,214.726,49.192,123.904,440.594,-138.473,281.928,-406.780,-99.600,-181.060
902,49492.347000,192.123,53.208,131.072,444.359,-139.436,276.940,-292.780,-39.600,-185.060
903,49492.355000,206.864,40.157,132.096,444.424,-134.057,271.087,-212.780,-65.600,-138.060
904,49492.397000,204.898,28.110,132.096,446.306,-134.928,272.066,-73.780,-0.600,-94.060
905,49492.440000,192.123,28.110,121.856,447.366,-126.651,273.238,212.220,-67.600,-45.060
906,49492.475000,207.846,41.161,110.592,447.368,-126.632,274.233,339.220,-111.600,20.940
907,49492.515000,211.777,57.224,134.144,445.522,-123.031,272.318,374.220,-13.600,22.940
908,49492.555000,220.622,75.294,117.760,444.641,-118.424,274.404,357.220,2.400,-89.060
909,49492.575000,254.035,88.345,117.760,446.641,-110.992,278.543,284.220,-70.600,-114.060
910,49492.615000,249.121,86.337,120.832,445.777,-104.650,275.693,312.220,10.400,-71.060
911,49492.655000,253.052,107.420,114.688,448.668,-100.928,276.771,190.220,22.400,-92.060
912,49492.694000,261.896,106.416,125.952,449.733,-92.593,280.929,39.220,91.400,-120.060
913,49492.735000,237.328,97.380,131.072,444.013,-96.235,285.816,6.220,236.400,-151.060
914,49492.775000,208.829,92.361,109.568,442.261,-86.923,294.963,-72.780,295.400,-160.060
915,49492.822000,196.054,88.345,117.760,442.285,-85.870,301.948,-229.780,286.400,-117.060
916,49492.835000,188.192,84.329,117.760,438.492,-86.777,304.907,-205.780,238.400,-132.060
917,49492.875000,197.036,83.325,125.952,434.684,-88.640,305.857,-208.780,275.400,-79.060
918,49492.916000,201.950,79.310,137.216,428.987,-91.249,316.734,-74.780,383.400,4.940
919,49492.958000,209.812,76.298,136.192,423.327,-91.109,327.669,-1.780,431.400,48.940
920,49493.3000,199.985,71.278,135.168,415.675,-98.324,338.446,12.220,517.400,67.940
921,49493.39000,192.123,74.290,137.216,410.104,-90.991,342.572,80.220,493.400,67.940
922,49493.59000,184.261,73.286,143.360,401.534,-96.347,355.375,85.220,470.400,78.940
923,49493.102000,178.365,69.271,148.480,396.867,-92.569,364.401,92.220,431.400,105.940
924,49493.135000,177.382,57.224,148.480,390.225,-95.171,376.271,167.220,369.400,98.940
925,49493.175000,154.779,60.235,148.480,382.706,-92.367,384.277,237.220,332.400,79.940
926,49493.217000,157.727,57.224,159.744,379.035,-84.152,385.441,217.220,247.400,93.940
927,49493.257000,166.572,59.231,174.080,375.274,-83.149,392.419,259.220,238.400,82.940
928,49493.297000,171.486,57.224,162.816,369.722,-74.823,400.545,395.220,261.400,109.940
929,49493.317000,212.760,74.290,177.152,366.919,-72.891,407.545,417.220,216.400,136.940
930,49493.356000,164.607,94.369,172.032,358.622,-57.352,411.842,580.220,363.400,42.940
931,49493.395000,170.503,114.447,147.456,356.780,-54.472,419.857,538.220,263.400,-3.060
932,49493.435000,148.883,119.467,154.624,355.072,-41.554,426.098,477.220,220.400,-70.060
933,49493.478000,152.814,132.518,146.432,349.503,-34.203,431.219,415.220,96.400,-92.060
934,49493.516000,169.520,129.506,165.888,347.787,-21.382,432.484,187.220,142.400,-51.060
935,49493.535000,181.313,127.498,167.936,345.812,-27.762,435.329,125.220,137.400,-45.060
936,49493.576000,187.209,120.471,161.792,343.160,-14.837,442.563,151.220,224.400,-22.060
937,49493.617000,142.004,112.439,152.576,336.514,-16.717,444.502,176.220,95.400,-8.060
938,49493.655000,142.987,109.427,150.528,339.399,-13.054,442.595,225.220,60.400,-0.060
939,49493.696000,148.883,123.482,149.504,338.608,-2.015,445.813,338.220,-28.600,12.940
940,49493.745000,147.900,115.451,147.456,340.612,6.236,444.997,303.220,50.400,-10.060
941,49493.779000,138.073,124.486,145.408,337.932,18.069,443.255,506.220,101.400,-6.060
942,49493.799000,134.142,137.537,140.288,335.115,19.065,449.240,506.220,100.400,10.940
943,49493.839000,140.038,126.494,134.144,336.260,33.716,448.559,387.220,28.400,84.940
944,49493.880000,151.831,139.545,138.240,333.507,40.072,447.696,490.220,37.400,112.940
945,49493.916000,147.900,147.576,138.240,332.684,49.201,446.894,290.220,14.400,120.940
946,49493.957000,165.589,141.553,140.288,331.752,50.124,447.907,225.220,-4.600,118.940
947,49493.998000,138.073,139.545,141.312,336.402,44.612,443.818,65.220,24.400,101.940
948,49494.18000,139.056,127.498,137.216,332.727,52.788,442.992,6.220,-31.600,123.940
949,49494.59000,147.900,147.576,122.880,341.103,42.784,440.802,-61.780,-230.600,25.940
950,49494.99000,142.004,158.620,136.192,343.979,46.330,432.925,-149.780,-339.600,-35.060
951,49494.140000,184.261,132.518,134.144,353.298,36.299,428.747,-307.780,-327.600,-0.060
952,49494.180000,221.605,153.600,159.744,354.177,31.672,425.665,-194.780,-274.600,6.940
953,49494.236000,229.466,130.510,165.888,355.141,33.439,421.726,-372.780,-60.600,1.940
954,49494.260000,231.432,135.529,179.200,356.964,28.026,424.597,-104.780,106.400,0.940
955,49494.283000,217.674,144.565,174.080,350.323,26.204,429.522,-85.780,288.400,-38.060
956,49494.319000,173.451,136.533,161.792,343.698,25.337,436.456,-71.780,246.400,-36.060
957,49494.359000,172.468,134.525,147.456,338.877,18.842,435.316,-131.780,89.400,-8.060
958,49494.403000,141.021,119.467,141.312,339.779,15.248,438.225,-93.780,4.400,43.940
959,49494.438000,164.607,125.490,141.312,345.516,19.865,436.342,-51.780,-62.600,70.940
960,49494.480000,160.676,119.467,147.456,345.435,13.530,440.186,-63.780,37.400,82.940
961,49494.501000,172.468,124.486,146.432,343.539,13.466,438.192,33.220,44.400,62.940
962,49494.538000,170.503,135.529,151.552,340.652,9.783,439.104,24.220,61.400,-18.060
963,49494.583000,170.503,140.549,147.456,343.506,10.776,441.119,-39.780,2.400,-67.060
964,49494.620000,149.866,141.553,140.288,340.702,13.448,439.183,-42.780,-87.600,-127.060
965,49494.655000,146.917,134.525,138.240,348.295,15.361,438.240,-155.780,-212.600,-86.060
966,49494.700000,142.987,131.514,129.024,354.799,7.105,433.101,-241.780,-289.600,-22.060
967,49494.740000,142.987,128.502,125.952,361.329,0.702,428.995,-276.780,-374.600,28.940
968,49494.767000,142.004,127.498,129.024,364.142,-0.333,421.020,-335.780,-388.600,82.940
969,49494.800000,142.987,127.498,116.736,372.386,-19.576,414.655,-471.780,-425.600,85.940
970,49494.840000,149.866,121.475,125.952,383.652,-25.099,405.603,-563.780,-404.600,31.940
971,49494.880000,198.019,115.451,130.048,387.144,-45.418,394.234,-654.780,-341.600,4.940
972,49494.919000,220.622,96.376,142.336,390.839,-51.041,385.168,-718.780,-324.600,27.940
973,49494.959000,186.226,85.333,147.456,390.576,-69.519,376.818,-594.780,-193.600,-11.060
974,49494.982000,186.226,76.298,149.504,396.238,-70.400,374.818,-553.780,-298.600,30.940
975,49495.18000,195.071,59.231,138.240,398.821,-87.983,363.507,-433.780,-339.600,130.940
976,49495.58000,207.846,66.259,150.528,404.413,-93.522,357.429,-312.780,-308.600,128.940
977,49495.99000,205.881,66.259,146.432,409.042,-100.048,348.345,-219.780,-314.600,175.940
978,49495.138000,188.192,74.290,135.168,413.620,-110.258,338.188,-209.780,-313.600,134.940
979,49495.184000,193.106,70.275,137.216,415.531,-108.479,334.251,-282.780,-401.600,114.940
980,49495.218000,196.054,66.259,132.096,419.922,-132.412,324.796,-232.780,-366.600,92.940
981,49495.244000,199.985,65.255,131.072,422.896,-121.556,316.080,-268.780,-360.600,98.940
982,49495.279000,185.244,65.255,121.856,430.234,-137.265,303.821,-362.780,-451.600,57.940
983,49495.319000,213.743,57.224,114.688,438.699,-139.297,287.876,-411.780,-525.600,43.940
984,49495.360000,194.088,47.184,118.784,441.511,-140.351,278.906,-405.780,-473.600,-16.060
985,49495.397000,210.795,38.149,117.760,447.963,-151.511,265.747,-241.780,-494.600,-23.060
986,49495.445000,205.881,34.133,117.760,451.793,-147.095,254.906,-97.780,-385.600,-44.060
987,49495.460000,222.587,39.153,113.664,452.715,-148.135,247.923,92.220,-304.600,-49.060
988,49495.499000,206.864,48.188,105.472,453.765,-139.975,243.125,246.220,-248.600,-43.060
989,49495.549000,203.916,30.118,109.568,461.343,-139.017,240.173,218.220,-260.600,45.940
990,49495.589000,221.605,35.137,111.616,462.256,-140.935,235.160,328.220,-261.600,101.940
991,49495.631000,244.207,61.239,121.856,460.360,-140.999,233.166,366.220,-246.600,138.940
992,49495.659000,231.432,54.212,95.232,465.115,-139.124,232.219,382.220,-188.600,72.940
993,49495.698000,256.000,65.255,82.944,465.118,-138.324,226.268,279.220,-321.600,118.940
994,49495.725000,290.395,90.353,101.376,470.812,-136.515,221.342,312.220,-294.600,123.940
995,49495.760000,268.775,89.349,86.016,473.671,-134.704,218.401,112.220,-303.600,77.940
996,49495.799000,254.035,86.337,82.944,471.706,-139.426,212.329,88.220,-289.600,-5.060
997,49495.842000,229.466,77.302,80.896,478.401,-133.121,202.527,-78.780,-307.600,-27.060
998,49495.880000,217.674,68.267,73.728,481.111,-141.524,192.406,-152.780,-332.600,-55.060
999,49495.919000,211.777,66.259,72.704,484.015,-136.107,186.558,-142.780,-330.600,-36.060
1000,49495.943000,214.726,56.220,76.800,484.976,-134.379,180.628,-177.780,-320.600,-29.060
1001,49495.976000,229.466,57.224,77.824,488.750,-134.466,173.669,-159.780,-282.600,23.940
1002,49496.18000,226.518,54.212,70.656,490.429,-149.255,165.400,-90.780,-253.600,9.940
1003,49496.58000,241.259,50.196,68.608,492.424,-141.102,159.609,-102.780,-246.600,32.940
1004,49496.98000,256.983,53.208,69.632,494.293,-142.130,152.627,-66.780,-204.600,54.940
1005,49496.138000,252.069,43.169,65.536,494.202,-148.581,150.500,-25.780,-170.600,74.940
1006,49496.181000,250.104,46.180,57.344,496.111,-146.822,145.567,25.220,-192.600,82.940
1007,49496.202000,241.259,44.173,50.176,495.988,-155.184,139.421,20.220,-172.600,127.940
1008,49496.243000,234.380,36.141,57.344,494.171,-149.712,139.535,147.220,-147.600,129.940
1009,49496.277000,230.449,38.149,43.008,494.103,-154.352,136.452,222.220,-152.600,161.940
1010,49496.316000,230.449,40.157,45.056,493.057,-161.693,136.295,363.220,-103.600,182.940
1011,49496.359000,246.173,41.161,43.008,495.967,-156.977,141.372,417.220,-37.600,179.940
1012,49496.399000,239.294,49.192,43.008,497.831,-158.824,139.347,486.220,-15.600,130.940
1013,49496.419000,243.225,55.216,46.080,494.999,-158.783,143.322,403.220,73.400,91.940
1014,49496.460000,243.225,56.220,49.152,494.028,-161.388,151.222,421.220,104.400,77.940
1015,49496.500000,241.259,53.208,49.152,494.096,-156.749,154.305,384.220,129.400,51.940
1016,49496.540000,246.173,53.208,45.056,492.192,-158.450,162.223,397.220,148.400,38.940
1017,49496.580000,235.363,53.208,29.696,492.339,-148.255,168.408,473.220,155.400,78.940
1018,49496.628000,236.345,59.231,23.552,491.347,-152.653,178.259,461.220,162.400,133.940
1019,49496.661000,236.345,66.259,15.360,487.672,-145.257,184.379,395.220,117.400,118.940
1020,49496.681000,252.069,67.263,11.264,486.632,-152.521,188.201,237.220,95.400,137.940
1021,49496.723000,255.017,60.235,25.600,482.894,-149.705,194.224,199.220,143.400,136.940
1022,49496.774000,235.363,58.227,39.936,482.910,-148.750,196.233,222.220,211.400,96.940
1023,49496.799000,239.294,62.243,53.248,481.943,-151.316,206.124,112.220,288.400,91.940
1024,49496.839000,229.466,54.212,52.224,475.307,-153.079,214.033,-5.780,276.400,47.940
1025,49496.879000,234.380,52.204,49.152,473.423,-153.007,219.005,-83.780,290.400,20.940
1026,49496.901000,245.190,50.196,70.656,471.458,-159.269,227.821,-96.780,287.400,-51.060
1027,49496.945000,232.415,51.200,68.608,467.712,-156.551,228.868,19.220,287.400,-41.060
1028,49496.980000,242.242,50.196,77.824,463.991,-152.761,237.895,-38.780,300.400,-54.060
1029,49497.20000,232.415,47.184,77.824,463.078,-150.844,242.907,1.220,256.400,-77.060
1030,49497.60000,232.415,45.176,79.872,458.337,-152.563,251.815,92.220,240.400,-54.060
1031,49497.100000,228.484,47.184,83.968,457.435,-149.749,255.853,129.220,195.400,-88.060
1032,49497.154000,230.449,57.224,83.968,460.374,-142.382,256.014,102.220,135.400,-60.060
1033,49497.164000,238.311,41.161,87.040,457.632,-135.890,262.116,51.220,96.400,-59.060
1034,49497.203000,234.380,45.176,89.088,458.596,-134.902,265.122,111.220,51.400,-91.060
1035,49497.244000,230.449,57.224,80.896,459.501,-137.677,263.075,108.220,-30.600,-85.060
1036,49497.280000,232.415,50.196,80.896,462.453,-129.395,263.256,154.220,-49.600,-49.060
1037,49497.320000,228.484,50.196,77.824,462.514,-124.834,262.358,248.220,-46.600,-30.060
1038,49497.359000,228.484,58.227,74.752,464.386,-126.582,265.308,257.220,-44.600,6.940
1039,49497.379000,237.328,56.220,76.800,462.610,-118.323,267.470,217.220,12.400,30.940
1040,49497.419000,230.449,58.227,71.680,462.502,-126.510,270.280,225.220,14.400,40.940
1041,49497.459000,234.380,57.224,68.608,464.546,-115.472,271.512,249.220,16.400,35.940
1042,49497.498000,231.432,61.239,63.488,464.532,-116.407,270.498,295.220,31.400,12.940
