Sample, Time, ACCX, ACCY, ACCZ, MAGX, MAGY, MAGZ, GYRX, GYRY, GYRZ
0,36027.750000,251.058,29.674,-25.899,529.278,261.747,-15.035,87.960,-26.490,-10.020
1,36027.763000,251.058,28.668,-27.891,528.259,257.725,-21.010,92.960,-26.490,-11.020
2,36027.803000,252.046,34.703,-27.891,532.159,260.697,-19.955,77.960,-28.490,-16.020
3,36027.845000,246.116,30.680,-32.872,532.177,263.502,-24.796,20.960,-30.490,-8.020
4,36027.887000,253.035,26.656,-29.883,532.127,258.626,-25.885,73.960,-29.490,-5.020
5,36027.931000,251.058,31.686,-33.868,531.219,264.463,-24.777,66.960,-18.490,-12.020
6,36027.971000,248.093,33.697,-31.875,530.230,262.490,-25.804,81.960,-22.490,-13.020
7,36028.9000,254.023,36.715,-32.872,531.212,264.398,-27.721,54.960,-15.490,-2.020
8,36028.48000,250.069,29.674,-32.872,527.272,257.521,-29.843,67.960,19.510,-6.020
9,36028.65000,248.093,34.703,-33.868,527.274,258.428,-32.765,49.960,51.510,-9.020
10,36028.108000,248.093,34.703,-25.899,529.258,262.438,-27.768,-72.040,46.510,-2.020
11,36028.145000,248.093,26.656,-27.891,530.225,262.447,-27.766,-27.040,35.510,13.980
12,36028.183000,253.035,30.680,-34.864,529.286,264.466,-23.800,2.960,76.510,6.980
13,36028.229000,247.104,33.697,-24.903,530.246,263.526,-22.839,-103.040,73.510,7.980
14,36028.266000,254.023,25.650,-24.903,530.253,263.591,-19.895,10.960,63.510,28.980
15,36028.306000,251.058,28.668,-27.891,529.215,255.857,-18.108,18.960,84.510,20.980
16,36028.348000,249.081,33.697,-21.914,531.211,261.745,-16.012,-54.040,74.510,15.980
17,36028.388000,249.081,21.627,-17.930,531.234,263.729,-14.006,5.960,45.510,24.980
18,36028.425000,255.012,25.650,-24.903,531.229,263.686,-15.968,53.960,41.510,-1.020
19,36028.469000,251.058,37.721,-26.895,534.117,261.816,-14.043,-18.040,37.510,6.980
20,36028.508000,250.069,28.668,-19.922,535.023,255.073,-12.229,29.960,40.510,31.980
21,36028.524000,250.069,27.662,-19.922,535.967,253.097,-14.232,41.960,40.510,25.980
22,36028.566000,251.058,31.686,-20.918,536.050,260.929,-11.116,7.960,14.510,20.980
23,36028.604000,253.035,25.650,-18.926,535.070,259.927,-12.121,6.960,-11.490,26.980
24,36028.658000,253.035,31.686,-26.895,534.065,256.034,-12.210,38.960,0.510,28.980
25,36028.703000,249.081,29.674,-24.903,531.602,254.463,-259.376,12.960,22.510,29.980
26,36028.711000,252.046,25.650,-16.934,535.896,245.373,-12.442,15.960,22.510,29.980
27,36028.749000,253.035,31.686,-26.895,535.065,258.999,-10.180,29.960,49.510,39.980
28,36028.784000,248.093,27.662,-19.922,536.016,257.088,-9.240,22.960,67.510,36.980
29,36028.825000,252.046,26.656,-18.926,536.930,252.179,-12.289,54.960,43.510,36.980
30,36028.866000,251.058,24.644,-20.918,535.955,250.335,-7.429,16.960,30.510,34.980
31,36028.906000,250.069,25.650,-18.926,535.934,248.372,-8.453,13.960,39.510,26.980
32,36028.948000,253.035,28.668,-20.918,534.050,253.251,-6.387,8.960,42.510,28.980
33,36028.990000,254.023,27.662,-21.914,537.925,253.332,-4.416,41.960,70.510,45.980
34,36029.5000,247.104,33.697,-22.911,535.976,251.414,-2.502,5.960,95.510,74.980
35,36029.46000,250.069,32.692,-15.938,538.786,241.755,-1.729,97.960,116.510,107.980
36,36029.91000,253.035,17.603,-8.965,538.828,245.682,0.319,117.960,87.510,116.980
37,36029.124000,256.000,10.562,-20.918,541.730,245.710,0.326,98.960,73.510,73.980
38,36029.168000,254.023,21.627,-22.911,542.617,237.025,2.096,-69.040,114.510,4.980
39,36029.208000,254.023,19.615,-11.953,541.711,241.999,8.089,-28.040,141.510,3.980
40,36029.248000,253.035,17.603,-11.953,540.748,242.033,10.049,-48.040,163.510,-39.020
41,36029.293000,250.069,30.680,0.000,536.898,243.074,14.967,-111.040,129.510,-51.020
42,36029.329000,250.069,13.580,-4.981,541.733,242.215,17.900,-49.040,87.510,-71.020
43,36029.349000,254.023,17.603,-8.965,538.918,250.946,19.069,-57.040,84.510,-113.020
44,36029.395000,250.069,16.597,0.000,534.109,252.927,23.025,-93.040,81.510,-162.020
45,36029.426000,249.081,32.692,3.984,537.001,251.984,23.010,-51.040,47.510,-169.020
46,36029.468000,252.046,22.633,1.992,530.300,258.758,25.108,-84.040,0.510,-190.020
47,36029.509000,254.023,21.627,0.000,529.445,270.399,25.365,-163.040,-50.490,-280.020
48,36029.549000,249.081,31.686,11.953,525.590,271.375,27.339,-187.040,-121.490,-340.020
49,36029.600000,246.116,42.750,14.942,520.795,277.023,21.571,-186.040,-288.490,-351.020
50,36029.629000,250.069,37.721,6.973,514.107,287.443,12.962,-81.040,-422.490,-353.020
51,36029.649000,260.942,40.739,-13.946,509.382,301.678,0.519,79.960,-496.490,-348.020
52,36029.686000,272.803,48.786,-20.918,507.446,303.407,-8.272,8.960,-435.490,-355.020
53,36029.729000,263.907,23.639,-20.918,500.766,314.797,-16.859,-40.040,-425.490,-209.020
54,36029.791000,256.000,22.633,-73.712,500.720,310.828,-20.870,-534.040,-551.490,75.980
55,36029.808000,241.174,23.639,-62.755,502.569,301.224,-17.157,-1338.040,-569.490,352.980
56,36029.848000,244.139,-19.615,-48.809,502.550,299.282,-17.200,-690.040,-412.490,459.980
57,36029.893000,247.104,34.703,-33.868,509.134,279.931,-17.616,151.960,-102.490,469.980
58,36029.929000,238.208,52.809,-40.840,509.108,277.925,-20.602,620.960,251.510,388.980
59,36029.969000,229.313,65.886,-36.856,513.861,269.234,-20.785,460.960,426.510,445.980
60,36029.989000,222.394,78.963,-30.879,519.498,248.320,-3.586,-140.040,503.510,519.980
61,36030.29000,219.429,82.986,-55.782,521.408,241.931,13.929,-481.040,447.510,575.980
62,36030.70000,256.000,129.257,-24.903,527.211,238.449,29.554,-882.040,328.510,92.980
63,36030.110000,314.317,-43.756,31.875,524.263,232.703,34.324,121.960,359.510,228.980
64,36030.150000,250.069,50.798,-11.953,528.078,225.168,42.990,245.960,319.510,38.980
65,36030.190000,240.185,28.668,-1.992,527.197,233.034,48.066,-570.040,174.510,36.980
66,36030.240000,243.151,-1.509,5.977,529.058,224.423,52.782,235.960,160.510,73.980
67,36030.268000,255.012,21.627,-2.988,523.301,229.220,52.877,218.960,137.510,71.980
68,36030.291000,256.000,15.591,2.988,529.105,228.392,56.793,-142.040,72.510,16.980
69,36030.333000,251.058,11.568,7.969,528.149,229.375,57.794,-50.040,20.510,13.980
70,36030.365000,254.023,12.574,-3.984,527.127,223.562,58.643,-12.040,-5.490,24.980
71,36030.431000,254.023,13.580,-6.973,529.020,219.655,56.599,-2.040,0.510,27.980
72,36030.454000,257.977,13.580,-4.981,528.069,220.681,59.562,-10.040,26.510,31.980
73,36030.536000,250.069,16.597,0.000,532.885,218.764,58.549,44.960,40.510,58.980
74,36030.566000,253.035,10.562,5.977,529.069,223.646,61.591,135.960,26.510,80.980
75,36030.610000,253.035,3.521,5.977,533.841,217.782,57.548,95.960,-32.490,79.980
76,36030.639000,253.035,5.532,0.996,530.913,215.747,54.555,111.960,-57.490,42.980
77,36030.656000,256.000,7.544,-5.977,530.993,224.441,52.787,59.960,-50.490,8.980
78,36030.683000,254.023,15.591,-0.996,528.072,222.471,52.737,67.960,-32.490,-1.020
79,36030.705000,254.023,9.556,1.992,532.878,218.700,55.605,62.960,-37.490,-7.020
80,36030.748000,255.012,6.538,-8.965,531.932,221.538,52.725,18.960,-11.490,-36.020
81,36030.800000,255.012,12.574,-1.992,530.892,214.668,49.628,-56.040,-9.490,-38.020
82,36030.849000,255.012,14.585,-2.988,530.023,224.410,51.804,-35.040,5.510,-22.020
83,36030.891000,256.000,11.568,-3.984,533.904,224.556,56.718,-0.040,34.510,-24.020
84,36030.906000,252.046,19.615,-3.984,531.955,223.523,54.730,-31.040,47.510,-29.020
85,36030.928000,253.035,12.574,-3.984,529.080,227.270,49.904,7.960,36.510,-27.020
86,36030.971000,253.035,8.550,-0.996,527.097,221.513,53.694,-85.040,18.510,-70.020
87,36031.14000,252.046,13.580,1.992,527.069,218.600,53.630,-74.040,1.510,-94.020
88,36031.54000,256.988,11.568,0.000,525.209,225.464,57.701,-75.040,-13.490,-111.020
89,36031.89000,251.058,11.568,3.984,523.343,233.147,54.925,-58.040,-11.490,-131.020
90,36031.126000,256.988,21.627,-1.992,523.380,237.030,55.012,11.960,5.510,-130.020
91,36031.171000,251.058,17.603,0.000,517.618,240.900,57.047,-32.040,6.510,-135.020
92,36031.233000,251.058,21.627,0.000,518.567,238.968,57.006,-74.040,-6.490,-144.020
93,36031.260000,252.046,24.644,0.000,516.714,246.781,60.117,-140.040,-31.490,-150.020
94,36031.268000,250.069,19.615,8.965,518.687,250.683,60.208,-147.040,-75.490,-160.020
95,36031.309000,248.093,24.644,15.938,515.749,247.678,57.193,-15.040,-204.490,-186.020
96,36031.395000,252.046,31.686,8.965,510.953,253.305,50.443,-5.040,-329.490,-198.020
97,36031.423000,249.081,34.703,-5.977,511.025,263.682,36.945,-130.040,-465.490,-186.020
98,36031.439000,263.907,26.656,-9.961,508.135,266.415,30.135,-67.040,-641.490,-246.020
99,36031.476000,257.977,31.686,-34.864,510.107,273.835,13.632,148.960,-567.490,-198.020
100,36031.523000,250.069,11.568,-54.786,505.253,274.500,1.869,235.960,-376.490,-6.020
101,36031.550000,227.336,45.768,-28.887,508.087,267.710,0.743,-291.040,64.510,74.980
102,36031.571000,239.197,30.680,-56.778,509.149,274.796,13.652,-170.040,278.510,132.980
103,36031.616000,241.174,44.762,-59.767,507.098,261.336,20.213,150.960,361.510,129.980
104,36031.650000,246.116,91.033,-8.965,511.012,264.437,27.155,195.960,278.510,-29.020
105,36031.686000,256.000,19.615,-4.981,509.084,265.368,26.191,-80.040,241.510,44.980
106,36031.749000,258.965,28.668,-8.965,511.929,257.802,33.874,-31.040,161.510,62.980
107,36031.791000,256.988,19.615,-14.942,510.003,257.869,37.794,-115.040,121.510,24.980
108,36031.809000,248.093,28.668,-11.953,511.039,263.812,42.832,-40.040,137.510,12.980
109,36031.849000,249.081,34.703,-11.953,511.062,265.796,44.837,71.960,158.510,41.980
110,36031.889000,258.965,39.733,-11.953,510.962,254.276,50.465,36.960,164.510,63.980
111,36031.976000,254.023,31.686,-1.992,512.944,259.149,50.577,5.960,139.510,53.980
112,36032.0,248.093,28.668,1.992,509.993,254.245,49.482,-10.040,75.510,54.980
113,36032.30000,255.012,18.609,7.969,510.032,257.265,54.452,46.960,38.510,46.980
114,36032.45000,249.081,30.680,-5.977,511.962,257.241,52.494,19.960,-8.490,4.980
115,36032.73000,252.046,30.680,-0.996,511.953,257.154,48.570,7.960,-57.490,-3.020
116,36032.115000,256.000,24.644,-0.996,512.798,244.543,48.292,63.960,-77.490,-0.020
117,36032.151000,251.058,34.703,-16.934,510.007,256.143,47.562,53.960,-32.490,-7.020
118,36032.193000,253.035,37.721,-9.961,509.009,253.200,46.514,-6.040,-19.490,12.980
119,36032.209000,252.046,28.668,-2.988,514.875,259.124,48.620,27.960,-5.490,45.980
120,36032.250000,252.046,32.692,-14.942,512.909,256.171,47.569,84.960,34.510,56.980
121,36032.299000,249.081,33.697,-6.973,513.787,247.400,45.415,51.960,26.510,72.980
122,36032.340000,250.069,25.650,-1.992,512.860,251.296,46.480,23.960,-3.490,75.980
123,36032.398000,252.046,24.644,-3.984,512.832,248.383,46.415,72.960,-22.490,75.980
124,36032.425000,250.069,38.727,-5.977,514.764,248.380,45.439,47.960,-47.490,86.980
125,36032.449000,253.035,21.627,-12.949,519.521,240.617,43.315,59.960,-45.490,122.980
126,36032.489000,255.012,24.644,-20.918,521.471,242.535,41.401,82.960,9.510,132.980
127,36032.530000,252.046,14.585,-12.949,520.501,241.619,44.320,109.960,54.510,131.980
128,36032.550000,255.012,23.639,-0.996,521.371,231.898,43.126,167.960,51.510,122.980
129,36032.591000,254.023,10.562,-2.988,525.272,235.755,40.277,91.960,-7.490,114.980
130,36032.631000,256.000,10.562,-10.957,524.237,228.928,39.143,109.960,-28.490,73.980
131,36032.679000,257.977,9.556,-9.961,525.270,235.733,39.296,90.960,-30.490,39.980
132,36032.713000,253.035,18.609,-11.953,524.253,230.848,38.205,20.960,-34.490,14.980
133,36032.755000,251.058,21.627,-12.949,526.205,232.787,37.272,-23.040,-38.490,7.980
134,36032.791000,257.977,3.521,-9.961,526.188,231.751,34.307,-24.040,-34.490,-36.020
135,36032.829000,255.012,26.656,-15.938,525.240,233.684,34.347,-9.040,-4.490,-29.020
136,36032.855000,252.046,9.556,-12.949,525.221,230.857,38.207,-34.040,27.510,-25.020
137,36032.895000,256.000,14.585,-5.977,520.428,235.643,37.323,-22.040,14.510,-52.020
138,36032.931000,255.012,17.603,-9.961,521.353,231.726,35.276,-1.040,-0.490,-71.020
139,36032.978000,252.046,22.633,-8.965,522.417,241.465,36.476,-10.040,-2.490,-85.020
140,36033.19000,254.023,22.633,-12.949,521.410,237.551,35.406,-42.040,9.510,-89.020
141,36033.54000,256.000,15.591,-12.949,517.573,239.584,41.327,-81.040,32.510,-114.020
142,36033.96000,254.023,14.585,-4.981,513.717,241.445,39.399,-108.040,22.510,-148.020
143,36033.130000,249.081,33.697,-8.965,512.785,245.298,38.502,-95.040,-16.490,-164.020
144,36033.151000,252.046,32.692,-6.973,510.946,254.125,43.597,-189.040,-43.490,-142.020
145,36033.194000,251.058,22.633,-12.949,515.821,258.055,43.694,-97.040,-31.490,-126.020
146,36033.235000,252.046,31.686,-10.957,512.915,257.984,41.725,-83.040,-17.490,-130.020
147,36033.268000,252.046,37.721,-3.984,510.987,258.914,40.761,-77.040,-43.490,-99.020
148,36033.310000,253.035,33.697,-12.949,512.008,263.843,43.815,24.960,-22.490,-90.020
149,36033.355000,253.035,28.668,-12.949,509.132,266.705,42.892,-6.040,-12.490,-101.020
150,36033.390000,256.000,39.733,-5.977,505.276,268.566,40.964,25.960,-42.490,-110.020
151,36033.430000,259.954,29.674,0.996,504.337,271.469,41.026,-183.040,-111.490,-74.020
152,36033.474000,242.162,36.715,-7.969,506.275,272.394,38.109,-143.040,-189.490,-112.020
153,36033.490000,245.127,42.750,-4.981,502.366,269.336,33.129,-130.040,-346.490,-180.020
154,36033.530000,239.197,36.715,-27.891,499.577,281.843,29.478,-144.040,-205.490,-145.020
155,36033.569000,239.197,38.727,-48.809,500.547,281.874,30.462,-88.040,-85.490,-125.020
156,36033.616000,257.977,50.798,-28.887,499.544,278.887,27.451,159.960,33.510,-128.020
157,36033.664000,254.023,62.868,-12.949,498.657,287.572,25.681,133.960,26.510,-87.020
158,36033.699000,251.058,35.709,-16.934,495.724,284.610,24.628,39.960,-12.490,-52.020
159,36033.733000,247.104,47.780,-16.934,493.841,289.489,26.694,43.960,-14.490,-76.020
160,36033.779000,247.104,49.792,-12.949,493.879,294.257,22.877,-30.040,-64.490,-84.020
161,36033.806000,248.093,46.774,-10.957,491.921,292.253,20.867,77.960,-95.490,-75.020
162,36033.835000,255.012,58.845,-13.946,493.882,296.047,16.052,78.960,-169.490,-73.020
163,36033.869000,255.012,49.792,-12.949,489.036,295.914,12.117,3.960,-250.490,-87.020
164,36033.911000,281.699,48.786,-14.942,487.078,294.795,6.204,5.960,-331.490,-142.020
165,36033.951000,286.641,78.963,15.938,483.233,298.511,0.394,-166.040,-302.490,-142.020
166,36033.993000,285.652,37.721,-47.813,479.459,311.720,-15.011,-148.040,-893.490,-244.020
167,36034.33000,336.062,25.650,-165.354,466.870,319.408,-57.036,883.960,-1557.490,-370.020
168,36034.73000,253.035,88.016,-96.623,451.300,319.258,-101.202,732.960,-1496.490,-341.020
169,36034.111000,153.205,38.727,-17.930,438.777,329.340,-122.579,-158.040,-971.490,-118.020
170,36034.131000,108.726,93.045,47.813,438.745,327.269,-128.509,408.960,-19.490,-55.020
171,36034.174000,-15.815,34.703,-313.774,446.471,323.698,-117.784,759.960,1115.510,245.980
172,36034.214000,291.583,228.841,-253.012,458.034,315.440,-101.272,32.960,560.510,538.980
173,36034.256000,180.880,186.593,-189.261,453.203,313.688,-90.534,-663.040,-75.490,-124.020
174,36034.293000,216.463,66.892,-443.268,440.579,319.283,-139.469,1779.960,-1265.490,-410.020
175,36034.333000,209.544,224.817,-236.078,409.662,333.459,-187.272,-430.040,-2299.490,-530.020
176,36034.374000,131.459,50.798,-187.268,363.417,360.385,-222.076,-1242.040,-2707.490,-744.020
177,36034.414000,81.050,98.075,-96.623,330.573,371.974,-254.250,-8.040,-2238.490,-718.020
178,36034.446000,75.120,36.715,-49.805,290.936,379.786,-278.676,-106.040,-1395.490,-228.020
179,36034.489000,141.344,52.809,5.977,276.371,375.610,-285.664,-174.040,-399.490,237.980
180,36034.520000,201.637,41.745,24.903,287.081,378.130,-264.011,-839.040,1029.510,603.980
181,36034.556000,357.807,-13.580,16.934,317.985,367.342,-238.689,277.960,2244.510,618.980
182,36034.591000,417.112,-66.892,-407.409,343.956,345.914,-209.690,-246.040,1168.510,1095.980
183,36034.635000,230.301,50.798,-14.942,359.547,349.775,-173.287,-1335.040,1383.510,605.980
184,36034.671000,265.884,44.762,16.934,368.233,343.495,-153.794,-127.040,888.510,632.980
185,36034.715000,305.421,81.980,-21.914,377.948,343.978,-136.111,-1040.040,217.510,504.980
186,36034.754000,269.838,126.240,-62.755,384.611,332.437,-134.392,271.960,243.510,285.980
187,36034.774000,268.849,80.974,-84.669,385.576,331.540,-131.468,-3.040,106.510,242.980
188,36034.814000,266.873,16.597,-42.833,388.471,331.503,-134.405,-26.040,-94.490,47.980
189,36034.854000,235.243,-6.538,2.988,381.725,334.328,-135.337,-373.040,-660.490,-289.020
190,36034.894000,203.614,84.998,-250.023,374.912,332.990,-149.110,675.960,-429.490,-194.020
191,36034.934000,148.263,122.216,-174.319,377.845,335.952,-148.058,-152.040,303.510,93.980
192,36034.973000,299.490,51.804,-47.813,380.660,326.336,-145.323,332.960,466.510,55.980
193,36035.13000,301.467,43.756,-16.934,383.646,333.333,-137.316,-251.040,4.510,-56.020
194,36035.50000,208.556,77.957,-30.879,378.847,338.054,-141.144,-366.040,-499.490,-124.020
195,36035.75000,226.347,70.916,-68.732,369.217,345.425,-154.730,164.960,-751.490,-345.020
196,36035.118000,258.965,5.532,-40.840,354.581,339.696,-188.231,850.960,-961.490,-481.020
197,36035.155000,512.988,-0.503,-25.899,343.003,348.687,-215.514,1139.960,-1347.490,-603.020
198,36035.191000,379.552,29.674,-143.440,321.807,361.641,-234.884,-1203.040,-1937.490,-743.020
199,36035.231000,318.270,-17.603,-163.362,289.838,364.436,-270.193,632.960,-2043.490,-774.020
200,36035.271000,248.093,-5.532,-64.747,279.909,347.816,-315.694,2331.960,-302.490,-282.020
201,36035.316000,-11.861,61.862,139.455,317.537,334.872,-303.153,414.960,1162.510,368.980
202,36035.353000,-22.734,66.892,-8.965,380.507,328.386,-228.634,-1149.040,3299.510,1162.980
203,36035.393000,141.344,53.815,-195.237,447.325,316.458,-138.537,-341.040,4144.510,1147.980
204,36035.413000,205.591,224.817,-424.342,474.225,287.618,-94.010,2494.960,3802.510,637.980
205,36035.454000,-3.954,-99.081,-492.078,485.857,280.029,-47.082,695.960,1967.510,-14.020
206,36035.495000,400.309,-8.550,302.817,483.924,283.548,-62.699,-238.040,-505.490,-182.020
207,36035.530000,466.533,-19.615,9.961,480.026,284.115,-79.366,535.960,-853.490,-103.020
208,36035.579000,302.456,96.063,8.965,478.052,282.844,-92.147,-871.040,-1195.490,12.980
209,36035.610000,135.413,2.515,-137.463,471.244,281.549,-103.958,-25.040,-751.490,53.980
210,36035.655000,40.525,-49.792,-4.981,476.083,280.733,-99.062,992.960,1056.510,165.980
211,36035.690000,118.610,124.228,-225.121,484.779,272.792,-66.859,359.960,1773.510,244.980
212,36035.710000,286.641,176.534,-223.128,497.224,254.921,-46.635,-5.040,354.510,852.980
213,36035.759000,367.691,-80.974,47.813,503.973,248.600,-28.129,-511.040,532.510,283.980
214,36035.856000,335.073,21.627,19.922,507.814,244.841,-24.281,1047.960,593.510,2.980
215,36035.881000,282.687,100.086,-25.899,504.921,245.784,-24.267,-187.040,-84.490,140.980
216,36035.898000,276.757,-32.692,-39.844,507.764,239.965,-25.370,99.960,-94.490,143.980
217,36035.959000,272.803,41.745,-65.743,509.718,241.926,-25.323,92.960,150.510,47.980
218,36035.985000,256.000,37.721,-32.872,509.696,239.078,-22.444,142.960,214.510,91.980
219,36036.51000,240.185,7.544,-37.852,510.567,229.357,-23.639,719.960,217.510,96.980
220,36036.78000,259.954,3.521,1.992,507.677,230.321,-22.643,195.960,73.510,77.980
221,36036.101000,256.988,-27.662,6.973,510.596,233.154,-27.477,213.960,-191.490,-23.020
222,36036.119000,238.208,45.768,-36.856,511.559,234.005,-33.340,-104.040,-256.490,-27.020
223,36036.195000,263.907,29.674,-63.751,507.633,228.142,-33.478,-301.040,-241.490,94.980
224,36036.210000,250.069,0.503,-27.891,512.520,233.950,-36.281,-125.040,-183.490,57.980
225,36036.226000,247.104,20.621,-61.759,512.467,229.915,-43.235,-32.040,-278.490,-29.020
226,36036.253000,253.035,3.521,-25.899,507.644,232.651,-49.069,-98.040,-272.490,-22.020
227,36036.296000,273.792,-10.562,-32.872,505.712,234.423,-55.898,81.960,-354.490,-69.020
228,36036.351000,229.313,28.668,-73.712,507.632,234.291,-62.762,-323.040,-305.490,59.980
229,36036.361000,228.324,0.503,-76.700,505.659,230.389,-62.852,-212.040,-265.490,53.980
230,36036.395000,276.757,19.615,-11.953,508.576,233.200,-68.668,80.960,-328.490,-119.020
231,36036.434000,147.274,70.916,-144.436,502.735,231.029,-76.574,75.960,-314.490,-22.020
232,36036.480000,300.479,-24.644,-64.747,505.633,231.015,-78.529,299.960,120.510,82.980
233,36036.531000,267.861,7.544,-72.716,506.638,234.908,-78.441,-14.040,-46.490,-15.020
234,36036.561000,240.185,26.656,-78.693,507.567,231.033,-78.525,236.960,83.510,-6.020
235,36036.611000,271.815,10.562,-71.720,503.720,231.211,-68.722,-162.040,294.510,30.980
236,36036.643000,420.077,26.656,0.996,502.811,235.280,-59.808,-329.040,248.510,-54.020
237,36036.678000,512.988,100.086,74.708,503.855,242.193,-54.749,-1001.040,254.510,-114.020
238,36036.691000,140.355,-19.615,-159.377,493.434,262.693,-44.509,-318.040,-217.490,-603.020
239,36036.734000,-18.780,-43.756,-196.233,482.811,268.932,-64.987,1945.960,11.510,-435.020
240,36036.773000,25.699,17.603,-62.755,473.164,274.383,-77.635,917.960,119.510,-483.020
241,36036.818000,50.409,6.538,-62.755,471.344,286.036,-76.400,-241.040,9.510,-369.020
242,36036.854000,29.653,46.774,-36.856,470.402,288.033,-73.415,451.960,393.510,-225.020
243,36036.919000,348.911,-128.251,-59.767,478.095,284.139,-77.408,307.960,-260.490,454.980
244,36036.935000,404.263,105.116,-6.973,485.701,271.485,-82.576,8.960,358.510,235.980
245,36036.978000,151.228,163.458,31.875,493.389,262.262,-64.132,-1139.040,332.510,220.980
246,36037.3000,248.093,163.458,-172.327,500.097,254.669,-59.383,2053.960,613.510,392.980
247,36037.45000,257.977,-41.745,-42.833,500.039,246.190,-47.804,-958.040,105.510,310.980
248,36037.74000,288.618,-26.656,-0.996,504.906,248.286,-42.844,49.960,132.510,174.980
249,36037.115000,258.965,30.680,-43.829,509.693,241.688,-36.115,-62.040,279.510,147.980
250,36037.155000,251.058,30.680,-31.875,512.654,246.679,-31.095,-187.040,284.510,46.980
251,36037.195000,258.965,26.656,-15.938,510.695,242.906,-25.299,-172.040,175.510,45.980
252,36037.244000,240.185,7.544,-13.946,511.695,244.987,-19.367,-247.040,40.510,25.980
253,36037.294000,235.243,0.503,-8.965,511.694,244.102,-15.464,-185.040,15.510,-15.020
254,36037.308000,247.104,12.574,-6.973,511.735,249.776,-22.202,-137.040,-194.490,-103.020
255,36037.336000,249.081,37.721,-37.852,506.860,244.961,-18.397,-164.040,-198.490,-82.020
256,36037.376000,257.977,26.656,-16.934,509.746,244.838,-25.258,-170.040,-300.490,-45.020
257,36037.416000,268.849,7.544,-24.903,506.856,247.572,-32.068,57.960,-337.490,-147.020
258,36037.461000,272.803,27.662,-21.914,506.923,256.137,-39.723,-15.040,-447.490,-208.020
259,36037.494000,311.351,37.721,0.996,500.193,263.514,-54.283,-19.040,-641.490,-212.020
260,36037.534000,436.880,27.662,55.782,494.367,265.011,-71.914,-79.040,-795.490,-204.020
261,36037.576000,349.900,40.739,61.759,478.042,280.989,-88.265,-32.040,-1041.490,-670.020
262,36037.643000,205.591,-48.786,-356.607,461.565,286.697,-130.342,952.960,-1396.490,-642.020
263,36037.650000,56.340,48.786,124.514,452.914,295.070,-142.923,608.960,-284.490,-417.020
264,36037.681000,-53.375,3.521,-11.953,450.082,298.364,-124.223,-866.040,722.510,-81.020
265,36037.718000,193.730,44.762,-477.136,467.452,290.184,-106.716,544.960,409.510,708.980
266,36037.755000,342.981,-137.305,53.790,471.312,284.849,-86.233,-2212.040,726.510,222.980
267,36037.798000,208.556,206.711,-410.397,467.547,296.376,-89.907,493.960,-268.490,-246.020
268,36037.835000,299.490,63.874,-414.381,456.845,297.459,-124.229,-481.040,-1946.490,-14.020
269,36037.878000,179.892,154.405,-222.132,429.745,305.890,-170.190,-1416.040,-2527.490,-157.020
270,36037.918000,12.849,68.904,-175.315,408.601,325.510,-195.296,-1364.040,-2305.490,-323.020
271,36037.936000,36.571,102.098,-148.420,378.591,331.194,-232.499,-79.040,-1725.490,-384.020
272,36037.974000,97.853,90.028,-200.218,343.750,336.011,-262.866,37.960,-1172.490,-342.020
273,36038.15000,170.008,74.939,-197.230,317.693,346.932,-284.253,91.960,-960.490,-388.020
274,36038.55000,159.135,61.862,19.922,291.503,343.377,-302.039,75.960,-704.490,-330.020
275,36038.98000,112.680,104.110,95.626,285.737,344.572,-289.276,-241.040,458.510,-164.020
276,36038.135000,220.417,-122.216,-324.732,296.516,354.794,-270.393,-1436.040,629.510,811.980
277,36038.178000,512.988,-24.644,-49.805,319.541,331.158,-252.237,31.960,1878.510,175.980
278,36038.215000,408.216,204.699,-7.969,348.778,342.293,-199.953,-2621.040,1321.510,995.980
279,36038.258000,235.243,-33.697,160.374,357.631,348.181,-156.655,-1399.040,338.510,232.980
280,36038.276000,308.386,30.680,47.813,349.900,352.593,-173.244,277.960,-1040.490,-415.020
281,36038.314000,372.633,89.022,-200.218,339.120,344.119,-200.914,739.960,-838.490,-208.020
282,36038.356000,141.344,146.358,-168.342,335.329,354.523,-211.478,49.960,-522.490,-106.020
283,36038.393000,72.154,99.081,-229.105,338.178,349.633,-214.522,514.960,136.510,41.980
284,36038.439000,253.035,1.509,-130.490,342.000,343.931,-210.718,-119.040,260.510,62.980
285,36038.484000,160.124,69.910,-84.669,341.075,347.849,-208.672,122.960,158.510,-99.020
286,36038.514000,159.135,122.216,-131.486,341.054,345.885,-209.696,-128.040,-190.490,-90.020
287,36038.558000,255.012,77.957,-90.646,335.301,351.611,-211.543,-34.040,-194.490,-176.020
288,36038.576000,220.417,58.845,-55.782,326.630,356.272,-216.361,-249.040,-600.490,-279.020
289,36038.614000,443.799,-22.633,-6.973,311.183,362.594,-230.963,452.960,-1138.490,-455.020
290,36038.656000,434.903,73.933,-123.518,294.658,361.679,-265.341,754.960,-1411.490,-405.020
291,36038.696000,374.610,-17.603,-160.374,269.515,368.575,-293.680,543.960,-1966.490,-697.020
292,36038.738000,225.359,53.815,-130.490,244.094,349.042,-332.413,1396.960,-1134.490,-406.020
293,36038.778000,34.595,-11.568,109.572,258.541,344.157,-340.337,517.960,152.510,274.980
294,36038.818000,-53.375,19.615,59.767,319.498,337.782,-304.065,-381.040,2389.510,908.980
295,36038.855000,54.363,48.786,19.922,397.816,316.992,-224.928,-381.040,3932.510,1183.980
296,36038.914000,204.602,89.022,-263.969,446.155,300.419,-161.451,1152.960,4612.510,958.980
297,36038.936000,318.270,143.340,-490.086,477.943,269.468,-82.637,2443.960,4024.510,196.980
298,36038.960000,283.676,14.585,-462.195,482.873,268.652,-33.612,344.960,1626.510,-88.020
299,36039.1000,381.529,180.558,123.518,479.089,279.121,-41.233,297.960,-682.490,-56.020
300,36039.39000,289.606,-41.745,-74.708,487.795,276.552,-29.504,-950.040,-200.490,237.980
301,36039.88000,186.811,55.827,-94.630,489.615,266.668,-38.545,491.960,37.510,145.980
302,36039.116000,226.347,-5.532,-87.658,487.688,264.082,-22.916,-256.040,363.510,286.980
303,36039.158000,261.931,-23.639,9.961,490.536,257.422,-18.155,-393.040,151.510,127.980
304,36039.200000,263.907,66.892,19.922,492.481,261.065,-29.837,1276.960,-129.490,61.980
305,36039.219000,250.069,10.562,-57.774,496.291,257.889,-43.629,-8.040,-506.490,101.980
306,36039.258000,249.081,45.768,-67.735,495.238,250.889,-52.613,-14.040,-269.490,5.980
307,36039.296000,245.127,30.680,-2.988,495.191,246.035,-52.721,-292.040,-216.490,36.980
308,36039.344000,271.815,5.532,-24.903,499.058,246.051,-53.693,73.960,-245.490,182.980
309,36039.378000,253.035,27.662,-104.591,499.096,250.819,-57.510,188.960,193.510,-10.020
310,36039.423000,218.440,29.674,-43.829,500.077,250.958,-51.620,-29.040,434.510,6.980
311,36039.469000,264.896,6.538,8.965,501.032,248.206,-44.815,41.960,105.510,165.980
312,36039.496000,245.127,-0.503,-9.961,501.946,243.296,-47.864,64.960,-202.490,-6.020
313,36039.534000,230.301,28.668,-12.949,495.210,248.861,-56.580,-25.040,-407.490,-35.020
314,36039.558000,258.965,4.527,-42.833,498.074,248.523,-73.253,74.960,-598.490,40.980
315,36039.603000,244.139,17.603,-33.868,492.257,250.990,-90.863,79.960,-743.490,-50.020
316,36039.641000,182.857,26.656,-141.447,488.404,253.757,-95.713,-165.040,-643.490,-149.020
317,36039.679000,299.490,-22.633,16.934,484.437,245.737,-105.706,-468.040,-585.490,-19.020
318,36039.715000,245.127,42.750,-83.673,477.713,253.179,-117.323,-294.040,-634.490,-218.020
319,36039.756000,263.907,42.750,-131.486,477.789,262.715,-124.956,-343.040,-471.490,-146.020
320,36039.801000,241.174,34.703,-113.556,475.890,266.558,-125.855,275.960,70.510,-83.020
321,36039.839000,239.197,83.992,-117.541,477.721,255.898,-126.088,119.960,314.510,82.980
322,36039.858000,244.139,72.927,-111.564,481.644,259.085,-115.222,-122.040,478.510,244.980
323,36039.895000,243.151,58.845,-126.506,487.416,251.785,-96.739,-179.040,878.510,356.980
324,36039.938000,242.162,16.597,-75.704,497.125,249.570,-69.309,-555.040,1007.510,292.980
325,36039.976000,241.174,39.733,-39.844,501.985,246.316,-42.893,-410.040,904.510,220.980
326,36040.15000,245.127,-9.556,26.895,504.890,241.965,-21.409,-598.040,587.510,291.980
327,36040.58000,246.116,-18.609,-30.879,506.788,235.468,-8.801,-182.040,548.510,123.980
328,36040.96000,243.151,32.692,11.953,505.880,238.673,4.998,-448.040,376.510,-62.020
329,36040.139000,234.255,-13.580,33.868,506.810,234.799,4.914,-288.040,-29.490,20.980
330,36040.176000,256.000,14.585,-42.833,509.694,233.770,0.974,69.960,-66.490,-1.020
331,36040.201000,261.931,19.615,-44.825,506.897,243.559,6.089,-203.040,-26.490,-81.020
332,36040.239000,257.977,25.650,-59.767,506.857,238.769,8.924,44.960,169.510,-27.020
333,36040.276000,252.046,35.709,-11.953,505.957,243.808,17.860,-254.040,307.510,39.980
334,36040.320000,246.116,-33.697,24.903,506.888,239.071,22.660,-235.040,219.510,18.980
335,36040.358000,257.977,3.521,17.930,504.064,247.716,19.904,16.960,-218.490,-234.020
336,36040.400000,304.432,29.674,58.770,507.958,252.392,10.210,-216.040,-672.490,-216.020
337,36040.439000,399.320,75.945,97.619,499.271,256.903,-1.476,-665.040,-1254.490,-380.020
338,36040.476000,342.981,48.786,-229.105,485.751,268.443,-44.398,401.960,-1826.490,-782.020
339,36040.500000,203.614,-44.762,-237.074,463.484,281.279,-112.806,2987.960,-1411.490,-486.020
340,36040.538000,12.849,175.528,39.844,449.078,296.240,-132.118,-1719.040,-1327.490,-482.020
341,36040.578000,6.919,-170.499,11.953,441.493,309.972,-122.022,-1350.040,-272.490,-361.020
342,36040.616000,20.757,-74.939,-100.607,445.233,297.324,-125.237,2457.960,1342.510,-169.020
343,36040.658000,172.973,83.992,-40.840,457.774,291.816,-116.507,1678.960,1549.510,-66.020
344,36040.698000,512.988,-0.503,-21.914,456.775,287.988,-113.652,-470.040,-147.490,140.980
345,36040.740000,512.988,146.358,36.856,467.447,289.256,-104.775,-41.040,219.510,189.980
346,36040.784000,339.027,76.951,-21.914,463.596,290.276,-100.838,87.960,190.510,-103.020
347,36040.823000,292.571,86.004,-56.778,465.489,283.736,-90.192,-556.040,94.510,91.980
348,36040.836000,178.903,8.550,-418.366,460.728,292.340,-93.934,-313.040,-643.490,-140.020
349,36040.876000,195.707,38.727,-468.171,449.995,288.720,-121.495,-28.040,-1937.490,-73.020
350,36040.919000,143.320,99.081,-338.677,425.865,306.629,-179.008,-1044.040,-3032.490,-260.020
351,36040.959000,52.386,102.098,-247.035,383.407,329.278,-233.512,-1380.040,-3277.490,-599.020
352,36040.996000,-3.954,132.275,-150.412,323.553,351.929,-280.207,-720.040,-2966.490,-985.020
353,36041.56000,9.884,49.792,-76.700,264.597,364.235,-312.420,-283.040,-2087.490,-858.020
354,36041.89000,114.656,29.674,-34.864,227.921,377.037,-331.826,2.960,-1231.490,-597.020
355,36041.118000,296.525,-104.110,1.992,225.012,376.944,-334.776,275.960,512.510,-70.020
356,36041.146000,416.124,-94.051,117.541,243.229,359.691,-333.159,1085.960,2079.510,278.980
357,36041.185000,388.448,56.833,-34.864,292.421,339.395,-307.028,434.960,3062.510,703.980
358,36041.218000,512.988,-14.585,-426.335,319.338,317.761,-287.839,127.960,643.510,865.980
359,36041.256000,232.278,171.505,-65.743,340.873,333.588,-239.389,-3247.040,385.510,848.980
360,36041.300000,197.683,96.063,-9.961,351.614,339.042,-216.691,-69.040,872.510,311.980
361,36041.339000,244.139,62.868,-91.642,359.313,334.328,-213.837,174.960,394.510,202.980
362,36041.388000,270.826,37.721,-91.642,362.196,331.530,-209.970,76.960,256.510,136.980
363,36041.431000,252.046,30.680,-73.712,365.009,321.893,-208.217,-82.040,-5.490,-25.020
364,36041.456000,246.116,67.898,-87.658,359.242,326.604,-212.047,-72.040,-174.490,-41.020
365,36041.485000,232.278,64.880,-98.615,354.464,333.288,-214.851,254.960,-220.490,-129.020
366,36041.521000,233.266,42.750,-60.763,350.525,329.065,-228.682,-3.040,-546.490,-208.020
367,36041.559000,298.502,20.621,8.965,334.069,331.451,-245.335,34.960,-1061.490,-413.020
368,36041.600000,442.811,81.980,-7.969,312.678,326.691,-275.886,554.960,-1648.490,-378.020
369,36041.639000,512.988,136.299,-43.829,295.278,333.706,-302.245,39.960,-1898.490,-247.020
370,36041.676000,446.764,2.515,-172.327,262.603,358.369,-313.535,-809.040,-2044.490,-503.020
371,36041.720000,173.961,-9.556,-193.245,250.085,367.610,-329.046,208.960,-1243.490,-276.020
372,36041.756000,91.923,31.686,-113.556,254.768,353.849,-339.149,798.960,-12.490,338.980
373,36041.783000,-27.676,40.739,-30.879,288.493,337.912,-328.644,491.960,1105.510,554.980
374,36041.820000,-54.363,22.633,-121.525,335.821,323.552,-296.501,235.960,2264.510,808.980
375,36041.859000,-64.247,48.786,-145.432,371.532,308.129,-263.426,373.960,2802.510,785.980
376,36041.899000,-5.931,64.880,-153.401,422.779,292.512,-201.883,619.960,3221.510,657.980
377,36041.939000,111.691,80.974,-316.763,462.408,274.948,-135.504,914.960,3241.510,340.980
378,36041.981000,246.116,73.933,-393.463,480.659,250.100,-82.081,993.960,2634.510,353.980
379,36042.19000,512.988,184.582,-152.405,491.264,243.689,-69.452,-260.040,136.510,57.980
380,36042.61000,385.483,-117.187,-58.770,498.164,250.270,-37.910,-1378.040,695.510,306.980
381,36042.80000,403.274,159.434,52.794,499.138,250.344,-34.965,1188.960,774.510,-78.020
382,36042.118000,221.405,1.509,-26.895,504.921,246.668,-28.170,-244.040,360.510,304.980
383,36042.163000,269.838,3.521,-29.883,504.878,240.088,-18.509,-277.040,154.510,130.980
384,36042.200000,248.093,-10.562,-32.872,503.865,235.246,-17.638,-228.040,5.510,23.980
385,36042.239000,250.069,16.597,-39.844,503.936,242.085,-15.525,-89.040,-12.490,-18.020
386,36042.281000,237.220,-1.509,-28.887,505.871,242.104,-15.520,169.960,-22.490,-9.020
387,36042.319000,261.931,20.621,-20.918,501.969,239.995,-21.459,179.960,-116.490,-48.020
388,36042.363000,260.942,3.521,-30.879,503.937,244.739,-27.234,160.960,-172.490,-19.020
389,36042.401000,241.174,0.503,-26.895,501.913,236.823,-33.298,331.960,-158.490,-83.020
390,36042.423000,251.058,20.621,-43.829,501.933,240.534,-41.061,580.960,-121.490,-90.020
391,36042.465000,243.151,52.809,-41.837,496.176,246.217,-44.869,459.960,-119.490,-122.020
392,36042.506000,254.023,4.527,-40.840,500.035,247.031,-53.669,143.960,-237.490,-19.020
393,36042.544000,246.116,12.574,-47.813,499.977,242.069,-58.683,238.960,-194.490,-75.020
394,36042.581000,256.988,27.662,-35.860,492.259,246.611,-69.385,237.960,-255.490,-160.020
395,36042.620000,245.127,33.697,-27.891,492.255,247.452,-75.251,-19.040,-408.490,-44.020
396,36042.658000,267.861,13.580,0.996,487.403,249.023,-89.936,157.960,-728.490,-13.020
397,36042.711000,238.208,1.509,-30.879,487.394,252.454,-110.454,26.960,-945.490,-82.020
398,36042.719000,152.216,-20.621,-85.665,480.590,252.086,-124.205,-129.040,-879.490,-117.020
399,36042.768000,311.351,37.721,-149.416,468.877,245.694,-144.966,142.960,-644.490,-174.020
400,36042.799000,228.324,57.839,-157.385,465.098,256.207,-150.624,5.960,-335.490,-136.020
401,36042.839000,310.363,40.739,-123.518,470.975,263.124,-147.517,-34.040,202.510,-78.020
402,36042.880000,487.290,104.110,-54.786,466.149,262.300,-138.719,-112.040,331.510,-73.020
403,36042.919000,512.988,116.181,-19.922,471.099,269.596,-117.953,-1575.040,769.510,301.980
404,36042.964000,95.876,-95.057,-215.160,455.746,280.341,-107.940,-1037.040,-473.490,-546.020
405,36043.0,-162.100,-72.927,-210.179,452.875,284.131,-110.804,357.960,126.510,101.980
406,36043.43000,-153.205,123.222,-85.665,456.851,292.238,-96.886,-872.040,378.510,-207.020
407,36043.59000,-75.120,-232.864,-427.331,464.500,284.395,-103.909,2482.960,869.510,144.980
408,36043.103000,512.988,236.888,-80.685,472.140,273.834,-102.166,146.960,484.510,390.980
409,36043.140000,364.726,54.821,-9.961,477.948,271.280,-88.481,151.960,329.510,223.980
410,36043.184000,465.544,5.532,-19.922,485.499,251.054,-84.991,803.960,679.510,385.980
411,36043.219000,214.486,62.868,-110.568,493.365,259.392,-62.235,-1367.040,486.510,348.980
412,36043.263000,315.305,2.515,-45.821,495.190,245.150,-48.818,98.960,570.510,214.980
413,36043.300000,241.174,7.544,-47.813,501.101,251.506,-27.090,-552.040,639.510,189.980
414,36043.348000,239.197,41.745,-15.938,498.154,244.013,-13.533,-340.040,359.510,16.980
415,36043.361000,244.139,-22.633,-16.934,502.989,243.154,-10.600,-234.040,153.510,78.980
416,36043.398000,231.290,13.580,-39.844,499.149,245.166,-5.660,-47.040,142.510,-16.020
417,36043.440000,250.069,40.739,-15.938,500.135,246.233,-1.711,-197.040,55.510,-38.020
418,36043.483000,246.116,1.509,6.973,500.192,252.058,-1.582,-100.040,-170.490,-28.020
419,36043.525000,239.197,19.615,-14.942,501.120,249.047,-6.550,0.960,-259.490,-69.020
420,36043.563000,262.919,27.662,-15.938,497.324,258.524,-15.174,-47.040,-377.490,-91.020
421,36043.601000,249.081,21.627,-76.700,497.216,248.685,-21.276,-62.040,-281.490,-83.020
422,36043.644000,251.058,17.603,-30.879,494.458,263.242,-19.978,-98.040,-108.490,-101.020
423,36043.681000,268.849,39.733,-5.977,494.444,263.112,-25.865,-129.040,-269.490,-129.020
424,36043.700000,296.525,50.798,23.907,490.507,258.026,-34.812,-196.040,-604.490,-130.020
425,36043.746000,481.359,123.222,50.802,486.672,264.483,-48.406,-944.040,-960.490,61.980
426,36043.780000,305.421,74.939,-66.739,478.974,271.850,-62.969,-1061.040,-1446.490,-430.020
427,36043.820000,130.471,-45.768,-492.078,453.927,293.763,-114.511,1220.960,-1706.490,-683.020
428,36043.860000,-213.498,125.234,13.946,438.376,292.922,-145.943,1331.960,-1175.490,-752.020
429,36043.904000,-186.811,-58.845,-47.813,425.040,315.033,-149.403,-973.040,219.510,-760.020
430,36043.945000,10.873,-6.538,-234.086,432.675,306.177,-158.410,2579.960,991.510,-161.020
431,36043.979000,512.988,215.764,42.833,439.466,304.668,-141.757,-2179.040,556.510,446.980
432,36043.999000,240.185,202.688,-74.708,450.180,305.462,-110.336,-1174.040,235.510,128.980
433,36044.43000,102.795,107.128,-435.300,446.289,306.978,-127.963,479.960,-421.490,-38.020
434,36044.86000,150.239,130.263,-439.284,422.079,313.560,-171.017,-364.040,-2022.490,-290.020
435,36044.119000,58.317,89.022,-336.685,395.068,329.002,-207.015,-1379.040,-3242.490,-713.020
436,36044.160000,35.583,98.075,-137.463,324.569,354.161,-267.406,-43.040,-3309.490,-1331.020
437,36044.221000,9.884,59.851,-60.763,255.017,374.734,-316.129,641.960,-2321.490,-1310.020
438,36044.249000,52.386,-71.921,28.887,218.936,352.271,-351.027,1546.960,-483.490,-339.020
439,36044.281000,225.359,117.187,139.455,232.319,334.129,-343.556,387.960,1499.510,212.980
440,36044.324000,512.988,-114.169,-349.634,272.151,342.282,-299.162,-1506.040,2244.510,569.980
441,36044.343000,339.027,73.933,200.218,284.738,339.859,-282.518,-339.040,1180.510,326.980
442,36044.381000,444.788,34.703,51.798,307.243,355.717,-233.085,-2811.040,509.510,731.980
443,36044.420000,291.583,159.434,-8.965,322.855,362.427,-199.561,-1405.040,91.510,541.980
444,36044.463000,276.757,168.487,-49.805,328.689,362.764,-186.793,-139.040,84.510,258.980
445,36044.500000,209.544,159.434,-106.584,331.502,354.011,-188.942,292.960,190.510,144.980
446,36044.541000,229.313,-17.603,-135.471,336.431,363.745,-189.696,315.960,237.510,-108.020
447,36044.580000,203.614,-53.815,-105.588,334.439,357.016,-185.927,-65.040,-48.490,-149.020
448,36044.624000,132.448,73.933,-70.724,329.671,365.556,-192.612,-105.040,-478.490,-233.020
449,36044.644000,367.691,61.862,-20.918,311.278,367.901,-210.251,798.960,-812.490,-562.020
450,36044.694000,363.737,84.998,-36.856,293.722,361.087,-247.704,1105.960,-1195.490,-709.020
451,36044.721000,444.788,68.904,-118.537,257.851,361.774,-288.953,983.960,-1824.490,-663.020
452,36044.761000,373.622,73.933,-111.564,229.821,369.677,-314.333,207.960,-1693.490,-694.020
453,36044.799000,209.544,68.904,-214.163,215.230,366.127,-336.998,655.960,-998.490,-488.020
454,36044.855000,151.228,43.756,-79.689,217.992,354.246,-349.024,546.960,-387.490,-62.020
455,36044.885000,62.270,47.780,-62.755,230.491,345.696,-346.245,303.960,814.510,510.980
456,36044.920000,-10.873,31.686,-90.646,270.167,342.673,-324.654,-226.040,1609.510,862.980
457,36044.963000,-24.710,45.768,-69.728,333.070,336.425,-283.473,-202.040,2478.510,1095.980
458,36044.981000,-12.849,71.921,-171.331,392.919,309.329,-218.244,190.960,3425.510,1039.980
459,36045.24000,144.309,56.833,-172.327,449.907,283.477,-139.264,564.960,3904.510,896.980
460,36045.60000,249.081,115.175,-467.175,475.083,270.734,-67.905,798.960,3204.510,445.980
461,36045.101000,283.676,-56.833,-492.078,481.824,260.811,-36.730,-294.040,1573.510,544.980
462,36045.144000,276.757,11.568,84.669,488.637,262.150,-22.957,-1130.040,142.510,23.980
463,36045.184000,337.050,128.251,-136.467,496.353,254.954,-0.545,-82.040,1023.510,382.980
464,36045.223000,333.097,43.756,34.864,495.382,254.039,2.374,1135.960,538.510,101.980
465,36045.260000,250.069,11.568,-14.942,494.326,245.248,0.216,-157.040,-49.490,276.980
466,36045.280000,246.116,0.503,-2.988,494.333,247.082,-4.647,26.960,-367.490,28.980
467,36045.339000,262.919,-18.609,-43.829,495.231,242.906,-18.467,462.960,-502.490,41.980
468,36045.360000,234.255,59.851,-27.891,496.205,246.497,-32.114,471.960,-439.490,-36.020
469,36045.405000,239.197,1.509,-70.724,496.164,244.340,-41.969,12.960,-519.490,-7.020
470,36045.444000,260.942,35.709,-57.774,495.160,243.101,-53.766,190.960,-391.490,-83.020
471,36045.483000,257.977,-3.521,-61.759,494.219,246.867,-58.588,8.960,-266.490,-54.020
472,36045.526000,275.768,33.697,-104.591,495.149,243.877,-62.575,197.960,-89.490,40.980
473,36045.565000,245.127,35.709,-96.623,494.205,244.968,-56.669,265.960,443.510,-36.020
474,36045.603000,242.162,31.686,-20.918,492.304,247.042,-49.762,-26.040,451.510,38.980
475,36045.636000,239.197,23.639,-11.953,493.264,244.333,-40.995,-207.040,171.510,81.980
476,36045.663000,228.324,20.621,-22.911,495.154,239.519,-40.117,-385.040,-107.490,130.980
477,36045.701000,233.266,17.603,-18.926,498.045,239.439,-45.016,-245.040,-522.490,47.980
478,36045.748000,249.081,-9.556,-37.852,495.144,242.065,-56.731,-182.040,-560.490,-81.020
479,36045.781000,249.081,18.609,-90.646,491.209,237.885,-68.600,89.960,-454.490,-202.020
480,36045.823000,243.151,33.697,-106.584,486.455,247.439,-73.302,113.960,-322.490,-298.020
481,36045.863000,275.768,88.016,-51.798,483.558,249.223,-79.152,-130.040,-204.490,-56.020
482,36045.905000,304.432,29.674,-85.665,486.458,249.229,-80.127,35.960,-172.490,150.980
483,36045.930000,348.911,8.550,-62.755,485.428,243.330,-83.202,-66.040,-144.490,-97.020
484,36045.964000,452.695,91.033,-48.809,480.694,253.078,-79.073,-113.040,259.510,-6.020
485,36046.1000,401.297,191.623,104.591,474.007,258.233,-62.301,-1626.040,-118.490,-313.020
486,36046.44000,-285.652,-142.334,-328.716,465.445,276.271,-76.629,1148.960,-358.490,-362.020
487,36046.86000,-278.734,132.275,31.875,465.360,267.533,-76.823,644.960,308.510,-56.020
488,36046.124000,-245.127,-291.206,-492.078,473.140,270.629,-71.834,1352.960,528.510,521.980
489,36046.161000,512.988,235.882,-17.930,485.491,249.220,-80.129,406.960,168.510,674.980
490,36046.204000,337.050,-66.892,-58.770,488.296,238.633,-77.416,590.960,-67.490,173.980
491,36046.246000,457.637,14.585,-51.798,495.899,224.189,-75.759,500.960,465.510,323.980
492,36046.269000,221.405,-41.745,-87.658,499.880,232.339,-59.879,-564.040,440.510,193.980
493,36046.304000,285.652,23.639,-61.759,506.631,226.040,-40.392,-402.040,745.510,228.980
494,36046.344000,250.069,5.532,-51.798,505.676,224.391,-26.701,-405.040,730.510,51.980
495,36046.384000,250.069,11.568,-12.949,508.638,226.749,-8.991,-482.040,566.510,-2.020
496,36046.423000,237.220,0.503,-21.914,507.723,228.120,9.670,-286.040,473.510,-14.020
497,36046.461000,246.116,7.544,-7.969,504.854,229.300,20.478,-422.040,295.510,-38.020
498,36046.504000,250.069,0.503,11.953,507.794,231.443,28.377,-404.040,130.510,-65.020
499,36046.543000,233.266,7.544,-28.887,504.889,230.508,31.292,-166.040,81.510,-73.020
500,36046.561000,239.197,29.674,-31.875,502.974,231.568,36.215,-55.040,119.510,-114.020
501,36046.606000,266.873,9.556,53.790,501.993,231.429,30.326,-187.040,-235.490,-70.020
502,36046.645000,272.803,-20.621,20.918,501.020,232.240,23.477,188.960,-610.490,-155.020
503,36046.683000,307.398,46.774,17.930,503.044,246.326,1.239,231.960,-886.490,-316.020
504,36046.728000,431.938,84.998,9.961,493.382,252.510,-22.180,-133.040,-1069.490,-210.020
505,36046.764000,439.846,87.010,159.377,480.873,262.722,-37.670,-1327.040,-1160.490,-629.020
506,36046.810000,199.660,-62.868,-418.366,456.857,290.533,-86.137,2067.960,-1343.490,-1222.020
507,36046.843000,90.934,3.521,-313.774,434.585,301.557,-148.701,2446.960,-1556.490,-855.020
508,36046.881000,-148.263,44.762,97.619,415.284,307.992,-156.445,-1083.040,-740.490,-521.020
509,36046.906000,-57.328,-95.057,53.790,416.453,325.779,-142.318,-246.040,736.510,-257.020
510,36046.944000,433.915,146.358,-481.121,428.895,312.288,-143.572,1331.960,-67.490,208.980
511,36046.986000,512.988,280.141,322.739,436.553,301.900,-133.980,-889.040,394.510,442.980
512,36047.25000,501.127,253.988,46.817,440.490,306.101,-121.130,-759.040,190.510,205.980
513,36047.64000,276.757,107.128,-158.381,435.745,314.857,-118.003,-371.040,-199.490,-215.020
514,36047.109000,120.587,38.727,-492.078,430.891,317.291,-137.573,863.960,-1431.490,-327.020
515,36047.170000,32.618,107.128,-390.475,402.768,322.541,-195.374,-76.040,-2517.490,-343.020
516,36047.185000,-33.606,76.951,-242.054,357.327,335.582,-244.214,-1439.040,-3264.490,-484.020
517,36047.204000,-68.201,86.004,-96.623,301.423,365.197,-284.862,-662.040,-2866.490,-910.020
518,36047.246000,-59.305,80.974,-76.700,241.525,380.384,-317.994,-190.040,-2150.490,-931.020
519,36047.290000,19.768,-27.662,-36.856,205.694,379.690,-333.775,236.960,-759.490,-351.020
520,36047.321000,156.170,-16.597,-67.735,215.110,354.412,-340.200,745.960,906.510,120.980
521,36047.365000,413.158,21.627,-37.852,239.238,347.053,-332.468,601.960,2944.510,517.980
522,36047.403000,512.988,-31.686,-328.716,276.000,340.357,-300.177,-634.040,1965.510,776.980
523,36047.445000,351.876,124.228,-4.981,308.943,338.520,-265.825,-66.040,1495.510,1010.980
524,36047.485000,285.652,101.092,40.840,329.364,340.594,-224.548,-2503.040,775.510,848.980
525,36047.524000,303.444,54.821,29.883,341.053,344.116,-201.890,-84.040,364.510,312.980
526,36047.543000,229.313,90.028,-102.599,344.812,333.410,-205.062,590.960,249.510,100.980
527,36047.584000,255.012,67.898,-90.646,343.833,331.523,-202.164,-76.040,96.510,89.980
528,36047.623000,257.977,52.809,-85.665,341.015,340.233,-201.977,-7.040,-129.490,-78.020
529,36047.673000,234.255,64.880,-102.599,341.020,341.160,-203.917,52.960,-233.490,-113.020
530,36047.705000,219.429,58.845,-96.623,337.166,344.790,-213.651,144.960,-355.490,-193.020
531,36047.743000,231.290,61.862,-100.607,327.448,342.517,-224.510,35.960,-524.490,-221.020
532,36047.786000,283.676,50.798,-65.743,311.049,349.865,-236.149,149.960,-830.490,-386.020
533,36047.826000,353.853,79.969,-3.984,297.531,357.025,-257.593,-49.040,-1304.490,-470.020
534,36047.845000,473.452,71.921,-110.568,276.259,362.212,-277.136,-149.040,-2034.490,-392.020
535,36047.888000,335.073,0.503,-108.576,251.216,376.228,-290.607,-602.040,-1911.490,-500.020
536,36047.931000,138.378,56.833,-200.218,235.699,376.595,-311.225,557.960,-980.490,-95.020
537,36047.964000,92.911,51.804,-98.615,236.465,359.711,-329.251,808.960,-300.490,141.980
538,36048.6000,65.236,40.739,-42.833,264.485,355.238,-324.387,477.960,597.510,604.980
539,36048.46000,28.664,51.804,-51.798,311.814,341.763,-296.148,40.960,1863.510,872.980
540,36048.84000,19.768,30.680,-138.459,371.658,318.140,-249.474,-2.040,2536.510,929.980
541,36048.126000,28.664,63.874,-186.272,408.409,307.819,-205.496,854.960,3432.510,828.980
542,36048.169000,120.587,65.886,-256.000,455.742,285.583,-134.301,971.960,3639.510,705.980
543,36048.191000,276.757,100.086,-385.494,479.860,264.913,-69.986,1027.960,3007.510,413.980
544,36048.226000,243.151,-100.086,-492.078,486.584,249.553,-21.280,-79.040,1660.510,293.980
545,36048.265000,349.900,121.210,-123.518,493.362,248.799,-14.417,-1179.040,260.510,-119.020
546,36048.306000,354.842,-99.081,-49.805,491.420,242.545,10.937,-226.040,800.510,314.980
547,36048.344000,246.116,86.004,17.930,493.383,245.476,11.006,1180.960,434.510,83.980
548,36048.388000,247.104,-2.515,-31.875,497.222,242.580,9.969,219.960,55.510,168.980
549,36048.425000,253.035,73.933,21.914,493.360,244.376,5.098,300.960,-16.490,37.980
550,36048.468000,261.931,-10.562,2.988,500.081,240.429,-0.860,-4.040,-394.490,104.980
551,36048.486000,234.255,33.697,-94.630,497.158,240.207,-9.697,159.960,-382.490,38.980
552,36048.524000,234.255,36.715,-63.751,498.081,236.268,-12.724,-427.040,-251.490,-22.020
553,36048.570000,272.803,29.674,-33.868,494.240,240.027,-16.571,126.960,-184.490,119.980
554,36048.606000,250.069,5.532,-86.661,494.160,232.217,-18.706,-116.040,-10.490,32.980
555,36048.648000,263.907,5.532,-27.891,495.127,231.342,-14.801,51.960,159.510,16.980
556,36048.691000,244.139,5.532,-12.949,500.011,235.359,-10.779,-112.040,23.510,24.980
557,36048.724000,253.035,2.515,-4.981,499.049,236.277,-12.722,-25.040,-134.490,-37.020
558,36048.765000,242.162,20.621,-16.934,493.205,234.085,-21.609,-66.040,-443.490,-73.020
559,36048.790000,241.174,-1.509,-33.868,496.130,238.730,-32.287,196.960,-490.490,-99.020
560,36048.831000,233.266,17.603,-39.844,495.138,239.368,-46.985,153.960,-741.490,-175.020
561,36048.865000,227.336,-13.580,-45.821,487.415,244.730,-64.534,46.960,-706.490,-176.020
562,36048.908000,237.220,28.668,-99.611,482.581,248.242,-79.176,358.960,-551.490,-334.020
563,36048.946000,233.266,-16.597,-106.584,474.845,250.842,-89.922,199.960,-312.490,-289.020
564,36048.985000,271.815,63.874,-68.732,470.040,255.498,-96.693,209.960,-151.490,-195.020
565,36049.33000,254.023,112.157,-133.479,471.010,256.414,-99.613,215.960,62.510,-116.020
566,36049.69000,251.058,69.910,-135.471,473.965,258.708,-84.846,-263.040,596.510,135.980
567,36049.109000,254.023,63.874,-92.638,480.714,253.272,-70.242,-392.040,861.510,308.980
568,36049.139000,246.116,20.621,-60.763,492.321,248.078,-46.797,-615.040,869.510,412.980
569,36049.174000,242.162,12.574,-30.879,492.223,232.177,-19.692,-707.040,835.510,324.980
570,36049.206000,235.243,-30.680,5.977,496.206,238.579,4.975,-573.040,739.510,244.980
571,36049.246000,231.290,-20.621,-5.977,501.055,236.102,22.582,-367.040,535.510,81.980
572,36049.284000,236.232,-4.527,4.981,499.102,231.509,35.225,-120.040,370.510,-2.020
573,36049.330000,245.127,-11.568,4.981,498.178,236.311,33.368,17.960,104.510,-30.020
574,36049.366000,251.058,36.715,0.996,498.175,235.405,36.290,-14.040,-88.490,-112.020
575,36049.409000,255.012,-5.532,11.953,497.237,240.077,28.546,59.960,-415.490,-84.020
576,36049.424000,245.127,48.786,-53.790,493.337,238.874,19.685,212.960,-225.490,-115.020
577,36049.469000,265.884,31.686,-9.961,496.289,244.663,16.878,-258.040,-159.490,-48.020
578,36049.505000,267.861,-2.515,-6.973,496.226,238.773,13.805,-121.040,-242.490,-60.020
579,36049.545000,266.873,13.580,-41.837,490.519,250.216,7.183,-74.040,-304.490,-193.020
580,36049.585000,307.398,57.839,-12.949,493.374,246.274,3.179,-264.040,-290.490,-165.020
581,36049.628000,374.610,102.098,30.879,488.657,258.827,2.467,-603.040,-320.490,-174.020
582,36049.665000,349.900,2.515,49.805,482.927,268.285,-6.162,275.960,-529.490,-667.020
583,36049.711000,285.652,-49.792,-351.626,467.583,288.803,-37.120,1464.960,-1000.490,-838.020
584,36049.745000,197.683,97.069,-375.533,441.390,295.776,-105.666,1868.960,-1883.490,-773.020
585,36049.769000,200.649,69.910,-233.089,413.444,318.567,-160.136,-877.040,-2809.490,-541.020
586,36049.806000,86.981,29.674,-156.389,378.778,342.672,-195.959,-1273.040,-2766.490,-576.020
587,36049.863000,-12.849,30.680,-136.467,355.565,349.543,-226.256,393.960,-2141.490,-773.020
588,36049.890000,-79.073,104.110,-147.424,313.872,350.886,-279.270,1025.960,-1794.490,-791.020
589,36049.924000,-72.154,73.933,-149.416,270.246,348.714,-314.714,222.960,-1588.490,-703.020
590,36049.969000,-31.629,51.804,-171.331,236.375,352.678,-340.194,172.960,-1185.490,-448.020
591,36050.8000,43.490,44.762,-57.774,223.825,357.215,-348.946,-413.040,-51.490,-57.020
592,36050.49000,125.529,28.668,10.957,244.233,361.815,-325.265,-765.040,1486.510,564.980
593,36050.76000,341.992,82.986,-385.494,268.456,360.648,-300.723,-930.040,2062.510,949.980
594,36050.108000,512.988,48.786,141.447,298.413,350.929,-270.475,-348.040,1782.510,39.980
595,36050.148000,423.042,26.656,108.576,317.803,347.989,-236.176,-528.040,1237.510,874.980
596,36050.188000,272.803,18.609,35.860,335.347,354.696,-203.629,-1646.040,427.510,538.980
597,36050.228000,246.116,122.216,-70.724,345.973,352.879,-202.666,208.960,285.510,242.980
598,36050.266000,190.764,27.662,-132.482,348.748,340.243,-204.902,339.960,-4.490,91.980
599,36050.310000,234.255,21.627,-135.471,345.815,337.281,-205.955,-48.040,-49.490,54.980
600,36050.349000,215.475,94.051,-78.693,347.797,342.154,-205.842,-104.040,-204.490,-47.020
601,36050.386000,183.846,78.963,-41.837,339.140,348.714,-212.580,-8.040,-606.490,-201.020
602,36050.406000,350.888,29.674,-12.949,326.545,351.936,-237.051,480.960,-1154.490,-424.020
603,36050.456000,424.031,73.933,5.977,307.101,348.188,-266.595,532.960,-1343.490,-348.020
604,36050.489000,393.390,111.151,-222.132,282.978,359.128,-287.978,-479.040,-1878.490,-397.020
605,36050.535000,256.000,44.762,-175.315,259.865,372.235,-299.503,-442.040,-1502.490,-477.020
606,36050.568000,181.869,7.544,-147.424,253.097,373.097,-301.460,-147.040,-871.490,-65.020
607,36050.606000,61.282,30.680,-200.218,265.705,377.038,-304.288,376.960,201.510,318.980
608,36050.651000,45.467,29.674,-77.696,291.740,365.016,-288.809,277.960,978.510,444.980
609,36050.690000,25.699,50.798,-79.689,334.186,347.546,-263.610,391.960,2060.510,845.980
610,36050.709000,10.873,68.904,-173.323,382.407,321.911,-215.045,330.960,2621.510,1010.980
611,36050.748000,57.328,107.128,-227.113,429.775,306.170,-157.435,479.960,2982.510,796.980
612,36050.790000,105.761,77.957,-235.082,459.725,288.469,-93.041,474.960,2959.510,498.980
613,36050.838000,217.452,150.381,-361.588,470.366,281.517,-60.811,541.960,2143.510,313.980
614,36050.865000,418.100,141.328,-375.533,473.165,268.234,-48.352,485.960,186.510,252.980
615,36050.909000,266.873,-35.709,16.934,480.924,265.850,-27.794,-740.040,599.510,232.980
616,36050.956000,309.375,41.745,-14.942,481.902,265.082,-18.983,431.960,740.510,118.980
617,36050.989000,257.977,77.957,-25.899,486.723,260.577,-5.344,308.960,749.510,201.980
618,36051.8000,256.000,44.762,-12.949,492.508,256.923,2.432,-36.040,227.510,168.980
619,36051.46000,255.012,18.609,20.918,492.485,254.938,0.427,125.960,-9.490,198.980
620,36051.89000,253.035,-1.509,-30.879,490.452,246.052,-5.658,301.960,-212.490,36.980
621,36051.135000,247.104,47.780,-49.805,490.452,246.937,-9.561,-58.040,-153.490,38.980
622,36051.170000,256.988,17.603,-43.829,490.516,254.596,-14.295,-77.040,-170.490,-0.020
623,36051.208000,236.232,36.715,-45.821,494.339,248.894,-10.490,-304.040,-95.490,-64.020
624,36051.246000,254.023,-6.538,-48.809,494.299,245.874,-15.461,200.960,-10.490,5.980
625,36051.288000,256.000,40.739,-53.790,490.493,252.611,-16.300,170.960,55.510,-3.020
626,36051.330000,250.069,26.656,-45.821,493.294,241.981,-15.549,73.960,113.510,-0.020
627,36051.355000,254.023,2.515,0.000,492.378,246.869,-13.482,239.960,30.510,67.980
628,36051.385000,249.081,3.521,-37.852,491.463,252.642,-15.317,203.960,-7.490,26.980
629,36051.426000,246.116,33.697,-35.860,494.316,247.794,-16.399,232.960,57.510,-42.020
630,36051.471000,260.942,3.521,30.879,493.340,248.583,-24.229,340.960,-124.490,-48.020
631,36051.518000,241.174,14.585,-9.961,490.460,254.056,-38.823,704.960,-349.490,-85.020
632,36051.551000,241.174,11.568,11.953,484.608,253.547,-59.441,309.960,-737.490,-154.020
633,36051.588000,253.035,67.898,-69.728,483.652,258.047,-75.034,20.960,-996.490,6.980
634,36051.628000,244.139,38.727,-77.696,478.706,250.794,-93.838,22.960,-880.490,45.980
635,36051.646000,205.591,-1.509,-122.521,478.661,250.362,-113.460,-8.040,-799.490,3.980
636,36051.709000,270.826,13.580,-96.623,472.870,254.837,-128.083,12.960,-616.490,-91.020
637,36051.731000,196.695,24.644,-142.444,467.038,253.637,-135.967,-174.040,-450.490,-245.020
638,36051.768000,310.363,75.945,-160.374,463.244,261.366,-135.804,-81.040,-21.490,-23.020
639,36051.815000,205.591,93.045,-113.556,462.257,259.415,-135.849,-213.040,197.510,-8.020
640,36051.848000,293.560,61.862,-96.623,466.115,256.691,-129.037,-138.040,217.510,201.980
641,36051.888000,306.409,38.727,-79.689,465.148,254.934,-120.252,-115.040,277.510,178.980
642,36051.933000,512.988,67.898,-22.911,473.901,256.334,-104.512,-593.040,483.510,400.980
643,36051.950000,204.602,93.045,-85.665,474.018,262.742,-77.892,-1674.040,-11.490,-26.020
644,36052.3000,-263.907,-114.169,-325.728,465.298,263.412,-87.702,548.960,-191.490,-250.020
645,36052.30000,-196.695,86.004,-91.642,465.378,270.338,-81.664,173.960,370.510,-156.020
646,36052.69000,-147.274,-125.234,-405.416,472.135,268.505,-79.729,1173.960,654.510,143.980
647,36052.113000,512.988,197.658,4.981,481.738,259.107,-70.111,-18.040,504.510,544.980
648,36052.149000,-3.954,1.509,-99.611,490.466,256.753,-48.570,-1025.040,727.510,208.980
649,36052.189000,73.143,251.976,-115.549,494.259,247.255,-40.928,865.960,482.510,-154.020
650,36052.228000,317.282,-28.668,-117.541,496.131,241.384,-43.996,412.960,128.510,220.980
651,36052.271000,256.988,14.585,-55.782,494.282,247.471,-31.116,-323.040,332.510,-14.020
652,36052.300000,263.907,11.568,-24.903,499.109,245.662,-27.223,10.960,383.510,5.980
653,36052.336000,246.116,30.680,-35.860,497.145,240.077,-15.584,-338.040,331.510,85.980
654,36052.373000,246.116,-0.503,-20.918,502.033,243.253,-5.696,-411.040,171.510,37.980
655,36052.415000,248.093,-8.550,-12.949,502.016,240.448,-0.855,-321.040,38.510,26.980
656,36052.453000,249.081,29.674,-34.864,499.078,236.558,0.033,-328.040,2.510,-64.020
657,36052.490000,255.012,20.621,-15.938,500.118,243.428,3.130,-232.040,-78.490,-28.020
658,36052.530000,262.919,4.527,-23.907,501.102,245.357,2.194,-237.040,-119.490,-37.020
659,36052.568000,262.919,7.544,-12.949,497.190,241.393,0.136,-153.040,-333.490,-159.020
660,36052.591000,289.606,39.733,6.973,492.446,252.802,-8.446,32.960,-478.490,-246.020
661,36052.634000,426.008,72.927,61.759,488.554,253.433,-22.170,-566.040,-816.490,-215.020
662,36052.671000,346.934,52.809,126.506,479.020,270.534,-34.559,-496.040,-1145.490,-694.020
663,36052.713000,191.753,-104.110,-368.560,457.805,287.716,-82.275,2028.960,-1148.490,-1131.020
664,36052.751000,-13.838,43.756,0.996,443.284,295.407,-123.322,2241.960,-466.490,-604.020
665,36052.789000,-46.456,-39.733,-62.755,437.625,308.187,-113.244,-1642.040,-77.490,-407.020
666,36052.835000,28.664,-160.440,-40.840,443.429,303.842,-92.734,1070.960,1342.510,71.980
667,36052.871000,261.931,180.558,-470.163,442.357,294.901,-101.761,1045.960,-432.490,67.980
668,36052.911000,512.988,-3.521,32.872,449.123,291.386,-88.096,-492.040,-54.490,183.980
669,36052.930000,369.668,179.552,24.903,451.130,298.265,-84.997,-304.040,-131.490,17.980
670,36052.968000,278.734,70.916,-94.630,446.274,296.276,-85.051,-188.040,-153.490,-78.020
671,36053.11000,152.216,34.703,-199.222,437.591,299.946,-90.872,-330.040,84.510,-86.020
672,36053.55000,-18.780,44.762,-492.078,437.681,309.611,-92.618,313.960,-838.490,-432.020
673,36053.105000,20.757,19.615,-466.179,422.249,323.117,-133.539,-15.040,-1996.490,-390.020
674,36053.131000,57.328,136.299,-377.525,389.359,336.907,-198.026,-250.040,-2971.490,-659.020
675,36053.175000,75.120,70.916,-217.152,330.457,359.417,-251.587,-539.040,-3329.490,-976.020
676,36053.213000,71.166,19.615,-38.848,270.450,367.398,-303.511,71.960,-2731.490,-920.020
677,36053.231000,100.819,-36.715,171.331,243.287,364.653,-328.146,487.960,-621.490,-72.020
678,36053.276000,201.637,-9.556,100.607,256.700,349.445,-319.629,31.960,1530.510,642.980
679,36053.336000,198.672,123.222,-291.860,310.887,343.026,-282.392,-515.040,3168.510,1147.980
680,36053.351000,512.988,33.697,-159.377,345.745,334.843,-228.564,-1313.040,2184.510,766.980
681,36053.389000,512.988,-30.680,54.786,373.969,337.619,-158.816,-1252.040,2171.510,813.980
682,36053.434000,99.830,107.128,176.311,391.454,335.825,-115.670,-1326.040,1147.510,650.980
683,36053.471000,316.293,-24.644,-25.899,390.351,324.834,-129.645,1279.960,-116.490,189.980
684,36053.511000,310.363,67.898,-113.556,395.199,326.737,-133.516,80.960,-169.490,104.980
685,36053.530000,274.780,138.310,-73.712,395.173,324.730,-136.502,22.960,29.510,101.980
686,36053.572000,256.000,80.974,-55.782,398.056,322.817,-136.539,-15.040,-30.490,45.980
687,36053.618000,256.988,49.792,-73.712,395.006,308.161,-139.812,-13.040,-118.490,-15.020
688,36053.650000,240.185,46.774,-81.681,390.277,319.721,-141.527,24.960,-185.490,-117.020
689,36053.690000,239.197,46.774,-93.634,390.362,328.459,-141.333,-67.040,-217.490,-142.020
690,36053.731000,204.602,52.809,-56.778,387.419,326.273,-151.194,87.960,-419.490,-233.020
691,36053.769000,259.954,54.821,-59.767,380.699,333.758,-160.849,268.960,-633.490,-416.020
692,36053.820000,306.409,46.774,-64.747,362.271,334.011,-185.399,452.960,-934.490,-591.020
693,36053.853000,319.259,41.745,-53.790,345.908,347.853,-210.623,527.960,-1156.490,-695.020
694,36053.870000,356.819,75.945,-61.759,323.648,352.835,-238.999,335.960,-1666.490,-505.020
695,36053.916000,400.309,124.228,-41.837,299.472,360.626,-271.238,45.960,-1905.490,-557.020
696,36053.950000,259.954,45.768,-112.560,278.244,367.991,-279.946,-645.040,-1450.490,-383.020
697,36054.4000,131.459,13.580,-187.268,268.569,371.414,-296.561,453.960,-1036.490,-161.020
698,36054.30000,2.965,66.892,10.957,281.939,354.911,-302.783,1181.960,328.510,360.980
699,36054.73000,-38.548,62.868,-35.860,317.774,353.879,-277.234,-466.040,1830.510,699.980
700,36054.114000,-7.907,74.939,-157.385,370.017,342.954,-223.430,-56.040,2786.510,629.980
701,36054.151000,97.853,79.969,-238.070,414.433,322.308,-166.916,774.960,3000.510,370.980
702,36054.170000,141.344,96.063,-368.560,430.762,305.489,-144.700,2345.960,2574.510,83.980
703,36054.213000,512.988,118.193,416.374,432.731,311.118,-154.377,-1082.040,-78.490,-161.020
704,36054.271000,512.988,181.564,-86.661,430.784,310.106,-155.384,-235.040,-510.490,369.980
705,36054.340000,226.347,48.786,-111.564,428.821,307.175,-155.454,-819.040,-690.490,-4.020
706,36054.355000,142.332,28.668,-164.358,419.175,310.878,-159.314,-44.040,-470.490,-56.020
707,36054.370000,-13.838,-2.515,-113.556,418.217,310.955,-155.392,-168.040,39.510,224.980
708,36054.410000,64.247,-9.556,9.961,431.799,310.569,-134.778,376.960,1277.510,303.980
709,36054.453000,151.228,58.845,-123.518,449.147,295.140,-93.896,-191.040,1759.510,304.980
710,36054.490000,199.660,41.745,-230.101,460.785,289.363,-52.812,707.960,2132.510,168.980
711,36054.519000,468.510,108.134,147.424,469.370,277.711,-56.975,1340.960,412.510,323.980
712,36054.554000,404.263,-6.538,6.973,479.987,269.659,-30.654,-1490.040,295.510,584.980
713,36054.591000,275.768,92.039,5.977,480.919,264.922,-25.854,296.960,317.510,96.980
714,36054.634000,303.444,75.945,-13.946,488.623,261.136,-24.941,269.960,210.510,212.980
715,36054.672000,292.571,7.544,1.992,487.627,258.214,-25.008,134.960,-157.490,107.980
716,36054.713000,223.382,2.515,-65.743,489.486,253.098,-37.866,433.960,-314.490,67.980
717,36054.753000,276.757,24.644,-32.872,485.586,251.895,-46.727,164.960,-233.490,-104.020
718,36054.790000,236.232,43.756,-52.794,482.753,260.454,-53.407,392.960,-183.490,-100.020
719,36054.815000,234.255,42.750,-76.700,482.737,259.418,-56.372,113.960,-90.490,7.980
720,36054.854000,253.035,10.562,-22.911,483.674,257.378,-61.319,74.960,-135.490,11.980
721,36054.891000,226.347,28.668,-66.739,482.644,252.363,-68.297,104.960,-277.490,-31.020
722,36054.932000,236.232,14.585,-67.735,479.770,256.132,-72.142,-71.040,-175.490,26.980
723,36054.970000,265.884,37.721,-66.739,479.768,256.995,-77.026,76.960,-293.490,40.980
724,36055.13000,286.641,34.703,-65.743,479.767,258.743,-85.814,159.960,-262.490,5.980
725,36055.50000,344.958,18.609,-72.716,477.833,259.608,-89.721,22.960,-248.490,-165.020
726,36055.89000,334.085,15.591,-73.712,472.071,265.247,-95.492,61.960,-54.490,-354.020
727,36055.134000,210.533,63.874,-84.669,464.404,271.148,-88.513,16.960,231.510,-302.020
728,36055.153000,66.224,29.674,-129.494,465.382,271.266,-83.605,322.960,394.510,-126.020
729,36055.190000,95.876,22.633,-136.467,471.240,274.472,-72.734,-184.040,492.510,279.980
730,36055.233000,222.394,-40.739,-50.802,477.874,257.364,-59.370,-406.040,712.510,441.980
731,36055.285000,379.552,39.733,-24.903,486.624,257.859,-40.708,139.960,1074.510,381.980
732,36055.313000,298.502,126.240,-14.942,491.432,249.708,-16.363,252.960,1183.510,126.980
733,36055.350000,166.054,44.762,-3.984,495.379,251.363,13.102,-809.040,853.510,152.980
734,36055.394000,261.931,41.745,-3.984,496.350,249.647,22.873,-30.040,332.510,113.980
735,36055.432000,250.069,-18.609,36.856,497.308,247.801,26.757,-323.040,48.510,64.980
736,36055.451000,251.058,17.603,2.988,498.235,243.905,25.691,70.960,-24.490,-17.020
737,36055.494000,252.046,14.585,-11.953,497.218,239.020,24.600,34.960,-70.490,11.980
738,36055.533000,255.012,9.556,-25.899,495.307,241.870,22.698,234.960,-24.490,-22.020
739,36055.573000,254.023,30.680,-12.949,494.415,250.512,18.965,136.960,-4.490,-75.020
740,36055.610000,242.162,31.686,4.981,496.343,249.582,19.929,-74.040,-96.490,-29.020
741,36055.653000,254.023,13.580,-1.992,495.313,244.567,12.951,21.960,-171.490,-36.020
742,36055.693000,250.069,10.562,-18.926,491.450,245.479,11.983,-208.040,-266.490,-56.020
743,36055.731000,249.081,28.668,-7.969,493.449,253.157,7.254,-128.040,-261.490,-112.020
744,36055.750000,255.012,10.562,-10.957,490.545,253.991,2.363,-33.040,-377.490,-124.020
745,36055.794000,257.977,25.650,-37.852,489.610,259.570,-8.302,-113.040,-440.490,-193.020
746,36055.831000,260.942,24.644,-40.840,481.887,262.299,-13.161,-127.040,-379.490,-207.020
747,36055.876000,266.873,13.580,-20.918,483.839,266.008,-21.901,35.960,-422.490,-246.020
748,36055.914000,293.560,47.780,-6.973,475.164,271.511,-32.584,-93.040,-578.490,-251.020
749,36055.956000,354.842,66.892,-0.996,469.345,273.957,-51.175,-58.040,-807.490,-169.020
750,36055.994000,489.266,121.210,81.681,463.643,287.212,-63.641,-592.040,-872.490,-181.020
751,36056.30000,182.857,-20.621,-265.961,454.066,298.617,-70.273,-48.040,-1218.490,-818.020
752,36056.83000,84.015,-11.568,-259.984,434.703,305.333,-109.391,1724.960,-969.490,-609.020
753,36056.90000,38.548,39.733,-48.809,419.291,318.148,-137.578,810.960,-703.490,-528.020
754,36056.131000,-48.432,-21.627,-40.840,414.538,325.070,-129.589,-845.040,69.510,-172.020
755,36056.177000,-58.317,-17.603,-282.895,425.159,319.693,-113.996,620.960,1110.510,134.980
756,36056.216000,512.988,40.739,194.241,429.846,305.091,-118.232,317.960,455.510,372.980
757,36056.254000,428.973,236.888,42.833,433.785,311.084,-112.207,-263.040,154.510,94.980
758,36056.291000,258.965,120.204,-87.658,432.825,311.139,-109.266,84.960,144.510,-120.020
759,36056.334000,194.718,68.904,-181.292,429.978,315.167,-101.337,-115.040,141.510,-98.020
760,36056.373000,170.008,26.656,-150.412,426.186,322.917,-100.193,-407.040,-124.490,-150.020
761,36056.418000,144.309,83.992,-408.405,421.393,330.335,-113.767,-420.040,-945.490,-231.020
762,36056.439000,181.869,22.633,-244.047,406.852,334.315,-147.052,-162.040,-1854.490,-262.020
763,36056.478000,93.900,69.910,-133.479,388.487,341.342,-172.432,-556.040,-2077.490,-407.020
764,36056.511000,17.792,62.868,-145.432,363.427,357.839,-205.461,-311.040,-1792.490,-459.020
765,36056.559000,7.907,91.033,-243.051,335.309,358.731,-240.804,329.960,-1330.490,-448.020
766,36056.594000,59.305,74.939,-275.922,303.366,364.417,-277.030,397.960,-1257.490,-456.020
767,36056.630000,142.332,45.768,-149.416,277.037,349.837,-310.752,787.960,-819.490,-123.020
768,36056.670000,162.100,78.963,26.895,269.272,348.640,-317.659,-46.040,-144.490,34.980
769,36056.715000,147.274,43.756,-293.852,284.850,354.141,-294.949,-372.040,1221.510,483.980
770,36056.734000,497.174,-3.521,-138.459,298.341,345.838,-281.376,232.960,1934.510,453.980
771,36056.774000,422.054,11.568,-19.922,322.541,342.686,-258.839,-271.040,1156.510,810.980
772,36056.846000,208.556,272.094,-15.938,338.933,332.641,-237.453,-440.040,952.510,453.980
773,36056.861000,277.745,177.540,-4.981,351.510,327.478,-213.025,-530.040,418.510,343.980
774,36056.896000,262.919,33.697,-97.619,356.347,327.525,-213.014,506.960,320.510,141.980
775,36056.934000,264.896,-9.556,-108.576,358.333,330.672,-203.133,-475.040,127.510,183.980
776,36056.975000,229.313,70.916,-70.724,360.293,332.697,-200.142,-287.040,-75.490,70.980
777,36057.13000,212.510,58.845,-118.537,357.332,327.707,-205.162,134.960,-136.490,-19.020
778,36057.36000,205.591,58.845,-115.549,358.364,334.491,-205.990,-65.040,-187.490,-28.020
779,36057.75000,229.313,60.857,-83.673,353.454,328.468,-212.999,-94.040,-302.490,-77.020
780,36057.114000,240.185,63.874,-70.724,344.767,332.094,-220.782,-1.040,-603.490,-219.020
781,36057.156000,295.537,36.715,-35.860,334.184,342.238,-240.192,133.960,-933.490,-344.020
782,36057.195000,399.320,60.857,0.000,315.751,341.563,-262.801,199.960,-1311.490,-293.020
783,36057.239000,504.093,130.263,-134.475,305.160,349.873,-277.349,-370.040,-1946.490,-352.020
784,36057.285000,334.085,5.532,-128.498,278.120,358.002,-292.916,-562.040,-1650.490,-400.020
785,36057.336000,42.502,13.580,-211.175,270.526,371.648,-286.745,-704.040,-715.490,-133.020
786,36057.342000,69.189,-32.692,-57.774,283.089,370.757,-288.700,416.960,20.510,448.980
787,36057.375000,24.710,11.568,11.953,319.683,351.007,-276.313,955.960,1550.510,709.980
788,36057.414000,1.977,62.868,-82.677,366.900,324.134,-239.544,533.960,2334.510,789.980
789,36057.461000,-35.583,66.892,-188.265,405.653,317.995,-182.721,303.960,2984.510,757.980
790,36057.494000,89.946,119.198,-286.879,433.503,287.244,-137.253,917.960,3228.510,531.980
791,36057.537000,152.216,61.862,-492.078,452.931,284.670,-86.275,1015.960,2248.510,181.980
792,36057.575000,369.668,60.857,117.541,453.871,282.652,-90.241,485.960,-267.490,-298.020
793,36057.616000,172.973,48.786,80.685,455.772,277.946,-84.457,55.960,268.510,178.980
794,36057.688000,324.201,131.269,-38.848,456.697,273.144,-82.601,122.960,292.510,114.980
795,36057.695000,251.058,-0.503,-81.681,459.636,276.171,-78.604,380.960,377.510,66.980
796,36057.726000,206.579,9.556,-74.708,465.369,267.619,-72.898,-151.040,408.510,227.980
797,36057.756000,255.012,29.674,-83.673,473.084,262.172,-59.274,89.960,602.510,179.980
798,36057.792000,279.722,21.627,-30.879,479.901,263.554,-43.538,187.960,950.510,158.980
799,36057.846000,339.027,135.293,47.813,481.759,252.267,-28.094,465.960,792.510,182.980
800,36057.883000,245.127,47.780,34.864,483.670,248.532,-22.289,-292.040,47.510,319.980
801,36057.914000,258.965,-31.686,-43.829,483.692,252.264,-29.071,138.960,-250.490,51.980
802,36057.954000,260.942,10.562,-61.759,479.831,253.198,-29.058,-216.040,-118.490,-131.020
803,36057.971000,245.127,35.709,-45.821,486.648,258.096,-29.916,192.960,-13.490,-62.020
804,36058.16000,249.081,22.633,-48.809,484.688,256.956,-36.810,423.960,14.510,-13.020
805,36058.54000,255.012,30.680,-41.837,482.702,252.039,-38.884,70.960,-53.490,-71.020
806,36058.94000,251.058,21.627,-62.755,478.837,253.814,-44.737,138.960,-79.490,15.980
807,36058.147000,234.255,14.585,-57.774,484.665,255.855,-42.718,305.960,58.510,74.980
808,36058.177000,256.988,26.656,-48.809,483.702,255.889,-40.758,16.960,95.510,114.980
809,36058.215000,250.069,28.668,-20.918,482.655,247.185,-38.992,-171.040,-14.490,106.980
810,36058.286000,251.058,33.697,-33.868,483.604,246.137,-42.936,-107.040,-178.490,50.980
811,36058.300000,226.347,3.521,-46.817,484.567,246.104,-44.896,-420.040,-246.490,34.980
812,36058.316000,252.046,8.550,-41.837,485.589,252.801,-49.649,-144.040,-356.490,-1.020
813,36058.355000,240.185,14.585,-56.778,482.655,251.586,-59.488,117.960,-447.490,-64.020
814,36058.394000,237.220,21.627,-55.782,479.695,248.365,-72.315,98.960,-493.490,-71.020
815,36058.436000,243.151,7.544,-75.704,473.908,252.882,-84.975,56.960,-495.490,-122.020
816,36058.476000,229.313,-7.544,-21.914,476.750,247.927,-90.963,-260.040,-532.490,-206.020
817,36058.517000,278.734,34.703,-96.623,468.089,255.329,-103.566,350.960,-529.490,-182.020
818,36058.552000,213.498,40.739,-155.393,466.113,253.152,-113.425,12.960,-276.490,-64.020
819,36058.601000,244.139,52.809,-126.506,463.265,258.928,-114.283,-15.040,225.510,-93.020
820,36058.626000,302.456,43.756,-94.630,468.129,259.234,-102.498,150.960,473.510,61.980
821,36058.655000,256.000,65.886,-55.782,472.000,256.639,-89.799,-275.040,443.510,190.980
822,36058.696000,400.309,55.827,22.911,473.898,251.027,-81.094,-575.040,143.510,297.980
823,36058.736000,489.266,70.916,63.751,472.971,254.923,-80.029,-658.040,-127.490,120.980
824,36058.781000,210.533,88.016,-53.790,472.080,260.048,-67.168,-1345.040,-397.490,22.980
825,36058.812000,-383.506,-116.181,-272.934,455.630,263.383,-84.781,872.960,-542.490,-502.020
826,36058.856000,-266.873,72.927,-138.459,456.691,271.332,-76.757,-112.040,883.510,-348.020
827,36058.899000,-201.637,-185.587,-492.078,464.426,271.364,-78.701,657.960,-236.490,127.980
828,36058.917000,512.988,194.640,25.899,471.068,256.975,-74.103,-1442.040,-178.490,395.980
829,36058.965000,185.822,38.727,-97.619,474.879,250.281,-71.302,185.960,134.510,96.980
830,36058.995000,398.332,72.927,-63.751,485.482,243.848,-59.654,196.960,1026.510,309.980
831,36059.39000,287.629,8.550,98.615,487.429,241.342,-42.054,-575.040,492.510,39.980
832,36059.74000,241.174,4.527,-69.728,490.299,236.667,-35.287,56.960,222.510,201.980
833,36059.116000,239.197,-6.538,-78.693,492.301,240.850,-22.441,-403.040,406.510,1.980
834,36059.155000,246.116,38.727,-57.774,493.296,241.118,-10.665,-124.040,484.510,-107.020
835,36059.198000,250.069,40.739,-20.918,495.275,244.201,-3.728,-223.040,333.510,60.980
836,36059.240000,245.127,0.503,-29.883,491.401,241.488,6.991,-332.040,262.510,-1.020
837,36059.266000,245.127,-2.515,14.942,491.429,242.631,14.862,-535.040,17.510,-28.020
838,36059.294000,241.174,30.680,-32.872,491.450,244.594,15.886,-114.040,-11.490,-31.020
839,36059.336000,251.058,20.621,-42.833,491.386,237.820,16.716,-135.040,-27.490,-92.020
840,36059.400000,252.046,24.644,-7.969,489.508,244.511,12.938,-158.040,-127.490,-107.020
841,36059.446000,259.954,20.621,-18.926,487.588,246.390,11.014,85.960,-297.490,-89.020
842,36059.461000,257.977,14.585,-35.860,491.446,246.320,6.118,-76.040,-265.490,-160.020
843,36059.497000,272.803,12.574,2.988,484.732,253.849,-1.575,-86.040,-385.490,-228.020
844,36059.542000,311.351,64.880,13.946,479.941,262.173,-18.071,36.960,-819.490,-277.020
845,36059.569000,498.162,124.228,27.891,474.153,268.438,-39.519,-297.040,-1122.490,-200.020
846,36059.600000,378.564,17.603,55.782,462.585,275.768,-54.091,-1044.040,-1062.490,-527.020
847,36059.637000,209.544,-108.134,-251.019,441.456,299.055,-88.922,1329.960,-1066.490,-1137.020
848,36059.676000,-44.479,-89.022,-248.031,425.911,300.911,-130.101,2770.960,91.510,-672.020
849,36059.719000,-137.390,66.892,-32.872,420.244,312.742,-119.064,-310.040,653.510,-505.020
850,36059.756000,85.004,44.762,-492.078,421.283,316.959,-104.258,892.960,-14.490,-282.020
851,36059.794000,425.019,149.375,-67.735,423.209,316.007,-104.275,600.960,732.510,-155.020
852,36059.845000,242.162,86.004,-123.518,424.165,311.507,-88.682,-642.040,110.510,155.980
853,36059.877000,179.892,89.022,-441.276,426.073,312.152,-104.354,26.960,-753.490,378.980
854,36059.896000,190.764,90.028,-410.397,422.090,308.382,-141.712,-964.040,-2062.490,291.980
855,36059.943000,113.668,96.063,-312.778,404.699,318.115,-176.836,-1924.040,-3309.490,-46.020
856,36059.975000,59.305,59.851,-149.416,361.264,338.899,-227.461,-1292.040,-3176.490,-572.020
857,36060.17000,-10.873,12.574,-20.918,318.741,352.120,-269.425,-116.040,-1965.490,-626.020
858,36060.58000,40.525,-7.544,123.518,292.623,357.173,-292.904,467.960,-363.490,-230.020
859,36060.96000,206.579,83.992,-260.981,319.634,347.016,-281.305,245.960,2188.510,382.980
860,36060.135000,512.988,-98.075,-440.280,331.185,336.881,-261.892,40.960,1663.510,642.980
861,36060.179000,279.722,114.169,173.323,357.264,324.406,-222.887,-1387.040,1591.510,1009.980
862,36060.201000,363.737,239.906,-3.984,372.729,320.026,-208.242,-56.040,1559.510,543.980
863,36060.236000,284.664,57.839,28.887,390.189,317.111,-171.986,-929.040,492.510,605.980
864,36060.275000,278.734,36.715,-73.712,395.982,316.175,-172.975,931.960,319.510,200.980
865,36060.319000,276.757,91.033,-93.634,400.739,307.527,-171.195,-9.040,117.510,215.980
866,36060.354000,261.931,18.609,-70.724,404.533,299.798,-171.359,37.960,37.510,171.980
867,36060.416000,236.232,23.639,-82.677,402.544,294.860,-174.415,21.960,-73.490,51.980
868,36060.439000,221.405,37.721,-98.615,400.645,299.588,-179.217,90.960,-151.490,-77.020
869,36060.475000,213.498,53.815,-119.533,398.739,302.481,-179.157,43.960,-80.490,-57.020
870,36060.517000,198.672,35.709,-96.623,397.821,307.348,-178.070,-159.040,-50.490,-8.020
871,36060.539000,252.046,25.650,-90.646,398.791,308.263,-180.990,2.960,-103.490,-92.020
872,36060.577000,255.012,61.862,-88.654,394.855,302.314,-185.053,97.960,-190.490,-145.020
873,36060.619000,288.618,38.727,-59.767,387.227,314.752,-189.696,19.960,-358.490,-182.020
874,36060.656000,289.606,15.591,-35.860,375.542,310.389,-206.489,209.960,-817.490,-383.020
875,36060.696000,321.236,54.821,-12.949,366.894,320.552,-225.895,271.960,-1379.490,-453.020
876,36060.736000,433.915,87.010,-4.981,342.645,320.597,-257.326,381.960,-1867.490,-192.020
877,36060.779000,481.359,152.393,-46.817,325.288,331.539,-281.636,-1356.040,-2345.490,22.980
878,36060.816000,245.127,8.550,-185.276,305.181,351.837,-276.325,-1872.040,-1898.490,-361.020
879,36060.852000,0.000,-102.098,-70.724,301.401,361.464,-278.080,273.960,-534.490,-64.020
880,36060.880000,-58.317,54.821,28.887,335.030,336.681,-272.676,1256.960,1140.510,674.980
881,36060.917000,-26.687,73.933,-0.996,368.830,324.109,-241.502,101.960,2924.510,707.980
882,36060.956000,1.977,111.151,-287.875,415.234,306.633,-174.127,488.960,3365.510,454.980
883,36061.26000,134.425,126.240,-492.078,434.502,291.956,-144.011,456.960,-0.490,295.980
884,36061.41000,74.131,142.334,-21.914,421.009,301.123,-162.469,683.960,-208.490,-495.020
885,36061.79000,317.282,99.081,2.988,412.323,306.518,-178.058,742.960,-173.490,-560.020
886,36061.116000,341.004,55.827,-112.560,402.732,317.794,-190.577,398.960,-339.490,-390.020
887,36061.138000,298.502,61.862,-109.572,392.112,320.538,-193.480,-161.040,-361.490,-365.020
888,36061.185000,202.625,41.745,-160.374,385.406,328.153,-197.248,112.960,-463.490,-355.020
889,36061.217000,85.992,1.509,-196.233,374.723,325.892,-207.127,159.960,-377.490,14.980
890,36061.260000,46.456,19.615,1.992,382.469,326.032,-204.166,223.960,576.510,393.980
891,36061.299000,59.305,30.680,-27.891,401.771,312.563,-163.236,-838.040,1331.510,697.980
892,36061.339000,178.903,25.650,-72.716,431.744,298.595,-105.624,-729.040,2325.510,792.980
893,36061.379000,293.560,48.786,-175.315,451.035,281.501,-53.007,536.960,2765.510,481.980
894,36061.420000,272.803,62.868,-239.066,461.664,274.442,-25.683,1642.960,1990.510,671.980
895,36061.459000,462.579,262.035,162.366,465.408,259.183,-15.226,-1424.040,244.510,74.980
896,36061.479000,424.031,-22.633,4.981,475.098,255.912,8.257,485.960,415.510,105.980
897,36061.516000,269.838,27.662,17.930,476.019,251.951,4.249,208.960,-23.490,62.980
898,36061.560000,264.896,41.745,-9.961,481.669,236.431,1.955,-224.040,-232.490,228.980
899,36061.599000,254.023,14.585,-47.813,476.832,237.269,-1.959,-15.040,-294.490,119.980
900,36061.636000,224.371,17.603,-54.786,482.703,245.890,-9.601,199.960,-263.490,-9.020
901,36061.680000,253.035,32.692,-27.891,476.878,245.640,-18.445,143.960,-308.490,1.980
902,36061.716000,267.861,38.727,-50.802,477.807,243.513,-27.316,226.960,-257.490,60.980
903,36061.756000,215.475,-4.527,-89.650,477.746,238.529,-33.311,81.960,-233.490,-10.020
904,36061.791000,269.838,-3.521,-44.825,476.822,244.216,-39.070,55.960,-277.490,-63.020
905,36061.822000,219.429,10.562,-79.689,471.979,245.873,-49.831,330.960,-299.490,-205.020
906,36061.861000,165.066,43.756,-119.533,469.132,253.418,-58.496,139.960,-286.490,-309.020
907,36061.900000,225.359,4.527,-26.895,464.320,256.261,-59.423,-33.040,-125.490,-31.020
908,36061.956000,250.069,44.762,-94.630,467.171,251.392,-61.487,-163.040,-103.490,-117.020
909,36061.985000,265.884,56.833,-134.475,469.136,252.576,-52.630,-221.040,468.510,44.980
910,36062.17000,275.768,39.733,-73.712,467.279,257.714,-38.791,39.960,641.510,43.980
911,36062.60000,271.815,51.804,-14.942,473.102,257.058,-27.025,192.960,551.510,31.980
912,36062.97000,391.413,62.868,15.938,470.192,255.196,-22.169,-191.040,108.510,-27.020
913,36062.121000,495.197,124.228,118.537,466.380,259.236,-13.262,-459.040,-18.490,-113.020
914,36062.159000,264.896,52.809,62.755,461.641,268.940,-11.095,-536.040,-391.490,-649.020
915,36062.199000,-85.992,-145.352,-261.977,449.227,288.861,-26.370,1536.960,87.510,-487.020
916,36062.240000,-10.873,169.493,-54.786,451.150,288.772,-31.271,431.960,267.510,-295.020
917,36062.277000,19.768,-180.558,-164.358,451.155,288.815,-29.309,-233.040,-20.490,148.980
918,36062.321000,354.842,188.605,34.864,457.754,273.132,-39.449,568.960,13.510,-31.020
919,36062.360000,400.309,-153.399,129.494,466.450,269.592,-27.742,-1376.040,-56.490,491.980
920,36062.404000,350.888,212.747,-37.852,466.452,268.729,-22.858,635.960,552.510,-118.020
921,36062.420000,158.147,80.974,-81.681,468.353,264.023,-17.074,-284.040,226.510,169.980
922,36062.457000,319.259,17.603,42.833,475.105,260.378,-9.295,-141.040,197.510,277.980
923,36062.501000,235.243,-37.721,-36.856,476.960,251.702,-7.523,339.960,218.510,50.980
924,36062.536000,256.988,28.668,-23.907,473.193,261.459,-3.392,254.960,246.510,-73.020
925,36062.577000,250.069,23.639,5.977,470.232,255.584,-4.509,142.960,136.510,23.980
926,36062.621000,244.139,0.503,-15.938,477.018,257.549,-6.412,266.960,33.510,22.980
927,36062.659000,248.093,40.739,-27.891,474.128,259.398,-9.319,301.960,-69.490,-69.020
928,36062.701000,232.278,54.821,-38.848,470.215,256.296,-16.261,96.960,-144.490,-41.020
929,36062.720000,258.965,8.550,-9.961,471.234,262.972,-21.995,108.960,-314.490,22.980
930,36062.759000,246.116,27.662,-47.813,469.277,261.853,-27.908,159.960,-285.490,-41.020
931,36062.798000,262.919,37.721,-81.681,469.273,262.695,-33.773,61.960,-99.490,-35.020
932,36062.840000,242.162,45.768,-66.739,468.262,256.989,-28.018,-127.040,202.510,18.980
933,36062.877000,257.977,17.603,-35.860,472.140,256.229,-20.181,-32.040,217.510,198.980
934,36062.921000,251.058,39.733,-32.872,474.991,250.475,-18.341,-5.040,189.510,191.980
935,36062.959000,247.104,25.650,-31.875,474.083,254.565,-8.446,-623.040,207.510,142.980
936,36063.2000,250.069,6.538,-11.953,479.887,252.852,-0.626,-447.040,10.510,14.980
937,36063.41000,249.081,-0.503,-42.833,479.878,251.881,-0.648,-165.040,-32.490,-38.020
938,36063.65000,252.046,38.727,-42.833,476.921,246.049,0.197,-98.040,90.510,-84.020
939,36063.105000,252.046,13.580,-27.891,474.119,254.910,7.252,-268.040,55.510,-69.020
940,36063.137000,256.988,28.668,-26.895,476.984,251.939,3.270,-99.040,68.510,-125.020
941,36063.180000,250.069,10.562,-13.946,473.208,259.841,11.283,-208.040,50.510,-111.020
942,36063.231000,256.988,5.532,3.984,472.272,263.650,8.423,-97.040,-178.490,-205.020
943,36063.259000,280.710,28.668,27.891,470.340,265.422,1.594,-89.040,-484.490,-264.020
944,36063.300000,341.004,50.798,44.825,462.671,276.587,-16.807,-174.040,-1001.490,-257.020
945,36063.337000,512.988,141.328,105.588,455.912,281.937,-35.335,-124.040,-1047.490,-231.020
946,36063.361000,230.301,19.615,-177.307,445.336,292.146,-51.802,-456.040,-870.490,-403.020
947,36063.402000,136.402,-9.556,-320.747,437.632,299.449,-69.308,642.960,-1166.490,-239.020
948,36063.442000,104.772,32.692,-249.027,428.789,292.784,-103.798,431.960,-1275.490,-13.020
949,36063.480000,6.919,46.774,-152.405,419.201,304.966,-119.238,-1723.040,-1467.490,-148.020
950,36063.520000,-56.340,0.503,26.895,410.582,315.410,-125.889,-510.040,-708.490,-359.020
951,36063.561000,-14.826,13.580,80.685,414.462,316.418,-125.859,1094.960,1155.510,-16.020
952,36063.599000,276.757,-107.128,-492.078,422.993,299.847,-133.073,578.960,547.510,232.980
953,36063.641000,512.988,74.939,120.529,427.870,303.800,-131.995,-699.040,-30.490,375.980
954,36063.679000,512.988,260.024,79.689,428.749,292.396,-121.459,-1112.040,94.510,34.980
955,36063.708000,236.232,42.750,-124.514,426.938,303.251,-112.395,215.960,215.510,-201.020
956,36063.745000,192.741,80.974,-190.257,422.216,315.760,-115.070,228.960,-121.490,-323.020
957,36063.864000,128.494,34.703,-392.467,408.654,318.972,-139.544,144.960,-1230.490,-211.020
958,36063.891000,78.085,92.039,-370.553,385.362,320.688,-183.684,-2.040,-2093.490,-268.020
959,36063.905000,29.653,96.063,-269.946,354.468,336.848,-229.482,-731.040,-2775.490,-464.020
960,36063.920000,-8.896,100.086,-149.416,319.740,353.316,-259.590,-503.040,-2683.490,-704.020
961,36063.940000,-8.896,84.998,-140.451,271.455,369.522,-295.617,-315.040,-2197.490,-635.020
962,36064.1000,44.479,63.874,-124.514,233.720,374.397,-322.066,-4.040,-1304.490,-319.020
963,36064.7000,122.564,13.580,-101.603,215.271,369.169,-331.047,-13.040,-389.490,-47.020
964,36064.39000,263.907,-52.809,94.630,227.754,359.583,-331.233,861.960,1650.510,351.980
965,36064.82000,374.610,18.609,-335.689,265.395,346.769,-312.806,731.960,2838.510,280.980
966,36064.120000,361.761,39.733,-110.568,275.991,340.270,-304.102,699.960,1159.510,-295.020
967,36064.174000,391.413,252.982,49.805,283.657,332.600,-303.275,745.960,598.510,190.980
968,36064.231000,359.784,157.422,33.868,287.634,339.822,-285.454,-1460.040,-460.490,407.980
969,36064.246000,423.042,108.134,74.708,278.006,343.698,-281.466,-778.040,-874.490,250.980
970,36064.280000,399.320,116.181,-82.677,273.177,347.254,-294.146,-124.040,-1129.490,68.980
971,36064.319000,373.622,54.821,-159.377,251.050,362.312,-305.626,-805.040,-1490.490,-183.020
972,36064.347000,259.954,-19.615,-163.362,240.496,371.852,-308.379,-615.040,-1202.490,-200.020
973,36064.380000,126.517,3.521,-147.424,237.636,376.635,-310.240,246.960,-481.490,-2.020
974,36064.422000,69.189,31.686,-167.346,251.077,366.972,-314.349,318.960,159.510,296.980
975,36064.465000,56.340,19.615,-95.626,279.079,358.810,-300.742,57.960,1140.510,629.980
976,36064.515000,69.189,55.827,-42.833,330.258,341.661,-264.730,-57.040,2191.510,1012.980
977,36064.551000,103.784,60.857,-110.568,385.398,328.951,-205.075,-171.040,2910.510,1089.980
978,36064.586000,171.985,70.916,-204.202,430.670,295.802,-143.934,1060.960,3286.510,986.980
979,36064.621000,202.625,126.240,-328.716,455.766,279.650,-95.207,1954.960,2879.510,479.980
980,36064.647000,161.112,12.574,-492.078,459.553,266.570,-73.914,787.960,1427.510,185.980
981,36064.720000,326.178,93.045,-190.257,460.474,263.495,-81.826,-636.040,-337.490,101.980
982,36064.734000,322.224,32.692,-149.416,463.414,267.406,-81.733,283.960,-232.490,8.980
983,36064.762000,95.876,36.715,-143.440,465.251,258.558,-87.810,-113.040,-168.490,-3.020
984,36064.804000,253.035,12.574,-113.556,468.136,255.782,-82.962,268.960,313.510,257.980
985,36064.844000,242.162,5.532,-91.642,473.940,254.069,-75.142,164.960,513.510,101.980
986,36064.881000,240.185,18.609,-57.774,476.874,255.284,-65.303,66.960,543.510,99.980
987,36064.926000,331.120,22.633,-12.949,481.680,250.628,-58.531,580.960,596.510,83.980
988,36064.962000,321.236,104.110,-11.953,486.481,245.928,-53.722,-78.040,193.510,103.980
989,36064.982000,238.208,12.574,-27.891,480.674,244.966,-50.814,-487.040,-26.490,126.980
990,36065.26000,253.035,25.650,-108.576,484.491,238.337,-45.069,23.960,201.510,-16.020
991,36065.64000,267.861,20.621,-74.708,488.433,244.351,-38.062,14.960,443.510,2.980
992,36065.104000,233.266,36.715,-56.778,485.555,243.675,-23.373,17.960,629.510,-4.020
993,36065.142000,256.000,-2.515,-13.946,489.426,241.965,-14.577,41.960,571.510,108.980
994,36065.180000,236.232,16.597,-11.953,491.339,238.251,-7.791,346.960,525.510,93.980
995,36065.232000,241.174,15.591,-7.969,490.406,240.335,-0.882,249.960,287.510,69.980
996,36065.270000,242.162,1.509,19.922,493.335,243.254,-1.792,184.960,14.510,6.980
997,36065.315000,249.081,10.562,-36.856,486.512,239.175,-7.781,102.960,-162.490,-54.020
998,36065.330000,255.012,21.627,-36.856,489.412,239.182,-8.755,29.960,-105.490,-29.020
999,36065.362000,260.942,10.562,-55.782,488.470,242.063,-9.674,26.960,10.510,-12.020
1000,36065.401000,255.012,26.656,-50.802,489.397,237.283,-6.836,-21.040,189.510,-20.020
1001,36065.440000,253.035,14.585,-41.837,489.451,241.318,0.118,45.960,353.510,-4.020
1002,36065.481000,249.081,27.662,-24.903,489.495,244.381,7.051,51.960,357.510,-4.020
1003,36065.521000,252.046,10.562,-8.965,490.466,243.549,12.919,-78.040,263.510,-0.020
1004,36065.562000,254.023,3.521,-11.953,487.540,239.767,18.712,57.960,216.510,-35.020
1005,36065.581000,254.023,18.609,-17.930,488.587,246.702,24.753,28.960,226.510,-33.020
1006,36065.619000,259.954,8.550,-25.899,486.644,244.849,29.611,144.960,322.510,-18.020
1007,36065.661000,259.954,21.627,-27.891,488.626,248.838,33.626,281.960,469.510,-10.020
1008,36065.701000,258.965,32.692,-16.934,484.752,246.125,44.345,135.960,626.510,27.980
1009,36065.749000,258.965,54.821,-5.977,489.595,242.698,62.912,-130.040,685.510,124.980
1010,36065.793000,266.873,47.780,-7.969,481.874,240.163,83.433,-271.040,830.510,282.980
1011,36065.825000,274.780,60.857,4.981,486.675,231.062,108.738,-423.040,905.510,332.980
1012,36065.862000,263.907,35.709,-22.911,485.680,224.624,125.264,-352.040,745.510,141.980
1013,36065.905000,196.695,-14.585,-92.638,488.630,229.506,125.379,522.960,121.510,-107.020
1014,36065.924000,199.660,104.110,-56.778,488.638,236.626,96.117,1126.960,-860.490,-466.020
1015,36065.961000,211.521,116.181,-64.747,487.734,252.194,54.292,39.960,-1483.490,-556.020
1016,36066.4000,259.954,66.892,-49.805,491.594,260.948,9.384,-717.040,-1785.490,-597.020
1017,36066.42000,276.757,32.692,-30.879,483.980,282.318,-30.364,-913.040,-1732.490,-644.020
