Sample, Time, ACCX, ACCY, ACCZ, MAGX, MAGY, MAGZ, GYRX, GYRY, GYRZ
0,36339.332000,243.175,75.235,-28.556,357.794,288.032,-171.859,-33.200,-22.710,-41.580
1,36339.352000,244.162,75.235,-30.560,359.556,284.589,-170.972,-57.200,-14.710,-40.580
2,36339.392000,246.135,69.176,-32.564,357.794,288.900,-171.831,-53.200,8.290,-44.580
3,36339.432000,242.189,73.215,-30.560,358.684,289.853,-168.818,-55.200,14.290,-45.580
4,36339.472000,240.216,71.195,-22.544,355.157,285.510,-168.970,-65.200,-2.710,-39.580
5,36339.512000,239.229,74.225,-24.548,355.153,287.190,-170.902,-44.200,-31.710,-37.580
6,36339.551000,239.229,67.156,-31.562,352.511,288.056,-170.882,-40.200,-41.710,-46.580
7,36339.570000,240.216,75.235,-28.556,352.517,292.424,-169.747,-6.200,-26.710,-64.580
8,36339.611000,240.216,70.185,-28.556,354.279,292.426,-169.742,2.800,-16.710,-84.580
9,36339.651000,236.270,81.294,-28.556,348.108,294.101,-171.693,50.800,-21.710,-84.580
10,36339.691000,239.229,77.254,-31.562,348.983,298.357,-174.531,52.800,-22.710,-74.580
11,36339.731000,237.256,83.314,-30.560,348.986,294.073,-172.684,55.800,-9.710,-71.580
12,36339.771000,237.256,84.323,-28.556,347.223,300.092,-174.481,75.800,-20.710,-53.580
13,36339.792000,239.229,82.304,-32.564,345.456,294.014,-174.683,-4.200,-59.710,-32.580
14,36339.832000,236.270,82.304,-32.564,346.333,299.138,-177.493,-21.200,-63.710,-12.580
15,36339.872000,237.256,82.304,-31.562,345.455,300.034,-176.474,-3.200,-65.710,13.420
16,36339.912000,235.283,80.284,-35.569,344.580,296.646,-173.608,-36.200,-62.710,8.420
17,36339.952000,240.216,79.274,-40.579,341.918,297.315,-180.546,33.800,-14.710,-22.580
18,36339.992000,241.202,80.284,-32.564,343.690,300.005,-177.474,-23.200,-3.710,-32.580
19,36340.32000,229.364,81.294,-30.560,346.329,298.242,-178.515,-10.200,-22.710,-24.580
20,36340.52000,239.229,82.304,-35.569,342.807,296.532,-177.589,7.800,-24.710,2.420
21,36340.92000,239.229,79.274,-36.571,343.686,298.240,-178.524,-50.200,-5.710,32.420
22,36340.132000,234.297,84.323,-38.575,343.691,300.872,-177.446,-73.200,4.290,51.420
23,36340.171000,240.216,76.245,-36.571,343.699,296.645,-173.611,-16.200,59.290,54.420
24,36340.211000,242.189,73.215,-39.577,346.343,298.383,-173.546,-37.200,126.290,29.420
25,36340.251000,236.270,79.274,-32.564,347.232,294.156,-169.708,-16.200,155.290,18.420
26,36340.271000,235.283,83.314,-29.558,352.524,294.217,-167.703,-6.200,138.290,43.420
27,36340.312000,239.229,76.245,-25.550,354.292,295.142,-165.682,31.800,123.290,86.420
28,36340.348000,239.229,82.304,-22.544,353.413,289.990,-163.866,27.800,94.290,97.420
29,36340.388000,239.229,72.205,-24.548,356.931,289.936,-165.842,28.800,89.290,100.420
30,36340.428000,240.216,77.254,-24.548,358.705,295.230,-162.686,29.800,92.290,90.420
31,36340.473000,241.202,77.254,-22.544,363.115,293.553,-160.740,0.800,81.290,102.420
32,36340.513000,243.175,73.215,-20.540,364.002,294.478,-158.721,-11.200,64.290,116.420
33,36340.533000,241.202,71.195,-19.538,364.880,291.007,-158.831,0.800,45.290,127.420
34,36340.573000,240.216,69.176,-22.544,368.406,286.726,-156.973,0.800,39.290,135.420
35,36340.613000,243.175,67.156,-17.534,367.520,278.913,-157.229,7.800,26.290,136.420
36,36340.653000,244.162,68.166,-18.536,368.394,277.122,-159.270,9.800,-4.710,135.420
37,36340.695000,242.189,63.116,-22.544,371.043,278.048,-157.246,20.800,-3.710,123.420
38,36340.731000,245.148,65.136,-17.534,372.799,277.993,-159.228,23.800,-15.710,110.420
39,36340.750000,242.189,63.116,-21.542,374.552,273.598,-161.351,16.800,-27.710,102.420
40,36340.790000,244.162,62.107,-19.538,372.790,273.597,-161.357,20.800,-36.710,90.420
41,36340.830000,243.175,64.126,-19.538,372.786,267.521,-161.554,12.800,-52.710,82.420
42,36340.870000,246.135,58.067,-25.550,376.302,264.863,-163.615,18.800,-38.710,78.420
43,36340.909000,243.175,60.087,-24.548,378.940,269.988,-166.419,51.800,-19.710,61.420
44,36340.950000,246.135,60.087,-23.546,378.942,268.280,-165.481,34.800,-31.710,60.420
45,36340.992000,245.148,57.057,-23.546,377.181,266.571,-164.549,39.800,-34.710,64.420
46,36341.11000,243.175,57.057,-25.550,378.940,266.544,-165.538,38.800,-45.710,63.420
47,36341.60000,249.094,58.067,-28.556,373.645,257.832,-166.830,28.800,-35.710,61.420
48,36341.92000,244.162,56.047,-26.552,378.930,260.412,-167.723,32.800,-13.710,55.420
49,36341.132000,245.148,59.077,-22.544,376.274,257.693,-171.791,8.800,-35.710,52.420
50,36341.187000,245.148,52.008,-31.562,375.405,255.230,-166.909,15.800,-38.710,51.420
51,36341.209000,244.162,53.018,-29.558,378.931,261.280,-167.694,9.800,-26.710,43.420
52,36341.230000,245.148,52.008,-29.558,381.568,261.226,-169.674,30.800,-8.710,35.420
53,36341.270000,243.175,52.008,-27.554,379.799,259.432,-171.724,47.800,10.290,25.420
54,36341.309000,250.081,55.037,-28.556,382.435,253.330,-172.906,13.800,11.290,28.420
55,36341.350000,246.135,50.998,-33.566,381.560,254.254,-170.893,17.800,47.290,18.420
56,36341.394000,242.189,58.067,-25.550,379.801,258.592,-170.758,1.800,77.290,7.420
57,36341.429000,247.121,57.057,-25.550,383.335,260.415,-167.708,-31.200,70.290,8.420
58,36341.470000,248.108,49.988,-25.550,385.103,260.473,-165.715,6.800,90.290,-2.580
59,36341.490000,242.189,55.037,-19.538,383.347,257.952,-162.823,20.800,85.290,-8.580
60,36341.530000,252.054,52.008,-23.546,379.810,251.789,-166.014,-15.200,53.290,3.420
61,36341.569000,244.162,52.008,-24.548,383.352,249.385,-159.129,16.800,73.290,-0.580
62,36341.610000,244.162,53.018,-24.548,384.222,245.829,-162.221,13.800,92.290,2.420
63,36341.650000,247.121,55.037,-20.540,386.871,245.887,-160.225,9.800,87.290,11.420
64,36341.693000,246.135,52.008,-15.530,388.641,253.729,-158.971,44.800,63.290,29.420
65,36341.713000,251.067,47.968,-12.524,387.752,253.644,-161.956,135.800,26.290,50.420
66,36341.755000,257.973,50.998,-2.505,392.158,251.939,-161.004,346.800,-12.710,89.420
67,36341.791000,257.973,62.107,5.511,392.131,246.506,-169.125,395.800,-137.710,153.420
68,36341.831000,257.973,57.057,-11.523,388.576,238.438,-178.335,371.800,-209.710,246.420
69,36341.871000,259.946,43.929,-21.542,391.200,224.467,-181.759,247.800,-329.710,323.420
70,36341.912000,255.013,19.692,-28.556,388.531,219.032,-189.887,-122.200,-366.710,384.420
71,36341.951000,248.108,-3.535,-36.571,392.039,213.714,-194.021,-68.200,-233.710,374.420
72,36341.971000,247.121,0.505,-33.566,394.676,205.904,-194.266,126.800,-36.710,372.420
73,36342.11000,230.351,1.515,-32.564,396.428,203.216,-197.326,142.800,93.290,363.420
74,36342.51000,227.391,20.702,-39.577,398.193,195.490,-194.592,-29.200,116.290,293.420
75,36342.91000,228.378,23.732,-44.587,402.607,185.246,-188.953,-113.200,162.290,192.420
76,36342.131000,223.445,20.702,-63.624,409.665,184.496,-184.982,-50.200,281.290,-13.580
77,36342.171000,238.243,47.968,-79.656,407.916,186.344,-180.956,143.800,238.290,-113.580
78,36342.191000,236.270,80.284,-42.583,410.576,198.582,-177.572,77.800,158.290,-267.580
79,36342.231000,248.108,49.988,-20.540,411.470,201.299,-173.509,69.800,231.290,-333.580
80,36342.276000,289.541,26.761,-5.511,413.258,204.998,-165.439,-3.200,289.290,-195.580
81,36342.312000,265.865,26.761,4.509,411.512,207.741,-160.390,-309.200,181.290,-90.580
82,36342.353000,258.960,31.811,-0.501,410.636,211.241,-159.287,-175.200,106.290,-120.580
83,36342.393000,248.108,40.899,2.505,408.004,213.928,-156.229,1.800,46.290,-110.580
84,36342.433000,243.175,37.870,-6.513,413.287,213.903,-157.206,-101.200,-108.710,-40.580
85,36342.453000,246.135,42.919,-14.528,406.232,215.550,-160.154,-70.200,-158.710,-8.580
86,36342.493000,250.081,28.781,-20.540,407.117,221.626,-159.954,-23.200,-145.710,5.420
87,36342.533000,254.027,35.850,-22.544,408.867,220.647,-163.952,-13.200,-117.710,7.420
88,36342.573000,257.973,31.811,-28.556,405.344,221.512,-163.935,-70.200,-73.710,-5.580
89,36342.613000,250.081,27.771,-28.556,402.699,222.350,-164.910,-35.200,-6.710,-19.580
90,36342.654000,248.108,30.801,-25.550,407.111,220.702,-161.970,-70.200,26.290,-36.580
91,36342.674000,246.135,37.870,-18.536,407.983,219.750,-164.977,-61.200,36.290,-31.580
92,36342.714000,248.108,41.909,-14.528,406.232,218.993,-161.035,-18.200,23.290,-4.580
93,36342.755000,251.067,40.899,-13.526,404.464,223.248,-163.882,-0.200,-26.710,37.420
94,36342.794000,248.108,34.840,-20.540,405.348,222.408,-162.913,1.800,-51.710,53.420
95,36342.835000,253.040,35.850,-27.554,401.823,220.670,-162.981,-15.200,-51.710,59.420
96,36342.875000,250.081,29.791,-23.546,405.350,221.569,-161.948,-19.200,-12.710,45.420
97,36342.914000,251.067,32.821,-20.540,405.347,217.229,-162.088,-31.200,2.290,43.420
98,36342.935000,254.027,36.860,-21.542,404.467,215.520,-161.154,-23.200,14.290,46.420
99,36342.973000,251.067,28.781,-21.542,407.994,218.995,-161.030,-9.200,38.290,38.420
100,36343.13000,249.094,29.791,-20.540,408.864,219.751,-164.974,2.800,42.290,35.420
101,36343.53000,254.027,33.830,-22.544,408.881,219.920,-159.011,12.800,49.290,38.420
102,36343.92000,256.000,27.771,-20.540,408.890,216.560,-155.148,23.800,94.290,31.420
103,36343.132000,249.094,31.811,-16.532,410.652,217.430,-155.114,50.800,100.290,28.420
104,36343.152000,248.108,22.722,-19.538,409.759,212.136,-158.267,75.800,80.290,50.420
105,36343.192000,240.216,56.047,7.515,412.395,206.902,-159.422,146.800,0.290,72.420
106,36343.238000,256.000,12.623,-26.552,415.048,209.593,-156.347,-38.200,-6.710,63.420
107,36343.272000,254.027,24.742,-21.542,412.402,208.695,-157.378,48.800,80.290,34.420
108,36343.316000,244.162,16.663,-22.544,415.053,211.357,-155.297,118.800,114.290,34.420
109,36343.356000,241.202,23.732,-9.519,415.052,207.045,-154.444,254.800,86.290,61.420
110,36343.394000,256.987,40.899,-1.503,417.688,200.943,-155.626,116.800,-7.710,51.420
111,36343.415000,249.094,27.771,-26.552,418.544,198.114,-163.659,322.800,-38.710,43.420
112,36343.454000,251.067,46.959,-34.568,415.009,194.555,-166.765,159.800,-211.710,52.420
113,36343.494000,231.337,93.412,-80.658,413.226,196.064,-174.666,383.800,-356.710,-152.580
114,36343.535000,225.418,101.491,-61.620,408.796,200.987,-184.450,-445.200,-540.710,-332.580
115,36343.578000,232.324,52.008,-40.579,401.761,213.163,-183.085,-406.200,-231.710,-325.580
116,36343.613000,249.094,-12.623,-8.517,400.890,223.606,-181.756,34.800,96.290,-178.580
117,36343.633000,271.784,-14.643,53.605,400.899,223.691,-178.774,178.800,190.290,-111.580
118,36343.673000,258.960,9.594,-37.573,401.789,225.512,-175.733,-207.200,210.290,-20.580
119,36343.713000,256.987,32.821,-17.534,400.915,226.435,-173.720,-308.200,-42.710,-67.580
120,36343.753000,254.027,70.185,-25.550,404.445,223.050,-170.839,2.800,3.290,-58.580
121,36343.793000,244.162,47.968,-23.546,400.916,223.860,-172.810,72.800,28.290,-14.580
122,36343.833000,243.175,21.712,-21.542,402.687,228.257,-170.676,-134.200,-66.710,18.420
123,36343.873000,250.081,46.959,-15.530,401.798,229.908,-173.604,-79.200,-86.710,-2.580
124,36343.893000,253.040,55.037,-21.542,400.914,229.011,-174.629,-140.200,-111.710,-25.580
125,36343.933000,249.094,26.761,-30.560,400.030,228.982,-175.626,0.800,-56.710,-6.580
126,36343.973000,242.189,40.899,-20.540,400.912,229.851,-175.595,41.800,-46.710,-9.580
127,36344.12000,252.054,40.899,-33.566,395.627,235.027,-176.437,-49.200,-61.710,-31.580
128,36344.52000,247.121,29.791,-31.562,393.861,233.262,-177.493,11.800,-9.710,-28.580
129,36344.92000,248.108,47.968,-23.546,396.503,232.395,-177.512,13.800,-17.710,-31.580
130,36344.112000,254.027,46.959,-32.564,397.388,233.292,-176.487,-68.200,-11.710,-43.580
131,36344.156000,247.121,39.890,-33.566,394.749,238.498,-176.327,12.800,49.290,-39.580
132,36344.196000,246.135,42.919,-23.546,393.885,235.223,-169.485,-34.200,33.290,-35.580
133,36344.233000,251.067,47.968,-20.540,393.883,236.931,-170.423,-89.200,-31.710,-23.580
134,36344.273000,245.148,38.880,-29.558,392.102,233.288,-176.505,-46.200,-39.710,-3.580
135,36344.313000,239.229,41.909,-24.548,392.104,232.449,-175.539,5.800,-45.710,10.420
136,36344.357000,253.040,47.968,-30.560,392.992,234.242,-173.492,-7.200,-35.710,15.420
137,36344.377000,247.121,37.870,-31.562,395.631,240.235,-176.268,11.800,0.290,14.420
138,36344.417000,249.094,44.939,-25.550,394.750,240.234,-176.271,1.800,1.290,4.420
139,36344.457000,250.081,41.909,-29.558,394.751,241.970,-176.214,-18.200,18.290,0.420
140,36344.497000,246.135,42.919,-28.556,395.632,238.527,-175.330,1.800,37.290,0.420
141,36344.533000,247.121,42.919,-26.552,392.101,232.420,-176.533,6.800,40.290,-2.580
142,36344.573000,247.121,40.899,-26.552,396.522,235.168,-171.464,-9.200,32.290,-8.580
143,36344.593000,248.108,43.929,-22.544,395.634,232.507,-173.540,-21.200,14.290,-13.580
144,36344.637000,254.027,41.909,-24.548,397.402,234.301,-171.490,-22.200,-3.710,-13.580
145,36344.677000,249.094,38.880,-25.550,396.517,235.112,-173.452,-12.200,-14.710,-21.580
146,36344.717000,247.121,44.939,-23.546,393.884,241.243,-171.276,-33.200,-40.710,-27.580
147,36344.756000,248.108,38.880,-25.550,392.114,242.025,-174.235,-32.200,-49.710,-38.580
148,36344.796000,246.135,43.929,-25.550,389.473,244.627,-174.159,-23.200,-50.710,-48.580
149,36344.837000,251.067,45.949,-29.558,390.358,249.835,-173.987,-42.200,-52.710,-50.580
150,36344.857000,246.135,42.919,-31.562,390.357,248.099,-174.044,-20.200,-29.710,-53.580
151,36344.897000,246.135,46.959,-24.548,389.475,247.231,-174.075,-13.200,-38.710,-53.580
152,36344.937000,249.094,47.968,-29.558,385.955,248.124,-173.064,-23.200,-42.710,-45.580
153,36344.977000,245.148,46.959,-29.558,387.702,247.117,-178.056,4.800,-32.710,-43.580
154,36345.17000,250.081,52.008,-29.558,389.464,247.986,-178.022,-5.200,-45.710,-46.580
155,36345.57000,247.121,46.959,-31.562,383.298,247.982,-178.042,-12.200,-24.710,-54.580
156,36345.77000,245.148,47.968,-32.564,383.301,252.322,-177.901,-19.200,-7.710,-64.580
157,36345.116000,247.121,53.018,-26.552,385.065,247.171,-176.077,-13.200,-5.710,-58.580
158,36345.156000,246.135,49.988,-27.554,382.421,246.301,-176.113,-17.200,-11.710,-51.580
159,36345.203000,242.189,53.018,-26.552,384.184,251.482,-176.933,-3.200,-31.710,-36.580
160,36345.237000,254.027,52.008,-28.556,382.425,255.821,-176.797,-10.200,-53.710,-30.580
161,36345.277000,254.027,47.968,-28.556,380.660,254.924,-177.825,11.800,-41.710,-48.580
162,36345.317000,240.216,47.968,-28.556,380.662,257.528,-177.741,19.800,-74.710,-75.580
163,36345.337000,245.148,50.998,-30.560,379.765,251.338,-181.916,1.800,-106.710,-89.580
164,36345.377000,242.189,54.028,-27.554,380.641,248.707,-182.992,11.800,-136.710,-104.580
165,36345.417000,239.229,46.959,-34.568,375.345,249.458,-186.956,19.800,-197.710,-116.580
166,36345.457000,241.202,46.959,-36.571,371.823,263.259,-189.499,24.800,-212.710,-148.580
167,36345.497000,239.229,49.988,-49.597,365.645,263.142,-193.494,-13.200,-182.710,-231.580
168,36345.537000,240.216,32.821,-57.613,361.236,269.998,-196.265,37.800,-40.710,-311.580
169,36345.557000,238.243,74.225,-48.595,355.076,274.362,-195.150,86.800,43.290,-397.580
170,36345.597000,248.108,84.323,-43.585,352.440,276.152,-193.115,58.800,115.290,-350.580
171,36345.637000,243.175,81.294,-41.581,351.559,283.907,-194.852,46.800,133.290,-275.580
172,36345.683000,243.175,81.294,-29.558,353.324,284.805,-193.824,121.800,131.290,-189.580
173,36345.717000,236.270,83.314,-39.577,348.042,285.697,-192.819,125.800,129.290,-112.580
174,36345.757000,229.364,73.215,-41.581,351.563,285.672,-193.801,203.800,137.290,-85.580
175,36345.797000,246.135,82.304,-27.554,350.688,285.727,-191.816,122.800,122.290,-69.580
176,36345.817000,226.405,78.264,-28.556,353.335,283.182,-189.905,168.800,74.290,-52.580
177,36345.857000,219.499,93.412,-32.564,350.673,280.407,-195.961,117.800,-17.710,-6.580
178,36345.898000,243.175,83.314,-27.554,349.785,279.482,-197.980,28.800,-76.710,55.420
179,36345.938000,227.391,68.166,-21.542,350.658,283.710,-201.812,8.800,-234.710,69.420
180,36345.978000,243.175,81.294,-52.603,346.248,280.206,-202.933,-126.200,-304.710,84.420
181,36346.18000,249.094,72.205,-69.636,345.357,274.073,-205.121,-63.200,-164.710,111.420
182,36346.57000,250.081,74.225,-71.640,349.778,281.133,-200.905,-70.200,144.290,105.420
183,36346.77000,234.297,88.363,-46.591,350.666,278.614,-198.005,-84.200,282.290,155.420
184,36346.118000,242.189,69.176,-24.548,358.610,277.053,-192.073,-237.200,229.290,212.420
185,36346.158000,237.256,74.225,-23.546,364.796,276.387,-185.123,-335.200,99.290,226.420
186,36346.198000,235.283,68.166,-21.542,364.808,273.924,-180.238,-295.200,23.290,232.420
187,36346.246000,237.256,66.146,-18.536,368.332,273.926,-180.227,-166.200,-88.710,257.420
188,36346.276000,244.162,68.166,-30.560,369.211,267.011,-179.456,-125.200,-117.710,273.420
189,36346.296000,239.229,54.028,-31.562,370.968,264.380,-180.528,41.800,-79.710,259.420
190,36346.337000,237.256,69.176,-27.554,371.842,255.701,-180.807,-71.200,-176.710,303.420
191,36346.381000,183.985,70.185,24.548,378.862,256.292,-190.695,202.800,-398.710,391.420
192,36346.416000,245.148,139.866,34.568,376.155,238.423,-209.158,159.800,-850.710,657.420
193,36346.457000,230.351,17.673,-52.603,376.986,223.274,-223.549,475.800,-1017.710,737.420
194,36346.497000,253.040,62.107,-56.611,369.855,199.185,-247.192,810.800,-1090.710,740.420
195,36346.538000,228.378,23.732,-153.800,365.390,186.522,-265.491,39.800,-1079.710,728.420
196,36346.558000,221.472,-159.053,-143.781,360.967,183.746,-271.553,-124.200,-214.710,284.420
197,36346.598000,333.935,60.087,-62.622,365.377,187.250,-270.432,-4.200,39.290,-136.580
198,36346.638000,263.892,-56.047,-105.706,358.333,196.764,-271.139,-215.200,-143.710,-456.580
199,36346.678000,186.944,1.515,-133.761,349.545,206.447,-265.888,45.800,266.290,-683.580
200,36346.719000,216.540,72.205,-96.689,346.938,224.030,-257.382,-395.200,380.290,-631.580
201,36346.754000,237.256,13.633,-73.644,348.739,239.069,-246.958,-360.200,471.290,-550.580
202,36346.774000,246.135,100.481,-58.614,350.509,238.287,-243.999,-68.200,354.290,-483.580
203,36346.814000,248.108,56.047,-63.624,347.896,251.502,-236.628,-104.200,275.290,-373.580
204,36346.854000,227.391,59.077,-87.671,345.262,252.453,-233.626,120.800,358.290,-292.580
205,36346.894000,242.189,44.939,-59.616,349.682,257.776,-229.467,430.800,482.290,-329.580
206,36346.939000,239.229,65.136,-39.577,348.802,259.512,-229.414,478.800,404.290,-360.580
207,36346.979000,222.459,56.047,-44.587,347.911,257.691,-232.455,346.800,215.290,-291.580
208,36347.19000,232.324,56.047,-27.554,348.780,256.711,-236.456,485.800,-37.710,-280.580
209,36347.39000,222.459,86.343,-13.526,338.175,252.921,-247.536,609.800,-316.710,-285.580
210,36347.79000,224.432,83.314,-74.646,334.625,255.241,-257.402,359.800,-574.710,-212.580
211,36347.119000,239.229,87.353,-95.687,324.900,254.896,-269.360,203.800,-510.710,-109.580
212,36347.159000,271.784,26.761,-120.736,322.239,249.545,-274.507,58.800,-254.710,-71.580
213,36347.199000,326.042,-10.604,-127.750,321.363,247.865,-272.578,464.800,115.290,-167.580
214,36347.239000,265.865,-33.830,-32.564,316.927,248.420,-283.497,1050.800,-235.710,-227.580
215,36347.259000,377.341,-91.393,-68.634,304.478,214.525,-316.413,2000.800,-1216.710,319.420
216,36347.298000,511.507,-96.442,-197.886,272.541,145.080,-379.341,2852.800,-2972.710,1387.420
217,36347.338000,511.507,168.142,68.634,221.245,34.492,-424.800,3709.800,-2866.710,2774.420
218,36347.378000,437.518,471.101,205.902,178.889,-17.929,-437.559,1082.800,-1765.710,3236.420
219,36347.418000,228.378,76.245,-71.640,176.271,10.741,-435.644,-1908.200,540.290,3071.420
220,36347.458000,198.782,516.544,41.581,210.685,11.330,-415.655,-1382.200,2318.290,2103.420
221,36347.479000,117.888,516.544,-240.971,262.810,80.058,-378.503,-4018.200,2685.290,982.420
222,36347.516000,95.198,387.282,-363.209,310.628,167.827,-311.951,-5357.200,2685.290,314.420
223,36347.556000,-22.197,348.907,-441.362,337.218,199.606,-262.178,-3506.200,2866.290,14.420
224,36347.596000,-36.994,347.897,-503.483,360.368,249.447,-187.005,-3360.200,2335.290,-946.580
225,36347.638000,-2.466,84.323,-503.483,348.244,303.208,-125.720,-2492.200,1244.290,-1865.580
226,36347.678000,52.778,-46.959,-413.307,330.698,340.102,-108.691,-160.200,791.290,-2015.580
227,36347.717000,76.455,-181.270,-220.932,310.423,353.750,-116.257,992.800,486.290,-1936.580
228,36347.737000,397.071,-410.509,-84.665,279.472,358.592,-158.898,3282.800,157.290,-1564.580
229,36347.776000,511.507,-41.909,263.014,268.806,344.720,-189.172,1405.800,-130.710,-433.580
230,36347.817000,511.507,-16.663,138.771,273.343,359.822,-145.968,-3482.200,-505.710,118.420
231,36347.857000,231.337,117.649,-67.632,268.006,359.311,-163.876,1198.800,142.290,-382.580
232,36347.898000,307.299,78.264,-30.560,266.233,362.641,-168.738,431.800,331.290,-434.580
233,36347.938000,423.707,68.166,61.620,259.178,367.731,-172.568,1019.800,303.290,-716.580
234,36347.958000,497.696,41.909,138.771,243.212,358.894,-208.654,2556.800,277.290,-965.580
235,36347.997000,511.507,-115.629,95.687,228.989,342.973,-249.928,2806.800,242.290,-965.580
236,36348.41000,242.189,-198.438,-94.685,227.144,325.775,-275.317,2649.800,277.290,-150.580
237,36348.76000,327.029,-126.738,-202.896,226.195,301.831,-293.971,1354.800,628.290,180.420
238,36348.116000,150.443,-177.231,-68.634,254.401,289.085,-285.357,874.800,1425.290,874.420
239,36348.157000,174.119,-171.172,-176.845,305.528,247.211,-264.706,976.800,2160.290,2232.420
240,36348.197000,167.214,-68.166,-244.978,336.373,213.747,-252.785,1008.800,2094.290,2517.420
241,36348.217000,184.971,-25.751,-221.933,380.459,162.460,-227.497,670.800,1864.290,2513.420
242,36348.257000,195.823,68.166,-136.767,404.295,115.582,-199.152,255.800,1684.290,2228.420
243,36348.297000,215.553,215.606,-75.648,424.637,71.588,-160.795,-334.200,1841.290,2177.420
244,36348.337000,205.688,298.414,-187.867,431.748,62.749,-136.234,-3264.200,1445.290,1530.420
245,36348.381000,344.786,444.844,111.718,434.467,73.843,-112.033,-6863.200,129.290,1043.420
246,36348.419000,329.988,148.955,-69.636,437.188,76.342,-85.133,2411.800,1511.290,-607.580
247,36348.439000,308.285,128.757,224.939,440.776,70.944,-61.465,5620.800,1908.290,-463.580
248,36348.479000,282.636,257.010,176.845,438.993,69.878,-68.456,-104.200,-395.710,258.420
249,36348.519000,270.798,391.322,-18.536,438.943,70.239,-86.318,-1299.200,-1672.710,278.420
250,36348.557000,413.842,129.767,-41.581,430.002,68.069,-132.095,-1806.200,-2429.710,136.420
251,36348.598000,424.694,64.126,-259.006,419.304,57.330,-174.183,3232.800,-1782.710,-461.580
252,36348.638000,219.499,211.566,-60.618,402.439,62.098,-219.760,1591.800,-2207.710,-1161.580
253,36348.677000,167.214,19.692,-112.720,388.273,83.782,-249.885,-1027.200,-2317.710,-1619.580
254,36348.699000,168.200,-15.653,-117.730,357.393,135.863,-278.083,-1821.200,-1877.710,-1660.580
255,36348.738000,126.767,-14.643,-112.720,330.112,193.858,-281.254,-2451.200,-1379.710,-1735.580
256,36348.777000,167.214,-169.152,-127.750,304.639,255.749,-269.397,-2452.200,-513.710,-1632.580
257,36348.821000,116.902,-149.964,-131.757,293.233,276.883,-257.825,-1526.200,66.290,-1307.580
258,36348.858000,218.513,-274.178,-145.785,282.731,305.130,-240.061,-709.200,352.290,-1349.580
259,36348.897000,338.867,-209.546,-22.544,276.511,298.570,-257.175,2799.800,1155.290,-1281.580
260,36348.918000,405.950,-89.373,166.826,279.997,277.516,-265.791,1678.800,1173.290,-560.580
261,36348.958000,479.938,-21.712,-56.611,282.687,291.772,-252.411,-2232.200,34.290,453.420
262,36348.998000,411.869,378.193,140.775,286.319,312.668,-218.952,-1638.200,132.290,-213.580
263,36349.38000,167.214,170.162,-3.507,293.271,281.561,-245.757,2926.800,197.290,429.420
264,36349.79000,189.904,116.639,-138.771,295.899,273.666,-248.984,-787.200,-470.710,524.420
265,36349.121000,251.067,42.919,-110.716,302.963,269.528,-242.145,-106.200,102.290,451.420
266,36349.162000,254.027,104.521,-27.554,307.385,277.456,-237.901,-735.200,-250.710,362.420
267,36349.178000,254.027,36.860,-105.706,307.390,276.644,-235.942,-826.200,-349.710,336.420
268,36349.217000,250.081,-68.166,-73.644,308.288,280.258,-230.856,265.800,218.290,-269.580
269,36349.261000,238.243,139.866,-63.624,305.630,279.247,-235.863,1081.800,376.290,-662.580
270,36349.301000,203.715,139.866,-83.663,302.082,277.283,-243.882,929.800,419.290,-585.580
271,36349.337000,211.607,106.540,-67.632,297.683,284.224,-243.671,494.800,423.290,-426.580
272,36349.377000,231.337,107.550,-71.640,295.030,281.534,-246.745,484.800,453.290,-402.580
273,36349.402000,226.405,129.767,-63.624,296.796,284.167,-245.661,463.800,506.290,-298.580
274,36349.437000,225.418,125.728,-38.575,299.433,272.045,-245.053,707.800,554.290,-132.580
275,36349.477000,207.661,130.777,5.511,302.066,266.783,-247.202,684.800,270.290,-58.580
276,36349.522000,229.364,110.580,-29.558,302.053,267.510,-252.143,422.800,-168.710,-56.580
277,36349.562000,201.742,106.540,-52.603,298.488,265.377,-266.125,295.800,-320.710,-33.580
278,36349.602000,133.672,88.363,-59.616,288.807,271.502,-263.972,-389.200,-577.710,-119.580
279,36349.642000,234.297,41.909,-61.620,279.978,271.299,-270.958,191.800,-621.710,-78.580
280,36349.661000,261.919,175.211,-114.724,273.776,265.776,-282.079,-33.200,-561.710,43.420
281,36349.701000,225.418,141.886,-140.775,275.521,257.853,-286.303,335.800,9.290,233.420
282,36349.749000,233.310,92.402,-87.671,284.328,250.944,-285.506,292.800,385.290,234.420
283,36349.778000,217.526,102.501,-94.685,289.636,250.305,-277.566,-162.200,411.290,300.420
284,36349.822000,181.025,121.688,-77.652,304.633,251.381,-270.532,-237.200,470.290,404.420
285,36349.862000,246.135,60.087,-59.616,315.243,250.047,-256.639,-394.200,450.290,465.420
286,36349.882000,253.040,67.156,-49.597,322.318,248.598,-246.734,-277.200,413.290,373.420
287,36349.919000,245.148,71.195,-56.611,326.733,247.846,-242.772,-185.200,424.290,277.420
288,36349.962000,234.297,77.254,-36.571,336.447,242.058,-232.999,-230.200,348.290,223.420
289,36349.998000,230.351,88.363,-24.548,340.863,236.994,-228.184,-227.200,223.290,253.420
290,36350.42000,225.418,76.245,-39.577,350.573,240.642,-222.077,97.800,170.290,255.420
291,36350.82000,221.472,71.195,-38.575,350.574,238.935,-221.139,11.800,75.290,262.420
292,36350.122000,238.243,79.274,3.507,355.841,231.854,-226.317,282.800,-31.710,407.420
293,36350.138000,252.054,62.107,-32.564,359.332,218.611,-234.679,223.800,-304.710,417.420
294,36350.181000,252.054,50.998,-49.597,358.433,209.818,-238.939,210.800,-273.710,380.420
295,36350.228000,214.566,29.791,-45.589,360.163,200.017,-248.189,263.800,-306.710,391.420
296,36350.261000,246.135,57.057,-23.546,361.018,185.121,-253.634,699.800,-365.710,416.420
297,36350.302000,268.825,62.107,-32.564,360.077,163.838,-270.216,940.800,-499.710,576.420
298,36350.349000,270.798,72.205,-87.671,359.169,154.960,-277.458,-302.200,-570.710,547.420
299,36350.358000,237.256,-0.505,-136.767,358.307,165.488,-273.147,-1124.200,-144.710,484.420
300,36350.398000,225.418,20.702,-90.677,360.090,170.866,-267.009,-942.200,115.290,225.420
301,36350.438000,199.769,2.525,-75.648,362.759,179.745,-259.761,-614.200,273.290,-6.580
302,36350.478000,211.607,-16.663,-48.595,365.432,181.765,-249.757,138.800,367.290,-175.580
303,36350.518000,232.324,13.633,-38.575,362.783,181.707,-251.754,534.800,176.290,-431.580
304,36350.558000,262.906,74.225,-30.560,362.778,181.651,-253.741,366.800,-18.710,-393.580
305,36350.598000,246.135,66.146,-59.616,360.140,192.036,-254.406,130.800,-229.710,-362.580
306,36350.618000,237.256,46.959,-76.650,352.177,195.136,-267.240,304.800,-267.710,-235.580
307,36350.662000,213.580,74.225,-70.638,346.880,191.576,-270.351,449.800,-177.710,-215.580
308,36350.702000,243.175,50.998,-97.691,343.343,192.301,-275.304,243.800,-100.710,-87.580
309,36350.742000,261.919,55.037,-70.638,341.569,187.875,-278.432,176.800,-66.710,-52.580
310,36350.778000,251.067,49.988,-79.656,338.925,186.137,-278.497,-5.200,-25.710,-13.580
311,36350.823000,246.135,64.126,-83.663,340.684,182.666,-278.604,37.800,66.290,75.420
312,36350.863000,254.027,73.215,-74.646,345.102,177.630,-272.795,68.800,139.290,201.420
313,36350.883000,260.933,42.919,-48.595,348.621,179.313,-274.715,70.800,80.290,285.420
314,36350.923000,286.582,50.998,6.513,347.728,174.020,-277.869,307.800,-228.710,393.420
315,36350.963000,391.152,101.491,46.591,348.565,160.662,-290.216,449.800,-773.710,544.420
316,36351.3000,511.507,238.832,108.712,337.012,138.109,-320.774,709.800,-1388.710,908.420
317,36351.43000,498.682,345.878,-6.513,329.019,120.236,-339.254,-228.200,-1665.710,1416.420
318,36351.82000,156.362,253.980,-215.922,325.454,125.859,-354.970,-1268.200,-1180.710,1027.420
319,36351.102000,-2.466,182.280,-318.121,329.019,151.259,-346.191,-1372.200,68.290,-105.580
320,36351.141000,-36.008,94.422,-150.795,339.682,190.946,-323.023,-1951.200,570.290,-493.580
321,36351.182000,-13.318,64.126,-260.008,351.250,224.840,-290.111,-1893.200,815.290,-427.580
322,36351.231000,-13.318,37.870,-307.100,355.763,268.135,-261.880,-2746.200,283.290,-845.580
323,36351.261000,13.318,-7.574,-310.106,347.101,315.260,-220.659,-2711.200,-73.710,-987.580
324,36351.306000,48.832,4.544,-250.990,334.870,354.175,-193.618,-1797.200,-37.710,-1061.580
325,36351.341000,89.279,-59.077,-153.800,328.745,379.568,-184.870,-507.200,297.290,-1144.580
326,36351.361000,130.713,-65.136,-18.536,326.982,382.142,-185.785,667.800,878.290,-1114.580
327,36351.399000,244.162,-27.771,-503.483,324.325,389.755,-192.497,1303.800,1668.290,-1229.580
328,36351.447000,511.507,126.738,26.552,306.588,393.739,-235.123,1094.800,828.290,-1945.580
329,36351.483000,511.507,120.679,49.597,300.526,417.176,-203.600,-1845.200,504.290,-638.580
330,36351.523000,334.921,302.454,222.935,303.178,414.686,-199.700,50.800,13.290,175.420
331,36351.563000,425.680,168.142,54.607,296.977,413.476,-211.675,927.800,-289.710,-144.580
332,36351.582000,435.545,49.988,85.667,285.414,397.726,-246.978,2242.800,-84.710,-367.580
333,36351.622000,481.911,-83.314,100.697,276.456,365.232,-291.753,2736.800,-39.710,-106.580
334,36351.663000,374.382,-112.600,42.583,275.496,342.912,-314.326,2046.800,204.290,387.420
335,36351.702000,214.566,1.515,-195.883,281.635,324.547,-319.867,651.800,449.290,520.420
336,36351.742000,238.243,-237.822,-139.773,286.960,319.766,-305.110,81.800,677.290,753.420
337,36351.782000,171.160,-44.939,-112.720,307.201,276.493,-302.477,1901.800,1504.290,1305.420
338,36351.822000,161.295,-16.663,-116.728,345.983,235.365,-285.814,1222.800,1837.290,1633.420
339,36351.842000,170.173,-34.840,-140.775,365.385,209.733,-272.682,670.800,2026.290,1896.420
340,36351.883000,198.782,-30.801,-149.793,399.811,165.636,-238.255,617.800,2174.290,1980.420
341,36351.922000,154.389,139.866,-196.885,430.726,126.829,-200.688,-380.200,2056.290,1996.420
342,36351.963000,145.511,192.379,-228.947,447.554,107.052,-164.535,-3773.200,957.290,2138.420
343,36352.2000,169.187,176.221,-108.712,455.544,102.497,-141.819,-5274.200,240.290,2097.420
344,36352.43000,197.796,290.335,-160.814,459.999,98.696,-123.061,-5204.200,51.290,1504.420
345,36352.63000,339.854,239.842,46.591,456.499,95.475,-114.240,-982.200,488.290,-161.580
346,36352.103000,326.042,171.172,63.624,452.120,112.104,-108.749,2165.800,802.290,-1235.580
347,36352.143000,291.514,128.757,149.793,446.831,118.960,-111.523,4473.800,826.290,-1640.580
348,36352.183000,405.950,-373.144,221.933,440.638,124.722,-122.278,2238.800,396.290,-281.580
349,36352.222000,244.162,335.779,202.896,433.551,140.701,-139.656,-2001.200,-1492.710,-768.580
350,36352.264000,292.501,-88.363,-40.579,422.954,162.839,-153.867,-1914.200,-1318.710,-359.580
351,36352.309000,245.148,29.791,-32.564,412.327,164.872,-173.695,457.800,-760.710,-307.580
352,36352.323000,264.879,-48.978,-98.693,407.910,175.088,-180.328,-1606.200,-943.710,-446.580
353,36352.363000,265.865,4.544,-48.595,397.337,191.431,-184.797,237.800,-223.710,-689.580
354,36352.402000,252.054,40.899,-52.603,391.172,197.474,-185.614,-525.200,-115.710,-721.580
355,36352.443000,240.216,54.028,-42.583,380.640,224.572,-177.817,-418.200,4.290,-681.580
356,36352.484000,258.960,13.633,-14.528,375.359,230.644,-177.637,-293.200,-0.710,-528.580
357,36352.524000,245.148,69.176,-20.540,371.852,245.454,-175.182,-303.200,-169.710,-391.580
358,36352.541000,256.000,53.018,-36.571,366.559,247.101,-178.124,-438.200,-244.710,-257.580
359,36352.582000,238.243,55.037,-35.569,363.923,256.647,-177.823,-34.200,-211.710,-130.580
360,36352.626000,243.175,50.998,-44.587,359.500,254.739,-183.857,-198.200,-274.710,-82.580
361,36352.661000,252.054,54.028,-43.585,354.206,254.651,-186.856,-124.200,-290.710,-65.580
362,36352.701000,249.094,14.643,-58.614,354.211,258.151,-185.749,-187.200,-189.710,-128.580
363,36352.741000,245.148,28.781,-37.573,348.040,263.270,-188.582,-47.200,-125.710,-243.580
364,36352.781000,244.162,57.057,-52.603,345.395,271.864,-191.290,147.800,-181.710,-322.580
365,36352.803000,241.202,52.008,-63.624,343.629,277.854,-194.081,158.800,-127.710,-354.580
366,36352.844000,249.094,53.018,-51.601,336.565,281.992,-200.920,214.800,-129.710,-397.580
367,36352.884000,230.351,106.540,-55.609,325.986,284.503,-203.851,105.800,-141.710,-332.580
368,36352.924000,237.256,66.146,-62.622,325.095,286.126,-207.773,-66.200,-93.710,-130.580
369,36352.964000,232.324,57.057,-43.585,324.218,282.710,-205.901,33.800,-51.710,-156.580
370,36353.4000,234.297,91.393,-45.589,319.801,285.170,-210.800,3.800,-153.710,-106.580
371,36353.24000,235.283,67.156,-73.644,319.812,289.594,-207.678,22.800,-79.710,-13.580
372,36353.63000,231.337,66.146,-67.632,315.403,287.827,-208.742,20.800,-37.710,3.420
373,36353.103000,242.189,70.185,-53.605,318.039,285.168,-210.806,154.800,-24.710,-42.580
374,36353.143000,225.418,77.254,-72.642,316.281,286.931,-209.762,-11.200,-16.710,4.420
375,36353.183000,234.297,68.166,-61.620,313.625,284.213,-213.830,-49.200,22.290,48.420
376,36353.229000,241.202,67.156,-57.613,315.396,281.723,-209.933,-60.200,1.290,25.420
377,36353.264000,239.229,74.225,-74.646,321.563,289.483,-211.648,130.800,136.290,-47.580
378,36353.284000,235.283,39.890,-61.620,322.450,290.408,-209.629,197.800,285.290,-111.580
379,36353.324000,221.472,120.679,-41.581,323.346,291.417,-204.628,140.800,214.290,-104.580
380,36353.364000,233.310,84.323,-53.605,324.213,287.833,-208.714,181.800,171.290,-1.580
381,36353.404000,222.459,97.452,-51.601,325.979,285.287,-206.805,165.800,139.290,117.420
382,36353.444000,231.337,56.047,-43.585,325.084,274.814,-209.133,116.800,59.290,193.420
383,36353.483000,244.162,73.215,-59.616,327.727,271.372,-208.244,-13.200,2.290,212.420
384,36353.502000,244.162,39.890,-53.605,334.775,267.933,-207.340,47.800,110.290,210.420
385,36353.542000,241.202,46.959,-41.581,334.772,267.905,-208.334,85.800,46.290,156.420
386,36353.582000,256.000,74.225,-49.597,339.177,264.464,-207.438,79.800,-2.710,243.420
387,36353.623000,234.297,34.840,-47.593,342.685,261.722,-212.481,222.800,8.290,263.420
388,36353.663000,236.270,67.156,-35.569,345.323,254.780,-212.698,251.800,-118.710,284.420
389,36353.704000,230.351,76.245,-40.579,349.703,245.066,-218.957,338.800,-223.710,428.420
390,36353.744000,297.434,84.323,-20.540,349.668,235.237,-229.206,321.800,-396.710,636.420
391,36353.792000,329.002,78.264,-10.521,355.782,214.043,-242.783,469.800,-655.710,834.420
392,36353.812000,430.613,93.412,42.583,358.356,189.234,-261.453,880.800,-874.710,963.420
393,36353.842000,511.507,258.020,87.671,360.907,160.756,-287.194,990.800,-1131.710,1130.420
394,36353.887000,416.802,359.006,-101.699,363.504,140.484,-298.766,1428.800,-520.710,873.420
395,36353.922000,-52.778,114.619,-261.010,373.196,112.072,-291.713,2373.800,965.290,-160.580
396,36353.962000,19.237,129.767,-503.483,382.031,108.020,-281.887,144.800,213.290,-752.580
397,36353.982000,-62.644,71.195,-325.135,367.992,165.439,-275.104,-3361.200,-978.710,-1338.580
398,36354.24000,73.495,-88.363,-221.933,343.441,244.972,-252.742,-4107.200,-1034.710,-1593.580
399,36354.64000,77.441,-100.481,-196.885,331.181,283.606,-235.639,-3013.200,-629.710,-1676.580
400,36354.103000,131.699,-126.738,-174.841,311.031,331.224,-207.348,-1967.200,-337.710,-1564.580
401,36354.147000,152.416,-115.629,-148.791,291.714,368.032,-193.307,-932.200,171.290,-1500.580
402,36354.183000,251.067,-112.600,-100.697,282.074,390.930,-180.679,-52.200,802.290,-1320.580
403,36354.226000,329.988,-35.850,22.544,277.676,400.475,-180.383,240.800,975.290,-1229.580
404,36354.244000,348.732,-93.412,-315.115,271.560,415.621,-166.009,-53.200,1105.290,-1027.580
405,36354.282000,511.507,149.964,357.198,265.316,409.676,-192.040,479.800,-170.710,-180.580
406,36354.323000,376.355,373.144,409.299,269.762,412.678,-178.026,-1513.200,-457.710,301.420
407,36354.366000,511.507,198.438,71.640,273.317,415.566,-167.991,-662.200,-415.710,381.420
408,36354.404000,369.449,25.751,98.693,277.721,411.257,-167.124,887.800,584.290,536.420
409,36354.444000,177.079,-28.781,-219.930,290.038,388.698,-167.817,984.800,796.290,637.420
410,36354.464000,254.027,-89.373,-118.732,297.926,372.798,-178.237,1029.800,659.290,673.420
411,36354.504000,166.227,-78.264,-91.679,313.766,356.262,-180.709,598.800,485.290,1056.420
412,36354.543000,183.985,-121.688,-118.732,328.720,334.516,-183.353,1033.800,557.290,1309.420
413,36354.583000,199.769,-80.284,-125.746,348.901,290.652,-201.592,1926.800,794.290,1479.420
414,36354.623000,191.877,-9.594,-125.746,370.881,254.043,-208.668,1713.800,877.290,1427.420
415,36354.662000,183.985,30.801,-103.703,391.112,212.394,-209.954,1407.800,891.290,1380.420
416,36354.704000,218.513,31.811,-86.669,399.049,196.105,-203.507,652.800,868.290,1182.420
417,36354.723000,227.391,23.732,-85.667,416.681,168.680,-192.424,588.800,1002.290,974.420
418,36354.764000,228.378,55.037,-53.605,431.691,145.762,-175.246,297.800,1182.290,777.420
419,36354.803000,268.825,64.126,-62.622,444.969,131.748,-149.840,-256.200,1431.290,633.420
420,36354.843000,244.162,97.452,-42.583,450.319,127.220,-126.138,-810.200,1435.290,679.420
421,36354.884000,332.948,239.842,-95.687,466.251,114.189,-96.720,-2460.200,753.290,1166.420
422,36354.924000,342.813,232.773,110.716,471.609,104.565,-69.212,-3149.200,749.290,786.420
423,36354.944000,316.177,76.245,-86.669,473.433,108.630,-48.221,-379.200,668.290,9.420
424,36354.984000,290.528,-11.613,127.750,471.667,114.620,-51.011,2118.800,547.290,-529.580
425,36355.24000,254.027,84.323,144.783,469.035,118.175,-47.926,488.800,166.290,-250.580
426,36355.71000,294.474,-66.146,86.669,469.038,121.647,-47.813,-576.200,-93.710,-27.580
427,36355.106000,271.784,-47.968,92.681,469.056,123.552,-41.793,219.800,62.290,-47.580
428,36355.146000,260.933,-36.860,68.634,471.689,117.421,-43.970,-186.200,20.290,61.420
429,36355.186000,235.283,-7.574,18.536,470.820,118.401,-39.969,-228.200,-20.710,57.420
430,36355.204000,217.526,48.978,16.532,470.812,120.053,-42.894,17.800,-163.710,28.420
431,36355.244000,244.162,27.771,73.644,469.022,118.902,-52.867,-187.200,-479.710,24.420
432,36355.284000,279.676,-59.077,66.630,468.125,120.468,-58.777,148.800,-335.710,-49.580
433,36355.324000,247.121,-65.136,45.589,467.226,122.874,-65.653,564.800,-129.710,-126.580
434,36355.364000,261.919,-76.245,46.591,468.099,119.347,-67.750,72.800,-55.710,-4.580
435,36355.404000,243.175,-8.584,28.556,467.222,117.666,-65.822,-426.200,-129.710,109.420
436,36355.424000,239.229,60.087,23.546,468.087,118.366,-71.754,-501.200,-364.710,246.420
437,36355.464000,249.094,26.761,12.524,468.946,116.434,-78.765,-192.200,-605.710,243.420
438,36355.506000,257.973,-65.136,-16.532,468.923,111.028,-85.891,936.800,-254.710,192.420
439,36355.546000,192.863,55.037,45.589,471.528,102.040,-97.098,1079.800,-173.710,-20.580
440,36355.584000,233.310,-271.148,21.542,474.188,103.079,-91.097,708.800,143.290,-243.580
441,36355.626000,242.189,-244.892,26.552,475.056,103.807,-96.036,1984.800,372.290,-244.580
442,36355.667000,295.461,-85.333,69.636,471.536,97.813,-93.263,-944.200,-231.710,237.420
443,36355.691000,297.434,-18.682,67.632,469.768,96.888,-95.285,-1616.200,-270.710,418.420
444,36355.727000,273.757,31.811,-13.526,472.409,91.710,-94.451,-541.200,-57.710,273.420
445,36355.767000,200.755,-23.732,-124.744,471.527,89.105,-94.538,933.800,92.290,-32.580
446,36355.808000,185.958,116.639,-150.795,472.383,94.032,-104.306,677.800,-323.710,-281.580
447,36355.843000,206.674,38.880,-67.632,464.405,103.879,-123.872,-677.200,-1022.710,-519.580
448,36355.883000,259.946,5.554,-22.544,458.177,112.746,-147.436,-390.200,-1112.710,-403.580
449,36355.903000,263.892,53.018,-12.524,446.671,123.402,-168.972,-354.200,-1028.710,-551.580
450,36355.943000,265.865,19.692,-36.571,440.471,131.683,-182.626,-709.200,-932.710,-867.580
451,36355.988000,294.474,-68.166,12.524,424.605,151.410,-189.980,541.800,-425.710,-1205.580
452,36356.28000,240.216,-11.613,27.554,418.391,159.551,-208.603,1304.800,-308.710,-1024.580
453,36356.64000,236.270,28.781,0.501,408.671,172.169,-222.126,902.800,-519.710,-927.580
454,36356.108000,256.987,-22.722,-17.534,398.074,176.220,-231.959,380.800,-553.710,-602.580
455,36356.146000,283.622,62.107,-27.554,389.232,178.479,-243.830,-269.200,-566.710,-303.580
456,36356.166000,290.528,13.633,-15.530,382.193,197.514,-245.221,-1252.200,-570.710,-411.580
457,36356.207000,273.757,1.515,-51.601,377.815,215.012,-239.702,-1514.200,-451.710,-203.580
458,36356.247000,285.595,-60.087,-28.556,375.218,227.528,-226.395,-1563.200,-275.710,176.420
459,36356.286000,243.175,-63.116,-17.534,382.286,239.798,-222.002,-1127.200,-55.710,210.420
460,36356.348000,244.162,26.761,-69.636,382.323,247.919,-210.816,-840.200,-20.710,61.420
461,36356.368000,261.919,-14.643,-58.614,381.462,255.004,-205.624,-503.200,-23.710,-156.580
462,36356.388000,246.135,11.613,-70.638,377.052,259.256,-208.479,669.800,186.290,-489.580
463,36356.428000,246.135,66.146,-54.607,370.880,252.307,-208.724,64.800,23.290,-532.580
464,36356.468000,256.000,46.959,-54.607,361.184,267.755,-214.212,647.800,200.290,-715.580
465,36356.509000,231.337,107.550,-65.628,355.021,272.959,-214.063,143.800,-21.710,-545.580
466,36356.544000,236.270,74.225,-63.624,348.857,279.870,-214.851,163.800,202.290,-385.580
467,36356.584000,231.337,88.363,-78.654,347.107,284.293,-211.734,240.800,303.290,-363.580
468,36356.626000,227.391,78.264,-56.611,344.477,291.320,-208.536,10.800,382.290,-339.580
469,36356.646000,221.472,105.531,-56.611,344.503,295.885,-200.444,-114.200,380.290,-265.580
470,36356.684000,257.973,80.284,-37.573,342.758,299.497,-195.367,159.800,422.290,-237.580
471,36356.726000,235.283,88.363,-28.556,340.120,298.683,-193.416,79.800,313.290,-185.580
472,36356.766000,224.432,92.402,-26.552,345.411,297.875,-191.439,261.800,226.290,-108.580
473,36356.806000,232.324,106.540,-34.568,344.513,297.706,-197.406,325.800,112.290,-60.580
474,36356.846000,241.202,72.205,-41.581,344.518,296.026,-195.474,279.800,85.290,-85.580
475,36356.866000,213.580,98.462,-37.573,343.631,299.413,-198.346,149.800,-3.710,-90.580
476,36356.906000,243.175,104.521,-25.550,340.980,292.439,-199.574,181.800,-86.710,-30.580
477,36356.944000,237.256,83.314,-53.605,340.074,293.053,-208.494,166.800,-70.710,-29.580
478,36356.984000,216.540,88.363,-55.609,340.078,291.373,-206.562,180.800,18.290,-58.580
479,36357.26000,226.405,62.107,-57.613,340.953,290.449,-208.575,184.800,24.290,-38.580
480,36357.66000,232.324,105.531,-48.595,335.665,291.285,-209.558,-333.200,-127.710,3.420
481,36357.106000,211.607,111.590,-57.613,336.560,299.182,-206.320,-405.200,-81.710,48.420
482,36357.126000,235.283,75.235,-29.558,338.343,304.561,-200.182,-457.200,-121.710,197.420
483,36357.166000,211.607,139.866,-26.552,340.106,298.542,-198.385,-380.200,-314.710,188.420
484,36357.206000,208.647,116.639,-59.616,337.483,306.493,-193.171,-890.200,-379.710,180.420
485,36357.246000,261.919,57.057,-53.605,337.513,315.399,-184.938,-843.200,-356.710,199.420
486,36357.286000,249.094,63.116,-45.589,341.913,310.194,-185.093,-285.200,-256.710,89.420
487,36357.326000,241.202,61.097,-61.620,340.165,312.909,-181.038,-449.200,-146.710,55.420
488,36357.346000,227.391,103.511,-36.571,341.033,311.061,-185.067,42.800,-29.710,13.420
489,36357.386000,229.364,74.225,-50.599,339.282,313.748,-182.007,-126.200,-90.710,62.420
490,36357.426000,236.270,65.136,-56.611,342.800,313.695,-183.983,142.800,0.290,41.420
491,36357.468000,241.202,80.284,-49.597,341.914,311.062,-185.065,165.800,52.290,15.420
492,36357.508000,240.216,76.245,-59.616,343.672,309.299,-186.109,83.800,105.290,18.420
493,36357.548000,229.364,86.343,-58.614,342.791,305.855,-185.231,83.800,153.290,16.420
494,36357.588000,225.418,104.521,-46.591,344.551,303.252,-185.310,245.800,275.290,10.420
495,36357.608000,230.351,94.422,-43.585,348.968,300.792,-180.410,91.800,267.290,46.420
496,36357.648000,236.270,84.323,-28.556,351.617,300.850,-178.414,-12.200,178.290,97.420
497,36357.687000,231.337,101.491,-35.569,355.154,307.013,-175.224,-74.200,92.290,136.420
498,36357.727000,233.310,79.274,-28.556,357.793,302.675,-175.356,-70.200,92.290,164.420
499,36357.767000,230.351,79.274,-18.536,359.557,294.081,-172.650,-25.200,7.290,148.420
500,36357.807000,227.391,90.383,-20.540,357.791,300.071,-175.440,-72.200,-188.710,151.420
501,36357.827000,238.243,72.205,-31.562,363.949,291.367,-176.696,-29.200,-244.710,169.420
502,36357.867000,226.405,74.225,-19.538,360.407,286.016,-181.846,177.800,-319.710,204.420
503,36357.907000,236.270,92.402,-36.571,362.126,277.839,-195.015,145.800,-602.710,302.420
504,36357.947000,218.513,48.978,-80.658,362.095,277.529,-205.948,31.800,-734.710,412.420
505,36357.987000,225.418,32.821,-74.646,362.919,261.455,-222.355,490.800,-587.710,435.420
506,36358.27000,230.351,73.215,-46.591,361.114,253.276,-235.535,512.800,-775.710,501.420
507,36358.67000,249.094,89.373,-60.618,364.562,234.431,-257.981,411.800,-870.710,573.420
508,36358.88000,210.620,60.087,-175.843,360.128,225.522,-266.228,-362.200,-488.710,518.420
509,36358.129000,278.690,-98.462,-142.779,361.900,224.768,-262.275,-562.200,-53.710,238.420
510,36358.169000,246.135,-1.515,-89.675,363.680,232.694,-258.040,-166.200,246.290,-262.580
511,36358.209000,233.310,33.830,-112.720,361.067,243.333,-249.759,10.800,363.290,-551.580
512,36358.249000,229.364,77.254,-100.697,360.214,258.258,-243.320,-132.200,524.290,-404.580
513,36358.289000,227.391,73.215,-53.605,358.492,262.963,-230.264,-288.200,497.290,-271.580
514,36358.308000,234.297,48.978,-62.622,363.779,252.635,-227.603,-133.200,307.290,-279.580
515,36358.348000,250.081,41.909,-56.611,356.766,260.724,-217.433,125.800,310.290,-329.580
516,36358.389000,246.135,59.077,-68.634,353.242,265.033,-218.298,307.800,341.290,-389.580
517,36358.426000,224.432,64.126,-67.632,354.133,274.610,-216.991,657.800,462.290,-391.580
518,36358.468000,224.432,74.225,-94.685,353.247,271.977,-218.072,573.800,534.290,-293.580
519,36358.508000,240.216,61.097,-45.589,353.267,279.062,-212.877,517.800,531.290,-200.580
520,36358.547000,218.513,66.146,-45.589,355.019,277.242,-215.910,317.800,238.290,-124.580
521,36358.568000,216.540,108.560,-8.517,350.600,273.655,-220.012,589.800,77.290,-110.580
522,36358.608000,235.283,52.008,-28.556,351.470,274.411,-223.957,-11.200,-212.710,-82.580
523,36358.648000,246.135,75.235,-46.591,346.165,271.634,-230.022,-37.200,-409.710,-61.580
524,36358.688000,256.987,117.649,-56.611,342.621,270.566,-237.019,224.800,-427.710,-182.580
525,36358.728000,256.000,65.136,-112.720,338.191,271.177,-245.950,172.800,-356.710,-46.580
526,36358.768000,249.094,82.304,-96.689,335.525,269.214,-253.966,613.800,144.290,-75.580
527,36358.788000,234.297,58.067,-98.693,339.053,268.405,-251.995,260.800,309.290,3.420
528,36358.828000,212.593,68.166,-75.648,340.822,262.443,-248.211,295.800,441.290,31.420
529,36358.868000,219.499,68.166,-36.571,345.233,259.059,-245.328,421.800,397.290,90.420
530,36358.917000,249.094,82.304,-17.534,348.737,247.664,-249.658,484.800,178.290,108.420
531,36358.947000,241.202,67.156,-28.556,353.136,244.168,-250.751,306.800,-164.710,159.420
532,36358.991000,222.459,72.205,-71.640,354.877,242.236,-257.759,307.800,-179.710,173.420
533,36359.31000,247.121,128.757,-65.628,353.987,236.971,-259.918,-74.200,-182.710,279.420
534,36359.51000,251.067,102.501,-20.540,354.854,230.811,-263.094,-44.200,-296.710,478.420
535,36359.91000,364.516,102.501,33.566,358.359,216.841,-266.516,-500.200,-588.710,860.420
536,36359.132000,479.938,200.458,164.822,359.212,208.804,-274.718,321.800,-825.710,1190.420
537,36359.167000,419.761,217.625,17.534,354.750,181.527,-288.526,-345.200,-1200.710,1780.420
538,36359.211000,210.620,286.296,-155.804,352.987,187.545,-290.322,-2101.200,-1268.710,1562.420
539,36359.251000,70.536,22.722,-192.877,357.454,206.255,-272.820,-2455.200,-615.710,785.420
540,36359.271000,14.304,256.000,-125.746,366.346,226.034,-248.318,-1851.200,1157.290,-0.580
541,36359.312000,-2.466,197.428,-239.969,376.216,258.838,-192.607,-2589.200,1246.290,-606.580
542,36359.347000,61.657,88.363,-269.025,370.218,296.698,-141.748,-2357.200,1090.290,-1175.580
543,36359.389000,84.347,75.235,-311.108,355.349,333.932,-112.784,-667.200,642.290,-1813.580
544,36359.429000,148.470,52.008,-244.978,338.640,354.892,-107.192,-480.200,75.290,-2039.580
545,36359.469000,214.566,-81.294,-118.732,305.188,395.607,-107.964,1.800,-124.710,-1953.580
546,36359.509000,196.809,-7.574,11.523,290.165,408.053,-127.469,1506.800,428.290,-1389.580
547,36359.529000,174.119,-41.909,36.571,280.447,417.256,-139.117,600.800,732.290,-1207.580
548,36359.569000,490.790,60.087,-127.750,274.220,422.680,-161.800,376.800,-255.710,-869.580
549,36359.609000,398.058,120.679,193.879,275.187,435.593,-134.567,-2565.200,-343.710,70.420
550,36359.647000,472.046,197.428,183.859,273.467,442.902,-121.426,-458.200,-68.710,78.420
551,36359.687000,429.626,80.284,73.644,274.301,432.960,-135.648,811.800,-127.710,198.420
552,36359.727000,394.112,-9.594,38.575,278.637,416.776,-156.019,1374.800,45.290,403.420
553,36359.748000,315.191,14.643,51.601,284.755,407.678,-171.190,1031.800,177.290,809.420
554,36359.796000,197.796,71.195,-91.679,289.189,397.631,-158.593,-654.200,98.290,770.420
555,36359.831000,286.582,-88.363,-204.900,299.785,392.713,-148.788,-331.200,20.290,822.420
556,36359.871000,247.121,-72.205,-107.710,314.702,361.977,-162.647,1339.800,225.290,1220.420
557,36359.911000,203.715,-75.235,-59.616,326.959,336.251,-183.302,2106.800,611.290,1463.420
558,36359.951000,195.823,-137.846,-83.663,355.072,288.977,-199.641,2155.800,837.290,1558.420
559,36359.989000,169.187,-116.639,-94.685,375.260,234.838,-213.249,2450.800,1268.290,1666.420
560,36360.11000,150.443,-45.949,-99.695,402.574,190.956,-201.676,1739.800,1622.290,1416.420
561,36360.51000,230.351,-68.166,-134.763,414.932,166.216,-187.545,1366.800,1887.290,1256.420
562,36360.91000,263.892,31.811,-85.667,439.655,132.331,-159.768,1665.800,2035.290,1011.420
563,36360.131000,281.649,79.274,-59.616,457.367,112.582,-122.619,-173.200,2062.290,906.420
564,36360.171000,345.773,158.043,-105.706,469.825,94.007,-74.525,-2022.200,1926.290,1119.420
565,36360.212000,327.029,382.233,-174.841,481.382,78.678,-34.273,-5265.200,1167.290,1101.420
566,36360.232000,293.487,-84.323,-23.546,484.022,60.565,-30.880,-3455.200,133.290,669.420
567,36360.272000,261.919,157.034,230.951,484.910,61.490,-28.861,3228.800,430.290,-250.580
568,36360.318000,306.312,229.744,278.043,484.043,69.386,-25.629,3168.800,418.290,-252.580
569,36360.349000,324.069,84.323,177.847,484.884,57.793,-36.925,282.800,-618.710,321.420
570,36360.391000,369.449,34.840,134.763,484.865,55.020,-42.973,-63.200,-411.710,521.420
571,36360.431000,320.123,129.767,71.640,487.473,49.504,-54.067,-718.200,-783.710,219.420
572,36360.472000,311.245,30.801,-126.748,482.142,53.361,-70.840,-1058.200,-1013.710,24.420
573,36360.492000,293.487,189.349,-215.922,473.258,62.954,-99.353,-2291.200,-1709.710,20.420
574,36360.532000,306.312,67.156,-161.816,465.271,76.160,-122.782,-2218.200,-1743.710,-946.580
575,36360.573000,265.865,40.899,-85.667,451.119,109.185,-150.553,-121.200,-1274.710,-1509.580
576,36360.608000,169.187,38.880,-47.593,434.344,143.273,-171.346,1072.800,-823.710,-1874.580
577,36360.648000,182.998,52.008,-76.650,415.821,173.189,-186.323,736.800,-591.710,-2316.580
578,36360.688000,201.742,3.535,-62.622,397.317,206.745,-195.223,-59.200,-464.710,-2438.580
579,36360.708000,231.337,-85.333,-51.601,380.615,251.897,-192.818,-305.200,-178.710,-2258.580
580,36360.748000,213.580,-112.600,-50.599,360.426,293.101,-176.651,-1220.200,5.290,-1760.580
581,36360.792000,236.270,-147.945,-33.566,347.295,325.799,-154.779,-1288.200,166.290,-1246.580
582,36360.832000,239.229,-170.162,-61.620,341.225,352.595,-127.119,-1428.200,210.290,-920.580
583,36360.871000,382.274,-283.266,-41.581,340.371,363.207,-119.826,584.800,602.290,-937.580
584,36360.914000,323.083,-52.008,-9.519,340.343,366.369,-130.646,1360.800,699.290,-431.580
585,36360.949000,340.840,17.673,25.550,348.319,370.298,-114.605,-1348.200,-303.710,273.420
586,36360.969000,306.312,462.012,72.642,352.767,375.035,-100.536,-530.200,-63.710,98.420
587,36361.9000,348.732,-137.846,-111.718,350.111,364.561,-102.870,1105.800,43.290,538.420
588,36361.51000,121.834,223.684,-91.679,357.074,349.946,-129.140,-1011.200,-25.710,306.420
589,36361.88000,267.838,22.722,-40.579,365.083,355.052,-102.138,-1376.200,-233.710,426.420
590,36361.129000,227.391,94.422,-1.503,369.439,343.377,-116.404,991.800,0.290,247.420
591,36361.169000,225.418,81.294,-34.568,368.561,350.292,-117.176,-317.200,-416.710,215.420
592,36361.189000,258.960,50.998,-39.577,375.591,345.817,-122.263,101.800,-244.710,-45.580
593,36361.229000,201.742,134.817,-57.613,367.656,352.642,-126.039,208.800,-247.710,-232.580
594,36361.276000,211.607,122.698,-62.622,364.120,347.347,-129.201,-201.200,-310.710,-13.580
595,36361.311000,244.162,91.393,-63.624,357.955,356.834,-130.899,-92.200,-188.710,-89.580
596,36361.351000,240.216,61.097,-79.656,357.070,351.626,-131.071,-151.200,-23.710,-177.580
597,36361.391000,220.486,122.698,-73.644,354.442,364.700,-128.669,-56.200,217.290,-381.580
598,36361.429000,231.337,105.531,-54.607,350.062,370.970,-121.529,-0.200,360.290,-310.580
599,36361.456000,219.499,123.708,-43.585,345.682,373.796,-113.507,-125.200,400.290,-262.580
600,36361.507000,247.121,93.412,-62.622,343.054,378.247,-109.399,263.800,664.290,-267.580
601,36361.529000,203.715,122.698,-18.536,341.290,379.085,-110.371,654.800,774.290,-251.580
602,36361.569000,208.647,113.609,-3.507,340.418,380.037,-107.364,437.800,508.290,-226.580
603,36361.609000,212.593,143.905,5.511,337.736,372.753,-119.525,884.800,127.290,-57.580
604,36361.649000,226.405,94.422,-49.597,341.241,374.295,-126.414,324.800,-98.710,25.420
605,36361.669000,225.418,105.531,-49.597,341.223,369.814,-131.525,408.800,-33.710,-30.580
606,36361.709000,217.526,109.570,-31.562,337.687,367.963,-135.568,53.800,-136.710,-28.580
607,36361.749000,219.499,120.679,-28.556,336.802,370.510,-137.474,-63.200,-279.710,-83.580
608,36361.789000,248.108,95.432,-63.624,331.511,374.761,-140.332,-262.200,-299.710,-118.580
609,36361.829000,256.000,101.491,-113.722,326.237,374.870,-136.374,-30.200,144.290,-129.580
610,36361.869000,215.553,151.984,-71.640,329.768,373.221,-133.437,192.800,539.290,-43.580
611,36361.913000,175.106,183.290,10.521,335.049,374.037,-135.380,571.800,459.290,194.420
612,36361.932000,196.809,94.422,-45.589,340.304,363.399,-143.652,611.800,228.290,243.420
613,36361.972000,213.580,127.748,-39.577,341.178,354.720,-143.931,207.800,222.290,265.420
614,36362.12000,205.688,137.846,-16.532,350.885,353.160,-137.992,-133.200,125.290,380.420
615,36362.52000,184.971,150.974,-17.534,365.002,352.528,-130.024,-759.200,-161.710,519.420
616,36362.108000,257.973,78.264,-17.534,366.788,347.603,-120.248,-666.200,-214.710,480.420
617,36362.129000,256.987,63.116,-39.577,377.356,338.090,-119.530,-121.200,-53.710,384.420
618,36362.149000,237.256,87.353,-40.579,380.001,338.121,-118.527,-98.200,-2.710,277.420
619,36362.189000,233.310,94.422,-32.564,386.161,332.889,-119.670,-128.200,28.290,253.420
620,36362.229000,232.324,85.333,-27.554,389.705,328.777,-111.848,-129.200,9.290,263.420
621,36362.269000,231.337,76.245,-4.509,392.345,325.307,-111.952,-48.200,-108.710,214.420
622,36362.313000,221.472,79.274,-3.507,393.192,318.082,-122.114,143.800,-282.710,240.420
623,36362.354000,208.647,109.570,8.517,398.447,310.020,-131.296,220.800,-747.710,451.420
624,36362.394000,218.513,94.422,-20.540,396.617,302.455,-153.393,71.800,-1163.710,597.420
625,36362.409000,238.243,49.988,-58.614,397.411,284.363,-179.795,252.800,-1290.710,681.420
626,36362.454000,204.701,35.850,-105.706,400.873,273.415,-199.006,376.800,-1203.710,592.420
627,36362.494000,269.811,72.205,-103.703,398.152,258.849,-223.319,258.800,-1062.710,582.420
628,36362.534000,248.108,-10.604,-171.836,399.000,252.492,-233.453,-260.200,-749.710,501.420
629,36362.574000,262.906,-46.959,-154.802,394.590,252.432,-235.455,-285.200,-155.710,133.420
630,36362.611000,245.148,6.564,-121.738,395.490,256.074,-229.376,-58.200,220.290,-357.580
631,36362.631000,234.297,29.791,-126.748,392.867,267.469,-225.042,-155.200,362.290,-555.580
632,36362.671000,210.620,74.225,-114.724,388.499,275.587,-213.870,-162.200,608.290,-537.580
633,36362.712000,213.580,110.580,-65.628,386.791,286.453,-197.635,-269.200,610.290,-402.580
634,36362.751000,230.351,98.462,-60.618,386.818,297.066,-190.340,-464.200,463.290,-263.580
635,36362.793000,241.202,36.860,-55.609,389.511,307.038,-175.113,-521.200,323.290,-200.580
636,36362.833000,240.216,55.037,-50.599,386.900,312.526,-165.013,-240.200,257.290,-203.580
637,36362.886000,228.378,68.166,-73.644,385.156,317.006,-159.908,-47.200,249.290,-202.580
638,36362.892000,231.337,86.343,-66.630,386.923,317.063,-157.915,-43.200,281.290,-148.580
639,36362.932000,232.324,59.077,-54.607,379.896,318.123,-150.952,-170.200,248.290,-116.580
640,36362.972000,231.337,66.146,-50.599,381.673,323.445,-146.802,95.800,199.290,-219.580
641,36363.14000,227.391,74.225,-47.593,379.035,326.075,-145.732,88.800,116.290,-275.580
642,36363.63000,232.324,74.225,-48.595,375.501,334.584,-151.425,406.800,120.290,-301.580
643,36363.92000,221.472,78.264,-64.626,371.969,331.053,-153.537,239.800,47.290,-364.580
644,36363.112000,236.270,86.343,-35.569,362.279,343.113,-156.156,245.800,-13.710,-406.580
645,36363.152000,199.769,135.826,-47.593,359.605,342.802,-167.097,589.800,-19.710,-430.580
646,36363.192000,213.580,157.034,-53.605,348.137,348.672,-173.894,230.800,-100.710,-328.580
647,36363.233000,260.933,84.323,-122.740,347.243,345.955,-177.957,280.800,70.290,-198.580
648,36363.273000,328.015,-84.323,-128.751,342.825,344.103,-182.004,418.800,217.290,-223.580
649,36363.314000,384.247,-324.671,-133.761,347.964,309.043,-225.823,4065.800,222.290,499.420
650,36363.354000,483.884,-175.211,-24.548,361.756,208.688,-309.468,5304.800,-827.710,2052.420
651,36363.374000,511.507,-43.929,98.693,357.187,128.655,-348.820,3130.800,-1512.710,3146.420
652,36363.414000,420.748,380.213,316.117,348.277,68.193,-370.670,-973.200,-459.710,2968.420
653,36363.453000,343.800,516.544,211.914,350.992,82.703,-348.345,-3692.200,677.290,2439.420
654,36363.492000,432.586,462.012,35.569,387.288,103.431,-290.956,-2649.200,2032.290,1999.420
655,36363.532000,391.152,516.544,-212.916,412.147,107.940,-224.199,-654.200,2450.290,422.420
656,36363.571000,282.636,468.071,-380.243,413.143,141.826,-191.321,-2152.200,1501.290,-556.580
657,36363.592000,212.593,359.006,-452.384,402.739,191.722,-144.058,-2659.200,918.290,-1216.580
658,36363.633000,144.524,106.540,-503.483,381.689,238.302,-121.761,-963.200,482.290,-2071.580
659,36363.673000,60.671,46.959,-503.483,366.734,270.379,-121.761,-750.200,-568.710,-1675.580
660,36363.712000,60.671,-20.702,-434.348,346.491,299.848,-121.862,-2363.200,-1640.710,-1791.580
661,36363.752000,71.522,-225.704,-259.006,309.499,341.259,-128.581,-1104.200,-1828.710,-1821.580
662,36363.796000,25.156,-186.320,-148.791,283.873,361.143,-160.787,1061.800,-1142.710,-1342.580
663,36363.836000,18.250,-166.122,47.593,269.714,365.665,-184.517,952.800,-27.710,-1100.580
664,36363.856000,92.239,-269.128,-118.732,273.249,377.848,-183.117,143.800,1190.290,-838.580
665,36363.892000,511.507,213.586,78.654,283.805,379.422,-188.990,939.800,-573.710,117.420
666,36363.936000,511.507,4.544,116.728,288.386,404.439,-132.557,-3289.200,-429.710,214.420
667,36363.972000,459.222,86.343,33.566,286.583,398.864,-145.652,1480.800,132.290,-72.580
668,36364.18000,226.405,14.643,-93.683,283.030,392.531,-154.806,532.800,45.290,-121.580
669,36364.57000,211.607,103.511,-129.753,277.720,394.878,-163.684,281.800,80.290,-453.580
670,36364.77000,261.919,137.846,-50.599,269.787,395.684,-165.669,293.800,204.290,-546.580
671,36364.116000,432.586,71.195,37.573,253.005,394.381,-180.660,863.800,176.290,-646.580
672,36364.156000,472.046,11.613,42.583,233.531,389.994,-212.640,1854.800,114.290,-678.580
673,36364.193000,471.060,-43.929,62.622,221.995,377.101,-238.913,2030.800,72.290,-604.580
674,36364.234000,196.809,17.673,-176.845,204.244,343.902,-277.781,2321.800,-32.710,-353.580
675,36364.276000,256.987,-6.564,-107.710,192.756,336.640,-288.977,824.800,544.290,-541.580
676,36364.314000,173.133,-130.777,-61.620,204.208,325.449,-286.324,424.800,1258.290,8.420
677,36364.336000,171.160,-159.053,-121.738,226.245,308.358,-277.871,860.800,2060.290,974.420
678,36364.374000,139.592,-140.876,-185.863,271.220,280.423,-254.802,838.800,2467.290,1788.420
679,36364.414000,133.672,-72.205,-214.920,318.855,247.479,-224.935,249.800,2315.290,2055.420
680,36364.454000,164.254,3.535,-195.883,353.310,219.175,-184.038,-620.200,2011.290,2206.420
681,36364.494000,200.755,66.146,-136.767,374.517,206.903,-158.550,-1076.200,1718.290,2024.420
682,36364.536000,270.798,26.761,-110.716,401.041,175.989,-117.763,-1152.200,1820.290,1848.420
683,36364.556000,320.123,117.649,-58.614,426.726,148.073,-62.979,-663.200,2311.290,1524.420
684,36364.593000,358.597,450.903,-170.834,437.439,133.110,-9.809,-3706.200,1481.290,891.420
685,36364.636000,276.717,26.761,105.706,440.142,133.703,11.072,-4600.200,-23.710,-285.580
686,36364.672000,282.636,82.304,194.881,436.633,150.221,12.590,4695.800,811.290,-615.580
687,36364.712000,377.341,152.994,159.812,438.352,149.800,-2.313,65.800,-813.710,140.420
688,36364.752000,415.815,36.860,145.785,436.519,137.895,-24.551,-696.200,-1084.710,625.420
689,36364.792000,397.071,219.645,119.734,439.090,124.257,-46.831,-1292.200,-1443.710,597.420
690,36364.812000,419.761,100.481,3.507,433.759,120.359,-61.870,175.800,-1152.710,141.420
691,36364.856000,265.865,86.343,-210.912,430.152,114.359,-89.880,2730.800,-751.710,-386.580
692,36364.896000,238.243,257.010,-231.953,418.602,124.593,-126.325,589.800,-1628.710,-809.580
693,36364.933000,213.580,184.300,-167.828,397.410,164.585,-152.899,-1555.200,-2027.710,-2017.580
694,36364.973000,193.850,-40.899,-109.714,375.355,198.725,-171.722,-793.200,-1603.710,-2494.580
695,36365.13000,134.659,-82.304,-140.775,344.502,240.728,-188.332,-847.200,-1206.710,-2145.580
696,36365.38000,121.834,-140.876,-180.853,315.445,283.069,-193.009,-1235.200,-1056.710,-1939.580
697,36365.74000,115.915,-214.596,-137.769,289.061,323.987,-186.800,-1660.200,-1033.710,-1593.580
698,36365.114000,131.699,-225.704,-122.740,277.626,339.659,-184.343,-682.200,-487.710,-1117.580
699,36365.154000,188.917,-177.231,-90.677,268.822,355.220,-185.852,254.800,25.290,-853.580
700,36365.193000,275.730,-159.053,-176.845,271.407,352.923,-205.778,2005.800,789.290,-641.580
701,36365.234000,315.191,54.028,120.736,277.591,350.520,-198.885,20.800,761.290,-456.580
702,36365.274000,511.507,-59.077,-83.663,284.784,375.229,-153.376,-2022.200,697.290,-191.580
703,36365.294000,364.516,436.765,125.746,291.898,380.194,-131.346,-1145.200,523.290,185.420
704,36365.338000,333.935,323.661,154.802,294.580,384.034,-118.304,184.800,294.290,102.420
705,36365.378000,76.455,174.201,-152.798,303.296,360.712,-145.844,2256.800,743.290,271.420
706,36365.414000,298.420,98.462,11.523,318.346,361.455,-119.953,-1515.200,296.290,722.420
707,36365.456000,182.998,90.383,-40.579,326.259,358.716,-124.982,765.800,-106.710,676.420
708,36365.494000,245.148,65.136,-98.693,336.840,352.789,-120.175,-1361.200,-556.710,563.420
709,36365.513000,270.798,9.594,-84.665,339.528,345.486,-102.530,-678.200,-250.710,263.420
710,36365.554000,248.108,49.988,-38.575,337.755,348.816,-107.393,13.800,-120.710,58.420
711,36365.596000,249.094,28.781,-69.636,338.635,352.260,-108.271,-13.200,-80.710,-140.580
712,36365.636000,239.229,58.067,-92.681,330.699,353.038,-111.250,214.800,239.290,-440.580
713,36365.676000,225.418,84.323,-64.626,322.785,357.485,-107.159,157.800,471.290,-512.580
714,36365.716000,224.432,100.481,-47.593,318.401,367.170,-101.894,363.800,517.290,-509.580
715,36365.756000,217.526,129.767,-27.554,314.890,376.772,-99.608,-242.200,237.290,-295.580
716,36365.776000,228.378,115.629,-70.638,313.143,377.780,-94.616,111.800,343.290,-224.580
717,36365.816000,252.054,76.245,-53.605,309.628,382.173,-92.498,271.800,544.290,-214.580
718,36365.857000,221.472,122.698,-37.573,306.121,385.784,-87.427,364.800,661.290,-333.580
719,36365.893000,211.607,124.718,-31.562,302.596,387.489,-88.376,457.800,616.290,-238.580
720,36365.933000,209.634,120.679,-2.505,302.592,382.281,-88.545,400.800,437.290,-111.580
721,36365.973000,204.701,131.787,9.519,301.689,379.479,-95.590,441.800,129.290,-66.580
722,36365.993000,212.593,125.728,-13.526,301.677,378.498,-99.594,418.800,-71.710,-3.580
723,36366.33000,215.553,108.560,-29.558,299.890,381.687,-109.426,337.800,-170.710,-58.580
724,36366.76000,226.405,96.442,-34.568,298.105,382.329,-117.355,272.800,-255.710,-165.580
725,36366.119000,239.229,85.333,-42.583,291.912,383.779,-127.258,301.800,-263.710,-255.580
726,36366.156000,248.108,133.807,-91.679,286.608,386.182,-134.148,387.800,-4.710,-275.580
727,36366.194000,186.944,189.349,-61.620,286.616,381.086,-130.341,57.800,360.290,31.420
728,36366.233000,205.688,135.826,-10.521,291.893,374.118,-131.543,501.800,375.290,159.420
729,36366.256000,205.688,142.895,-44.587,296.274,372.160,-139.537,400.800,164.290,350.420
730,36366.297000,210.620,114.619,-76.650,307.723,364.384,-138.759,257.800,206.290,467.420
731,36366.337000,247.121,83.314,-41.581,315.646,355.710,-139.015,404.800,282.290,539.420
732,36366.374000,194.836,128.757,-16.532,324.443,351.292,-142.109,437.800,227.290,504.420
733,36366.419000,250.081,68.166,-36.571,334.988,341.555,-149.343,308.800,165.290,485.420
734,36366.454000,238.243,116.639,-5.511,342.034,328.624,-146.761,272.800,118.290,342.420
735,36366.474000,223.445,111.590,-49.597,345.562,326.079,-144.846,-269.200,136.290,215.420
736,36366.514000,262.906,47.968,-42.583,349.981,321.911,-139.009,113.800,299.290,178.420
737,36366.558000,215.553,119.669,-12.524,356.147,325.360,-139.870,23.800,187.290,118.420
738,36366.602000,204.701,96.442,-25.550,357.035,327.153,-137.823,-199.200,-9.710,205.420
739,36366.637000,233.310,79.274,12.524,364.080,319.374,-137.060,-88.200,-249.710,353.420
740,36366.677000,208.647,112.600,0.501,364.060,308.845,-141.374,-64.200,-560.710,444.420
741,36366.719000,172.146,157.034,-12.524,365.792,302.517,-150.511,-622.200,-983.710,518.420
742,36366.734000,296.447,-24.742,3.507,370.154,293.474,-163.699,-593.200,-1242.710,824.420
743,36366.774000,235.283,30.801,-56.611,368.320,279.833,-185.993,569.800,-1184.710,672.420
744,36366.814000,219.499,93.412,-89.675,365.602,266.163,-209.284,169.800,-1101.710,572.420
745,36366.854000,263.892,19.692,-125.746,364.682,263.193,-222.293,-50.200,-839.710,598.420
746,36366.894000,245.148,-16.663,-183.859,364.679,259.721,-222.405,-476.200,-291.710,356.420
747,36366.934000,260.933,-21.712,-132.759,362.959,269.605,-210.174,-793.200,199.290,-109.580
748,36366.954000,253.040,-15.653,-102.701,363.873,276.832,-200.007,-157.200,597.290,-488.580
749,36366.994000,223.445,40.899,-84.665,357.771,295.562,-181.545,-345.200,649.290,-692.580
750,36367.34000,209.634,62.107,-69.636,360.441,298.422,-172.506,-172.200,611.290,-702.580
751,36367.78000,227.391,78.264,-36.571,355.186,309.059,-164.234,123.800,552.290,-577.580
752,36367.118000,221.472,95.432,-31.562,349.028,320.339,-163.888,31.800,260.290,-412.580
753,36367.158000,228.378,81.294,-67.632,344.631,322.996,-161.830,-66.200,144.290,-236.580
754,36367.198000,239.229,84.323,-78.654,343.770,327.504,-155.728,89.800,270.290,-168.580
755,36367.218000,214.566,100.481,-59.616,342.028,331.144,-149.658,-185.200,364.290,-153.580
756,36367.258000,233.310,95.432,-51.601,340.296,329.716,-138.787,-298.200,308.290,-79.580
757,36367.298000,248.108,52.008,-16.532,339.423,329.800,-135.808,-82.200,183.290,-98.580
758,36367.338000,229.364,80.284,-44.587,343.834,337.615,-135.540,-127.200,-7.710,-183.580
759,36367.378000,225.418,84.323,-28.556,337.678,344.611,-133.347,197.800,-26.710,-236.580
760,36367.418000,226.405,97.452,-34.568,335.903,345.337,-138.294,96.800,-235.710,-182.580
761,36367.437000,233.310,101.491,-60.618,330.601,346.900,-144.218,110.800,-249.710,-125.580
762,36367.477000,240.216,59.077,-61.620,324.415,347.567,-151.167,270.800,-190.710,-358.580
763,36367.516000,273.757,43.929,-125.746,316.472,347.420,-156.163,320.800,24.290,-665.580
764,36367.556000,290.528,13.633,-165.824,303.260,354.326,-156.974,498.800,699.290,-652.580
765,36367.597000,260.933,-125.728,-61.620,304.988,350.546,-168.014,1476.800,725.290,-414.580
766,36367.637000,290.528,-328.710,-257.002,316.227,306.219,-232.968,3434.800,-576.710,831.420
767,36367.677000,458.235,-170.162,-131.757,325.775,266.040,-273.960,1678.800,-2272.710,2386.420
768,36367.697000,476.979,41.909,63.624,324.675,190.625,-334.005,1900.800,-2356.710,2816.420
769,36367.737000,511.507,327.700,201.894,307.763,116.518,-378.169,1008.800,-2014.710,3118.420
770,36367.777000,422.721,389.302,203.898,293.591,65.770,-393.763,384.800,-600.710,2615.420
771,36367.816000,425.680,388.292,155.804,305.055,40.048,-383.638,597.800,1210.290,1844.420
772,36367.869000,364.516,458.982,-51.601,330.700,37.580,-348.881,-622.200,2119.290,981.420
773,36367.898000,241.202,422.627,-308.102,354.660,78.094,-296.847,-2152.200,2137.290,-198.580
774,36367.918000,98.158,295.385,-454.387,365.389,131.365,-253.379,-2393.200,1869.290,-872.580
775,36367.958000,67.576,181.270,-459.397,368.152,163.572,-218.563,-2478.200,1433.290,-1285.580
776,36368.1000,86.320,122.698,-430.341,357.701,216.462,-188.084,-969.200,791.290,-1885.580
777,36368.37000,103.091,42.919,-342.168,338.411,263.015,-166.775,-1194.200,274.290,-2030.580
778,36368.79000,119.861,-14.643,-361.205,314.680,305.755,-157.520,-1504.200,-272.710,-1934.580
779,36368.118000,139.592,-66.146,-315.115,292.671,326.571,-156.915,-655.200,-719.710,-2032.580
780,36368.138000,175.106,-186.320,-172.838,262.706,359.167,-168.863,389.800,-776.710,-1644.580
781,36368.178000,157.349,-208.536,42.583,243.249,367.016,-197.467,1754.800,-244.710,-831.580
782,36368.218000,143.538,-219.645,105.706,245.831,360.378,-217.534,1201.800,396.290,-213.580
783,36368.267000,271.784,-218.635,-130.755,251.164,371.192,-203.264,-1292.200,-209.710,-100.580
784,36368.297000,511.507,420.608,268.023,250.380,391.973,-173.795,-3800.200,-219.710,-255.580
785,36368.337000,478.952,105.531,90.677,254.850,396.067,-151.802,563.800,356.290,15.420
786,36368.377000,241.202,23.732,-66.630,253.930,388.785,-163.958,466.800,-48.710,112.420
787,36368.396000,177.079,58.067,-122.740,247.757,395.612,-167.728,419.800,53.290,-335.580
788,36368.436000,154.389,129.767,-120.736,246.854,391.942,-174.801,462.800,211.290,-487.580
789,36368.476000,242.189,151.984,-56.611,237.161,396.218,-176.679,156.800,121.290,-358.580
790,36368.516000,339.854,147.945,31.562,230.095,394.308,-182.722,541.800,-7.710,-328.580
791,36368.556000,458.235,39.890,66.630,215.920,386.622,-208.834,1474.800,-39.710,-597.580
792,36368.599000,511.507,-18.682,104.704,203.477,370.871,-244.140,2496.800,-58.710,-861.580
793,36368.619000,421.734,23.732,9.519,176.899,341.808,-289.853,2647.800,-56.710,-1335.580
794,36368.661000,270.798,-10.604,-316.117,152.054,294.349,-342.115,3735.800,-247.710,-1387.580
795,36368.697000,162.281,75.235,-124.744,123.690,232.301,-388.904,3858.800,-164.710,-1593.580
796,36368.737000,85.333,39.890,18.536,113.085,217.312,-397.368,1522.800,818.290,-1340.580
797,36368.777000,112.956,-61.097,20.540,129.861,218.559,-384.365,-269.200,1955.290,-438.580
798,36368.819000,85.333,-76.245,-100.697,179.273,217.647,-356.432,-125.200,3049.290,539.420
799,36368.858000,100.131,-5.554,-172.838,243.709,213.782,-310.674,-628.200,3532.290,1536.420
800,36368.878000,104.077,123.708,-171.836,298.499,212.068,-249.981,-1870.200,3075.290,1882.420
801,36368.923000,187.931,113.609,-191.875,328.595,219.546,-200.986,-3662.200,2456.290,1926.420
802,36368.961000,220.486,121.688,-170.834,362.282,221.655,-127.328,-3980.200,1663.290,1905.420
803,36368.998000,269.811,139.866,-75.648,386.236,212.135,-65.995,-3535.200,1354.290,1659.420
804,36369.38000,287.568,194.398,-31.562,403.133,193.901,-5.960,-3752.200,941.290,1235.420
805,36369.79000,325.056,-49.988,-175.843,408.494,185.174,22.571,-5219.200,-373.710,566.420
806,36369.101000,383.260,-159.053,197.886,405.011,183.858,37.412,300.800,633.290,-220.580
807,36369.153000,239.229,170.162,207.906,400.572,198.160,21.974,3692.800,630.290,18.420
808,36369.178000,261.919,267.108,197.886,402.321,192.869,18.829,-553.200,-334.710,147.420
809,36369.218000,306.312,-79.274,52.603,408.480,193.657,15.895,-838.200,-362.710,128.420
810,36369.259000,253.040,-38.880,63.624,404.936,192.589,8.898,831.800,23.290,-2.580
811,36369.299000,241.202,-61.097,55.609,409.335,192.536,6.925,-295.200,-150.710,94.420
812,36369.341000,241.202,35.850,77.652,404.920,190.712,3.872,305.800,23.290,115.420
813,36369.362000,245.148,105.531,56.611,407.546,186.233,-1.230,383.800,-105.710,105.420
814,36369.399000,233.310,189.349,51.601,406.644,184.299,-8.246,204.800,-565.710,173.420
815,36369.441000,292.501,220.655,23.546,403.945,181.158,-27.224,-266.200,-1219.710,-59.580
816,36369.477000,346.759,15.653,-41.581,395.049,187.195,-58.832,2682.800,-685.710,-615.580
817,36369.518000,302.366,182.280,-316.117,381.681,184.796,-112.574,5091.800,-932.710,-1178.580
818,36369.562000,299.407,225.704,-213.918,369.227,193.067,-157.030,2468.800,-2209.710,-1081.580
819,36369.582000,232.324,72.205,-103.703,339.140,202.921,-206.456,70.800,-2794.710,-1257.580
820,36369.622000,225.418,-27.771,-140.775,305.565,221.734,-245.673,-592.200,-2761.710,-1111.580
821,36369.657000,168.200,-71.195,-162.818,272.025,245.197,-273.816,-1031.200,-2584.710,-823.580
822,36369.701000,118.875,-119.669,-148.791,249.983,259.655,-283.347,-2091.200,-2371.710,-337.580
823,36369.738000,117.888,-150.974,-118.732,223.559,295.866,-290.201,-1911.200,-1980.710,-74.580
824,36369.779000,129.726,-201.467,-93.683,212.120,314.086,-289.646,-1289.200,-1436.710,181.420
825,36369.817000,153.403,-205.507,-32.564,214.760,317.503,-291.513,-134.200,-507.710,426.420
826,36369.838000,134.659,-101.491,-197.886,228.854,312.334,-290.643,40.800,223.290,588.420
827,36369.879000,145.511,39.890,-156.806,245.664,333.741,-270.034,-2618.200,746.290,67.420
828,36369.919000,511.507,29.791,86.669,256.429,370.131,-210.232,-3833.200,674.290,-122.580
829,36369.958000,400.031,173.191,71.640,268.763,358.940,-207.577,814.800,687.290,140.420
830,36369.998000,231.337,167.132,-140.775,273.157,352.811,-209.748,244.800,379.290,98.420
831,36370.42000,316.177,148.955,-85.667,280.210,352.005,-207.766,12.800,557.290,141.420
832,36370.64000,251.067,88.363,-70.638,292.557,347.843,-201.903,46.800,361.290,360.420
833,36370.99000,175.106,108.560,-133.761,302.257,345.359,-197.981,97.800,292.290,421.420
834,36370.138000,162.281,117.649,-111.718,313.725,343.800,-192.036,-110.200,342.290,538.420
835,36370.178000,168.200,78.264,-75.648,319.921,337.198,-180.315,-734.200,24.290,543.420
836,36370.219000,301.380,-38.880,-127.750,327.871,339.137,-173.276,-57.200,156.290,223.420
837,36370.259000,256.000,103.511,0.501,327.000,341.825,-170.212,-593.200,-215.710,23.420
838,36370.298000,239.229,75.235,-125.746,325.246,336.729,-166.411,145.800,55.290,-218.580
839,36370.322000,227.391,83.314,-130.755,324.378,347.200,-164.088,-198.200,356.290,-317.580
840,36370.359000,231.337,82.304,-122.740,323.541,356.246,-150.889,-258.200,640.290,-371.580
841,36370.402000,256.987,29.791,-58.614,318.308,359.353,-132.931,-408.200,828.290,-478.580
842,36370.441000,216.540,135.826,-53.605,315.708,375.285,-121.499,392.800,1004.290,-627.580
843,36370.481000,188.917,148.955,-36.571,308.681,372.033,-113.683,487.800,1059.290,-437.580
844,36370.518000,189.904,169.152,-30.560,308.692,375.590,-110.589,459.800,957.290,-282.580
845,36370.539000,221.472,116.639,-51.601,312.243,382.762,-102.401,364.800,895.290,-128.580
846,36370.582000,218.513,127.748,-25.550,317.544,379.462,-96.533,356.800,872.290,-29.580
847,36370.619000,195.823,93.412,40.579,316.674,375.263,-91.707,231.800,599.290,-46.580
848,36370.662000,212.593,79.274,40.579,318.425,372.575,-94.768,124.800,-220.710,-54.580
849,36370.702000,220.486,155.014,22.544,315.758,378.368,-104.518,191.800,-513.710,-63.580
850,36370.739000,187.931,174.201,-71.640,309.600,381.892,-102.437,-924.200,-461.710,-134.580
851,36370.782000,193.850,77.254,-73.644,300.862,394.657,-80.205,-1487.200,-291.710,-293.580
852,36370.801000,414.829,-37.870,-34.568,296.501,401.124,-66.108,-574.200,273.290,-587.580
853,36370.838000,152.416,263.069,29.558,287.717,408.259,-58.953,-516.200,267.290,-162.580
854,36370.881000,206.674,98.462,21.542,293.012,401.459,-54.192,144.800,71.290,209.420
855,36370.921000,188.917,148.955,-30.560,295.620,404.567,-66.992,817.800,176.290,174.420
856,36370.958000,184.971,139.866,-55.609,300.044,403.032,-60.076,-381.200,94.290,117.420
857,36370.999000,218.513,142.895,17.534,299.160,403.871,-61.045,382.800,202.290,197.420
858,36371.18000,235.283,109.570,4.509,307.063,395.867,-68.230,390.800,64.290,326.420
859,36371.58000,198.782,147.945,-19.538,314.098,385.400,-70.533,19.800,-89.710,339.420
860,36371.98000,207.661,129.767,-29.558,320.266,380.253,-68.695,-101.200,-82.710,400.420
861,36371.138000,249.094,83.314,-10.521,326.433,381.126,-68.647,81.800,-61.710,428.420
862,36371.178000,255.013,84.323,-24.548,334.353,373.291,-69.869,-169.200,-116.710,336.420
863,36371.221000,251.067,77.254,-43.585,337.888,368.227,-65.057,-158.200,36.290,246.420
864,36371.258000,227.391,93.412,-11.523,341.423,368.342,-61.070,-93.200,150.290,166.420
865,36371.281000,220.486,111.590,7.515,339.667,364.953,-58.206,-123.200,44.290,126.420
866,36371.318000,229.364,94.422,-7.515,345.818,358.769,-62.359,51.800,-2.710,111.420
867,36371.361000,218.513,103.511,0.501,347.585,357.958,-60.394,-47.200,-114.710,111.420
868,36371.401000,238.243,96.442,-25.550,349.340,360.479,-63.285,-103.200,-218.710,177.420
869,36371.438000,240.216,76.245,-33.566,351.981,358.745,-63.333,20.800,-116.710,181.420
870,36371.482000,235.283,64.126,-23.546,352.852,356.057,-66.397,109.800,-45.710,87.420
871,36371.501000,230.351,78.264,-19.538,353.726,354.266,-68.438,97.800,-74.710,93.420
872,36371.543000,232.324,111.590,4.509,354.594,355.861,-73.348,84.800,-200.710,111.420
873,36371.581000,225.418,94.422,-23.546,357.223,344.523,-75.694,-208.200,-345.710,116.420
874,36371.619000,269.811,37.870,-19.538,354.562,343.484,-81.694,230.800,-289.710,170.420
875,36371.662000,238.243,65.136,-64.626,355.419,345.835,-90.552,294.800,-252.710,18.420
876,36371.712000,240.216,84.323,-68.634,353.655,342.362,-90.670,-193.200,-77.710,-103.580
877,36371.742000,238.243,70.185,-52.603,354.543,347.599,-89.504,123.800,183.290,-85.580
878,36371.761000,241.202,83.314,-34.568,352.776,349.277,-91.442,460.800,356.290,-220.580
879,36371.801000,248.108,86.343,-29.558,349.258,348.463,-89.493,46.800,282.290,-165.580
880,36371.841000,208.647,128.757,7.515,349.272,352.048,-85.405,293.800,192.290,-65.580
881,36371.882000,228.378,113.609,-4.509,348.393,355.519,-85.295,-120.200,-47.710,28.420
882,36371.922000,237.256,77.254,-36.571,347.504,348.546,-86.517,-11.200,22.290,30.420
883,36371.962000,227.391,98.462,-22.544,350.155,355.520,-85.289,152.800,59.290,-21.580
884,36371.982000,235.283,88.363,-21.542,352.792,354.598,-87.297,124.800,28.290,-47.580
885,36372.22000,238.243,80.284,-39.577,349.264,353.699,-88.330,-4.200,-34.710,-5.580
886,36372.62000,229.364,88.363,-34.568,346.611,347.565,-90.524,65.800,18.290,6.420
887,36372.102000,227.391,96.442,-29.558,347.494,353.613,-91.318,48.800,51.290,-1.580
888,36372.144000,239.229,81.294,-23.546,347.495,351.905,-90.380,60.800,63.290,-8.580
889,36372.179000,230.351,90.383,-21.542,347.494,350.169,-90.437,-9.200,15.290,-0.580
890,36372.219000,237.256,90.383,-29.558,349.255,348.435,-90.487,109.800,46.290,-0.580
891,36372.239000,234.297,86.343,-25.550,351.021,354.512,-90.284,30.800,42.290,7.420
892,36372.279000,222.459,107.550,-13.526,350.135,351.879,-91.366,10.800,-48.710,36.420
893,36372.319000,234.297,91.393,-42.583,351.915,356.361,-86.249,-238.200,-82.710,82.420
894,36372.361000,246.135,62.107,-34.568,352.814,354.823,-79.346,-445.200,-19.710,69.420
895,36372.404000,227.391,86.343,-36.571,351.943,352.331,-75.457,-309.200,94.290,-21.580
896,36372.439000,214.566,96.442,-30.560,351.073,351.575,-71.513,-225.200,94.290,-12.580
897,36372.459000,213.580,119.669,15.530,351.095,355.244,-64.443,-543.200,-107.710,-40.580
898,36372.499000,231.337,83.314,-0.501,351.108,353.649,-59.529,-301.200,-158.710,-32.580
899,36372.539000,246.135,91.393,-25.550,349.356,359.780,-57.350,-617.200,-268.710,2.420
900,36372.581000,239.229,79.274,-21.542,351.126,358.998,-54.391,-111.200,-170.710,42.420
901,36372.619000,231.337,100.481,-11.523,349.367,359.025,-53.403,-204.200,-265.710,66.420
902,36372.659000,236.270,74.225,-14.528,350.230,357.121,-59.419,86.800,-288.710,112.420
903,36372.699000,234.297,87.353,-29.558,351.973,358.661,-66.315,85.800,-353.710,76.420
904,36372.723000,237.256,56.047,-21.542,355.468,346.314,-73.655,75.800,-341.710,17.420
905,36372.763000,228.378,98.462,-31.562,351.044,351.294,-81.452,134.800,-403.710,-39.580
906,36372.803000,234.297,82.304,-42.583,351.021,354.512,-90.284,307.800,-418.710,11.420
907,36372.843000,233.310,70.185,-52.603,345.704,354.198,-101.234,248.800,-409.710,-60.580
908,36372.883000,257.973,45.949,-90.677,339.525,352.345,-105.286,55.800,-118.710,-312.580
909,36372.923000,254.027,87.353,-94.685,333.373,365.417,-102.896,148.800,317.290,-532.580
910,36372.943000,273.757,58.067,-76.650,324.577,367.259,-98.892,146.800,543.290,-629.580
911,36372.997000,274.744,-20.702,-119.734,320.187,376.889,-95.615,241.800,416.290,-453.580
912,36373.26000,261.919,-165.112,-267.022,318.355,372.739,-119.587,1562.800,-893.710,330.420
913,36373.64000,421.734,-264.079,-373.229,330.395,320.737,-210.605,3522.800,-2382.710,1503.420
914,36373.103000,504.601,6.564,-69.636,330.958,240.894,-304.549,2235.800,-3224.710,2481.420
915,36373.141000,508.547,238.832,266.020,303.391,157.339,-375.865,2007.800,-3081.710,2801.420
916,36373.181000,410.882,408.489,253.996,290.062,105.357,-404.406,1345.800,-1548.710,2330.420
917,36373.201000,366.489,464.032,298.082,288.288,72.484,-401.506,74.800,628.290,1570.420
918,36373.241000,402.004,313.562,141.777,321.850,51.823,-366.321,564.800,2231.290,807.420
919,36373.288000,376.355,291.345,-195.883,357.243,58.549,-313.361,621.800,3041.290,-586.580
920,36373.322000,324.069,386.272,-336.157,380.346,113.091,-255.910,-1363.200,2470.290,-1749.580
921,36373.363000,218.513,167.132,-449.378,379.595,162.628,-221.536,-2264.200,1836.290,-2142.580
922,36373.401000,152.416,28.781,-503.483,365.649,223.552,-182.863,-688.200,1272.290,-2452.580
923,36373.422000,71.522,18.682,-503.483,337.510,270.573,-175.470,-330.200,65.290,-2383.580
924,36373.463000,21.210,-79.274,-503.483,299.612,311.730,-191.136,-221.200,-1119.710,-2253.580
925,36373.504000,88.293,-187.329,-310.106,269.592,323.100,-217.674,853.800,-1796.710,-1647.580
926,36373.542000,69.549,-171.172,-73.644,243.057,328.926,-256.297,898.800,-1660.710,-590.580
927,36373.586000,19.237,-208.536,73.644,228.042,333.700,-271.085,-314.200,-1438.710,-50.580
928,36373.626000,92.239,-300.434,-19.538,243.148,359.982,-231.457,-2559.200,206.290,655.420
929,36373.666000,334.921,85.333,-496.470,253.800,377.158,-207.034,-1863.200,-724.710,471.420
930,36373.684000,511.507,-25.751,244.978,254.864,403.096,-148.595,-3257.200,-56.710,7.420
931,36373.723000,437.518,114.619,74.646,257.461,394.023,-162.783,584.800,74.290,53.420
932,36373.763000,377.341,-45.949,12.524,248.595,387.434,-180.899,784.800,-95.710,-336.580
933,36373.802000,398.058,19.692,29.558,229.090,380.161,-222.904,2194.800,-50.710,-823.580
934,36373.843000,382.274,50.998,-38.575,208.710,360.876,-260.335,3001.800,-189.710,-1149.580
935,36373.886000,260.933,71.195,-169.832,182.109,330.720,-314.028,2774.800,-35.710,-1459.580
936,36373.902000,111.969,-12.623,-334.153,152.873,286.843,-362.216,3464.800,-182.710,-1671.580
937,36373.941000,140.578,44.939,-3.507,130.762,253.223,-385.223,1928.800,443.290,-2124.580
938,36373.983000,138.605,-9.594,2.505,123.691,244.369,-391.491,1039.800,1307.290,-1735.580
939,36374.23000,208.647,-107.550,-53.605,144.826,219.325,-388.264,1594.800,2066.290,-596.580
940,36374.63000,208.647,-128.757,-77.652,193.294,179.015,-373.529,1435.800,2718.290,301.420
941,36374.103000,177.079,-35.850,-112.720,243.592,169.537,-341.900,294.800,2799.290,912.420
942,36374.143000,181.025,-33.830,-158.810,278.917,179.899,-313.646,-1563.200,2556.290,1530.420
943,36374.163000,190.890,32.821,-161.816,324.003,183.217,-258.780,-2291.200,2339.290,1899.420
944,36374.207000,211.607,125.728,-120.736,358.538,187.593,-196.962,-3489.200,2001.290,2092.420
945,36374.254000,273.757,63.116,-39.577,395.713,175.563,-132.689,-2796.200,2112.290,2247.420
946,36374.288000,314.204,283.266,-48.595,408.156,160.291,-90.446,-3317.200,2205.290,1817.420
947,36374.322000,319.137,266.099,-22.544,421.512,137.574,-35.532,-5903.200,416.290,1696.420
948,36374.363000,352.678,-91.393,163.820,428.658,129.941,0.983,-1915.200,745.290,127.420
949,36374.383000,295.461,96.442,100.697,428.667,145.537,0.497,3133.800,794.290,-494.580
950,36374.423000,256.987,286.296,147.789,428.624,140.803,-13.559,935.800,-411.710,100.420
951,36374.463000,332.948,151.984,60.618,423.287,143.736,-32.348,317.800,-1289.710,-147.580
952,36374.503000,332.948,5.554,-59.616,417.910,154.030,-66.786,3167.800,-935.710,-812.580
953,36374.543000,289.541,203.487,-244.978,408.055,149.813,-123.555,5671.800,-1064.710,-1125.580
954,36374.584000,261.919,240.852,-185.863,384.110,155.106,-181.053,1831.800,-2271.710,-1368.580
955,36374.624000,239.229,22.722,-162.818,361.122,161.160,-211.713,215.800,-2660.710,-1431.580
956,36374.644000,208.647,-79.274,-159.812,329.278,176.221,-260.976,515.800,-2697.710,-1386.580
957,36374.693000,172.146,16.663,-79.656,289.521,189.709,-304.357,-634.200,-2610.710,-976.580
958,36374.727000,186.944,-168.142,-102.701,252.509,235.235,-318.886,-2352.200,-2467.710,-532.580
959,36374.773000,138.605,-162.083,-87.671,232.276,262.213,-315.097,-2450.200,-1944.710,70.420
960,36374.804000,84.347,-102.501,-81.659,216.500,311.260,-297.668,-3075.200,-1404.710,223.420
961,36374.847000,96.185,-176.221,-86.669,213.073,343.237,-270.824,-2131.200,-685.710,75.420
962,36374.862000,168.200,-260.039,3.507,228.942,344.230,-266.769,776.800,483.290,202.420
963,36374.903000,272.771,44.939,-299.084,253.622,334.897,-260.041,764.800,1234.290,155.420
964,36374.944000,511.507,126.738,97.691,264.338,363.052,-215.402,-3831.200,459.290,118.420
965,36374.984000,511.507,516.544,374.231,269.821,392.578,-152.861,-1940.200,71.290,130.420
966,36375.24000,335.908,-158.043,-230.951,282.928,369.986,-185.327,2831.800,111.290,655.420
967,36375.66000,141.565,151.984,-130.755,286.469,370.158,-179.353,-476.200,250.290,8.420
968,36375.107000,265.865,133.807,-35.569,287.348,367.555,-179.434,1201.800,326.290,211.420
969,36375.127000,236.270,55.037,-107.710,297.018,358.741,-184.654,-84.200,98.290,256.420
970,36375.166000,262.906,75.235,-40.579,300.530,350.875,-186.884,323.800,189.290,156.420
971,36375.202000,190.890,125.728,-72.642,301.405,345.640,-188.044,204.800,1.290,91.420
972,36375.243000,234.297,76.245,-83.663,303.159,346.424,-190.992,224.800,60.290,100.420
973,36375.283000,228.378,73.215,-79.656,309.326,342.985,-190.091,53.800,-25.710,100.420
974,36375.323000,230.351,87.353,-96.689,308.422,339.315,-197.164,101.800,42.290,122.420
975,36375.363000,222.459,76.245,-92.681,311.949,340.214,-196.130,210.800,149.290,111.420
976,36375.383000,229.364,71.195,-110.716,316.358,333.358,-193.360,171.800,223.290,104.420
977,36375.426000,234.297,63.116,-95.687,322.509,324.598,-196.603,332.800,290.290,134.420
978,36375.467000,206.674,125.728,-51.601,325.143,315.891,-197.870,347.800,254.290,171.420
979,36375.503000,214.566,77.254,-85.667,333.974,322.143,-191.681,-88.200,179.290,179.420
980,36375.556000,216.540,79.274,-55.609,336.613,316.937,-191.842,-10.200,109.290,263.420
981,36375.584000,230.351,49.988,-79.656,338.387,317.919,-187.832,14.800,60.290,213.420
982,36375.604000,233.310,95.432,-81.659,343.684,318.035,-183.840,-308.200,1.290,272.420
983,36375.644000,231.337,36.860,-52.603,349.866,315.605,-177.941,-42.200,-8.710,279.420
984,36375.687000,242.189,25.751,-89.675,348.110,315.660,-175.959,-414.200,-47.710,93.420
985,36375.728000,251.067,62.107,-93.683,347.241,316.640,-171.958,-540.200,27.290,18.420
986,36375.766000,251.067,38.880,-59.616,351.650,315.831,-169.984,337.800,251.290,-60.580
987,36375.808000,236.270,82.304,-66.630,349.901,314.235,-165.076,-99.200,140.290,-121.580
988,36375.828000,241.202,33.830,-68.634,352.542,314.209,-166.062,529.800,363.290,-152.580
989,36375.868000,242.189,79.274,-53.605,347.259,315.101,-165.057,38.800,210.290,-124.580
990,36375.908000,219.499,82.304,-57.613,349.923,323.924,-159.797,-29.200,136.290,-63.580
991,36375.944000,230.351,39.890,-59.616,349.915,324.707,-162.750,323.800,184.290,-132.580
992,36375.984000,233.310,83.314,-77.652,347.279,326.498,-160.715,-104.200,174.290,-112.580
993,36376.24000,236.270,43.929,-56.611,348.171,318.855,-155.002,245.800,318.290,-169.580
994,36376.66000,237.256,89.373,-49.597,344.640,320.504,-157.939,80.800,283.290,-157.580
995,36376.86000,223.445,82.304,-51.601,350.819,322.357,-153.887,59.800,292.290,-125.580
996,36376.125000,233.310,90.383,-53.605,349.963,332.942,-147.588,-48.200,296.290,-96.580
997,36376.166000,232.324,78.264,-53.605,349.105,333.167,-139.640,-101.200,372.290,-118.580
998,36376.206000,240.216,71.195,-50.599,348.244,336.807,-133.566,7.800,441.290,-156.580
999,36376.246000,218.513,97.452,-50.599,350.913,337.930,-124.584,-13.200,502.290,-164.580
1000,36376.286000,273.757,78.264,-18.536,352.707,339.977,-113.589,-278.200,522.290,-71.580
1001,36376.305000,284.609,31.811,-29.558,352.748,342.108,-99.618,-70.200,658.290,-140.580
1002,36376.346000,249.094,67.156,-34.568,352.787,348.522,-87.494,-58.200,807.290,-215.580
1003,36376.387000,242.189,73.215,-7.515,351.957,356.784,-71.341,136.800,982.290,-255.580
1004,36376.423000,243.175,46.959,4.509,352.003,360.678,-56.319,192.800,1041.290,-326.580
1005,36376.463000,226.405,78.264,15.530,349.397,361.043,-43.407,125.800,1007.290,-325.580
1006,36376.504000,241.202,73.215,21.542,344.147,360.537,-30.531,-26.200,891.290,-184.580
1007,36376.544000,289.541,88.363,54.607,345.063,361.744,-18.573,159.800,785.290,33.420
1008,36376.564000,264.879,26.761,-43.585,352.119,361.833,-15.569,175.800,389.290,251.420
1009,36376.604000,265.865,-58.067,-19.538,362.641,348.427,-29.872,996.800,-76.710,460.420
1010,36376.645000,209.634,-20.702,-0.501,381.919,326.736,-61.297,1669.800,-112.710,747.420
1011,36376.687000,220.486,3.535,7.515,393.323,315.934,-75.513,1180.800,-390.710,1075.420
1012,36376.727000,256.000,3.535,1.503,414.369,283.969,-102.300,876.800,-553.710,1299.420
1013,36376.767000,278.690,25.751,-22.544,435.432,252.173,-123.124,954.800,-605.710,1266.420
1014,36376.829000,278.690,37.870,-32.564,452.943,208.893,-151.283,1243.800,-607.710,1238.420
1015,36376.841000,277.703,58.067,-26.552,460.805,176.360,-167.209,1019.800,-606.710,1201.420
1016,36376.868000,242.189,69.176,-50.599,470.399,133.188,-191.418,727.800,-589.710,1148.420
1017,36376.907000,230.351,63.116,-37.573,469.446,97.148,-208.478,-50.200,-625.710,1043.420
1018,36376.946000,216.540,71.195,-36.571,468.507,75.893,-224.066,-386.200,-539.710,845.420
1019,36376.986000,201.742,100.481,-21.542,466.716,66.987,-232.304,-1133.200,-411.710,623.420
1020,36377.26000,217.526,75.235,-4.509,464.070,70.400,-234.188,-1838.200,-97.710,362.420
1021,36377.44000,239.229,114.619,68.634,468.518,82.894,-221.852,-1365.200,662.290,-168.580
1022,36377.87000,207.661,167.132,-157.808,470.344,100.762,-203.393,-129.200,764.290,-868.580
1023,36377.127000,379.314,-175.211,83.663,474.798,106.424,-187.307,228.800,789.290,-505.580
1024,36377.167000,347.746,72.205,36.571,473.052,123.811,-185.756,-279.200,114.290,-1123.580
1025,36377.207000,178.066,72.205,-8.517,466.890,145.393,-189.047,-299.200,-121.710,-671.580
1026,36377.247000,248.108,23.732,-10.521,465.124,151.384,-191.837,369.800,-166.710,-396.580
1027,36377.287000,247.121,31.811,-21.542,458.071,163.390,-196.435,-340.200,-325.710,-505.580
1028,36377.307000,252.054,54.028,-45.589,446.619,168.561,-197.297,-601.200,-256.710,-490.580
1029,36377.349000,254.027,32.821,-19.538,439.567,177.123,-201.014,-102.200,-71.710,-436.580
1030,36377.384000,233.310,65.136,-19.538,440.446,185.719,-203.711,-152.200,-171.710,-379.580
1031,36377.424000,248.108,71.195,-28.556,435.155,190.839,-206.541,-102.200,-189.710,-265.580
1032,36377.464000,252.054,43.929,-37.573,432.522,203.857,-206.127,102.800,-108.710,-165.580
1033,36377.504000,241.202,71.195,-36.571,428.114,202.958,-207.163,7.800,-88.710,-144.580
1034,36377.524000,250.081,46.959,-36.571,426.340,206.288,-212.026,66.800,-32.710,-138.580
1035,36377.564000,251.067,58.067,-42.583,425.464,215.807,-212.713,-60.200,-6.710,-198.580
1036,36377.609000,248.108,54.028,-37.573,422.824,213.257,-210.818,-143.200,66.290,-249.580
1037,36377.649000,237.256,69.176,-25.550,420.188,218.491,-209.663,-149.200,80.290,-289.580
1038,36377.689000,237.256,75.235,-20.540,417.554,226.330,-208.424,-164.200,32.290,-260.580
1039,36377.729000,239.229,85.333,-18.536,417.564,232.462,-206.239,-148.200,-12.710,-200.580
1040,36377.764000,235.283,85.333,-27.554,414.051,235.148,-203.185,-197.200,-71.710,-87.580
1041,36377.784000,237.256,86.343,-26.552,414.938,239.517,-202.047,-215.200,-94.710,12.420
1042,36377.824000,240.216,72.205,-30.560,414.936,240.357,-203.013,-137.200,-85.710,86.420
1043,36377.868000,243.175,68.166,-29.558,413.165,239.403,-206.028,110.800,-54.710,142.420
1044,36377.909000,242.189,76.245,-27.554,413.161,235.063,-206.169,72.800,-91.710,152.420
1045,36377.944000,241.202,42.919,-34.568,415.786,228.848,-211.327,33.800,-112.710,78.420
1046,36377.991000,245.148,80.284,-33.566,410.489,226.156,-214.411,64.800,-109.710,-60.580
1047,36378.11000,238.243,80.284,-40.579,411.374,230.496,-214.267,-107.200,-102.710,-28.580
1048,36378.51000,243.175,71.195,-41.581,411.376,230.524,-213.273,-113.200,-55.710,26.420
1049,36378.90000,247.121,56.047,-32.564,412.249,234.752,-217.105,83.800,6.290,-31.580
1050,36378.126000,241.202,68.166,-30.560,411.381,236.600,-213.076,94.800,-23.710,-54.580
1051,36378.165000,228.378,87.353,-30.560,410.485,235.591,-218.077,63.800,-86.710,-18.580
