Sample, Time, ACCX, ACCY, ACCZ, MAGX, MAGY, MAGZ, GYRX, GYRY, GYRZ
0,36134.105000,250.081,52.008,15.530,421.615,285.078,-32.732,376.800,349.290,93.420
1,36134.129000,248.108,50.998,18.536,423.366,277.211,-34.967,464.800,257.290,88.420
2,36134.161000,253.040,43.929,26.552,422.489,274.662,-33.067,525.800,172.290,94.420
3,36134.204000,248.108,44.939,-31.562,425.096,276.034,-45.923,679.800,-93.710,99.420
4,36134.242000,238.243,39.890,-54.607,427.680,265.113,-64.143,827.800,-472.710,271.420
5,36134.285000,247.121,48.978,-46.591,432.884,257.412,-91.187,669.800,-787.710,416.420
6,36134.323000,248.108,40.899,-54.607,434.577,244.670,-112.448,482.800,-1035.710,498.420
7,36134.342000,256.987,43.929,-35.569,435.364,228.230,-141.775,279.800,-1134.710,496.420
8,36134.384000,225.418,73.215,-16.532,437.024,205.686,-172.291,94.800,-1113.710,434.420
9,36134.422000,209.634,46.959,42.583,433.471,211.421,-184.032,-837.200,-828.710,202.420
10,36134.465000,248.108,40.899,61.620,431.707,208.816,-184.123,-196.200,218.290,-245.580
11,36134.502000,314.204,10.604,66.630,429.097,215.172,-173.995,451.800,1007.290,-425.580
12,36134.545000,321.110,91.393,7.515,436.189,218.204,-158.979,102.800,693.290,-240.580
13,36134.582000,248.108,20.702,25.550,435.351,229.825,-146.689,-612.200,158.290,-220.580
14,36134.601000,231.337,74.225,10.521,435.359,229.909,-143.707,-33.200,56.290,-123.580
15,36134.643000,232.324,55.037,-1.503,434.469,235.844,-148.482,30.800,-130.710,-20.580
16,36134.682000,247.121,44.939,-15.530,430.054,230.576,-150.653,87.800,-204.710,6.420
17,36134.727000,246.135,41.909,-23.546,432.686,238.221,-156.355,-10.200,-216.710,-1.580
18,36134.763000,251.067,43.929,-29.558,426.509,232.084,-158.560,-40.200,-132.710,-30.580
19,36134.806000,247.121,50.998,-19.538,430.037,233.851,-157.498,-72.200,-117.710,-44.580
20,36134.843000,244.162,54.028,-15.530,425.630,239.000,-159.331,-95.200,-130.710,-41.580
21,36134.862000,253.040,52.008,-20.540,426.496,237.123,-164.354,0.800,-125.710,-42.580
22,36134.911000,254.027,50.998,-20.540,425.605,235.302,-167.395,54.800,-115.710,-36.580
23,36134.951000,246.135,47.968,-22.544,422.961,241.320,-169.194,10.800,-148.710,-30.580
24,36134.988000,240.216,58.067,-22.544,425.591,238.605,-173.246,-35.200,-201.710,-7.580
25,36135.25000,251.067,43.929,-36.571,417.652,236.779,-176.309,-27.200,-176.710,-16.580
26,36135.63000,240.216,41.909,-42.583,420.297,239.385,-176.216,-29.200,-117.710,-49.580
27,36135.82000,248.108,55.037,-36.571,416.775,241.986,-176.143,-17.200,-49.710,-91.580
28,36135.125000,249.094,49.988,-40.579,417.661,244.619,-175.062,-53.200,3.290,-109.580
29,36135.163000,235.283,48.978,-36.571,415.014,243.721,-176.093,-12.200,58.290,-137.580
30,36135.210000,252.054,62.107,-31.562,417.664,252.403,-175.802,-19.200,84.290,-169.580
31,36135.242000,248.108,58.067,-28.556,407.982,249.037,-171.971,10.800,126.290,-186.580
32,36135.282000,244.162,77.254,-23.546,410.634,254.303,-169.805,-23.200,108.290,-171.580
33,36135.324000,245.148,76.245,-23.546,409.756,254.330,-168.814,-86.200,73.290,-91.580
34,36135.343000,244.162,70.185,-24.548,413.297,261.390,-164.602,-81.200,86.290,-46.580
35,36135.382000,242.189,67.156,-25.550,410.649,263.067,-166.542,-65.200,89.290,-0.580
36,36135.426000,239.229,68.166,-18.536,411.543,268.361,-163.388,-9.200,77.290,32.420
37,36135.463000,245.148,65.136,-21.542,414.180,257.107,-162.752,-14.200,49.290,63.420
38,36135.503000,243.175,60.087,-21.542,414.187,263.211,-161.561,-4.200,27.290,72.420
39,36135.549000,241.202,68.166,-14.528,415.945,257.136,-161.752,-20.200,-36.710,83.420
40,36135.562000,246.135,68.166,-19.538,413.308,258.058,-159.745,-46.200,-84.710,132.420
41,36135.602000,248.108,56.047,-22.544,419.471,256.299,-160.775,46.800,-86.710,150.420
42,36135.642000,243.175,52.008,-26.552,418.579,253.610,-163.844,24.800,-87.710,125.420
43,36135.682000,246.135,53.018,-31.562,423.860,250.981,-164.906,31.800,-51.710,98.420
44,36135.722000,245.148,50.998,-29.558,419.460,249.298,-162.988,66.800,13.290,69.420
45,36135.762000,245.148,54.028,-23.546,416.801,243.108,-167.170,53.800,6.290,59.420
46,36135.802000,247.121,64.126,-17.534,419.448,240.562,-165.258,99.800,-16.710,69.420
47,36135.822000,255.013,67.156,-27.554,423.842,237.877,-168.310,56.800,-41.710,100.420
48,36135.862000,261.919,111.590,-13.526,427.356,232.615,-170.455,236.800,12.290,183.420
49,36135.910000,259.946,63.116,-5.511,429.120,234.352,-170.393,409.800,-47.710,241.420
50,36135.943000,219.499,83.314,-59.616,426.439,229.672,-182.470,1248.800,145.290,-404.580
51,36135.986000,215.553,-21.712,-66.630,426.417,229.447,-190.421,1935.800,628.290,-685.580
52,36136.26000,256.987,-106.540,5.511,425.520,218.946,-193.744,1507.800,561.290,-420.580
53,36136.49000,260.933,188.339,-15.530,429.055,219.929,-189.729,-1045.200,-45.710,-237.580
54,36136.90000,289.541,78.264,-15.530,422.921,233.170,-181.375,-348.200,107.290,-87.580
55,36136.129000,230.351,83.314,20.540,423.794,233.954,-184.325,568.800,74.290,117.420
56,36136.190000,245.148,46.959,-31.562,427.316,231.353,-184.398,-64.200,-209.710,83.420
57,36136.211000,244.162,67.156,-34.568,424.663,228.662,-187.473,109.800,-89.710,96.420
58,36136.243000,249.094,52.008,-25.550,423.762,221.577,-192.671,-50.200,-53.710,72.420
59,36136.283000,245.148,57.057,-25.550,424.641,218.973,-192.753,-92.200,-61.710,67.420
60,36136.303000,250.081,61.097,-26.552,424.651,224.238,-190.596,-59.200,-55.710,87.420
61,36136.343000,249.094,45.949,-32.564,429.046,218.977,-192.738,-24.200,7.290,55.420
62,36136.385000,241.202,54.028,-26.552,429.052,222.477,-191.632,49.800,52.290,40.420
63,36136.425000,249.094,62.107,-19.538,428.176,221.665,-189.675,71.800,34.290,60.420
64,36136.466000,246.135,55.037,-21.542,429.942,219.986,-187.738,19.800,-23.710,77.420
65,36136.509000,244.162,50.998,-24.548,430.814,219.902,-190.717,12.800,-48.710,75.420
66,36136.530000,249.094,49.988,-29.558,429.919,212.005,-193.955,-30.200,-61.710,67.420
67,36136.570000,248.108,44.939,-31.562,430.805,211.194,-191.992,10.800,-6.710,33.420
68,36136.609000,244.162,50.998,-25.550,427.284,214.664,-191.891,43.800,16.290,11.420
69,36136.649000,248.108,54.028,-21.542,429.928,212.090,-190.973,20.800,1.290,7.420
70,36136.690000,246.135,48.978,-26.552,429.043,218.949,-193.732,16.800,-15.710,0.420
71,36136.730000,243.175,47.968,-28.556,427.275,214.579,-194.873,17.800,-18.710,-9.580
72,36136.767000,249.094,52.008,-33.566,430.804,213.770,-192.902,7.800,-0.710,-15.580
73,36136.789000,245.148,49.988,-31.562,428.159,210.296,-193.023,-2.200,50.290,-26.580
74,36136.823000,245.148,54.028,-24.548,434.336,217.301,-190.790,-11.200,69.290,-30.580
75,36136.865000,246.135,56.047,-21.542,429.933,215.590,-189.866,-21.200,47.290,-19.580
76,36136.905000,247.121,55.037,-23.546,428.169,216.428,-190.838,-31.200,10.290,-0.580
77,36136.944000,246.135,50.998,-23.546,432.584,218.252,-187.786,-10.200,5.290,6.420
78,36136.985000,245.148,53.018,-24.548,431.698,219.063,-189.748,-8.200,5.290,9.420
79,36137.5000,246.135,50.998,-25.550,429.054,210.438,-188.051,-8.200,14.290,9.420
80,36137.47000,246.135,52.008,-24.548,432.579,212.176,-187.983,-3.200,17.290,9.420
81,36137.83000,248.108,52.008,-26.552,430.819,211.335,-187.023,-22.200,22.290,9.420
82,36137.130000,246.135,50.998,-25.550,432.582,215.648,-187.870,-9.200,35.290,5.420
83,36137.170000,246.135,55.037,-21.542,430.823,213.099,-185.972,-16.200,31.290,6.420
84,36137.210000,249.094,52.008,-22.544,433.466,216.545,-186.845,-28.200,23.290,14.420
85,36137.249000,246.135,50.998,-22.544,431.717,218.392,-182.819,-36.200,27.290,11.420
86,36137.270000,243.175,52.008,-20.540,429.078,215.843,-180.924,-17.200,24.290,7.420
87,36137.307000,250.081,52.008,-21.542,433.473,214.025,-183.948,-18.200,10.290,17.420
88,36137.351000,247.121,47.968,-23.546,432.596,215.789,-182.901,-4.200,23.290,10.420
89,36137.385000,246.135,54.028,-18.536,433.474,211.450,-183.039,5.800,28.290,5.420
90,36137.425000,248.108,54.028,-21.542,433.476,210.610,-182.073,0.800,36.290,6.420
91,36137.471000,246.135,48.978,-24.548,430.845,215.032,-178.959,7.800,54.290,1.420
92,36137.486000,245.148,55.037,-18.536,435.241,211.507,-181.045,1.800,50.290,5.420
93,36137.526000,249.094,50.998,-19.538,435.247,211.564,-179.057,-0.200,37.290,19.420
94,36137.567000,246.135,49.988,-19.538,434.369,212.459,-178.038,13.800,49.290,22.420
95,36137.617000,244.162,54.028,-13.526,437.898,208.206,-175.186,20.800,48.290,32.420
96,36137.651000,244.162,55.037,-12.524,437.008,214.141,-179.961,12.800,-12.710,67.420
97,36137.685000,242.189,46.959,-9.519,439.650,209.831,-179.099,80.800,-85.710,110.420
98,36137.725000,251.067,70.185,11.523,435.235,207.139,-182.180,164.800,-224.710,158.420
99,36137.745000,272.771,55.037,-7.515,436.959,201.594,-194.270,92.800,-418.710,265.420
100,36137.785000,270.798,46.959,-23.546,436.936,190.170,-199.606,262.800,-381.710,290.420
101,36137.831000,261.919,24.742,-32.564,434.260,178.630,-208.926,552.800,-288.710,373.420
102,36137.871000,258.960,34.840,-45.589,435.988,174.850,-219.966,374.800,-380.710,393.420
103,36137.911000,238.243,24.742,-59.616,432.444,166.894,-225.200,35.800,-353.710,274.420
104,36137.951000,213.580,17.673,-42.583,431.559,165.129,-226.253,-164.200,-92.710,115.420
105,36137.971000,209.634,21.712,-30.560,435.080,161.660,-226.355,-446.200,125.290,43.420
106,36138.5000,209.634,24.742,-36.571,436.005,168.131,-212.240,-762.200,295.290,-80.580
107,36138.46000,225.418,28.781,-39.577,436.071,192.046,-194.583,-1042.200,477.290,-257.580
108,36138.87000,246.135,32.821,-39.577,439.674,211.792,-171.092,-898.200,640.290,-360.580
109,36138.133000,260.933,23.732,-122.740,441.489,222.660,-154.845,-558.200,688.290,-421.580
110,36138.167000,295.461,-33.830,-39.577,439.749,228.904,-148.690,144.800,239.290,-97.580
111,36138.208000,267.838,63.116,62.622,443.272,228.038,-148.707,389.800,324.290,-152.580
112,36138.231000,251.067,66.146,3.507,438.007,235.987,-143.501,-240.200,43.290,-152.580
113,36138.271000,241.202,47.968,-12.524,437.122,231.647,-143.645,-130.200,-40.710,-48.580
114,36138.311000,237.256,49.988,-14.528,439.760,224.705,-143.862,-28.200,-66.710,-15.580
115,36138.351000,245.148,74.225,10.521,438.000,234.195,-145.545,-14.200,-100.710,-4.580
116,36138.391000,260.933,29.791,-26.552,433.602,235.984,-143.515,-291.200,-153.710,-22.580
117,36138.424000,254.027,30.801,-19.538,436.237,236.770,-146.460,-4.200,-64.710,-25.580
118,36138.446000,243.175,52.008,-3.507,435.358,231.617,-144.644,39.800,-75.710,-37.580
119,36138.486000,247.121,52.008,-19.538,434.472,240.184,-148.341,-90.200,-122.710,-46.580
120,36138.526000,245.148,46.959,-22.544,433.587,238.419,-149.394,-6.200,-73.710,-38.580
121,36138.566000,251.067,60.087,-9.519,432.704,239.258,-150.363,17.800,-51.710,-59.580
122,36138.606000,252.054,53.018,-18.536,431.817,242.645,-153.235,-76.200,-64.710,-60.580
123,36138.647000,247.121,47.968,-21.542,432.697,245.222,-154.141,-32.200,-36.710,-63.580
124,36138.687000,247.121,62.107,-10.521,430.931,243.456,-155.197,-23.200,-50.710,-67.580
125,36138.707000,248.108,47.968,-24.548,432.704,247.882,-152.069,-80.200,-52.710,-60.580
126,36138.762000,244.162,50.998,-17.534,430.936,235.757,-151.475,-39.200,-27.710,-70.580
127,36138.786000,246.135,60.087,-10.521,423.005,246.922,-155.110,-27.200,-51.710,-80.580
128,36138.826000,247.121,57.057,-18.536,423.890,245.243,-153.176,-48.200,-68.710,-66.580
129,36138.866000,244.162,57.057,-20.540,425.652,253.000,-154.905,-23.200,-64.710,-66.580
130,36138.906000,247.121,62.107,-17.534,423.881,248.603,-157.039,-44.200,-77.710,-78.580
131,36138.926000,246.135,53.018,-24.548,420.361,257.252,-157.763,-83.200,-66.710,-88.580
132,36138.966000,246.135,55.037,-24.548,415.958,263.297,-158.573,-52.200,-37.710,-113.580
133,36139.6000,246.135,66.146,-15.530,416.842,264.193,-157.549,-68.200,-59.710,-126.580
134,36139.46000,244.162,58.067,-21.542,417.726,259.910,-155.699,-94.200,-79.710,-125.580
135,36139.86000,244.162,72.205,-23.546,415.077,264.164,-158.548,-4.200,-73.710,-124.580
136,36139.126000,240.216,62.107,-24.548,413.315,271.050,-160.316,-28.200,-73.710,-97.580
137,36139.166000,239.229,68.166,-20.540,410.667,270.992,-162.313,23.800,-88.710,-103.580
138,36139.186000,243.175,77.254,-24.548,406.264,270.149,-161.361,-24.200,-126.710,-81.580
139,36139.226000,245.148,65.136,-33.566,405.363,274.263,-169.174,-26.200,-82.710,-74.580
140,36139.272000,237.256,67.156,-26.552,402.740,277.034,-163.135,-0.200,-48.710,-83.580
141,36139.309000,246.135,73.215,-26.552,401.840,275.128,-169.158,1.800,-68.710,-55.580
142,36139.352000,239.229,61.097,-32.564,400.078,274.259,-169.192,-9.200,-52.710,-69.580
143,36139.386000,234.297,70.185,-28.556,400.965,279.496,-168.026,31.800,-44.710,-79.580
144,36139.406000,245.148,76.245,-27.554,399.201,280.335,-168.997,-0.200,-67.710,-51.580
145,36139.447000,242.189,71.195,-32.564,398.310,281.957,-172.919,6.800,-53.710,-56.580
146,36139.487000,240.216,75.235,-28.556,397.431,280.249,-171.985,-8.200,-60.710,-49.580
147,36139.527000,238.243,73.215,-36.571,393.891,274.057,-176.169,-29.200,-56.710,-34.580
148,36139.567000,238.243,75.235,-35.569,394.782,279.322,-174.009,11.800,-25.710,-29.580
149,36139.607000,240.216,71.195,-34.568,395.664,281.059,-173.950,15.800,-19.710,-27.580
150,36139.647000,238.243,74.225,-35.569,393.900,281.898,-174.921,1.800,1.290,-24.580
151,36139.668000,242.189,78.264,-35.569,397.419,275.824,-175.107,11.800,10.290,-1.580
152,36139.711000,238.243,70.185,-32.564,397.426,277.617,-173.063,36.800,40.290,3.420
153,36139.746000,239.229,77.254,-35.569,393.895,282.709,-176.881,13.800,48.290,-3.580
154,36139.787000,239.229,82.304,-28.556,395.648,271.427,-177.242,31.800,39.290,36.420
155,36139.828000,238.243,77.254,-30.560,398.303,280.165,-174.964,1.800,28.290,42.420
156,36139.872000,236.270,72.205,-30.560,399.191,281.090,-172.945,-0.200,6.290,63.420
157,36139.894000,247.121,77.254,-32.564,398.309,276.777,-172.094,-41.200,-19.710,91.420
158,36139.928000,243.175,65.136,-33.566,400.067,279.326,-173.992,-36.200,-1.710,86.420
159,36139.968000,235.283,63.116,-25.550,399.192,279.382,-172.007,18.800,-27.710,9.420
160,36140.9000,242.189,69.176,-35.569,400.945,271.543,-173.249,-37.200,-42.710,0.420
161,36140.52000,241.202,66.146,-29.558,401.835,275.940,-171.117,-8.200,-19.710,-34.580
162,36140.87000,239.229,76.245,-30.560,396.550,276.804,-171.106,-19.200,-16.710,-33.580
163,36140.128000,241.202,73.215,-34.568,398.309,272.466,-171.241,-46.200,-41.710,-23.580
164,36140.149000,240.216,67.156,-38.575,398.311,282.825,-172.891,8.800,1.290,-29.580
165,36140.190000,241.202,78.264,-29.558,398.308,282.797,-173.885,-1.200,4.290,-25.580
166,36140.231000,237.256,67.156,-29.558,397.424,278.456,-174.029,-4.200,-8.710,-26.580
167,36140.267000,239.229,69.176,-31.562,391.257,278.452,-174.049,12.800,-52.710,-37.580
168,36140.308000,243.175,69.176,-38.575,394.779,279.294,-175.003,26.800,-27.710,-38.580
169,36140.348000,251.067,69.176,-30.560,396.528,277.447,-179.029,383.800,136.290,-120.580
170,36140.368000,241.202,75.235,-23.546,393.875,279.068,-182.957,753.800,178.290,-43.580
171,36140.413000,246.135,89.373,-32.564,396.493,268.485,-189.250,502.800,14.290,44.420
172,36140.448000,236.270,82.304,-52.603,393.839,268.371,-193.234,450.800,72.290,94.420
173,36140.489000,237.256,72.205,-17.534,400.881,261.432,-193.437,503.800,115.290,158.420
174,36140.533000,246.135,61.097,-26.552,402.625,251.772,-197.717,210.800,-53.710,155.420
175,36140.567000,221.472,54.028,-40.579,399.974,249.110,-199.798,139.800,-100.710,144.420
176,36140.607000,238.243,77.254,-29.558,400.841,248.970,-204.764,-31.200,-185.710,200.420
177,36140.627000,255.013,72.205,-13.526,401.709,242.810,-207.940,-212.200,-291.710,253.420
178,36140.668000,265.865,73.215,-11.523,404.327,239.983,-215.968,14.800,-478.710,365.420
179,36140.711000,323.083,88.363,30.560,399.881,229.225,-228.247,179.800,-812.710,603.420
180,36140.753000,372.408,88.363,66.630,394.514,207.742,-251.800,180.800,-1228.710,968.420
181,36140.793000,86.320,-28.781,-216.924,390.949,193.541,-263.195,-730.200,-1214.710,819.420
182,36140.833000,-0.493,-105.531,-380.243,393.628,200.797,-252.028,-1492.200,283.290,651.420
183,36140.873000,231.337,149.964,-50.599,409.550,204.900,-229.998,-918.200,989.290,-3.580
184,36140.893000,511.507,-45.949,110.716,421.919,199.228,-216.241,1194.800,1081.290,-206.580
185,36140.927000,420.748,15.653,91.679,421.946,205.529,-208.092,-94.200,359.290,38.420
186,36140.968000,318.150,40.899,-9.519,420.165,198.443,-213.293,855.800,-148.710,286.420
187,36141.8000,194.836,5.554,-503.483,409.482,173.202,-246.915,1339.800,-1764.710,530.420
188,36141.50000,129.726,49.988,-503.483,376.654,130.382,-318.912,2229.800,-2916.710,360.420
189,36141.88000,56.724,39.890,-200.892,325.315,67.613,-390.623,2721.800,-3298.710,330.420
190,36141.108000,61.657,-0.505,-124.744,284.660,31.821,-428.655,1741.800,-2926.710,247.420
191,36141.149000,9.372,12.623,-71.640,237.850,-11.618,-460.997,1625.800,-2126.710,-89.580
192,36141.193000,69.549,26.761,-118.732,208.718,-51.877,-473.320,1584.800,-1301.710,-741.580
193,36141.228000,188.917,125.728,-148.791,211.358,-86.369,-466.487,1780.800,-43.710,-1450.580
194,36141.268000,282.636,50.998,-15.530,231.631,-97.441,-459.830,997.800,937.290,-1824.580
195,36141.322000,306.312,20.702,-78.654,273.969,-107.235,-439.160,1098.800,1523.290,-1647.580
196,36141.348000,395.098,184.300,103.703,330.443,-91.621,-409.675,-184.200,2081.290,-1982.580
197,36141.368000,372.408,109.570,-75.648,375.490,-49.919,-377.395,-182.200,1877.290,-1984.580
198,36141.408000,212.593,38.880,53.605,399.334,-44.159,-358.265,932.800,1164.290,-1008.580
199,36141.448000,339.854,-62.107,-50.599,406.409,-33.540,-350.947,14.800,498.290,-349.580
200,36141.488000,251.067,92.402,-91.679,415.258,-26.252,-338.766,-141.200,313.290,-468.580
201,36141.529000,262.906,91.393,-82.661,417.915,-21.797,-334.641,169.800,296.290,-365.580
202,36141.571000,278.690,30.801,-72.642,417.045,-19.110,-331.577,21.800,71.290,-224.580
203,36141.595000,279.676,21.712,-75.648,422.324,-20.030,-333.576,-229.200,35.290,-138.580
204,36141.628000,243.175,74.225,-81.659,420.565,-12.247,-334.322,-129.200,-85.710,11.420
205,36141.668000,240.216,27.771,-87.671,418.792,-16.673,-337.451,284.800,-43.710,98.420
206,36141.710000,222.459,12.623,-80.658,417.029,-21.854,-336.631,131.800,-166.710,165.420
207,36141.750000,253.040,50.998,-55.609,409.964,-22.029,-342.618,-12.200,-522.710,355.420
208,36141.788000,281.649,77.254,-52.603,396.698,-34.613,-357.963,54.800,-827.710,589.420
209,36141.834000,347.746,57.057,-26.552,376.370,-55.098,-376.567,378.800,-1071.710,757.420
210,36141.854000,448.370,137.846,38.575,346.333,-86.120,-399.516,668.800,-1597.710,1058.420
211,36141.902000,511.507,155.014,49.597,314.560,-103.954,-416.084,980.800,-1693.710,1429.420
212,36141.929000,487.830,196.418,-105.706,265.165,-164.919,-424.179,2168.800,-1199.710,2250.420
213,36141.971000,77.441,145.925,-290.067,214.872,-152.808,-454.730,-2810.200,-1438.710,1522.420
214,36142.11000,32.062,-15.653,10.521,191.951,-64.238,-480.726,-3791.200,-228.710,436.420
215,36142.51000,-108.023,-73.215,19.538,224.627,-1.380,-466.665,-2295.200,1633.290,294.420
216,36142.72000,-129.726,-61.097,-60.618,268.766,15.932,-438.158,-1031.200,3311.290,80.420
217,36142.113000,-5.426,-64.126,-287.061,335.899,58.270,-383.941,-1908.200,3292.290,106.420
218,36142.154000,281.649,7.574,-315.115,378.354,95.297,-332.954,-1917.200,2442.290,-26.580
219,36142.188000,314.204,-21.712,-195.883,393.437,129.109,-303.012,-2068.200,898.290,496.420
220,36142.228000,248.108,44.939,-119.734,401.439,141.047,-279.760,-1487.200,627.290,469.420
221,36142.269000,244.162,-4.544,-38.575,405.056,163.510,-252.209,-1872.200,652.290,221.420
222,36142.309000,257.973,-24.742,-44.587,410.467,188.020,-213.662,-2236.200,904.290,260.420
223,36142.330000,256.000,-3.535,-105.706,418.541,204.974,-166.416,-2486.200,940.290,389.420
224,36142.369000,217.526,62.107,-147.789,424.791,211.843,-138.369,-3370.200,532.290,367.420
225,36142.410000,178.066,45.949,-204.900,428.471,228.038,-87.189,-3704.200,259.290,190.420
226,36142.449000,250.081,141.886,-149.793,426.767,241.535,-69.876,-970.200,-149.710,-183.580
227,36142.491000,225.418,161.073,-15.530,415.337,260.708,-66.311,792.800,676.290,-914.580
228,36142.531000,299.407,102.501,16.532,409.185,268.600,-63.096,447.800,593.290,-702.580
229,36142.553000,216.540,73.215,21.542,403.055,283.605,-53.692,-442.200,257.290,-695.580
230,36142.597000,256.987,84.323,15.530,392.500,290.654,-49.525,-222.200,-30.710,-362.580
231,36142.629000,252.054,39.890,11.523,390.732,294.040,-52.400,-27.200,-105.710,-274.580
232,36142.669000,249.094,47.968,-14.528,386.317,303.415,-58.068,283.800,-57.710,-323.580
233,36142.709000,238.243,72.205,3.507,385.430,305.934,-60.968,255.800,-162.710,-259.580
234,36142.749000,228.378,61.097,-26.552,381.017,310.158,-64.817,-47.200,-216.710,-221.580
235,36142.789000,236.270,88.363,-23.546,374.840,315.221,-69.637,25.800,-247.710,-173.580
236,36142.810000,234.297,87.353,-31.562,373.074,317.767,-71.546,-235.200,-330.710,-104.580
237,36142.851000,225.418,117.649,-31.562,372.190,313.427,-71.690,-628.200,-360.710,-23.580
238,36142.891000,240.216,39.890,-5.511,368.677,316.113,-68.635,-383.200,-307.710,45.420
239,36142.932000,264.879,37.870,-25.550,371.313,315.190,-70.642,-358.200,-441.710,-41.580
240,36142.974000,245.148,63.116,-58.614,367.786,318.603,-72.529,-385.200,-310.710,-105.580
241,36143.12000,241.202,65.136,-32.564,366.044,326.555,-67.312,-343.200,-164.710,-113.580
242,36143.31000,236.270,74.225,-23.546,365.168,329.187,-66.236,-402.200,-221.710,-102.580
243,36143.76000,232.324,102.501,-52.603,362.535,331.005,-63.206,-368.200,-215.710,-72.580
244,36143.113000,237.256,56.047,-25.550,362.528,325.769,-64.369,-176.200,-123.710,-50.580
245,36143.156000,235.283,93.412,-40.579,359.898,331.060,-61.227,-234.200,-158.710,-123.580
246,36143.189000,224.432,107.550,-50.599,356.375,332.793,-61.182,-368.200,-160.710,-42.580
247,36143.229000,254.027,76.245,-32.564,357.261,335.426,-60.101,-126.200,-97.710,-61.580
248,36143.269000,238.243,82.304,-53.605,354.634,340.744,-55.965,-306.200,-68.710,-119.580
249,36143.289000,225.418,102.501,-40.579,352.886,340.884,-51.001,-218.200,-55.710,-79.580
250,36143.332000,260.933,41.909,-44.587,351.124,345.195,-51.860,-165.200,17.290,-219.580
251,36143.371000,240.216,94.422,-8.517,345.846,343.539,-48.951,87.800,95.290,-211.580
252,36143.412000,256.000,91.393,-25.550,344.074,338.274,-51.114,44.800,-107.710,-72.580
253,36143.451000,280.663,103.511,-1.503,345.825,342.474,-55.937,176.800,-301.710,272.420
254,36143.494000,439.491,243.882,42.583,353.729,335.339,-63.094,-205.200,-621.710,761.420
255,36143.513000,368.462,96.442,-13.526,367.809,318.829,-64.578,-107.200,-329.710,1137.420
256,36143.549000,107.037,34.840,-330.145,381.845,295.849,-80.173,-363.200,-740.710,1142.420
257,36143.593000,69.549,-2.525,-67.632,386.259,289.917,-75.387,-1882.200,-1008.710,650.420
258,36143.631000,69.549,-9.594,-1.503,388.905,286.503,-73.503,-1672.200,-963.710,530.420
259,36143.671000,61.657,29.791,24.548,385.399,279.782,-65.788,-1588.200,-391.710,179.420
260,36143.716000,100.131,-22.722,-9.519,389.867,289.028,-45.614,-1172.200,205.290,-119.580
261,36143.749000,131.699,-49.988,-31.562,390.788,289.423,-31.697,-78.200,699.290,-332.580
262,36143.769000,97.171,40.899,-503.483,388.134,292.753,-36.562,1641.800,621.290,-228.580
263,36143.811000,420.748,196.418,57.613,386.375,297.959,-36.399,-1037.200,-50.710,-429.580
264,36143.856000,457.249,70.185,-11.523,386.433,307.146,-18.226,-400.200,50.290,-529.580
265,36143.892000,483.884,72.205,21.542,382.920,310.700,-15.143,247.800,163.290,-27.580
266,36143.933000,167.214,29.791,-99.695,375.883,312.516,-12.128,-229.200,59.290,-222.580
267,36143.971000,253.040,115.629,-22.544,374.133,317.807,-8.983,362.800,613.290,-317.580
268,36143.998000,227.391,86.343,-35.569,371.527,325.059,2.167,-185.200,465.290,-211.580
269,36144.37000,215.553,91.393,-34.568,365.399,332.336,14.299,-246.200,428.290,-149.580
270,36144.77000,257.973,55.037,-29.558,365.414,333.345,19.297,-80.200,415.290,-67.580
271,36144.111000,237.256,109.570,15.530,359.254,335.133,21.321,468.800,450.290,-155.580
272,36144.156000,223.445,90.383,-11.523,360.137,337.737,21.409,599.800,380.290,-86.580
273,36144.196000,231.337,87.353,-25.550,358.364,337.624,17.427,435.800,222.290,62.420
274,36144.236000,227.391,84.323,-8.517,359.233,332.332,14.279,446.800,152.290,131.420
275,36144.256000,239.229,97.452,-26.552,362.750,327.966,13.156,131.800,8.290,213.420
276,36144.291000,237.256,79.274,-30.560,368.045,332.366,15.302,-36.200,46.290,223.420
277,36144.331000,244.162,72.205,-9.519,375.081,328.815,12.230,102.800,123.290,244.420
278,36144.371000,229.364,63.116,-12.524,374.209,324.587,16.062,29.800,77.290,246.420
279,36144.411000,235.283,78.264,-3.507,378.597,314.090,12.756,64.800,22.290,225.420
280,36144.451000,238.243,59.077,-14.528,379.464,306.194,9.524,188.800,-70.710,289.420
281,36144.471000,230.351,110.580,22.544,386.486,302.502,1.483,386.800,-250.710,361.420
282,36144.511000,242.189,32.821,-20.540,391.739,292.704,-7.755,65.800,-449.710,415.420
283,36144.551000,253.040,70.185,-8.517,397.878,285.539,-15.912,229.800,-509.710,440.420
284,36144.591000,259.946,87.353,16.532,406.637,282.463,-32.865,396.800,-732.710,633.420
285,36144.631000,348.732,44.939,-1.503,410.958,268.714,-59.115,772.800,-980.710,621.420
286,36144.671000,440.478,-29.791,47.593,413.506,254.850,-89.346,1092.800,-1021.710,427.420
287,36144.712000,465.141,-12.623,83.663,408.109,238.237,-124.657,1789.800,-757.710,299.420
288,36144.732000,145.511,91.393,-314.113,400.086,228.678,-155.776,1192.800,-899.710,245.420
289,36144.772000,46.859,-22.722,-359.202,397.401,224.809,-169.812,890.800,-630.710,-37.580
290,36144.812000,42.913,-37.870,-205.902,389.385,205.843,-196.271,2275.800,-77.710,51.420
291,36144.852000,-68.563,46.959,21.542,393.738,182.073,-208.944,1767.800,175.290,201.420
292,36144.892000,-19.237,-80.284,1.503,403.455,175.445,-198.205,699.800,695.290,176.420
293,36144.932000,120.848,-149.964,-503.483,409.665,181.052,-184.101,-226.200,449.290,-100.580
294,36144.952000,318.150,-81.294,39.577,419.380,179.577,-175.181,-239.200,813.290,-419.580
295,36144.992000,454.289,27.771,-36.571,426.463,181.656,-163.175,1727.800,1312.290,-525.580
296,36145.33000,311.245,69.176,18.536,433.583,187.545,-139.129,501.800,1339.290,-455.580
297,36145.72000,330.975,68.166,-431.342,438.866,191.833,-140.959,733.800,8.290,-76.580
298,36145.118000,347.746,77.254,-363.209,429.907,172.246,-189.287,1704.800,-1894.710,-1.580
299,36145.159000,349.719,141.886,-273.033,404.030,108.651,-290.733,5110.800,-3043.710,0.420
300,36145.193000,307.299,130.777,-189.871,350.013,18.831,-368.295,4386.800,-3457.710,186.420
301,36145.212000,204.701,40.899,-110.716,304.057,-30.909,-408.783,3085.800,-3506.710,272.420
302,36145.253000,101.118,68.166,-94.685,239.606,-84.918,-446.489,1704.800,-3074.710,-61.580
303,36145.298000,107.037,75.235,3.507,184.916,-93.417,-469.779,245.800,-2576.710,-777.580
304,36145.332000,128.740,22.722,17.534,161.089,-106.764,-481.212,486.800,-1452.710,-1349.580
305,36145.372000,126.767,16.663,7.515,170.785,-126.524,-474.871,1584.800,77.290,-1734.580
306,36145.418000,149.457,55.037,-88.673,192.832,-143.502,-462.442,1224.800,835.290,-1862.580
307,36145.432000,221.472,106.540,-26.552,245.732,-124.954,-451.741,-87.200,1443.290,-2091.580
308,36145.477000,352.678,63.116,-13.526,305.728,-80.919,-429.267,-1126.200,2127.290,-2089.580
309,36145.512000,289.541,78.264,-449.378,363.991,-36.603,-396.859,-940.200,2468.290,-1675.580
310,36145.552000,511.507,-199.448,-325.135,386.052,-29.333,-385.630,1062.800,1654.290,-973.580
311,36145.592000,333.935,-105.531,-24.548,410.797,-13.883,-361.218,51.800,918.290,-770.580
312,36145.637000,326.042,-74.225,-19.538,424.055,9.816,-351.469,-832.200,539.290,-605.580
313,36145.677000,313.218,138.856,-82.661,428.502,36.953,-342.630,-908.200,268.290,-603.580
314,36145.696000,254.027,75.235,-36.571,426.753,38.800,-338.604,227.800,161.290,-238.580
315,36145.732000,258.960,36.860,-97.691,424.979,42.130,-343.467,-117.200,-196.710,-81.580
316,36145.773000,244.162,60.087,-109.714,421.456,39.551,-342.569,243.800,28.290,-117.580
317,36145.813000,216.540,46.959,-99.695,424.983,35.270,-340.710,438.800,151.290,-86.580
318,36145.853000,219.499,38.880,-102.701,426.757,36.252,-336.701,151.800,85.290,-24.580
319,36145.894000,229.364,36.860,-91.679,430.278,32.783,-336.802,11.800,115.290,-20.580
320,36145.914000,226.405,65.136,-68.634,432.930,38.049,-334.637,-17.200,26.290,57.420
321,36145.954000,244.162,56.047,-65.628,427.623,36.112,-341.667,-12.200,-146.710,184.420
322,36145.997000,256.000,54.028,-71.640,418.788,27.229,-348.935,56.800,-412.710,333.420
323,36146.32000,258.960,32.821,-75.648,417.881,14.907,-355.296,353.800,-404.710,361.420
324,36146.73000,275.730,69.176,-75.648,408.148,-0.166,-366.739,307.800,-680.710,531.420
325,36146.113000,325.056,23.732,-55.609,390.472,-19.697,-382.324,482.800,-848.710,713.420
326,36146.152000,326.042,21.712,-36.571,365.738,-45.366,-400.117,736.800,-1114.710,826.420
327,36146.178000,382.274,49.988,-13.526,341.905,-67.393,-411.831,791.800,-1384.710,1074.420
328,36146.227000,436.532,101.491,-78.654,303.064,-110.432,-430.233,1388.800,-1363.710,1430.420
329,36146.253000,311.245,104.521,-134.763,254.560,-134.242,-443.077,-134.200,-1360.710,1684.420
330,36146.298000,186.944,29.791,-142.779,213.985,-107.199,-467.154,-1804.200,-1104.710,1445.420
331,36146.333000,177.079,-4.544,-266.020,191.945,-68.606,-481.860,-2433.200,-737.710,1400.420
332,36146.379000,51.792,-50.998,-332.149,165.537,-13.271,-487.100,-2257.200,-490.710,1323.420
333,36146.393000,-29.102,-61.097,-203.898,153.223,16.204,-487.176,-925.200,-130.710,1007.420
334,36146.442000,0.493,-40.899,-108.712,154.131,25.950,-479.906,-453.200,357.290,956.420
335,36146.476000,4.439,-15.653,-55.609,166.468,19.967,-477.082,-69.200,838.290,861.420
336,36146.516000,-5.426,-36.860,-80.658,191.175,23.823,-463.969,-313.200,1320.290,657.420
337,36146.556000,22.197,-11.613,-94.685,228.240,39.142,-444.486,-613.200,1782.290,413.420
338,36146.596000,140.578,29.791,-101.699,272.388,60.851,-413.850,-1153.200,2190.290,163.420
339,36146.636000,201.742,-13.633,-115.726,318.338,94.155,-371.910,-1584.200,2315.290,33.420
340,36146.658000,186.944,-16.663,-165.824,338.720,118.620,-335.303,-1725.200,2312.290,25.420
341,36146.699000,199.769,10.604,-208.908,371.487,149.648,-281.563,-2106.200,2218.290,104.420
342,36146.733000,243.175,17.673,-209.910,395.468,184.340,-220.781,-3063.200,1691.290,258.420
343,36146.773000,292.501,-5.554,-222.935,407.981,205.947,-162.446,-2709.200,1150.290,408.420
344,36146.813000,260.933,27.771,-147.789,417.745,210.130,-137.454,-2171.200,705.290,253.420
345,36146.858000,292.501,33.830,-92.681,421.362,221.393,-107.287,-1519.200,694.290,-167.580
346,36146.878000,358.597,25.751,-141.777,423.223,237.024,-75.992,-1599.200,423.290,-270.580
347,36146.913000,324.069,24.742,-3.507,422.385,248.645,-63.701,-239.200,350.290,-480.580
348,36146.953000,353.665,-7.574,20.540,416.236,253.990,-58.583,607.800,484.290,-525.580
349,36146.999000,212.593,-2.525,-39.577,407.444,266.220,-55.235,-263.200,165.290,-573.580
350,36147.33000,258.960,62.107,-22.544,400.403,278.338,-55.857,328.800,397.290,-639.580
351,36147.78000,246.135,74.225,9.519,393.372,286.258,-51.651,-48.200,248.290,-495.580
352,36147.118000,237.256,91.393,8.517,386.333,290.649,-49.545,-271.200,50.290,-327.580
353,36147.138000,244.162,54.028,-13.526,388.122,299.527,-42.300,-112.200,51.290,-191.580
354,36147.176000,232.324,70.185,3.507,384.598,303.837,-43.165,-144.200,-70.710,-173.580
355,36147.216000,227.391,63.116,19.538,381.949,299.467,-44.308,-234.200,-215.710,-151.580
356,36147.256000,245.148,69.176,-5.511,376.666,306.379,-45.093,-353.200,-446.710,-89.580
357,36147.296000,244.162,48.978,-5.511,379.298,307.136,-49.032,-238.200,-511.710,-42.580
358,36147.336000,254.027,55.037,-28.556,375.747,304.276,-58.074,-122.200,-483.710,-52.580
359,36147.356000,258.960,40.899,-63.624,372.232,308.670,-55.956,-306.200,-200.710,-155.580
360,36147.396000,249.094,53.018,-43.585,372.241,313.066,-53.828,-129.200,75.290,-288.580
361,36147.434000,238.243,54.028,-26.552,367.848,314.911,-49.810,-365.200,156.290,-322.580
362,36147.474000,233.310,73.215,4.509,363.477,329.021,-41.422,-103.200,156.290,-333.580
363,36147.514000,233.310,92.402,27.554,357.303,331.536,-44.339,-54.200,-79.710,-247.580
364,36147.554000,238.243,79.274,-27.554,352.021,335.873,-44.215,-236.200,-280.710,-150.580
365,36147.593000,245.148,78.264,-32.564,350.246,333.155,-48.281,-50.200,-115.710,-164.580
366,36147.613000,242.189,73.215,-29.558,346.734,337.577,-45.170,-155.200,-43.710,-200.580
367,36147.658000,239.229,89.373,-22.544,343.216,346.254,-44.900,-166.200,-12.710,-229.580
368,36147.713000,231.337,93.412,-22.544,342.360,352.527,-37.748,-201.200,-18.710,-187.580
369,36147.739000,228.378,105.531,-2.505,339.725,352.609,-34.775,-229.200,-60.710,-143.580
370,36147.777000,232.324,93.412,-29.558,337.080,356.891,-36.630,-247.200,-156.710,-102.580
371,36147.817000,237.256,85.333,-33.566,335.330,354.426,-31.751,-272.200,-67.710,-126.580
372,36147.834000,234.297,106.540,-11.523,329.173,355.374,-28.761,-268.200,-19.710,-159.580
373,36147.877000,234.297,92.402,-23.546,327.446,360.023,-17.693,-464.200,-13.710,-162.580
374,36147.916000,235.283,93.412,-25.550,326.581,367.079,-13.495,-381.200,40.290,-206.580
375,36147.958000,233.310,92.402,-11.523,321.308,365.480,-8.598,-461.200,64.290,-234.580
376,36147.994000,228.378,103.511,3.507,316.049,366.598,0.358,-231.200,22.290,-211.580
377,36148.34000,254.027,101.491,-28.556,314.295,373.569,1.572,-48.200,66.290,-121.580
378,36148.77000,217.526,92.402,-19.538,311.655,377.907,1.704,51.800,149.290,-174.580
379,36148.99000,243.175,90.383,9.519,308.123,373.508,-0.436,173.800,102.290,-218.580
380,36148.139000,258.960,131.787,18.536,304.599,382.129,-2.154,222.800,-72.710,-75.580
381,36148.177000,342.813,167.132,34.568,304.583,375.072,-6.355,-20.200,-199.710,97.420
382,36148.219000,331.961,163.093,33.566,312.343,380.411,243.084,-95.200,-449.710,638.420
383,36148.258000,288.555,172.181,-181.855,327.461,357.588,-11.814,-1289.200,-1277.710,1222.420
384,36148.294000,263.892,138.856,-166.826,337.160,346.480,-6.185,-2149.200,-1666.710,887.420
385,36148.314000,181.025,79.274,12.524,343.297,336.711,-14.426,-840.200,-1308.710,329.420
386,36148.359000,76.455,63.116,3.507,345.030,335.563,-24.388,-261.200,-770.710,91.420
387,36148.399000,56.724,6.564,-34.568,344.147,341.582,-26.181,206.800,-229.710,-113.580
388,36148.437000,57.711,24.742,-36.571,338.841,343.957,-34.065,432.800,237.290,-295.580
389,36148.477000,87.306,13.633,-39.577,331.798,343.140,-32.128,303.800,499.290,-432.580
390,36148.517000,150.443,36.860,-89.675,330.051,351.035,-28.899,547.800,717.290,-508.580
391,36148.557000,210.620,15.653,-31.562,326.550,363.325,-23.546,760.800,1063.290,-377.580
392,36148.574000,135.645,79.274,-243.977,322.167,361.811,-15.666,682.800,1056.290,-260.580
393,36148.617000,332.948,308.513,-112.720,326.653,365.207,12.263,-2798.200,-117.710,47.420
394,36148.659000,511.507,312.552,521.519,332.863,358.747,28.954,-2093.200,-894.710,1493.420
395,36148.694000,-79.414,124.718,-139.773,338.965,351.216,7.876,1392.800,-239.710,243.420
396,36148.736000,214.566,62.107,-72.642,342.510,353.151,14.901,-503.200,-281.710,69.420
397,36148.781000,223.445,135.826,-63.624,342.480,354.578,4.025,1220.800,422.290,26.420
398,36148.796000,263.892,56.047,3.507,340.729,346.933,9.729,-318.200,174.290,15.420
399,36148.837000,244.162,110.580,-21.542,339.850,349.537,9.811,60.800,167.290,40.420
400,36148.878000,231.337,68.166,-16.532,341.613,351.274,9.873,353.800,264.290,-16.580
401,36148.921000,241.202,91.393,-0.501,340.711,348.472,2.828,600.800,165.290,-16.580
402,36148.957000,223.445,117.649,-20.540,343.353,351.918,1.955,121.800,-53.710,170.420
403,36149.2000,235.283,92.402,-34.568,346.865,347.496,-1.156,165.800,-0.710,253.420
404,36149.36000,244.162,74.225,-18.536,346.861,349.176,-3.088,43.800,56.290,245.420
405,36149.56000,242.189,85.333,-21.542,352.148,344.028,-1.252,142.800,75.290,246.420
406,36149.96000,240.216,77.254,-26.552,358.308,337.928,-2.423,150.800,129.290,253.420
407,36149.136000,237.256,84.323,-20.540,362.703,328.355,-3.712,183.800,158.290,275.420
408,36149.177000,241.202,68.166,-11.523,367.102,329.170,-5.658,177.800,125.290,288.420
409,36149.217000,239.229,69.176,-14.528,371.511,326.626,-3.740,93.800,3.290,291.420
410,36149.257000,242.189,71.195,-15.530,379.431,318.791,-4.962,113.800,-56.710,332.420
411,36149.277000,240.216,76.245,-11.523,383.801,310.701,-15.141,144.800,-161.710,376.420
412,36149.316000,248.108,47.968,1.503,383.791,301.125,-16.444,279.800,-224.710,391.420
413,36149.356000,238.243,90.383,23.546,391.674,292.056,-30.615,537.800,-466.710,490.420
414,36149.396000,316.177,72.205,-0.501,401.290,279.263,-53.838,352.800,-983.710,664.420
415,36149.436000,383.260,37.870,-12.524,404.732,268.117,-80.007,622.800,-1068.710,592.420
416,36149.481000,485.857,-15.653,57.613,401.104,253.297,-113.268,1460.800,-994.710,505.420
417,36149.519000,315.191,70.185,-8.517,402.786,232.687,-136.770,2128.800,-724.710,538.420
418,36149.538000,207.661,1.515,-265.018,396.511,220.412,-171.943,810.800,-1015.710,384.420
419,36149.577000,124.794,-44.939,-196.885,384.106,211.076,-195.125,1435.800,-603.710,5.420
420,36149.617000,46.859,-54.028,-124.744,384.903,193.012,-220.533,1893.800,-268.710,65.420
421,36149.657000,-16.277,-25.751,-39.577,383.104,181.445,-230.844,1062.800,0.290,74.420
422,36149.697000,-8.385,-100.481,49.597,388.402,178.118,-225.970,183.800,548.290,99.420
423,36149.742000,-53.765,-19.692,-62.622,404.356,187.711,-193.832,-918.200,1463.290,-37.580
424,36149.756000,511.507,1.515,-235.961,409.641,185.979,-193.871,-223.200,-546.710,283.420
425,36149.797000,329.002,79.274,173.840,406.146,194.013,-185.678,1086.800,441.290,-665.580
426,36149.838000,511.507,0.505,-25.550,414.097,190.801,-176.820,989.800,1018.290,-511.580
427,36149.878000,136.632,-21.712,-100.697,419.430,200.747,-162.578,1284.800,1314.290,-507.580
428,36149.921000,238.243,-1.515,-217.926,430.069,192.807,-136.984,74.800,1130.290,-110.580
429,36149.958000,201.742,241.862,-432.344,436.204,192.502,-147.897,1633.800,-113.710,181.420
430,36149.998000,329.988,28.781,-321.127,428.080,164.709,-210.390,2744.800,-1989.710,-73.580
431,36150.18000,329.988,113.609,-294.074,398.717,95.458,-297.136,5195.800,-2717.710,45.420
432,36150.67000,262.906,129.767,-190.873,357.945,15.421,-366.394,3727.800,-3083.710,203.420
433,36150.107000,171.160,134.817,-90.677,297.866,-37.186,-415.957,2293.800,-3120.710,90.420
434,36150.141000,122.821,47.968,-81.659,262.555,-58.607,-436.625,1077.800,-2433.710,-663.580
435,36150.181000,160.308,72.205,-53.605,234.301,-84.251,-453.436,1367.800,-1448.710,-1187.580
436,36150.219000,189.904,77.254,-53.605,230.753,-101.726,-457.986,1198.800,-698.710,-1382.580
437,36150.241000,205.688,63.116,-52.603,242.208,-106.001,-456.102,678.800,-34.710,-1533.580
438,36150.279000,221.472,58.067,3.507,258.960,-98.092,-452.813,507.800,480.290,-1665.580
439,36150.321000,250.081,32.821,146.787,295.124,-82.972,-440.290,-152.200,1350.290,-1615.580
440,36150.359000,511.507,-188.339,-360.204,335.715,-46.092,-425.062,-1114.200,956.290,-1970.580
441,36150.399000,296.447,-81.294,186.865,370.135,-48.023,-402.175,735.800,1375.290,-1298.580
442,36150.438000,285.595,61.097,-36.571,383.384,-28.721,-394.556,-2161.200,402.290,-684.580
443,36150.478000,339.854,229.744,-17.534,386.075,25.182,-389.819,-1758.200,142.290,-701.580
444,36150.498000,325.056,-91.393,-85.667,382.552,37.247,-392.418,-7.200,-209.710,-91.580
445,36150.537000,212.593,48.978,-190.873,380.776,41.416,-398.246,-312.200,-158.710,-84.580
446,36150.577000,222.459,42.919,-141.777,379.021,39.764,-395.326,-3.200,250.290,-86.580
447,36150.617000,226.405,53.018,-106.708,381.672,43.294,-393.217,-245.200,109.290,-40.580
448,36150.657000,218.513,50.998,-140.775,381.675,42.454,-392.251,51.800,116.290,67.420
449,36150.697000,228.378,32.821,-127.750,386.969,39.099,-388.371,52.800,265.290,45.420
450,36150.717000,212.593,43.929,-96.689,393.158,41.904,-381.310,-89.200,236.290,48.420
451,36150.757000,222.459,57.057,-81.659,394.032,44.424,-384.204,26.800,18.290,116.420
452,36150.797000,229.364,49.988,-83.663,393.143,41.763,-386.279,127.800,-233.710,205.420
453,36150.843000,249.094,43.929,-107.710,386.070,37.193,-394.394,152.800,-382.710,295.420
454,36150.877000,272.771,49.988,-105.706,376.351,21.393,-400.896,218.800,-491.710,401.420
455,36150.922000,334.921,66.146,-64.626,367.510,5.565,-408.389,419.800,-789.710,507.420
456,36150.957000,444.424,53.018,-20.540,343.654,-13.243,-428.935,516.800,-1210.710,647.420
457,36150.977000,511.507,62.107,18.536,309.217,-48.524,-449.057,1655.800,-1367.710,672.420
458,36151.17000,383.260,63.116,-69.636,273.929,-115.385,-451.340,2978.800,-1158.710,872.420
459,36151.63000,262.906,75.235,-199.890,241.311,-135.457,-455.075,483.800,-1403.710,1027.420
460,36151.97000,135.645,9.594,-160.814,198.984,-125.551,-471.770,-1183.200,-996.710,994.420
461,36151.137000,32.062,-62.107,-229.949,160.210,-80.894,-486.333,-1980.200,-687.710,931.420
462,36151.177000,9.372,-69.176,-213.918,146.139,-40.165,-487.042,-1967.200,60.290,780.420
463,36151.198000,15.291,-40.899,-47.593,160.265,-7.114,-483.939,-1372.200,927.290,734.420
464,36151.238000,69.549,2.525,-34.568,188.498,12.284,-473.289,-816.200,1857.290,766.420
465,36151.279000,63.630,22.722,-99.695,236.144,25.119,-449.881,-691.200,2479.290,612.420
466,36151.319000,80.401,24.742,-80.658,288.260,46.360,-405.333,-1089.200,2889.290,361.420
467,36151.359000,102.104,20.702,-90.677,347.470,80.124,-347.447,-1359.200,3283.290,93.420
468,36151.399000,142.551,38.880,-155.804,378.447,103.114,-301.917,-2222.200,3033.290,85.420
469,36151.439000,183.985,33.830,-212.916,408.646,146.073,-224.959,-4051.200,2419.290,244.420
470,36151.459000,311.245,115.629,-243.977,423.906,191.123,-135.072,-5682.200,1956.290,472.420
471,36151.498000,317.164,91.393,-482.442,437.378,207.471,-48.108,-6979.200,642.290,633.420
472,36151.538000,374.382,-82.304,-23.546,438.317,208.903,-28.199,-2340.200,-286.710,206.420
473,36151.581000,370.435,-6.564,228.947,433.011,216.458,-36.908,1345.800,153.290,-715.580
474,36151.622000,286.582,166.122,56.611,429.449,222.109,-51.631,12.800,-715.710,-265.580
475,36151.661000,258.960,-67.156,-31.562,425.026,227.956,-59.399,-1062.200,-948.710,-0.580
476,36151.701000,177.079,32.821,-106.708,421.504,229.689,-59.354,-912.200,-463.710,-77.580
477,36151.721000,188.917,-42.919,-214.920,420.636,228.962,-54.416,-1032.200,50.290,-422.580
478,36151.761000,301.380,-53.018,-57.613,418.034,242.290,-43.069,170.800,559.290,-519.580
479,36151.798000,351.692,23.732,0.501,408.399,262.641,-28.537,-553.200,477.290,-599.580
480,36151.843000,243.175,37.870,-8.517,399.610,271.455,-23.314,181.800,517.290,-732.580
481,36151.883000,244.162,63.116,3.507,391.701,283.714,-18.970,123.800,409.290,-575.580
482,36151.923000,248.108,53.018,1.503,383.787,295.049,-16.642,312.800,328.290,-528.580
483,36151.943000,246.135,38.880,5.511,378.500,297.621,-17.568,112.800,-42.710,-291.580
484,36151.982000,236.270,74.225,-18.536,374.959,297.449,-23.543,317.800,-29.710,-154.580
485,36152.23000,224.432,57.057,-20.540,376.726,306.970,-24.221,354.800,122.290,-128.580
486,36152.61000,228.378,87.353,0.501,374.076,309.488,-27.127,-245.200,-49.710,-152.580
487,36152.101000,251.067,48.978,-0.501,372.328,308.759,-22.191,-176.200,-167.710,-64.580
488,36152.141000,249.094,44.939,7.515,374.068,310.271,-30.081,15.800,-388.710,42.420
489,36152.181000,242.189,72.205,-15.530,374.927,307.471,-37.120,-74.200,-464.710,114.420
490,36152.201000,221.472,95.432,-27.554,376.672,303.859,-42.196,-27.200,-349.710,126.420
491,36152.241000,253.040,77.254,-39.577,375.803,304.839,-38.195,-822.200,-334.710,-16.580
492,36152.281000,269.811,10.604,-50.599,377.593,299.942,-27.425,-848.200,-205.710,-66.580
493,36152.321000,256.000,30.801,-55.609,371.456,305.399,-18.331,-745.200,-45.710,-110.580
494,36152.363000,256.987,7.574,-8.517,368.819,309.766,-17.205,-248.200,151.290,-239.580
495,36152.401000,230.351,110.580,16.532,364.423,309.847,-14.237,-3.200,27.290,-283.580
496,36152.421000,234.297,40.899,0.501,360.015,314.127,-16.099,-98.200,-186.710,-227.580
497,36152.461000,244.162,110.580,-23.546,357.373,322.749,-17.813,-142.200,-434.710,-217.580
498,36152.501000,248.108,52.008,-52.603,357.360,320.032,-21.873,-251.200,-367.710,-77.580
499,36152.539000,264.879,26.761,-56.611,350.315,323.499,-21.784,-209.200,-172.710,-184.580
500,36152.578000,233.310,89.373,-44.587,354.727,329.607,-20.578,-200.200,-156.710,-186.580
501,36152.624000,222.459,85.333,-25.550,350.324,332.207,-20.508,-181.200,-190.710,-111.580
502,36152.666000,233.310,87.353,-44.587,350.309,334.642,-26.387,-101.200,-292.710,-15.580
503,36152.678000,239.229,77.254,-41.581,348.550,338.113,-26.280,-191.200,-243.710,-23.580
504,36152.718000,242.189,69.176,-53.605,350.306,331.170,-26.500,-148.200,-165.710,-14.580
505,36152.759000,237.256,89.373,-42.583,345.905,328.619,-24.611,-195.200,-135.710,-52.580
506,36152.801000,230.351,91.393,-36.571,345.017,333.714,-28.420,-141.200,-209.710,12.420
507,36152.846000,247.121,68.166,-60.618,346.784,336.348,-27.336,-111.200,-161.710,-51.580
508,36152.881000,223.445,110.580,-27.554,345.903,336.347,-27.339,15.800,-172.710,-18.580
509,36152.899000,211.607,96.442,-45.589,345.026,334.667,-25.410,-413.200,-270.710,-1.580
510,36152.943000,261.919,44.939,-83.663,343.267,338.137,-25.303,-183.200,-47.710,-104.580
511,36152.981000,234.297,63.116,-30.560,342.383,333.797,-25.447,-8.200,54.290,-160.580
512,36153.24000,254.027,75.235,-43.585,337.976,338.945,-27.280,-45.200,-78.710,-207.580
513,36153.62000,300.393,92.402,-39.577,334.458,343.311,-26.156,169.800,21.290,-205.580
514,36153.99000,412.855,240.852,20.540,335.314,339.614,-34.218,74.800,-201.710,267.420
515,36153.139000,417.788,210.556,43.585,336.184,336.926,-37.281,608.800,81.290,395.420
516,36153.159000,189.904,77.254,-221.933,344.928,327.661,-58.406,814.800,-452.710,715.420
517,36153.204000,174.119,68.166,-101.699,348.421,321.334,-67.537,-868.200,-997.710,394.420
518,36153.244000,57.711,44.939,-15.530,349.302,321.335,-67.535,-1499.200,-1097.710,362.420
519,36153.284000,61.657,-40.899,-13.526,348.461,317.417,-52.770,-1762.200,-740.710,-69.580
520,36153.328000,88.293,-55.037,-17.534,351.139,322.936,-41.659,-477.200,416.290,-51.580
521,36153.362000,127.753,-17.673,-77.652,352.062,326.803,-27.629,387.800,889.290,74.420
522,36153.381000,151.430,-4.544,-75.648,354.719,322.634,-21.797,737.800,980.290,11.420
523,36153.426000,132.686,92.402,-403.288,357.385,319.418,-12.956,336.800,455.290,-139.580
524,36153.459000,479.938,516.544,284.055,351.281,327.789,7.155,-2499.200,184.290,-568.580
525,36153.499000,511.507,-374.154,103.703,356.562,321.717,6.975,2572.800,54.290,421.420
526,36153.539000,52.778,178.241,-99.695,356.556,321.660,4.988,-957.200,-221.710,8.420
527,36153.581000,278.690,26.761,-91.679,353.053,326.167,11.080,-32.200,398.290,-82.580
528,36153.622000,223.445,118.659,-40.579,353.944,328.856,14.150,-177.200,551.290,-81.580
529,36153.643000,260.933,34.840,-3.507,351.344,329.276,29.050,-302.200,419.290,-143.580
530,36153.683000,218.513,108.560,-20.540,346.951,330.254,33.039,297.800,358.290,-127.580
531,36153.719000,231.337,99.471,-25.550,347.842,336.387,35.227,170.800,251.290,-6.580
532,36153.762000,227.391,112.600,-21.542,346.950,328.518,32.983,202.800,186.290,71.420
533,36153.806000,242.189,82.304,-30.560,349.600,330.312,35.036,27.800,154.290,120.420
534,36153.839000,241.202,99.471,-24.548,351.365,326.898,36.917,277.800,242.290,133.420
535,36153.859000,231.337,92.402,1.503,354.884,328.580,34.996,232.800,197.290,212.420
536,36153.899000,233.310,83.314,-12.524,357.523,326.818,33.955,240.800,89.290,273.420
537,36153.941000,230.351,73.215,-13.526,361.912,320.632,29.796,350.800,14.290,326.420
538,36153.981000,244.162,84.323,-15.530,365.412,311.786,23.562,274.800,-95.710,349.420
539,36154.21000,229.364,54.028,-27.554,368.911,301.203,17.272,238.800,-117.710,362.420
540,36154.61000,242.189,67.156,7.515,379.464,298.438,11.258,353.800,-228.710,366.420
541,36154.108000,245.148,67.156,-1.503,382.077,296.422,1.271,365.800,-464.710,400.420
542,36154.124000,236.270,67.156,-2.505,389.949,284.665,-15.966,328.800,-843.710,552.420
543,36154.166000,299.407,126.738,-2.505,398.672,271.759,-43.167,487.800,-1233.710,748.420
544,36154.207000,439.491,11.613,-7.515,403.859,256.134,-74.440,805.800,-1191.710,609.420
545,36154.247000,498.682,0.505,22.544,401.128,244.059,-102.645,1218.800,-1222.710,523.420
546,36154.281000,420.748,36.860,23.546,399.262,221.485,-134.166,1960.800,-634.710,476.420
547,36154.321000,116.902,44.939,-277.041,391.236,208.454,-165.397,1213.800,-829.710,240.420
548,36154.341000,51.792,-69.176,-269.025,385.888,203.518,-186.427,1120.800,-421.710,-96.580
549,36154.381000,-2.466,-21.712,-69.636,387.600,190.105,-200.759,1563.800,-53.710,-137.580
550,36154.421000,-8.385,-126.738,-29.558,385.832,184.868,-201.928,755.800,174.290,-58.580
551,36154.462000,-45.873,4.544,15.530,395.543,182.496,-194.030,251.800,1023.290,42.420
552,36154.502000,-111.969,20.702,-265.018,399.179,199.977,-158.696,-2497.200,895.290,-285.580
553,36154.542000,511.507,-123.708,24.548,403.624,201.242,-144.739,-474.200,-437.710,538.420
554,36154.583000,511.507,155.014,80.658,405.379,208.075,-148.483,907.800,958.290,-725.580
555,36154.603000,306.312,-46.959,-4.509,409.828,217.124,-135.267,625.800,908.290,-277.580
556,36154.643000,272.771,25.751,-89.675,414.276,218.418,-120.316,22.800,880.290,-117.580
557,36154.683000,230.351,-3.535,-97.691,417.851,223.239,-103.267,712.800,1268.290,-173.580
558,36154.723000,175.106,17.673,-219.930,421.394,219.127,-95.445,979.800,844.290,-26.580
559,36154.767000,243.175,152.994,-390.262,425.755,209.216,-108.661,2123.800,-6.710,34.420
560,36154.807000,287.568,108.560,-322.129,422.009,179.438,-180.142,3698.800,-1943.710,65.420
561,36154.847000,324.069,121.688,-253.996,403.196,115.149,-275.630,5011.800,-2691.710,38.420
562,36154.861000,317.164,112.600,-236.963,358.874,33.988,-353.873,4349.800,-3200.710,166.420
563,36154.907000,244.162,128.757,-173.840,323.491,-15.716,-393.332,3185.800,-3338.710,125.420
564,36154.942000,148.470,96.442,-138.771,258.142,-66.451,-437.887,1664.800,-3296.710,-192.580
565,36154.982000,147.484,108.560,-64.626,199.897,-89.906,-468.624,589.800,-2748.710,-958.580
566,36155.21000,146.497,35.850,-16.532,163.733,-93.827,-483.762,733.800,-1778.710,-1390.580
567,36155.62000,121.834,21.712,-6.513,168.117,-125.912,-483.796,1538.800,-547.710,-1601.580
568,36155.82000,126.767,66.146,-15.530,191.916,-145.577,-474.428,1285.800,600.290,-1890.580
569,36155.126000,205.688,81.294,64.626,241.295,-130.447,-461.863,147.800,1346.290,-2196.580
570,36155.161000,336.894,56.047,65.628,317.146,-96.759,-437.688,-215.200,2180.290,-2394.580
571,36155.201000,511.507,-278.217,42.583,348.900,-58.432,-432.371,615.800,946.290,-1509.580
572,36155.242000,382.274,-97.452,-7.515,387.749,-51.511,-403.225,578.800,861.290,-1086.580
573,36155.282000,442.451,-71.195,-40.579,406.307,-3.532,-393.665,-2222.200,556.290,-841.580
574,36155.322000,383.260,142.895,-83.663,414.278,22.739,-384.843,-819.200,460.290,-681.580
575,36155.342000,260.933,49.988,-77.652,416.943,25.542,-377.792,302.800,239.290,-416.580
576,36155.397000,207.661,19.692,-153.800,416.959,36.043,-374.473,-138.200,43.290,-237.580
577,36155.423000,220.486,77.254,-116.728,422.268,41.452,-367.329,52.800,400.290,-247.580
578,36155.463000,247.121,64.126,-107.710,429.332,44.202,-362.252,-190.200,413.290,-162.580
579,36155.503000,225.418,52.008,-79.656,437.298,52.329,-351.040,-85.200,319.290,-23.580
580,36155.543000,227.391,61.097,-71.640,435.530,47.960,-352.181,-70.200,66.290,63.420
581,36155.563000,218.513,35.850,-85.667,432.004,41.910,-351.395,47.800,-76.710,111.420
582,36155.603000,225.418,61.097,-92.681,430.235,47.004,-355.208,16.800,-191.710,166.420
583,36155.643000,227.391,50.998,-86.669,430.212,39.023,-361.425,143.800,-254.710,227.420
584,36155.683000,242.189,64.126,-70.638,424.019,34.453,-369.537,133.800,-478.710,344.420
585,36155.723000,274.744,47.968,-75.648,415.164,18.484,-381.999,325.800,-819.710,549.420
586,36155.763000,402.990,75.235,-62.622,397.482,2.341,-400.453,309.800,-1051.710,835.420
587,36155.802000,453.303,35.850,0.501,360.384,-38.290,-425.722,905.800,-1456.710,895.420
588,36155.822000,511.507,70.185,46.591,332.135,-71.633,-438.811,1646.800,-1659.710,1241.420
589,36155.867000,388.193,159.053,-53.605,287.148,-123.943,-447.603,1907.800,-1183.710,1521.420
590,36155.908000,218.513,66.146,-201.894,240.411,-145.119,-459.363,-328.200,-1127.710,1563.420
591,36155.948000,148.470,8.584,-85.667,201.617,-112.726,-478.296,-1878.200,-474.710,1257.420
592,36155.982000,69.549,-8.584,-223.937,191.058,-79.863,-481.236,-1803.200,157.290,1187.420
593,36156.23000,19.237,1.515,-177.847,191.093,-44.190,-477.099,-2125.200,643.290,1094.420
594,36156.43000,4.439,-18.682,-137.769,203.487,15.012,-469.180,-2206.200,1105.290,988.420
595,36156.88000,68.563,-2.525,-82.661,234.417,53.902,-443.987,-2102.200,1607.290,1079.420
596,36156.128000,97.171,8.584,-86.669,279.458,79.168,-410.254,-1601.200,2174.290,1051.420
597,36156.168000,103.091,32.821,-157.808,311.269,96.529,-379.799,-1459.200,2438.290,837.420
598,36156.202000,131.699,35.850,-194.881,351.080,121.486,-326.234,-1605.200,2510.290,617.420
599,36156.242000,166.227,56.047,-194.881,382.988,146.692,-263.748,-2126.200,2370.290,403.420
600,36156.289000,245.148,46.959,-199.890,408.737,181.441,-200.972,-2923.200,1849.290,285.420
601,36156.303000,239.229,39.890,-214.920,410.618,190.381,-160.957,-2917.200,1381.290,261.420
602,36156.342000,253.040,31.811,-195.883,416.938,206.550,-110.762,-2911.200,872.290,147.420
603,36156.382000,270.798,34.840,-142.779,416.155,213.555,-77.769,-1898.200,447.290,-37.580
604,36156.422000,264.879,33.830,-120.736,419.751,226.329,-55.497,-1201.200,294.290,-220.580
605,36156.462000,253.040,11.613,-146.787,421.539,227.452,-46.518,-620.200,64.290,-313.580
606,36156.502000,356.624,-63.116,87.671,418.904,234.422,-45.307,633.800,389.290,-323.580
607,36156.522000,320.123,87.353,13.526,412.751,244.890,-43.001,471.800,282.290,-303.580
608,36156.562000,232.324,0.505,-16.532,406.596,257.933,-41.605,-460.200,-196.710,-422.580
609,36156.602000,223.445,-2.525,-78.654,397.781,257.003,-43.649,235.800,110.290,-397.580
610,36156.642000,246.135,36.860,-32.564,396.030,261.426,-40.532,76.800,258.290,-395.580
611,36156.682000,273.757,35.850,8.517,391.659,272.092,-31.263,-306.200,166.290,-479.580
612,36156.724000,230.351,90.383,-16.532,388.152,286.902,-28.808,-550.200,-53.710,-386.580
613,36156.764000,241.202,64.126,20.540,384.639,290.456,-25.725,-266.200,-91.710,-238.580
614,36156.786000,240.216,84.323,15.530,379.365,294.876,-22.619,-552.200,-385.710,-225.580
615,36156.829000,264.879,18.682,-33.566,377.590,296.470,-27.538,101.800,-218.710,-169.580
616,36156.866000,244.162,58.067,-14.528,374.055,300.667,-32.378,62.800,-194.710,-176.580
617,36156.906000,245.148,56.047,-16.532,370.507,294.391,-39.544,202.800,-194.710,-240.580
618,36156.946000,237.256,92.402,-48.595,367.866,308.193,-42.084,-40.200,-230.710,-240.580
619,36156.984000,256.987,20.702,-39.577,365.229,312.559,-40.958,-246.200,-76.710,-204.580
620,36157.4000,243.175,59.077,-17.534,359.077,316.139,-36.889,37.800,54.290,-349.580
621,36157.44000,238.243,74.225,-13.526,352.033,322.210,-36.715,-69.200,-17.710,-337.580
622,36157.84000,229.364,75.235,-10.521,347.612,322.038,-42.692,10.800,-74.710,-255.580
623,36157.124000,236.270,93.412,-20.540,343.201,321.110,-44.723,-33.200,-252.710,-196.580
624,36157.164000,238.243,80.284,-27.554,342.317,328.837,-47.454,-157.200,-350.710,-165.580
625,36157.206000,243.175,79.274,-40.579,342.324,330.629,-45.410,-210.200,-315.710,-145.580
626,36157.246000,238.243,96.442,-47.593,336.146,331.380,-49.377,-295.200,-197.710,-165.580
627,36157.264000,239.229,80.284,-33.566,335.292,340.257,-42.141,-347.200,-149.710,-135.580
628,36157.304000,238.243,92.402,-38.575,330.013,337.733,-39.261,-280.200,-113.710,-159.580
629,36157.348000,259.946,62.107,-42.583,324.745,346.522,-35.020,-426.200,6.290,-211.580
630,36157.384000,240.216,108.560,-25.550,322.125,346.746,-27.077,-697.200,-121.710,-190.580
631,36157.429000,280.663,84.323,20.540,325.674,342.690,-17.268,-1836.200,-884.710,405.420
632,36157.464000,351.692,-89.373,148.791,349.537,321.069,14.876,-4343.200,-1641.710,1763.420
633,36157.484000,201.742,38.880,38.575,388.487,255.759,96.293,-8673.200,-1873.710,2574.420
634,36157.523000,170.173,194.398,8.517,415.901,167.197,153.086,-7014.200,-919.710,1990.420
635,36157.563000,168.200,280.237,9.519,422.959,124.225,166.609,-3502.200,-314.710,1049.420
636,36157.606000,270.798,205.507,-10.521,425.604,107.876,171.052,-74.200,214.290,177.420
637,36157.644000,270.798,-32.821,4.509,421.198,107.005,171.010,716.800,131.290,217.420
638,36157.687000,315.191,82.304,25.550,424.709,108.602,166.108,-101.200,-151.710,30.420
639,36157.723000,348.732,50.998,-18.536,424.726,116.527,170.337,857.800,131.290,7.420
640,36157.743000,400.031,69.176,75.648,424.728,122.575,169.540,475.800,198.290,225.420
641,36157.786000,316.177,65.136,4.509,428.249,125.993,167.676,795.800,-84.710,232.420
642,36157.826000,238.243,30.801,-223.937,429.961,128.091,149.876,652.800,-610.710,11.420
643,36157.864000,155.376,50.998,-55.609,434.320,153.487,127.875,890.800,-802.710,-506.580
644,36157.908000,66.590,1.515,13.526,434.282,166.896,111.430,1428.800,-562.710,-725.580
645,36157.952000,53.765,-13.633,2.505,429.843,189.821,94.285,1513.800,-94.710,-828.580
646,36157.966000,68.563,37.870,-59.616,421.011,211.989,81.075,1142.800,144.290,-795.580
647,36158.3000,128.740,81.294,-56.611,413.120,239.928,87.914,-227.200,91.290,-1137.580
648,36158.44000,206.674,-33.830,9.519,403.447,252.157,91.259,32.800,444.290,-939.580
649,36158.84000,329.002,64.126,-21.542,396.403,269.428,88.818,904.800,540.290,-607.580
650,36158.124000,511.507,455.953,521.519,392.028,267.130,99.652,-124.200,878.290,459.420
651,36158.166000,89.279,37.870,-144.783,398.192,255.907,101.293,-1558.200,-936.710,239.420
652,36158.211000,253.040,89.373,-74.646,405.229,253.224,98.250,99.800,136.290,-38.580
653,36158.226000,254.027,120.679,-33.566,399.063,265.287,95.643,601.800,294.290,-66.580
654,36158.266000,256.987,13.633,2.505,398.215,263.888,107.510,-629.200,49.290,-215.580
655,36158.306000,219.499,110.580,-43.585,392.930,265.620,107.550,547.800,226.290,-191.580
656,36158.347000,241.202,114.619,-18.536,390.291,269.958,107.682,176.800,158.290,-58.580
657,36158.389000,238.243,97.452,-18.536,390.291,269.958,107.682,188.800,62.290,-14.580
658,36158.426000,250.081,56.047,-12.524,391.170,268.223,107.628,154.800,65.290,12.420
659,36158.448000,231.337,82.304,-17.534,389.390,273.204,99.840,678.800,120.290,4.420
660,36158.489000,224.432,122.698,-29.558,390.263,270.545,97.771,120.800,-84.710,187.420
661,36158.529000,236.270,67.156,2.505,395.530,268.643,91.768,191.800,-213.710,334.420
662,36158.569000,250.081,69.176,-45.589,400.787,264.054,82.699,217.800,-306.710,289.420
663,36158.609000,241.202,65.136,-33.566,405.161,252.548,74.396,359.800,-271.710,317.420
664,36158.649000,238.243,74.225,-23.546,409.525,247.845,61.348,265.800,-457.710,380.420
665,36158.688000,243.175,15.653,-44.587,418.312,246.758,53.397,442.800,-416.710,339.420
666,36158.709000,233.310,52.008,-51.601,421.783,244.517,35.462,601.800,-504.710,214.420
667,36158.744000,241.202,29.791,-67.632,425.257,238.861,19.402,694.800,-571.710,245.420
668,36158.784000,239.229,60.087,-34.568,431.338,229.397,-8.690,957.800,-671.710,435.420
669,36158.831000,331.961,109.570,-113.722,433.048,215.956,-24.015,594.800,-908.710,444.420
670,36158.864000,231.337,-3.535,-152.798,433.858,208.365,-47.098,842.800,-460.710,440.420
671,36158.904000,243.175,-41.909,-119.734,440.002,200.388,-53.295,621.800,12.290,270.420
672,36158.926000,268.825,-21.712,-110.716,438.230,195.123,-55.457,431.800,243.290,176.420
673,36158.966000,283.622,13.633,-88.673,439.995,190.840,-53.605,788.800,464.290,41.420
674,36159.6000,243.175,87.353,-107.710,442.643,194.342,-52.489,1504.800,602.290,-131.580
675,36159.44000,173.133,180.260,-174.841,438.220,203.634,-61.139,3263.800,796.290,-679.580
676,36159.84000,163.268,207.527,-379.241,429.285,206.700,-105.753,5243.800,158.290,-1243.580
677,36159.124000,230.351,152.994,-418.317,409.603,184.744,-206.820,6955.800,-1793.710,-1367.580
678,36159.181000,281.649,96.442,-386.254,387.322,138.235,-286.847,5786.800,-3207.710,-698.580
679,36159.196000,157.349,200.458,-207.906,322.715,86.989,-380.072,2405.800,-4070.710,-740.580
680,36159.246000,106.050,24.742,-110.716,243.240,67.825,-442.514,1574.800,-3641.710,-1620.580
681,36159.276000,164.254,-3.535,-116.728,179.664,24.960,-484.822,2584.800,-2727.710,-1706.580
682,36159.311000,175.106,-15.653,-146.787,147.883,-18.801,-498.259,2926.800,-2050.710,-1465.580
683,36159.351000,180.039,57.057,-118.732,120.521,-85.685,-501.510,2631.800,-1234.710,-1691.580
684,36159.391000,209.634,77.254,-76.650,118.742,-139.277,-495.311,2215.800,-628.710,-1836.580
685,36159.411000,228.378,89.373,-59.616,137.241,-172.022,-488.371,1598.800,-62.710,-1903.580
686,36159.451000,220.486,84.323,-31.562,166.327,-183.060,-480.692,748.800,514.290,-1843.580
687,36159.491000,262.906,4.544,-69.636,194.532,-182.031,-475.603,228.800,851.290,-1662.580
688,36159.531000,257.973,59.077,-28.556,237.731,-164.442,-467.943,-105.200,1172.290,-1479.580
689,36159.571000,253.040,64.126,-26.552,286.246,-110.365,-458.089,-1483.200,1425.290,-1786.580
690,36159.611000,288.555,-199.448,-503.483,325.064,-95.998,-441.610,303.800,1142.290,-1492.580
691,36159.649000,153.403,-66.146,-37.573,345.355,-121.545,-425.493,2022.800,791.290,-980.580
692,36159.674000,170.173,15.653,-117.730,359.482,-112.601,-416.221,-475.200,466.290,-413.580
693,36159.707000,169.187,43.929,-127.750,379.774,-68.346,-415.713,-1863.200,484.290,-427.580
694,36159.748000,197.796,-48.978,-171.836,409.802,-50.345,-393.187,-32.200,1398.290,-625.580
695,36159.788000,258.960,23.732,-49.597,432.782,-47.860,-367.215,1380.800,1507.290,-844.580
696,36159.828000,511.507,178.241,214.920,451.332,-52.519,-348.439,370.800,415.290,18.420
697,36159.868000,153.403,17.673,-117.730,439.855,-20.890,-364.331,-1605.200,-742.710,91.420
698,36159.888000,227.391,4.544,-190.873,438.957,-25.372,-369.444,385.800,-80.710,-30.580
699,36159.928000,207.661,-29.791,-175.843,442.491,-26.993,-365.513,115.800,432.290,-273.580
700,36159.968000,171.160,2.525,-78.654,446.937,-9.348,-354.997,-596.200,342.290,-394.580
701,36160.8000,262.906,48.978,-68.634,454.881,3.734,-352.561,-145.200,191.290,-391.580
702,36160.48000,232.324,88.363,-85.667,453.123,5.497,-351.516,22.800,-35.710,-196.580
703,36160.88000,240.216,64.126,-108.712,453.114,4.545,-354.526,7.800,-90.710,69.420
704,36160.128000,241.202,21.712,-108.712,450.470,7.119,-355.444,162.800,27.290,88.420
705,36160.148000,210.620,36.860,-108.712,448.711,3.702,-353.574,-13.200,-62.710,120.420
706,36160.189000,223.445,30.801,-108.712,446.940,1.880,-356.618,89.800,-91.710,156.420
707,36160.231000,234.297,45.949,-104.704,445.173,-4.197,-356.821,82.800,-148.710,223.420
708,36160.271000,261.919,38.880,-93.683,444.263,-17.415,-364.204,210.800,-172.710,321.420
709,36160.311000,257.973,41.909,-78.654,438.070,-28.873,-370.553,95.800,-455.710,436.420
710,36160.351000,311.245,48.978,-70.638,423.937,-38.741,-381.842,272.800,-708.710,551.420
711,36160.366000,336.894,38.880,-81.659,400.976,-60.852,-396.535,532.800,-978.710,601.420
712,36160.406000,315.191,58.067,-52.603,378.007,-79.604,-415.091,948.800,-1141.710,680.420
713,36160.454000,361.557,62.107,-65.628,341.805,-118.357,-435.331,969.800,-1426.710,945.420
714,36160.488000,387.206,52.008,-55.609,288.874,-142.395,-456.141,10.800,-1686.710,1318.420
715,36160.531000,287.568,3.535,-95.687,235.958,-149.913,-475.421,-540.200,-1326.710,1565.420
716,36160.578000,108.023,89.373,-62.622,198.927,-145.070,-487.298,-985.200,-624.710,1804.420
717,36160.612000,122.821,86.343,-168.830,173.378,-105.470,-497.018,-3689.200,-416.710,1672.420
718,36160.632000,200.755,-0.505,-69.636,169.896,-18.898,-502.164,-3570.200,651.290,1573.420
719,36160.672000,270.798,3.535,-118.732,200.809,12.936,-481.172,-1500.200,1653.290,1839.420
720,36160.711000,198.782,73.215,-202.896,240.519,16.216,-458.100,-604.200,2072.290,1834.420
721,36160.751000,164.254,74.225,-200.892,265.259,30.742,-435.703,-1830.200,2065.290,1498.420
722,36160.788000,81.387,54.028,-239.969,302.394,64.852,-395.751,-2783.200,1940.290,1234.420
723,36160.828000,17.264,28.781,-253.996,328.991,124.266,-350.046,-3546.200,1566.290,1149.420
724,36160.848000,55.738,-15.653,-196.885,357.371,167.528,-292.944,-3317.200,1548.290,1038.420
725,36160.888000,54.751,-9.594,-194.881,376.844,184.823,-264.516,-2059.200,1723.290,928.420
726,36160.928000,89.279,36.860,-197.886,396.386,184.707,-207.857,-1439.200,1882.290,604.420
727,36160.968000,186.944,110.580,-171.836,411.534,199.343,-150.733,-2307.200,1770.290,267.420
728,36161.9000,127.753,161.073,-503.483,420.535,209.860,-85.818,-3104.200,1669.290,-8.580
729,36161.49000,341.827,243.882,350.184,428.528,217.402,-64.695,-32.200,790.290,-674.580
730,36161.88000,511.507,57.057,274.035,426.796,230.618,-57.321,396.800,392.290,-153.580
731,36161.108000,95.198,-122.698,-75.648,417.132,240.356,-50.085,-915.200,-199.710,-565.580
732,36161.147000,313.218,-23.732,-87.671,412.740,253.401,-48.683,178.800,227.290,-553.580
733,36161.187000,239.229,102.501,-17.534,404.830,266.499,-45.304,303.800,357.290,-548.580
734,36161.227000,253.040,25.751,-28.556,399.571,268.485,-36.320,-400.200,147.290,-359.580
735,36161.267000,249.094,37.870,-3.507,399.583,273.778,-33.169,-25.200,170.290,-357.580
736,36161.307000,250.081,59.077,-10.521,388.137,281.581,-32.952,41.800,118.290,-380.580
737,36161.347000,235.283,55.037,-18.536,388.159,288.694,-26.764,-96.200,45.290,-271.580
738,36161.372000,240.216,73.215,5.511,387.276,298.157,-29.438,-80.200,-42.710,-174.580
739,36161.409000,235.283,57.057,-23.546,382.882,300.842,-26.386,-104.200,-94.710,-164.580
740,36161.449000,235.283,70.185,-12.524,381.982,294.625,-31.556,26.800,-153.710,-25.580
741,36161.489000,238.243,55.037,-26.552,382.862,300.645,-33.344,-382.200,-276.710,-39.580
742,36161.529000,251.067,54.028,-43.585,380.220,298.067,-32.443,-346.200,-177.710,-64.580
743,36161.572000,256.000,36.860,-46.591,379.348,299.019,-29.436,-217.200,17.290,-121.580
744,36161.591000,249.094,26.761,-21.542,379.357,299.104,-26.454,-22.200,185.290,-262.580
745,36161.632000,229.364,82.304,-1.503,370.559,311.277,-25.094,-34.200,154.290,-360.580
746,36161.672000,233.310,75.235,-7.515,367.936,318.360,-19.908,-208.200,-34.710,-283.580
747,36161.709000,228.378,81.294,12.524,365.294,323.538,-20.741,222.800,-147.710,-201.580
748,36161.749000,239.229,72.205,-8.517,356.459,324.146,-29.687,-129.200,-483.710,-139.580
749,36161.801000,241.202,90.383,-43.585,359.078,325.631,-38.567,253.800,-349.710,-218.580
750,36161.832000,247.121,71.195,-41.581,352.014,326.325,-44.525,-180.200,-340.710,-161.580
751,36161.849000,248.108,72.205,-27.554,350.264,330.748,-41.408,-263.200,-325.710,-153.580
752,36161.891000,234.297,103.511,-28.556,346.737,334.161,-43.295,-618.200,-390.710,-111.580
753,36161.928000,242.189,59.077,-60.618,344.119,337.856,-35.239,-514.200,-265.710,-97.580
754,36161.972000,234.297,101.491,-43.585,339.715,335.277,-34.344,-349.200,-195.710,-163.580
755,36162.12000,253.040,88.363,-3.507,339.728,337.126,-30.312,-510.200,-117.710,-157.580
756,36162.49000,255.013,76.245,-21.542,337.100,341.577,-26.204,-786.200,-290.710,-133.580
757,36162.69000,277.703,57.057,-14.528,340.664,342.842,-12.250,-1437.200,-794.710,402.420
758,36162.108000,321.110,-84.323,40.579,362.772,310.944,24.520,-4048.200,-1430.710,1628.420
759,36162.148000,224.432,60.087,4.509,394.658,253.216,98.216,-7471.200,-1591.710,1893.420
760,36162.188000,220.486,195.408,51.601,408.823,209.972,132.606,-5774.200,-898.710,1468.420
761,36162.233000,216.540,172.181,32.564,425.593,158.609,155.817,-3548.200,-583.710,1118.420
762,36162.271000,182.998,128.757,-68.634,426.479,126.775,164.717,-2039.200,-208.710,816.420
763,36162.311000,194.836,127.748,-73.644,430.017,115.719,172.314,-223.200,198.290,226.420
764,36162.331000,290.528,67.156,64.626,431.774,108.776,172.094,950.800,304.290,157.420
765,36162.371000,295.461,9.594,10.521,434.411,108.722,170.115,22.800,-72.710,133.420
766,36162.411000,424.694,96.442,44.587,429.997,118.966,164.475,986.800,38.290,90.420
767,36162.453000,478.952,92.402,85.667,434.389,120.564,159.576,934.800,-18.710,276.420
768,36162.493000,394.112,31.811,-4.509,431.743,123.978,157.692,716.800,124.290,100.420
769,36162.529000,164.254,15.653,-125.746,426.465,142.146,156.279,1656.800,274.290,-248.580
770,36162.551000,135.645,31.811,-187.867,428.198,159.952,141.967,1283.800,-216.710,-331.580
771,36162.597000,72.509,-15.653,-14.528,425.532,182.124,128.777,992.800,-359.710,-491.580
772,36162.631000,45.873,-13.633,16.532,424.621,192.173,116.191,764.800,-207.710,-357.580
773,36162.669000,1.480,-37.870,-3.507,423.736,198.164,113.403,227.800,-56.710,-401.580
774,36162.717000,77.441,-53.018,-50.599,420.225,207.766,115.690,539.800,619.290,-334.580
775,36162.749000,143.538,-4.544,-58.614,410.575,216.777,127.867,706.800,905.290,-351.580
776,36162.788000,482.898,266.099,-63.624,403.524,230.519,123.325,784.800,160.290,-710.580
777,36162.813000,511.507,204.497,249.988,403.551,224.753,134.061,-1443.200,353.290,-363.580
778,36162.849000,511.507,97.452,192.877,401.821,226.797,145.045,118.800,396.290,-216.580
779,36162.889000,32.062,45.949,-73.644,407.957,218.736,135.866,-316.200,-554.710,266.420
780,36162.931000,260.933,50.998,-33.566,410.593,217.814,133.859,-629.200,-396.710,-77.580
781,36162.971000,266.852,28.781,-45.589,409.706,217.757,131.868,32.800,-208.710,-91.580
782,36163.14000,240.216,78.264,-38.575,408.813,215.908,127.833,32.800,-138.710,-101.580
783,36163.29000,244.162,65.136,-38.575,410.584,224.617,129.115,-121.200,-71.710,-108.580
784,36163.73000,251.067,39.890,-30.560,407.934,221.955,127.034,-52.200,-73.710,-83.580
785,36163.108000,250.081,53.018,-32.564,408.809,221.899,125.049,125.800,-80.710,-177.580
786,36163.152000,242.189,90.383,-24.548,407.038,229.569,120.327,274.800,-84.710,-140.580
787,36163.196000,229.364,72.205,-27.554,408.795,233.826,117.492,170.800,-122.710,-25.580
788,36163.231000,242.189,55.037,-45.589,409.658,236.233,110.622,278.800,-81.710,15.420
789,36163.271000,240.216,88.363,-14.528,407.879,236.063,104.652,310.800,-124.710,33.420
790,36163.291000,232.324,64.126,-40.579,409.631,234.244,101.620,318.800,-190.710,105.420
791,36163.331000,232.324,71.195,-50.599,411.366,227.944,93.477,370.800,-209.710,123.420
792,36163.371000,246.135,57.057,-47.593,415.746,225.117,85.456,357.800,-185.710,147.420
793,36163.411000,236.270,45.949,-57.613,416.611,223.241,80.433,347.800,-162.710,104.420
794,36163.451000,245.148,59.077,-45.589,419.231,226.462,71.609,439.800,-172.710,68.420
795,36163.494000,238.243,73.215,-33.566,420.971,231.417,62.838,509.800,-313.710,99.420
796,36163.514000,237.256,62.107,-51.601,421.816,228.476,50.829,557.800,-437.710,172.420
797,36163.552000,268.825,87.353,-45.589,427.928,222.766,32.790,603.800,-594.710,346.420
798,36163.598000,277.703,56.047,-85.667,430.510,213.552,13.632,645.800,-610.710,353.420
799,36163.638000,253.040,25.751,-97.691,434.877,208.010,1.551,660.800,-401.710,230.420
800,36163.671000,251.067,5.554,-113.722,436.604,203.361,-9.518,755.800,-118.710,196.420
801,36163.711000,247.121,24.742,-113.722,439.228,204.034,-16.438,774.800,138.290,164.420
802,36163.751000,219.499,77.254,-114.724,438.339,203.949,-19.423,820.800,354.290,115.420
803,36163.771000,214.566,104.521,-114.724,436.583,209.183,-18.266,2127.800,778.290,-239.580
804,36163.811000,180.039,183.290,-117.730,433.906,212.287,-31.082,3788.800,1168.290,-651.580
805,36163.849000,130.713,218.635,-161.816,426.776,223.533,-62.516,4415.800,848.290,-1033.580
806,36163.889000,168.200,112.600,-276.039,417.796,221.836,-122.179,6275.800,347.290,-1334.580
807,36163.929000,215.553,145.925,-311.108,414.979,211.492,-181.110,6536.800,-538.710,-1292.580
808,36163.969000,283.622,158.043,-209.910,400.623,167.537,-263.015,4517.800,-1641.710,-954.580
809,36163.989000,284.609,104.521,-132.759,371.302,113.351,-338.349,4181.800,-1981.710,-935.580
810,36164.29000,278.690,63.116,-139.773,348.203,26.107,-386.931,5188.800,-1541.710,-771.580
811,36164.69000,276.717,85.333,-106.708,335.786,-37.632,-401.948,4378.800,-1530.710,-807.580
812,36164.109000,270.798,31.811,-88.673,311.919,-102.220,-416.036,2887.800,-1710.710,-728.580
813,36164.149000,250.081,57.057,-113.722,283.668,-138.166,-429.209,1782.800,-1662.710,-433.580
814,36164.191000,234.297,127.748,-38.575,258.054,-143.144,-451.299,-300.200,-1491.710,-538.580
815,36164.231000,189.904,19.692,59.616,245.702,-126.971,-461.736,-462.200,-924.710,-474.580
816,36164.251000,140.578,78.264,100.697,250.984,-123.552,-463.594,37.800,148.290,-604.580
817,36164.291000,131.699,73.215,-40.579,285.389,-101.517,-451.846,-734.200,1509.290,-925.580
818,36164.337000,329.988,-1.515,-268.023,325.962,-76.874,-439.994,-68.200,924.290,-1266.580
819,36164.372000,206.674,-33.830,-21.542,364.801,-75.217,-413.005,1099.800,1484.290,-1473.580
820,36164.418000,323.083,15.653,-4.509,387.752,-73.881,-397.000,75.800,1220.290,-935.580
821,36164.454000,334.921,-68.166,-36.571,420.430,-42.886,-375.037,-655.200,1303.290,-925.580
822,36164.469000,306.312,37.870,-7.515,443.426,-10.945,-350.095,-972.200,1089.290,-791.580
823,36164.511000,435.545,147.945,74.646,444.325,13.359,-349.303,-880.200,-68.710,-314.580
824,36164.552000,223.445,96.442,-44.587,439.010,8.762,-358.406,-25.200,-610.710,142.420
825,36164.592000,254.027,-8.584,-189.871,431.941,-1.800,-363.737,110.800,-256.710,178.420
826,36164.632000,196.809,-28.781,-126.748,433.712,-4.290,-359.840,113.800,251.290,-88.580
827,36164.672000,214.566,41.909,-94.685,435.488,-0.704,-355.746,21.800,266.290,-105.580
828,36164.713000,241.202,58.067,-83.663,443.424,5.406,-354.529,104.800,172.290,18.420
829,36164.733000,234.297,24.742,-88.673,445.194,4.623,-351.570,172.800,13.290,95.420
830,36164.773000,243.175,19.692,-88.673,441.665,-2.323,-351.807,95.800,-94.710,124.420
831,36164.813000,240.216,39.890,-84.665,437.233,-8.628,-359.969,-28.200,-286.710,240.420
832,36164.853000,278.690,46.959,-93.683,432.817,-16.499,-362.225,2.800,-362.710,339.420
833,36164.896000,339.854,73.215,-66.630,423.969,-26.363,-373.496,293.800,-526.710,481.420
834,36164.936000,336.894,47.968,-27.554,406.284,-42.535,-392.944,433.800,-990.710,589.420
835,36164.976000,346.759,62.107,1.503,371.848,-69.192,-414.773,749.800,-1340.710,803.420
836,36164.997000,399.044,83.314,-38.575,324.182,-102.047,-440.816,761.800,-1795.710,1121.420
837,36165.37000,372.408,70.185,-102.701,288.015,-120.639,-453.451,444.800,-1718.710,1534.420
838,36165.72000,246.135,109.570,-54.607,232.456,-131.603,-471.859,-296.200,-1397.710,1410.420
839,36165.113000,117.888,12.623,-183.859,189.253,-100.978,-491.856,-1657.200,-1042.710,1267.420
840,36165.153000,92.239,15.653,-143.781,173.418,-43.898,-497.006,-2760.200,29.290,1140.420
841,36165.196000,89.279,-7.574,-28.556,181.391,-2.956,-490.687,-2223.200,1142.290,1183.420
842,36165.216000,77.441,0.505,-86.669,219.370,34.232,-464.534,-1501.200,2117.290,1188.420
843,36165.256000,107.037,1.515,-164.822,278.523,59.677,-424.792,-1489.200,3038.290,1039.420
844,36165.296000,128.740,31.811,-156.806,335.083,84.760,-367.196,-1669.200,3212.290,888.420
845,36165.331000,125.780,37.870,-181.855,366.934,105.958,-323.708,-2253.200,3039.290,801.420
846,36165.371000,137.618,52.008,-256.000,400.658,146.344,-245.829,-4399.200,2390.290,783.420
847,36165.411000,204.701,98.462,-267.022,422.075,188.710,-158.988,-5621.200,1779.290,832.420
848,36165.452000,84.347,114.619,-503.483,433.721,199.257,-93.071,-4978.200,1038.290,1090.420
849,36165.472000,216.540,437.775,326.137,432.854,201.973,-89.014,774.800,342.290,-629.580
850,36165.512000,428.640,-113.609,4.509,427.564,204.517,-90.934,783.800,52.290,-542.580
851,36165.552000,219.499,-42.919,-69.636,423.157,208.797,-92.796,-900.200,-100.710,-203.580
852,36165.593000,303.353,-100.481,-38.575,421.444,221.342,-78.492,-636.200,228.290,-393.580
853,36165.634000,268.825,79.274,-32.564,417.052,230.943,-76.209,-3.200,350.290,-471.580
854,36165.671000,238.243,19.692,-36.571,420.601,238.087,-69.014,-24.200,326.290,-347.580
855,36165.692000,254.027,48.978,9.519,416.219,250.377,-63.665,-259.200,145.290,-349.580
856,36165.732000,253.040,3.535,-8.517,411.836,260.062,-58.400,-407.200,-31.710,-341.580
857,36165.772000,248.108,34.840,-27.554,406.547,260.030,-59.411,-269.200,-249.710,-254.580
858,36165.812000,266.852,45.949,-19.538,402.141,269.491,-62.097,-194.200,-361.710,-251.580
859,36165.852000,232.324,58.067,-43.585,398.599,271.895,-68.981,28.800,-263.710,-192.580
860,36165.892000,244.162,56.047,-48.595,396.819,269.989,-75.006,-50.200,-277.710,-65.580
861,36165.933000,239.229,36.860,-41.581,396.810,269.036,-78.016,-24.200,-307.710,-33.580
862,36165.953000,253.040,6.564,-13.526,392.385,272.279,-85.869,-32.200,-391.710,-121.580
863,36165.993000,255.013,34.840,-92.681,389.726,273.845,-91.785,-107.200,-314.710,-247.580
864,36166.34000,250.081,20.702,-105.706,383.578,280.057,-86.638,-110.200,37.290,-280.580
865,36166.77000,251.067,44.939,-52.603,377.445,294.166,-78.256,-212.200,328.290,-430.580
866,36166.113000,239.229,61.097,-35.569,373.064,299.568,-71.144,-265.200,322.290,-477.580
867,36166.153000,221.472,94.422,-9.519,372.204,305.812,-64.986,-186.200,132.290,-365.580
868,36166.173000,243.175,64.126,-29.558,368.678,306.649,-65.963,-87.200,-142.710,-168.580
869,36166.213000,238.243,63.116,-52.603,360.746,312.635,-68.773,-109.200,-246.710,-165.580
870,36166.252000,242.189,73.215,-37.573,360.739,318.598,-72.552,-129.200,-226.710,-169.580
871,36166.292000,240.216,70.185,-54.607,359.861,322.938,-72.414,-181.200,-240.710,-99.580
872,36166.334000,243.175,62.107,-70.638,352.819,318.677,-69.596,-278.200,-146.710,-97.580
873,36166.376000,235.283,60.087,-49.597,351.946,326.517,-68.351,-169.200,-75.710,-112.580
874,36166.418000,223.445,118.659,-25.550,353.706,323.046,-68.458,-387.200,-225.710,-37.580
875,36166.433000,233.310,66.146,-43.585,354.595,326.575,-66.355,-205.200,-241.710,68.420
876,36166.472000,231.337,104.521,-44.587,351.934,328.980,-73.236,-82.200,-272.710,39.420
877,36166.518000,232.324,54.028,-55.609,353.692,328.085,-74.252,-190.200,-326.710,46.420
878,36166.553000,237.256,97.452,-55.609,351.932,322.064,-72.467,-427.200,-257.710,-19.580
879,36166.592000,248.108,68.166,-71.640,352.832,329.149,-67.270,-472.200,-146.710,28.420
880,36166.634000,254.027,81.294,-53.605,352.841,326.658,-63.379,-599.200,-80.710,-19.580
881,36166.654000,257.973,85.333,-64.626,352.882,327.920,-49.436,-714.200,19.290,2.420
882,36166.697000,271.784,69.176,-41.581,358.227,328.516,-28.546,-1458.200,-116.710,246.420
883,36166.734000,325.056,-87.353,76.650,379.494,297.012,22.135,-4904.200,-1046.710,1907.420
884,36166.772000,167.214,41.909,-39.577,406.051,257.813,76.556,-8241.200,-1221.710,2444.420
885,36166.817000,219.499,223.684,-56.611,425.544,190.860,131.046,-5279.200,-298.710,1117.420
886,36166.854000,260.933,-59.077,10.521,418.536,184.362,146.701,466.800,749.290,-128.580
887,36166.896000,326.042,-14.643,39.577,413.271,200.935,150.200,1500.800,693.290,-239.580
888,36166.916000,321.110,71.195,44.587,406.233,194.126,154.922,-66.200,196.290,102.420
889,36166.952000,368.462,123.708,67.632,407.119,196.759,156.003,72.800,128.290,273.420
890,36166.992000,248.108,66.146,-5.511,408.883,195.921,156.975,157.800,158.290,242.420
891,36167.36000,196.809,27.771,-53.605,408.903,196.118,163.932,212.800,280.290,118.420
892,36167.74000,177.079,29.791,-68.634,405.378,203.003,162.158,645.800,192.290,-53.580
893,36167.116000,143.538,58.067,-63.624,405.363,208.882,155.398,717.800,-13.710,-169.580
894,36167.156000,99.145,38.880,-22.544,397.421,218.227,148.725,432.800,-48.710,-445.580
895,36167.174000,120.848,22.722,11.523,390.372,231.129,145.149,562.800,153.290,-457.580
896,36167.216000,141.565,38.880,-1.503,383.342,246.804,147.621,579.800,383.290,-573.580
897,36167.254000,180.039,5.554,-38.575,378.066,260.688,148.055,928.800,625.290,-887.580
898,36167.296000,97.171,30.801,-296.078,363.074,288.955,136.015,2084.800,231.290,-1230.580
899,36167.338000,380.301,117.649,148.791,362.163,297.268,123.373,1105.800,-2.710,-118.580
900,36167.378000,499.669,323.661,223.937,364.829,287.164,133.976,-1442.200,-281.710,-175.580
901,36167.398000,78.428,30.801,-60.618,375.377,274.879,128.647,-37.200,-643.710,376.420
902,36167.438000,274.744,99.471,-57.613,380.649,279.054,122.841,-100.200,-342.710,66.420
903,36167.476000,321.110,15.653,-42.583,377.116,270.343,121.554,69.800,-14.710,1.420
904,36167.516000,239.229,76.245,-11.523,379.765,278.157,121.816,50.800,16.290,-99.580
905,36167.554000,241.202,59.077,-9.519,375.363,282.494,121.943,125.800,-21.710,-190.580
906,36167.594000,237.256,93.412,-12.524,371.826,286.662,116.109,516.800,-1.710,-160.580
907,36167.634000,230.351,103.511,-24.548,373.586,288.371,115.177,127.800,-72.710,-35.580
908,36167.654000,243.175,66.146,-26.552,371.806,283.021,110.033,221.800,-20.710,22.420
909,36167.693000,235.283,100.481,-10.521,371.792,283.748,105.091,352.800,-84.710,8.420
910,36167.734000,237.256,80.284,-38.575,376.188,287.111,101.242,62.800,-38.710,85.420
911,36167.776000,239.229,75.235,-13.526,372.669,288.872,102.281,206.800,32.290,103.420
912,36167.814000,238.243,77.254,-13.526,375.297,287.866,97.292,216.800,-51.710,99.420
913,36167.854000,236.270,76.245,-27.554,382.332,286.022,93.283,220.800,-94.710,145.420
914,36167.874000,236.270,81.294,-15.530,380.554,276.388,89.986,260.800,-130.710,200.420
915,36167.916000,237.256,71.195,-18.536,384.068,282.326,85.225,149.800,-219.710,225.420
916,36167.954000,233.310,69.176,-22.544,391.083,272.530,75.992,107.800,-279.710,240.420
917,36167.993000,240.216,61.097,-35.569,397.221,267.941,66.926,205.800,-364.710,252.420
918,36168.33000,234.297,62.107,-28.556,399.846,266.038,60.915,294.800,-417.710,297.420
919,36168.73000,247.121,73.215,-20.540,406.847,261.280,45.888,393.800,-517.710,334.420
920,36168.113000,245.148,52.008,-66.630,409.438,251.283,29.684,260.800,-492.710,348.420
921,36168.133000,256.987,41.909,-69.636,416.461,245.015,22.552,266.800,-333.710,337.420
922,36168.173000,251.067,22.722,-93.683,418.205,239.668,17.419,177.800,-220.710,277.420
923,36168.214000,244.162,43.929,-72.642,420.846,237.934,17.372,217.800,90.290,174.420
924,36168.253000,246.135,38.880,-64.626,423.477,233.511,14.257,231.800,154.290,155.420
925,36168.298000,231.337,19.692,-46.591,424.368,234.464,17.270,281.800,93.290,167.420
926,36168.333000,237.256,44.939,-53.605,426.110,231.693,11.228,98.800,-118.710,192.420
927,36168.353000,236.270,33.830,-48.595,429.629,228.195,10.133,211.800,-200.710,244.420
928,36168.394000,268.825,44.939,-50.599,433.992,218.312,-2.090,225.800,-368.710,295.420
929,36168.434000,287.568,27.771,-50.599,434.829,204.087,-14.465,433.800,-455.710,316.420
930,36168.474000,367.476,5.554,-51.601,434.787,208.844,-30.198,844.800,-417.710,224.420
931,36168.514000,408.909,7.574,27.554,434.741,206.657,-46.157,2502.800,-147.710,50.420
932,36168.558000,245.148,31.811,-174.841,431.111,201.301,-82.090,3071.800,-359.710,-336.580
933,36168.599000,190.890,36.860,-269.025,423.947,200.141,-122.864,4027.800,-185.710,-565.580
934,36168.619000,115.915,-13.633,-47.593,414.142,186.072,-160.092,2560.800,-545.710,-312.580
935,36168.659000,70.536,-31.811,0.501,407.904,178.475,-183.197,1714.800,-228.710,-231.580
936,36168.699000,2.466,-116.639,30.560,411.415,172.317,-186.365,908.800,215.290,-237.580
937,36168.739000,-101.118,-88.363,-183.859,416.769,176.441,-163.375,-927.200,1028.290,-280.580
938,36168.779000,401.017,-88.363,-168.830,419.430,182.660,-158.200,-501.200,-86.710,-32.580
939,36168.819000,481.911,42.919,-19.538,422.127,194.396,-141.923,-407.200,419.290,-329.580
940,36168.839000,386.220,-6.564,-94.685,423.908,193.727,-134.988,1139.800,1072.290,-558.580
941,36168.883000,149.457,18.682,-147.789,424.841,198.546,-117.948,1052.800,1431.290,-531.580
942,36168.917000,308.285,135.826,-136.767,435.476,196.598,-95.138,397.800,1377.290,-92.580
943,36168.963000,150.443,192.379,-411.303,444.231,184.002,-111.406,480.800,-675.710,75.420
944,36168.997000,328.015,87.353,-320.125,439.717,188.948,-150.980,1023.800,-2336.710,-171.580
945,36169.37000,335.908,90.383,-212.916,420.932,151.651,-242.613,4517.800,-2522.710,-464.580
946,36169.83000,325.056,140.876,-201.894,389.797,71.086,-330.724,5749.800,-2386.710,-407.580
947,36169.97000,326.042,214.596,-165.824,344.655,-14.635,-386.279,4377.800,-2773.710,-261.580
948,36169.136000,272.771,138.856,-104.704,309.300,-53.726,-418.443,2830.800,-3096.710,-754.580
949,36169.174000,244.162,87.353,-129.753,253.675,-108.428,-450.186,2809.800,-2802.710,-1229.580
950,36169.214000,233.310,176.221,-76.650,213.959,-153.987,-465.694,2275.800,-2428.710,-1509.580
951,36169.254000,244.162,75.235,-7.515,191.892,-158.737,-479.820,844.800,-1616.710,-1652.580
952,36169.294000,218.513,-35.850,-47.593,192.766,-187.240,-475.777,1917.800,-738.710,-1779.580
953,36169.314000,245.148,65.136,-52.603,208.649,-199.042,-464.194,1798.800,-135.710,-1851.580
954,36169.354000,256.987,16.663,-46.591,232.435,-194.713,-464.970,-18.200,-49.710,-1487.580
955,36169.394000,247.121,-1.515,-87.671,243.885,-178.354,-469.367,8.800,-68.710,-1129.580
956,36169.441000,210.620,0.505,-100.697,254.459,-162.806,-471.808,-73.200,42.290,-960.580
957,36169.482000,154.389,-5.554,16.532,272.098,-147.953,-468.290,-743.200,792.290,-859.580
958,36169.519000,161.295,-17.673,125.746,324.145,-117.056,-450.240,-398.200,2030.290,-1128.580
959,36169.561000,368.462,-33.830,-503.483,378.879,-61.600,-422.448,-673.200,2116.290,-1881.580
960,36169.574000,177.079,-145.925,-25.550,410.670,-52.193,-397.216,1239.800,1601.290,-1096.580
961,36169.614000,338.867,12.623,-2.505,428.335,-39.662,-383.844,-728.200,898.290,-869.580
962,36169.656000,282.636,82.304,-72.642,439.853,3.216,-370.499,-1305.200,551.290,-588.580
963,36169.696000,256.987,158.043,-51.601,450.449,5.185,-362.458,302.800,386.290,-337.580
964,36169.736000,329.002,10.604,-78.654,457.510,0.152,-356.640,429.800,123.290,-147.580
965,36169.777000,246.135,16.663,-114.724,455.746,1.858,-357.584,346.800,-6.710,-145.580
966,36169.797000,221.472,37.870,-125.746,455.752,5.358,-356.477,213.800,16.290,-84.580
967,36169.836000,207.661,8.584,-131.757,456.645,2.896,-351.589,429.800,211.290,-163.580
968,36169.876000,200.755,38.880,-103.703,462.819,1.249,-348.644,162.800,165.290,-123.580
969,36169.916000,210.620,88.363,-86.669,463.705,1.306,-346.653,85.800,55.290,31.420
970,36169.959000,227.391,30.801,-86.669,457.528,-10.011,-348.033,156.800,-149.710,194.420
971,36169.997000,258.960,16.663,-83.663,454.861,-19.730,-354.315,73.800,-411.710,334.420
972,36170.38000,263.892,35.850,-83.663,445.126,-29.651,-367.577,56.800,-640.710,476.420
973,36170.57000,304.339,65.136,-54.607,424.797,-56.185,-385.384,449.800,-875.710,673.420
974,36170.97000,407.923,0.505,-20.540,407.111,-77.536,-404.007,1138.800,-1308.710,1051.420
975,36170.137000,511.507,-214.596,64.626,367.402,-148.014,-411.387,2314.800,-1251.710,1607.420
976,36170.177000,348.732,364.055,-116.728,314.538,-248.933,-390.999,3489.800,-1062.710,2226.420
977,36170.218000,252.054,205.507,-133.761,229.799,-208.434,-459.466,-4536.200,-2197.710,2087.420
978,36170.263000,41.927,10.604,-100.697,177.752,-116.108,-505.293,-4665.200,-1150.710,1380.420
979,36170.297000,28.116,-137.846,-415.311,164.553,-95.286,-504.660,-1811.200,-96.710,1330.420
980,36170.317000,52.778,183.290,-49.597,180.444,-80.293,-496.178,-823.200,1425.290,1586.420
981,36170.362000,158.335,72.205,-78.654,212.219,-66.743,-477.763,-1002.200,1961.290,1297.420
982,36170.396000,185.958,55.037,-120.736,264.283,-63.256,-447.693,-384.200,2498.290,1227.420
983,36170.438000,244.162,65.136,-155.804,294.315,-46.934,-423.236,-1412.200,2859.290,957.420
984,36170.478000,229.364,98.462,-157.808,345.554,-5.842,-382.018,-2553.200,2763.290,632.420
985,36170.518000,234.297,120.679,-188.869,380.957,53.551,-337.279,-4049.200,2224.290,642.420
986,36170.538000,246.135,85.333,-236.963,404.967,116.103,-272.614,-4693.200,1836.290,777.420
987,36170.578000,227.391,79.274,-228.947,418.326,158.903,-231.463,-4817.200,1532.290,762.420
988,36170.618000,214.566,57.057,-225.941,429.101,186.781,-165.979,-3576.200,1199.290,613.420
989,36170.658000,188.917,44.939,-217.926,438.068,200.405,-113.873,-2503.200,960.290,385.420
990,36170.698000,193.850,62.107,-172.838,435.527,209.172,-79.835,-1639.200,822.290,51.420
991,36170.738000,203.715,39.890,-164.822,433.825,206.319,-58.087,-1291.200,452.290,-142.580
992,36170.776000,202.728,38.880,-146.787,435.645,211.195,-39.056,-981.200,208.290,-203.580
993,36170.796000,197.796,73.215,-167.828,427.751,224.463,-29.714,-518.200,19.290,-447.580
994,36170.839000,279.676,-14.643,-30.560,424.220,233.000,-34.413,1227.800,327.290,-676.580
995,36170.881000,381.287,8.584,-11.523,418.940,240.808,-34.177,970.800,602.290,-214.580
996,36170.921000,203.715,-76.245,-32.564,415.448,257.494,-26.696,-1424.200,-198.710,-704.580
997,36170.961000,265.865,95.432,-18.536,404.016,274.062,-23.216,691.800,169.290,-707.580
998,36171.2000,261.919,92.402,-29.558,396.087,284.388,-25.885,198.800,156.290,-529.580
999,36171.22000,248.108,34.840,-11.523,389.052,293.987,-23.610,-7.200,35.290,-405.580
1000,36171.62000,251.067,63.116,-16.532,387.270,289.477,-29.720,125.800,-10.710,-331.580
1001,36171.102000,249.094,64.126,-29.558,382.000,299.106,-26.446,-26.200,51.290,-285.580
1002,36171.142000,247.121,44.939,-8.517,378.484,306.075,-25.238,77.800,140.290,-263.580
1003,36171.182000,252.054,72.205,-6.513,375.846,313.017,-25.021,-172.200,42.290,-302.580
1004,36171.222000,235.283,77.254,-8.517,370.566,312.202,-23.078,-31.200,33.290,-186.580
1005,36171.259000,233.310,76.245,8.517,367.036,315.587,-25.959,-185.200,-183.710,-175.580
1006,36171.279000,245.148,53.018,-21.542,367.033,315.559,-26.953,-307.200,-236.710,-123.580
1007,36171.319000,244.162,78.264,-10.521,360.863,314.658,-27.995,114.800,-143.710,-61.580
1008,36171.359000,240.216,82.304,-21.542,364.383,317.208,-29.887,-64.200,-111.710,-46.580
1009,36171.399000,248.108,65.136,-27.554,364.389,321.576,-28.752,149.800,20.290,-39.580
1010,36171.438000,237.256,69.176,-13.526,362.618,324.066,-32.649,-3.200,14.290,-19.580
1011,36171.479000,243.175,65.136,-19.538,363.504,323.255,-30.686,87.800,8.290,-1.580
1012,36171.499000,237.256,81.294,-6.513,366.146,323.257,-30.678,160.800,4.290,43.420
1013,36171.539000,244.162,72.205,-18.536,363.487,316.199,-34.887,113.800,-11.710,84.420
1014,36171.582000,238.243,71.195,-20.540,363.486,315.331,-34.915,86.800,22.290,74.420
1015,36171.622000,246.135,68.166,-18.536,366.129,311.889,-34.026,39.800,44.290,99.420
1016,36171.657000,248.108,65.136,-14.528,368.766,310.966,-36.033,131.800,73.290,105.420
1017,36171.697000,242.189,68.166,-21.542,372.289,313.545,-36.931,-61.200,61.290,127.420
1018,36171.737000,250.081,47.968,-14.528,373.186,312.846,-30.993,32.800,136.290,147.420
1019,36171.757000,245.148,67.156,-10.521,374.065,309.375,-31.103,136.800,148.290,138.420
1020,36171.802000,242.189,73.215,-14.528,374.063,307.639,-31.159,3.800,123.290,161.420
1021,36171.842000,248.108,63.116,-7.515,376.718,300.866,-25.412,83.800,155.290,201.420
1022,36171.877000,249.094,62.107,-12.524,386.407,294.825,-24.584,-5.200,141.290,215.420
1023,36171.922000,246.135,56.047,-11.523,387.291,298.298,-24.469,60.800,209.290,265.420
1024,36171.962000,248.108,53.018,-5.511,392.588,290.659,-18.742,103.800,260.290,308.420
1025,36171.982000,250.081,55.037,-4.509,400.523,284.701,-14.938,22.800,289.290,360.420
1026,36172.31000,253.040,46.959,-2.505,402.300,277.956,-8.200,152.800,373.290,415.420
1027,36172.57000,255.013,31.811,5.511,406.710,266.816,-3.582,192.800,435.290,430.420
1028,36172.98000,259.946,30.801,11.523,412.011,256.629,4.048,237.800,487.290,387.420
1029,36172.138000,271.784,23.732,10.521,416.434,255.093,10.963,313.800,550.290,308.420
1030,36172.184000,271.784,23.732,2.505,419.083,255.152,12.960,536.800,680.290,206.420
1031,36172.218000,249.094,73.215,-53.605,417.334,249.243,18.720,1154.800,652.290,-273.580
1032,36172.239000,221.472,30.801,-106.708,417.298,254.057,4.974,1745.800,258.290,-95.580
1033,36172.278000,216.540,43.929,-43.585,422.515,260.272,-20.625,1474.800,-310.710,28.420
1034,36172.318000,261.919,36.860,-36.571,423.314,249.125,-46.802,1192.800,-931.710,187.420
1035,36172.358000,261.919,21.712,-13.526,428.491,239.435,-82.847,936.800,-1199.710,364.420
1036,36172.398000,250.081,25.751,-4.509,433.643,219.159,-125.194,719.800,-1313.710,452.420
1037,36172.438000,253.040,25.751,2.505,435.310,205.296,-155.429,205.800,-1246.710,387.420
1038,36172.458000,235.283,6.564,51.601,429.082,202.964,-176.377,-88.200,-939.710,159.420
1039,36172.499000,224.432,20.702,29.558,430.819,199.268,-184.435,104.800,-351.710,-132.580
1040,36172.541000,239.229,31.811,22.544,428.168,203.493,-188.279,555.800,532.290,-564.580
1041,36172.581000,267.838,29.791,51.601,432.613,212.514,-176.056,960.800,1142.290,-796.580
1042,36172.621000,351.692,26.761,27.554,437.947,212.997,-159.142,378.800,1004.290,-260.580
1043,36172.666000,244.162,68.166,30.560,437.970,216.666,-152.072,-639.200,345.290,-363.580
1044,36172.699000,215.553,79.274,16.532,437.116,226.411,-144.808,-27.200,245.290,-165.580
