Sample, Time, ACCX, ACCY, ACCZ, MAGX, MAGY, MAGZ, GYRX, GYRY, GYRZ
0,35873.609000,254.004,-7.515,48.620,460.083,-233.546,231.049,298.850,-131.370,22.070
1,35873.649000,256.998,-6.513,50.605,460.103,-232.521,234.028,302.850,-66.370,6.070
2,35873.689000,257.996,-5.511,49.612,462.960,-236.263,233.929,299.850,-22.370,-10.930
3,35873.729000,251.010,-5.511,47.628,462.099,-228.711,234.138,254.850,7.630,-22.930
4,35873.769000,248.016,-3.507,40.682,461.154,-227.621,240.068,208.850,45.630,-13.930
5,35873.809000,253.006,4.509,41.674,462.186,-223.746,243.129,118.850,53.630,-15.930
6,35873.849000,253.006,3.507,39.690,465.126,-221.814,243.187,21.850,32.630,-39.930
7,35873.869000,252.008,-2.505,42.667,461.135,-229.407,243.953,-51.150,80.630,-69.930
8,35873.909000,246.020,0.501,42.667,465.181,-218.031,243.293,-95.150,72.630,-67.930
9,35873.949000,246.020,-2.505,48.620,459.349,-218.980,246.207,-101.150,67.630,-52.930
10,35873.990000,250.012,0.501,46.636,460.290,-220.884,245.172,-118.150,76.630,-39.930
11,35874.30000,250.012,2.505,48.620,464.186,-219.884,245.207,-135.150,83.630,-36.930
12,35874.69000,253.006,6.513,44.651,458.335,-221.857,245.142,-186.150,97.630,-40.930
13,35874.109000,248.016,3.507,40.682,455.284,-231.381,243.888,-235.150,86.630,-32.930
14,35874.129000,245.021,5.511,40.682,457.250,-229.489,242.960,-296.150,57.630,-37.930
15,35874.169000,244.023,8.517,38.698,458.152,-234.203,242.831,-350.150,65.630,25.070
16,35874.207000,243.025,4.509,42.667,456.167,-236.333,234.899,-422.150,15.630,80.070
17,35874.247000,251.010,-6.513,58.543,453.139,-244.018,231.730,-424.150,-42.370,91.070
18,35874.286000,257.996,-15.530,66.481,453.917,-256.482,224.499,-418.150,-24.370,42.070
19,35874.327000,249.014,-13.526,60.527,451.979,-255.695,219.600,-408.150,21.630,-42.930
20,35874.367000,241.029,-5.511,56.558,452.944,-255.760,216.649,-446.150,42.630,-62.930
21,35874.407000,239.033,-7.515,57.550,450.934,-259.755,209.649,-498.150,56.630,-55.930
22,35874.427000,246.020,-23.546,59.535,451.894,-259.873,204.729,-526.150,50.630,-71.930
23,35874.469000,247.018,-28.556,58.543,449.794,-270.407,200.498,-487.150,35.630,-79.930
24,35874.509000,241.029,-25.550,57.550,451.750,-268.647,194.649,-443.150,32.630,-66.930
25,35874.549000,239.033,-26.552,57.550,454.572,-274.384,190.560,-389.150,12.630,-75.930
26,35874.594000,247.018,-21.542,58.543,450.675,-274.624,183.661,-338.150,2.630,-32.930
27,35874.629000,244.023,-28.556,56.558,446.761,-276.623,181.632,-294.150,6.630,-10.930
28,35874.669000,246.020,-31.562,61.519,448.671,-278.539,179.614,-220.150,5.630,-4.930
29,35874.709000,236.039,-34.568,64.496,449.665,-276.687,177.700,-174.150,4.630,14.070
30,35874.729000,243.025,-37.573,57.550,447.580,-286.249,174.480,-159.150,-30.370,36.070
31,35874.769000,247.018,-34.568,50.605,444.676,-285.424,171.547,-131.150,-43.370,26.070
32,35874.809000,241.029,-36.571,55.566,448.589,-282.664,166.713,-120.150,-56.370,24.070
33,35874.849000,246.020,-37.573,57.550,445.627,-286.435,168.570,-125.150,-51.370,22.070
34,35874.889000,246.020,-37.573,59.535,446.587,-286.553,163.650,-107.150,-26.370,12.070
35,35874.929000,241.029,-38.575,61.519,445.544,-291.347,161.548,-68.150,-18.370,12.070
36,35874.969000,243.025,-39.577,53.581,447.579,-284.727,160.752,-64.150,-10.370,7.070
37,35875.9000,248.016,-33.566,51.597,446.524,-290.441,159.608,-29.150,5.630,3.070
38,35875.29000,243.025,-33.566,53.581,445.654,-283.782,161.759,-15.150,4.630,-7.930
39,35875.81000,245.021,-26.552,50.605,445.538,-291.426,158.595,-29.150,-13.370,-21.930
40,35875.110000,242.027,-27.554,52.589,442.630,-291.415,160.558,-46.150,-17.370,-18.930
41,35875.150000,246.020,-29.558,53.581,445.620,-285.752,158.753,-56.150,-23.370,-38.930
42,35875.190000,252.008,-22.544,50.605,446.603,-284.819,157.797,-92.150,-32.370,-26.930
43,35875.230000,244.023,-21.542,51.597,450.458,-286.656,157.752,-119.150,-29.370,-2.930
44,35875.270000,246.020,-22.544,53.581,445.606,-285.937,151.862,-126.150,-35.370,-17.930
45,35875.315000,249.014,-23.546,50.605,453.336,-287.823,147.889,-154.150,-23.370,-18.930
46,35875.330000,243.025,-23.546,52.589,447.488,-289.744,149.792,-137.150,-25.370,-13.930
47,35875.371000,247.018,-20.540,52.589,448.441,-290.729,147.799,-104.150,-26.370,-15.930
48,35875.417000,248.016,-19.538,54.574,451.430,-285.093,145.010,-102.150,-25.370,-3.930
49,35875.447000,247.018,-21.542,51.597,451.392,-287.116,140.036,-124.150,-8.370,0.070
50,35875.487000,247.018,-17.534,52.589,449.405,-290.033,137.984,-121.150,2.630,-11.930
51,35875.527000,244.023,-17.534,53.581,452.288,-291.909,136.953,-141.150,5.630,-16.930
52,35875.571000,246.020,-20.540,53.581,450.317,-293.854,135.912,-137.150,3.630,-22.930
53,35875.610000,250.012,-23.546,53.581,451.321,-291.109,132.056,-104.150,37.630,-31.930
54,35875.630000,247.018,-22.544,54.574,451.372,-288.140,137.057,-92.150,68.630,-48.930
55,35875.670000,247.018,-19.538,53.581,448.307,-298.610,135.777,-98.150,93.630,-26.930
56,35875.710000,248.016,-25.550,54.574,449.325,-294.919,131.947,-87.150,100.630,-27.930
57,35875.752000,244.023,-21.542,58.543,448.405,-291.964,136.945,-118.150,102.630,-54.930
58,35875.787000,244.023,-27.554,50.605,446.474,-291.099,134.999,-193.150,66.630,-67.930
59,35875.827000,251.010,-31.562,46.636,447.464,-289.299,131.116,-197.150,49.630,-44.930
60,35875.867000,240.031,-39.577,42.667,448.324,-296.850,130.908,-161.150,56.630,-53.930
61,35875.912000,241.029,-37.573,44.651,448.438,-289.233,133.087,-119.150,30.630,-65.930
62,35875.927000,245.021,-29.558,42.667,448.389,-292.175,129.071,-63.150,9.630,-54.930
63,35875.972000,243.025,-30.560,46.636,453.276,-290.136,132.086,-40.150,13.630,-58.930
64,35876.9000,247.018,-18.536,49.612,452.295,-290.281,127.163,-53.150,12.630,-60.930
65,35876.49000,246.020,-19.538,53.581,452.378,-284.607,127.321,-82.150,20.630,-55.930
66,35876.89000,246.020,-25.550,56.558,449.354,-292.240,126.120,-70.150,43.630,-47.930
67,35876.127000,249.014,-25.550,52.589,454.335,-283.608,128.335,-34.150,23.630,-38.930
68,35876.167000,248.016,-29.558,56.558,454.252,-289.282,128.177,-33.150,10.630,-17.930
69,35876.207000,247.018,-23.546,55.566,453.400,-281.625,132.323,82.850,1.630,11.070
70,35876.227000,248.016,-9.519,66.481,450.421,-285.607,126.306,54.850,11.630,50.070
71,35876.267000,255.002,-9.519,68.465,453.341,-285.460,130.249,-29.150,14.630,81.070
72,35876.309000,247.018,-20.540,63.504,447.391,-294.080,129.016,-152.150,74.630,92.070
73,35876.359000,244.023,-24.548,59.535,445.461,-293.188,128.054,-188.150,84.630,71.070
74,35876.389000,245.021,-28.556,61.519,446.361,-297.929,126.940,-214.150,86.630,65.070
75,35876.429000,247.018,-31.562,54.574,444.441,-296.144,124.036,-271.150,58.630,71.070
76,35876.469000,248.016,-39.577,52.589,441.470,-300.020,121.955,-260.150,84.630,91.070
77,35876.510000,249.014,-45.589,59.535,441.335,-309.450,122.677,-229.150,123.630,114.070
78,35876.530000,246.020,-40.579,54.574,438.462,-306.681,121.765,-250.150,113.630,116.070
79,35876.571000,237.037,-44.587,54.574,437.348,-316.230,118.547,-245.150,117.630,94.070
80,35876.611000,240.031,-49.597,48.620,438.354,-313.458,115.675,-190.150,113.630,83.070
81,35876.651000,237.037,-50.599,51.597,432.424,-321.053,117.421,-78.150,108.630,43.070
82,35876.691000,230.051,-51.601,50.605,430.465,-322.841,122.286,12.850,103.630,29.070
83,35876.730000,230.051,-50.599,44.651,432.505,-316.167,123.458,129.850,73.630,15.070
84,35876.769000,238.035,-50.599,49.612,431.471,-320.830,126.278,245.850,41.630,-15.930
85,35876.809000,238.035,-41.581,57.550,434.561,-309.283,132.506,295.850,43.630,-67.930
86,35876.829000,233.045,-37.573,65.488,432.633,-309.127,139.392,314.850,20.630,-102.930
87,35876.871000,244.023,-40.579,78.388,433.695,-303.334,143.490,316.850,30.630,-115.930
88,35876.911000,257.996,-16.532,99.225,436.609,-304.028,151.344,246.850,89.630,-99.930
89,35876.951000,253.006,-20.540,91.287,433.687,-304.962,153.280,16.850,174.630,20.070
90,35876.991000,216.078,-42.583,78.388,437.601,-302.963,155.310,29.850,186.630,-38.930
91,35877.31000,213.084,-47.593,68.465,435.768,-296.213,161.396,220.850,-9.370,-98.930
92,35877.71000,244.023,-30.560,64.496,437.769,-292.350,163.474,324.850,-63.370,-64.930
93,35877.111000,253.006,-20.540,64.496,438.716,-294.175,165.392,322.850,-62.370,-14.930
94,35877.131000,240.031,-16.532,62.512,442.671,-289.339,167.501,210.850,-78.370,2.070
95,35877.172000,238.035,-24.548,63.504,438.816,-287.503,167.545,146.850,-101.370,-23.930
96,35877.210000,241.029,-19.538,64.496,441.718,-288.355,169.494,132.850,-113.370,-24.930
97,35877.250000,244.023,-19.538,65.488,444.687,-283.743,163.725,118.850,-114.370,-2.930
98,35877.292000,238.035,-21.542,67.473,441.799,-282.707,168.667,128.850,-130.370,-3.930
99,35877.332000,237.037,-24.548,67.473,444.774,-278.017,165.852,171.850,-185.370,7.070
100,35877.371000,239.033,-28.556,65.488,449.650,-276.110,163.946,221.850,-186.370,17.070
101,35877.411000,243.025,-25.550,69.457,449.595,-279.892,163.841,283.850,-199.370,28.070
102,35877.431000,243.025,-15.530,76.403,452.578,-275.096,164.963,264.850,-192.370,37.070
103,35877.471000,243.025,-12.524,79.380,451.609,-275.084,165.945,208.850,-168.370,15.070
104,35877.507000,254.004,-11.523,78.388,455.492,-275.029,165.953,158.850,-27.370,-6.930
105,35877.550000,254.004,-9.519,76.403,451.543,-279.786,166.798,101.850,84.630,-19.930
106,35877.591000,244.023,-16.532,74.419,455.504,-274.871,171.859,58.850,169.630,-52.930
107,35877.642000,247.018,-12.524,71.442,457.483,-272.820,176.837,85.850,239.630,-56.930
108,35877.672000,243.025,-18.536,73.426,453.683,-267.963,183.851,77.850,274.630,-51.930
109,35877.709000,244.023,-18.536,79.380,449.815,-267.834,190.734,173.850,346.630,-43.930
110,35877.729000,242.027,-9.519,80.372,446.031,-262.766,205.623,267.850,418.630,-23.930
111,35877.770000,241.029,-8.517,74.419,446.006,-265.392,213.418,280.850,400.630,-24.930
112,35877.807000,237.037,-7.515,75.411,442.285,-256.436,232.350,311.850,434.630,-13.930
113,35877.847000,233.045,-4.509,77.395,436.483,-255.468,236.301,326.850,388.630,-5.930
114,35877.894000,237.037,-4.509,79.380,434.607,-252.342,248.188,284.850,283.630,-16.930
115,35877.932000,228.055,-0.501,83.349,425.956,-247.527,256.177,248.850,215.630,-10.930
116,35877.970000,231.049,0.501,84.341,431.914,-238.802,261.347,230.850,113.630,29.070
117,35878.12000,234.043,-4.509,83.349,425.963,-248.210,265.994,204.850,11.630,64.070
118,35878.32000,235.041,-2.505,85.333,430.932,-240.497,269.167,152.850,-64.370,84.070
119,35878.72000,235.041,6.513,85.333,430.885,-243.413,266.135,94.850,-86.370,65.070
120,35878.112000,231.049,-3.507,89.302,431.893,-240.615,264.248,25.850,-117.370,52.070
121,35878.152000,230.051,-14.528,90.295,432.639,-255.784,261.860,35.850,-175.370,61.070
122,35878.192000,233.045,-6.513,87.318,429.925,-241.746,258.311,94.850,-218.370,53.070
123,35878.234000,229.053,-1.503,87.318,435.677,-246.444,256.223,114.850,-237.370,59.070
124,35878.274000,236.039,2.505,88.310,436.726,-240.809,254.414,97.850,-258.370,54.070
125,35878.312000,239.033,4.509,88.310,437.586,-247.599,247.342,54.850,-241.370,49.070
126,35878.335000,238.035,9.519,83.349,442.474,-244.772,244.478,-37.150,-244.370,14.070
127,35878.370000,238.035,6.513,74.419,446.253,-251.442,240.364,-113.150,-269.370,6.070
128,35878.412000,246.020,8.517,69.457,449.255,-244.099,230.737,-195.150,-271.370,20.070
129,35878.450000,249.014,-0.501,66.481,452.011,-253.751,221.621,-225.150,-258.370,2.070
130,35878.490000,245.021,-4.509,68.465,450.024,-255.907,212.705,-221.150,-235.370,12.070
131,35878.534000,243.025,-5.511,69.457,453.887,-256.877,209.734,-190.150,-196.370,58.070
132,35878.574000,254.004,-14.528,67.473,452.904,-257.048,203.826,-121.150,-164.370,49.070
133,35878.611000,243.025,-6.513,63.504,454.737,-263.798,197.740,-90.150,-116.370,46.070
134,35878.631000,241.029,-3.507,63.504,451.794,-265.783,195.712,-131.150,-90.370,60.070
135,35878.670000,251.010,-11.523,62.512,457.655,-262.917,193.835,-145.150,-92.370,43.070
136,35878.711000,245.021,-12.524,62.512,453.654,-270.642,189.679,-145.150,-56.370,35.070
137,35878.754000,243.025,-10.521,66.481,455.646,-266.885,187.819,-138.150,-11.370,55.070
138,35878.794000,245.021,-15.530,60.527,452.703,-268.870,185.792,-137.150,-31.370,51.070
139,35878.835000,244.023,-19.538,58.543,450.602,-279.404,181.561,-124.150,-37.370,42.070
140,35878.870000,243.025,-5.511,62.512,449.781,-269.043,180.864,-144.150,-30.370,55.070
141,35878.914000,255.002,-22.544,61.519,449.692,-274.795,177.753,-138.150,25.630,39.070
142,35878.929000,241.029,-22.544,57.550,445.794,-275.822,176.734,-107.150,2.630,25.070
143,35878.970000,240.031,-13.526,58.543,448.578,-284.344,174.535,-89.150,-4.370,82.070
144,35879.11000,246.020,-22.544,61.519,444.727,-282.456,176.548,-110.150,-17.370,75.070
145,35879.49000,243.025,-14.528,61.519,447.623,-283.386,175.543,-124.150,-22.370,30.070
146,35879.96000,241.029,-20.540,62.512,441.801,-282.681,169.652,-161.150,-38.370,44.070
147,35879.131000,244.023,-34.568,57.550,443.585,-293.134,166.413,-156.150,-54.370,64.070
148,35879.175000,245.021,-30.560,57.550,442.650,-290.390,163.537,-98.150,-51.370,39.070
149,35879.192000,243.025,-27.554,57.550,441.653,-292.269,164.467,-110.150,-71.370,58.070
150,35879.237000,243.025,-31.562,55.566,438.777,-289.552,161.586,-96.150,-66.370,57.070
151,35879.272000,248.016,-36.571,58.543,440.653,-293.439,156.563,-46.150,-25.370,32.070
152,35879.312000,249.014,-34.568,58.543,438.731,-292.442,159.539,-49.150,6.630,39.070
153,35879.352000,242.027,-38.575,61.519,440.645,-294.306,159.490,17.850,-11.370,37.070
154,35879.392000,239.033,-39.577,56.558,438.621,-300.007,159.328,42.850,-20.370,45.070
155,35879.439000,237.037,-34.568,53.581,437.731,-294.373,158.500,53.850,-15.370,38.070
156,35879.474000,250.012,-24.548,55.566,435.776,-295.346,158.469,8.850,1.630,-19.930
157,35879.494000,249.014,-32.564,48.620,435.788,-294.427,157.511,-31.150,-3.370,-18.930
158,35879.534000,248.016,-37.573,48.620,438.507,-307.625,157.149,-34.150,-8.370,20.070
159,35879.574000,243.025,-38.575,53.581,436.717,-297.250,157.434,4.850,-0.370,20.070
160,35879.619000,241.029,-36.571,59.535,433.684,-305.776,158.176,46.850,-25.370,25.070
161,35879.654000,245.021,-31.562,62.512,433.750,-301.074,157.323,59.850,-47.370,-12.930
162,35879.694000,249.014,-34.568,64.496,434.709,-301.979,158.283,31.850,-46.370,9.070
163,35879.734000,252.008,-30.560,69.457,439.645,-296.237,158.451,-52.150,-26.370,46.070
164,35879.775000,243.025,-32.564,66.481,436.601,-304.894,154.271,-174.150,26.630,23.070
165,35879.800000,247.018,-36.571,59.535,434.693,-302.190,150.408,-243.150,76.630,-11.930
166,35879.835000,239.033,-42.583,49.612,434.683,-303.083,152.351,-312.150,78.630,-32.930
167,35879.875000,246.020,-53.605,37.705,438.513,-306.023,146.374,-258.150,23.630,-43.930
168,35879.929000,250.012,-62.622,26.791,434.598,-308.022,144.344,-120.150,19.630,20.070
169,35879.951000,250.012,-65.628,28.775,436.609,-303.266,144.480,63.850,58.630,55.070
170,35879.991000,237.037,-47.593,35.721,432.577,-313.697,145.167,133.850,77.630,-9.930
171,35880.31000,236.039,-40.579,38.698,435.670,-302.097,153.363,113.850,92.630,-94.930
172,35880.71000,235.041,-45.589,52.589,435.611,-306.694,158.154,118.850,118.630,-150.930
173,35880.92000,235.041,-38.575,54.574,440.653,-294.200,163.428,75.850,101.630,-211.930
174,35880.132000,239.033,-45.589,54.574,442.626,-292.229,165.453,100.850,65.630,-241.930
175,35880.176000,240.031,-55.609,55.566,445.638,-285.516,167.612,258.850,66.630,-240.930
176,35880.212000,235.041,-63.624,57.550,449.582,-281.599,170.678,360.850,71.630,-239.930
177,35880.251000,271.969,-34.568,95.256,451.777,-265.233,180.973,532.850,210.630,-285.930
178,35880.292000,268.975,-12.524,96.248,448.943,-261.963,198.764,559.850,329.630,-18.930
179,35880.336000,168.172,-39.577,78.388,448.986,-259.861,206.692,658.850,277.630,112.070
180,35880.370000,199.111,19.538,79.380,449.032,-257.733,215.604,602.850,-125.370,110.070
181,35880.396000,286.940,60.618,55.566,452.005,-253.830,218.668,355.850,-143.370,80.070
182,35880.431000,245.021,17.534,51.597,449.122,-251.954,219.699,188.850,-157.370,117.070
183,35880.476000,230.051,36.571,71.442,454.042,-247.183,218.856,216.850,-149.370,199.070
184,35880.522000,213.084,5.511,71.442,448.008,-261.503,216.481,94.850,-184.370,511.070
185,35880.556000,207.096,-31.562,96.248,438.160,-271.149,214.229,236.850,-136.370,711.070
186,35880.596000,195.119,-29.558,106.171,431.154,-286.270,217.731,285.850,-187.370,722.070
187,35880.635000,191.127,-48.595,91.287,431.161,-285.404,214.804,235.850,-350.370,547.070
188,35880.674000,197.115,-88.673,128.000,426.243,-290.148,216.631,679.850,-292.370,403.070
189,35880.694000,217.076,-154.802,117.085,420.488,-286.264,223.615,1291.850,-562.370,270.070
190,35880.732000,256.998,-86.669,53.581,438.210,-268.968,225.109,1631.850,-959.370,-200.930
191,35880.774000,318.877,142.779,-27.783,446.329,-245.086,230.705,1077.850,-471.370,-232.930
192,35880.815000,354.807,-8.517,-50.605,456.098,-240.299,227.904,516.850,-531.370,-132.930
193,35880.860000,222.066,30.560,-59.535,466.867,-232.820,219.277,161.850,-354.370,-110.930
194,35880.895000,308.897,-85.667,-28.775,467.846,-231.940,216.353,275.850,-246.370,121.070
195,35880.935000,284.943,-50.599,-35.721,463.063,-228.015,224.323,810.850,18.630,161.070
196,35880.974000,234.043,22.544,-30.760,458.319,-222.068,237.267,963.850,96.630,82.070
197,35880.994000,273.965,33.566,-21.829,453.621,-212.443,246.379,898.850,177.630,-50.930
198,35881.35000,285.942,31.562,10.915,451.865,-201.621,263.399,880.850,287.630,120.070
199,35881.76000,288.936,44.587,3.969,441.199,-202.402,275.162,771.850,159.630,252.070
200,35881.115000,263.984,25.550,-0.992,445.233,-192.707,282.324,581.850,-186.370,292.070
201,35881.156000,327.860,1.503,55.566,442.282,-195.559,283.223,463.850,-139.370,90.070
202,35881.195000,278.955,-55.609,20.837,449.218,-185.953,285.470,132.850,-145.370,-202.930
203,35881.235000,224.062,-88.673,67.473,447.351,-181.174,288.550,183.850,101.630,-265.930
204,35881.275000,184.140,-5.511,108.155,442.697,-168.686,298.726,334.850,429.630,-90.930
205,35881.294000,247.018,2.505,79.380,438.716,-176.148,304.413,144.850,152.630,-90.930
206,35881.335000,258.994,-12.524,59.535,436.019,-161.899,308.739,76.850,229.630,-115.930
207,35881.375000,222.066,29.558,32.744,428.269,-161.799,316.598,32.850,272.630,-227.930
208,35881.415000,245.021,43.585,37.705,426.432,-155.102,320.716,-197.150,413.630,-215.930
209,35881.461000,239.033,11.523,26.791,416.535,-168.452,321.311,-588.150,413.630,-191.930
210,35881.496000,241.029,4.509,0.992,423.293,-171.140,323.215,-1046.150,154.630,-366.930
211,35881.536000,194.121,23.546,-24.806,422.094,-185.627,311.990,-1373.150,45.630,-476.930
212,35881.576000,180.148,47.593,-19.845,429.559,-203.223,285.940,-1938.150,-286.370,-236.930
213,35881.602000,173.162,93.683,86.326,430.956,-236.348,247.644,-2733.150,-364.370,-4.930
214,35881.639000,292.928,-228.947,93.271,435.573,-250.097,225.629,-2256.150,-239.370,-611.930
215,35881.675000,427.665,-221.933,115.101,445.387,-240.898,211.148,-331.150,455.630,-370.930
216,35881.720000,175.158,-44.587,143.876,433.749,-241.693,222.909,307.850,719.630,449.070
217,35881.755000,114.277,19.538,59.535,423.000,-248.909,241.379,366.850,390.630,474.070
218,35881.794000,406.706,16.532,-19.845,422.043,-247.216,234.539,52.850,-143.370,170.070
219,35881.834000,223.064,30.560,34.729,423.910,-253.518,245.187,25.850,562.630,-176.930
220,35881.855000,220.070,15.530,7.938,420.116,-247.059,241.426,-364.150,51.630,-183.930
221,35881.895000,220.070,37.573,9.922,417.017,-260.260,244.004,-558.150,294.630,156.070
222,35881.934000,273.965,8.517,25.798,410.963,-274.843,231.785,-835.150,89.630,254.070
223,35881.975000,248.016,20.540,33.736,401.073,-286.565,222.590,-990.150,78.630,262.070
224,35882.14000,252.008,17.534,63.504,398.060,-291.756,206.703,-1071.150,38.630,2.070
225,35882.54000,278.955,9.519,76.403,396.853,-306.349,191.541,-1236.150,181.630,-254.930
226,35882.97000,364.788,-92.681,138.915,401.810,-298.033,181.944,-1150.150,544.630,-781.930
227,35882.136000,138.230,24.548,57.550,407.588,-299.317,166.180,-1494.150,31.630,-599.930
228,35882.162000,179.150,-71.640,-17.860,415.289,-300.811,141.562,-1560.150,271.630,-500.930
229,35882.192000,199.111,-163.820,43.659,421.038,-304.013,124.761,-1176.150,218.630,-448.930
230,35882.236000,217.076,-110.716,32.744,426.947,-296.681,113.171,-637.150,75.630,-711.930
231,35882.277000,204.101,-61.620,40.682,434.809,-289.952,113.372,-402.150,151.630,-603.930
232,35882.317000,189.131,-34.568,82.357,435.054,-272.957,112.861,-378.150,264.630,-566.930
233,35882.354000,225.060,39.577,80.372,445.874,-261.747,102.372,-519.150,42.630,-682.930
234,35882.400000,244.023,81.659,107.163,452.877,-246.679,96.901,-716.150,146.630,-847.930
235,35882.442000,185.138,54.607,123.039,458.877,-233.568,89.407,-779.150,216.630,-660.930
236,35882.456000,158.191,60.618,112.124,463.793,-228.089,79.731,-1480.150,-62.370,-699.930
237,35882.496000,430.659,-15.530,37.705,474.628,-213.624,49.660,-1722.150,-455.370,-722.930
238,35882.536000,407.704,-104.704,-73.426,472.721,-210.132,39.918,-760.150,203.630,-275.930
239,35882.576000,293.926,-117.730,59.535,477.596,-208.251,37.028,-336.150,-43.370,-19.930
240,35882.616000,345.825,-59.616,14.884,473.609,-215.031,32.898,-338.150,125.630,160.070
241,35882.657000,301.910,24.548,67.473,477.411,-220.623,33.732,-357.150,315.630,80.070
242,35882.697000,172.164,59.616,119.070,473.499,-222.596,32.687,-589.150,285.630,-60.930
243,35882.737000,231.049,49.597,70.450,477.408,-219.127,19.020,-1144.150,-215.370,-49.930
244,35882.759000,272.967,53.605,106.171,470.588,-221.088,19.938,-1395.150,700.630,77.070
245,35882.792000,79.345,-39.577,48.620,474.494,-219.194,18.030,-1566.150,831.630,-82.930
246,35882.834000,156.195,-160.814,30.760,475.461,-219.233,16.063,-585.150,408.630,-167.930
247,35882.874000,312.889,-81.659,-60.527,474.548,-216.199,24.015,305.850,76.630,-61.930
248,35882.914000,235.041,-63.624,-73.426,474.473,-221.768,27.794,248.850,62.630,81.070
249,35882.955000,211.088,-21.542,-8.930,477.456,-217.734,35.780,-152.150,304.630,52.070
250,35882.995000,270.971,7.515,252.031,478.389,-219.743,30.808,-65.150,-418.370,-95.930
251,35883.41000,303.906,42.583,88.310,481.358,-214.370,18.175,-289.150,-380.370,-81.930
252,35883.55000,185.138,87.671,98.233,478.321,-221.399,4.204,-22.150,-606.370,206.070
253,35883.94000,204.101,-113.722,144.868,481.217,-221.568,-3.665,120.850,-372.370,384.070
254,35883.140000,268.975,-60.618,95.256,473.310,-231.187,-5.913,385.850,-494.370,220.070
255,35883.176000,225.060,-50.599,86.326,474.248,-233.144,-8.916,654.850,-296.370,273.070
256,35883.215000,223.064,-95.687,82.357,468.178,-250.983,-1.554,961.850,-322.370,485.070
257,35883.255000,276.959,-69.636,57.550,463.253,-256.594,3.200,1252.850,-562.370,578.070
258,35883.296000,237.037,-34.568,35.721,461.137,-269.623,11.686,1344.850,-362.370,568.070
259,35883.335000,213.084,-45.589,26.791,454.263,-276.890,26.227,1388.850,-231.370,519.070
260,35883.354000,204.101,-18.536,6.946,451.189,-289.775,40.617,1581.850,-332.370,412.070
261,35883.394000,209.092,-17.534,15.876,452.266,-284.533,59.454,1651.850,-427.370,195.070
262,35883.434000,220.070,5.511,4.961,447.447,-283.393,69.313,1636.850,-582.370,95.070
263,35883.474000,240.031,-3.507,66.481,451.462,-275.483,80.360,1621.850,-594.370,134.070
264,35883.514000,386.745,110.716,113.116,453.305,-282.862,86.059,1050.850,-390.370,394.070
265,35883.561000,246.020,-0.501,51.597,447.424,-287.515,91.821,580.850,-75.370,358.070
266,35883.595000,198.113,-116.728,112.124,446.492,-287.790,117.386,1186.850,317.630,13.070
267,35883.635000,257.996,31.562,73.426,443.744,-278.794,137.304,1591.850,284.630,388.070
268,35883.661000,256.998,143.781,39.690,432.064,-283.975,161.730,1129.850,88.630,768.070
269,35883.695000,293.926,26.552,19.845,432.063,-284.762,167.610,511.850,-162.370,167.070
270,35883.736000,217.076,21.542,-3.969,436.896,-285.718,164.641,59.850,-209.370,-231.930
271,35883.776000,216.078,17.534,19.845,436.055,-276.381,160.965,-132.150,-101.370,-188.930
272,35883.816000,235.041,3.507,57.550,442.867,-274.525,156.110,-114.150,-213.370,34.070
273,35883.856000,257.996,-5.511,71.442,441.792,-281.264,151.986,-147.150,-186.370,182.070
274,35883.894000,255.002,-9.519,67.473,443.619,-288.854,149.811,-69.150,-79.370,94.070
275,35883.915000,253.006,3.507,77.395,442.603,-291.757,147.761,5.850,19.630,-79.930
276,35883.955000,250.012,-25.550,94.264,442.761,-281.276,151.004,6.850,-20.370,-38.930
277,35884.0,260.990,1.503,114.109,442.657,-288.762,153.746,-138.150,324.630,74.070
278,35884.49000,158.191,29.558,63.504,441.698,-287.857,152.786,-563.150,338.630,-160.930
279,35884.76000,259.992,-67.632,19.845,445.714,-277.637,144.225,-317.150,-47.370,-438.930
280,35884.117000,323.867,-110.716,-17.860,446.694,-276.730,142.284,17.850,-63.370,106.070
281,35884.157000,225.060,-46.591,7.938,440.811,-281.409,147.062,239.850,70.630,66.070
282,35884.197000,226.058,-33.566,71.442,444.745,-278.385,152.071,392.850,-32.370,-9.930
283,35884.224000,262.986,-25.550,54.574,440.922,-274.605,154.137,343.850,-48.370,69.070
284,35884.259000,240.031,-41.581,47.628,447.762,-271.619,156.199,243.850,-48.370,39.070
285,35884.299000,241.029,-31.562,29.767,446.693,-279.040,161.892,302.850,-205.370,-7.930
286,35884.339000,224.062,-44.587,28.775,449.748,-268.702,158.250,418.850,-237.370,30.070
287,35884.379000,246.020,-31.562,41.674,452.657,-269.475,163.152,585.850,-131.370,22.070
288,35884.419000,254.004,4.509,60.527,456.634,-263.588,169.224,538.850,52.630,-18.930
289,35884.456000,242.027,-7.515,70.450,450.842,-262.488,178.097,398.850,70.630,-59.930
290,35884.497000,246.020,-35.569,61.519,453.929,-250.968,183.341,414.850,-8.370,-109.930
291,35884.517000,263.984,-31.562,72.434,455.967,-245.082,190.393,527.850,85.630,-129.930
292,35884.557000,295.922,8.517,71.442,457.030,-240.024,202.339,532.850,374.630,13.070
293,35884.597000,218.074,-10.521,81.364,449.299,-239.687,219.057,537.850,614.630,47.070
294,35884.637000,181.146,-5.511,47.628,446.453,-236.575,230.942,479.850,292.630,127.070
295,35884.677000,248.016,13.526,47.628,446.428,-239.202,238.738,474.850,27.630,188.070
296,35884.717000,266.979,24.548,44.651,444.581,-233.397,244.798,386.850,54.630,233.070
297,35884.759000,249.014,21.542,51.597,442.602,-236.209,246.683,265.850,-7.370,230.070
298,35884.795000,233.045,22.544,60.527,439.722,-234.306,248.699,144.850,7.630,153.070
299,35884.815000,229.053,9.519,66.481,439.645,-239.901,251.494,64.850,-40.370,170.070
300,35884.857000,217.076,-3.507,55.566,431.864,-240.983,250.467,52.850,-96.370,275.070
301,35884.905000,232.047,-18.536,61.519,429.803,-248.707,245.331,202.850,-148.370,324.070
302,35884.939000,231.049,-3.507,86.326,429.841,-246.685,250.305,380.850,-63.370,395.070
303,35884.977000,219.072,-30.560,75.411,426.809,-255.184,252.031,452.850,-281.370,430.070
304,35885.17000,195.119,-35.569,90.295,425.836,-255.224,251.044,430.850,-207.370,585.070
305,35885.57000,200.109,-9.519,99.225,416.861,-272.264,254.490,295.850,-188.370,660.070
306,35885.97000,217.076,-107.710,92.279,415.945,-268.495,254.593,269.850,-166.370,362.070
307,35885.124000,281.949,-26.552,58.543,422.759,-266.613,250.722,324.850,-280.370,-219.930
308,35885.157000,268.975,-41.581,62.512,431.796,-245.711,250.335,329.850,-188.370,-529.930
309,35885.196000,322.869,20.540,28.775,441.590,-239.060,246.602,402.850,-341.370,-582.930
310,35885.236000,289.934,-43.585,44.651,447.644,-222.954,245.093,206.850,-319.370,-469.930
311,35885.276000,262.986,-58.614,66.481,457.468,-214.385,242.397,348.850,-255.370,-193.930
312,35885.326000,236.039,-7.515,19.845,461.439,-207.816,238.652,439.850,-335.370,-1.930
313,35885.359000,257.996,-17.534,-34.729,463.319,-211.650,235.598,442.850,-416.370,37.070
314,35885.400000,285.942,16.532,-33.736,472.216,-200.231,233.963,356.850,-267.370,50.070
315,35885.427000,278.955,-6.513,-28.775,468.249,-205.986,232.813,39.850,-25.370,150.070
316,35885.456000,266.979,-50.599,-30.760,471.193,-204.001,234.840,126.850,22.630,101.070
317,35885.497000,236.039,-21.542,-18.853,469.279,-202.899,241.753,390.850,227.630,70.070
318,35885.544000,225.060,9.519,17.860,459.607,-202.589,258.467,450.850,360.630,35.070
319,35885.580000,256.998,60.618,27.783,459.733,-194.813,266.552,192.850,338.630,5.070
320,35885.620000,239.033,-6.513,20.837,453.789,-203.354,268.272,-2.150,176.630,80.070
321,35885.660000,279.953,-6.513,33.736,451.917,-199.414,275.264,158.850,150.630,47.070
322,35885.700000,283.945,38.575,20.837,446.987,-205.078,278.049,301.850,-12.370,380.070
323,35885.727000,275.961,33.566,1.984,444.024,-208.849,279.906,117.850,-65.370,553.070
324,35885.761000,282.947,-10.521,19.845,431.229,-221.295,280.522,-53.150,112.630,372.070
325,35885.801000,260.990,-32.564,38.698,431.247,-220.296,282.517,-265.150,237.630,-17.930
326,35885.850000,221.068,-73.644,59.535,429.264,-223.161,282.434,-288.150,158.630,-334.930
327,35885.880000,231.049,-83.663,97.240,433.285,-214.411,289.569,-23.150,190.630,-253.930
328,35885.920000,212.086,-28.556,112.124,429.388,-215.411,289.535,102.850,150.630,-228.930
329,35885.956000,239.033,-23.546,94.264,433.444,-203.903,293.796,148.850,-1.370,34.070
330,35886.0,256.998,9.519,65.488,427.479,-213.495,291.552,183.850,-65.370,155.070
331,35886.20000,257.996,20.540,35.721,426.542,-212.300,301.420,232.850,95.630,24.070
332,35886.60000,240.031,26.552,60.527,424.636,-210.331,305.406,83.850,335.630,-121.930
333,35886.100000,226.058,20.540,45.643,422.829,-201.716,310.560,-198.150,207.630,-196.930
334,35886.137000,236.039,2.505,37.705,420.856,-203.687,308.535,-272.150,125.630,-177.930
335,35886.177000,238.035,-3.507,25.798,417.958,-202.783,308.555,-317.150,130.630,-82.930
336,35886.217000,244.023,-4.509,27.783,417.846,-210.374,307.360,-402.150,163.630,-4.930
337,35886.257000,235.041,-9.519,35.721,415.735,-221.802,305.072,-620.150,176.630,-5.930
338,35886.277000,250.012,-22.544,35.721,410.799,-226.783,298.040,-796.150,138.630,-60.930
339,35886.320000,244.023,-20.540,31.752,409.620,-240.246,289.794,-906.150,63.630,-40.930
340,35886.360000,236.039,-13.526,29.767,406.519,-251.951,277.660,-919.150,9.630,29.070
341,35886.400000,250.012,-35.569,70.450,406.467,-254.920,272.660,-756.150,30.630,122.070
342,35886.442000,270.971,-124.744,151.814,402.404,-266.533,264.461,-374.150,-3.370,-67.930
343,35886.477000,257.996,-13.526,72.434,407.302,-263.575,266.519,119.850,132.630,-394.930
344,35886.519000,204.101,84.665,75.411,405.396,-261.605,270.505,-220.150,82.630,-88.930
345,35886.559000,222.066,3.507,93.271,395.623,-265.683,264.473,-701.150,258.630,-24.930
346,35886.579000,257.996,-83.663,90.295,398.493,-267.718,257.536,-790.150,183.630,-318.930
347,35886.622000,237.037,-24.548,93.271,400.495,-263.067,253.734,-670.150,296.630,-316.930
348,35886.659000,232.047,-25.550,92.279,397.367,-277.425,248.412,-695.150,274.630,-83.930
349,35886.701000,220.070,-44.587,75.411,394.327,-285.268,239.336,-648.150,-4.370,124.070
350,35886.741000,225.060,-55.609,73.426,395.203,-291.086,233.274,-606.150,10.630,118.070
351,35886.782000,231.049,-32.564,72.434,392.198,-296.171,221.324,-623.150,23.630,11.070
352,35886.831000,210.090,-29.558,56.558,390.064,-308.676,214.087,-751.150,-0.370,36.070
353,35886.869000,213.084,-59.616,58.543,387.080,-311.949,199.237,-718.150,30.630,-40.930
354,35886.876000,242.027,-75.648,56.558,389.964,-313.038,192.327,-661.150,4.630,-116.930
355,35886.920000,256.000,-62.622,54.574,391.766,-321.732,184.219,-558.150,111.630,-182.930
356,35886.961000,245.021,-74.646,75.411,392.821,-315.257,178.499,-413.150,216.630,-178.930
357,35887.1000,253.006,-45.589,88.310,387.946,-317.138,181.389,-299.150,334.630,-255.930
358,35887.37000,238.035,-27.554,93.271,391.893,-312.407,179.560,-252.150,334.630,-265.930
359,35887.77000,230.051,-41.581,91.287,388.877,-319.935,182.297,-333.150,225.630,-121.930
360,35887.120000,233.045,-51.601,79.380,395.625,-322.754,179.279,-293.150,129.630,-71.930
361,35887.160000,237.037,-61.620,77.395,393.732,-319.078,176.427,-218.150,117.630,-94.930
362,35887.180000,235.041,-21.542,88.310,391.848,-315.297,177.513,-290.150,172.630,-60.930
363,35887.219000,230.051,-38.575,66.481,388.930,-315.417,174.554,-376.150,147.630,-60.930
364,35887.260000,224.062,-140.775,46.636,387.904,-319.213,174.446,-49.150,137.630,-116.930
365,35887.297000,214.082,-125.746,77.395,392.796,-317.883,186.295,365.850,138.630,-162.930
366,35887.337000,201.107,-56.611,81.364,388.110,-307.339,194.449,617.850,191.630,-112.930
367,35887.384000,217.076,15.530,90.295,393.000,-305.247,199.434,518.850,109.630,-270.930
368,35887.419000,227.057,60.618,109.147,402.063,-284.004,211.843,214.850,159.630,-515.930
369,35887.460000,227.057,79.656,110.140,407.901,-282.976,211.881,-483.150,286.630,-741.930
370,35887.484000,217.076,26.552,98.233,419.801,-264.188,201.604,-827.150,237.630,-926.930
371,35887.522000,169.170,-53.605,98.233,425.645,-262.319,197.732,-768.150,154.630,-875.930
372,35887.562000,186.136,-35.569,76.403,431.677,-247.265,192.259,-161.150,-85.370,-610.930
373,35887.602000,186.136,13.526,73.426,438.605,-237.765,190.568,294.850,25.630,-483.930
374,35887.639000,180.148,60.618,132.961,440.788,-221.556,194.957,270.850,-50.370,-532.930
375,35887.684000,257.996,60.618,99.225,450.626,-211.280,185.423,-213.150,-417.370,-598.930
376,35887.723000,321.871,39.577,75.411,456.595,-200.874,182.772,-265.150,11.630,-453.930
377,35887.760000,340.834,23.546,99.225,459.434,-205.614,180.677,-572.150,59.630,-206.930
378,35887.780000,306.901,-65.628,120.062,456.651,-196.304,176.997,-412.150,149.630,-193.930
379,35887.817000,370.776,-45.589,102.202,453.635,-203.070,172.869,-113.150,108.630,161.070
380,35887.859000,292.928,-19.538,86.326,452.612,-207.602,180.611,-47.150,198.630,362.070
381,35887.900000,264.982,35.569,88.310,449.466,-223.719,180.157,-136.150,-40.370,384.070
382,35887.939000,226.058,80.658,83.349,446.489,-227.674,175.124,-483.150,-45.370,393.070
383,35887.980000,161.185,72.642,94.264,443.250,-248.835,162.727,-719.150,-130.370,352.070
384,35888.23000,147.212,-14.528,89.302,443.102,-256.900,143.813,-868.150,-262.370,182.070
385,35888.61000,169.170,-34.568,90.295,443.027,-260.946,133.865,-609.150,-337.370,105.070
386,35888.84000,209.092,-56.611,89.302,441.013,-264.993,124.896,-302.150,-323.370,267.070
387,35888.122000,241.029,-64.626,89.302,436.835,-284.224,114.518,-46.150,-335.370,408.070
388,35888.161000,233.045,-14.528,81.364,433.887,-286.262,110.522,44.850,-335.370,326.070
389,35888.197000,228.055,-23.546,83.349,434.795,-290.136,106.481,2.850,-365.370,286.070
390,35888.237000,245.021,-53.605,68.465,430.796,-297.074,96.446,8.850,-332.370,350.070
391,35888.277000,244.023,-46.591,56.558,427.823,-300.976,93.381,80.850,-274.370,352.070
392,35888.323000,232.047,-53.605,49.612,422.826,-310.580,90.155,115.850,-292.370,342.070
393,35888.363000,246.020,-59.616,40.682,419.886,-312.513,90.096,272.850,-263.370,292.070
394,35888.390000,240.031,-48.595,45.643,411.982,-322.867,95.697,492.850,-209.370,371.070
395,35888.420000,251.010,-29.558,56.558,409.090,-321.884,98.670,502.850,-159.370,364.070
396,35888.460000,230.051,-25.550,57.550,408.063,-326.467,104.442,392.850,-91.370,254.070
397,35888.500000,208.094,-46.591,45.643,405.109,-329.346,104.357,324.850,-185.370,201.070
398,35888.540000,211.088,-58.614,39.690,404.062,-334.954,107.150,379.850,-300.370,156.070
399,35888.579000,232.047,-59.616,36.713,406.153,-325.312,113.324,512.850,-234.370,-17.930
400,35888.620000,263.984,-32.564,105.178,407.051,-330.080,111.225,422.850,-178.370,-18.930
401,35888.640000,269.973,23.546,79.380,408.055,-328.096,114.233,-15.150,-38.370,203.070
402,35888.680000,248.016,-34.568,79.380,403.066,-336.833,108.080,-343.150,74.630,105.070
403,35888.720000,234.043,-37.573,59.535,400.187,-334.143,104.216,-461.150,95.630,54.070
404,35888.760000,223.064,-71.640,43.659,403.859,-347.563,94.996,-280.150,-6.370,-52.930
405,35888.809000,239.033,-87.671,21.829,403.981,-339.079,94.249,20.850,-151.370,-73.930
406,35888.844000,231.049,-70.638,20.837,412.727,-338.824,99.188,276.850,-94.370,-79.930
407,35888.882000,219.072,-38.575,76.403,417.779,-325.437,102.520,362.850,-0.370,-244.930
408,35888.922000,262.986,-14.528,82.357,419.766,-323.281,111.436,338.850,42.630,-269.930
409,35888.942000,242.027,-10.521,85.333,419.902,-314.613,117.579,255.850,227.630,-238.930
410,35888.982000,231.049,-5.511,101.209,422.962,-305.745,129.634,398.850,179.630,-248.930
411,35889.24000,263.984,-19.538,92.279,421.981,-306.652,131.574,404.850,73.630,81.070
412,35889.64000,230.051,-8.517,77.395,426.825,-308.237,140.391,496.850,-69.370,-16.930
413,35889.104000,248.016,52.603,115.101,424.051,-299.583,147.512,394.850,-31.370,-41.930
414,35889.164000,229.053,62.622,148.837,420.039,-308.228,144.314,-340.150,90.630,204.070
415,35889.179000,192.125,-70.638,12.899,421.013,-307.400,139.421,-692.150,22.630,-180.930
416,35889.220000,254.004,-123.742,-4.961,428.781,-305.715,127.677,-131.150,-335.370,-250.930
417,35889.240000,272.967,-125.746,-4.961,433.757,-297.162,126.940,348.850,-299.370,217.070
418,35889.281000,264.982,-68.634,-7.938,429.725,-307.592,127.627,475.850,-249.370,188.070
419,35889.321000,229.053,-49.597,27.783,431.820,-297.898,135.769,441.850,-50.370,-90.930
420,35889.365000,234.043,-44.587,57.550,433.783,-296.820,139.737,545.850,51.630,-169.930
421,35889.405000,246.020,-21.542,46.636,433.040,-282.359,150.957,466.850,117.630,-247.930
422,35889.439000,244.023,-38.575,39.690,441.832,-279.214,157.945,323.850,69.630,-321.930
423,35889.479000,257.996,-110.716,150.822,445.888,-268.468,169.070,686.850,193.630,-393.930
424,35889.524000,320.873,41.581,73.426,446.034,-259.668,180.135,353.850,557.630,201.070
425,35889.544000,192.125,-60.618,69.457,439.234,-262.127,197.760,695.850,252.630,162.070
426,35889.584000,172.164,-55.609,100.217,439.290,-259.867,211.593,955.850,78.630,223.070
427,35889.625000,254.004,50.599,43.659,439.388,-253.983,219.626,1059.850,-175.370,217.070
428,35889.666000,253.006,60.618,68.465,437.570,-247.048,232.603,778.850,73.630,375.070
429,35889.701000,223.064,21.542,71.442,432.687,-249.796,238.420,468.850,-114.370,239.070
430,35889.740000,237.037,14.528,55.566,431.783,-245.108,237.565,345.850,-161.370,92.070
431,35889.786000,219.072,18.536,77.395,431.752,-247.813,242.408,260.850,-33.370,269.070
432,35889.821000,193.123,1.503,95.256,427.807,-252.517,245.221,274.850,-0.370,435.070
433,35889.841000,178.152,-42.583,103.194,423.896,-254.464,245.161,364.850,-154.370,556.070
434,35889.881000,201.107,-5.511,97.240,422.792,-263.881,246.864,514.850,-361.370,639.070
435,35889.921000,177.154,5.511,71.442,416.874,-269.795,240.788,148.850,-433.370,717.070
436,35889.961000,138.230,-53.605,55.566,417.618,-284.229,230.552,-78.150,-352.370,326.070
437,35890.2000,160.187,-56.611,91.287,416.634,-285.189,230.523,233.850,-130.370,285.070
438,35890.42000,308.897,-119.734,128.992,422.632,-272.866,228.909,822.850,-552.370,-30.930
439,35890.82000,493.536,37.573,-28.775,450.195,-244.480,215.974,725.850,-1438.370,-1191.930
440,35890.122000,336.842,136.767,-108.155,461.943,-236.121,204.423,175.850,-420.370,-121.930
441,35890.142000,403.712,-175.843,-45.643,463.953,-231.365,204.559,396.850,-184.370,-29.930
442,35890.182000,256.998,-15.530,-28.775,460.094,-231.104,216.363,1031.850,341.630,337.070
443,35890.222000,187.135,60.618,-10.915,451.326,-235.482,233.931,762.850,166.630,465.070
444,35890.264000,249.014,-28.556,-15.876,448.481,-231.583,239.937,138.850,91.630,140.070
445,35890.304000,206.097,-24.548,-0.992,439.645,-239.140,244.630,305.850,232.630,70.070
446,35890.345000,205.099,7.515,-16.868,445.568,-233.173,252.674,565.850,54.630,-57.930
447,35890.385000,228.055,19.538,-14.884,443.886,-216.021,259.050,513.850,6.630,-126.930
448,35890.431000,250.012,26.552,-14.884,443.902,-215.811,266.925,394.850,131.630,-92.930
449,35890.445000,249.014,-4.509,-16.868,436.349,-202.418,277.121,585.850,246.630,-146.930
450,35890.485000,284.943,32.564,55.566,432.589,-194.750,283.230,485.850,86.630,-0.930
451,35890.525000,314.885,23.546,26.791,430.581,-199.480,284.078,268.850,-82.370,266.070
452,35890.565000,334.846,6.513,37.705,430.638,-195.671,285.168,134.850,-148.370,245.070
453,35890.605000,280.951,-74.646,37.705,429.608,-199.520,283.092,55.850,-196.370,-42.930
454,35890.646000,211.088,-116.728,88.310,434.565,-191.965,280.360,-103.150,-79.370,-190.930
455,35890.682000,198.113,-19.538,116.093,435.528,-192.818,283.288,77.850,219.630,-156.930
456,35890.722000,268.975,3.507,86.326,430.738,-188.999,287.321,-114.150,148.630,-36.930
457,35890.742000,239.033,-21.542,71.442,423.883,-193.718,291.113,-219.150,117.630,68.070
458,35890.782000,237.037,-4.509,41.674,425.733,-199.469,287.021,-193.150,53.630,-111.930
459,35890.824000,261.988,36.571,39.690,423.796,-199.444,288.986,-328.150,149.630,10.070
460,35890.865000,243.025,39.577,38.698,417.893,-204.387,283.920,-807.150,236.630,-106.930
461,35890.906000,254.004,45.589,22.822,422.516,-218.818,271.724,-1304.150,93.630,-388.930
462,35890.946000,235.041,-3.507,11.907,422.437,-222.917,259.806,-1364.150,17.630,-431.930
463,35890.986000,214.082,-54.607,-27.783,425.181,-232.727,244.784,-1206.150,-133.370,-498.930
464,35891.24000,198.113,24.548,-5.953,433.844,-235.861,228.973,-1188.150,-377.370,-358.930
465,35891.45000,241.029,-4.509,67.473,437.556,-244.161,199.240,-1512.150,-343.370,50.070
466,35891.85000,369.778,-296.078,167.690,440.330,-252.815,192.119,-334.150,67.630,-387.930
467,35891.125000,246.020,-49.597,85.333,438.568,-242.072,206.186,502.850,406.630,-236.930
468,35891.165000,182.144,61.620,38.698,427.943,-240.016,218.028,323.850,412.630,552.070
469,35891.205000,282.947,53.605,15.876,421.911,-255.070,223.501,-83.150,206.630,321.070
470,35891.246000,245.021,-7.515,0.000,416.161,-249.584,219.709,-358.150,151.630,-50.930
471,35891.285000,239.033,-11.523,11.907,414.026,-262.877,218.352,-502.150,294.630,82.070
472,35891.326000,250.012,31.562,35.721,408.174,-264.851,218.288,-688.150,248.630,121.070
473,35891.352000,243.025,24.548,47.628,403.069,-281.232,208.971,-908.150,175.630,255.070
474,35891.382000,249.014,-23.546,61.519,395.144,-291.088,197.864,-920.150,168.630,230.070
475,35891.422000,286.940,1.503,106.171,396.867,-304.642,184.703,-1085.150,219.630,-27.930
476,35891.472000,344.827,-2.505,178.605,391.887,-312.486,176.607,-1172.150,590.630,-509.930
477,35891.502000,175.158,-51.601,1.984,398.766,-305.167,164.036,-1641.150,320.630,-692.930
478,35891.544000,116.273,-74.646,0.992,395.890,-300.901,148.412,-1219.150,348.630,-544.930
479,35891.586000,146.214,-114.724,27.783,409.449,-301.104,133.675,-940.150,174.630,-557.930
480,35891.627000,236.039,-84.665,1.984,412.417,-295.731,121.042,-710.150,-59.370,-652.930
481,35891.649000,190.129,-76.650,51.597,422.293,-284.193,123.347,-437.150,658.630,-708.930
482,35891.687000,175.158,-35.569,65.488,428.243,-276.335,131.445,-214.150,474.630,-753.930
483,35891.721000,174.160,34.568,81.364,435.337,-256.249,136.933,-24.150,392.630,-754.930
484,35891.765000,177.154,56.611,42.667,447.218,-240.008,137.405,-108.150,-12.370,-862.930
485,35891.805000,168.172,29.558,129.984,455.309,-216.494,129.220,-64.150,121.630,-885.930
486,35891.841000,450.620,50.599,93.271,452.269,-224.338,120.144,-1028.150,-89.370,-75.930
487,35891.884000,444.632,-115.726,81.364,459.214,-213.078,113.584,-680.150,170.630,-528.930
488,35891.926000,335.844,1.503,149.829,456.269,-215.090,110.572,-123.150,-35.370,58.070
489,35891.946000,391.735,-52.603,65.488,458.145,-218.976,105.549,-147.150,-60.370,207.070
490,35891.983000,349.817,30.560,119.070,454.112,-230.195,112.116,27.850,283.630,305.070
491,35892.24000,253.006,43.585,80.372,449.145,-238.642,116.790,-308.150,428.630,319.070
492,35892.66000,195.119,-64.626,70.450,441.211,-250.914,121.354,-246.150,267.630,373.070
493,35892.109000,173.162,-37.573,63.504,433.310,-260.454,122.059,-97.150,101.630,683.070
494,35892.147000,167.173,-53.605,55.566,425.258,-280.396,122.474,-11.150,-129.370,733.070
495,35892.181000,181.146,-52.603,61.519,415.396,-290.988,120.196,-65.150,-284.370,845.070
496,35892.226000,201.107,-32.564,79.380,403.404,-314.032,112.649,15.850,-213.370,896.070
497,35892.247000,170.168,-50.599,80.372,393.574,-322.681,112.392,45.850,-60.370,687.070
498,35892.284000,186.136,-52.603,93.271,391.515,-331.140,115.104,205.850,-139.370,312.070
499,35892.322000,204.101,-38.575,83.349,389.615,-328.330,115.179,220.850,-129.370,134.070
500,35892.364000,206.097,-48.595,60.527,390.527,-332.913,119.971,446.850,-5.370,-64.930
501,35892.405000,225.060,-58.614,19.845,396.543,-320.353,127.216,582.850,-243.370,-237.930
502,35892.445000,212.086,-50.599,25.798,402.403,-318.274,131.218,774.850,-379.370,-294.930
503,35892.485000,213.084,-71.640,56.558,415.334,-297.160,136.745,939.850,-548.370,-388.930
504,35892.526000,300.912,6.513,75.411,421.247,-291.325,139.868,997.850,-571.370,-378.930
505,35892.546000,290.932,2.505,108.155,425.328,-277.952,143.198,338.850,-262.370,73.070
506,35892.586000,241.029,-40.579,107.163,425.208,-285.648,138.066,231.850,-182.370,29.070
507,35892.634000,242.027,-50.599,90.295,425.269,-281.787,141.124,212.850,-185.370,20.070
508,35892.664000,229.053,-83.663,79.380,429.128,-283.571,143.048,350.850,-77.370,27.070
509,35892.703000,254.004,-78.654,85.333,427.352,-273.012,150.224,708.850,-0.370,-8.930
510,35892.745000,260.990,-47.593,84.341,431.257,-273.429,167.924,1125.850,215.630,188.070
511,35892.782000,247.018,-30.560,81.364,426.607,-262.411,193.796,1369.850,313.630,330.070
512,35892.822000,187.135,41.581,87.318,421.818,-260.114,211.557,1266.850,214.630,465.070
513,35892.843000,197.115,95.687,63.504,413.065,-262.759,223.272,753.850,-35.370,398.070
514,35892.884000,238.035,88.673,28.775,417.942,-261.613,228.230,461.850,-48.370,199.070
515,35892.923000,295.922,6.513,36.713,415.121,-255.875,232.320,230.850,59.630,104.070
516,35892.963000,245.021,-13.526,66.481,412.115,-263.271,239.978,293.850,60.630,190.070
517,35893.7000,217.076,-19.538,79.380,411.197,-259.529,239.097,280.850,-106.370,388.070
518,35893.47000,241.029,-4.509,70.450,405.200,-271.825,241.695,235.850,-111.370,553.070
519,35893.84000,231.049,-28.556,92.279,400.269,-277.515,243.496,318.850,-43.370,440.070
520,35893.124000,223.064,-75.648,107.163,396.414,-276.440,250.405,521.850,-87.370,408.070
521,35893.144000,174.160,-75.648,88.310,396.546,-267.824,254.579,728.850,-214.370,356.070
522,35893.189000,215.080,-7.515,87.318,398.544,-264.749,262.537,986.850,-412.370,333.070
523,35893.222000,221.068,-2.505,64.496,400.393,-270.527,257.461,551.850,-568.370,362.070
524,35893.262000,223.064,-45.589,93.271,399.424,-270.515,258.443,335.850,-108.370,516.070
525,35893.309000,145.216,-23.546,64.496,395.581,-267.759,257.530,292.850,-299.370,37.070
526,35893.342000,295.922,-71.640,60.527,408.308,-260.042,256.782,530.850,-472.370,-337.930
527,35893.382000,382.752,2.505,19.845,417.358,-238.195,256.422,795.850,-504.370,-417.930
528,35893.422000,306.901,-15.530,50.605,424.162,-237.967,261.358,522.850,-248.370,195.070
529,35893.442000,297.918,-7.515,47.628,428.080,-235.154,258.492,162.850,-159.370,-178.930
530,35893.482000,253.006,-6.513,27.783,437.011,-221.765,259.863,308.850,-87.370,-645.930
531,35893.529000,301.910,48.595,29.767,446.828,-214.824,266.957,379.850,161.630,-282.930
532,35893.570000,233.045,-11.523,23.814,438.200,-208.170,273.030,272.850,335.630,178.070
533,35893.605000,208.094,42.583,-16.868,436.226,-210.929,276.884,150.850,13.630,191.070
534,35893.645000,225.060,51.601,-32.744,436.129,-217.549,276.700,-171.150,-84.370,51.070
535,35893.685000,271.969,-49.597,-27.783,433.115,-223.527,266.692,-411.150,-130.370,69.070
536,35893.705000,269.973,-60.618,-11.907,435.983,-226.349,265.635,-137.150,94.630,220.070
537,35893.749000,231.049,-43.585,-9.922,431.207,-221.584,269.694,196.850,-7.370,110.070
538,35893.784000,233.045,-5.511,-6.946,435.225,-212.860,275.845,475.850,31.630,-176.930
539,35893.825000,219.072,1.503,-11.907,433.320,-210.891,279.831,562.850,-38.370,-245.930
540,35893.866000,254.004,-1.503,0.000,434.648,-187.053,287.382,728.850,-97.370,-320.930
541,35893.906000,280.951,3.507,14.884,437.763,-173.641,292.678,1031.850,-41.370,-258.930
542,35893.946000,296.920,87.671,22.822,441.944,-153.596,298.161,1106.850,-213.370,-73.930
543,35893.987000,376.764,75.648,-18.853,440.042,-150.813,297.251,801.850,-334.370,366.070
544,35894.6000,335.844,63.624,19.845,438.181,-145.954,303.285,566.850,-130.370,405.070
545,35894.46000,287.938,-17.534,60.527,434.197,-152.708,300.139,-60.150,-81.370,-135.930
546,35894.86000,198.113,-104.704,112.124,438.293,-137.601,297.616,-140.150,-62.370,-362.930
547,35894.126000,125.255,-21.542,132.961,439.286,-136.537,301.581,251.850,37.630,-176.930
548,35894.166000,208.094,21.542,123.039,440.150,-143.274,296.477,-123.150,-315.370,353.070
549,35894.206000,337.840,61.620,49.612,434.988,-164.226,292.935,-594.150,-17.370,225.070
550,35894.245000,192.125,44.587,53.581,435.018,-162.308,293.972,-666.150,191.630,-211.930
551,35894.287000,254.004,45.589,38.698,426.211,-167.186,292.838,-994.150,529.630,-554.930
552,35894.307000,276.959,1.503,15.876,424.162,-174.753,293.608,-1110.150,511.630,-366.930
553,35894.347000,229.053,-23.546,-0.992,420.176,-180.745,283.598,-1180.150,134.630,-270.930
554,35894.387000,219.072,-8.517,28.775,422.929,-191.211,279.377,-1084.150,164.630,-107.930
555,35894.427000,208.094,-16.532,12.899,413.847,-213.479,263.989,-1223.150,-100.370,38.070
556,35894.467000,237.037,-23.546,22.822,419.568,-219.333,253.999,-1153.150,-210.370,88.070
557,35894.506000,242.027,-50.599,42.667,419.186,-243.474,234.639,-1060.150,-161.370,236.070
558,35894.548000,244.023,-48.595,52.589,415.226,-247.602,223.697,-708.150,-69.370,143.070
559,35894.589000,260.990,-6.513,77.395,412.106,-261.092,215.448,-506.150,-67.370,119.070
560,35894.609000,257.996,-7.515,81.364,405.317,-260.348,211.523,-453.150,-18.370,171.070
561,35894.649000,269.973,3.507,59.535,402.167,-275.756,202.237,-472.150,94.630,146.070
562,35894.696000,325.864,55.609,53.581,396.307,-277.836,198.234,-717.150,211.630,-32.930
563,35894.726000,307.899,63.624,56.558,395.159,-289.355,192.010,-1462.150,624.630,-302.930
564,35894.766000,192.125,-15.530,23.814,397.080,-288.829,175.307,-2018.150,736.630,-696.930
565,35894.808000,142.222,-115.726,24.806,402.811,-293.791,163.375,-1612.150,502.630,-840.930
566,35894.848000,191.127,-106.708,49.612,408.768,-282.782,147.954,-1378.150,370.630,-669.930
567,35894.888000,202.105,-101.699,39.690,416.420,-288.741,133.047,-1265.150,188.630,-537.930
568,35894.907000,254.004,-73.644,42.667,419.464,-278.561,123.499,-917.150,200.630,-536.930
569,35894.950000,227.057,-94.685,44.651,419.447,-278.771,115.624,-704.150,312.630,-509.930
570,35894.988000,216.078,-43.585,89.302,425.505,-262.613,116.084,-345.150,394.630,-753.930
571,35895.31000,266.979,27.554,117.085,440.271,-248.222,116.509,-428.150,460.630,-811.930
572,35895.65000,214.082,22.544,103.194,442.405,-234.956,116.882,-868.150,438.630,-754.930
573,35895.109000,217.076,-8.517,94.264,448.441,-219.849,113.378,-750.150,244.630,-931.930
574,35895.145000,250.012,-13.526,111.132,457.336,-209.218,117.623,-286.150,402.630,-933.930
575,35895.190000,211.088,27.554,116.093,465.351,-192.060,119.097,-285.150,237.630,-630.930
576,35895.205000,233.045,13.526,61.519,466.479,-181.565,122.342,-189.150,168.630,-379.930
577,35895.246000,242.027,55.609,138.915,462.640,-179.518,130.261,-45.150,478.630,-84.930
578,35895.290000,261.988,40.579,141.891,463.485,-188.042,129.042,-703.150,151.630,15.070
579,35895.330000,342.830,-6.513,90.295,464.504,-183.563,119.332,-784.150,-115.370,-44.930
580,35895.368000,206.097,75.648,89.302,460.354,-200.903,109.007,-935.150,-55.370,359.070
581,35895.408000,207.096,68.634,78.388,460.152,-212.724,90.972,-1428.150,-305.370,329.070
582,35895.450000,222.066,-69.636,52.589,458.949,-226.503,70.915,-1256.150,-400.370,50.070
583,35895.490000,220.070,-21.542,11.907,462.931,-217.492,52.484,-1185.150,-362.370,-5.930
584,35895.516000,309.895,-77.652,18.853,460.870,-222.906,27.739,-914.150,-405.370,-171.930
585,35895.550000,249.014,-96.689,19.845,465.883,-211.569,25.112,-94.150,-22.370,-276.930
586,35895.586000,217.076,-61.620,22.822,469.714,-215.244,26.984,29.850,-140.370,-66.930
587,35895.627000,252.008,-38.575,13.891,468.732,-216.177,27.940,-10.150,245.630,8.070
588,35895.670000,202.105,0.501,45.643,470.750,-211.316,32.013,-344.150,322.630,35.070
589,35895.711000,161.185,-56.611,7.938,467.834,-210.648,23.174,-942.150,-65.370,43.070
590,35895.746000,325.864,-113.722,159.752,468.629,-221.352,11.074,-632.150,30.630,142.070
591,35895.795000,360.795,16.532,261.953,469.589,-221.470,6.155,-402.150,-313.370,-14.930
592,35895.808000,317.879,65.628,125.023,473.408,-223.780,-11.608,-497.150,-573.370,283.070
593,35895.849000,319.875,75.648,91.287,473.406,-222.284,-26.321,-265.150,-466.370,136.070
594,35895.887000,225.060,-100.697,138.915,470.393,-228.997,-28.480,199.850,-184.370,195.070
595,35895.931000,191.127,-26.552,73.426,467.826,-4.991,-23.237,732.850,-319.370,758.070
596,35895.967000,216.078,-8.517,80.372,457.310,-262.063,-21.552,874.850,-382.370,684.070
597,35896.10000,199.111,-22.544,52.589,452.287,-273.532,-23.847,635.850,-510.370,648.070
598,35896.51000,192.125,-53.605,46.636,440.400,-290.613,-20.408,880.850,-596.370,588.070
599,35896.66000,259.992,-103.703,37.705,433.433,-303.684,-10.947,1140.850,-522.370,618.070
600,35896.106000,274.963,-77.652,32.744,431.331,-315.768,-2.434,1455.850,-397.370,624.070
601,35896.151000,238.035,-11.523,31.752,419.653,-320.161,16.112,1476.850,-334.370,508.070
602,35896.186000,231.049,15.530,39.690,415.589,-334.846,34.386,1110.850,-131.370,401.070
603,35896.229000,235.041,-8.517,34.729,412.758,-330.763,47.281,753.850,-60.370,184.070
604,35896.269000,210.090,-22.544,16.868,416.560,-337.116,54.980,603.850,-102.370,19.070
605,35896.308000,185.138,-55.609,19.845,418.630,-329.287,64.054,785.850,-99.370,-96.930
606,35896.349000,192.125,-30.560,55.566,424.499,-327.076,72.978,856.850,-185.370,-275.930
607,35896.368000,263.984,27.554,62.512,436.401,-309.811,76.429,657.850,-376.370,-378.930
608,35896.408000,303.906,44.587,99.225,438.336,-309.862,73.480,283.850,-189.370,-238.930
609,35896.449000,280.951,-12.524,52.589,436.481,-304.163,75.602,-142.150,-126.370,-61.930
610,35896.489000,238.035,-61.620,48.620,440.317,-307.024,72.578,-285.150,65.630,-199.930
611,35896.529000,230.051,-100.697,46.636,448.329,-289.893,73.068,72.850,58.630,-285.930
612,35896.573000,237.037,-79.656,47.628,449.277,-292.479,81.850,541.850,65.630,-127.930
613,35896.607000,270.971,-65.628,33.736,451.333,-285.595,90.898,770.850,180.630,-38.930
614,35896.647000,297.918,-45.589,51.597,454.259,-286.892,111.522,957.850,369.630,-48.930
615,35896.667000,229.053,-31.562,72.434,446.568,-284.506,134.199,1017.850,296.630,172.070
616,35896.709000,166.175,7.515,80.372,448.593,-281.088,154.953,1121.850,94.630,267.070
617,35896.747000,240.031,53.605,48.620,450.696,-271.289,167.033,1010.850,-160.370,202.070
618,35896.790000,257.996,43.585,45.643,445.866,-270.280,171.971,799.850,-50.370,320.070
619,35896.841000,231.049,-13.526,59.535,439.037,-273.896,181.695,783.850,-23.370,458.070
620,35896.868000,216.078,-2.505,69.457,436.035,-281.239,191.321,876.850,-213.370,430.070
621,35896.908000,229.053,-6.513,56.558,430.261,-279.140,202.190,830.850,-265.370,572.070
622,35896.950000,238.035,-9.519,64.496,431.204,-281.779,209.003,960.850,-116.370,534.070
623,35896.970000,228.055,-12.524,79.380,420.553,-281.588,221.777,1102.850,-163.370,619.070
624,35897.10000,235.041,-27.554,80.372,416.647,-284.243,230.549,922.850,-286.370,691.070
625,35897.50000,243.025,-10.521,86.326,412.777,-284.140,236.448,737.850,-255.370,572.070
626,35897.90000,189.131,-105.706,88.310,406.945,-285.089,239.362,631.850,-236.370,586.070
627,35897.130000,191.127,-103.703,96.248,405.991,-284.892,247.235,1024.850,-415.370,343.070
628,35897.177000,242.027,-31.562,24.806,415.864,-273.381,248.555,839.850,-753.370,-22.930
629,35897.206000,311.891,-15.530,22.822,426.808,-254.422,245.167,748.850,-547.370,-494.930
630,35897.247000,340.834,3.507,52.589,440.655,-237.077,250.590,835.850,-72.370,-571.930
631,35897.279000,315.883,-11.523,14.884,442.709,-230.219,258.653,695.850,35.630,-399.930
632,35897.322000,268.975,-12.524,5.953,446.952,-207.074,274.059,1022.850,-51.370,-134.930
633,35897.351000,252.008,87.671,-9.922,448.070,-197.473,279.246,876.850,-122.370,83.070
634,35897.398000,232.047,41.581,7.938,451.075,-191.626,284.331,297.850,94.630,22.070
635,35897.429000,223.064,14.528,14.884,446.133,-198.209,288.074,-44.150,78.630,-63.930
636,35897.469000,252.008,-21.542,1.984,447.143,-195.384,287.171,76.850,24.630,-7.930
637,35897.509000,242.027,-17.534,10.915,445.300,-188.766,288.335,266.850,4.630,-7.930
638,35897.549000,233.045,4.509,-2.977,443.508,-179.179,294.501,365.850,-55.370,-48.930
639,35897.569000,239.033,33.566,-5.953,447.365,-180.989,295.441,373.850,35.630,-159.930
640,35897.616000,230.051,35.569,0.992,447.584,-166.647,301.741,423.850,64.630,-203.930
641,35897.650000,231.049,28.556,18.853,447.570,-168.354,308.579,441.850,86.630,-165.930
642,35897.690000,242.027,12.524,24.806,444.904,-151.400,308.063,429.850,-160.370,-127.930
643,35897.730000,352.811,-4.509,40.682,446.035,-140.091,306.412,419.850,-284.370,94.070
644,35897.770000,343.828,66.630,92.279,444.014,-145.766,307.234,365.850,-90.370,466.070
645,35897.811000,312.889,20.540,16.868,443.937,-150.600,303.165,18.850,-293.370,329.070
646,35897.851000,281.949,20.540,31.752,441.850,-160.189,298.961,-377.150,-69.370,287.070
647,35897.871000,247.018,4.509,37.705,438.747,-172.681,292.706,-764.150,33.630,-148.930
648,35897.911000,175.158,-77.652,52.589,440.704,-170.921,286.857,-729.150,-124.370,-245.930
649,35897.951000,164.179,-77.652,83.349,443.486,-179.469,283.673,-382.150,-42.370,-103.930
650,35897.990000,218.074,6.513,103.194,449.272,-180.648,271.847,-764.150,-397.370,-77.930
651,35898.30000,277.957,-3.507,67.473,450.030,-193.375,254.773,-665.150,-157.370,121.070
652,35898.71000,270.971,-0.501,34.729,453.941,-190.641,248.954,-787.150,134.630,-416.930
653,35898.122000,318.877,74.646,32.744,452.820,-201.057,248.662,-1134.150,200.630,-386.930
654,35898.151000,291.930,18.536,26.791,455.674,-203.302,233.850,-1800.150,233.630,-561.930
655,35898.171000,244.023,-0.501,24.806,457.363,-218.826,217.683,-1990.150,275.630,-560.930
656,35898.211000,219.072,-18.536,35.721,459.236,-221.216,197.948,-2126.150,189.630,-557.930
657,35898.250000,229.053,1.503,42.667,459.051,-232.065,180.925,-2138.150,216.630,-386.930
658,35898.291000,194.121,-26.552,50.605,459.803,-244.871,160.897,-1984.150,228.630,-264.930
659,35898.331000,225.060,-21.542,77.395,460.548,-257.756,137.917,-2086.150,200.630,38.070
660,35898.371000,211.088,-61.620,92.279,456.551,-263.906,122.002,-1817.150,494.630,-156.930
661,35898.411000,346.823,-25.550,17.860,461.447,-260.213,116.211,-1576.150,577.630,-680.930
662,35898.451000,168.172,11.523,-18.853,462.338,-264.298,104.296,-1385.150,184.630,81.070
663,35898.471000,237.037,-91.679,-27.783,461.200,-273.401,82.401,-1192.150,-120.370,-0.930
664,35898.512000,305.903,-73.644,-10.915,460.213,-272.864,67.660,-965.150,-30.370,-28.930
665,35898.552000,225.060,-114.724,-7.938,461.040,-282.386,64.446,-725.150,538.630,-159.930
666,35898.592000,163.181,-98.693,145.860,459.118,-281.389,67.421,-317.150,598.630,37.070
667,35898.631000,185.138,112.720,58.543,455.232,-281.497,65.445,-619.150,-64.370,79.070
668,35898.671000,306.901,19.538,23.814,466.024,-271.417,48.038,-735.150,-161.370,-602.930
669,35898.711000,248.016,-71.640,30.760,469.041,-263.102,39.422,-574.150,-12.370,-309.930
670,35898.731000,250.012,7.515,115.101,473.916,-261.983,43.396,-306.150,112.630,-319.930
671,35898.778000,312.889,4.509,70.450,473.849,-265.162,30.520,-596.150,-85.370,-33.930
672,35898.813000,284.943,-32.564,59.535,474.941,-255.902,22.911,-554.150,3.630,-63.930
673,35898.849000,262.986,-28.556,76.403,477.882,-253.943,23.954,-277.150,202.630,-118.930
674,35898.890000,235.041,-22.544,84.341,475.957,-252.999,24.961,3.850,299.630,-112.930
675,35898.930000,215.080,-6.513,83.349,477.844,-257.515,31.723,110.850,83.630,-17.930
676,35898.971000,254.004,8.517,60.527,475.891,-258.462,32.677,76.850,51.630,11.070
677,35899.11000,232.047,-15.530,82.357,475.002,-252.802,32.833,-71.150,73.630,-8.930
678,35899.31000,233.045,-36.571,79.380,483.715,-254.517,34.767,2.850,55.630,-136.930
679,35899.72000,231.049,-50.599,74.419,482.819,-249.724,37.850,529.850,-7.370,-101.930
680,35899.111000,217.076,1.503,62.512,481.861,-250.341,50.618,844.850,137.630,19.070
681,35899.150000,233.045,17.534,48.620,481.999,-242.407,64.610,842.850,32.630,22.070
682,35899.190000,197.115,-30.560,52.589,479.003,-248.910,70.325,669.850,-48.370,13.070
683,35899.231000,266.979,23.546,44.651,481.019,-244.075,73.414,565.850,-45.370,130.070
684,35899.271000,248.016,-4.509,29.767,477.089,-247.807,77.238,204.850,-222.370,233.070
685,35899.318000,237.037,-30.560,30.760,478.011,-250.736,73.224,120.850,-251.370,286.070
686,35899.332000,261.988,-9.519,50.605,469.053,-266.016,71.800,110.850,-16.370,298.070
687,35899.372000,252.008,-6.513,60.527,470.067,-263.139,72.865,-126.150,-40.370,221.070
688,35899.415000,236.039,-21.542,69.457,468.982,-270.771,70.684,-163.150,-30.370,90.070
689,35899.451000,257.996,36.571,68.465,471.917,-268.129,61.910,-493.150,-15.370,57.070
690,35899.492000,247.018,0.501,70.450,469.903,-272.176,52.942,-760.150,13.630,-89.930
691,35899.532000,251.010,-0.501,53.581,473.798,-269.653,39.248,-990.150,-27.370,-182.930
692,35899.573000,265.980,-41.581,51.597,476.674,-270.847,28.400,-1064.150,-7.370,-195.930
693,35899.613000,248.016,-47.593,53.581,477.770,-260.773,15.895,-964.150,55.630,-170.930
694,35899.633000,239.033,-31.562,51.597,478.703,-262.021,4.058,-922.150,186.630,-233.930
695,35899.675000,242.027,-28.556,63.504,483.746,-247.979,-3.411,-980.150,138.630,-273.930
696,35899.713000,253.006,-88.673,26.791,486.636,-248.227,-14.233,-1180.150,-24.370,-84.930
697,35899.753000,256.000,-128.751,19.845,487.645,-243.880,-28.865,-812.150,73.630,-105.930
698,35899.793000,270.971,-131.757,51.597,492.547,-240.108,-31.702,-222.150,139.630,-165.930
699,35899.833000,255.002,-73.644,45.643,494.527,-238.819,-19.860,561.850,246.630,-103.930
700,35899.885000,183.142,63.624,91.287,493.444,-247.185,-14.193,334.850,-80.370,300.070
701,35899.911000,203.103,63.624,109.147,491.611,-239.674,-14.970,-74.150,-210.370,38.070
702,35899.930000,246.020,62.622,76.403,499.427,-234.311,-30.546,-430.150,-414.370,-263.930
703,35899.971000,227.057,-38.575,79.380,501.395,-230.870,-44.217,-119.150,-349.370,-136.930
704,35900.11000,267.977,-65.628,85.333,500.343,-235.770,-50.257,350.850,-431.370,135.070
705,35900.61000,310.893,-41.581,93.271,497.296,-245.241,-49.542,574.850,-238.370,310.070
706,35900.111000,289.934,-51.601,100.217,496.265,-250.639,-38.874,684.850,118.630,341.070
707,35900.151000,258.994,-68.634,70.450,484.504,-260.706,-20.485,967.850,124.630,521.070
708,35900.175000,212.086,-57.613,39.690,483.301,-279.079,-0.343,1328.850,129.630,603.070
709,35900.210000,195.119,-40.579,35.721,476.483,-282.537,15.287,1647.850,98.630,434.070
710,35900.230000,196.117,-31.562,56.558,474.502,-288.447,42.661,1555.850,4.630,370.070
711,35900.273000,209.092,1.503,43.659,467.644,-295.502,65.076,1510.850,-34.370,141.070
712,35900.313000,239.033,-18.536,73.426,472.701,-284.347,90.969,1251.850,147.630,182.070
713,35900.353000,245.021,49.597,65.488,467.825,-287.777,106.603,1040.850,39.630,47.070
714,35900.393000,277.957,30.560,51.597,467.827,-287.751,107.587,451.850,-193.370,158.070
715,35900.434000,248.016,-56.611,39.690,470.729,-288.603,109.535,520.850,-358.370,23.070
716,35900.473000,283.945,10.521,41.674,473.725,-282.861,110.684,738.850,-281.370,25.070
717,35900.494000,261.988,65.628,49.612,468.904,-281.747,119.559,620.850,-79.370,104.070
718,35900.531000,223.064,41.581,65.488,470.928,-276.807,126.585,395.850,-22.370,9.070
719,35900.585000,255.002,36.571,67.473,468.009,-277.715,129.506,195.850,-30.370,-8.930
720,35900.613000,240.031,24.548,54.574,470.936,-276.702,130.523,185.850,10.630,80.070
721,35900.657000,229.053,11.523,58.543,464.144,-277.533,138.357,333.850,48.630,87.070
722,35900.695000,245.021,9.519,65.488,468.054,-275.587,138.418,429.850,-35.370,124.070
723,35900.741000,250.012,12.524,73.426,464.074,-283.049,144.105,459.850,-19.370,116.070
724,35900.775000,252.008,19.538,82.357,462.280,-274.250,156.150,512.850,51.630,-15.930
725,35900.795000,234.043,-3.507,83.349,459.369,-275.053,163.008,423.850,36.630,-33.930
726,35900.830000,209.092,-1.503,75.411,461.456,-265.464,167.213,241.850,7.630,-66.930
727,35900.875000,260.990,-34.568,69.457,457.484,-271.271,164.094,-167.150,19.630,-20.930
728,35900.915000,261.988,-65.628,39.690,458.520,-266.582,162.259,-288.150,-38.370,7.070
729,35900.951000,261.988,-66.630,31.752,459.400,-272.347,158.165,-167.150,-37.370,158.070
730,35900.991000,225.060,-70.638,31.752,456.486,-272.415,157.175,-32.150,-49.370,216.070
731,35901.32000,250.012,-52.603,33.736,450.516,-282.059,152.962,66.850,-108.370,201.070
732,35901.70000,239.033,-19.538,46.636,451.532,-279.156,155.012,110.850,88.630,32.070
733,35901.92000,228.055,-30.560,61.519,446.595,-285.686,160.724,40.850,141.630,-101.930
734,35901.132000,231.049,-31.562,63.504,452.590,-274.177,164.005,-39.150,56.630,-197.930
735,35901.173000,233.045,-18.536,73.426,456.551,-268.501,162.202,-126.150,25.630,-211.930
736,35901.220000,236.039,-32.564,61.519,455.609,-265.836,156.373,-216.150,26.630,-272.930
737,35901.255000,234.043,-45.589,64.496,464.345,-265.712,156.391,-174.150,-45.370,-270.930
738,35901.296000,240.031,-62.622,72.434,466.371,-259.223,150.673,-118.150,-78.370,-198.930
739,35901.336000,254.004,-65.628,57.550,472.159,-261.137,146.695,-99.150,-104.370,-132.930
740,35901.373000,277.957,-62.622,58.543,468.347,-256.438,147.803,38.850,6.630,-99.930
741,35901.393000,257.996,-69.636,55.566,468.418,-252.444,155.783,271.850,179.630,-92.930
742,35901.433000,237.037,-7.515,81.364,470.343,-254.938,167.520,659.850,224.630,64.070
743,35901.474000,192.125,29.558,72.434,470.384,-252.862,174.463,642.850,55.630,198.070
744,35901.513000,242.027,29.558,53.581,472.385,-249.000,176.541,546.850,-208.370,112.070
745,35901.560000,259.992,31.562,69.457,473.481,-241.210,184.629,602.850,-108.370,141.070
746,35901.605000,240.031,30.560,70.450,469.583,-242.999,190.474,650.850,-102.370,424.070
747,35901.632000,223.064,13.526,69.457,465.516,-256.187,194.035,632.850,-234.370,525.070
748,35901.675000,224.062,12.524,73.426,458.657,-260.959,195.858,610.850,-246.370,567.070
749,35901.702000,231.049,22.544,88.310,452.817,-262.013,194.835,560.850,-249.370,625.070
750,35901.731000,218.074,-22.544,94.264,445.936,-268.597,199.559,593.850,-177.370,673.070
751,35901.772000,226.058,-35.569,91.287,442.915,-276.965,206.206,663.850,-190.370,577.070
752,35901.813000,206.097,-73.644,88.310,439.903,-285.201,217.775,720.850,-100.370,570.070
753,35901.853000,220.070,-74.646,88.310,437.027,-283.246,221.759,811.850,-105.370,451.070
754,35901.897000,201.107,-20.540,71.442,438.169,-272.567,231.894,980.850,-189.370,-340.930
755,35901.932000,311.891,102.701,34.729,452.104,-248.707,233.565,739.850,-396.370,-588.930
756,35901.971000,419.680,54.607,-31.752,465.905,-233.490,230.077,-126.150,-412.370,-651.930
757,35901.992000,251.010,-57.613,-19.845,464.073,-225.191,223.419,-61.150,15.630,-278.930
758,35902.40000,266.979,-16.532,-22.822,469.903,-225.029,226.384,421.850,-214.370,0.070
759,35902.73000,272.967,42.583,-12.899,473.910,-216.464,226.629,288.850,-92.370,80.070
760,35902.115000,219.072,12.524,7.938,471.921,-219.407,223.593,-28.150,-95.370,59.070
761,35902.155000,261.988,-23.546,-2.977,470.943,-220.288,226.518,230.850,-132.370,100.070
762,35902.196000,263.984,-2.505,8.930,471.821,-226.841,228.305,440.850,24.630,77.070
763,35902.236000,216.078,38.575,17.860,472.918,-219.051,236.392,436.850,67.630,-102.930
764,35902.276000,242.027,27.554,8.930,470.154,-209.504,241.571,448.850,52.630,-132.930
765,35902.296000,252.008,-1.503,9.922,473.180,-202.607,250.620,545.850,42.630,-97.930
766,35902.336000,249.014,30.560,34.729,470.453,-190.276,253.910,598.850,101.630,53.070
767,35902.376000,280.951,31.562,44.651,466.637,-186.390,259.913,548.850,59.630,94.070
768,35902.416000,321.871,3.507,12.899,461.780,-187.273,264.798,500.850,-111.370,181.070
769,35902.453000,309.895,49.597,29.767,459.988,-177.686,270.963,572.850,25.630,324.070
770,35902.493000,281.949,40.579,34.729,459.830,-188.955,273.601,237.850,80.630,264.070
771,35902.533000,265.980,-9.519,46.636,457.042,-181.247,280.696,-109.150,-6.370,-133.930
772,35902.573000,239.033,-106.708,63.504,455.006,-187.106,274.628,-121.150,-56.370,-188.930
773,35902.593000,165.177,-60.618,95.256,455.167,-176.572,279.839,207.850,44.630,-133.930
774,35902.635000,242.027,7.515,95.256,449.245,-183.301,278.658,-67.150,-75.370,278.070
775,35902.677000,268.975,27.554,61.519,449.217,-185.192,278.605,-344.150,85.630,170.070
776,35902.712000,236.039,47.593,52.589,446.197,-192.772,279.373,-529.150,348.630,-380.930
777,35902.756000,238.035,38.575,47.628,444.305,-189.096,276.521,-729.150,396.630,-443.930
778,35902.797000,281.949,0.501,40.682,443.236,-195.755,275.351,-885.150,260.630,-412.930
779,35902.833000,266.979,-4.509,40.682,443.246,-194.862,273.408,-797.150,334.630,-366.930
780,35902.853000,228.055,-17.534,38.698,441.240,-199.565,275.241,-724.150,382.630,-234.930
781,35902.900000,212.086,-13.526,54.574,437.304,-203.377,276.112,-652.150,295.630,-174.930
782,35902.933000,207.096,21.542,65.488,434.205,-215.816,271.827,-637.150,199.630,-100.930
783,35902.973000,213.084,22.544,59.535,432.248,-216.055,263.948,-741.150,95.630,-43.930
784,35903.15000,233.045,-9.519,44.651,432.094,-225.721,255.810,-822.150,-37.370,-18.930
785,35903.55000,230.051,-13.526,49.612,432.941,-233.457,248.711,-730.150,-47.370,49.070
786,35903.101000,245.021,-5.511,61.519,428.889,-244.151,239.554,-647.150,-64.370,202.070
787,35903.136000,260.990,-26.552,76.403,420.886,-259.628,230.258,-546.150,-47.370,209.070
788,35903.155000,248.016,-19.538,79.380,422.717,-266.404,223.187,-502.150,-26.370,126.070
789,35903.195000,249.014,23.546,68.465,420.749,-267.535,217.251,-643.150,79.630,9.070
790,35903.241000,262.986,26.552,66.481,421.566,-277.189,209.115,-844.150,152.630,-23.930
791,35903.276000,282.947,17.534,85.333,414.628,-286.059,199.020,-999.150,278.630,-186.930
792,35903.317000,245.021,-26.552,87.318,418.453,-289.051,191.074,-1135.150,367.630,-303.930
793,35903.357000,146.214,-45.589,24.806,419.288,-296.945,178.069,-1219.150,354.630,-468.930
794,35903.397000,171.166,-122.740,45.643,428.172,-285.684,170.529,-664.150,48.630,-580.930
795,35903.437000,255.002,-63.624,59.535,428.168,-284.975,161.696,-315.150,-125.370,-348.930
796,35903.456000,266.979,-32.564,51.597,432.090,-281.348,153.935,-430.150,-51.370,-305.930
797,35903.495000,233.045,-33.566,54.574,436.009,-278.509,152.053,-514.150,111.630,-602.930
798,35903.535000,237.037,-9.519,54.574,445.985,-259.538,149.647,-395.150,204.630,-744.930
799,35903.575000,232.047,-14.528,90.295,452.852,-253.900,144.897,-413.150,273.630,-793.930
800,35903.615000,215.080,3.507,101.209,457.970,-235.811,147.376,-477.150,426.630,-765.930
801,35903.655000,224.062,17.534,110.140,462.942,-228.072,151.534,-528.150,415.630,-739.930
802,35903.696000,152.203,56.611,138.915,472.935,-208.103,151.123,-532.150,296.630,-952.930
803,35903.736000,231.049,1.503,112.124,478.896,-197.041,137.670,-470.150,-261.370,-794.930
804,35903.756000,293.926,35.569,88.310,485.942,-179.109,133.262,-207.150,-75.370,-516.930
805,35903.798000,232.047,42.583,105.178,483.008,-180.202,129.293,-181.150,-55.370,-306.930
806,35903.833000,283.945,59.616,77.395,488.961,-170.768,125.631,-147.150,-140.370,-330.930
807,35903.875000,265.980,37.573,103.194,489.910,-171.805,121.669,-170.150,49.630,-193.930
808,35903.916000,287.938,69.636,93.271,489.085,-161.496,119.003,-375.150,-13.370,-80.930
809,35903.957000,285.942,67.632,79.380,491.890,-168.206,113.903,-596.150,50.630,19.070
810,35903.998000,251.010,47.593,104.186,491.729,-178.740,108.692,-913.150,43.630,138.070
811,35904.33000,254.004,57.613,88.310,488.630,-190.418,97.542,-1214.150,-90.370,185.070
812,35904.53000,220.070,38.575,71.442,484.648,-195.596,82.638,-1456.150,-10.370,201.070
813,35904.93000,167.173,-58.614,36.713,483.410,-212.133,65.454,-1456.150,34.630,109.070
814,35904.136000,209.092,-35.569,69.457,483.535,-202.835,59.811,-1247.150,45.630,-135.930
815,35904.177000,234.043,-48.595,37.705,485.401,-206.092,43.003,-1124.150,-236.370,-72.930
816,35904.217000,277.957,-71.640,0.992,483.425,-206.567,26.265,-736.150,-62.370,31.070
817,35904.265000,254.004,-37.573,17.860,484.277,-213.462,15.255,-508.150,23.630,-63.930
818,35904.301000,217.076,-60.618,-0.992,486.319,-206.762,17.412,-312.150,-138.370,8.070
819,35904.336000,221.068,-9.519,29.767,486.285,-208.733,14.406,-215.150,-38.370,98.070
820,35904.356000,221.068,-27.554,22.822,482.389,-208.972,7.507,-593.150,-96.370,101.070
821,35904.393000,272.967,-71.640,64.496,486.299,-206.264,0.704,-618.150,54.630,-100.930
822,35904.436000,301.910,-77.652,153.798,489.245,-202.704,-9.028,-439.150,-185.370,-244.930
823,35904.476000,347.821,-86.669,90.295,492.172,-200.168,-21.739,-559.150,-476.370,-30.930
824,35904.517000,379.758,63.624,35.721,495.064,-200.390,-31.577,-360.150,-301.370,82.070
825,35904.556000,242.027,9.519,150.822,494.024,-204.370,-38.575,-103.150,-98.370,299.070
826,35904.600000,159.189,42.583,102.202,488.110,-209.471,-49.546,-306.150,-340.370,189.070
827,35904.620000,236.039,37.573,70.450,491.937,-212.437,-56.507,-101.150,-488.370,-26.930
828,35904.655000,210.090,-109.714,95.256,487.869,-224.864,-59.811,140.850,-95.370,355.070
829,35904.701000,246.020,-76.650,67.473,484.865,-231.472,-58.032,708.850,-248.370,543.070
830,35904.737000,228.055,-26.552,36.713,477.796,-250.481,-58.573,808.850,-369.370,510.070
831,35904.776000,226.058,-85.667,38.698,471.862,-258.890,-51.932,1069.850,-380.370,662.070
832,35904.816000,237.037,-73.644,28.775,460.879,-281.420,-40.773,1296.850,-363.370,650.070
833,35904.857000,247.018,-55.609,21.829,456.895,-289.697,-30.191,1465.850,-469.370,540.070
834,35904.897000,246.020,-8.517,21.829,450.842,-307.325,-14.953,1449.850,-317.370,427.070
835,35904.932000,221.068,18.536,41.674,448.884,-310.635,3.640,1232.850,-144.370,263.070
836,35904.953000,208.094,-4.509,27.783,448.867,-313.156,15.373,1024.850,-90.370,47.070
837,35905.0,216.078,-27.554,46.636,451.813,-311.905,25.249,879.850,-108.370,-49.930
838,35905.36000,232.047,3.507,44.651,458.637,-310.653,33.164,734.850,-166.370,-187.930
839,35905.76000,245.021,-28.556,65.488,464.701,-295.177,43.441,641.850,-87.370,-353.930
840,35905.117000,282.947,-41.581,78.388,466.670,-294.020,50.361,611.850,32.630,-268.930
841,35905.157000,274.963,-45.589,39.690,471.727,-281.342,62.526,576.850,114.630,-81.930
842,35905.197000,247.018,-92.681,44.651,470.702,-286.661,76.147,947.850,183.630,-53.930
843,35905.217000,233.045,-33.566,76.403,474.766,-276.570,98.074,1327.850,82.630,195.070
844,35905.257000,218.074,59.616,75.411,466.886,-286.608,115.486,1383.850,-72.370,424.070
845,35905.297000,233.045,69.636,68.465,465.989,-283.364,131.313,1193.850,-84.370,342.070
846,35905.338000,256.000,-4.509,64.496,463.060,-285.926,143.040,1094.850,-69.370,311.070
847,35905.378000,217.076,-0.501,65.488,459.268,-281.725,160.855,1102.850,-132.370,460.070
848,35905.426000,240.031,26.552,68.465,454.345,-288.071,173.457,1002.850,-148.370,446.070
849,35905.456000,229.053,19.538,60.527,453.445,-283.330,174.571,793.850,-181.370,353.070
850,35905.496000,225.060,-9.519,56.558,448.477,-292.565,185.126,761.850,-181.370,350.070
851,35905.516000,245.021,-1.503,75.411,447.607,-286.669,194.141,843.850,-100.370,394.070
852,35905.556000,226.058,-0.501,65.488,441.677,-295.025,202.751,744.850,-179.370,488.070
853,35905.596000,243.025,-31.562,64.496,434.985,-288.423,205.874,674.850,-142.370,521.070
854,35905.636000,198.113,-38.575,65.488,431.891,-302.332,217.285,604.850,-1.370,572.070
855,35905.676000,201.107,-42.583,60.527,423.192,-300.433,222.241,594.850,-121.370,495.070
856,35905.716000,210.090,-113.722,55.566,421.159,-307.789,230.886,730.850,-139.370,523.070
857,35905.756000,289.934,46.591,60.527,421.340,-296.231,239.076,634.850,-194.370,56.070
858,35905.800000,339.836,76.650,67.473,425.339,-288.532,242.248,31.850,-201.370,-750.930
859,35905.816000,373.770,39.577,-24.806,437.167,-274.524,229.871,-418.150,-171.370,-730.930
860,35905.857000,291.930,-46.591,25.798,448.840,-271.733,222.099,-403.150,67.630,-620.930
861,35905.897000,273.965,-127.750,67.473,452.962,-255.523,225.508,165.850,27.630,-289.930
862,35905.942000,213.084,-55.609,71.442,451.033,-255.393,231.410,655.850,50.630,20.070
863,35905.978000,240.031,-16.532,35.721,453.032,-252.318,239.368,838.850,-229.370,213.070
864,35906.18000,212.086,36.571,-14.884,451.222,-243.729,243.538,650.850,-348.370,194.070
865,35906.58000,239.033,57.613,8.930,449.322,-240.920,243.613,348.850,-242.370,133.070
866,35906.98000,232.047,-9.519,19.845,449.257,-245.596,245.450,-49.150,78.630,-22.930
867,35906.118000,218.074,-16.532,6.946,456.940,-251.159,245.308,152.850,-44.370,-208.930
868,35906.158000,284.943,-7.515,-6.946,456.237,-233.127,248.759,615.850,-124.370,-86.930
869,35906.197000,282.947,9.519,-17.860,457.412,-219.717,255.036,962.850,-173.370,105.070
870,35906.237000,296.920,49.597,11.907,452.728,-209.908,271.039,1039.850,17.630,226.070
871,35906.278000,282.947,86.669,20.837,447.824,-213.706,272.892,480.850,123.630,195.070
872,35906.318000,359.797,69.636,81.364,446.907,-210.725,278.875,-28.150,17.630,358.070
873,35906.361000,253.006,-146.787,0.992,447.857,-210.975,269.034,422.850,-439.370,-131.930
874,35906.395000,281.949,-96.689,69.457,448.964,-202.292,275.179,487.850,-170.370,52.070
875,35906.415000,216.078,-12.524,79.380,448.015,-201.255,279.140,401.850,39.630,102.070
876,35906.457000,236.039,0.501,111.132,446.180,-194.532,284.242,143.850,153.630,-59.930
877,35906.497000,271.969,31.562,76.403,445.251,-191.708,284.319,-353.150,15.630,-370.930
878,35906.535000,265.980,-4.509,59.535,449.139,-190.813,280.416,-431.150,241.630,-374.930
879,35906.581000,255.002,0.501,32.744,446.207,-192.640,284.295,-443.150,193.630,-335.930
880,35906.621000,230.051,13.526,36.713,446.264,-188.831,285.384,-401.150,332.630,-267.930
881,35906.660000,234.043,35.569,30.760,443.341,-189.792,286.336,-649.150,300.630,-474.930
882,35906.700000,237.037,5.511,37.705,440.445,-188.861,287.341,-684.150,398.630,-524.930
883,35906.720000,218.074,-31.562,46.636,438.401,-196.349,291.064,-509.150,398.630,-180.930
884,35906.758000,192.125,-24.548,49.612,433.550,-196.391,292.038,-442.150,214.630,47.070
885,35906.798000,203.103,18.536,45.643,427.512,-210.763,287.694,-621.150,66.630,223.070
886,35906.836000,230.051,16.532,46.636,423.387,-226.238,276.437,-933.150,-50.370,355.070
887,35906.877000,247.018,-14.528,66.481,420.121,-249.290,263.987,-937.150,22.630,385.070
888,35906.917000,277.957,-113.722,147.845,419.052,-255.188,255.952,-553.150,-132.370,106.070
889,35906.967000,267.977,-14.528,62.512,418.030,-258.171,250.949,-235.150,-57.370,-271.930
890,35906.997000,217.076,82.661,69.457,412.198,-258.359,247.000,-436.150,77.630,78.070
891,35907.22000,249.014,34.568,83.349,408.987,-278.390,241.519,-965.150,390.630,-6.930
892,35907.57000,242.027,-35.569,85.333,406.137,-273.020,231.828,-1091.150,326.630,-289.930
893,35907.103000,206.097,-5.511,59.535,410.853,-281.647,224.710,-1063.150,293.630,-353.930
894,35907.140000,196.117,-31.562,58.543,408.822,-286.666,214.731,-1106.150,237.630,-353.930
895,35907.181000,206.097,-54.607,49.612,415.491,-293.584,199.796,-1099.150,74.630,-328.930
896,35907.221000,237.037,-68.634,43.659,418.289,-298.850,178.015,-1071.150,-101.370,-291.930
897,35907.262000,242.027,-54.607,34.729,426.083,-294.538,158.476,-1097.150,-52.370,-433.930
898,35907.298000,236.039,-35.569,54.574,429.946,-294.746,148.640,-999.150,27.630,-724.930
899,35907.318000,235.041,-44.587,63.504,440.775,-282.644,136.208,-885.150,110.630,-777.930
900,35907.362000,231.049,-52.603,84.341,446.833,-265.725,129.804,-716.150,256.630,-784.930
901,35907.401000,235.041,-11.523,82.357,452.735,-260.021,128.005,-587.150,326.630,-730.930
902,35907.437000,197.115,-9.519,90.295,459.667,-250.468,128.282,-610.150,358.630,-691.930
903,35907.486000,210.090,-12.524,102.202,466.672,-235.374,123.796,-436.150,160.630,-654.930
904,35907.520000,240.031,5.511,108.155,473.684,-220.174,123.247,-177.150,120.630,-741.930
905,35907.560000,222.066,29.558,111.132,478.701,-208.784,122.589,-18.150,24.630,-546.930
906,35907.600000,221.068,30.560,102.202,478.895,-195.518,123.942,88.850,-32.370,-500.930
907,35907.620000,231.049,57.613,91.287,485.729,-192.612,123.050,141.850,-153.370,-281.930
908,35907.660000,253.006,65.628,87.318,485.870,-182.341,118.418,-47.150,-47.370,-161.930
909,35907.698000,272.967,24.548,69.457,485.933,-177.692,115.597,-264.150,-176.370,-85.930
910,35907.741000,324.866,26.552,60.527,486.850,-180.673,109.614,-176.150,-41.370,-7.930
911,35907.780000,298.916,47.593,87.318,486.770,-186.321,110.440,-527.150,191.630,312.070
912,35907.821000,242.027,3.507,91.287,479.676,-206.407,104.951,-907.150,50.630,410.070
913,35907.861000,247.018,19.538,83.349,479.548,-213.447,89.018,-984.150,-143.370,199.070
914,35907.901000,228.055,-13.526,83.349,474.515,-224.287,74.937,-1009.150,-124.370,228.070
915,35907.921000,225.060,-2.505,37.705,476.450,-223.577,65.124,-875.150,-203.370,-65.930
916,35907.961000,224.062,-34.568,-7.938,473.492,-224.985,49.342,-786.150,-312.370,100.070
917,35908.1000,244.023,-82.661,14.884,475.303,-232.786,39.292,-330.150,-94.370,137.070
918,35908.41000,238.035,-25.550,36.713,468.462,-236.559,43.110,75.850,79.630,157.070
919,35908.81000,254.004,-12.524,23.814,466.546,-234.722,42.174,-59.150,-27.370,204.070
920,35908.121000,261.988,-17.534,12.899,471.236,-245.213,35.989,-557.150,24.630,124.070
921,35908.161000,258.994,-28.556,12.899,466.384,-244.494,30.099,-890.150,149.630,-50.930
922,35908.201000,262.986,-68.634,18.853,472.170,-245.673,18.273,-1105.150,166.630,-209.930
923,35908.232000,291.930,-100.697,88.310,477.121,-238.197,12.587,-676.150,136.630,-218.930
924,35908.260000,295.922,-74.646,129.984,480.005,-239.286,5.677,-328.150,-133.370,-111.930
925,35908.298000,340.834,9.519,60.527,481.997,-234.767,-3.047,-423.150,-340.370,166.070
926,35908.337000,282.947,74.646,59.535,479.056,-235.965,-10.954,-444.150,-48.370,161.070
927,35908.382000,163.181,4.509,128.992,481.879,-240.915,-20.923,-351.150,-91.370,158.070
928,35908.418000,215.080,-67.632,107.163,477.862,-249.612,-26.090,-47.150,-387.370,177.070
929,35908.465000,213.084,-25.550,69.457,474.866,-255.354,-27.238,221.850,-145.370,337.070
930,35908.500000,207.096,-61.620,66.481,469.853,-266.691,-24.611,573.850,-196.370,488.070
931,35908.520000,232.047,-59.616,50.605,463.894,-276.965,-17.038,753.850,-242.370,525.070
932,35908.563000,217.076,-43.585,53.581,459.808,-291.939,-9.592,928.850,-269.370,432.070
933,35908.602000,213.084,-44.587,52.589,454.853,-299.468,-5.876,958.850,-361.370,452.070
934,35908.645000,254.004,-42.583,36.713,453.759,-308.754,0.749,1032.850,-372.370,479.070
935,35908.680000,256.000,-50.599,32.744,446.843,-318.857,15.211,1178.850,-276.370,453.070
936,35908.721000,256.998,-38.575,35.721,440.943,-326.057,31.722,1215.850,-187.370,392.070
937,35908.766000,229.053,-2.505,40.682,438.164,-318.244,42.754,1087.850,-35.370,222.070
938,35908.801000,209.092,-27.554,31.752,440.082,-321.577,58.403,954.850,-77.370,72.070
939,35908.826000,214.082,-41.581,29.767,439.159,-320.198,75.161,972.850,-169.370,-45.930
940,35908.860000,231.049,-21.542,39.690,447.012,-315.123,84.168,1070.850,-267.370,-264.930
941,35908.900000,258.994,5.511,53.581,453.987,-303.468,92.372,1003.850,-261.370,-186.930
942,35908.940000,251.010,-2.505,65.488,456.968,-299.460,99.374,793.850,-211.370,20.070
943,35908.981000,250.012,6.513,57.550,454.096,-297.452,105.327,449.850,-219.370,56.070
944,35909.23000,262.986,-22.544,72.434,458.973,-295.545,103.421,257.850,-155.370,-30.930
945,35909.57000,270.971,-33.566,63.504,459.977,-293.561,106.429,122.850,2.630,-110.930
946,35909.77000,249.014,-59.616,58.543,463.960,-286.834,108.590,169.850,89.630,-154.930
947,35909.120000,256.000,-74.646,46.636,464.990,-283.746,117.530,359.850,149.630,-145.930
948,35909.160000,273.965,-52.603,42.667,465.128,-275.813,131.521,782.850,336.630,-94.930
949,35909.201000,248.016,-8.517,75.411,465.231,-271.398,155.251,921.850,361.630,-45.930
950,35909.241000,204.101,47.593,87.318,466.287,-266.446,163.259,664.850,220.630,278.070
951,35909.281000,198.113,22.544,78.388,463.266,-275.575,176.771,597.850,45.630,174.070
952,35909.320000,254.004,14.528,38.698,463.402,-266.906,182.914,573.850,-137.370,211.070
953,35909.361000,234.043,34.568,57.550,458.509,-270.547,190.673,575.850,-22.370,361.070
954,35909.382000,232.047,8.517,71.442,456.553,-272.308,196.522,550.850,-88.370,405.070
955,35909.422000,209.092,-8.517,76.403,448.626,-283.713,198.159,480.850,-194.370,473.070
956,35909.462000,220.070,2.505,71.442,442.789,-284.741,198.121,461.850,-168.370,465.070
957,35909.502000,227.057,-8.517,89.302,440.750,-292.175,203.812,485.850,-189.370,338.070
958,35909.541000,223.064,-16.532,92.279,439.865,-286.463,205.937,493.850,-246.370,333.070
959,35909.581000,207.096,-61.620,75.411,443.611,-295.864,205.681,364.850,-338.370,294.070
960,35909.622000,207.096,-49.597,94.264,444.684,-289.152,208.821,536.850,-135.370,151.070
961,35909.663000,166.175,-54.607,67.473,440.840,-287.158,214.771,795.850,-233.370,-58.930
962,35909.683000,277.957,-16.532,40.682,456.689,-265.162,216.393,902.850,-473.370,-310.930
963,35909.722000,382.752,60.618,36.713,459.711,-257.555,216.610,609.850,-181.370,-462.930
964,35909.763000,331.852,34.568,52.589,465.828,-238.323,226.008,395.850,190.630,-372.930
965,35909.803000,298.916,-1.503,-1.984,468.811,-233.528,227.130,198.850,-128.370,-94.930
966,35909.843000,267.977,-13.526,-45.643,468.825,-232.582,227.156,170.850,-267.370,158.070
967,35909.883000,263.984,-5.511,-5.953,467.738,-241.001,230.855,265.850,72.630,155.070
968,35909.925000,233.045,-22.544,10.915,467.807,-236.273,230.986,261.850,148.630,178.070
969,35909.960000,226.058,-18.536,6.946,463.899,-238.954,238.774,364.850,64.630,142.070
970,35909.980000,227.057,-5.511,0.992,462.108,-229.367,244.939,598.850,17.630,37.070
971,35910.18000,243.025,7.515,4.961,463.142,-226.227,255.848,670.850,37.630,61.070
972,35910.58000,271.969,28.556,18.853,455.524,-216.749,261.017,650.850,88.630,203.070
973,35910.110000,281.949,57.613,33.736,450.632,-220.390,268.776,354.850,122.630,244.070
974,35910.145000,305.903,35.569,72.434,443.877,-218.437,274.721,232.850,-8.370,272.070
975,35910.178000,284.943,-5.511,22.822,440.808,-228.959,271.472,15.850,-95.370,198.070
976,35910.218000,244.023,-109.714,47.628,441.800,-227.894,275.438,120.850,-6.370,-143.930
977,35910.258000,213.084,-94.685,81.364,439.949,-222.143,279.529,377.850,1.630,-18.930
978,35910.282000,221.068,-51.601,91.287,442.950,-216.349,282.646,495.850,-61.370,93.070
979,35910.323000,258.994,30.560,94.264,441.079,-211.622,283.758,301.850,-115.370,100.070
980,35910.358000,266.979,16.532,64.496,440.183,-206.828,286.841,-194.150,-78.370,-121.930
981,35910.402000,224.062,8.517,50.605,442.075,-209.743,282.829,-197.150,42.630,-89.930
982,35910.443000,242.027,23.546,52.589,438.263,-205.044,283.936,-235.150,311.630,-454.930
983,35910.481000,261.988,18.536,59.535,441.351,-193.523,289.180,-440.150,422.630,-589.930
984,35910.522000,239.033,28.556,56.558,440.348,-195.481,287.157,-698.150,249.630,-530.930
985,35910.561000,249.014,22.544,42.667,446.042,-203.988,283.979,-958.150,262.630,-595.930
986,35910.581000,239.033,-1.503,39.690,444.181,-197.607,276.284,-1106.150,255.630,-706.930
987,35910.620000,229.053,-20.540,28.775,452.891,-198.586,270.370,-1070.150,96.630,-571.930
988,35910.662000,211.088,-1.503,22.822,452.794,-203.683,256.458,-1092.150,-53.370,-339.930
989,35910.701000,193.123,4.509,13.891,459.358,-217.326,237.401,-1090.150,-334.370,-126.930
990,35910.741000,230.051,-28.556,30.760,460.112,-230.106,218.358,-1000.150,-419.370,248.070
991,35910.786000,257.996,-64.626,84.341,452.124,-243.849,203.208,-718.150,-223.370,680.070
992,35910.821000,273.965,-145.785,95.256,441.112,-265.987,193.721,-60.150,-512.370,760.070
993,35910.861000,288.936,-39.577,60.527,443.073,-264.174,189.841,331.850,-392.370,-5.930
994,35910.881000,213.084,66.630,29.767,446.810,-273.680,185.648,171.850,-396.370,114.070
995,35910.920000,216.078,46.591,35.721,441.935,-274.800,181.674,-354.150,48.630,87.070
996,35910.962000,258.994,-55.609,54.574,443.919,-271.148,175.878,-461.150,23.630,-92.930
997,35911.1000,262.986,-61.620,53.581,448.751,-272.130,171.924,-281.150,-2.370,-149.930
998,35911.42000,236.039,-25.550,59.535,445.836,-271.436,164.069,-226.150,-66.370,-46.930
999,35911.83000,235.041,12.524,67.473,449.745,-269.516,163.146,-208.150,-76.370,-20.930
1000,35911.123000,256.000,-40.579,63.504,446.653,-281.090,155.933,-555.150,-126.370,102.070
1001,35911.163000,238.035,-43.585,51.597,444.783,-276.363,157.045,-50.150,166.630,-86.930
1002,35911.183000,260.990,-7.515,47.628,446.634,-282.114,152.954,-391.150,-5.370,-61.930
1003,35911.230000,253.006,-30.560,37.705,450.577,-277.436,149.156,-387.150,97.630,-14.930
1004,35911.265000,238.035,-20.540,35.721,447.492,-288.930,144.897,-359.150,145.630,4.070
1005,35911.302000,258.994,-26.552,48.620,447.570,-283.309,143.086,-316.150,111.630,-79.930
1006,35911.340000,244.023,-35.569,36.713,445.513,-290.981,139.919,-373.150,108.630,-62.930
1007,35911.380000,241.029,-44.587,30.760,444.676,-281.591,138.211,-198.150,46.630,-41.930
1008,35911.420000,253.006,-63.624,38.698,447.452,-290.980,138.938,-30.150,104.630,-61.930
1009,35911.466000,247.018,-42.583,35.721,448.463,-288.917,144.899,87.850,129.630,17.070
1010,35911.486000,238.035,-38.575,30.760,440.739,-286.190,144.962,138.850,14.630,18.070
1011,35911.520000,238.035,-35.569,34.729,444.678,-282.326,146.060,169.850,-63.370,24.070
1012,35911.562000,257.996,-31.562,45.643,443.641,-287.042,146.910,113.850,-83.370,18.070
1013,35911.610000,258.994,-24.548,43.659,442.647,-288.894,148.824,138.850,-103.370,30.070
1014,35911.643000,240.031,-25.550,46.636,444.623,-286.108,145.954,158.850,-97.370,42.070
1015,35911.685000,242.027,1.503,55.566,444.712,-280.356,149.065,163.850,-122.370,-19.930
1016,35911.725000,250.012,-3.507,53.581,449.555,-280.419,144.154,2.850,-84.370,-84.930
1017,35911.745000,259.992,-0.501,45.643,448.624,-277.622,143.246,53.850,-73.370,-73.930
1018,35911.785000,250.012,-4.509,44.651,451.451,-283.281,142.110,-50.150,-64.370,4.070
1019,35911.825000,248.016,-21.542,46.636,450.608,-274.731,144.314,-68.150,-22.370,-31.930
1020,35911.865000,245.021,-23.546,44.651,450.590,-275.729,142.319,-89.150,-8.370,-28.930
1021,35911.906000,247.018,-24.548,39.690,451.555,-275.795,139.368,-53.150,14.630,-28.930
1022,35911.946000,255.002,-20.540,36.713,453.498,-275.741,140.356,-33.150,-14.370,-15.930
1023,35911.986000,252.008,-24.548,31.752,449.631,-274.824,141.359,-36.150,55.630,-41.930
1024,35912.26000,248.016,-15.530,36.713,454.457,-276.646,141.316,-44.150,37.630,-42.930
1025,35912.46000,247.018,-29.558,34.729,448.543,-282.508,137.209,-107.150,18.630,-3.930
1026,35912.82000,244.023,-36.571,33.736,450.557,-277.700,139.313,-59.150,9.630,-29.930
1027,35912.122000,246.020,-24.548,35.721,453.384,-283.358,138.177,-19.150,-63.370,-3.930
1028,35912.161000,244.023,-21.542,34.729,455.416,-276.790,135.412,7.850,-138.370,27.070
1029,35912.208000,255.002,-14.528,33.736,455.378,-278.813,130.438,26.850,-163.370,-16.930
1030,35912.245000,251.010,-6.513,33.736,455.470,-272.247,128.653,20.850,-148.370,-39.930
1031,35912.285000,246.020,41.581,39.690,459.282,-276.946,127.545,-36.150,-125.370,-37.930
1032,35912.323000,251.010,18.536,69.457,464.155,-274.330,116.807,-370.150,-182.370,-58.930
1033,35912.343000,276.959,-25.550,16.868,462.206,-275.224,119.729,17.850,36.630,-37.930
1034,35912.381000,243.025,-1.503,29.767,464.172,-273.332,118.802,-80.150,21.630,-16.930
1035,35912.423000,247.018,-16.532,37.705,464.086,-279.058,116.675,-81.150,-15.370,-3.930
1036,35912.463000,253.006,-13.526,31.752,462.143,-279.112,115.687,-70.150,-27.370,13.070
1037,35912.505000,256.000,-15.530,32.744,465.986,-281.868,116.600,-22.150,1.630,-22.930
1038,35912.546000,254.004,-16.532,33.736,466.125,-271.624,110.984,-21.150,28.630,-17.930
1039,35912.583000,245.021,-12.524,32.744,465.041,-280.016,115.666,-22.150,26.630,-37.930
1040,35912.625000,256.000,-12.524,29.767,464.233,-268.709,114.996,-8.150,23.630,-39.930
1041,35912.643000,254.004,-12.524,30.760,466.082,-275.248,116.784,13.850,59.630,-45.930
1042,35912.681000,248.016,-11.523,30.760,465.196,-269.562,117.925,35.850,52.630,-28.930
1043,35912.723000,249.014,-7.515,27.783,468.136,-267.629,117.983,44.850,26.630,-19.930
1044,35912.763000,256.000,-8.517,24.806,467.159,-268.483,121.892,39.850,31.630,-47.930
1045,35912.803000,248.016,-10.521,26.791,469.032,-273.184,121.765,59.850,26.630,-34.930
1046,35912.843000,245.021,-5.511,32.744,466.122,-273.199,122.743,68.850,7.630,-3.930
1047,35912.886000,251.010,-2.505,32.744,464.232,-269.497,120.876,38.850,-21.370,11.070
1048,35912.925000,252.008,-4.509,28.775,465.285,-263.809,121.036,18.850,-16.370,7.070
1049,35912.951000,245.021,-1.503,31.752,468.148,-267.471,123.889,-9.150,-12.370,-0.930
1050,35912.987000,254.004,-5.511,28.775,466.167,-270.309,124.791,-0.150,-38.370,-8.930
1051,35913.21000,253.006,-3.507,30.760,469.128,-266.565,121.949,28.850,-38.370,11.070
1052,35913.61000,246.020,-8.517,31.752,467.104,-272.266,121.787,0.850,-14.370,33.070
1053,35913.105000,253.006,-15.530,33.736,463.275,-268.565,120.900,-3.150,-32.370,28.070
1054,35913.147000,253.006,-12.524,31.752,461.219,-276.210,118.717,-15.150,-36.370,39.070
1055,35913.188000,248.016,-17.534,32.744,464.241,-268.604,118.933,-14.150,-36.370,17.070
1056,35913.223000,251.010,-13.526,32.744,463.253,-269.616,116.936,-21.150,-45.370,4.070
1057,35913.248000,251.010,-13.526,31.752,465.182,-270.507,117.898,-28.150,-42.370,28.070
1058,35913.287000,252.008,-13.526,29.767,462.213,-274.358,116.803,-13.150,-35.370,25.070
1059,35913.323000,256.998,-12.524,29.767,462.156,-278.166,115.713,-11.150,0.630,4.070
1060,35913.363000,248.016,-13.526,30.760,463.225,-271.507,116.884,2.850,14.630,12.070
1061,35913.403000,249.014,-16.532,30.760,462.251,-271.573,114.913,3.850,0.630,18.070
1062,35913.443000,252.008,-14.528,29.767,464.141,-275.276,116.780,21.850,-0.370,0.070
1063,35913.485000,252.008,-14.528,29.767,463.229,-271.454,118.852,27.850,8.630,10.070
1064,35913.503000,253.006,-12.524,31.752,464.166,-273.411,115.849,38.850,4.630,4.070
1065,35913.545000,250.012,-7.515,32.744,462.302,-268.605,119.914,24.850,1.630,-5.930
1066,35913.585000,249.014,-9.519,33.736,464.188,-272.360,119.812,5.850,3.630,10.070
1067,35913.625000,252.008,-11.523,33.736,464.214,-270.495,118.881,-15.150,9.630,-14.930
