Sample, Time, ACCX, ACCY, ACCZ, MAGX, MAGY, MAGZ, GYRX, GYRY, GYRZ
0,36339.337000,239.033,-15.530,51.597,462.669,-243.125,118.656,-25.150,78.630,4.070
1,36339.377000,244.023,-14.528,53.581,466.428,-250.820,111.563,-11.150,44.630,-16.930
2,36339.402000,248.016,-10.521,54.574,460.634,-249.746,119.452,-14.150,30.630,-13.930
3,36339.442000,250.012,-13.526,54.574,460.704,-244.991,120.568,-21.150,24.630,12.070
4,36339.482000,244.023,-17.534,54.574,466.526,-244.935,119.595,-27.150,9.630,30.070
5,36339.522000,241.029,-20.540,53.581,463.528,-250.703,117.463,16.850,1.630,-3.930
6,36339.561000,240.031,-14.528,49.612,459.690,-247.868,119.502,58.850,-38.370,-11.930
7,36339.601000,241.029,-17.534,49.612,459.736,-244.979,121.550,83.850,-53.370,-17.930
8,36339.641000,242.027,-20.540,49.612,462.657,-244.045,119.614,148.850,-96.370,-46.930
9,36339.681000,246.020,-19.538,44.651,459.720,-245.951,120.539,181.850,-125.370,-22.930
10,36339.707000,245.021,-13.526,42.667,466.648,-236.451,118.848,179.850,-130.370,-70.930
11,36339.741000,246.020,-8.517,48.620,464.644,-240.366,114.801,124.850,-134.370,-95.930
12,36339.782000,246.020,-11.523,46.636,468.676,-229.936,114.115,64.850,-158.370,-112.930
13,36339.822000,254.004,-15.530,50.605,467.675,-231.867,113.076,38.850,-188.370,-110.930
14,36339.862000,257.996,-13.526,43.659,472.609,-226.151,112.259,36.850,-185.370,-70.930
15,36339.902000,259.992,-14.528,38.698,470.614,-229.173,106.270,84.850,-108.370,-55.930
16,36339.942000,251.010,-11.523,45.643,476.474,-226.333,103.408,93.850,-55.370,-65.930
17,36339.982000,249.014,-4.509,45.643,475.538,-224.350,107.396,56.850,-45.370,-73.930
18,36340.2000,248.016,-7.515,52.589,478.482,-221.603,102.560,14.850,-68.370,-75.930
19,36340.42000,262.986,-7.515,51.597,477.495,-222.589,101.547,-81.150,-62.370,-25.930
20,36340.82000,270.971,-4.509,43.659,476.525,-222.603,101.545,-199.150,-56.370,103.070
21,36340.122000,259.992,-14.528,34.729,470.651,-225.628,97.516,-222.150,35.630,128.070
22,36340.167000,260.990,-19.538,33.736,469.645,-228.399,100.388,-121.150,96.630,176.070
23,36340.201000,255.002,-21.542,33.736,471.475,-235.963,99.198,-80.150,142.630,178.070
24,36340.241000,249.014,-15.530,38.698,467.628,-234.022,103.180,-69.150,195.630,131.070
25,36340.282000,250.012,-16.532,34.729,464.541,-246.303,104.800,-126.150,223.630,82.070
26,36340.302000,244.023,-26.552,39.690,466.463,-248.062,108.689,-120.150,235.630,99.070
27,36340.338000,247.018,-22.544,50.605,463.598,-245.187,111.715,-96.150,224.630,79.070
28,36340.378000,251.010,-0.501,42.667,463.494,-252.673,114.457,-190.150,203.630,75.070
29,36340.418000,239.033,-20.540,41.674,458.653,-251.823,113.489,-211.150,143.630,77.070
30,36340.463000,247.018,-24.548,49.612,453.790,-252.784,115.421,-186.150,111.630,110.070
31,36340.498000,251.010,-19.538,41.674,454.758,-252.797,114.439,-238.150,92.630,150.070
32,36340.538000,241.029,-34.568,39.690,452.684,-262.228,116.140,-235.150,121.630,140.070
33,36340.578000,234.043,-37.573,42.667,452.622,-266.090,113.082,-182.150,81.630,116.070
34,36340.598000,239.033,-29.558,42.667,449.643,-270.071,107.065,-125.150,31.630,78.070
35,36340.638000,249.014,-26.552,46.636,452.520,-272.788,109.945,-96.150,-14.370,64.070
36,36340.691000,236.039,-26.552,44.651,450.638,-268.219,105.151,-104.150,-19.370,40.070
37,36340.721000,236.039,-34.568,49.612,453.518,-270.883,109.999,-38.150,-73.370,9.070
38,36340.765000,239.033,-27.554,52.589,450.569,-272.947,105.019,20.850,-79.370,-23.930
39,36340.800000,244.023,-24.548,51.597,453.559,-267.285,103.214,51.850,-105.370,-50.930
40,36340.840000,245.021,-27.554,50.605,455.416,-272.957,102.076,72.850,-127.370,-26.930
41,36340.865000,241.029,-30.560,52.589,459.432,-263.499,100.379,112.850,-140.370,-30.930
42,36340.900000,240.031,-30.560,48.620,457.418,-268.307,98.274,159.850,-197.370,-50.930
43,36340.940000,243.025,-30.560,47.628,460.413,-262.592,98.438,205.850,-236.370,-48.930
44,36340.987000,248.016,-30.560,43.659,462.287,-266.505,92.431,223.850,-252.370,-48.930
45,36341.21000,252.008,-21.542,43.659,462.393,-258.993,90.673,229.850,-213.370,-50.930
46,36341.63000,251.010,-21.542,41.674,465.232,-263.732,88.579,185.850,-205.370,-38.930
47,36341.102000,247.018,-21.542,42.667,467.310,-253.487,81.982,164.850,-196.370,-46.930
48,36341.142000,256.000,-20.540,39.690,466.346,-253.422,84.933,162.850,-140.370,-49.930
49,36341.162000,257.996,-21.542,41.674,464.457,-249.693,84.050,168.850,-78.370,-53.930
50,36341.200000,252.008,-21.542,39.690,468.254,-256.126,88.795,175.850,-23.370,-59.930
51,36341.239000,253.006,-22.544,40.682,470.325,-247.509,91.989,194.850,38.630,-47.930
52,36341.279000,252.008,-22.544,41.674,473.255,-246.469,93.990,211.850,58.630,-21.930
53,36341.319000,256.998,-25.550,39.690,470.308,-249.268,96.858,190.850,116.630,11.070
54,36341.359000,249.014,-17.534,43.659,472.332,-244.328,103.884,196.850,159.630,-8.930
55,36341.399000,241.029,-17.534,47.628,471.330,-247.047,108.725,214.850,104.630,-4.930
56,36341.439000,249.014,-17.534,48.620,467.510,-243.215,112.760,219.850,79.630,-3.930
57,36341.459000,250.012,-15.530,49.612,470.385,-245.958,114.655,239.850,95.630,-48.930
58,36341.499000,248.016,-12.524,53.581,467.638,-235.413,121.829,229.850,103.630,-30.930
59,36341.539000,248.016,-16.532,53.581,469.519,-240.008,125.639,236.850,120.630,-20.930
60,36341.580000,247.018,-17.534,57.550,470.555,-236.080,130.668,229.850,108.630,-61.930
61,36341.619000,244.023,-8.517,55.566,474.424,-237.732,137.514,211.850,124.630,-66.930
62,36341.660000,242.027,-18.536,57.550,474.497,-232.951,139.614,186.850,107.630,-43.930
63,36341.703000,240.031,-19.538,56.558,472.621,-229.065,144.637,182.850,75.630,-55.930
64,36341.739000,246.020,-12.524,49.612,475.633,-222.351,146.796,198.850,46.630,-69.930
65,36341.765000,252.008,-12.524,49.612,474.652,-223.258,148.737,214.850,87.630,-66.930
66,36341.801000,251.010,-9.519,51.597,472.705,-224.126,152.644,264.850,103.630,-54.930
67,36341.841000,241.029,0.501,44.651,477.734,-212.578,157.891,232.850,78.630,-24.930
68,36341.881000,248.016,1.503,34.729,473.841,-213.526,159.826,174.850,40.630,-18.930
69,36341.922000,250.012,1.503,36.713,477.811,-207.744,161.960,104.850,30.630,-36.930
70,36341.966000,251.010,4.509,35.721,477.873,-203.095,159.139,0.850,-5.370,-55.930
71,36342.1000,249.014,3.507,35.721,478.708,-212.511,159.862,-89.150,-15.370,-82.930
72,36342.41000,249.014,-2.505,38.698,476.846,-206.918,158.047,-138.150,-24.370,-85.930
73,36342.61000,243.025,1.503,37.705,480.642,-212.589,155.929,-139.150,-28.370,-42.930
74,36342.101000,245.021,10.521,37.705,477.706,-213.708,150.975,-154.150,-70.370,-11.930
75,36342.141000,249.014,12.524,43.659,479.718,-208.926,152.095,-207.150,-112.370,23.070
76,36342.181000,253.006,20.540,44.651,482.502,-216.686,143.031,-230.150,-110.370,79.070
77,36342.221000,248.016,2.505,37.705,482.508,-215.846,139.120,-230.150,-110.370,63.070
78,36342.271000,248.016,-4.509,43.659,478.529,-222.521,138.928,-176.150,-121.370,62.070
79,36342.302000,255.002,-3.507,56.558,478.519,-222.652,134.006,-137.150,-170.370,82.070
80,36342.343000,246.020,-5.511,51.597,481.391,-224.660,128.053,-154.150,-214.370,-2.930
81,36342.363000,251.010,-0.501,42.667,479.475,-222.061,120.253,-177.150,-192.370,-62.930
82,36342.403000,246.020,-1.503,45.643,483.283,-226.814,117.177,-217.150,-151.370,-30.930
83,36342.443000,239.033,-11.523,42.667,484.255,-226.012,111.299,-235.150,-151.370,-20.930
84,36342.483000,259.992,-14.528,36.713,481.280,-229.941,107.250,-195.150,-168.370,-12.930
85,36342.523000,252.008,-19.538,42.667,485.257,-223.293,106.458,-163.150,-113.370,-6.930
86,36342.563000,247.018,-21.542,40.682,480.246,-233.843,103.206,-115.150,-45.370,12.070
87,36342.603000,249.014,-20.540,41.674,481.317,-226.396,98.497,-112.150,-60.370,3.070
88,36342.644000,251.010,-16.532,39.690,480.285,-230.271,95.436,-109.150,-62.370,-0.930
89,36342.664000,252.008,-15.530,39.690,482.199,-232.135,95.388,-137.150,-7.370,37.070
90,36342.705000,251.010,-24.548,39.690,480.146,-239.753,94.189,-130.150,23.630,50.070
91,36342.745000,246.020,-27.554,43.659,478.322,-231.349,91.469,-76.150,22.630,38.070
92,36342.785000,249.014,-20.540,42.667,483.026,-241.656,92.173,-32.150,-9.370,20.070
93,36342.824000,247.018,-15.530,41.674,481.151,-236.982,91.317,-42.150,-5.370,15.070
94,36342.871000,252.008,-17.534,37.705,477.171,-243.683,90.140,-76.150,0.630,10.070
95,36342.904000,253.006,-20.540,40.682,482.077,-239.858,89.271,-62.150,36.630,2.070
96,36342.925000,250.012,-24.548,39.690,483.120,-235.063,91.373,-15.150,47.630,-9.930
97,36342.963000,251.010,-23.546,36.713,476.343,-234.161,93.354,43.850,24.630,-10.930
98,36343.3000,250.012,-12.524,39.690,481.171,-235.957,94.296,115.850,22.630,-7.930
99,36343.43000,246.020,-13.526,40.682,479.297,-231.283,93.439,118.850,45.630,6.070
100,36343.82000,252.008,-18.536,41.674,482.164,-234.893,98.262,128.850,41.630,-14.930
101,36343.122000,252.008,-14.528,43.659,483.205,-230.124,99.380,144.850,82.630,-60.930
102,36343.162000,252.008,-10.521,44.651,482.270,-228.141,103.368,174.850,111.630,-70.930
103,36343.202000,245.021,-1.503,43.659,483.271,-226.971,111.271,192.850,135.630,-61.930
104,36343.222000,246.020,-4.509,47.628,483.314,-224.108,112.334,183.850,129.630,2.070
105,36343.262000,251.010,0.501,41.674,481.361,-225.055,113.288,137.850,79.630,-31.930
106,36343.306000,256.998,0.501,40.682,484.338,-221.100,118.321,90.850,102.630,-45.930
107,36343.346000,250.012,-1.503,45.643,480.463,-221.049,122.250,68.850,154.630,-40.930
108,36343.384000,248.016,0.501,41.674,483.409,-219.038,125.262,72.850,203.630,-12.930
109,36343.425000,253.006,-7.515,45.643,481.395,-224.608,130.022,128.850,190.630,-16.930
110,36343.464000,249.014,-2.505,41.674,480.546,-216.898,136.137,161.850,150.630,-33.930
111,36343.512000,243.025,2.505,41.674,482.459,-219.550,141.968,147.850,67.630,-36.930
112,36343.546000,253.006,9.519,35.721,486.495,-209.066,143.250,63.850,39.630,-57.930
113,36343.562000,243.025,19.538,40.682,483.512,-213.862,142.128,-23.150,10.630,-34.930
114,36343.603000,241.029,-2.505,36.713,485.494,-210.998,142.211,-78.150,-26.370,7.070
115,36343.643000,250.012,-13.526,42.667,480.609,-213.010,140.179,-72.150,-11.370,43.070
116,36343.683000,248.016,-15.530,51.597,483.504,-213.967,138.190,-32.150,-16.370,63.070
117,36343.723000,246.020,-4.509,51.597,480.445,-224.358,139.863,-32.150,-29.370,64.070
118,36343.763000,246.020,8.517,53.581,481.505,-217.804,137.097,-36.150,-60.370,23.070
119,36343.803000,250.012,3.507,50.605,480.489,-220.707,135.047,-79.150,-72.370,-10.930
120,36343.828000,250.012,-3.507,46.636,486.382,-215.896,135.191,-116.150,-56.370,-9.930
121,36343.863000,245.021,-4.509,50.605,483.380,-221.717,131.089,-124.150,-48.370,32.070
122,36343.903000,250.012,-11.523,48.620,478.561,-219.028,128.205,-111.150,-76.370,50.070
123,36343.943000,251.010,-13.526,48.620,480.379,-227.511,127.972,-60.150,-107.370,24.070
124,36343.983000,249.014,-9.519,42.667,480.416,-224.727,126.083,-8.150,-77.370,25.070
125,36344.22000,251.010,-8.517,44.651,481.316,-229.467,124.969,30.850,-58.370,45.070
126,36344.62000,249.014,-9.519,43.659,478.443,-226.698,124.057,23.850,-81.370,54.070
127,36344.102000,245.021,-12.524,45.643,476.486,-227.697,123.042,26.850,-83.370,72.070
128,36344.122000,245.021,-6.513,44.651,476.480,-227.776,120.089,5.850,-149.370,85.070
129,36344.166000,241.029,-8.517,47.628,478.247,-239.228,114.856,-34.150,-203.370,46.070
130,36344.216000,241.029,-6.513,49.612,478.301,-234.684,108.097,-59.150,-217.370,26.070
131,36344.243000,262.986,-14.528,42.667,481.227,-233.697,108.129,-112.150,-197.370,25.070
132,36344.283000,260.990,-19.538,36.713,482.131,-237.624,102.120,-101.150,-81.370,-12.930
133,36344.327000,253.006,-16.532,42.667,479.276,-233.857,103.204,-78.150,49.630,28.070
134,36344.362000,249.014,-18.536,45.643,475.393,-233.912,103.196,-63.150,58.630,49.070
135,36344.402000,254.004,-18.536,38.698,476.336,-235.789,103.145,-63.150,33.630,22.070
136,36344.422000,251.010,-15.530,37.705,472.377,-241.439,105.932,-44.150,114.630,38.070
137,36344.462000,250.012,-18.536,42.667,476.224,-244.142,108.814,-18.150,82.630,42.070
138,36344.508000,251.010,-17.534,34.729,473.340,-242.292,108.861,5.850,66.630,44.070
139,36344.543000,248.016,-14.528,38.698,477.264,-239.400,108.948,22.850,58.630,74.070
140,36344.583000,250.012,-6.513,37.705,473.281,-246.888,113.651,-14.150,45.630,80.070
141,36344.627000,247.018,-3.507,39.690,473.285,-246.074,108.755,-64.150,42.630,76.070
142,36344.667000,254.004,-8.517,39.690,469.355,-249.807,112.579,-98.150,49.630,37.070
143,36344.707000,250.012,-6.513,39.690,469.400,-246.156,107.763,-130.150,70.630,1.070
144,36344.732000,245.021,-11.523,40.682,468.367,-250.819,110.582,-139.150,55.630,-0.930
145,36344.766000,250.012,-14.528,40.682,467.424,-248.941,110.633,-143.150,41.630,-16.930
146,36344.806000,245.021,-20.540,44.651,469.336,-250.831,109.600,-129.150,47.630,-7.930
147,36344.847000,247.018,-23.546,44.651,468.406,-248.008,109.677,-107.150,37.630,-4.930
148,36344.887000,246.020,-22.544,42.667,468.267,-257.491,108.429,-66.150,17.630,-10.930
149,36344.927000,249.014,-24.548,42.667,469.332,-250.884,107.631,-42.150,19.630,7.070
150,36344.967000,248.016,-24.548,43.659,469.312,-252.670,111.516,-4.150,15.630,0.070
151,36345.7000,250.012,-18.536,44.651,469.351,-249.859,110.611,-5.150,15.630,5.070
152,36345.27000,248.016,-20.540,43.659,463.504,-251.780,112.515,-8.150,30.630,9.070
153,36345.67000,251.010,-20.540,44.651,466.459,-248.876,113.584,-5.150,30.630,-10.930
154,36345.106000,248.016,-19.538,45.643,467.444,-247.916,113.612,-17.150,33.630,8.070
155,36345.146000,246.020,-26.552,47.628,462.622,-246.041,115.624,-0.150,41.630,9.070
156,36345.186000,248.016,-23.546,45.643,463.533,-249.863,113.552,24.850,34.630,6.070
157,36345.227000,244.023,-16.532,47.628,466.467,-248.770,117.521,53.850,14.630,38.070
158,36345.267000,244.023,-17.534,41.674,465.440,-252.593,116.430,87.850,-49.370,33.070
159,36345.287000,240.031,-9.519,36.713,463.535,-249.836,114.536,150.850,-124.370,-1.930
160,36345.327000,238.035,-5.511,35.721,466.420,-251.686,114.489,221.850,-167.370,15.070
161,36345.367000,247.018,-2.505,39.690,460.606,-251.637,119.399,275.850,-203.370,33.070
162,36345.407000,245.021,0.501,49.612,460.669,-246.988,116.578,316.850,-221.370,34.070
163,36345.447000,242.027,3.507,53.581,461.559,-252.622,117.406,334.850,-210.370,8.070
164,36345.487000,229.053,-2.505,60.527,469.462,-243.055,117.685,335.850,-204.370,-53.930
165,36345.527000,242.027,-8.517,79.380,464.553,-246.907,117.570,294.850,-171.370,-132.930
166,36345.567000,225.060,-45.589,44.651,471.493,-236.488,114.921,252.850,-145.370,-118.930
167,36345.592000,250.012,-69.636,37.705,468.674,-230.723,119.994,535.850,-133.370,-249.930
168,36345.627000,292.928,-36.571,39.690,476.651,-216.350,123.358,654.850,-199.370,-162.930
169,36345.667000,292.928,-4.509,20.837,472.647,-224.889,124.098,547.850,-217.370,55.070
170,36345.707000,249.014,-36.571,15.876,475.734,-213.369,129.341,355.850,-2.370,1.070
171,36345.753000,256.998,-49.597,10.915,472.797,-215.275,130.267,336.850,6.630,-74.930
172,36345.787000,266.979,-26.552,0.000,472.875,-210.415,135.320,303.850,37.630,-75.930
173,36345.827000,225.060,14.528,12.899,474.852,-208.391,139.314,59.850,119.630,-234.930
174,36345.867000,221.068,24.548,15.876,478.884,-197.960,138.628,-193.150,91.630,-453.930
175,36345.895000,237.037,13.526,15.876,488.665,-192.254,134.869,-529.150,23.630,-514.930
176,36345.928000,250.012,0.501,35.721,490.814,-177.255,129.388,-565.150,-11.370,-590.930
177,36345.968000,279.953,60.618,63.504,496.648,-175.518,120.593,-807.150,18.630,-321.930
178,36346.8000,298.916,5.511,62.512,494.726,-173.760,116.705,-839.150,150.630,-93.930
179,36346.47000,300.912,5.511,54.574,491.753,-177.662,113.640,-762.150,205.630,58.070
180,36346.93000,272.967,33.566,36.713,487.689,-190.037,112.306,-809.150,246.630,388.070
181,36346.128000,261.988,9.519,26.791,483.457,-213.812,108.686,-960.150,309.630,567.070
182,36346.168000,247.018,6.513,25.798,474.597,-222.446,108.431,-1057.150,429.630,513.070
183,36346.188000,230.051,-19.538,24.806,469.518,-237.724,105.047,-1089.150,380.630,485.070
184,36346.228000,221.068,-37.573,23.814,461.525,-253.069,100.672,-915.150,263.630,469.070
185,36346.266000,219.072,-63.624,17.860,455.531,-263.791,91.511,-513.150,100.630,408.070
186,36346.306000,221.068,-80.658,15.876,452.405,-278.883,94.037,-211.150,16.630,348.070
187,36346.347000,210.090,-80.658,16.868,450.419,-281.800,91.985,93.850,57.630,120.070
188,36346.386000,206.097,-82.661,21.829,447.554,-278.926,95.011,275.850,-32.370,-51.930
189,36346.432000,199.111,-73.644,6.946,453.408,-276.925,96.061,276.850,-92.370,71.070
190,36346.467000,174.160,-111.718,70.450,457.414,-269.121,103.170,752.850,-90.370,-104.930
191,36346.487000,280.951,83.663,140.899,452.601,-267.902,115.982,975.850,100.630,169.070
192,36346.528000,288.936,57.613,57.550,442.626,-288.396,132.117,753.850,132.630,843.070
193,36346.568000,294.924,28.556,92.279,436.942,-279.757,140.216,748.850,-200.370,188.070
194,36346.608000,339.836,105.706,119.070,444.802,-274.577,153.161,907.850,-72.370,-429.930
195,36346.648000,305.903,27.554,83.349,446.060,-255.492,159.595,798.850,-185.370,-71.930
196,36346.688000,257.996,36.571,107.163,443.082,-260.997,167.306,767.850,29.630,94.070
197,36346.724000,184.140,-19.538,76.403,443.269,-248.598,171.586,630.850,-272.370,65.070
198,36346.769000,222.066,-98.693,53.581,444.198,-252.183,178.373,660.850,-329.370,33.070
199,36346.784000,256.000,-37.573,55.566,444.340,-242.674,180.605,453.850,-105.370,14.070
200,36346.824000,233.045,-46.591,46.636,443.314,-246.470,180.497,92.850,-49.370,32.070
201,36346.864000,255.002,-83.663,16.868,446.222,-246.481,178.535,224.850,-241.370,69.070
202,36346.904000,272.967,-32.564,6.946,446.322,-239.809,180.688,535.850,-299.370,39.070
203,36346.944000,217.076,16.532,17.860,447.317,-238.718,185.638,434.850,80.630,-71.930
204,36346.984000,173.162,9.519,8.930,452.290,-230.953,190.780,315.850,62.630,-376.930
205,36347.24000,206.097,-5.511,2.977,454.497,-213.667,200.117,580.850,-98.370,-556.930
206,36347.69000,270.971,24.548,10.915,460.504,-201.239,202.440,789.850,-133.370,-438.930
207,36347.84000,297.918,84.665,16.868,460.763,-184.059,208.820,653.850,-28.370,-58.930
208,36347.129000,319.875,102.701,22.822,459.750,-187.698,214.619,352.850,16.630,57.070
209,36347.164000,346.823,95.687,43.659,452.000,-186.836,215.613,-269.150,79.630,234.070
210,36347.209000,313.887,-11.523,31.752,447.012,-196.334,216.324,-677.150,249.630,121.070
211,36347.249000,158.191,-55.609,107.163,444.035,-201.051,218.155,-712.150,321.630,-231.930
212,36347.288000,131.244,-171.836,104.186,450.749,-205.841,212.132,-461.150,-203.370,-251.930
213,36347.334000,185.138,-140.775,78.388,454.576,-208.807,205.171,-165.150,-416.370,28.070
214,36347.348000,331.852,40.579,120.062,456.568,-204.288,196.447,-374.150,-239.370,-31.930
215,36347.393000,308.897,42.583,106.171,451.573,-213.105,187.341,-871.150,351.630,-159.930
216,36347.428000,255.002,58.614,112.124,455.384,-217.043,179.369,-1356.150,276.630,-271.930
217,36347.476000,269.973,82.661,59.535,459.139,-224.790,170.307,-1828.150,176.630,-630.930
218,36347.512000,238.035,-11.523,-0.992,463.007,-223.397,149.697,-1734.150,34.630,-379.930
219,36347.551000,217.076,6.513,5.953,462.798,-236.085,134.589,-1497.150,85.630,-129.930
220,36347.599000,257.996,-2.505,-7.938,466.662,-235.505,118.874,-1410.150,80.630,-191.930
221,36347.627000,225.060,7.515,-18.853,463.582,-245.398,103.840,-1457.150,204.630,13.070
222,36347.648000,211.088,-55.609,-18.853,464.452,-251.295,94.825,-1319.150,21.630,140.070
223,36347.688000,217.076,-104.704,-4.961,459.464,-258.483,75.928,-1157.150,-86.370,235.070
224,36347.727000,193.123,-91.679,-5.953,456.369,-269.348,59.883,-913.150,-56.370,373.070
225,36347.771000,211.088,-61.620,70.450,446.271,-295.280,49.308,-811.150,-40.370,727.070
226,36347.813000,331.852,-204.900,222.264,437.494,-298.241,49.211,135.850,138.630,634.070
227,36347.847000,314.885,41.581,130.977,433.492,-307.515,57.799,503.850,29.630,48.070
228,36347.903000,236.039,122.740,127.008,434.524,-304.402,67.723,497.850,5.630,148.070
229,36347.929000,219.072,-1.503,139.907,430.506,-313.887,68.437,235.850,-85.370,130.070
230,36347.953000,224.062,-21.542,121.054,433.424,-313.766,71.396,552.850,-327.370,-132.930
231,36347.988000,183.142,-131.757,31.752,433.626,-300.396,76.686,1027.850,-452.370,-26.930
232,36348.26000,150.207,-145.785,1.984,436.604,-297.202,88.583,1250.850,-325.370,61.070
233,36348.66000,285.942,-47.593,7.938,439.603,-292.957,104.444,1393.850,-354.370,-43.930
234,36348.106000,314.885,-68.634,19.845,438.729,-287.874,118.354,1163.850,-191.370,-2.930
235,36348.146000,223.064,-67.632,19.845,440.891,-273.477,125.644,1161.850,-330.370,-258.930
236,36348.187000,250.012,37.573,-9.922,449.825,-260.036,128.983,707.850,-381.370,-430.930
237,36348.227000,226.058,62.622,2.977,451.873,-252.496,127.229,218.850,-217.370,-327.930
238,36348.247000,210.090,49.597,21.829,452.922,-246.861,125.421,-226.150,-67.370,-168.930
239,36348.287000,223.064,-10.521,-1.984,456.806,-246.018,119.549,-479.150,14.630,-182.930
240,36348.327000,235.041,12.524,13.891,458.623,-253.740,112.452,-498.150,-174.370,-236.930
241,36348.366000,229.053,-57.613,75.411,456.725,-250.143,106.647,-290.150,62.630,4.070
242,36348.409000,280.951,-132.759,102.202,454.673,-257.736,106.433,-256.150,-5.370,-112.930
243,36348.449000,360.795,-63.624,106.171,460.650,-246.464,100.854,-155.150,78.630,-190.930
244,36348.489000,319.875,-97.691,103.194,461.623,-246.424,101.841,-165.150,102.630,-23.930
245,36348.529000,317.879,-46.591,74.419,460.633,-248.223,105.724,77.850,179.630,127.070
246,36348.561000,311.891,53.605,43.659,451.797,-256.542,117.281,59.850,581.630,299.070
247,36348.588000,199.111,38.575,36.713,445.974,-257.386,124.133,-381.150,409.630,173.070
248,36348.628000,220.070,72.642,20.837,451.768,-259.221,123.108,-664.150,323.630,-313.930
249,36348.682000,268.975,-3.507,7.938,453.737,-256.541,116.300,-939.150,236.630,-382.930
250,36348.709000,208.094,-59.616,2.977,452.675,-262.333,112.203,-746.150,392.630,-78.930
251,36348.757000,200.109,-55.609,27.783,454.662,-259.416,114.255,-322.150,368.630,-88.930
252,36348.792000,215.080,-19.538,17.860,456.586,-260.387,112.264,-52.150,53.630,-71.930
253,36348.834000,211.088,-10.521,11.907,451.709,-262.295,114.170,-130.150,-54.370,259.070
254,36348.849000,219.072,-24.548,6.946,449.529,-277.689,104.885,-729.150,-117.370,401.070
255,36348.887000,229.053,-91.679,-3.969,449.399,-283.995,81.103,-1105.150,-280.370,159.070
256,36348.928000,258.994,-134.763,18.853,449.376,-283.523,63.411,-726.150,-321.370,52.070
257,36348.968000,263.984,-159.812,64.496,446.426,-285.587,58.431,-357.150,-62.370,244.070
258,36349.8000,326.862,-65.628,136.930,449.248,-292.086,61.206,116.850,106.630,92.070
259,36349.48000,289.934,71.640,93.271,443.497,-287.388,63.294,250.850,33.630,70.070
260,36349.89000,214.082,174.841,79.380,439.270,-310.322,55.763,-198.150,-316.370,559.070
261,36349.109000,170.168,19.538,76.403,436.356,-309.629,47.909,-505.150,-306.370,298.070
262,36349.152000,253.006,-66.630,70.450,435.265,-316.578,35.911,-216.150,-472.370,192.070
263,36349.197000,244.023,-103.703,55.566,432.274,-321.479,30.851,248.850,-258.370,108.070
264,36349.228000,201.107,-139.773,8.930,434.290,-316.644,33.940,768.850,-382.370,-67.930
265,36349.276000,253.006,-147.789,81.364,432.397,-315.279,50.696,1736.850,-160.370,-96.930
266,36349.311000,261.988,-42.583,36.713,436.491,-304.032,80.524,2189.850,-282.370,57.070
267,36349.347000,228.055,-62.622,38.698,432.797,-294.734,112.252,2237.850,-256.370,23.070
268,36349.387000,260.990,-69.636,50.605,435.940,-282.476,145.057,2298.850,-208.370,114.070
269,36349.407000,279.953,-11.523,-1.984,437.938,-280.950,165.759,1974.850,-289.370,246.070
270,36349.447000,253.006,19.538,-28.775,440.125,-264.689,172.116,1599.850,-487.370,113.070
271,36349.487000,200.109,52.603,-16.868,442.230,-254.863,185.180,942.850,-241.370,-236.930
272,36349.527000,211.088,54.607,-32.744,457.073,-235.639,189.674,618.850,-283.370,-501.930
273,36349.567000,207.096,57.613,-32.744,466.064,-217.627,187.240,480.850,-141.370,-878.930
274,36349.607000,177.154,5.511,34.729,470.293,-194.666,195.754,643.850,209.630,-1005.930
275,36349.647000,276.959,17.534,192.496,475.453,-174.502,205.176,629.850,167.630,-958.930
276,36349.691000,450.620,-7.515,167.690,477.652,-157.321,210.576,123.850,15.630,64.070
277,36349.711000,276.959,-142.779,100.217,475.563,-166.937,205.387,28.850,-189.370,100.070
278,36349.753000,274.963,-56.611,65.488,480.382,-168.838,202.391,277.850,-363.370,78.070
279,36349.788000,289.934,98.693,71.442,485.180,-171.791,195.432,-243.150,-136.370,436.070
280,36349.832000,270.971,150.795,54.574,480.056,-189.958,190.000,-1094.150,126.630,586.070
281,36349.872000,195.119,98.693,33.736,476.715,-217.818,174.465,-1753.150,261.630,289.070
282,36349.916000,279.953,26.552,-0.992,466.809,-230.512,164.259,-1684.150,237.630,207.070
283,36349.949000,288.936,19.538,-3.969,464.593,-248.691,156.865,-1311.150,523.630,366.070
284,36349.988000,234.043,-11.523,0.000,457.631,-259.399,148.686,-1217.150,378.630,402.070
285,36350.8000,226.058,-72.642,-18.853,449.585,-278.501,145.191,-790.150,318.630,336.070
286,36350.52000,211.088,-94.685,0.000,447.585,-283.125,149.977,-107.150,291.630,182.070
287,36350.92000,220.070,-61.620,24.806,445.661,-282.154,151.968,145.850,191.630,181.070
288,36350.133000,238.035,-78.654,23.814,440.710,-289.630,157.653,176.850,197.630,117.070
289,36350.172000,212.086,-97.691,44.651,445.636,-285.542,166.628,396.850,135.630,-141.930
290,36350.211000,191.127,-50.599,77.395,446.784,-274.784,179.716,552.850,193.630,-282.930
291,36350.252000,194.121,-4.509,112.124,450.848,-263.171,187.914,732.850,221.630,-462.930
292,36350.292000,222.066,6.513,110.140,451.982,-253.358,200.976,430.850,184.630,-247.930
293,36350.312000,263.984,119.734,114.109,452.126,-244.584,211.057,198.850,334.630,-47.930
294,36350.353000,347.821,128.751,79.380,449.098,-252.270,207.887,-375.150,-146.370,371.070
295,36350.388000,266.979,20.540,28.775,453.865,-257.166,198.906,-359.150,-299.370,193.070
296,36350.428000,227.057,54.607,36.713,451.888,-259.190,194.912,-166.150,-149.370,-86.930
297,36350.468000,198.113,27.554,45.643,455.717,-262.130,188.935,-61.150,-153.370,-43.930
298,36350.508000,203.103,-7.515,79.380,454.668,-267.004,183.880,62.850,-267.370,103.070
299,36350.548000,250.012,-26.552,96.248,455.752,-259.372,186.061,211.850,-180.370,88.070
300,36350.568000,244.023,-44.587,71.442,454.770,-260.305,187.017,424.850,-66.370,-70.930
301,36350.608000,249.014,-33.566,51.597,458.841,-247.825,192.289,533.850,-118.370,-89.930
302,36350.652000,256.000,-25.550,62.512,456.887,-249.560,199.123,453.850,-16.370,42.070
303,36350.692000,234.043,-43.585,69.457,456.074,-239.854,209.228,347.850,119.630,-9.930
304,36350.732000,248.016,-39.577,76.403,453.095,-244.597,210.074,256.850,-15.370,24.070
305,36350.773000,293.926,-38.575,63.504,452.148,-242.772,208.156,122.850,-92.370,183.070
306,36350.808000,263.984,-28.556,62.512,451.085,-249.353,209.939,-33.150,116.630,63.070
307,36350.848000,258.994,-29.558,75.411,449.169,-247.515,209.003,-203.150,162.630,18.070
308,36350.873000,262.986,-54.607,75.411,450.089,-251.231,210.868,-372.150,102.630,61.070
309,36350.908000,243.025,-52.603,71.442,448.108,-253.308,204.905,-439.150,159.630,99.070
310,36350.948000,199.111,-74.646,85.333,444.060,-264.711,204.581,-398.150,144.630,187.070
311,36350.988000,130.246,-42.583,86.326,445.002,-267.376,210.411,51.850,286.630,-4.930
312,36351.28000,11.478,93.683,80.372,444.088,-263.581,211.498,352.850,240.630,-241.930
313,36351.72000,512.499,179.851,116.093,448.080,-255.199,204.853,-619.150,-764.370,-39.930
314,36351.112000,166.175,-99.695,79.380,441.022,-272.528,196.490,-736.150,585.630,596.070
315,36351.152000,211.088,-82.661,22.822,447.694,-278.632,176.659,-740.150,-174.370,-407.930
316,36351.172000,312.889,40.579,7.938,452.519,-279.693,169.753,-659.150,93.630,-204.930
317,36351.217000,204.101,-19.538,10.915,451.436,-286.537,161.692,-841.150,92.630,126.070
318,36351.249000,235.041,-36.571,14.884,448.416,-292.594,148.731,-985.150,21.630,106.070
319,36351.301000,220.070,-65.628,34.729,444.301,-307.176,135.532,-873.150,34.630,244.070
320,36351.336000,226.058,-69.636,28.775,440.278,-315.191,120.548,-817.150,-46.370,442.070
321,36351.369000,199.111,-62.622,32.744,431.313,-329.788,109.307,-829.150,-259.370,522.070
322,36351.412000,193.123,-78.654,26.791,423.294,-344.715,85.272,-903.150,-435.370,558.070
323,36351.452000,257.996,-55.609,62.512,409.397,-363.480,62.103,-795.150,-400.370,814.070
324,36351.473000,335.844,-196.885,135.938,404.388,-373.242,52.971,-196.150,-129.370,659.070
325,36351.513000,341.832,-34.568,113.116,397.454,-383.582,58.573,657.850,-96.370,153.070
326,36351.553000,213.084,35.569,132.961,397.610,-374.650,74.560,873.850,164.630,-58.930
327,36351.593000,218.074,0.501,107.163,403.447,-375.171,87.342,677.850,-182.370,-314.930
328,36351.633000,229.053,-96.689,30.760,412.468,-356.764,99.673,872.850,-237.370,-433.930
329,36351.673000,170.168,-116.728,-1.984,420.421,-345.779,117.696,1049.850,-144.370,-400.930
330,36351.712000,290.932,-66.630,6.946,420.637,-331.462,123.013,1107.850,-169.370,-296.930
331,36351.758000,256.998,-55.609,14.884,428.472,-328.147,136.889,985.850,-200.370,-322.930
332,36351.778000,252.008,-53.605,13.891,436.591,-305.026,149.349,945.850,-274.370,-455.930
333,36351.812000,260.990,20.540,5.953,447.469,-291.530,153.677,648.850,-219.370,-579.930
334,36351.854000,251.010,32.564,10.915,455.350,-283.776,156.857,314.850,-66.370,-540.930
335,36351.893000,226.058,41.581,21.829,461.398,-268.511,159.259,-84.150,163.630,-341.930
336,36351.939000,218.074,6.513,24.806,458.579,-262.747,164.333,-104.150,141.630,-276.930
337,36351.973000,214.082,4.509,18.853,463.493,-258.055,160.537,-91.150,-69.370,-252.930
338,36352.13000,211.088,63.624,9.922,465.506,-252.486,155.777,-166.150,-47.370,-296.930
339,36352.53000,271.969,81.659,8.930,468.418,-252.444,155.783,-384.150,56.630,-41.930
340,36352.73000,330.854,33.566,33.736,457.670,-257.350,154.645,-568.150,424.630,55.070
341,36352.113000,270.971,-15.530,68.465,452.770,-261.096,158.467,-429.150,408.630,-96.930
342,36352.153000,245.021,-53.605,75.411,447.897,-262.951,162.342,-137.150,288.630,-15.930
343,36352.193000,213.084,-52.603,93.271,445.978,-261.927,166.301,204.850,46.630,149.070
344,36352.233000,251.010,-34.568,62.512,447.870,-265.603,169.153,415.850,-254.370,-20.930
345,36352.269000,248.016,30.560,50.605,452.006,-248.448,172.588,625.850,-234.370,-375.930
346,36352.313000,237.037,64.626,62.512,454.015,-243.719,171.739,387.850,-288.370,-190.930
347,36352.333000,228.055,-9.519,103.194,458.931,-239.001,168.928,83.850,-151.370,-97.930
348,36352.373000,247.018,-97.691,97.240,459.881,-240.012,165.951,210.850,-362.370,-305.930
349,36352.419000,257.996,-20.540,54.574,458.156,-224.962,164.399,465.850,-289.370,-215.930
350,36352.454000,234.043,-49.597,61.519,460.003,-232.289,172.067,515.850,-45.370,14.070
351,36352.494000,235.041,-40.579,39.690,455.272,-223.873,171.310,375.850,-111.370,-57.930
352,36352.536000,275.961,-22.544,31.752,458.200,-222.860,172.327,242.850,-59.370,70.070
353,36352.578000,286.940,-39.577,21.829,452.351,-225.569,180.110,136.850,134.630,322.070
354,36352.614000,238.035,-38.575,22.822,449.344,-232.203,180.904,76.850,220.630,281.070
355,36352.631000,233.045,-7.515,12.899,449.427,-227.290,187.926,-9.150,138.630,44.070
356,36352.671000,237.037,-4.509,25.798,445.519,-229.210,188.850,-132.150,254.630,-116.930
357,36352.711000,219.072,-10.521,25.798,442.641,-227.281,191.850,-97.150,101.630,-375.930
358,36352.751000,226.058,-12.524,19.845,449.669,-211.109,192.311,74.850,-6.370,-522.930
359,36352.798000,238.035,15.530,33.736,458.560,-200.531,194.588,448.850,-31.370,-521.930
360,36352.841000,241.029,31.562,30.760,459.657,-191.980,195.811,534.850,-305.370,-317.930
361,36352.874000,283.945,25.550,51.597,464.698,-178.725,194.221,482.850,-279.370,-208.930
362,36352.914000,272.967,61.620,50.605,464.854,-168.271,196.479,120.850,-28.370,-194.930
363,36352.934000,258.994,23.546,49.612,462.934,-166.486,193.575,-26.150,-36.370,-100.930
364,36352.974000,272.967,-32.564,66.481,467.746,-169.254,193.506,-112.150,-89.370,51.070
365,36353.29000,241.029,11.523,58.543,461.763,-179.844,189.267,-116.150,-83.370,194.070
366,36353.59000,259.992,-1.503,52.589,461.754,-179.949,185.330,-164.150,-103.370,133.070
367,36353.93000,256.000,-2.505,59.535,462.631,-186.529,186.132,-77.150,27.630,140.070
368,36353.133000,235.041,21.542,60.527,458.728,-187.608,183.144,-51.150,37.630,162.070
369,36353.179000,261.988,33.566,49.612,453.899,-186.600,188.082,-134.150,15.630,115.070
370,36353.213000,257.996,16.532,44.651,454.817,-190.342,188.963,-322.150,145.630,132.070
371,36353.234000,250.012,-7.515,35.721,453.647,-203.674,185.640,-324.150,94.630,93.070
372,36353.274000,272.967,-1.503,28.775,456.532,-205.524,185.593,-138.150,103.630,63.070
373,36353.314000,261.988,9.519,40.682,450.606,-213.066,189.308,-101.150,210.630,84.070
374,36353.354000,248.016,-3.507,40.682,451.679,-206.354,192.447,-65.150,184.630,174.070
375,36353.394000,238.035,-16.532,38.698,445.631,-222.380,196.909,-43.150,130.630,279.070
376,36353.434000,240.031,-18.536,31.752,445.616,-223.352,195.898,-3.150,89.630,332.070
377,36353.479000,229.053,-27.554,36.713,438.743,-229.070,197.695,17.850,82.630,263.070
378,36353.512000,229.053,-20.540,25.798,435.764,-233.813,198.542,-43.150,40.630,116.070
379,36353.532000,241.029,-33.566,42.667,435.833,-229.085,198.673,19.850,30.630,-99.930
380,36353.572000,240.031,-11.523,48.620,438.825,-223.396,197.853,-51.150,13.630,-122.930
381,36353.613000,247.018,-34.568,43.659,437.896,-220.573,197.930,-44.150,10.630,-175.930
382,36353.653000,234.043,-44.587,64.496,439.827,-221.438,199.876,63.850,10.630,-131.930
383,36353.694000,244.023,-24.548,98.233,447.632,-218.518,198.987,-38.150,-30.370,-23.930
384,36353.734000,284.943,11.523,118.078,446.592,-223.260,198.853,-452.150,57.630,205.070
385,36353.787000,260.990,-17.534,120.062,440.523,-239.576,192.488,-715.150,208.630,379.070
386,36353.808000,214.082,-61.620,111.132,436.337,-259.673,185.036,-898.150,146.630,341.070
387,36353.832000,205.099,-44.587,108.155,430.456,-262.803,177.071,-762.150,197.630,321.070
388,36353.877000,138.230,27.554,34.729,429.118,-287.535,171.462,-584.150,186.630,475.070
389,36353.917000,333.848,49.597,11.907,426.248,-283.191,158.792,-656.150,-331.370,226.070
390,36353.952000,263.984,53.605,3.969,429.006,-292.055,143.795,-658.150,-209.370,-101.930
391,36353.992000,266.979,22.544,3.969,433.847,-292.144,137.899,-741.150,-72.370,-120.930
392,36354.34000,235.041,-1.503,16.868,434.715,-298.067,127.900,-771.150,66.630,-216.930
393,36354.74000,219.072,-19.538,16.868,439.627,-292.641,116.256,-703.150,36.630,-86.930
394,36354.93000,233.045,-55.609,14.884,435.541,-305.305,104.094,-558.150,-78.370,155.070
395,36354.137000,257.996,-31.562,25.798,435.580,-301.733,96.324,-430.150,-29.370,322.070
396,36354.173000,239.033,-54.607,54.574,427.628,-314.242,92.028,-477.150,152.630,288.070
397,36354.214000,223.064,-56.611,66.481,426.610,-317.171,88.994,-530.150,57.630,179.070
398,36354.254000,252.008,-38.575,65.488,421.497,-333.658,75.740,-578.150,-94.370,368.070
399,36354.292000,299.914,-60.618,74.419,415.582,-338.758,64.769,-384.150,-9.370,297.070
400,36354.332000,272.967,-106.708,109.147,417.494,-341.410,70.600,194.850,57.630,68.070
401,36354.377000,262.986,-37.573,69.457,419.476,-340.094,83.427,689.850,31.630,56.070
402,36354.393000,245.021,-31.562,49.612,417.655,-333.948,102.283,1078.850,-81.370,-31.930
403,36354.434000,257.996,-18.536,14.884,417.823,-323.335,110.448,1032.850,-151.370,-64.930
404,36354.474000,252.008,-54.607,21.829,420.845,-317.252,124.392,989.850,18.630,-84.930
405,36354.514000,247.018,-60.618,19.845,422.954,-307.373,139.425,1045.850,-107.370,-116.930
406,36354.553000,249.014,-22.544,20.837,424.959,-304.980,157.200,1050.850,-83.370,-124.930
407,36354.593000,247.018,-4.509,29.767,429.123,-286.695,167.551,774.850,-30.370,-225.930
408,36354.633000,244.023,-11.523,33.736,435.987,-282.632,174.561,518.850,20.630,-312.930
409,36354.673000,240.031,-3.507,26.791,441.002,-272.030,179.783,340.850,-35.370,-347.930
410,36354.701000,244.023,8.517,37.705,445.973,-264.290,183.941,196.850,69.630,-233.930
411,36354.734000,233.045,19.538,43.659,444.073,-261.481,184.016,-9.150,98.630,-111.930
412,36354.778000,244.023,26.552,38.698,446.898,-267.166,181.895,-388.150,76.630,-43.930
413,36354.813000,230.051,12.524,51.597,440.974,-273.921,179.730,-464.150,161.630,-16.930
414,36354.852000,203.103,22.544,49.612,440.975,-272.372,166.986,-680.150,-134.370,2.070
415,36354.894000,226.058,35.569,56.558,442.771,-281.145,155.925,-707.150,-136.370,-50.930
416,36354.934000,258.994,-32.564,88.310,446.710,-276.519,150.159,-488.150,31.630,-137.930
417,36354.974000,256.000,-76.650,90.295,445.761,-274.721,147.257,-478.150,71.630,-332.930
418,36354.994000,280.951,-17.534,87.318,449.716,-269.124,142.501,-325.150,102.630,-372.930
419,36355.34000,249.014,-65.628,68.465,453.510,-274.821,139.398,-364.150,123.630,-57.930
420,36355.76000,252.008,-64.626,65.488,451.628,-271.014,141.468,-223.150,142.630,42.070
421,36355.116000,248.016,-32.564,48.620,452.528,-275.754,140.354,-164.150,131.630,21.070
422,36355.156000,238.035,-43.585,50.605,450.667,-270.135,139.524,-200.150,107.630,-46.930
423,36355.201000,243.025,-20.540,48.620,448.616,-277.727,139.309,-70.150,39.630,-93.930
424,36355.234000,246.020,0.501,56.558,451.640,-270.094,140.510,-77.150,49.630,-43.930
425,36355.254000,242.027,-17.534,51.597,449.612,-275.848,138.379,-5.150,57.630,-2.930
426,36355.294000,255.002,-41.581,50.605,448.614,-277.753,138.325,8.850,-65.370,-26.930
427,36355.341000,238.035,-6.513,51.597,453.502,-274.927,135.461,-128.150,-78.370,1.070
428,36355.374000,221.068,-20.540,59.535,451.553,-275.060,131.519,-266.150,-82.370,11.070
429,36355.414000,221.068,-31.562,57.550,455.343,-280.810,126.448,-346.150,-99.370,-97.930
430,36355.454000,236.039,-20.540,57.550,457.317,-278.051,122.593,-265.150,-42.370,-129.930
431,36355.494000,251.010,14.528,67.473,457.378,-273.428,118.787,-138.150,-31.370,15.070
432,36355.534000,238.035,19.538,40.682,455.458,-271.643,115.883,-306.150,-58.370,75.070
433,36355.556000,241.029,-38.575,22.822,459.211,-279.417,105.837,-398.150,-56.370,18.070
434,36355.596000,244.023,-74.646,21.829,455.233,-285.303,99.765,-378.150,-36.370,-61.930
435,36355.636000,243.025,-62.622,30.760,457.241,-280.574,98.916,-81.150,-8.370,105.070
436,36355.677000,250.012,-78.654,57.550,453.294,-285.304,100.745,395.850,-125.370,250.070
437,36355.717000,264.982,-37.573,63.504,454.251,-286.998,107.585,570.850,-224.370,226.070
438,36355.757000,273.965,60.618,82.357,450.310,-290.888,105.503,346.850,-146.370,-54.930
439,36355.798000,251.010,71.640,70.450,463.103,-278.469,103.903,-251.150,-103.370,-337.930
440,36355.833000,260.990,39.577,66.481,463.091,-278.627,97.997,-388.150,32.630,-393.930
441,36355.853000,286.940,26.552,53.581,468.156,-263.533,94.491,-338.150,131.630,-473.930
442,36355.893000,273.965,2.505,61.519,476.969,-258.576,98.578,-191.150,279.630,-439.930
443,36355.933000,255.002,13.526,52.589,476.142,-249.054,101.792,-172.150,334.630,-355.930
444,36355.973000,266.979,19.538,56.558,477.169,-245.232,102.884,-521.150,406.630,-420.930
445,36356.13000,187.135,-56.611,18.853,480.168,-240.225,111.881,-461.150,574.630,-383.930
446,36356.53000,192.125,-26.552,56.558,478.198,-243.693,124.568,-35.150,613.630,-142.930
447,36356.93000,207.096,-3.507,83.349,476.382,-235.184,125.785,-381.150,451.630,159.070
448,36356.141000,135.236,-20.540,52.589,479.138,-246.385,129.412,-226.150,83.630,27.070
449,36356.156000,344.827,-80.658,29.767,480.295,-233.211,126.830,665.850,-338.370,44.070
450,36356.203000,336.842,21.542,80.372,471.355,-249.016,141.129,869.850,160.630,684.070
451,36356.237000,230.051,81.659,74.419,460.667,-250.847,148.929,310.850,141.630,501.070
452,36356.276000,226.058,53.605,61.519,459.480,-265.939,150.475,50.850,2.630,293.070
453,36356.316000,230.051,16.532,65.488,450.648,-272.682,150.272,-4.150,-31.370,291.070
454,36356.356000,246.020,8.517,71.442,449.600,-277.529,146.201,92.850,-329.370,271.070
455,36356.398000,217.076,20.540,91.287,445.753,-274.826,143.319,198.850,-274.370,143.070
456,36356.438000,178.152,8.517,110.140,449.645,-273.878,141.385,217.850,-293.370,14.070
457,36356.458000,190.129,-30.560,80.372,451.665,-268.230,139.578,273.850,-368.370,-157.930
458,36356.506000,278.955,-54.607,92.279,457.557,-262.658,132.858,465.850,-492.370,-205.930
459,36356.534000,325.864,-21.542,63.504,459.573,-257.823,135.947,632.850,-249.370,80.070
460,36356.574000,260.990,-52.603,52.589,458.583,-259.623,139.829,483.850,-16.370,170.070
461,36356.622000,220.070,-32.564,76.403,454.788,-254.712,148.812,453.850,-6.370,14.070
462,36356.656000,235.041,-38.575,50.605,451.880,-254.701,150.775,447.850,-163.370,59.070
463,36356.702000,245.021,-63.624,56.558,453.914,-248.868,155.858,576.850,-185.370,64.070
464,36356.736000,265.980,-35.569,38.698,454.896,-248.696,161.766,625.850,-130.370,43.070
465,36356.756000,242.027,-21.542,36.713,457.830,-247.604,165.736,675.850,-111.370,116.070
466,36356.796000,243.025,-16.532,32.744,456.911,-244.649,170.735,669.850,-53.370,46.070
467,36356.836000,237.037,3.507,24.806,455.160,-232.226,176.979,650.850,-109.370,-85.930
468,36356.876000,233.045,18.536,26.791,464.032,-223.433,183.140,638.850,-168.370,-215.930
469,36356.916000,253.006,28.556,18.853,463.052,-224.340,185.081,568.850,-249.370,-155.930
470,36356.954000,251.010,19.538,11.907,469.103,-208.261,182.587,491.850,-284.370,-150.930
471,36357.2000,248.016,33.566,41.674,471.139,-201.640,181.791,353.850,-196.370,-324.930
472,36357.16000,247.018,29.558,51.597,477.098,-192.128,181.082,228.850,-147.370,-282.930
473,36357.56000,281.949,18.536,79.380,478.996,-194.963,180.023,95.850,-102.370,-155.930
474,36357.96000,258.994,27.554,57.550,479.006,-194.070,178.081,-90.150,-48.370,-19.930
475,36357.136000,226.058,13.526,46.636,479.906,-198.811,176.967,-221.150,-4.370,7.070
476,36357.176000,254.004,3.507,40.682,480.923,-195.120,173.137,-141.150,-75.370,-54.930
477,36357.216000,249.014,57.613,31.752,482.016,-186.622,172.391,-162.150,35.630,-20.930
478,36357.256000,237.037,19.538,41.674,481.025,-187.660,169.410,-250.150,30.630,-80.930
479,36357.296000,261.988,21.542,39.690,480.917,-195.199,170.183,-226.150,-52.370,-198.930
480,36357.316000,258.994,27.554,37.705,483.975,-184.835,167.526,-228.150,-68.370,-154.930
481,36357.356000,266.979,-3.507,38.698,484.904,-186.897,160.585,-247.150,-38.370,-124.930
482,36357.396000,243.025,6.513,45.643,485.874,-186.883,160.587,-85.150,1.630,-37.930
483,36357.437000,256.000,5.511,43.659,488.749,-188.865,155.619,-96.150,-63.370,32.070
484,36357.478000,251.010,10.521,48.620,485.921,-183.206,156.755,-115.150,-40.370,8.070
485,36357.518000,246.020,26.552,52.589,487.717,-192.740,152.558,-132.150,-112.370,-23.930
486,36357.558000,271.969,22.544,41.674,492.625,-188.127,145.810,-222.150,-56.370,61.070
487,36357.598000,265.980,18.536,29.767,492.472,-198.556,144.536,-230.150,-12.370,194.070
488,36357.618000,270.971,33.566,8.930,488.528,-202.472,141.469,-183.150,45.630,343.070
489,36357.658000,263.984,36.571,14.884,481.492,-219.511,143.934,-152.150,134.630,444.070
490,36357.697000,252.008,40.579,15.876,475.507,-230.888,145.575,-282.150,115.630,599.070
491,36357.737000,255.002,6.513,3.969,469.445,-247.099,143.147,-392.150,80.630,631.070
492,36357.777000,241.029,-19.538,8.930,462.523,-255.759,140.927,-370.150,200.630,549.070
493,36357.817000,224.062,-28.556,22.822,449.649,-273.826,143.354,-145.150,219.630,431.070
494,36357.857000,227.057,-51.601,25.798,444.836,-271.845,149.302,3.850,172.630,390.070
495,36357.897000,225.060,-50.599,36.713,442.688,-286.818,155.767,205.850,281.630,245.070
496,36357.917000,207.096,-41.581,44.651,434.998,-282.883,165.700,341.850,276.630,165.070
497,36357.957000,188.133,-54.607,47.628,434.875,-292.155,172.327,253.850,111.630,122.070
498,36357.997000,221.068,-74.646,30.760,433.103,-280.782,174.608,251.850,20.630,81.070
499,36358.37000,223.064,-57.613,73.426,427.314,-279.629,185.450,406.850,246.630,138.070
500,36358.84000,308.897,138.771,151.814,420.505,-282.220,198.153,89.850,437.630,550.070
501,36358.119000,334.846,22.544,65.488,406.654,-300.379,197.625,-120.150,63.630,680.070
502,36358.159000,297.918,7.515,83.349,405.621,-304.281,193.580,-84.150,-139.370,-86.930
503,36358.199000,239.033,-31.562,87.318,408.560,-302.349,193.639,-264.150,101.630,-243.930
504,36358.219000,236.039,-77.652,60.527,404.680,-302.377,194.615,-101.150,12.630,-73.930
505,36358.266000,193.123,-69.636,63.504,414.480,-295.647,193.835,287.850,-194.370,-84.930
506,36358.304000,196.117,-51.601,47.628,416.482,-290.996,190.033,390.850,-312.370,-189.930
507,36358.338000,206.097,-41.581,41.674,425.442,-275.690,192.441,388.850,-391.370,-269.930
508,36358.379000,290.932,-28.556,42.667,428.360,-274.808,188.536,218.850,-249.370,-214.930
509,36358.421000,282.947,-40.579,52.589,438.137,-269.916,189.673,229.850,83.630,-107.930
510,36358.458000,252.008,-30.560,45.643,434.326,-265.978,197.645,291.850,9.630,-34.930
511,36358.498000,222.066,-25.550,33.736,436.417,-256.336,203.818,170.850,139.630,-181.930
512,36358.518000,196.117,-37.573,13.891,437.523,-246.893,203.099,148.850,20.630,-330.930
513,36358.558000,202.105,-32.564,-0.992,441.418,-246.680,209.013,565.850,-235.370,-438.930
514,36358.598000,257.996,26.552,2.977,450.365,-231.531,205.515,723.850,-314.370,-272.930
515,36358.638000,248.016,28.556,44.651,456.368,-219.917,212.733,561.850,-144.370,-125.930
516,36358.678000,285.942,57.613,99.225,453.441,-220.930,211.717,271.850,-33.370,-225.930
517,36358.718000,325.864,55.609,127.008,455.600,-205.799,211.158,-92.150,92.630,-150.930
518,36358.758000,303.906,14.528,88.310,454.506,-214.323,210.919,-425.150,113.630,149.070
519,36358.798000,278.955,-12.524,32.744,454.305,-227.667,206.613,-528.150,67.630,292.070
520,36358.818000,257.996,-27.554,20.837,444.374,-242.987,204.203,-502.150,106.630,469.070
521,36358.858000,215.080,-81.659,12.899,438.417,-251.712,199.032,-417.150,189.630,425.070
522,36358.898000,211.088,-39.577,45.643,430.499,-263.012,204.606,-347.150,250.630,140.070
523,36358.937000,228.055,-31.562,46.636,429.530,-262.999,205.588,-331.150,227.630,63.070
524,36358.981000,241.029,-32.564,47.628,428.439,-271.471,207.318,-367.150,262.630,29.070
525,36359.21000,245.021,-24.548,63.504,428.480,-267.873,200.533,-543.150,133.630,-105.930
526,36359.61000,248.016,-70.638,67.473,430.270,-277.486,193.383,-703.150,79.630,-144.930
527,36359.101000,227.057,-91.679,102.202,432.233,-275.646,190.487,-351.150,159.630,-132.930
528,36359.128000,193.123,-67.632,112.124,431.241,-277.472,193.385,110.850,279.630,17.070
529,36359.157000,79.345,65.628,71.442,426.414,-277.199,206.172,295.850,322.630,391.070
530,36359.201000,127.251,131.757,102.202,420.425,-289.390,212.708,-9.150,139.630,293.070
531,36359.241000,512.499,-3.507,30.760,418.465,-288.893,196.981,-708.150,-391.370,108.070
532,36359.281000,319.875,-65.628,27.783,413.345,-307.008,193.517,-261.150,-14.370,535.070
533,36359.317000,255.002,-64.626,42.667,405.448,-315.734,189.327,-122.150,40.630,292.070
534,36359.357000,249.014,-5.511,3.969,403.520,-314.816,189.349,-230.150,110.630,32.070
535,36359.399000,252.008,-22.544,4.961,408.263,-321.551,182.284,-364.150,-19.370,20.070
536,36359.417000,253.006,-51.601,39.690,405.274,-326.426,178.209,-444.150,37.630,204.070
537,36359.459000,215.080,-65.628,37.705,399.371,-330.607,166.280,-516.150,8.630,214.070
538,36359.499000,232.047,-56.611,52.589,391.425,-342.275,158.073,-567.150,-59.370,189.070
539,36359.546000,239.033,-34.568,41.674,391.357,-345.454,145.198,-803.150,-177.370,214.070
540,36359.579000,234.043,-50.599,40.682,389.134,-362.189,121.122,-1202.150,-201.370,259.070
541,36359.619000,295.922,-148.791,113.116,385.195,-363.742,100.416,-878.150,-170.370,204.070
542,36359.657000,306.901,-99.695,129.984,384.046,-376.049,100.072,28.850,53.630,49.070
543,36359.677000,203.103,-25.550,96.248,383.142,-372.123,106.081,355.850,178.630,-118.930
544,36359.717000,199.111,-17.534,75.411,390.114,-360.521,112.317,334.850,5.630,-256.930
545,36359.758000,240.031,-71.640,45.643,395.082,-353.596,121.371,423.850,66.630,-291.930
546,36359.801000,242.027,-95.687,34.729,401.947,-349.506,129.365,620.850,-104.370,-295.930
547,36359.841000,246.020,-84.665,21.829,405.098,-334.859,145.515,951.850,-79.370,-195.930
548,36359.881000,265.980,-74.646,36.713,408.213,-322.209,157.676,1091.850,-30.370,-213.930
549,36359.921000,257.996,-49.597,38.698,412.236,-314.194,172.660,922.850,-19.370,-424.930
550,36359.961000,222.066,-24.548,44.651,418.345,-295.829,184.984,629.850,-4.370,-544.930
551,36359.984000,223.064,-7.515,30.760,430.230,-279.535,187.425,254.850,-152.370,-628.930
552,36360.21000,222.066,-1.503,23.814,442.978,-270.005,183.777,-151.150,-158.370,-663.930
553,36360.61000,209.092,12.524,33.736,449.784,-268.229,175.969,-367.150,-82.370,-561.930
554,36360.101000,190.129,37.573,21.829,457.700,-256.194,162.546,-663.150,-25.370,-406.930
555,36360.141000,205.099,22.544,48.620,462.539,-256.309,155.666,-647.150,-31.370,-380.930
556,36360.196000,229.053,9.519,46.636,460.663,-250.900,146.961,-612.150,-181.370,-138.930
557,36360.217000,234.043,18.536,47.628,456.595,-262.566,136.793,-478.150,-36.370,84.070
558,36360.262000,260.990,-25.550,107.163,459.571,-257.849,134.962,-310.150,171.630,-115.930
559,36360.282000,243.025,-30.560,100.217,461.456,-261.631,133.877,-360.150,155.630,-239.930
560,36360.322000,284.943,-107.710,111.132,462.583,-250.375,130.257,-122.150,-32.370,-189.930
561,36360.364000,366.784,-36.571,85.333,463.474,-256.008,131.086,56.850,-152.370,230.070
562,36360.401000,325.864,-30.560,88.310,458.583,-258.861,132.965,22.850,173.630,138.070
563,36360.441000,291.930,17.534,77.395,454.589,-267.269,138.626,-16.150,305.630,27.070
564,36360.482000,262.986,31.562,66.481,459.596,-257.533,146.774,-102.150,274.630,-280.930
565,36360.522000,264.982,19.538,56.558,457.686,-255.617,148.792,-105.150,255.630,-272.930
566,36360.569000,233.045,-3.507,25.798,462.612,-250.767,150.902,-162.150,196.630,-139.930
567,36360.578000,187.135,-37.573,21.829,464.512,-254.338,157.691,80.850,193.630,-186.930
568,36360.618000,186.136,-29.558,21.829,466.656,-240.940,162.986,274.850,177.630,-217.930
569,36360.663000,201.107,9.519,25.798,462.738,-243.753,165.852,342.850,122.630,13.070
570,36360.698000,219.072,-20.540,28.775,463.760,-240.771,170.854,305.850,20.630,213.070
571,36360.743000,214.082,-30.560,39.690,458.786,-250.085,178.456,269.850,110.630,446.070
572,36360.782000,242.027,1.503,35.721,451.909,-255.855,178.284,-15.150,32.630,414.070
573,36360.822000,230.051,-2.505,51.597,440.944,-275.077,171.829,-392.150,49.630,462.070
574,36360.859000,227.057,-27.554,50.605,439.960,-275.275,164.936,-912.150,-138.370,218.070
575,36360.879000,248.016,-58.614,34.729,447.506,-287.985,144.923,-1013.150,-206.370,-117.930
576,36360.919000,264.982,-75.648,47.628,450.436,-284.635,127.317,-720.150,-167.370,-60.930
577,36360.959000,287.938,-69.636,31.752,449.292,-295.340,116.197,-613.150,-109.370,176.070
578,36361.4000,333.848,-92.681,98.233,447.365,-294.422,116.219,-163.150,50.630,31.070
579,36361.39000,218.074,11.523,108.155,448.389,-292.175,129.071,382.850,448.630,-147.930
580,36361.79000,199.111,90.677,109.147,447.346,-297.731,133.832,112.850,54.630,207.070
581,36361.121000,204.101,118.732,76.403,445.292,-304.588,125.769,-505.150,-157.370,86.070
582,36361.139000,226.058,15.530,66.481,450.079,-308.460,119.768,-364.150,-337.370,-74.930
583,36361.179000,226.058,-18.536,49.612,449.212,-300.226,110.159,116.850,-338.370,9.070
584,36361.219000,222.066,-16.532,81.364,447.351,-294.606,109.329,454.850,-145.370,-138.930
585,36361.267000,241.029,32.564,127.008,454.185,-292.461,115.302,400.850,-25.370,-246.930
586,36361.301000,235.041,-5.511,124.031,454.250,-287.785,113.465,75.850,-269.370,17.070
587,36361.341000,251.010,-54.607,69.457,452.300,-287.918,109.523,81.850,-352.370,-37.930
588,36361.381000,234.043,-97.691,72.434,457.195,-285.013,109.612,307.850,-62.370,-189.930
589,36361.421000,255.002,-67.632,111.132,462.166,-278.035,120.635,727.850,55.630,-43.930
590,36361.439000,241.029,-61.620,72.434,456.447,-272.154,131.608,768.850,-44.370,89.070
591,36361.482000,255.002,-40.579,43.659,460.401,-268.106,139.596,818.850,-60.370,44.070
592,36361.524000,259.992,-47.593,24.806,454.607,-267.032,147.485,919.850,-116.370,75.070
593,36361.559000,242.027,-52.603,21.829,454.708,-261.883,163.367,1123.850,-74.370,108.070
594,36361.599000,219.072,-7.515,16.868,460.772,-246.407,173.643,1151.850,-158.370,-46.930
595,36361.639000,202.105,40.579,0.992,463.271,-475.902,175.133,1018.850,-272.370,-196.930
596,36361.679000,229.053,63.624,-6.946,467.818,-229.998,182.964,740.850,-393.370,-569.930
597,36361.719000,257.996,70.638,-1.984,481.804,-202.408,182.771,578.850,-239.370,-684.930
598,36361.739000,244.023,62.622,16.868,486.915,-185.187,188.177,559.850,-41.370,-647.930
599,36361.779000,270.971,68.634,100.217,491.128,-163.198,195.681,507.850,154.630,-625.930
600,36361.819000,405.708,54.607,112.124,491.146,-162.199,197.676,11.850,143.630,-300.930
601,36361.859000,259.992,-101.699,125.023,491.335,-150.536,209.804,168.850,394.630,-22.930
602,36361.903000,213.084,-96.689,94.264,484.405,-160.823,217.375,618.850,116.630,313.070
603,36361.943000,236.039,-2.505,72.434,486.404,-157.748,225.333,727.850,-32.370,497.070
604,36361.982000,233.045,13.526,81.364,479.554,-161.627,225.213,360.850,-21.370,367.070
605,36362.22000,263.984,55.609,117.085,475.601,-167.198,230.954,-13.150,119.630,374.070
606,36362.42000,253.006,128.751,80.372,467.481,-191.868,231.237,-657.150,234.630,589.070
607,36362.82000,207.096,104.704,26.791,466.256,-208.221,220.944,-1042.150,105.630,598.070
608,36362.119000,302.908,49.597,-0.992,459.013,-237.921,209.286,-1280.150,107.630,429.070
609,36362.159000,262.986,32.564,-1.984,457.891,-247.576,202.131,-1292.150,236.630,469.070
610,36362.199000,251.010,12.524,6.946,449.685,-276.423,187.544,-1282.150,215.630,458.070
611,36362.239000,233.045,-44.587,3.969,441.685,-291.086,173.352,-1113.150,151.630,480.070
612,36362.279000,214.082,-73.644,0.992,433.598,-313.025,169.777,-742.150,182.630,330.070
613,36362.331000,180.148,-77.652,38.698,428.819,-307.525,165.988,-178.150,247.630,63.070
614,36362.339000,187.135,-63.624,32.744,427.754,-314.893,173.650,153.850,75.630,-18.930
615,36362.391000,204.101,-81.659,21.829,426.856,-310.126,175.748,315.850,-56.370,146.070
616,36362.419000,193.123,-77.652,7.938,423.913,-312.873,180.585,427.850,11.630,246.070
617,36362.459000,133.240,-63.624,74.419,419.159,-307.818,195.472,733.850,187.630,60.070
618,36362.504000,280.951,81.659,149.829,421.122,-306.740,199.439,145.850,23.630,184.070
619,36362.539000,386.745,48.595,97.240,413.361,-306.797,201.392,166.850,-136.370,314.070
620,36362.584000,328.858,65.628,126.016,423.040,-308.551,201.359,99.850,-120.370,-356.930
621,36362.621000,288.936,-3.507,98.233,434.901,-292.574,191.988,-73.150,-282.370,-421.930
622,36362.641000,256.000,-79.656,69.457,434.888,-293.519,191.961,303.850,-353.370,-301.930
623,36362.681000,253.006,-64.626,62.512,437.000,-282.065,195.234,587.850,-229.370,130.070
624,36362.722000,213.084,-51.601,31.752,436.014,-283.812,201.086,521.850,-127.370,136.070
625,36362.763000,197.115,-20.540,47.628,436.201,-271.414,205.365,513.850,-114.370,-79.930
626,36362.803000,256.000,-10.521,41.674,441.025,-273.263,204.339,259.850,-276.370,-55.930
627,36362.843000,262.986,-10.521,34.729,440.140,-267.550,206.463,89.850,-48.370,-29.930
628,36362.881000,243.025,-20.540,42.667,442.054,-269.414,206.415,47.850,74.630,-87.930
629,36362.922000,238.035,-32.564,36.713,440.203,-263.662,210.506,110.850,24.630,-173.930
630,36362.942000,232.047,-10.521,13.891,448.012,-260.689,211.585,177.850,29.630,-330.930
631,36362.986000,213.084,1.503,16.868,448.179,-249.315,212.886,48.850,29.630,-453.930
632,36363.24000,201.107,7.515,14.884,459.056,-235.058,210.350,90.850,-68.370,-568.930
633,36363.67000,193.123,0.501,12.899,461.129,-225.653,207.664,283.850,-220.370,-708.930
634,36363.102000,215.080,48.595,37.705,478.011,-198.995,206.467,432.850,-289.370,-839.930
635,36363.142000,303.906,87.671,39.690,484.051,-183.835,204.931,374.850,-287.370,-621.930
636,36363.182000,399.719,123.742,17.860,488.132,-169.700,201.397,217.850,96.630,-175.930
637,36363.223000,404.710,160.814,62.512,475.369,-181.725,217.762,-45.150,566.630,441.070
638,36363.243000,262.986,-5.511,-24.806,458.432,-212.166,218.854,-1048.150,553.630,1035.070
639,36363.283000,148.211,-193.879,47.628,443.613,-230.313,219.308,-1047.150,455.630,283.070
640,36363.324000,77.349,-187.867,102.202,447.578,-224.584,219.474,-259.150,80.630,-383.930
641,36363.364000,177.154,-134.763,79.380,455.311,-225.657,210.605,75.850,-526.370,-345.930
642,36363.404000,223.064,-0.501,105.178,461.186,-221.083,201.889,-193.150,-384.370,-155.930
643,36363.443000,335.844,79.656,146.853,456.204,-228.954,192.810,-743.150,197.630,-66.930
644,36363.488000,256.998,-13.526,146.853,461.140,-223.211,192.978,-826.150,199.630,-367.930
645,36363.522000,206.097,-3.507,122.047,460.065,-229.950,188.854,-641.150,213.630,-275.930
646,36363.542000,213.084,81.659,75.411,462.036,-227.243,183.031,-698.150,111.630,-163.930
647,36363.582000,215.080,113.722,34.729,462.752,-243.569,172.742,-836.150,56.630,191.070
648,36363.624000,273.965,40.579,0.992,464.693,-242.018,159.018,-1069.150,-262.370,-14.930
649,36363.664000,257.996,23.546,-21.829,463.590,-249.126,141.113,-1015.150,-138.370,-170.930
650,36363.703000,228.055,-29.558,5.953,465.415,-255.981,131.090,-1011.150,145.630,135.070
651,36363.747000,243.025,-34.568,18.853,459.386,-269.460,124.803,-984.150,226.630,186.070
652,36363.786000,236.039,-99.695,15.876,458.271,-277.486,107.856,-951.150,137.630,172.070
653,36363.821000,237.037,-92.681,19.845,453.357,-281.417,104.788,-863.150,139.630,154.070
654,36363.841000,223.064,-45.589,22.822,447.424,-287.515,91.821,-1031.150,27.630,293.070
655,36363.882000,187.135,-56.611,16.868,442.260,-306.209,66.703,-1376.150,-98.370,400.070
656,36363.922000,253.006,-143.781,219.287,436.199,-321.632,58.395,-633.150,176.630,548.070
657,36363.961000,362.791,-112.720,159.752,434.239,-323.446,62.275,368.850,188.630,89.070
658,36364.2000,216.078,158.810,120.062,429.433,-321.360,72.161,473.850,61.630,251.070
659,36364.47000,215.080,117.730,93.271,426.352,-332.802,69.871,34.850,-204.370,207.070
660,36364.82000,272.967,-26.552,71.442,427.436,-324.409,65.188,136.850,-407.370,-82.930
661,36364.121000,238.035,-18.536,116.093,433.306,-321.437,67.248,651.850,-408.370,14.070
662,36364.141000,203.103,-41.581,97.240,420.681,-322.456,71.132,832.850,-384.370,228.070
663,36364.188000,164.179,-87.671,45.643,426.466,-325.945,78.914,897.850,-328.370,-63.930
664,36364.231000,296.920,-102.701,32.744,426.659,-313.468,86.147,920.850,-483.370,-169.930
665,36364.271000,381.754,-88.673,19.845,431.555,-312.085,99.964,1050.850,-91.370,54.070
666,36364.303000,244.023,-107.710,31.752,426.806,-306.190,110.940,1152.850,54.630,10.070
667,36364.351000,222.066,-83.663,25.798,434.749,-296.097,130.906,1316.850,-143.370,-202.930
668,36364.386000,258.994,9.519,16.868,435.915,-284.341,145.989,1075.850,-153.370,-231.930
669,36364.426000,238.035,52.603,21.829,446.679,-278.463,148.138,436.850,-202.370,-269.930
670,36364.444000,225.060,57.613,22.822,442.876,-272.871,147.303,-321.150,-48.370,-288.930
671,36364.486000,214.082,39.577,39.690,449.733,-267.364,137.632,-689.150,41.630,-297.930
672,36364.526000,196.117,35.569,16.868,450.648,-269.610,123.800,-990.150,-128.370,-364.930
673,36364.567000,237.037,22.544,31.752,455.548,-264.341,106.250,-934.150,-83.370,-206.930
674,36364.604000,211.088,2.505,56.558,452.541,-269.453,93.316,-869.150,122.630,-62.930
675,36364.646000,248.016,-102.701,81.364,453.454,-272.487,85.364,-739.150,111.630,-51.930
676,36364.687000,280.951,-132.759,133.953,452.431,-276.257,86.241,-308.150,195.630,-32.930
677,36364.703000,298.916,-192.877,121.054,454.484,-268.638,87.440,255.850,-126.370,-36.930
678,36364.743000,377.762,-33.566,53.581,456.390,-271.368,90.318,200.850,-44.370,205.070
679,36364.782000,299.914,12.524,58.543,450.474,-278.018,92.091,-120.150,242.630,7.070
680,36364.827000,259.992,32.564,41.674,450.486,-277.860,97.997,-379.150,355.630,-129.930
681,36364.867000,244.023,13.526,47.628,449.660,-267.550,95.331,-577.150,293.630,-189.930
682,36364.908000,242.027,28.556,32.744,454.293,-281.850,88.056,-924.150,211.630,-324.930
683,36364.944000,255.002,-54.607,24.806,461.213,-272.456,82.427,-719.150,235.630,-326.930
684,36364.983000,207.096,-44.587,19.845,463.224,-267.700,82.563,-208.150,167.630,-95.930
685,36365.2000,201.107,-13.526,30.760,460.404,-261.936,87.637,96.850,194.630,-14.930
686,36365.43000,197.115,3.507,28.775,461.320,-265.705,87.533,68.850,19.630,56.070
687,36365.84000,203.103,6.513,23.814,458.191,-280.062,82.211,-295.150,-194.370,265.070
688,36365.137000,219.072,-32.564,13.891,453.289,-282.312,71.320,-571.150,-372.370,320.070
689,36365.169000,223.064,-53.605,20.837,452.260,-283.850,49.636,-612.150,-422.370,285.070
690,36365.204000,244.023,-85.667,24.806,447.213,-295.635,35.530,-472.150,-383.370,217.070
691,36365.246000,286.940,-101.699,26.791,448.162,-295.911,24.704,-322.150,-202.370,124.070
692,36365.289000,332.850,-83.663,61.519,447.118,-300.706,22.601,-367.150,316.630,161.070
693,36365.317000,322.869,-117.730,95.256,446.125,-303.319,31.380,-220.150,491.630,-142.930
694,36365.343000,277.957,-48.595,98.233,454.036,-294.409,42.460,267.850,592.630,-136.930
695,36365.383000,172.164,151.796,102.202,448.190,-296.304,45.349,-213.150,-57.370,376.070
696,36365.424000,180.148,138.771,28.775,447.987,-308.152,26.330,-992.150,-46.370,121.070
697,36365.471000,185.138,-27.554,42.667,448.053,-301.927,11.749,-886.150,-527.370,-120.930
698,36365.508000,295.922,-79.656,109.147,445.976,-309.862,-1.262,-46.150,-393.370,30.070
699,36365.543000,227.057,-67.632,107.163,444.956,-313.579,1.584,499.850,-95.370,227.070
700,36365.587000,230.051,-19.538,78.388,445.925,-314.353,7.466,680.850,-291.370,76.070
701,36365.607000,224.062,-16.532,70.450,443.068,-311.373,14.429,922.850,-237.370,-30.930
702,36365.647000,248.016,-65.628,63.504,443.171,-305.436,24.430,1122.850,-248.370,-10.930
703,36365.687000,250.012,-75.648,57.550,450.947,-306.717,43.096,1269.850,-33.370,-219.930
704,36365.727000,265.980,-28.556,63.504,450.170,-295.776,64.055,1265.850,127.630,55.070
705,36365.767000,256.000,-61.620,63.504,442.347,-302.005,82.557,1211.850,199.630,254.070
706,36365.807000,247.018,-60.618,17.860,444.350,-299.639,99.348,1076.850,-37.370,248.070
707,36365.846000,271.969,-36.571,20.837,438.621,-295.413,119.128,1121.850,13.630,107.070
708,36365.889000,247.018,-6.513,1.984,443.571,-290.247,133.051,993.850,-15.370,29.070
709,36365.904000,216.078,5.511,7.938,442.725,-283.273,147.014,937.850,-93.370,-172.930
710,36365.944000,214.082,17.534,1.984,447.716,-274.509,154.151,801.850,-130.370,-329.930
711,36365.984000,221.068,27.554,-1.984,456.673,-260.017,161.455,882.850,-186.370,-454.930
712,36366.24000,199.111,24.548,0.000,461.813,-240.877,167.897,991.850,-256.370,-573.930
713,36366.63000,203.103,33.566,-4.961,472.874,-215.036,174.536,1158.850,-395.370,-708.930
714,36366.114000,250.012,60.618,36.713,484.842,-193.069,177.135,1328.850,-198.370,-771.930
715,36366.152000,341.832,70.638,136.930,483.244,-170.217,184.653,921.850,60.630,-596.930
716,36366.184000,370.776,38.575,141.891,488.324,-156.462,201.765,372.850,415.630,-77.930
717,36366.209000,232.047,-108.712,103.194,487.291,-161.124,204.585,319.850,-119.370,260.070
718,36366.244000,257.996,-56.611,74.419,483.406,-161.206,203.592,506.850,-203.370,381.070
719,36366.287000,272.967,43.585,80.372,475.429,-176.341,207.092,45.850,-19.370,483.070
720,36366.333000,254.004,62.622,79.380,474.329,-184.944,203.900,-494.150,41.630,501.070
721,36366.367000,259.992,45.589,37.705,471.076,-207.051,191.477,-803.150,-6.370,460.070
722,36366.408000,217.076,59.616,26.791,467.944,-222.222,191.049,-795.150,225.630,577.070
723,36366.444000,252.008,30.560,14.884,460.871,-241.284,188.540,-775.150,198.630,577.070
724,36366.484000,273.965,38.575,13.891,457.786,-252.778,184.281,-603.150,289.630,398.070
725,36366.504000,242.027,31.562,19.845,447.734,-276.582,182.618,-728.150,304.630,394.070
726,36366.543000,249.014,-1.503,1.984,444.613,-290.073,174.369,-654.150,163.630,192.070
727,36366.597000,245.021,0.501,14.884,441.711,-289.221,172.420,-609.150,170.630,236.070
728,36366.627000,210.090,-55.609,23.814,433.827,-297.002,168.256,-551.150,151.630,314.070
729,36366.667000,196.117,-71.640,14.884,427.850,-306.751,160.106,-253.150,26.630,87.070
730,36366.716000,180.148,-59.616,2.977,430.837,-301.903,163.197,131.850,-31.370,-39.930
731,36366.744000,139.228,-83.663,8.930,430.792,-305.554,168.013,463.850,-221.370,20.070
732,36366.764000,150.207,-60.618,72.434,440.675,-293.149,167.391,684.850,-387.370,-197.930
733,36366.804000,305.903,116.728,100.217,450.437,-289.229,167.517,375.850,-395.370,-254.930
734,36366.844000,405.708,72.642,111.132,442.734,-284.690,164.679,184.850,-38.370,361.070
735,36366.884000,383.750,101.699,113.116,436.757,-295.962,170.257,83.850,104.630,159.070
736,36366.924000,301.910,-41.581,77.395,436.796,-293.152,169.352,-25.150,-57.370,-143.930
737,36366.964000,261.988,-44.587,81.364,441.738,-287.330,172.473,379.850,103.630,-209.930
738,36367.4000,229.053,27.554,86.326,441.967,-272.856,183.696,447.850,100.630,-130.930
739,36367.44000,186.136,-52.603,64.496,441.977,-272.724,188.617,396.850,-49.370,-67.930
740,36367.68000,201.107,-78.654,38.698,443.101,-262.282,189.893,470.850,-132.370,-79.930
741,36367.108000,229.053,-58.614,30.760,444.089,-262.032,198.754,796.850,-37.370,190.070
742,36367.148000,286.940,-20.540,32.744,439.290,-259.867,211.593,771.850,69.630,367.070
743,36367.188000,266.979,-1.503,35.721,430.541,-262.459,225.277,483.850,180.630,287.070
744,36367.228000,226.058,-3.507,34.729,425.631,-266.337,224.177,265.850,69.630,143.070
745,36367.268000,246.020,-14.528,19.845,425.698,-262.396,230.189,102.850,98.630,58.070
746,36367.308000,217.076,-17.534,22.822,424.784,-258.601,231.276,52.850,185.630,-174.930
747,36367.348000,199.111,-4.509,22.822,428.775,-251.769,237.375,93.850,148.630,-366.930
748,36367.368000,211.088,-0.501,11.907,434.805,-237.502,237.782,319.850,-112.370,-457.930
749,36367.408000,224.062,-2.505,-0.992,439.814,-226.978,240.050,537.850,-323.370,-366.930
750,36367.447000,259.992,36.571,-20.837,446.744,-217.452,239.343,871.850,-361.370,-271.930
751,36367.491000,316.881,75.648,19.845,445.127,-196.386,250.746,1125.850,46.630,-62.930
752,36367.531000,390.737,133.761,88.310,437.437,-193.212,267.543,819.850,374.630,134.070
753,36367.573000,366.784,138.771,54.574,431.506,-201.594,275.169,-524.150,798.630,203.070
754,36367.607000,180.148,-92.681,83.349,415.854,-211.060,282.748,-958.150,726.630,-126.930
755,36367.647000,76.351,-304.094,105.178,414.999,-203.430,285.909,94.850,148.630,-312.930
756,36367.667000,148.211,-66.630,64.496,424.819,-194.913,281.245,714.850,-631.370,-88.930
757,36367.707000,264.982,48.595,102.202,428.772,-189.342,275.505,221.850,-762.370,-23.930
758,36367.747000,314.885,46.591,146.853,426.687,-198.144,265.420,-680.150,143.630,111.070
759,36367.787000,282.947,-41.581,155.783,431.430,-204.879,258.356,-940.150,151.630,-160.930
760,36367.826000,218.074,3.507,121.054,430.357,-211.591,255.216,-813.150,163.630,-380.930
761,36367.874000,233.045,41.581,75.411,437.124,-212.624,248.314,-727.150,132.630,-316.930
762,36367.908000,249.014,101.699,36.713,437.028,-219.244,248.129,-824.150,277.630,-98.930
763,36367.948000,210.090,61.620,27.783,436.998,-220.400,240.228,-1071.150,104.630,-269.930
764,36367.968000,235.041,47.593,-0.992,435.842,-232.025,230.067,-1064.150,129.630,-419.930
765,36368.6000,246.020,-3.507,26.791,439.685,-233.258,217.252,-1031.150,136.630,-191.930
766,36368.47000,233.045,-50.599,32.744,433.633,-248.576,212.882,-881.150,119.630,131.070
767,36368.91000,242.027,-48.595,24.806,431.628,-251.730,201.971,-796.150,135.630,279.070
768,36368.128000,257.996,-58.614,36.713,426.490,-270.843,196.513,-721.150,156.630,251.070
769,36368.168000,240.031,-67.632,45.643,420.551,-277.781,187.457,-760.150,149.630,245.070
770,36368.208000,223.064,-59.616,49.612,417.417,-292.218,179.181,-805.150,59.630,211.070
771,36368.244000,228.055,-51.601,25.798,414.375,-299.326,162.257,-1124.150,-91.370,217.070
772,36368.271000,214.082,-21.542,131.969,412.134,-317.821,143.050,-1338.150,149.630,304.070
773,36368.307000,261.988,-96.689,232.186,406.272,-319.926,138.064,-535.150,287.630,6.070
774,36368.347000,303.906,-118.732,177.612,404.280,-324.445,146.787,281.850,364.630,-32.930
775,36368.391000,209.092,116.728,119.070,397.549,-321.415,157.680,404.850,317.630,230.070
776,36368.426000,184.140,80.658,78.388,397.506,-324.278,156.617,-71.150,-122.370,46.070
777,36368.466000,256.998,-17.534,63.504,397.439,-328.218,150.605,73.850,-176.370,-46.930
778,36368.506000,231.049,22.544,120.062,397.476,-326.195,155.580,309.850,-172.370,223.070
779,36368.527000,246.020,16.532,134.946,396.474,-328.153,153.556,166.850,-360.370,308.070
780,36368.566000,217.076,-99.695,95.256,391.611,-328.353,148.625,401.850,-479.370,188.070
781,36368.614000,164.179,-120.736,60.527,394.555,-327.130,157.516,804.850,-245.370,211.070
782,36368.651000,273.965,-105.706,31.752,392.691,-323.085,168.445,1124.850,-380.370,241.070
783,36368.692000,322.869,-78.654,35.721,391.754,-321.890,178.313,1054.850,-105.370,81.070
784,36368.732000,273.965,-86.669,76.403,393.902,-309.201,192.440,945.850,0.630,-299.930
785,36368.767000,288.936,-47.593,59.535,402.955,-288.850,206.792,848.850,-120.370,-721.930
786,36368.809000,250.012,-28.556,53.581,417.902,-262.901,215.408,924.850,-77.370,-677.930
787,36368.829000,210.090,18.536,39.690,423.055,-243.604,227.756,771.850,-38.370,-575.930
788,36368.868000,209.092,57.613,33.736,429.987,-234.051,228.034,346.850,-42.370,-426.930
789,36368.918000,204.101,53.605,44.651,431.003,-231.148,230.083,-33.150,-69.370,-197.930
790,36368.949000,203.103,33.566,44.651,430.961,-233.223,223.140,-443.150,-32.370,156.070
791,36368.986000,229.053,24.548,46.636,429.642,-256.169,213.647,-831.150,-169.370,291.070
792,36369.29000,240.031,47.593,43.659,427.655,-257.564,197.867,-1190.150,-151.370,344.070
793,36369.68000,218.074,28.556,40.682,420.484,-280.961,174.582,-1909.150,10.630,299.070
794,36369.106000,248.016,-73.644,73.426,418.227,-298.905,140.636,-2181.150,126.630,-0.930
795,36369.137000,299.914,-126.748,106.171,418.049,-308.126,113.822,-1568.150,130.630,-259.930
796,36369.168000,269.973,-121.738,78.388,422.958,-303.487,108.057,-625.150,-29.370,-168.930
797,36369.208000,250.012,-43.585,47.628,424.805,-309.291,101.997,-114.150,-168.370,38.070
798,36369.249000,265.980,-31.562,41.674,422.952,-302.805,98.240,-123.150,-12.370,-130.930
799,36369.291000,247.018,-61.620,51.597,425.821,-305.627,97.183,-23.150,18.630,-250.930
800,36369.331000,201.107,-55.609,65.488,429.786,-299.898,97.349,98.850,12.630,-5.930
801,36369.367000,199.111,-78.654,82.357,423.921,-303.579,104.122,235.850,-38.370,5.070
802,36369.411000,230.051,-66.630,85.333,429.891,-293.935,108.335,555.850,-74.370,-63.930
803,36369.431000,253.006,-48.595,86.326,431.835,-295.403,123.051,927.850,75.630,118.070
804,36369.469000,216.078,-2.505,74.419,426.143,-288.393,140.942,1056.850,56.630,150.070
805,36369.508000,247.018,67.632,38.698,424.286,-282.720,142.080,540.850,-136.370,174.070
806,36369.547000,314.885,8.517,43.659,427.140,-287.275,146.876,108.850,15.630,29.070
807,36369.587000,265.980,-34.568,46.636,426.187,-286.291,148.869,-46.150,145.630,-193.930
808,36369.627000,221.068,-8.517,46.636,432.166,-276.515,158.004,151.850,224.630,-221.930
809,36369.668000,227.057,10.521,46.636,434.143,-274.491,161.998,100.850,160.630,-187.930
810,36369.687000,234.043,1.503,45.643,431.273,-271.695,162.071,-189.150,154.630,-36.930
811,36369.728000,238.035,-3.507,38.698,433.137,-276.501,158.006,-567.150,73.630,-28.930
812,36369.767000,218.074,-21.542,37.705,431.158,-277.790,146.163,-853.150,32.630,-75.930
813,36369.809000,236.039,-57.613,34.729,434.837,-289.583,127.153,-1159.150,-58.370,-97.930
814,36369.848000,229.053,-90.677,39.690,437.660,-293.772,110.320,-1186.150,-85.370,-30.930
815,36369.889000,213.084,-79.656,27.783,433.672,-299.029,92.462,-1111.150,18.630,83.070
816,36369.931000,301.910,-142.779,133.953,429.760,-300.240,84.553,-661.150,251.630,80.070
817,36369.968000,256.998,-91.679,104.186,432.651,-302.773,94.323,-203.150,382.630,5.070
818,36369.994000,188.133,39.577,116.093,432.628,-305.373,103.103,195.850,612.630,7.070
819,36370.28000,310.893,1.503,97.240,435.560,-305.068,112.953,-101.150,400.630,-248.930
820,36370.69000,351.813,13.526,90.295,440.633,-289.869,113.384,-318.150,154.630,-421.930
821,36370.114000,241.029,120.736,78.388,447.338,-294.003,96.559,-885.150,-119.370,-54.930
822,36370.148000,197.115,107.710,31.752,445.239,-302.989,79.584,-1366.150,-340.370,-31.930
823,36370.194000,194.121,-8.517,39.690,443.180,-307.615,48.960,-1294.150,-360.370,278.070
824,36370.232000,158.191,-158.810,80.372,436.188,-319.480,32.881,-362.150,-415.370,480.070
825,36370.276000,249.014,-114.724,155.783,436.216,-318.350,39.797,1088.850,-323.370,261.070
826,36370.289000,259.992,7.515,150.822,434.209,-325.363,61.238,1315.850,-252.370,240.070
827,36370.327000,240.031,-17.534,122.047,430.372,-323.290,70.142,1332.850,-456.370,183.070
828,36370.369000,292.928,-140.775,82.357,431.304,-327.610,84.777,1533.850,-215.370,219.070
829,36370.407000,254.004,-133.761,39.690,427.643,-316.341,119.511,1830.850,109.630,273.070
830,36370.451000,251.010,-78.654,25.798,422.888,-313.597,154.006,2128.850,3.630,397.070
831,36370.491000,273.965,-38.575,19.845,415.205,-311.105,180.619,2076.850,60.630,656.070
832,36370.527000,260.990,-17.534,19.845,401.741,-306.594,215.149,1649.850,185.630,764.070
833,36370.571000,226.058,5.511,8.930,389.190,-304.355,234.862,1081.850,100.630,444.070
834,36370.587000,191.127,26.552,5.953,390.209,-302.186,244.760,722.850,-128.370,97.070
835,36370.629000,221.068,-2.505,-13.891,396.247,-287.814,249.104,615.850,-170.370,-257.930
836,36370.677000,221.068,-16.532,9.922,405.064,-282.804,255.160,747.850,-178.370,-388.930
837,36370.712000,237.037,48.595,3.969,411.218,-260.788,262.668,1062.850,-207.370,-482.930
838,36370.749000,213.084,61.620,-15.876,422.352,-230.927,278.272,1104.850,-179.370,-486.930
839,36370.792000,216.078,24.548,122.047,423.879,-194.532,296.008,1193.850,99.630,-771.930
840,36370.829000,512.499,197.886,229.209,425.991,-183.078,299.281,649.850,377.630,-341.930
841,36370.872000,206.097,-19.538,194.481,409.642,-175.194,320.129,-3.150,848.630,14.070
842,36370.891000,127.251,-221.933,72.434,410.462,-185.582,319.841,30.850,-79.370,70.070
843,36370.931000,204.101,-65.628,82.357,408.562,-182.772,319.916,513.850,-205.370,176.070
844,36370.972000,251.010,9.519,101.209,413.498,-177.030,320.084,308.850,-255.370,271.070
845,36371.9000,233.045,-16.532,135.938,413.511,-175.323,313.246,-177.150,-196.370,-96.930
846,36371.49000,217.076,-16.532,139.907,422.166,-180.085,307.227,-341.150,-388.370,-163.930
847,36371.92000,231.049,104.704,111.132,427.720,-197.314,295.937,-868.150,-334.370,182.070
848,36371.129000,259.992,137.769,56.558,433.388,-206.163,279.963,-1429.150,-242.370,152.070
849,36371.151000,275.961,54.607,45.643,433.971,-230.369,257.651,-1609.150,-56.370,43.070
850,36371.188000,292.928,-5.511,24.806,433.701,-246.919,239.485,-1319.150,27.630,143.070
851,36371.231000,240.031,20.540,51.597,427.605,-264.339,227.187,-1105.150,157.630,193.070
852,36371.272000,236.039,0.501,36.713,426.379,-280.718,215.910,-1044.150,96.630,196.070
853,36371.309000,236.039,-49.597,34.729,420.333,-295.196,207.628,-774.150,167.630,201.070
854,36371.352000,226.058,-38.575,38.698,422.248,-296.272,201.700,-548.150,114.630,116.070
855,36371.392000,229.053,-43.585,48.620,417.322,-301.121,199.589,-311.150,75.630,44.070
856,36371.429000,238.035,-51.601,41.674,418.194,-306.992,191.559,-225.150,-29.370,-26.930
857,36371.448000,232.047,-76.650,34.729,417.204,-308.792,195.441,162.850,-1.370,-111.930
858,36371.492000,203.103,-82.661,38.698,420.230,-301.133,197.627,489.850,-148.370,-167.930
859,36371.529000,180.148,-75.648,47.628,429.296,-279.075,205.141,1107.850,-169.370,-402.930
860,36371.572000,223.064,11.523,109.147,440.292,-258.671,220.481,966.850,-168.370,-504.930
861,36371.616000,273.965,118.732,109.147,442.521,-239.573,226.918,721.850,-26.370,-465.930
862,36371.648000,332.850,143.781,144.868,447.433,-235.669,229.002,60.850,137.630,-201.930
863,36371.698000,225.060,8.517,97.240,444.391,-244.300,225.806,-557.150,59.630,20.070
864,36371.733000,234.043,-124.744,27.783,447.350,-240.581,221.980,234.850,-190.370,15.070
865,36371.752000,239.033,-32.564,47.628,442.460,-244.195,230.723,686.850,-24.370,125.070
866,36371.792000,255.002,30.560,50.605,446.543,-230.796,235.037,702.850,24.630,208.070
867,36371.832000,245.021,33.566,67.473,445.575,-231.545,242.884,442.850,-26.370,-32.930
868,36371.873000,246.020,31.562,76.403,443.754,-223.876,248.012,272.850,3.630,1.070
869,36371.913000,244.023,12.524,71.442,444.601,-232.373,247.777,114.850,-5.370,33.070
870,36371.953000,230.051,19.538,70.450,438.845,-227.727,247.897,37.850,-86.370,-12.930
871,36371.993000,247.018,7.515,74.419,442.710,-228.670,245.910,-22.150,-102.370,5.070
872,36372.33000,251.010,-6.513,77.395,444.646,-228.722,242.961,9.850,9.630,48.070
873,36372.53000,231.049,0.501,73.426,445.628,-228.550,248.869,55.850,43.630,19.070
874,36372.93000,235.041,10.521,77.395,441.714,-230.549,246.839,23.850,-12.370,3.070
875,36372.139000,249.014,4.509,76.403,443.655,-230.522,246.843,3.850,-31.370,11.070
876,36372.169000,254.004,-2.505,66.481,442.756,-225.781,247.957,26.850,-8.370,24.070
877,36372.211000,232.047,-2.505,62.512,441.689,-232.414,247.771,42.850,9.630,84.070
878,36372.251000,235.041,-1.503,76.403,441.744,-228.631,247.876,69.850,-1.370,32.070
879,36372.291000,260.990,35.569,108.155,437.831,-230.604,246.831,75.850,33.630,34.070
880,36372.331000,257.996,54.607,128.992,433.906,-234.284,252.624,-98.150,171.630,233.070
881,36372.349000,238.035,45.589,122.047,434.739,-243.726,252.363,-403.150,192.630,263.070
882,36372.389000,210.090,-12.524,78.388,426.879,-249.668,246.283,-577.150,52.630,112.070
883,36372.436000,192.125,-48.595,54.574,430.620,-258.361,237.195,-367.150,-89.370,23.070
884,36372.471000,213.084,-27.554,60.527,432.583,-256.521,234.298,-205.150,-251.370,11.070
885,36372.511000,273.965,-1.503,34.729,441.230,-261.389,224.341,-266.150,-280.370,-44.930
886,36372.551000,252.008,-1.503,38.698,437.408,-256.821,220.527,-182.150,-115.370,-80.930
887,36372.591000,256.000,-13.526,40.682,445.049,-264.460,213.443,-197.150,-158.370,-62.930
888,36372.629000,259.992,-16.532,21.829,443.192,-258.026,207.717,-101.150,-175.370,-98.930
889,36372.651000,243.025,-1.503,19.845,448.092,-255.041,210.759,61.850,50.630,-128.930
890,36372.691000,231.049,2.505,16.868,446.230,-249.448,208.944,73.850,2.630,-173.930
891,36372.732000,229.053,-2.505,21.829,454.030,-246.580,206.086,118.850,-160.370,-231.930
892,36372.774000,266.979,-0.501,19.845,455.069,-241.838,206.220,451.850,-211.370,-237.930
893,36372.814000,279.953,13.526,27.783,457.155,-233.036,216.304,761.850,32.630,-65.930
894,36372.854000,258.994,43.585,40.682,453.463,-221.402,229.409,860.850,92.630,75.070
895,36372.894000,299.914,65.628,39.690,452.636,-212.641,239.487,903.850,4.630,61.070
896,36372.934000,346.823,106.708,51.597,442.082,-206.592,259.310,825.850,548.630,212.070
897,36372.953000,330.854,162.818,111.132,427.493,-210.239,271.971,-9.150,900.630,471.070
898,36372.992000,210.090,36.571,43.659,410.635,-235.820,278.116,-1125.150,685.630,405.070
899,36373.29000,49.404,-285.057,88.310,406.756,-235.061,273.212,-474.150,130.630,-387.930
900,36373.69000,153.201,-119.734,64.496,419.565,-220.909,265.759,138.850,-438.370,-554.930
901,36373.116000,271.969,1.503,96.248,426.402,-217.188,259.972,37.850,-546.370,-252.930
902,36373.152000,271.969,7.515,166.698,431.088,-227.732,251.818,-386.150,-15.370,27.070
903,36373.192000,249.014,-11.523,205.395,426.172,-232.450,254.629,-340.150,321.630,13.070
904,36373.232000,216.078,-7.515,153.798,427.129,-232.620,247.741,-379.150,-72.370,-194.930
905,36373.252000,212.086,-15.530,137.922,435.008,-224.131,243.072,-120.150,-209.370,-304.930
906,36373.293000,230.051,14.528,87.318,437.896,-225.167,238.130,-58.150,-75.370,-151.930
907,36373.332000,244.023,85.667,37.705,437.982,-219.441,240.257,-164.150,81.630,10.070
908,36373.373000,229.053,51.601,40.682,434.839,-235.531,240.788,-328.150,232.630,-29.930
909,36373.412000,255.002,46.591,21.829,437.880,-226.139,237.119,-496.150,4.630,-209.930
910,36373.453000,241.029,30.560,-10.915,441.617,-235.646,232.927,-602.150,76.630,-13.930
911,36373.491000,246.020,3.507,25.798,435.575,-250.071,226.614,-780.150,168.630,206.070
912,36373.533000,256.000,-21.542,26.791,426.632,-263.618,219.337,-879.150,180.630,339.070
913,36373.553000,225.060,-59.616,40.682,422.521,-277.385,201.242,-1116.150,36.630,312.070
914,36373.591000,224.062,-33.566,10.915,422.322,-289.942,191.056,-1378.150,-183.370,150.070
915,36373.631000,215.080,-10.521,4.961,422.022,-306.886,158.125,-1879.150,-287.370,114.070
916,36373.676000,293.926,-123.742,203.411,412.911,-328.762,122.092,-1740.150,-14.370,439.070
917,36373.712000,360.795,-286.059,214.326,418.766,-325.213,110.397,-722.150,-90.370,-221.930
918,36373.753000,215.080,-2.505,170.667,418.668,-332.620,116.092,572.850,-75.370,104.070
919,36373.791000,142.222,84.665,84.341,416.886,-322.140,120.315,693.850,-208.370,186.070
920,36373.834000,151.205,-77.652,52.589,412.031,-322.996,126.185,960.850,-443.370,40.070
921,36373.854000,262.986,-106.708,48.620,415.102,-313.209,137.282,1485.850,-702.370,322.070
922,36373.891000,363.789,-36.571,21.829,408.189,-323.286,152.728,1482.850,-434.370,791.070
923,36373.932000,265.980,-92.681,30.760,404.470,-313.543,165.779,1314.850,-150.370,175.070
924,36373.973000,299.914,-57.613,44.651,410.472,-303.477,185.742,1347.850,-124.370,-276.930
925,36374.14000,237.037,-4.509,49.612,415.705,-279.294,204.128,1248.850,-57.370,-481.930
926,36374.54000,197.115,18.536,27.783,423.669,-266.627,214.330,715.850,-190.370,-471.930
927,36374.94000,228.055,18.536,29.767,429.723,-250.522,212.821,246.850,-202.370,-413.930
928,36374.114000,246.020,34.568,25.798,439.392,-252.407,207.867,-225.150,-206.370,-344.930
929,36374.153000,252.008,34.568,27.783,442.425,-243.120,200.261,-430.150,-94.370,-321.930
930,36374.192000,231.049,10.521,29.767,448.221,-244.168,193.357,-517.150,-1.370,-320.930
931,36374.262000,211.088,0.501,35.721,449.280,-236.878,182.741,-537.150,-128.370,-298.930
932,36374.283000,197.115,13.526,21.829,453.093,-240.790,175.754,-694.150,-264.370,-45.930
933,36374.312000,248.016,45.589,29.767,451.878,-255.489,156.654,-963.150,-176.370,303.070
934,36374.353000,284.943,-54.607,60.527,448.680,-273.052,137.472,-1088.150,-14.370,196.070
935,36374.394000,338.838,-152.798,112.124,442.822,-274.343,127.590,-929.150,-11.370,44.070
936,36374.414000,311.891,-125.746,126.016,444.789,-272.451,126.662,51.850,133.630,-249.930
937,36374.454000,244.023,-13.526,84.341,445.823,-269.310,137.571,571.850,155.630,-214.930
938,36374.494000,201.107,42.583,54.574,446.058,-254.757,151.747,528.850,224.630,57.070
939,36374.534000,234.043,51.601,32.744,447.913,-261.979,163.352,179.850,303.630,57.070
940,36374.576000,262.986,25.550,50.605,449.990,-253.283,169.499,-81.150,421.630,-269.930
941,36374.616000,261.988,3.507,54.574,447.086,-253.219,173.431,-75.150,477.630,-302.930
942,36374.654000,215.080,-13.526,45.643,452.068,-245.348,182.511,-4.150,317.630,-195.930
943,36374.697000,232.047,9.519,39.690,443.354,-245.182,193.320,76.850,362.630,126.070
944,36374.712000,252.008,-3.507,39.690,439.385,-251.725,198.050,33.850,273.630,263.070
945,36374.757000,228.055,-7.515,45.643,434.418,-260.173,202.724,-210.150,212.630,245.070
946,36374.792000,234.043,2.505,22.822,430.478,-262.514,187.898,-646.150,0.630,127.070
947,36374.832000,246.020,-10.521,24.806,432.240,-274.018,180.696,-971.150,11.630,83.070
948,36374.873000,220.070,-32.564,13.891,432.015,-286.917,157.714,-1435.150,-100.370,195.070
949,36374.919000,199.111,-70.638,13.891,428.817,-304.480,138.532,-1705.150,-131.370,278.070
950,36374.956000,240.031,-153.800,67.473,427.682,-312.008,104.878,-1482.150,-137.370,200.070
951,36374.996000,330.854,-208.908,205.395,421.622,-326.670,89.705,-611.150,-0.370,216.070
952,36375.16000,234.043,-40.579,116.093,425.695,-314.925,102.826,419.850,190.630,-129.930
953,36375.56000,170.168,109.714,74.419,424.542,-327.285,100.513,-44.150,47.630,-260.930
954,36375.97000,235.041,58.614,39.690,438.369,-310.964,102.957,-69.150,15.630,-654.930
955,36375.132000,315.883,-68.634,94.264,442.342,-304.368,100.197,-46.150,-24.370,-275.930
956,36375.177000,226.058,-12.524,61.519,450.262,-293.804,102.471,207.850,125.630,-129.930
957,36375.213000,215.080,38.575,55.566,450.270,-293.698,106.408,288.850,-121.370,-146.930
958,36375.254000,238.035,4.509,66.481,454.204,-289.914,104.553,192.850,-202.370,-65.930
959,36375.294000,262.986,-20.540,60.527,454.178,-291.779,105.485,211.850,-170.370,-58.930
960,36375.314000,257.996,2.505,66.481,457.240,-281.362,104.796,126.850,-47.370,-111.930
961,36375.354000,270.971,20.540,76.403,457.149,-287.902,107.565,-32.150,5.630,-111.930
962,36375.403000,275.961,-11.523,69.457,461.136,-280.361,104.830,-225.150,130.630,-124.930
963,36375.437000,256.000,-2.505,55.566,460.112,-284.131,105.707,-378.150,100.630,-29.930
964,36375.472000,220.070,-2.505,51.597,460.126,-282.424,98.870,-518.150,52.630,60.070
965,36375.514000,200.109,-13.526,48.620,454.209,-287.551,86.914,-581.150,-82.370,3.070
966,36375.552000,210.090,-21.542,37.705,459.026,-288.717,76.070,-592.150,-186.370,15.070
967,36375.581000,260.990,11.523,54.574,460.796,-299.355,65.941,-609.150,-99.370,-52.930
968,36375.613000,245.021,-13.526,81.364,458.921,-293.919,58.220,-491.150,-89.370,51.070
969,36375.653000,221.068,-26.552,49.612,458.834,-298.884,49.229,-318.150,-215.370,211.070
970,36375.692000,248.016,-63.624,68.465,458.809,-299.988,43.297,209.850,-286.370,142.070
971,36375.733000,274.963,-87.671,93.271,457.752,-306.489,48.032,574.850,-258.370,183.070
972,36375.777000,239.033,-82.661,66.481,450.971,-306.401,54.909,954.850,-180.370,296.070
973,36375.818000,230.051,-52.603,51.597,445.060,-314.521,72.378,1406.850,-208.370,363.070
974,36375.858000,249.014,-30.560,38.698,450.038,-308.225,93.217,1438.850,-210.370,289.070
975,36375.873000,247.018,-11.523,54.574,442.338,-305.944,111.956,1321.850,-59.370,105.070
976,36375.913000,220.070,-11.523,63.504,442.430,-301.687,129.780,1146.850,2.630,50.070
977,36375.956000,208.094,-7.515,60.527,445.311,-305.113,141.492,985.850,-104.370,64.070
978,36375.996000,236.039,-21.542,49.612,447.487,-290.532,155.672,980.850,-224.370,-7.930
979,36376.37000,252.008,-21.542,50.605,447.601,-283.676,164.716,966.850,-276.370,8.070
980,36376.77000,242.027,-5.511,50.605,448.678,-276.911,169.824,946.850,-320.370,25.070
981,36376.117000,241.029,1.503,63.504,455.540,-272.874,175.849,861.850,-363.370,48.070
982,36376.157000,246.020,-2.505,59.535,453.720,-264.417,175.098,780.850,-368.370,124.070
983,36376.177000,233.045,-2.505,56.558,459.495,-268.038,177.957,698.850,-348.370,68.070
984,36376.216000,238.035,-1.503,67.473,458.636,-260.461,179.150,645.850,-372.370,29.070
985,36376.257000,245.021,11.523,57.550,464.559,-253.733,180.331,645.850,-346.370,37.070
986,36376.295000,274.963,-40.579,52.589,463.606,-252.748,182.324,753.850,-349.370,218.070
987,36376.336000,273.965,-18.536,66.481,467.499,-252.561,187.254,743.850,-253.370,135.070
988,36376.373000,253.006,18.536,36.713,467.485,-254.268,194.092,567.850,4.630,13.070
989,36376.419000,234.043,-1.503,14.884,470.653,-237.862,205.373,715.850,97.630,-87.930
990,36376.453000,214.082,-29.558,27.783,471.706,-232.936,212.397,875.850,42.630,-178.930
991,36376.481000,227.057,-4.509,7.938,474.898,-215.452,228.627,985.850,68.630,-206.930
992,36376.516000,337.840,-14.528,-7.938,473.103,-206.679,239.687,1068.850,44.630,90.070
993,36376.556000,354.807,-5.511,18.853,470.339,-197.894,251.730,977.850,461.630,379.070
994,36376.596000,212.086,4.509,11.907,461.545,-204.137,270.230,680.850,214.630,246.070
995,36376.637000,187.135,-21.542,-4.961,470.497,-188.935,268.701,473.850,-274.370,-200.930
996,36376.678000,239.033,9.519,-13.891,476.407,-182.365,263.976,370.850,-306.370,-267.930
997,36376.723000,285.942,21.542,-9.922,482.361,-173.693,267.178,176.850,13.630,-22.930
998,36376.758000,261.988,15.530,4.961,476.437,-181.209,271.877,25.850,172.630,118.070
999,36376.778000,236.039,-2.505,14.884,473.542,-180.252,273.866,-107.150,171.630,141.070
1000,36376.837000,247.018,-3.507,17.860,472.415,-190.746,270.621,-219.150,52.630,109.070
1001,36376.854000,257.996,9.519,14.884,469.587,-185.088,271.757,-146.150,95.630,75.070
1002,36376.902000,237.037,12.524,22.822,465.592,-192.734,270.554,-155.150,20.630,76.070
1003,36376.937000,244.023,21.542,12.899,469.426,-195.621,266.546,-172.150,-47.370,164.070
1004,36376.977000,251.010,15.530,14.884,462.551,-201.365,267.358,-61.150,-30.370,191.070
1005,36377.17000,250.012,14.528,19.845,460.592,-202.391,265.359,-48.150,-53.370,266.070
1006,36377.36000,237.037,29.558,26.791,462.354,-214.656,265.021,-100.150,-4.370,298.070
1007,36377.77000,213.084,17.534,39.690,462.340,-215.602,264.995,-159.150,112.630,67.070
1008,36377.117000,216.078,-21.542,61.519,460.326,-220.410,262.890,-139.150,85.630,-133.930
1009,36377.158000,293.926,-113.722,27.783,472.227,-201.622,252.613,-136.150,-284.370,-442.930
1010,36377.198000,280.951,53.605,10.915,483.175,-182.611,251.193,459.850,-46.370,-1385.930
1011,36377.237000,247.018,87.671,27.783,488.506,-150.259,257.020,147.850,80.630,-696.930
1012,36377.278000,232.047,27.554,41.674,487.512,-152.111,258.934,-545.150,173.630,-286.930
1013,36377.318000,209.092,-46.591,14.884,493.492,-140.025,248.461,-603.150,-149.370,-706.930
1014,36377.339000,256.998,-23.546,25.798,497.414,-136.398,240.699,-498.150,-211.370,-816.930
1015,36377.381000,298.916,-7.515,6.946,504.361,-124.351,228.259,-309.150,-421.370,-341.930
1016,36377.416000,285.942,-14.528,10.915,507.253,-125.335,225.286,-23.150,-98.370,-35.930
1017,36377.456000,276.959,-12.524,4.961,506.281,-125.375,224.300,40.850,57.630,152.070
1018,36377.496000,268.975,11.523,23.814,503.261,-132.955,225.067,62.850,103.630,225.070
1019,36377.536000,258.994,27.554,35.721,498.445,-131.000,230.032,90.850,160.630,250.070
1020,36377.581000,248.016,34.568,44.651,494.370,-145.056,236.519,-42.150,130.630,291.070
1021,36377.614000,254.004,44.587,40.682,491.413,-147.986,234.465,-291.150,157.630,227.070
1022,36377.634000,235.041,16.532,32.744,487.354,-160.308,235.099,-613.150,218.630,88.070
1023,36377.674000,245.021,-3.507,24.806,485.418,-160.257,238.048,-639.150,187.630,-48.930
1024,36377.714000,248.016,-16.532,16.868,485.304,-167.875,235.869,-552.150,187.630,-15.930
1025,36377.756000,258.994,1.503,19.845,483.176,-180.301,231.585,-575.150,114.630,23.070
1026,36377.801000,253.006,-28.556,19.845,485.125,-179.406,228.663,-626.150,34.630,-4.930
1027,36377.836000,244.023,-58.614,0.000,482.097,-187.092,225.493,-470.150,6.630,-43.930
1028,36377.879000,245.021,-66.630,9.922,484.044,-186.224,221.586,-116.150,48.630,-40.930
1029,36377.914000,267.977,65.628,56.558,482.156,-183.257,227.567,63.850,192.630,-4.930
1030,36377.936000,255.002,65.628,24.806,480.182,-186.016,231.421,-54.150,92.630,180.070
1031,36377.976000,246.020,-1.503,62.512,471.273,-198.354,234.014,-165.150,166.630,225.070
1032,36378.16000,228.055,1.503,79.380,471.312,-195.543,233.109,-166.150,239.630,-22.930
1033,36378.56000,221.068,-36.571,32.744,468.347,-199.341,233.982,-143.150,-93.370,-14.930
1034,36378.96000,234.043,-11.523,36.713,474.307,-189.828,233.273,330.850,-167.370,-52.930
1035,36378.137000,256.000,34.568,37.705,469.432,-190.948,229.299,269.850,-237.370,14.070
